cue_img,cue_soa,target_y,trial,thisN,thisTrialN,thisRepN,key_control2.keys,key_control2.rt,key_control2.duration,key_resp.keys,key_resp.rt,key_resp.duration,practice.thisRepN,practice.thisTrialN,practice.thisN,practice.thisIndex,block1.thisRepN,block1.thisTrialN,block1.thisN,block1.thisIndex,block2.thisRepN,block2.thisTrialN,block2.thisN,block2.thisIndex,thisRow.t,notes,instructions.started,instructions_txt.started,key_control.started,instructions.stopped,key_control.keys,key_control.rt,key_control.duration,ready.started,ready_txt.started,ready_txt.stopped,ready.stopped,fix.started,fixation.started,key_control2.started,fixation_cross.started,fix.stopped,practice.key_control2.keys,practice.key_control2.rt,practice.key_control2.duration,cue.started,cube.started,fixation_cross_cue.started,cue.stopped,target.started,fixation_target.started,fixation_cross_target.started,key_resp.started,star.started,target.stopped,practice.key_resp.keys,practice.key_resp.rt,practice.key_resp.duration,star.stopped,fixation_target.stopped,fixation_cross_target.stopped,key_resp.stopped,block1.key_control2.keys,block1.key_control2.rt,block1.key_control2.duration,block1.key_resp.keys,block1.key_resp.rt,block1.key_resp.duration,break_2.started,text.started,key_control3.started,text.stopped,break_2.stopped,key_control3.keys,key_control3.rt,key_control3.duration,block2.key_control2.keys,block2.key_control2.rt,block2.key_control2.duration,block2.key_resp.keys,block2.key_resp.rt,block2.key_resp.duration,participant,session,date,expName,psychopyVersion,frameRate,expStart,
,,,,,,,,,,,,,,,,,,,,,,,,,,,0.0076212999993003905,0.026099499998963438,0.026099499998963438,371.38080040000204,up,371.3518907999969,None,,,,,,,,,,,,,,,,,,,,,,,,,,,,,,,,,,,,,,,,,,,,,,,,,,P101,001,2025-02-12_11h31.17.865,posner_endo_new1,2024.2.4,60.06550744475451,2025-02-12 11h31.28.657998 +0000,
,,,,,,,,,,,,,,,,,,,,,,,,,,,,,,,,,,371.38085780000256,371.3967021999997,374.39694079999754,374.37757050000073,,,,,,,,,,,,,,,,,,,,,,,,,,,,,,,,,,,,,,,,,,,,,,P101,001,2025-02-12_11h31.17.865,posner_endo_new1,2024.2.4,60.06550744475451,2025-02-12 11h31.28.657998 +0000,
cube_l.png,0.1,-0.31,valid,0,0,0,up,17.46188680001069,None,space,0.44186889998672996,None,0,0,0,0,,,,,,,,,374.39694079999754,,,,,,,,,,,,,374.385068100004,374.39694079999754,374.39694079999754,374.39694079999754,391.8621727999998,up,17.46188680001069,None,391.8959035000007,391.90706889999274,391.90706889999274,391.9256841000024,391.92603429999144,391.94251739999163,391.94251739999163,391.94251739999163,392.02571760000137,392.3933423999988,space,0.44186889998672996,None,,,,,,,,,,,,,,,,,,,,,,,,,P101,001,2025-02-12_11h31.17.865,posner_endo_new1,2024.2.4,60.06550744475451,2025-02-12 11h31.28.657998 +0000,
cube_l.png,0.1,0.31,invalid,1,1,0,up,2.9860427000094205,None,space,0.40578509999613743,None,0,1,1,1,,,,,,,,,392.4087569999974,,,,,,,,,,,,,392.39362479999545,392.4087569999974,392.4087569999974,392.4087569999974,395.4067617999972,up,2.9860427000094205,None,395.41835579999315,395.4284200999973,395.4284200999973,395.4723302000057,395.4726803999947,395.4887219999946,395.4887219999946,395.4887219999946,395.57213950000005,395.9063083999936,space,0.40578509999613743,None,,,,,,,,,,,,,,,,,,,,,,,,,P101,001,2025-02-12_11h31.17.865,posner_endo_new1,2024.2.4,60.06550744475451,2025-02-12 11h31.28.657998 +0000,
cube_r.png,0.1,-0.31,invalid,2,2,0,up,3.736677900000359,None,space,0.49896490000537597,None,0,2,2,2,,,,,,,,,395.9217842999933,,,,,,,,,,,,,395.90658979999716,395.9217842999933,395.9217842999933,395.9217842999933,399.66906030000246,up,3.736677900000359,None,399.68203519999224,399.6922657999967,399.6922657999967,399.7345304000046,399.73488079999515,399.7511855000048,399.7511855000048,399.7511855000048,399.83430479999515,400.25193440000294,space,0.49896490000537597,None,,,,,,,,,,,,,,,,,,,,,,,,,P101,001,2025-02-12_11h31.17.865,posner_endo_new1,2024.2.4,60.06550744475451,2025-02-12 11h31.28.657998 +0000,
cube_r.png,0.1,10,catch,3,3,0,up,3.391283899996779,None,None,,,0,3,3,3,,,,,,,,,400.2672345000028,,,,,,,,,,,,,400.2522280999983,400.2672345000028,400.2672345000028,400.2672345000028,403.6649103999953,up,3.391283899996779,None,403.67629839999427,403.6865126000048,403.6865126000048,403.73048729999573,403.73083279999264,403.7471227999922,403.7471227999922,403.7471227999922,403.83028330000525,406.7451071999967,None,,,405.8449277000036,406.76080530000036,406.76080530000036,406.76080530000036,,,,,,,,,,,,,,,,,,,,,P101,001,2025-02-12_11h31.17.865,posner_endo_new1,2024.2.4,60.06550744475451,2025-02-12 11h31.28.657998 +0000,
cube_l.png,0.1,-0.31,valid,4,4,0,up,1.056981600006111,None,space,0.4790014999889536,None,0,4,4,4,,,,,,,,,406.76080530000036,,,,,,,,,,,,,406.7453635999991,406.76080530000036,406.76080530000036,406.76080530000036,407.8273307000054,up,1.056981600006111,None,407.83871419999923,407.84887059999164,407.84887059999164,407.89292329999444,407.8932802999916,407.90946460000123,407.90946460000123,407.90946460000123,407.99280569999246,408.3935829999973,space,0.4790014999889536,None,,,,,,,,,,,,,,,,,,,,,,,,,P101,001,2025-02-12_11h31.17.865,posner_endo_new1,2024.2.4,60.06550744475451,2025-02-12 11h31.28.657998 +0000,
cube_l.png,0.1,0.31,invalid,5,5,0,up,3.537467399990419,None,space,0.4598297000047751,None,0,5,5,5,,,,,,,,,408.40909960000135,,,,,,,,,,,,,408.393857499992,408.40909960000135,408.40909960000135,408.40909960000135,411.9565050999954,up,3.537467399990419,None,411.9680076999939,411.97817750000104,411.97817750000104,412.02204120000533,412.0223885000014,412.03845680000086,412.03845680000086,412.03845680000086,412.12178639999183,412.50606770000013,space,0.4598297000047751,None,,,,,,,,,,,,,,,,,,,,,,,,,P101,001,2025-02-12_11h31.17.865,posner_endo_new1,2024.2.4,60.06550744475451,2025-02-12 11h31.28.657998 +0000,
cube_r.png,0.1,-0.31,invalid,6,6,0,up,3.1212108000036096,None,space,0.468376899996656,None,0,6,6,6,,,,,,,,,412.52137249999214,,,,,,,,,,,,,412.5063506000006,412.52137249999214,412.52137249999214,412.52137249999214,415.65270639999653,up,3.1212108000036096,None,415.66418979999435,415.6744283000007,415.6744283000007,415.7183146000025,415.7186650999938,415.7348959999945,415.7348959999945,415.7348959999945,415.81808729999466,416.218787299993,space,0.468376899996656,None,,,,,,,,,,,,,,,,,,,,,,,,,P101,001,2025-02-12_11h31.17.865,posner_endo_new1,2024.2.4,60.06550744475451,2025-02-12 11h31.28.657998 +0000,
cube_r.png,0.1,0.31,valid,7,7,0,up,3.439603699996951,None,space,0.41051810000499245,None,0,7,7,7,,,,,,,,,416.23422949999804,,,,,,,,,,,,,416.2190772000031,416.23422949999804,416.23422949999804,416.23422949999804,419.6819497999968,up,3.439603699996951,None,419.6933454999962,419.7035109999997,419.7035109999997,419.7476456000004,419.74799429999257,419.7640268999967,419.7640268999967,419.7640268999967,419.84723689999373,420.18138290000206,space,0.41051810000499245,None,,,,,,,,,,,,,,,,,,,,,,,,,P101,001,2025-02-12_11h31.17.865,posner_endo_new1,2024.2.4,60.06550744475451,2025-02-12 11h31.28.657998 +0000,
cube_l.png,0.1,-0.31,valid,8,8,0,up,3.349052599995048,None,space,0.49562560000049416,None,0,8,8,8,,,,,,,,,420.19684950000374,,,,,,,,,,,,,420.1816652999987,420.19684950000374,420.19684950000374,420.19684950000374,423.5612450000044,up,3.349052599995048,None,423.5713131999946,423.58107200000086,423.58107200000086,423.6270108000026,423.6272806999914,423.64345799999137,423.64345799999137,423.64345799999137,423.72673080000095,424.1439975999965,space,0.49562560000049416,None,,,,,,,,,,,,,,,,,,,,,,,,,P101,001,2025-02-12_11h31.17.865,posner_endo_new1,2024.2.4,60.06550744475451,2025-02-12 11h31.28.657998 +0000,
cube_r.png,0.1,-0.31,invalid,9,9,0,up,3.0988022000092315,None,space,0.53817459999118,None,0,9,9,9,,,,,,,,,424.159679999997,,,,,,,,,,,,,424.1441879000049,424.159679999997,424.159679999997,424.159679999997,427.2738995999971,up,3.0988022000092315,None,427.2812313000031,427.2927817000018,427.2927817000018,427.3397632999986,427.34001010000065,427.3562423999974,427.3562423999974,427.3562423999974,427.4228493999981,427.9066529999982,space,0.53817459999118,None,,,,,,,,,,,,,,,,,,,,,,,,,P101,001,2025-02-12_11h31.17.865,posner_endo_new1,2024.2.4,60.06550744475451,2025-02-12 11h31.28.657998 +0000,
cube_r.png,0.1,0.31,valid,10,10,0,up,3.64001940000162,None,space,0.4496555000077933,None,0,10,10,10,,,,,,,,,427.92236529999354,,,,,,,,,,,,,427.90684090000286,427.92236529999354,427.92236529999354,427.92236529999354,431.5695248999982,up,3.64001940000162,None,431.57684330000484,431.58831680000003,431.58831680000003,431.63544519999414,431.63569379999535,431.65176229999634,431.65176229999634,431.65176229999634,431.7352244999929,432.102518300002,space,0.4496555000077933,None,,,,,,,,,,,,,,,,,,,,,,,,,P101,001,2025-02-12_11h31.17.865,posner_endo_new1,2024.2.4,60.06550744475451,2025-02-12 11h31.28.657998 +0000,
,,,,,,,,,,,,,,,,,,,,,,,,,,,,,,,,,,432.10264329999336,432.1180127999978,435.1212424999976,435.09882630000357,,,,,,,,,,,,,,,,,,,,,,,,,,,,,,,,,,,,,,,,,,,,,,P101,001,2025-02-12_11h31.17.865,posner_endo_new1,2024.2.4,60.06550744475451,2025-02-12 11h31.28.657998 +0000,
cube_l.png,0.1,10,catch,0,0,0,up,12.00113400000555,None,None,,,,,,,0,0,0,0,,,,,435.1212424999976,,,,,,,,,,,,,435.11256819999835,435.1212424999976,435.1212424999976,435.1212424999976,447.13861349999206,,,,447.16196579999814,447.17352219999884,447.17352219999884,447.2024897999945,447.20288090000395,447.21893139999884,447.21893139999884,447.21893139999884,447.3021468999941,450.2166866000043,,,,449.31678680000186,450.2325109999947,450.2325109999947,450.2325109999947,up,12.00113400000555,None,None,,,,,,,,,,,,,,,,,P101,001,2025-02-12_11h31.17.865,posner_endo_new1,2024.2.4,60.06550744475451,2025-02-12 11h31.28.657998 +0000,
cube_l.png,0.1,10,catch,1,1,0,up,1.9863746999908471,None,None,,,,,,,0,1,1,1,,,,,450.2325109999947,,,,,,,,,,,,,450.216989499997,450.2325109999947,450.2325109999947,450.2325109999947,452.231517799999,,,,452.237518599999,452.2492244000023,452.2492244000023,452.29767109999375,452.2978953999991,452.31420900000376,452.31420900000376,452.31420900000376,452.3808755999926,455.3117377000017,,,,454.395437500003,455.32771529999445,455.32771529999445,455.32771529999445,up,1.9863746999908471,None,None,,,,,,,,,,,,,,,,,P101,001,2025-02-12_11h31.17.865,posner_endo_new1,2024.2.4,60.06550744475451,2025-02-12 11h31.28.657998 +0000,
cube_l.png,0.1,0.31,invalid,2,2,0,up,1.2270767000009073,None,space,0.4367906999978004,None,,,,,0,2,2,2,,,,,455.32771529999445,,,,,,,,,,,,,455.3119407000049,455.32771529999445,455.32771529999445,455.32771529999445,456.56075269999565,,,,456.57020499999635,456.5824389000045,456.5824389000045,456.6262745999993,456.6267109000037,456.64272429999255,456.64272429999255,456.64272429999255,456.72597070000484,457.0935704000003,,,,,,,,up,1.2270767000009073,None,space,0.4367906999978004,None,,,,,,,,,,,,,,,P101,001,2025-02-12_11h31.17.865,posner_endo_new1,2024.2.4,60.06550744475451,2025-02-12 11h31.28.657998 +0000,
cube_l.png,0.1,0.31,invalid,3,3,0,up,3.541657399997348,None,space,0.45427400000335183,None,,,,,0,3,3,3,,,,,457.109226200002,,,,,,,,,,,,,457.09382650000043,457.109226200002,457.109226200002,457.109226200002,460.65672460000496,,,,460.6664024999918,460.67645579999953,460.67645579999953,460.72226650000084,460.7225707000034,460.73880979999376,460.73880979999376,460.73880979999376,460.82199440000113,461.20604099999764,,,,,,,,up,3.541657399997348,None,space,0.45427400000335183,None,,,,,,,,,,,,,,,P101,001,2025-02-12_11h31.17.865,posner_endo_new1,2024.2.4,60.06550744475451,2025-02-12 11h31.28.657998 +0000,
cube_l.png,0.1,-0.31,valid,4,4,0,up,3.5085927000036463,None,space,0.4141766000102507,None,,,,,0,4,4,4,,,,,461.2216591000033,,,,,,,,,,,,,461.20629439999175,461.2216591000033,461.2216591000033,461.2216591000033,464.7358198000002,,,,464.74554329999955,464.7555834999948,464.7555834999948,464.80146740000055,464.8017739999923,464.81793760000437,464.81793760000437,464.81793760000437,464.9012264000048,465.235165399994,,,,,,,,up,3.5085927000036463,None,space,0.4141766000102507,None,,,,,,,,,,,,,,,P101,001,2025-02-12_11h31.17.865,posner_endo_new1,2024.2.4,60.06550744475451,2025-02-12 11h31.28.657998 +0000,
cube_r.png,0.1,-0.31,invalid,5,5,0,up,3.3751794999989215,None,space,0.4769436000060523,None,,,,,0,5,5,5,,,,,465.25092989999393,,,,,,,,,,,,,465.235417399992,465.25092989999393,465.25092989999393,465.25092989999393,468.6319979999971,,,,468.64165160000266,468.6517618999933,468.6517618999933,468.69748859999527,468.69780080000055,468.71401999999944,468.71401999999944,468.71401999999944,468.79723620000004,469.1980426999944,,,,,,,,up,3.3751794999989215,None,space,0.4769436000060523,None,,,,,,,,,,,,,,,P101,001,2025-02-12_11h31.17.865,posner_endo_new1,2024.2.4,60.06550744475451,2025-02-12 11h31.28.657998 +0000,
cube_r.png,0.1,0.31,valid,6,6,0,up,3.732625899996492,None,space,0.43201619999308605,None,,,,,0,6,6,6,,,,,469.2135550999956,,,,,,,,,,,,,469.1982960000023,469.2135550999956,469.2135550999956,469.2135550999956,472.96066979999887,,,,472.9702490000054,472.98020229999383,472.98020229999383,473.026303599996,473.02660680000554,473.0428858999949,473.0428858999949,473.0428858999949,473.1260862000054,473.4769757000031,,,,,,,,up,3.732625899996492,None,space,0.43201619999308605,None,,,,,,,,,,,,,,,P101,001,2025-02-12_11h31.17.865,posner_endo_new1,2024.2.4,60.06550744475451,2025-02-12 11h31.28.657998 +0000,
cube_r.png,0.1,-0.31,invalid,7,7,0,up,3.381803399999626,None,space,0.4528823999862652,None,,,,,0,7,7,7,,,,,473.49241219999385,,,,,,,,,,,,,473.47722970000177,473.49241219999385,473.49241219999385,473.49241219999385,476.8899678000016,,,,476.89956849999726,476.9097494000016,476.9097494000016,476.95578849999583,476.9560990000027,476.97221649999847,476.97221649999847,476.97221649999847,477.0554247999971,477.43947909999406,,,,,,,,up,3.381803399999626,None,space,0.4528823999862652,None,,,,,,,,,,,,,,,P101,001,2025-02-12_11h31.17.865,posner_endo_new1,2024.2.4,60.06550744475451,2025-02-12 11h31.28.657998 +0000,
cube_l.png,0.1,-0.31,valid,8,8,0,up,3.8749966000032146,None,space,0.48413039998558816,None,,,,,0,8,8,8,,,,,477.45505499999854,,,,,,,,,,,,,477.439738400004,477.45505499999854,477.45505499999854,477.45505499999854,481.3355498000019,,,,481.3452533999953,481.3551715999929,481.3551715999929,481.4011621999962,481.4014642999973,481.41775049999706,481.41775049999706,481.41775049999706,481.50087950000307,481.9182553999999,,,,,,,,up,3.8749966000032146,None,space,0.48413039998558816,None,,,,,,,,,,,,,,,P101,001,2025-02-12_11h31.17.865,posner_endo_new1,2024.2.4,60.06550744475451,2025-02-12 11h31.28.657998 +0000,
cube_r.png,0.1,-0.31,invalid,9,9,0,up,3.6689559999940684,None,space,0.4190738000033889,None,,,,,0,9,9,9,,,,,481.93379739999364,,,,,,,,,,,,,481.91850869999325,481.93379739999364,481.93379739999364,481.93379739999364,485.6145101000002,,,,485.62414269999135,485.6342603999947,485.6342603999947,485.68009809999785,485.6804020999989,485.6966478999966,485.6966478999966,485.6966478999966,485.77981189999264,486.13050840000506,,,,,,,,up,3.6689559999940684,None,space,0.4190738000033889,None,,,,,,,,,,,,,,,P101,001,2025-02-12_11h31.17.865,posner_endo_new1,2024.2.4,60.06550744475451,2025-02-12 11h31.28.657998 +0000,
cube_l.png,0.1,0.31,invalid,10,10,0,up,4.071900499999174,None,space,0.6204224999964936,None,,,,,0,10,10,10,,,,,486.1462298999977,,,,,,,,,,,,,486.13076489999366,486.1462298999977,486.1462298999977,486.1462298999977,490.2262262000004,,,,490.235935699995,490.24632700000075,490.24632700000075,490.29202870000154,490.2923499000026,490.30859839999175,490.30859839999175,490.30859839999175,490.3918759999942,490.9422157999943,,,,,,,,up,4.071900499999174,None,space,0.6204224999964936,None,,,,,,,,,,,,,,,P101,001,2025-02-12_11h31.17.865,posner_endo_new1,2024.2.4,60.06550744475451,2025-02-12 11h31.28.657998 +0000,
cube_r.png,0.1,-0.31,invalid,11,11,0,up,3.8686912000121083,None,space,0.42697929999849293,None,,,,,0,11,11,11,,,,,490.9578753999958,,,,,,,,,,,,,490.94247009999526,490.9578753999958,490.9578753999958,490.9578753999958,494.8382927999919,,,,494.8479929000023,494.85799150000094,494.85799150000094,494.90403449999576,494.904337999993,494.9204633000045,494.9204633000045,494.9204633000045,495.00376799999503,495.35449759999756,,,,,,,,up,3.8686912000121083,None,space,0.42697929999849293,None,,,,,,,,,,,,,,,P101,001,2025-02-12_11h31.17.865,posner_endo_new1,2024.2.4,60.06550744475451,2025-02-12 11h31.28.657998 +0000,
cube_r.png,0.1,0.31,valid,12,12,0,up,3.5117508999974234,None,space,0.49427700000524055,None,,,,,0,12,12,12,,,,,495.3701787000027,,,,,,,,,,,,,495.35474989999784,495.3701787000027,495.3701787000027,495.3701787000027,498.8842546999949,,,,498.8940608999983,498.9040765999962,498.9040765999962,498.94983219999995,498.95013490000565,498.9664017000032,498.9664017000032,498.9664017000032,499.0495860999945,499.4668692999985,,,,,,,,up,3.5117508999974234,None,space,0.49427700000524055,None,,,,,,,,,,,,,,,P101,001,2025-02-12_11h31.17.865,posner_endo_new1,2024.2.4,60.06550744475451,2025-02-12 11h31.28.657998 +0000,
cube_l.png,0.1,10,catch,13,13,0,up,3.4481997000111733,None,None,,,,,,,0,13,13,13,,,,,499.48254660000384,,,,,,,,,,,,,499.46712139999727,499.48254660000384,499.48254660000384,499.48254660000384,502.9466512999934,,,,502.9562730000034,502.9664047999977,502.9664047999977,503.01253979999456,503.0128456999955,503.02888800000073,503.02888800000073,503.02888800000073,503.11216190000414,506.0265111000044,,,,505.1268277999916,506.0425627999939,506.0425627999939,506.0425627999939,up,3.4481997000111733,None,None,,,,,,,,,,,,,,,,,P101,001,2025-02-12_11h31.17.865,posner_endo_new1,2024.2.4,60.06550744475451,2025-02-12 11h31.28.657998 +0000,
cube_r.png,0.1,-0.31,invalid,14,14,0,up,0.9441154999949504,None,space,0.4442047999909846,None,,,,,0,14,14,14,,,,,506.0425627999939,,,,,,,,,,,,,506.0267523999937,506.0425627999939,506.0425627999939,506.0425627999939,506.99257800000487,,,,507.00069889999577,507.0110710000008,507.0110710000008,507.0580642999994,507.05828779999865,507.0748292999924,507.0748292999924,507.0748292999924,507.1581106999947,507.52495379999164,,,,,,,,up,0.9441154999949504,None,space,0.4442047999909846,None,,,,,,,,,,,,,,,P101,001,2025-02-12_11h31.17.865,posner_endo_new1,2024.2.4,60.06550744475451,2025-02-12 11h31.28.657998 +0000,
cube_l.png,0.1,-0.31,valid,15,15,0,up,3.293407200006186,None,space,0.42212170000129845,None,,,,,0,15,15,15,,,,,507.54048989999865,,,,,,,,,,,,,507.5251294000045,507.54048989999865,507.54048989999865,507.54048989999865,510.8382674000022,,,,510.8446472999931,510.85647020000033,510.85647020000033,510.90415790000407,510.9043831000017,510.92105819999415,510.92105819999415,510.92105819999415,510.9875500000053,511.35448310000356,,,,,,,,up,3.293407200006186,None,space,0.42212170000129845,None,,,,,,,,,,,,,,,P101,001,2025-02-12_11h31.17.865,posner_endo_new1,2024.2.4,60.06550744475451,2025-02-12 11h31.28.657998 +0000,
cube_r.png,0.1,10,catch,16,16,0,up,3.4559827000048244,None,None,,,,,,,0,16,16,16,,,,,511.3704015999974,,,,,,,,,,,,,511.3546479999932,511.3704015999974,511.3704015999974,511.3704015999974,514.8341782999923,,,,514.8402344999922,514.8518902999931,514.8518902999931,514.9003310999979,514.9005543999956,514.9168382999924,514.9168382999924,514.9168382999924,514.983428099993,517.914002999998,,,,516.9980453000026,517.930245399999,517.930245399999,517.930245399999,up,3.4559827000048244,None,None,,,,,,,,,,,,,,,,,P101,001,2025-02-12_11h31.17.865,posner_endo_new1,2024.2.4,60.06550744475451,2025-02-12 11h31.28.657998 +0000,
cube_r.png,0.1,10,catch,17,17,0,up,0.9359916999965208,None,None,,,,,,,0,17,17,17,,,,,517.930245399999,,,,,,,,,,,,,517.914165299997,517.930245399999,517.930245399999,517.930245399999,518.8797691999935,,,,518.8857764999993,518.8973378999945,518.8973378999945,518.946028899998,518.9462531000027,518.9626473999961,518.9626473999961,518.9626473999961,519.0292631000048,521.9600683000026,,,,521.0433973000036,521.9760064000002,521.9760064000002,521.9760064000002,up,0.9359916999965208,None,None,,,,,,,,,,,,,,,,,P101,001,2025-02-12_11h31.17.865,posner_endo_new1,2024.2.4,60.06550744475451,2025-02-12 11h31.28.657998 +0000,
cube_l.png,0.1,0.31,invalid,18,18,0,up,1.1861702000023797,None,space,0.5402131000009831,None,,,,,0,18,18,18,,,,,521.9760064000002,,,,,,,,,,,,,521.9602360999997,521.9760064000002,521.9760064000002,521.9760064000002,523.1756830999948,,,,523.1816287999973,523.1932178999996,523.1932178999996,523.2414228999987,523.2416453000042,523.2582804999984,523.2582804999984,523.2582804999984,523.3415939999977,523.8082704999979,,,,,,,,up,1.1861702000023797,None,space,0.5402131000009831,None,,,,,,,,,,,,,,,P101,001,2025-02-12_11h31.17.865,posner_endo_new1,2024.2.4,60.06550744475451,2025-02-12 11h31.28.657998 +0000,
cube_l.png,0.1,10,catch,19,19,0,up,3.649797400008538,None,None,,,,,,,0,19,19,19,,,,,523.8244388000021,,,,,,,,,,,,,523.8084493999922,523.8244388000021,523.8244388000021,523.8244388000021,527.4879647999915,,,,527.4939149999991,527.5054041999974,527.5054041999974,527.5541241000028,527.5543509999989,527.570392499998,527.570392499998,527.570392499998,527.6534006000002,530.5678247000033,,,,529.6679765000008,530.5841233999963,530.5841233999963,530.5841233999963,up,3.649797400008538,None,None,,,,,,,,,,,,,,,,,P101,001,2025-02-12_11h31.17.865,posner_endo_new1,2024.2.4,60.06550744475451,2025-02-12 11h31.28.657998 +0000,
cube_l.png,0.1,0.31,invalid,20,20,0,up,1.0259001000085846,None,space,0.40719300000637304,None,,,,,0,20,20,20,,,,,530.5841233999963,,,,,,,,,,,,,530.5679932999919,530.5841233999963,530.5841233999963,530.5841233999963,531.617138799993,,,,531.6237211999978,531.6355807999935,531.6355807999935,531.683007700005,531.6832326000003,531.6996456000052,531.6996456000052,531.6996456000052,531.765839300002,532.1165481999924,,,,,,,,up,1.0259001000085846,None,space,0.40719300000637304,None,,,,,,,,,,,,,,,P101,001,2025-02-12_11h31.17.865,posner_endo_new1,2024.2.4,60.06550744475451,2025-02-12 11h31.28.657998 +0000,
cube_l.png,0.1,-0.31,valid,21,21,0,up,3.486048999999184,None,space,0.4693967000057455,None,,,,,0,21,21,21,,,,,532.1325974999927,,,,,,,,,,,,,532.1167202999932,532.1325974999927,532.1325974999927,532.1325974999927,535.6295015999931,,,,535.6356726999948,535.6473750000005,535.6473750000005,535.6956322000042,535.6958563999942,535.711778900004,535.711778900004,535.711778900004,535.7951482999924,536.1956852000003,,,,,,,,up,3.486048999999184,None,space,0.4693967000057455,None,,,,,,,,,,,,,,,P101,001,2025-02-12_11h31.17.865,posner_endo_new1,2024.2.4,60.06550744475451,2025-02-12 11h31.28.657998 +0000,
cube_r.png,0.1,0.31,valid,22,22,0,up,3.4231394000089495,None,space,0.5526982000010321,None,,,,,0,22,22,22,,,,,536.2113234999997,,,,,,,,,,,,,536.1958632000023,536.2113234999997,536.2113234999997,536.2113234999997,539.6422046999942,,,,539.6483101000049,539.6600833999983,539.6600833999983,539.7082608000055,539.7084825000056,539.7242824999994,539.7242824999994,539.7242824999994,539.791312500005,540.2915888999996,,,,,,,,up,3.4231394000089495,None,space,0.5526982000010321,None,,,,,,,,,,,,,,,P101,001,2025-02-12_11h31.17.865,posner_endo_new1,2024.2.4,60.06550744475451,2025-02-12 11h31.28.657998 +0000,
cube_r.png,0.1,-0.31,invalid,23,23,0,up,3.319478200006415,None,space,0.47101589999510907,None,,,,,0,23,23,23,,,,,540.3074041999935,,,,,,,,,,,,,540.2917662999971,540.3074041999935,540.3074041999935,540.3074041999935,543.638272199998,,,,543.6442666999938,543.6559381999978,543.6559381999978,543.7042266999924,543.7044484999933,543.7207533000037,543.7207533000037,543.7207533000037,543.8037566999992,544.2042251999956,,,,,,,,up,3.319478200006415,None,space,0.47101589999510907,None,,,,,,,,,,,,,,,P101,001,2025-02-12_11h31.17.865,posner_endo_new1,2024.2.4,60.06550744475451,2025-02-12 11h31.28.657998 +0000,
cube_r.png,0.1,0.31,valid,24,24,0,up,3.943237500003306,None,space,0.42565200000535697,None,,,,,0,24,24,24,,,,,544.2196696000028,,,,,,,,,,,,,544.2043972999963,544.2196696000028,544.2196696000028,544.2196696000028,548.1670558000042,,,,548.1730302999931,548.1847299999936,548.1847299999936,548.2328779999953,548.2331001999992,548.2491166999971,548.2491166999971,548.2491166999971,548.3325692999933,548.6826392999938,,,,,,,,up,3.943237500003306,None,space,0.42565200000535697,None,,,,,,,,,,,,,,,P101,001,2025-02-12_11h31.17.865,posner_endo_new1,2024.2.4,60.06550744475451,2025-02-12 11h31.28.657998 +0000,
cube_r.png,0.1,-0.31,invalid,25,25,0,up,4.143930299993372,None,space,0.49772920001123566,None,,,,,0,25,25,25,,,,,548.6989260999981,,,,,,,,,,,,,548.682816200002,548.6989260999981,548.6989260999981,548.6989260999981,552.8455228999956,,,,552.8515928999986,552.8635351999983,552.8635351999983,552.9114440999983,552.9116689999937,552.9278534000041,552.9278534000041,552.9278534000041,552.9944344999967,553.4281112000026,,,,,,,,up,4.143930299993372,None,space,0.49772920001123566,None,,,,,,,,,,,,,,,P101,001,2025-02-12_11h31.17.865,posner_endo_new1,2024.2.4,60.06550744475451,2025-02-12 11h31.28.657998 +0000,
cube_l.png,0.1,-0.31,valid,26,26,0,up,3.318851200005156,None,space,0.45466709999891464,None,,,,,0,26,26,26,,,,,553.4438642000023,,,,,,,,,,,,,553.4282860999956,553.4438642000023,553.4438642000023,553.4438642000023,556.7744907000015,,,,556.7805126000021,556.7921305999917,556.7921305999917,556.8403241000051,556.8405483999959,556.8568737000023,556.8568737000023,556.8568737000023,556.9238078999915,557.3241106999922,,,,,,,,up,3.318851200005156,None,space,0.45466709999891464,None,,,,,,,,,,,,,,,P101,001,2025-02-12_11h31.17.865,posner_endo_new1,2024.2.4,60.06550744475451,2025-02-12 11h31.28.657998 +0000,
cube_r.png,0.1,0.31,valid,27,27,0,up,3.158322600007523,None,space,0.5901740999979666,None,,,,,0,27,27,27,,,,,557.3398005000054,,,,,,,,,,,,,557.324283599999,557.3398005000054,557.3398005000054,557.3398005000054,560.5042236000008,,,,560.5101698999933,560.5218271000049,560.5218271000049,560.5702410999947,560.5704704999953,560.5865430999984,560.5865430999984,560.5865430999984,560.6532559000043,561.1868811000022,,,,,,,,up,3.158322600007523,None,space,0.5901740999979666,None,,,,,,,,,,,,,,,P101,001,2025-02-12_11h31.17.865,posner_endo_new1,2024.2.4,60.06550744475451,2025-02-12 11h31.28.657998 +0000,
cube_r.png,0.1,10,catch,28,28,0,up,4.207553800006281,None,None,,,,,,,0,28,28,28,,,,,561.2028481000016,,,,,,,,,,,,,561.1870591000043,561.2028481000016,561.2028481000016,561.2028481000016,565.4160212999996,,,,565.4220420000056,565.4335407000035,565.4335407000035,565.4820025999943,565.482228599998,565.4981859999971,565.4981859999971,565.4981859999971,565.5649914999958,568.4953397999925,,,,567.5793604999926,568.5119698999915,568.5119698999915,568.5119698999915,up,4.207553800006281,None,None,,,,,,,,,,,,,,,,,P101,001,2025-02-12_11h31.17.865,posner_endo_new1,2024.2.4,60.06550744475451,2025-02-12 11h31.28.657998 +0000,
cube_r.png,0.1,0.31,valid,29,29,0,up,0.9308134999882895,None,space,0.49322180000308435,None,,,,,0,29,29,29,,,,,568.5119698999915,,,,,,,,,,,,,568.4955012999999,568.5119698999915,568.5119698999915,568.5119698999915,569.4450286999927,,,,569.4510175000032,569.4626384000003,569.4626384000003,569.5106882999971,569.5109151999932,569.527619799992,569.527619799992,569.527619799992,569.6107442999928,570.0276941000047,,,,,,,,up,0.9308134999882895,None,space,0.49322180000308435,None,,,,,,,,,,,,,,,P101,001,2025-02-12_11h31.17.865,posner_endo_new1,2024.2.4,60.06550744475451,2025-02-12 11h31.28.657998 +0000,
cube_r.png,0.1,0.31,valid,30,30,0,up,3.846667299992987,None,space,0.45132910000393167,None,,,,,0,30,30,30,,,,,570.0434632999968,,,,,,,,,,,,,570.0278858999955,570.0434632999968,570.0434632999968,570.0434632999968,573.9069347000041,,,,573.9129038999963,573.9243463000021,573.9243463000021,573.9731490999984,573.9733749000006,573.9897537999932,573.9897537999932,573.9897537999932,574.0562405999954,574.4564487000025,,,,,,,,up,3.846667299992987,None,space,0.45132910000393167,None,,,,,,,,,,,,,,,P101,001,2025-02-12_11h31.17.865,posner_endo_new1,2024.2.4,60.06550744475451,2025-02-12 11h31.28.657998 +0000,
cube_l.png,0.1,-0.31,valid,31,31,0,up,3.241683499989449,None,space,0.4682546999974875,None,,,,,0,31,31,31,,,,,574.4724734000047,,,,,,,,,,,,,574.4566266000038,574.4724734000047,574.4724734000047,574.4724734000047,577.7195369999972,,,,577.7255655000044,577.7371488999925,577.7371488999925,577.7858599000028,577.786081600003,577.8023852000042,577.8023852000042,577.8023852000042,577.8691117999988,578.286085899992,,,,,,,,up,3.241683499989449,None,space,0.4682546999974875,None,,,,,,,,,,,,,,,P101,001,2025-02-12_11h31.17.865,posner_endo_new1,2024.2.4,60.06550744475451,2025-02-12 11h31.28.657998 +0000,
cube_r.png,0.1,0.31,valid,32,32,0,up,3.588506400003098,None,space,0.42822880001040176,None,,,,,0,32,32,32,,,,,578.3019232999941,,,,,,,,,,,,,578.2862585999974,578.3019232999941,578.3019232999941,578.3019232999941,581.899285499996,,,,581.9086658000015,581.9182677999925,581.9182677999925,581.9645792999945,581.9648022000038,581.9816141000047,581.9816141000047,581.9816141000047,582.064383799996,582.4150069000025,,,,,,,,up,3.588506400003098,None,space,0.42822880001040176,None,,,,,,,,,,,,,,,P101,001,2025-02-12_11h31.17.865,posner_endo_new1,2024.2.4,60.06550744475451,2025-02-12 11h31.28.657998 +0000,
cube_r.png,0.1,-0.31,invalid,33,33,0,up,3.2035624999989523,None,space,0.4207052999990992,None,,,,,0,33,33,33,,,,,582.4305310999916,,,,,,,,,,,,,582.4151814999932,582.4305310999916,582.4305310999916,582.4305310999916,585.6449611999997,,,,585.6513108999934,585.663057400001,585.663057400001,585.711224300001,585.7114548999962,585.7275928000017,585.7275928000017,585.7275928000017,585.7943913000054,586.1612631000025,,,,,,,,up,3.2035624999989523,None,space,0.4207052999990992,None,,,,,,,,,,,,,,,P101,001,2025-02-12_11h31.17.865,posner_endo_new1,2024.2.4,60.06550744475451,2025-02-12 11h31.28.657998 +0000,
cube_r.png,0.1,10,catch,34,34,0,up,3.6406221999932313,None,None,,,,,,,0,34,34,34,,,,,586.1772345999925,,,,,,,,,,,,,586.1614379999955,586.1772345999925,586.1772345999925,586.1772345999925,589.8241967999929,,,,589.8302785999986,589.841809000005,589.841809000005,589.8901481999928,589.8903718999936,589.9063416999998,589.9063416999998,589.9063416999998,589.9899488999945,592.9041713000042,,,,592.0045286999957,592.9202764999936,592.9202764999936,592.9202764999936,up,3.6406221999932313,None,None,,,,,,,,,,,,,,,,,P101,001,2025-02-12_11h31.17.865,posner_endo_new1,2024.2.4,60.06550744475451,2025-02-12 11h31.28.657998 +0000,
cube_r.png,0.1,0.31,valid,35,35,0,up,0.7065187999978662,None,space,0.5059104999963893,None,,,,,0,35,35,35,,,,,592.9202764999936,,,,,,,,,,,,,592.9043347999977,592.9202764999936,592.9202764999936,592.9202764999936,593.6387343999959,,,,593.6614930999931,593.673881499999,593.673881499999,593.7028973999986,593.7032405999926,593.7194145999965,593.7194145999965,593.7194145999965,593.8025564999989,594.2366252999927,,,,,,,,up,0.7065187999978662,None,space,0.5059104999963893,None,,,,,,,,,,,,,,,P101,001,2025-02-12_11h31.17.865,posner_endo_new1,2024.2.4,60.06550744475451,2025-02-12 11h31.28.657998 +0000,
cube_r.png,0.1,-0.31,invalid,36,36,0,up,3.2942513000016334,None,space,0.40309870000055525,None,,,,,0,36,36,36,,,,,594.252204000004,,,,,,,,,,,,,594.2369256999955,594.252204000004,594.252204000004,594.252204000004,597.5502022000001,,,,597.561724500003,597.5718998999946,597.5718998999946,597.6155302999978,597.6158740999963,597.6320870999916,597.6320870999916,597.6320870999916,597.715271699999,598.0495339000045,,,,,,,,up,3.2942513000016334,None,space,0.40309870000055525,None,,,,,,,,,,,,,,,P101,001,2025-02-12_11h31.17.865,posner_endo_new1,2024.2.4,60.06550744475451,2025-02-12 11h31.28.657998 +0000,
cube_l.png,0.1,0.31,invalid,37,37,0,up,3.625511699996423,None,space,0.4921965999965323,None,,,,,0,37,37,37,,,,,598.064939799995,,,,,,,,,,,,,598.0498325999943,598.064939799995,598.064939799995,598.064939799995,601.6957891000056,,,,601.7073623000033,601.7175297999929,601.7175297999929,601.7613260999933,601.7616698999918,601.7778771000012,601.7778771000012,601.7778771000012,601.8610759000003,602.2786020000058,,,,,,,,up,3.625511699996423,None,space,0.4921965999965323,None,,,,,,,,,,,,,,,P101,001,2025-02-12_11h31.17.865,posner_endo_new1,2024.2.4,60.06550744475451,2025-02-12 11h31.28.657998 +0000,
cube_l.png,0.1,0.31,invalid,38,38,0,up,3.604128499995568,None,space,0.4408751999872038,None,,,,,0,38,38,38,,,,,602.2940176999982,,,,,,,,,,,,,602.2788927999936,602.2940176999982,602.2940176999982,602.2940176999982,605.9081734999927,,,,605.9197071999952,605.9298169999965,605.9298169999965,605.9737690000038,605.9740238999948,605.9902700999955,605.9902700999955,605.9902700999955,606.0733947999979,606.4407150000043,,,,,,,,up,3.604128499995568,None,space,0.4408751999872038,None,,,,,,,,,,,,,,,P101,001,2025-02-12_11h31.17.865,posner_endo_new1,2024.2.4,60.06550744475451,2025-02-12 11h31.28.657998 +0000,
cube_r.png,0.1,0.31,valid,39,39,0,up,3.226035999992746,None,space,0.3753276000061305,None,,,,,0,39,39,39,,,,,606.4561426,,,,,,,,,,,,,606.4409120999917,606.4561426,606.4561426,606.4561426,609.6872361999995,,,,609.6945475999964,609.7062645999977,609.7062645999977,609.7532299000013,609.7534804000024,609.7696815999952,609.7696815999952,609.7696815999952,609.8360562000016,610.1534108000051,,,,,,,,up,3.226035999992746,None,space,0.3753276000061305,None,,,,,,,,,,,,,,,P101,001,2025-02-12_11h31.17.865,posner_endo_new1,2024.2.4,60.06550744475451,2025-02-12 11h31.28.657998 +0000,
cube_l.png,0.1,0.31,invalid,40,40,0,up,3.768773700008751,None,space,0.4362550000078045,None,,,,,0,40,40,40,,,,,610.1692202999984,,,,,,,,,,,,,610.1536144999991,610.1692202999984,610.1692202999984,610.1692202999984,613.9495601999952,,,,613.9568686999992,613.9686153999937,613.9686153999937,614.0155821999942,614.0158334000007,614.0320814000006,614.0320814000006,614.0320814000006,614.0986931999942,614.482488099995,,,,,,,,up,3.768773700008751,None,space,0.4362550000078045,None,,,,,,,,,,,,,,,P101,001,2025-02-12_11h31.17.865,posner_endo_new1,2024.2.4,60.06550744475451,2025-02-12 11h31.28.657998 +0000,
cube_l.png,0.1,10,catch,41,41,0,up,3.3920561999984784,None,space,0.29398899999796413,None,,,,,0,41,41,41,,,,,614.4982030999963,,,,,,,,,,,,,614.4826858000015,614.4982030999963,614.4982030999963,614.4982030999963,617.8955380999978,,,,617.9028579000005,617.9145547999942,617.9145547999942,617.9614950999967,617.9617504000053,617.9781072000042,617.9781072000042,617.9781072000042,618.0613046999933,618.2784537999978,,,,,,,,up,3.3920561999984784,None,space,0.29398899999796413,None,,,,,,,,,,,,,,,P101,001,2025-02-12_11h31.17.865,posner_endo_new1,2024.2.4,60.06550744475451,2025-02-12 11h31.28.657998 +0000,
cube_l.png,0.1,-0.31,valid,42,42,0,up,3.6677513000031468,None,space,0.4833926999999676,None,,,,,0,42,42,42,,,,,618.2944599000039,,,,,,,,,,,,,618.2786511000013,618.2944599000039,618.2944599000039,618.2944599000039,621.9746775999956,,,,621.9819907000056,621.9936135000025,621.9936135000025,622.0405997000053,622.0408488999965,622.0571775999997,622.0571775999997,622.0571775999997,622.1238174000027,622.5573193000018,,,,,,,,up,3.6677513000031468,None,space,0.4833926999999676,None,,,,,,,,,,,,,,,P101,001,2025-02-12_11h31.17.865,posner_endo_new1,2024.2.4,60.06550744475451,2025-02-12 11h31.28.657998 +0000,
cube_l.png,0.1,10,catch,43,43,0,up,3.972531599996728,None,None,,,,,,,0,43,43,43,,,,,622.5733758999995,,,,,,,,,,,,,622.5575430000026,622.5733758999995,622.5733758999995,622.5733758999995,626.5529687999951,,,,626.560299299992,626.572162299999,626.572162299999,626.6191696000024,626.6194167999929,626.6358258999971,626.6358258999971,626.6358258999971,626.7024315000017,629.6332286999968,,,,628.7170836000005,629.6494428000005,629.6494428000005,629.6494428000005,up,3.972531599996728,None,None,,,,,,,,,,,,,,,,,P101,001,2025-02-12_11h31.17.865,posner_endo_new1,2024.2.4,60.06550744475451,2025-02-12 11h31.28.657998 +0000,
cube_l.png,0.1,0.31,invalid,44,44,0,up,0.7134377000038512,None,space,0.49653819999366533,None,,,,,0,44,44,44,,,,,629.6494428000005,,,,,,,,,,,,,629.633413699994,629.6494428000005,629.6494428000005,629.6494428000005,630.3660237000004,,,,630.3733561999979,630.3850648999942,630.3850648999942,630.4317002000025,630.4319480999984,630.4486359000002,630.4486359000002,630.4486359000002,630.5151373999979,630.949063299995,,,,,,,,up,0.7134377000038512,None,space,0.49653819999366533,None,,,,,,,,,,,,,,,P101,001,2025-02-12_11h31.17.865,posner_endo_new1,2024.2.4,60.06550744475451,2025-02-12 11h31.28.657998 +0000,
cube_l.png,0.1,0.31,invalid,45,45,0,up,3.365346699996735,None,space,0.4947143000026699,None,,,,,0,45,45,45,,,,,630.9646135999938,,,,,,,,,,,,,630.9492666000006,630.9646135999938,630.9646135999938,630.9646135999938,634.3455042999994,,,,634.3528434000036,634.3759298999939,634.3759298999939,634.4115337999974,634.4117848000024,634.4277176000032,634.4277176000032,634.4277176000032,634.5111424999923,634.9278651000059,,,,,,,,up,3.365346699996735,None,space,0.4947143000026699,None,,,,,,,,,,,,,,,P101,001,2025-02-12_11h31.17.865,posner_endo_new1,2024.2.4,60.06550744475451,2025-02-12 11h31.28.657998 +0000,
cube_r.png,0.1,0.31,valid,46,46,0,up,3.1862851999903796,None,space,0.44006189999345224,None,,,,,0,46,46,46,,,,,634.9439363999991,,,,,,,,,,,,,634.9280667999992,634.9439363999991,634.9439363999991,634.9439363999991,638.1415658000042,,,,638.1489313999919,638.1721933999943,638.1721933999943,638.2073717000021,638.2076273999992,638.2240406999917,638.2240406999917,638.2240406999917,638.3073065999924,638.6743221999932,,,,,,,,up,3.1862851999903796,None,space,0.44006189999345224,None,,,,,,,,,,,,,,,P101,001,2025-02-12_11h31.17.865,posner_endo_new1,2024.2.4,60.06550744475451,2025-02-12 11h31.28.657998 +0000,
cube_l.png,0.1,-0.31,valid,47,47,0,up,3.40828540000075,None,space,0.4639424999913899,None,,,,,0,47,47,47,,,,,638.6901899999939,,,,,,,,,,,,,638.6745192999952,638.6901899999939,638.6901899999939,638.6901899999939,642.1041086000041,,,,642.1114282999915,642.1229463000054,642.1229463000054,642.1701403000043,642.1703897999978,642.1866887999931,642.1866887999931,642.1866887999931,642.2697488999984,642.6536321000021,,,,,,,,up,3.40828540000075,None,space,0.4639424999913899,None,,,,,,,,,,,,,,,P101,001,2025-02-12_11h31.17.865,posner_endo_new1,2024.2.4,60.06550744475451,2025-02-12 11h31.28.657998 +0000,
cube_r.png,0.1,-0.31,invalid,48,48,0,up,3.3893619000009494,None,space,0.4856641999940621,None,,,,,0,48,48,48,,,,,642.6694426000031,,,,,,,,,,,,,642.6538276999927,642.6694426000031,642.6694426000031,642.6694426000031,646.0668108999962,,,,646.0741251,646.0855566999962,646.0855566999962,646.1326259999914,646.1328732999973,646.1491816000052,646.1491816000052,646.1491816000052,646.232540099998,646.6491803999961,,,,,,,,up,3.3893619000009494,None,space,0.4856641999940621,None,,,,,,,,,,,,,,,P101,001,2025-02-12_11h31.17.865,posner_endo_new1,2024.2.4,60.06550744475451,2025-02-12 11h31.28.657998 +0000,
cube_r.png,0.1,10,catch,49,49,0,up,3.368416800003615,None,None,,,,,,,0,49,49,49,,,,,646.665448300002,,,,,,,,,,,,,646.6493804999918,646.665448300002,646.665448300002,646.665448300002,650.0459787,,,,650.0533708000003,650.0648538999958,650.0648538999958,650.1119752999948,650.1122278999974,650.128500699997,650.128500699997,650.128500699997,650.1951918999985,653.1258587000048,,,,652.2095684999949,653.1419230000029,653.1419230000029,653.1419230000029,up,3.368416800003615,None,None,,,,,,,,,,,,,,,,,P101,001,2025-02-12_11h31.17.865,posner_endo_new1,2024.2.4,60.06550744475451,2025-02-12 11h31.28.657998 +0000,
cube_l.png,0.1,-0.31,valid,50,50,0,up,0.6844855999952415,None,space,0.3876700999971945,None,,,,,0,50,50,50,,,,,653.1419230000029,,,,,,,,,,,,,653.1260439000034,653.1419230000029,653.1419230000029,653.1419230000029,653.8421249999956,,,,653.8494884999964,653.8610877000028,653.8610877000028,653.9077883999998,653.9080575999978,653.9245329999976,653.9245329999976,653.9245329999976,653.9910989000055,654.3249669999932,,,,,,,,up,0.6844855999952415,None,space,0.3876700999971945,None,,,,,,,,,,,,,,,P101,001,2025-02-12_11h31.17.865,posner_endo_new1,2024.2.4,60.06550744475451,2025-02-12 11h31.28.657998 +0000,
cube_l.png,0.1,-0.31,valid,51,51,0,up,3.5340467000060016,None,space,0.43470820000220556,None,,,,,0,51,51,51,,,,,654.3405976999929,,,,,,,,,,,,,654.3251630000013,654.3405976999929,654.3405976999929,654.3405976999929,657.8880848999979,,,,657.8954599999997,657.9069524999941,657.9069524999941,657.953926400005,657.9541768000054,657.9704248999915,657.9704248999915,657.9704248999915,658.0536162999924,658.4208268999937,,,,,,,,up,3.5340467000060016,None,space,0.43470820000220556,None,,,,,,,,,,,,,,,P101,001,2025-02-12_11h31.17.865,posner_endo_new1,2024.2.4,60.06550744475451,2025-02-12 11h31.28.657998 +0000,
cube_r.png,0.1,-0.31,invalid,52,52,0,up,3.3581021999998484,None,space,0.44374110001081135,None,,,,,0,52,52,52,,,,,658.4364078999934,,,,,,,,,,,,,658.4210218999942,658.4364078999934,658.4364078999934,658.4364078999934,661.8006676999939,,,,661.8079920000018,661.8194669999939,661.8194669999939,661.8666793000011,661.8669382999942,661.8832064000017,661.8832064000017,661.8832064000017,661.9660328000027,662.3335595999961,,,,,,,,up,3.3581021999998484,None,space,0.44374110001081135,None,,,,,,,,,,,,,,,P101,001,2025-02-12_11h31.17.865,posner_endo_new1,2024.2.4,60.06550744475451,2025-02-12 11h31.28.657998 +0000,
cube_l.png,0.1,-0.31,valid,53,53,0,up,3.437805900000967,None,space,0.4165477000060491,None,,,,,0,53,53,53,,,,,662.3490027999942,,,,,,,,,,,,,662.3337631000031,662.3490027999942,662.3490027999942,662.3490027999942,665.7966343000007,,,,665.8040155999915,665.815443200001,665.815443200001,665.8623028000002,665.8625546999974,665.8789724999951,665.8789724999951,665.8789724999951,665.9459657999978,666.2963407999923,,,,,,,,up,3.437805900000967,None,space,0.4165477000060491,None,,,,,,,,,,,,,,,P101,001,2025-02-12_11h31.17.865,posner_endo_new1,2024.2.4,60.06550744475451,2025-02-12 11h31.28.657998 +0000,
cube_r.png,0.1,10,catch,54,54,0,up,3.6026627000101143,None,None,,,,,,,0,54,54,54,,,,,666.3118713000003,,,,,,,,,,,,,666.2965406000003,666.3118713000003,666.3118713000003,666.3118713000003,669.9257023999962,,,,669.9331082999997,669.9444795000018,669.9444795000018,669.9916159999993,669.9918703000003,670.0081085999991,670.0081085999991,670.0081085999991,670.074609000003,673.0055236000044,,,,672.0893380999914,673.0214335999917,673.0214335999917,673.0214335999917,up,3.6026627000101143,None,None,,,,,,,,,,,,,,,,,P101,001,2025-02-12_11h31.17.865,posner_endo_new1,2024.2.4,60.06550744475451,2025-02-12 11h31.28.657998 +0000,
cube_l.png,0.1,0.31,invalid,55,55,0,up,0.3575582000048598,None,space,0.4372302999981912,None,,,,,0,55,55,55,,,,,673.0214335999917,,,,,,,,,,,,,673.0057152999943,673.0214335999917,673.0214335999917,673.0214335999917,673.3887244999933,,,,673.3960608999914,673.4078194000031,673.4078194000031,673.4547348000051,673.4549935999967,673.4708532999939,673.4708532999939,673.4708532999939,673.5379051000054,673.921637899999,,,,,,,,up,0.3575582000048598,None,space,0.4372302999981912,None,,,,,,,,,,,,,,,P101,001,2025-02-12_11h31.17.865,posner_endo_new1,2024.2.4,60.06550744475451,2025-02-12 11h31.28.657998 +0000,
cube_l.png,0.1,-0.31,valid,56,56,0,up,3.472461600002134,None,space,0.42984379999688827,None,,,,,0,56,56,56,,,,,673.9375015999976,,,,,,,,,,,,,673.921834599998,673.9375015999976,673.9375015999976,673.9375015999976,677.4179829000059,,,,677.4253998000058,677.4369148999976,677.4369148999976,677.4840050000057,677.4842613999936,677.5004998999939,677.5004998999939,677.5004998999939,677.567114000005,677.9342631000036,,,,,,,,up,3.472461600002134,None,space,0.42984379999688827,None,,,,,,,,,,,,,,,P101,001,2025-02-12_11h31.17.865,posner_endo_new1,2024.2.4,60.06550744475451,2025-02-12 11h31.28.657998 +0000,
cube_r.png,0.1,0.31,valid,57,57,0,up,3.8121684000070672,None,space,0.4141603000025498,None,,,,,0,57,57,57,,,,,677.9501432999969,,,,,,,,,,,,,677.9344623999932,677.9501432999969,677.9501432999969,677.9501432999969,681.7638101000048,,,,681.7711179000034,681.7822787000041,681.7822787000041,681.8296058999986,681.8298661000008,681.8461259000032,681.8461259000032,681.8461259000032,681.9292392999923,682.2631026000017,,,,,,,,up,3.8121684000070672,None,space,0.4141603000025498,None,,,,,,,,,,,,,,,P101,001,2025-02-12_11h31.17.865,posner_endo_new1,2024.2.4,60.06550744475451,2025-02-12 11h31.28.657998 +0000,
cube_r.png,0.1,-0.31,invalid,58,58,0,up,3.8355836999980966,None,space,0.4216591000003973,None,,,,,0,58,58,58,,,,,682.2785031999956,,,,,,,,,,,,,682.2633021999936,682.2785031999956,682.2785031999956,682.2785031999956,686.1258834000037,,,,686.1332585000055,686.1445578999992,686.1445578999992,686.1916494000034,686.1918982999923,686.2082513999922,686.2082513999922,686.2082513999922,686.2749766000052,686.6420188000047,,,,,,,,up,3.8355836999980966,None,space,0.4216591000003973,None,,,,,,,,,,,,,,,P101,001,2025-02-12_11h31.17.865,posner_endo_new1,2024.2.4,60.06550744475451,2025-02-12 11h31.28.657998 +0000,
cube_l.png,0.1,0.31,invalid,59,59,0,up,3.6486570999986725,None,space,0.50878499999817,None,,,,,0,59,59,59,,,,,686.6578322999994,,,,,,,,,,,,,686.6422115000023,686.6578322999994,686.6578322999994,686.6578322999994,690.3215584999998,,,,690.3288777999987,690.3402730999951,690.3402730999951,690.3870698999963,690.3873155000038,690.4038146999956,690.4038146999956,690.4038146999956,690.4705508000043,690.9208326999942,,,,,,,,up,3.6486570999986725,None,space,0.50878499999817,None,,,,,,,,,,,,,,,P101,001,2025-02-12_11h31.17.865,posner_endo_new1,2024.2.4,60.06550744475451,2025-02-12 11h31.28.657998 +0000,
,,,,,,,,,,,,,,,,,,,,,,,,,,,,,,,,,,,,,,,,,,,,,,,,,,,,,,,,,,,,,,,,,,,,,690.9209566999925,690.9367710999941,690.9367710999941,750.9421994000004,755.338502700004,space,64.39338150000549,None,,,,,,,P101,001,2025-02-12_11h31.17.865,posner_endo_new1,2024.2.4,60.06550744475451,2025-02-12 11h31.28.657998 +0000,
,,,,,,,,,,,,,,,,,,,,,,,,,,,,,,,,,,755.3385908000055,755.3540693999967,758.365077800001,758.3349630000012,,,,,,,,,,,,,,,,,,,,,,,,,,,,,,,,,,,,,,,,,,,,,,P101,001,2025-02-12_11h31.17.865,posner_endo_new1,2024.2.4,60.06550744475451,2025-02-12 11h31.28.657998 +0000,
cube_l.png,0.1,10,catch,0,0,0,down,4.517521400004625,None,None,,,,,,,,,,,0,0,0,0,758.365077800001,,,,,,,,,,,,,758.3558993000042,758.365077800001,758.365077800001,758.365077800001,762.897235700002,,,,762.9037319999916,762.915560399997,762.915560399997,762.9631895000057,762.9634178999986,762.9797474999941,762.9797474999941,762.9797474999941,763.0463839000004,765.9771332999953,,,,765.0607227,765.9933130999998,765.9933130999998,765.9933130999998,,,,,,,,,,,,,,,down,4.517521400004625,None,None,,,P101,001,2025-02-12_11h31.17.865,posner_endo_new1,2024.2.4,60.06550744475451,2025-02-12 11h31.28.657998 +0000,
cube_l.png,0.1,10,catch,1,1,0,down,0.6009124999982305,None,None,,,,,,,,,,,0,1,1,1,765.9933130999998,,,,,,,,,,,,,765.9772995999956,765.9933130999998,765.9933130999998,765.9933130999998,766.609675899992,,,,766.6158567999955,766.6275255999935,766.6275255999935,766.6760047999996,766.6762270000036,766.6923727999965,766.6923727999965,766.6923727999965,766.7593096999917,769.6898604000016,,,,768.7739041000023,769.7061057999963,769.7061057999963,769.7061057999963,,,,,,,,,,,,,,,down,0.6009124999982305,None,None,,,P101,001,2025-02-12_11h31.17.865,posner_endo_new1,2024.2.4,60.06550744475451,2025-02-12 11h31.28.657998 +0000,
cube_l.png,0.1,0.31,invalid,2,2,0,down,0.9126171000098111,None,space,0.4680542999994941,None,,,,,,,,,0,2,2,2,769.7061057999963,,,,,,,,,,,,,769.6900273999927,769.7061057999963,769.7061057999963,769.7061057999963,770.6224209999928,,,,770.6285467999987,770.6403189999983,770.6403189999983,770.6882728999917,770.6884945000056,770.7051744000055,770.7051744000055,770.7051744000055,770.7716778000031,771.1887112999975,,,,,,,,,,,,,,,,,,,,,,down,0.9126171000098111,None,space,0.4680542999994941,None,P101,001,2025-02-12_11h31.17.865,posner_endo_new1,2024.2.4,60.06550744475451,2025-02-12 11h31.28.657998 +0000,
cube_l.png,0.1,0.31,invalid,3,3,0,down,2.82240799999272,None,space,0.5876486000051955,None,,,,,,,,,0,3,3,3,771.2045542999986,,,,,,,,,,,,,771.1888869999966,771.2045542999986,771.2045542999986,771.2045542999986,774.0376815000054,,,,774.0595160999947,774.0696822000027,774.0696822000027,774.1014367000025,774.101789399996,774.1179297000053,774.1179297000053,774.1179297000053,774.2014666000032,774.7187307999993,,,,,,,,,,,,,,,,,,,,,,down,2.82240799999272,None,space,0.5876486000051955,None,P101,001,2025-02-12_11h31.17.865,posner_endo_new1,2024.2.4,60.06550744475451,2025-02-12 11h31.28.657998 +0000,
cube_l.png,0.1,-0.31,valid,4,4,0,down,3.9319659000029787,None,space,0.4392476000066381,None,,,,,,,,,0,4,4,4,774.7343736000039,,,,,,,,,,,,,774.7190272000007,774.7343736000039,774.7343736000039,774.7343736000039,778.6814004000043,,,,778.6929004999984,778.7030071000045,778.7030071000045,778.7471944999998,778.7474474000046,778.7634681999916,778.7634681999916,778.7634681999916,778.8466545999981,779.2138450999919,,,,,,,,,,,,,,,,,,,,,,down,3.9319659000029787,None,space,0.4392476000066381,None,P101,001,2025-02-12_11h31.17.865,posner_endo_new1,2024.2.4,60.06550744475451,2025-02-12 11h31.28.657998 +0000,
cube_r.png,0.1,-0.31,invalid,5,5,0,down,3.8051625000080094,None,space,0.4635162000049604,None,,,,,,,,,0,5,5,5,779.2297740999929,,,,,,,,,,,,,779.2140467999998,779.2297740999929,779.2297740999929,779.2297740999929,783.0432548999961,,,,783.0506335999962,783.0620063999959,783.0620063999959,783.1092671999941,783.1095161999983,783.1256934999983,783.1256934999983,783.1256934999983,783.192060699992,783.5929758999991,,,,,,,,,,,,,,,,,,,,,,down,3.8051625000080094,None,space,0.4635162000049604,None,P101,001,2025-02-12_11h31.17.865,posner_endo_new1,2024.2.4,60.06550744475451,2025-02-12 11h31.28.657998 +0000,
cube_r.png,0.1,0.31,valid,6,6,0,down,3.8098700999980792,None,space,0.4346071000036318,None,,,,,,,,,0,6,6,6,783.6085938000033,,,,,,,,,,,,,783.5931767000002,783.6085938000033,783.6085938000033,783.6085938000033,787.4222502000048,,,,787.4296349999931,787.4408796999924,787.4408796999924,787.4880668999976,787.4883215000009,787.5047338000004,787.5047338000004,787.5047338000004,787.587769699996,787.9549737000052,,,,,,,,,,,,,,,,,,,,,,down,3.8098700999980792,None,space,0.4346071000036318,None,P101,001,2025-02-12_11h31.17.865,posner_endo_new1,2024.2.4,60.06550744475451,2025-02-12 11h31.28.657998 +0000,
cube_r.png,0.1,-0.31,invalid,7,7,0,down,3.655899999997928,None,space,0.4323740999971051,None,,,,,,,,,0,7,7,7,787.9708305999957,,,,,,,,,,,,,787.9551761000039,787.9708305999957,787.9708305999957,787.9708305999957,791.6344236000004,,,,791.6419463999919,791.6650773000001,791.6650773000001,791.7003776999918,791.7006280999922,791.7171224000049,791.7171224000049,791.7171224000049,791.8002923000022,792.150959599996,,,,,,,,,,,,,,,,,,,,,,down,3.655899999997928,None,space,0.4323740999971051,None,P101,001,2025-02-12_11h31.17.865,posner_endo_new1,2024.2.4,60.06550744475451,2025-02-12 11h31.28.657998 +0000,
cube_l.png,0.1,-0.31,valid,8,8,0,down,3.5961429000017233,None,space,0.4507039000018267,None,,,,,,,,,0,8,8,8,792.1664853999973,,,,,,,,,,,,,792.1511591000017,792.1664853999973,792.1664853999973,792.1664853999973,795.7637867000012,,,,795.771136299998,795.7824055999954,795.7824055999954,795.8296775999916,795.8299298000056,795.8459903000039,795.8459903000039,795.8459903000039,795.9289428000047,796.3130452000041,,,,,,,,,,,,,,,,,,,,,,down,3.5961429000017233,None,space,0.4507039000018267,None,P101,001,2025-02-12_11h31.17.865,posner_endo_new1,2024.2.4,60.06550744475451,2025-02-12 11h31.28.657998 +0000,
cube_r.png,0.1,-0.31,invalid,9,9,0,down,3.8657196999993175,None,space,0.4760515999951167,None,,,,,,,,,0,9,9,9,796.3288118999917,,,,,,,,,,,,,796.3132446999953,796.3288118999917,796.3288118999917,796.3288118999917,800.2090632000036,,,,800.216390799993,800.2279725999979,800.2279725999979,800.2748978000018,800.275149699999,800.2916218000028,800.2916218000028,800.2916218000028,800.3581014999945,800.7753689999954,,,,,,,,,,,,,,,,,,,,,,down,3.8657196999993175,None,space,0.4760515999951167,None,P101,001,2025-02-12_11h31.17.865,posner_endo_new1,2024.2.4,60.06550744475451,2025-02-12 11h31.28.657998 +0000,
cube_l.png,0.1,0.31,invalid,10,10,0,down,3.8751364999916404,None,space,0.4792777999973623,None,,,,,,,,,0,10,10,10,800.7910231999995,,,,,,,,,,,,,800.7755710000056,800.7910231999995,800.7910231999995,800.7910231999995,804.6711466999986,,,,804.678516400003,804.6900565999968,804.6900565999968,804.7371619000041,804.7374157000013,804.754031000004,804.754031000004,804.754031000004,804.8203595999948,805.2375057000027,,,,,,,,,,,,,,,,,,,,,,down,3.8751364999916404,None,space,0.4792777999973623,None,P101,001,2025-02-12_11h31.17.865,posner_endo_new1,2024.2.4,60.06550744475451,2025-02-12 11h31.28.657998 +0000,
cube_r.png,0.1,-0.31,invalid,11,11,0,down,3.797767500000191,None,space,0.4786360000143759,None,,,,,,,,,0,11,11,11,805.2530967000057,,,,,,,,,,,,,805.2377067999914,805.2530967000057,805.2530967000057,805.2530967000057,809.0669144999993,,,,809.0785020000039,809.0887269999948,809.0887269999948,809.1326667999965,809.1330165999971,809.1490133000043,809.1490133000043,809.1490133000043,809.2322234000021,809.6332715000026,,,,,,,,,,,,,,,,,,,,,,down,3.797767500000191,None,space,0.4786360000143759,None,P101,001,2025-02-12_11h31.17.865,posner_endo_new1,2024.2.4,60.06550744475451,2025-02-12 11h31.28.657998 +0000,
cube_r.png,0.1,0.31,valid,12,12,0,down,3.850502700006473,None,space,0.39706489999662153,None,,,,,,,,,0,12,12,12,809.648400799997,,,,,,,,,,,,,809.6335816999926,809.648400799997,809.648400799997,809.648400799997,813.512510200002,,,,813.5240136999928,813.5341191000043,813.5341191000043,813.5779430999974,813.5782878000027,813.5945555999933,813.5945555999933,813.5945555999933,813.677758299993,813.9955235999951,,,,,,,,,,,,,,,,,,,,,,down,3.850502700006473,None,space,0.39706489999662153,None,P101,001,2025-02-12_11h31.17.865,posner_endo_new1,2024.2.4,60.06550744475451,2025-02-12 11h31.28.657998 +0000,
cube_l.png,0.1,10,catch,13,13,0,down,4.607325000004494,None,None,,,,,,,,,,,0,13,13,13,814.0107448999916,,,,,,,,,,,,,813.9958184999996,814.0107448999916,814.0107448999916,814.0107448999916,818.6239898000058,,,,818.6354525999923,818.6454887,818.6454887,818.6894570000004,818.6898031000019,818.7059311000048,818.7059311000048,818.7059311000048,818.789222499996,821.7036135999952,,,,820.8038839999936,821.7194490999973,821.7194490999973,821.7194490999973,,,,,,,,,,,,,,,down,4.607325000004494,None,None,,,P101,001,2025-02-12_11h31.17.865,posner_endo_new1,2024.2.4,60.06550744475451,2025-02-12 11h31.28.657998 +0000,
cube_r.png,0.1,-0.31,invalid,14,14,0,down,1.643230899993796,None,space,0.4442423000000417,None,,,,,,,,,0,14,14,14,821.7194490999973,,,,,,,,,,,,,821.703897600004,821.7194490999973,821.7194490999973,821.7194490999973,823.3690519999946,,,,823.3806601999968,823.3907952000009,823.3907952000009,823.4346957999951,823.4350396999944,823.4512054999941,823.4512054999941,823.4512054999941,823.5343562000053,823.9017575000034,,,,,,,,,,,,,,,,,,,,,,down,1.643230899993796,None,space,0.4442423000000417,None,P101,001,2025-02-12_11h31.17.865,posner_endo_new1,2024.2.4,60.06550744475451,2025-02-12 11h31.28.657998 +0000,
cube_l.png,0.1,-0.31,valid,15,15,0,down,4.228863600001205,None,space,0.45569660000910517,None,,,,,,,,,0,15,15,15,823.9173225999984,,,,,,,,,,,,,823.9020540999918,823.9173225999984,823.9173225999984,823.9173225999984,828.1476055999956,,,,828.1591403999919,828.1693494999927,828.1693494999927,828.2131642000022,828.2134204000031,828.2297827000002,828.2297827000002,828.2297827000002,828.3129465999955,828.696586799997,,,,,,,,,,,,,,,,,,,,,,down,4.228863600001205,None,space,0.45569660000910517,None,P101,001,2025-02-12_11h31.17.865,posner_endo_new1,2024.2.4,60.06550744475451,2025-02-12 11h31.28.657998 +0000,
cube_r.png,0.1,10,catch,16,16,0,down,4.034186300006695,None,None,,,,,,,,,,,0,16,16,16,828.7124771999952,,,,,,,,,,,,,828.6967864000035,828.7124771999952,828.7124771999952,828.7124771999952,832.7591824999981,,,,832.7666046999948,832.7780113000044,832.7780113000044,832.825170199998,832.825393799998,832.8416316999937,832.8416316999937,832.8416316999937,832.9082168000023,835.8389650000026,,,,834.9228059000015,835.8551164999953,835.8551164999953,835.8551164999953,,,,,,,,,,,,,,,down,4.034186300006695,None,None,,,P101,001,2025-02-12_11h31.17.865,posner_endo_new1,2024.2.4,60.06550744475451,2025-02-12 11h31.28.657998 +0000,
cube_r.png,0.1,10,catch,17,17,0,down,1.0112748999963515,None,None,,,,,,,,,,,0,17,17,17,835.8551164999953,,,,,,,,,,,,,835.8391329000005,835.8551164999953,835.8551164999953,835.8551164999953,836.8716580000037,,,,836.8777461999998,836.8894029999938,836.8894029999938,836.9376068999991,836.9378299999953,836.954026499996,836.954026499996,836.954026499996,837.0206539999926,839.951533600004,,,,839.0353472999996,839.9672703999968,839.9672703999968,839.9672703999968,,,,,,,,,,,,,,,down,1.0112748999963515,None,None,,,P101,001,2025-02-12_11h31.17.865,posner_endo_new1,2024.2.4,60.06550744475451,2025-02-12 11h31.28.657998 +0000,
cube_l.png,0.1,0.31,invalid,18,18,0,down,1.0355882000003476,None,space,0.4810601999924984,None,,,,,,,,,0,18,18,18,839.9672703999968,,,,,,,,,,,,,839.9516988999967,839.9672703999968,839.9672703999968,839.9672703999968,841.0172618999932,,,,841.0232950999925,841.0348672999971,841.0348672999971,841.083091499997,841.0833163999923,841.0998220000038,841.0998220000038,841.0998220000038,841.1662562999991,841.5836093999969,,,,,,,,,,,,,,,,,,,,,,down,1.0355882000003476,None,space,0.4810601999924984,None,P101,001,2025-02-12_11h31.17.865,posner_endo_new1,2024.2.4,60.06550744475451,2025-02-12 11h31.28.657998 +0000,
cube_l.png,0.1,10,catch,19,19,0,down,3.8684737000003224,None,None,,,,,,,,,,,0,19,19,19,841.5992510999931,,,,,,,,,,,,,841.5837939000048,841.5992510999931,841.5992510999931,841.5992510999931,845.4795142999938,,,,845.4856298999948,845.4973363000026,845.4973363000026,845.5453938999999,845.5456160000031,845.5618790000008,845.5618790000008,845.5618790000008,845.6452190999989,848.559284899995,,,,847.6596773000056,848.5755421999929,848.5755421999929,848.5755421999929,,,,,,,,,,,,,,,down,3.8684737000003224,None,None,,,P101,001,2025-02-12_11h31.17.865,posner_endo_new1,2024.2.4,60.06550744475451,2025-02-12 11h31.28.657998 +0000,
cube_l.png,0.1,0.31,invalid,20,20,0,down,0.9470855999970809,None,space,0.9965792000002693,None,,,,,,,,,0,20,20,20,848.5755421999929,,,,,,,,,,,,,848.559450899993,848.5755421999929,848.5755421999929,848.5755421999929,849.5253255999996,,,,849.5313984999957,849.5431971999933,849.5431971999933,849.5910729000025,849.5912953999941,849.6078425000014,849.6078425000014,849.6078425000014,849.6910172999924,850.6074296000006,,,,,,,,,,,,,,,,,,,,,,down,0.9470855999970809,None,space,0.9965792000002693,None,P101,001,2025-02-12_11h31.17.865,posner_endo_new1,2024.2.4,60.06550744475451,2025-02-12 11h31.28.657998 +0000,
cube_l.png,0.1,-0.31,valid,21,21,0,down,3.9072803999879397,None,space,0.8873295000084909,None,,,,,,,,,0,21,21,21,850.6234894999943,,,,,,,,,,,,,850.6076058000035,850.6234894999943,850.6234894999943,850.6234894999943,854.5367578000005,,,,854.5426734999928,854.5544912000041,854.5544912000041,854.6027827999933,854.6030102999939,854.6193823999929,854.6193823999929,854.6193823999929,854.6859852000052,855.5190643999958,,,,,,,,,,,,,,,,,,,,,,down,3.9072803999879397,None,space,0.8873295000084909,None,P101,001,2025-02-12_11h31.17.865,posner_endo_new1,2024.2.4,60.06550744475451,2025-02-12 11h31.28.657998 +0000,
cube_r.png,0.1,0.31,valid,22,22,0,down,3.6596849000052316,None,space,0.6901219999999739,None,,,,,,,,,0,22,22,22,855.534877099999,,,,,,,,,,,,,855.5192398999934,855.534877099999,855.534877099999,855.534877099999,859.2004796999972,,,,859.2235688999936,859.2352981000004,859.2352981000004,859.2643374000036,859.2647262999963,859.2807995000039,859.2807995000039,859.2807995000039,859.3640496000007,859.9813677000056,,,,,,,,,,,,,,,,,,,,,,down,3.6596849000052316,None,space,0.6901219999999739,None,P101,001,2025-02-12_11h31.17.865,posner_endo_new1,2024.2.4,60.06550744475451,2025-02-12 11h31.28.657998 +0000,
cube_r.png,0.1,-0.31,invalid,23,23,0,down,4.173638299995218,None,space,1.0825068999984069,None,,,,,,,,,0,23,23,23,859.9967056000023,,,,,,,,,,,,,859.9817010999977,859.9967056000023,859.9967056000023,859.9967056000023,864.177119,,,,864.1898783999932,864.1999122999987,864.1999122999987,864.2431378000038,864.2434014000028,864.259476399995,864.259476399995,864.259476399995,864.3427596999973,865.3428520000016,,,,,,,,,,,,,,,,,,,,,,down,4.173638299995218,None,space,1.0825068999984069,None,P101,001,2025-02-12_11h31.17.865,posner_endo_new1,2024.2.4,60.06550744475451,2025-02-12 11h31.28.657998 +0000,
cube_r.png,0.1,0.31,valid,24,24,0,down,7.532143299991731,None,space,0.5426851999945939,None,,,,,,,,,0,24,24,24,865.358284300004,,,,,,,,,,,,,865.343068000002,865.358284300004,865.358284300004,865.358284300004,872.9014827999927,,,,872.9142881000007,872.9243047999917,872.9243047999917,872.9669761999976,872.9673973000026,872.9834699000057,872.9834699000057,872.9834699000057,873.067237700001,873.5344176999934,,,,,,,,,,,,,,,,,,,,,,down,7.532143299991731,None,space,0.5426851999945939,None,P101,001,2025-02-12_11h31.17.865,posner_endo_new1,2024.2.4,60.06550744475451,2025-02-12 11h31.28.657998 +0000,
cube_r.png,0.1,-0.31,invalid,25,25,0,down,3.452995400002692,None,space,0.45569640000758227,None,,,,,,,,,0,25,25,25,873.5500652000046,,,,,,,,,,,,,873.5346469999931,873.5500652000046,873.5500652000046,873.5500652000046,877.0139018000045,,,,877.0223339999939,877.0326512000029,877.0326512000029,877.0798613999941,877.0801434000023,877.0962519000022,877.0962519000022,877.0962519000022,877.1630432999955,877.5635084999958,,,,,,,,,,,,,,,,,,,,,,down,3.452995400002692,None,space,0.45569640000758227,None,P101,001,2025-02-12_11h31.17.865,posner_endo_new1,2024.2.4,60.06550744475451,2025-02-12 11h31.28.657998 +0000,
cube_l.png,0.1,-0.31,valid,26,26,0,down,3.367013000010047,None,space,0.4493861999944784,None,,,,,,,,,0,26,26,26,877.5791786000045,,,,,,,,,,,,,877.5637376999948,877.5791786000045,877.5791786000045,877.5791786000045,880.9599056000006,,,,880.968294499995,880.9786318999977,880.9786318999977,881.0257689999999,881.0260448000045,881.0423821000004,881.0423821000004,881.0423821000004,881.1088517000026,881.4928361999919,,,,,,,,,,,,,,,,,,,,,,down,3.367013000010047,None,space,0.4493861999944784,None,P101,001,2025-02-12_11h31.17.865,posner_endo_new1,2024.2.4,60.06550744475451,2025-02-12 11h31.28.657998 +0000,
cube_r.png,0.1,0.31,valid,27,27,0,down,3.4859322999982396,None,space,0.3733322999905795,None,,,,,,,,,0,27,27,27,881.5085408000014,,,,,,,,,,,,,881.4930647000001,881.5085408000014,881.5085408000014,881.5085408000014,885.0057385999971,,,,885.0141646999982,885.0244604000036,885.0244604000036,885.0716093999945,885.071887099999,885.0882009999914,885.0882009999914,885.0882009999914,885.1548203999992,885.4719530000002,,,,,,,,,,,,,,,,,,,,,,down,3.4859322999982396,None,space,0.3733322999905795,None,P101,001,2025-02-12_11h31.17.865,posner_endo_new1,2024.2.4,60.06550744475451,2025-02-12 11h31.28.657998 +0000,
cube_r.png,0.1,10,catch,28,28,0,down,3.691076000002795,None,None,,,,,,,,,,,0,28,28,28,885.4879460999946,,,,,,,,,,,,,885.4721801999985,885.4879460999946,885.4879460999946,885.4879460999946,889.1849381999928,,,,889.1933272000024,889.203588000004,889.203588000004,889.250767599995,889.2510452999995,889.2671198000025,889.2671198000025,889.2671198000025,889.3505456999992,892.264903000003,,,,891.3651431000035,892.2808226000052,892.2808226000052,892.2808226000052,,,,,,,,,,,,,,,down,3.691076000002795,None,None,,,P101,001,2025-02-12_11h31.17.865,posner_endo_new1,2024.2.4,60.06550744475451,2025-02-12 11h31.28.657998 +0000,
cube_r.png,0.1,0.31,valid,29,29,0,down,0.7857335999869974,None,space,0.5486996000108775,None,,,,,,,,,0,29,29,29,892.2808226000052,,,,,,,,,,,,,892.2651212999917,892.2808226000052,892.2808226000052,892.2808226000052,893.0809507999948,,,,893.0893244000035,893.0997114999918,893.0997114999918,893.1467321999953,893.1470165999926,893.1632108000049,893.1632108000049,893.1632108000049,893.2464924999949,893.7138048000052,,,,,,,,,,,,,,,,,,,,,,down,0.7857335999869974,None,space,0.5486996000108775,None,P101,001,2025-02-12_11h31.17.865,posner_endo_new1,2024.2.4,60.06550744475451,2025-02-12 11h31.28.657998 +0000,
cube_r.png,0.1,0.31,valid,30,30,0,down,3.809181999997236,None,space,0.8454972000035923,None,,,,,,,,,0,30,30,30,893.7291668999969,,,,,,,,,,,,,893.7140412000008,893.7291668999969,893.7291668999969,893.7291668999969,897.5429907999933,,,,897.5513974999922,897.5617607000022,897.5617607000022,897.608873899997,897.6091480000032,897.6254477000039,897.6254477000039,897.6254477000039,897.6921260999952,898.4755110999977,,,,,,,,,,,,,,,,,,,,,,down,3.809181999997236,None,space,0.8454972000035923,None,P101,001,2025-02-12_11h31.17.865,posner_endo_new1,2024.2.4,60.06550744475451,2025-02-12 11h31.28.657998 +0000,
cube_l.png,0.1,-0.31,valid,31,31,0,down,2.4399388000019826,None,space,0.4538483000069391,None,,,,,,,,,0,31,31,31,898.4911231000006,,,,,,,,,,,,,898.4757380999945,898.4911231000006,898.4911231000006,898.4911231000006,900.9393700999935,,,,900.9477981999953,900.9581008999958,900.9581008999958,901.0050982999965,901.0053734999965,901.0219785999943,901.0219785999943,901.0219785999943,901.0886452999985,901.4889036999957,,,,,,,,,,,,,,,,,,,,,,down,2.4399388000019826,None,space,0.4538483000069391,None,P101,001,2025-02-12_11h31.17.865,posner_endo_new1,2024.2.4,60.06550744475451,2025-02-12 11h31.28.657998 +0000,
cube_r.png,0.1,0.31,valid,32,32,0,down,3.7382013000024017,None,space,0.44029320000845473,None,,,,,,,,,0,32,32,32,901.5046718999947,,,,,,,,,,,,,901.4891334999993,901.5046718999947,901.5046718999947,901.5046718999947,905.2518467000045,,,,905.2603686999937,905.2703998999932,905.2703998999932,905.3176717000024,905.3179498999962,905.3340750999923,905.3340750999923,905.3340750999923,905.4172710999992,905.7846831999923,,,,,,,,,,,,,,,,,,,,,,down,3.7382013000024017,None,space,0.44029320000845473,None,P101,001,2025-02-12_11h31.17.865,posner_endo_new1,2024.2.4,60.06550744475451,2025-02-12 11h31.28.657998 +0000,
cube_r.png,0.1,-0.31,invalid,33,33,0,down,4.0581486000010045,None,space,0.4767850000062026,None,,,,,,,,,0,33,33,33,905.8004270999954,,,,,,,,,,,,,905.784911900002,905.8004270999954,905.8004270999954,905.8004270999954,909.8638251999946,,,,909.8722744999977,909.882482999994,909.882482999994,909.9294742000056,909.9297500999965,909.9462211999926,909.9462211999926,909.9462211999926,910.0293588000059,910.4299824000045,,,,,,,,,,,,,,,,,,,,,,down,4.0581486000010045,None,space,0.4767850000062026,None,P101,001,2025-02-12_11h31.17.865,posner_endo_new1,2024.2.4,60.06550744475451,2025-02-12 11h31.28.657998 +0000,
cube_r.png,0.1,10,catch,34,34,0,down,3.309051100004581,None,None,,,,,,,,,,,0,34,34,34,910.445229799996,,,,,,,,,,,,,910.4302116000035,910.445229799996,910.445229799996,910.445229799996,913.7599706000037,,,,913.7699102000042,913.7794861000002,913.7794861000002,913.8255500999949,913.8257929999963,913.8420101999945,913.8420101999945,913.8420101999945,913.9254173999943,916.8395382000017,,,,915.9399438999972,916.8556173999968,916.8556173999968,916.8556173999968,,,,,,,,,,,,,,,down,3.309051100004581,None,None,,,P101,001,2025-02-12_11h31.17.865,posner_endo_new1,2024.2.4,60.06550744475451,2025-02-12 11h31.28.657998 +0000,
cube_r.png,0.1,0.31,valid,35,35,0,down,1.0832760000048438,None,space,0.479018800004269,None,,,,,,,,,0,35,35,35,916.8556173999968,,,,,,,,,,,,,916.8397158000007,916.8556173999968,916.8556173999968,916.8556173999968,917.9553108999971,,,,917.9621998999937,917.9740791999939,917.9740791999939,918.021305599992,918.021548299992,918.0378103999974,918.0378103999974,918.0378103999974,918.1044249999977,918.5214746999991,,,,,,,,,,,,,,,,,,,,,,down,1.0832760000048438,None,space,0.479018800004269,None,P101,001,2025-02-12_11h31.17.865,posner_endo_new1,2024.2.4,60.06550744475451,2025-02-12 11h31.28.657998 +0000,
cube_r.png,0.1,-0.31,invalid,36,36,0,down,4.561039400010486,None,space,0.4745878999965498,None,,,,,,,,,0,36,36,36,918.537204399996,,,,,,,,,,,,,918.5216695999989,918.537204399996,918.537204399996,918.537204399996,923.1002187999984,,,,923.1071384999959,923.118933699996,923.118933699996,923.1658705000009,923.1661086999957,923.1826000000001,923.1826000000001,923.1826000000001,923.2492031000002,923.6660955999978,,,,,,,,,,,,,,,,,,,,,,down,4.561039400010486,None,space,0.4745878999965498,None,P101,001,2025-02-12_11h31.17.865,posner_endo_new1,2024.2.4,60.06550744475451,2025-02-12 11h31.28.657998 +0000,
cube_l.png,0.1,0.31,invalid,37,37,0,down,2.8563082000036957,None,space,0.44418939999013674,None,,,,,,,,,0,37,37,37,923.6820337999961,,,,,,,,,,,,,923.6662891000014,923.6820337999961,923.6820337999961,923.6820337999961,926.5466271000041,,,,926.5534059999918,926.5650834999979,926.5650834999979,926.6125650000031,926.612781799995,926.6290314999933,926.6290314999933,926.6290314999933,926.7120468999929,927.0792750999972,,,,,,,,,,,,,,,,,,,,,,down,2.8563082000036957,None,space,0.44418939999013674,None,P101,001,2025-02-12_11h31.17.865,posner_endo_new1,2024.2.4,60.06550744475451,2025-02-12 11h31.28.657998 +0000,
cube_l.png,0.1,0.31,invalid,38,38,0,down,4.179376899992349,None,space,0.4697325000015553,None,,,,,,,,,0,38,38,38,927.0947365000029,,,,,,,,,,,,,927.0794348000054,927.0947365000029,927.0947365000029,927.0947365000029,931.2750407999993,,,,931.2810041000048,931.2926989999978,931.2926989999978,931.3405512000027,931.340776099998,931.3576363000029,931.3576363000029,931.3576363000029,931.4240819999977,931.840752899996,,,,,,,,,,,,,,,,,,,,,,down,4.179376899992349,None,space,0.4697325000015553,None,P101,001,2025-02-12_11h31.17.865,posner_endo_new1,2024.2.4,60.06550744475451,2025-02-12 11h31.28.657998 +0000,
cube_r.png,0.1,0.31,valid,39,39,0,down,3.650190100001055,None,space,0.6541261999955168,None,,,,,,,,,0,39,39,39,931.8566888999922,,,,,,,,,,,,,931.8409275000013,931.8566888999922,931.8566888999922,931.8566888999922,935.5207204000035,,,,935.5266636000015,935.5383726,935.5383726,935.5865966999991,935.5868203999999,935.6031804999948,935.6031804999948,935.6031804999948,935.6863756999956,936.2699513999978,,,,,,,,,,,,,,,,,,,,,,down,3.650190100001055,None,space,0.6541261999955168,None,P101,001,2025-02-12_11h31.17.865,posner_endo_new1,2024.2.4,60.06550744475451,2025-02-12 11h31.28.657998 +0000,
cube_l.png,0.1,0.31,invalid,40,40,0,down,3.421083199995337,None,space,0.8161903000000166,None,,,,,,,,,0,40,40,40,936.2858065000037,,,,,,,,,,,,,936.270127900003,936.2858065000037,936.2858065000037,936.2858065000037,939.7162629999948,,,,939.7222847999947,939.7338636000059,939.7338636000059,939.7823731999961,939.7825968999969,939.7983836000058,939.7983836000058,939.7983836000058,939.8822183000011,940.6156255999958,,,,,,,,,,,,,,,,,,,,,,down,3.421083199995337,None,space,0.8161903000000166,None,P101,001,2025-02-12_11h31.17.865,posner_endo_new1,2024.2.4,60.06550744475451,2025-02-12 11h31.28.657998 +0000,
cube_l.png,0.1,10,catch,41,41,0,down,3.4760766999970656,None,None,,,,,,,,,,,0,41,41,41,940.6313992999931,,,,,,,,,,,,,940.6158001000003,940.6313992999931,940.6313992999931,940.6313992999931,944.1117765999952,,,,944.1176747999998,944.1292059999978,944.1292059999978,944.1780654000031,944.1782973999943,944.1943877000012,944.1943877000012,944.1943877000012,944.2606318000035,947.1913815000007,,,,946.2752241999988,947.2074045000045,947.2074045000045,947.2074045000045,,,,,,,,,,,,,,,down,3.4760766999970656,None,None,,,P101,001,2025-02-12_11h31.17.865,posner_endo_new1,2024.2.4,60.06550744475451,2025-02-12 11h31.28.657998 +0000,
cube_l.png,0.1,-0.31,valid,42,42,0,down,0.7153068000043277,None,space,0.47921460001089144,None,,,,,,,,,0,42,42,42,947.2074045000045,,,,,,,,,,,,,947.1915446000057,947.2074045000045,947.2074045000045,947.2074045000045,947.9243639000051,,,,947.9303538999957,947.9419123999978,947.9419123999978,947.9900926999981,947.990314900002,948.0071860000025,948.0071860000025,948.0071860000025,948.0736106999975,948.490367099992,,,,,,,,,,,,,,,,,,,,,,down,0.7153068000043277,None,space,0.47921460001089144,None,P101,001,2025-02-12_11h31.17.865,posner_endo_new1,2024.2.4,60.06550744475451,2025-02-12 11h31.28.657998 +0000,
cube_l.png,0.1,10,catch,43,43,0,down,4.0401603000063915,None,None,,,,,,,,,,,0,43,43,43,948.5066092999914,,,,,,,,,,,,,948.4905416999973,948.5066092999914,948.5066092999914,948.5066092999914,952.553270599994,,,,952.5592580999946,952.5707663999929,952.5707663999929,952.6187880999933,952.6190098999941,952.6357586999948,952.6357586999948,952.6357586999948,952.7024501999986,955.6330719999969,,,,954.7165615999984,955.6489315999934,955.6489315999934,955.6489315999934,,,,,,,,,,,,,,,down,4.0401603000063915,None,None,,,P101,001,2025-02-12_11h31.17.865,posner_endo_new1,2024.2.4,60.06550744475451,2025-02-12 11h31.28.657998 +0000,
cube_l.png,0.1,0.31,invalid,44,44,0,down,1.0021436999959406,None,space,0.48833740000554826,None,,,,,,,,,0,44,44,44,955.6489315999934,,,,,,,,,,,,,955.6332350000012,955.6489315999934,955.6489315999934,955.6489315999934,956.6656073000049,,,,956.6716313999932,956.6832027000055,956.6832027000055,956.7316625999956,956.7318862999964,956.7483346999943,956.7483346999943,956.7483346999943,956.8148106000008,957.2485586999974,,,,,,,,,,,,,,,,,,,,,,down,1.0021436999959406,None,space,0.48833740000554826,None,P101,001,2025-02-12_11h31.17.865,posner_endo_new1,2024.2.4,60.06550744475451,2025-02-12 11h31.28.657998 +0000,
cube_l.png,0.1,0.31,invalid,45,45,0,down,3.5220115999982227,None,space,0.43202690000180155,None,,,,,,,,,0,45,45,45,957.2643194999982,,,,,,,,,,,,,957.248742900003,957.2643194999982,957.2643194999982,957.2643194999982,960.7944358999957,,,,960.8004626000038,960.8122065999924,960.8122065999924,960.8602965000027,960.860520599992,960.8773260000016,960.8773260000016,960.8773260000016,960.9436761999968,961.311140299993,,,,,,,,,,,,,,,,,,,,,,down,3.5220115999982227,None,space,0.43202690000180155,None,P101,001,2025-02-12_11h31.17.865,posner_endo_new1,2024.2.4,60.06550744475451,2025-02-12 11h31.28.657998 +0000,
cube_r.png,0.1,0.31,valid,46,46,0,down,3.7001558000047226,None,space,0.4693951999943238,None,,,,,,,,,0,46,46,46,961.3269240999944,,,,,,,,,,,,,961.3113226999994,961.3269240999944,961.3269240999944,961.3269240999944,965.0403775000013,,,,965.0463736999955,965.0581023999985,965.0581023999985,965.106243599992,965.1064664000005,965.1229955000017,965.1229955000017,965.1229955000017,965.2064204000053,965.6065511999914,,,,,,,,,,,,,,,,,,,,,,down,3.7001558000047226,None,space,0.4693951999943238,None,P101,001,2025-02-12_11h31.17.865,posner_endo_new1,2024.2.4,60.06550744475451,2025-02-12 11h31.28.657998 +0000,
cube_l.png,0.1,-0.31,valid,47,47,0,down,3.2453518000111217,None,space,0.44551160000264645,None,,,,,,,,,0,47,47,47,965.6224505999999,,,,,,,,,,,,,965.606729399995,965.6224505999999,965.6224505999999,965.6224505999999,968.8695783000003,,,,968.8755623000034,968.8871447999991,968.8871447999991,968.9359306999977,968.9361560999969,968.9521581000008,968.9521581000008,968.9521581000008,969.0188350999961,969.4025961000007,,,,,,,,,,,,,,,,,,,,,,down,3.2453518000111217,None,space,0.44551160000264645,None,P101,001,2025-02-12_11h31.17.865,posner_endo_new1,2024.2.4,60.06550744475451,2025-02-12 11h31.28.657998 +0000,
cube_r.png,0.1,-0.31,invalid,48,48,0,down,3.544729899993399,None,space,0.427253899993957,None,,,,,,,,,0,48,48,48,969.4180765000056,,,,,,,,,,,,,969.4027763000049,969.4180765000056,969.4180765000056,969.4180765000056,972.967864899998,,,,972.9893599999923,972.9996278000035,972.9996278000035,973.0316501999914,973.0320007999981,973.0481253000034,973.0481253000034,973.0481253000034,973.131323900001,973.4823106999975,,,,,,,,,,,,,,,,,,,,,,down,3.544729899993399,None,space,0.427253899993957,None,P101,001,2025-02-12_11h31.17.865,posner_endo_new1,2024.2.4,60.06550744475451,2025-02-12 11h31.28.657998 +0000,
cube_r.png,0.1,10,catch,49,49,0,down,3.968527599994559,None,None,,,,,,,,,,,0,49,49,49,973.4976652000041,,,,,,,,,,,,,973.4826080000057,973.4976652000041,973.4976652000041,973.4976652000041,977.4781581999996,,,,977.4896524999931,977.4997595000023,977.4997595000023,977.5436220999982,977.5439670000051,977.5601519000047,977.5601519000047,977.5601519000047,977.6434312000056,980.5577967999998,,,,979.6579291999951,980.5736738999985,980.5736738999985,980.5736738999985,,,,,,,,,,,,,,,down,3.968527599994559,None,None,,,P101,001,2025-02-12_11h31.17.865,posner_endo_new1,2024.2.4,60.06550744475451,2025-02-12 11h31.28.657998 +0000,
cube_l.png,0.1,-0.31,valid,50,50,0,down,1.3172848999965936,None,space,0.4846695999876829,None,,,,,,,,,0,50,50,50,980.5736738999985,,,,,,,,,,,,,980.5580704000022,980.5736738999985,980.5736738999985,980.5736738999985,981.9069165999972,,,,981.9184209999949,981.9286044000037,981.9286044000037,981.9725009999966,981.9728479000041,981.9889339999936,981.9889339999936,981.9889339999936,982.0721919999924,982.4896768000035,,,,,,,,,,,,,,,,,,,,,,down,1.3172848999965936,None,space,0.4846695999876829,None,P101,001,2025-02-12_11h31.17.865,posner_endo_new1,2024.2.4,60.06550744475451,2025-02-12 11h31.28.657998 +0000,
cube_l.png,0.1,-0.31,valid,51,51,0,down,4.505342999997083,None,space,0.5317245000042021,None,,,,,,,,,0,51,51,51,982.5050938999921,,,,,,,,,,,,,982.4899807000038,982.5050938999921,982.5050938999921,982.5050938999921,987.0184355999954,,,,987.0298443999927,987.0400370999996,987.0400370999996,987.0838636999979,987.0842078999995,987.1003267000051,987.1003267000051,987.1003267000051,987.1836600999959,987.6343144999992,,,,,,,,,,,,,,,,,,,,,,down,4.505342999997083,None,space,0.5317245000042021,None,P101,001,2025-02-12_11h31.17.865,posner_endo_new1,2024.2.4,60.06550744475451,2025-02-12 11h31.28.657998 +0000,
cube_r.png,0.1,-0.31,invalid,52,52,0,down,3.2166674000036437,None,space,0.5059911999996984,None,,,,,,,,,0,52,52,52,987.6498513999977,,,,,,,,,,,,,987.6346072000015,987.6498513999977,987.6498513999977,987.6498513999977,990.8809841000038,,,,990.8924419999967,990.9024718000001,990.9024718000001,990.9465879999916,990.946941599992,990.9631451000023,990.9631451000023,990.9631451000023,991.0462929999921,991.4804096000007,,,,,,,,,,,,,,,,,,,,,,down,3.2166674000036437,None,space,0.5059911999996984,None,P101,001,2025-02-12_11h31.17.865,posner_endo_new1,2024.2.4,60.06550744475451,2025-02-12 11h31.28.657998 +0000,
cube_l.png,0.1,-0.31,valid,53,53,0,down,3.1953021999943303,None,space,0.4601958999992348,None,,,,,,,,,0,53,53,53,991.4958418000024,,,,,,,,,,,,,991.4807071999967,991.4958418000024,991.4958418000024,991.4958418000024,994.6954111999949,,,,994.7183777000027,994.7306233999989,994.7306233999989,994.7591165000049,994.7595035999984,994.7755487999966,994.7755487999966,994.7755487999966,994.8587728999992,995.2431116999942,,,,,,,,,,,,,,,,,,,,,,down,3.1953021999943303,None,space,0.4601958999992348,None,P101,001,2025-02-12_11h31.17.865,posner_endo_new1,2024.2.4,60.06550744475451,2025-02-12 11h31.28.657998 +0000,
cube_r.png,0.1,10,catch,54,54,0,down,3.584100499996566,None,None,,,,,,,,,,,0,54,54,54,995.2583789999917,,,,,,,,,,,,,995.2434494000045,995.2583789999917,995.2583789999917,995.2583789999917,998.8560146999953,,,,998.8686879000015,998.8787290000037,998.8787290000037,998.921774100003,998.9220512000029,998.9382536000048,998.9382536000048,998.9382536000048,999.0216237999994,1001.9358688999928,,,,1001.0362418000004,1001.9519667999994,1001.9519667999994,1001.9519667999994,,,,,,,,,,,,,,,down,3.584100499996566,None,None,,,P101,001,2025-02-12_11h31.17.865,posner_endo_new1,2024.2.4,60.06550744475451,2025-02-12 11h31.28.657998 +0000,
cube_l.png,0.1,0.31,invalid,55,55,0,down,0.9303479999944102,None,space,0.47421030000259634,None,,,,,,,,,0,55,55,55,1001.9519667999994,,,,,,,,,,,,,1001.9360843000031,1001.9519667999994,1001.9519667999994,1001.9519667999994,1002.8852270999923,,,,1002.893659399997,1002.9039508999995,1002.9039508999995,1002.9511093000037,1002.951390000002,1002.9675397999963,1002.9675397999963,1002.9675397999963,1003.0509229000018,1003.4513887999929,,,,,,,,,,,,,,,,,,,,,,down,0.9303479999944102,None,space,0.47421030000259634,None,P101,001,2025-02-12_11h31.17.865,posner_endo_new1,2024.2.4,60.06550744475451,2025-02-12 11h31.28.657998 +0000,
cube_l.png,0.1,-0.31,valid,56,56,0,down,3.879874000005657,None,space,0.4968329000112135,None,,,,,,,,,0,56,56,56,1003.4670904999948,,,,,,,,,,,,,1003.4516167999973,1003.4670904999948,1003.4670904999948,1003.4670904999948,1007.3639939999994,,,,1007.3724236999988,1007.3827503999928,1007.3827503999928,1007.4298677000043,1007.4301470999926,1007.4462974999915,1007.4462974999915,1007.4462974999915,1007.5297109999956,1007.9469882999983,,,,,,,,,,,,,,,,,,,,,,down,3.879874000005657,None,space,0.4968329000112135,None,P101,001,2025-02-12_11h31.17.865,posner_endo_new1,2024.2.4,60.06550744475451,2025-02-12 11h31.28.657998 +0000,
cube_r.png,0.1,0.31,valid,57,57,0,down,3.793117199995322,None,space,0.3884511000069324,None,,,,,,,,,0,57,57,57,1007.9620379999978,,,,,,,,,,,,,1007.9472291999991,1007.9620379999978,1007.9620379999978,1007.9620379999978,1011.7596148000011,,,,1011.7680064000015,1011.7780830999982,1011.7780830999982,1011.8253158000007,1011.8255960999959,1011.8419577000022,1011.8419577000022,1011.8419577000022,1011.9085962999961,1012.2426097999996,,,,,,,,,,,,,,,,,,,,,,down,3.793117199995322,None,space,0.3884511000069324,None,P101,001,2025-02-12_11h31.17.865,posner_endo_new1,2024.2.4,60.06550744475451,2025-02-12 11h31.28.657998 +0000,
cube_r.png,0.1,-0.31,invalid,58,58,0,down,3.8483962999889627,None,space,0.45570580000639893,None,,,,,,,,,0,58,58,58,1012.2581678999995,,,,,,,,,,,,,1012.2428365999949,1012.2581678999995,1012.2581678999995,1012.2581678999995,1016.1216917999991,,,,1016.130176199993,1016.1404523999954,1016.1404523999954,1016.1874797000055,1016.1877655999997,1016.2040539000009,1016.2040539000009,1016.2040539000009,1016.2707189999928,1016.6712950999936,,,,,,,,,,,,,,,,,,,,,,down,3.8483962999889627,None,space,0.45570580000639893,None,P101,001,2025-02-12_11h31.17.865,posner_endo_new1,2024.2.4,60.06550744475451,2025-02-12 11h31.28.657998 +0000,
cube_l.png,0.1,0.31,invalid,59,59,0,down,4.003506499997457,None,space,0.44309359999897424,None,,,,,,,,,0,59,59,59,1016.6868304999953,,,,,,,,,,,,,1016.6715246999956,1016.6868304999953,1016.6868304999953,1016.6868304999953,1020.7003868000029,,,,1020.7088150999916,1020.7190377999941,1020.7190377999941,1020.7662956999993,1020.7665774999914,1020.782816299994,1020.782816299994,1020.782816299994,1020.8493173000024,1021.2331622000056,,,,,,,,,,,,,,,,,,,,,,down,4.003506499997457,None,space,0.44309359999897424,None,P101,001,2025-02-12_11h31.17.865,posner_endo_new1,2024.2.4,60.06550744475451,2025-02-12 11h31.28.657998 +0000,
