cue_img,cue_soa,target_y,trial,thisN,thisTrialN,thisRepN,key_control2.keys,key_control2.rt,key_control2.duration,key_resp.keys,key_resp.rt,key_resp.duration,practice.thisRepN,practice.thisTrialN,practice.thisN,practice.thisIndex,block1.thisRepN,block1.thisTrialN,block1.thisN,block1.thisIndex,block2.thisRepN,block2.thisTrialN,block2.thisN,block2.thisIndex,thisRow.t,notes,instructions.started,instructions_txt.started,key_control.started,instructions.stopped,key_control.keys,key_control.rt,key_control.duration,ready.started,ready_txt.started,ready_txt.stopped,ready.stopped,fix.started,fixation.started,key_control2.started,fixation_cross.started,fix.stopped,practice.key_control2.keys,practice.key_control2.rt,practice.key_control2.duration,cue.started,cube.started,fixation_cross_cue.started,cue.stopped,target.started,fixation_target.started,fixation_cross_target.started,key_resp.started,star.started,target.stopped,practice.key_resp.keys,practice.key_resp.rt,practice.key_resp.duration,star.stopped,fixation_target.stopped,fixation_cross_target.stopped,key_resp.stopped,block1.key_control2.keys,block1.key_control2.rt,block1.key_control2.duration,block1.key_resp.keys,block1.key_resp.rt,block1.key_resp.duration,break_2.started,text.started,key_control3.started,text.stopped,break_2.stopped,key_control3.keys,key_control3.rt,key_control3.duration,block2.key_control2.keys,block2.key_control2.rt,block2.key_control2.duration,block2.key_resp.keys,block2.key_resp.rt,block2.key_resp.duration,participant,session,date,expName,psychopyVersion,frameRate,expStart,
,,,,,,,,,,,,,,,,,,,,,,,,,,,0.007564900006400421,0.028133900006650947,0.028133900006650947,355.4735273999977,up,355.4261053000082,None,,,,,,,,,,,,,,,,,,,,,,,,,,,,,,,,,,,,,,,,,,,,,,,,,,P102,001,2025-02-12_14h12.17.371,posner_endo_new1,2024.2.4,59.87504079156531,2025-02-12 14h12.29.755233 +0000,
,,,,,,,,,,,,,,,,,,,,,,,,,,,,,,,,,,355.47361840000667,355.4856054999982,358.49094519999926,358.46491830000014,,,,,,,,,,,,,,,,,,,,,,,,,,,,,,,,,,,,,,,,,,,,,,P102,001,2025-02-12_14h12.17.371,posner_endo_new1,2024.2.4,59.87504079156531,2025-02-12 14h12.29.755233 +0000,
cube_l.png,0.1,-0.31,valid,0,0,0,up,8.38702639999974,None,space,0.5910569999978179,None,0,0,0,0,,,,,,,,,358.49094519999926,,,,,,,,,,,,,358.47847190000175,358.49094519999926,358.49094519999926,358.49094519999926,366.8916265000007,up,8.38702639999974,None,366.92324999999255,366.93505250000453,366.93505250000453,366.9549270999996,366.95518679999805,366.971458,366.971458,366.971458,367.0553329999966,367.57239830000617,space,0.5910569999978179,None,,,,,,,,,,,,,,,,,,,,,,,,,P102,001,2025-02-12_14h12.17.371,posner_endo_new1,2024.2.4,59.87504079156531,2025-02-12 14h12.29.755233 +0000,
cube_l.png,0.1,0.31,invalid,1,1,0,up,5.4501387999916915,None,space,0.3984399999899324,None,0,1,1,1,,,,,,,,,367.58815080000204,,,,,,,,,,,,,367.572585300004,367.58815080000204,367.58815080000204,367.58815080000204,373.0519736999995,up,5.4501387999916915,None,373.07593789999373,373.0881980999984,373.0881980999984,373.1160474999924,373.11641119999695,373.1326345999987,373.1326345999987,373.1326345999987,373.21568550000666,373.53330260000075,space,0.3984399999899324,None,,,,,,,,,,,,,,,,,,,,,,,,,P102,001,2025-02-12_14h12.17.371,posner_endo_new1,2024.2.4,59.87504079156531,2025-02-12 14h12.29.755233 +0000,
cube_r.png,0.1,-0.31,invalid,2,2,0,up,6.024853499999153,None,space,0.3612385999877006,None,0,2,2,2,,,,,,,,,373.54872449999675,,,,,,,,,,,,,373.533497299999,373.54872449999675,373.54872449999675,373.54872449999675,379.5766985999944,up,6.024853499999153,None,379.5848521000007,379.5954594000068,379.5954594000068,379.64261660000193,379.6431300999975,379.65904630000296,379.65904630000296,379.65904630000296,379.7422998999973,380.02730200000224,space,0.3612385999877006,None,,,,,,,,,,,,,,,,,,,,,,,,,P102,001,2025-02-12_14h12.17.371,posner_endo_new1,2024.2.4,59.87504079156531,2025-02-12 14h12.29.755233 +0000,
cube_r.png,0.1,10,catch,3,3,0,up,9.38825309999811,None,None,,,0,3,3,3,,,,,,,,,380.0419871000049,,,,,,,,,,,,,380.0277244000026,380.0419871000049,380.0419871000049,380.0419871000049,389.43381099999533,up,9.38825309999811,None,389.4425717999984,389.4524373000022,389.4524373000022,389.499244000006,389.49948119999317,389.5157826000068,389.5157826000068,389.5157826000068,389.59878390000085,392.5132101000054,None,,,391.6135811999993,392.5293115999957,392.5293115999957,392.5293115999957,,,,,,,,,,,,,,,,,,,,,P102,001,2025-02-12_14h12.17.371,posner_endo_new1,2024.2.4,59.87504079156531,2025-02-12 14h12.29.755233 +0000,
cube_l.png,0.1,-0.31,valid,4,4,0,up,7.132641899996088,None,space,0.4831166999938432,None,0,4,4,4,,,,,,,,,392.5293115999957,,,,,,,,,,,,,392.51338679999753,392.5293115999957,392.5293115999957,392.5293115999957,399.6728363000002,up,7.132641899996088,None,399.6798617000022,399.6916632999928,399.6916632999928,399.73872170000686,399.73923180000565,399.75509350000357,399.75509350000357,399.75509350000357,399.8383449999965,400.24000839999644,space,0.4831166999938432,None,,,,,,,,,,,,,,,,,,,,,,,,,P102,001,2025-02-12_14h12.17.371,posner_endo_new1,2024.2.4,59.87504079156531,2025-02-12 14h12.29.755233 +0000,
cube_l.png,0.1,0.31,invalid,5,5,0,up,12.199829100005445,None,space,0.4270650999969803,None,0,5,5,5,,,,,,,,,400.25461230000656,,,,,,,,,,,,,400.2404303999938,400.25461230000656,400.25461230000656,400.25461230000656,412.4601407000009,up,12.199829100005445,None,412.47170599999663,412.4819847000035,412.4819847000035,412.525761900004,412.52611360000446,412.54211249999935,412.54211249999935,412.54211249999935,412.6256346000009,412.97626739999396,space,0.4270650999969803,None,,,,,,,,,,,,,,,,,,,,,,,,,P102,001,2025-02-12_14h12.17.371,posner_endo_new1,2024.2.4,59.87504079156531,2025-02-12 14h12.29.755233 +0000,
cube_r.png,0.1,-0.31,invalid,6,6,0,up,3.9115940000046976,None,space,0.4304509999928996,None,0,6,6,6,,,,,,,,,412.9917781999975,,,,,,,,,,,,,412.97654210000474,412.9917781999975,412.9917781999975,412.9917781999975,416.90581690000545,up,3.9115940000046976,None,416.917389299997,416.92779970000265,416.92779970000265,416.97118009999394,416.9715433999954,416.98762489999353,416.98762489999353,416.98762489999353,417.07087349999347,417.42186960000254,space,0.4304509999928996,None,,,,,,,,,,,,,,,,,,,,,,,,,P102,001,2025-02-12_14h12.17.371,posner_endo_new1,2024.2.4,59.87504079156531,2025-02-12 14h12.29.755233 +0000,
cube_r.png,0.1,0.31,valid,7,7,0,up,5.120331800004351,None,space,0.5843240999965928,None,0,7,7,7,,,,,,,,,417.4371555999969,,,,,,,,,,,,,417.4221586000058,417.4371555999969,417.4371555999969,417.4371555999969,422.5664267999964,up,5.120331800004351,None,422.5777697000012,422.588036000001,422.588036000001,422.6320976999996,422.6324475000001,422.6486753999925,422.6486753999925,422.6486753999925,422.7317860000039,423.2493814000045,space,0.5843240999965928,None,,,,,,,,,,,,,,,,,,,,,,,,,P102,001,2025-02-12_14h12.17.371,posner_endo_new1,2024.2.4,59.87504079156531,2025-02-12 14h12.29.755233 +0000,
cube_l.png,0.1,-0.31,valid,8,8,0,up,4.741014700004598,None,space,0.36463299999013543,None,0,8,8,8,,,,,,,,,423.264588799997,,,,,,,,,,,,,423.2496583000029,423.264588799997,423.264588799997,423.264588799997,428.0109710999968,up,4.741014700004598,None,428.02104320000217,428.0308578999975,428.0308578999975,428.07644540000183,428.0766805000021,428.0929008999956,428.0929008999956,428.0929008999956,428.1763146000012,428.46014260000084,space,0.36463299999013543,None,,,,,,,,,,,,,,,,,,,,,,,,,P102,001,2025-02-12_14h12.17.371,posner_endo_new1,2024.2.4,59.87504079156531,2025-02-12 14h12.29.755233 +0000,
cube_r.png,0.1,-0.31,invalid,9,9,0,up,4.705573600003845,None,space,0.40119020000565797,None,0,9,9,9,,,,,,,,,428.47597159999714,,,,,,,,,,,,,428.460324700005,428.47597159999714,428.47597159999714,428.47597159999714,433.18832269999257,up,4.705573600003845,None,433.1953887999989,433.20725170000514,433.20725170000514,433.2545162000024,433.2547676999966,433.2710877000063,433.2710877000063,433.2710877000063,433.33767170000647,433.6882553000032,space,0.40119020000565797,None,,,,,,,,,,,,,,,,,,,,,,,,,P102,001,2025-02-12_14h12.17.371,posner_endo_new1,2024.2.4,59.87504079156531,2025-02-12 14h12.29.755233 +0000,
cube_r.png,0.1,0.31,valid,10,10,0,up,5.245916500003659,None,space,0.3590417000086745,None,0,10,10,10,,,,,,,,,433.70400179999706,,,,,,,,,,,,,433.68843929999275,433.70400179999706,433.70400179999706,433.70400179999706,438.96687750000274,up,5.245916500003659,None,438.9840128000069,438.99472570000216,438.99472570000216,439.03190220000397,439.03219860000536,439.04848830000265,439.04848830000265,439.04848830000265,439.13166260000435,439.4155916000018,space,0.3590417000086745,None,,,,,,,,,,,,,,,,,,,,,,,,,P102,001,2025-02-12_14h12.17.371,posner_endo_new1,2024.2.4,59.87504079156531,2025-02-12 14h12.29.755233 +0000,
,,,,,,,,,,,,,,,,,,,,,,,,,,,,,,,,,,439.4157414999936,439.4312590000045,442.4366538000031,442.4122511000023,,,,,,,,,,,,,,,,,,,,,,,,,,,,,,,,,,,,,,,,,,,,,,P102,001,2025-02-12_14h12.17.371,posner_endo_new1,2024.2.4,59.87504079156531,2025-02-12 14h12.29.755233 +0000,
cube_l.png,0.1,10,catch,0,0,0,up,10.425197099990328,None,None,,,,,,,0,0,0,0,,,,,442.4366538000031,,,,,,,,,,,,,442.42784020000545,442.4366538000031,442.4366538000031,442.4366538000031,452.8687069000007,,,,452.88038410000445,452.89079229999334,452.89079229999334,452.9344332000037,452.934800300005,452.95092699999805,452.95092699999805,452.95092699999805,453.0340567999956,455.94856900000013,,,,455.0486721000052,455.9644968000066,455.9644968000066,455.9644968000066,up,10.425197099990328,None,None,,,,,,,,,,,,,,,,,P102,001,2025-02-12_14h12.17.371,posner_endo_new1,2024.2.4,59.87504079156531,2025-02-12 14h12.29.755233 +0000,
cube_l.png,0.1,10,catch,1,1,0,up,2.329872400005115,None,None,,,,,,,0,1,1,1,,,,,455.9644968000066,,,,,,,,,,,,,455.948842400001,455.9644968000066,455.9644968000066,455.9644968000066,458.2967228000052,,,,458.30811600000015,458.31856689999404,458.31856689999404,458.3621153999993,458.3624794000061,458.3786559,458.3786559,458.3786559,458.46191830000316,461.37631279999914,,,,460.47654150000017,461.39220580000256,461.39220580000256,461.39220580000256,up,2.329872400005115,None,None,,,,,,,,,,,,,,,,,P102,001,2025-02-12_14h12.17.371,posner_endo_new1,2024.2.4,59.87504079156531,2025-02-12 14h12.29.755233 +0000,
cube_l.png,0.1,0.31,invalid,2,2,0,up,4.494284900007187,None,space,0.4163349000009475,None,,,,,0,2,2,2,,,,,461.39220580000256,,,,,,,,,,,,,461.3765953999973,461.39220580000256,461.39220580000256,461.39220580000256,465.8888564999943,,,,465.90035609999904,465.91072200000053,465.91072200000053,465.95442219999677,465.95476520000375,465.97089450000203,465.97089450000203,465.97089450000203,466.0540267000033,466.3884485000017,,,,,,,,up,4.494284900007187,None,space,0.4163349000009475,None,,,,,,,,,,,,,,,P102,001,2025-02-12_14h12.17.371,posner_endo_new1,2024.2.4,59.87504079156531,2025-02-12 14h12.29.755233 +0000,
cube_l.png,0.1,0.31,invalid,3,3,0,up,7.873950600012904,None,space,0.35165530000813305,None,,,,,0,3,3,3,,,,,466.40384139999514,,,,,,,,,,,,,466.38875470000494,466.40384139999514,466.40384139999514,466.40384139999514,474.27988289999485,,,,474.2859729000047,474.29773570000543,474.29773570000543,474.3458040999976,474.3460252999939,474.3623588000046,474.3623588000046,474.3623588000046,474.4289378999965,474.73010369999975,,,,,,,,up,7.873950600012904,None,space,0.35165530000813305,None,,,,,,,,,,,,,,,P102,001,2025-02-12_14h12.17.371,posner_endo_new1,2024.2.4,59.87504079156531,2025-02-12 14h12.29.755233 +0000,
cube_l.png,0.1,-0.31,valid,4,4,0,up,5.804777500001364,None,space,0.33001489999878686,None,,,,,0,4,4,4,,,,,474.7449188000028,,,,,,,,,,,,,474.73047720000613,474.7449188000028,474.7449188000028,474.7449188000028,480.55663439999626,,,,480.5626486999972,480.5742786000046,480.5742786000046,480.62239590000536,480.62282720000076,480.63886829999683,480.63886829999683,480.63886829999683,480.7220857000066,480.97356549999677,,,,,,,,up,5.804777500001364,None,space,0.33001489999878686,None,,,,,,,,,,,,,,,P102,001,2025-02-12_14h12.17.371,posner_endo_new1,2024.2.4,59.87504079156531,2025-02-12 14h12.29.755233 +0000,
cube_r.png,0.1,-0.31,invalid,5,5,0,up,5.113058700007969,None,space,0.41533829999389127,None,,,,,0,5,5,5,,,,,480.9885265000048,,,,,,,,,,,,,480.9739402999985,480.9885265000048,480.9885265000048,480.9885265000048,486.1180327000038,,,,486.1277612999984,486.1376148999989,486.1376148999989,486.1837452000036,486.1840555999952,486.200216199999,486.200216199999,486.200216199999,486.2835621999984,486.61759589999565,,,,,,,,up,5.113058700007969,None,space,0.41533829999389127,None,,,,,,,,,,,,,,,P102,001,2025-02-12_14h12.17.371,posner_endo_new1,2024.2.4,59.87504079156531,2025-02-12 14h12.29.755233 +0000,
cube_r.png,0.1,0.31,valid,6,6,0,up,5.2127817000000505,None,space,0.3763716999965254,None,,,,,0,6,6,6,,,,,486.63316569999733,,,,,,,,,,,,,486.61784560000524,486.63316569999733,486.63316569999733,486.63316569999733,491.8620934999926,,,,491.8715874000045,491.88186389999464,491.88186389999464,491.9279802999954,491.92828310000186,491.94443960000353,491.94443960000353,491.94443960000353,492.027634500002,492.3284743999975,,,,,,,,up,5.2127817000000505,None,space,0.3763716999965254,None,,,,,,,,,,,,,,,P102,001,2025-02-12_14h12.17.371,posner_endo_new1,2024.2.4,59.87504079156531,2025-02-12 14h12.29.755233 +0000,
cube_r.png,0.1,-0.31,invalid,7,7,0,up,4.7257403999974485,None,space,0.29620760001125745,None,,,,,0,7,7,7,,,,,492.3440130999952,,,,,,,,,,,,,492.3287297000061,492.3440130999952,492.3440130999952,492.3440130999952,497.0736318999989,,,,497.0834208000015,497.09361060000083,497.09361060000083,497.1392390999972,497.1395405999938,497.1557341000007,497.1557341000007,497.1557341000007,497.2389650999976,497.45663030000287,,,,,,,,up,4.7257403999974485,None,space,0.29620760001125745,None,,,,,,,,,,,,,,,P102,001,2025-02-12_14h12.17.371,posner_endo_new1,2024.2.4,59.87504079156531,2025-02-12 14h12.29.755233 +0000,
cube_l.png,0.1,-0.31,valid,8,8,0,up,5.1501756999932695,None,space,0.35752119999960996,None,,,,,0,8,8,8,,,,,497.4719628000021,,,,,,,,,,,,,497.4568866000045,497.4719628000021,497.4719628000021,497.4719628000021,502.6345339999971,,,,502.644283200003,502.6543646999926,502.6543646999926,502.70022870000685,502.7005327999941,502.716723000005,502.716723000005,502.716723000005,502.7999451999931,503.08407409999927,,,,,,,,up,5.1501756999932695,None,space,0.35752119999960996,None,,,,,,,,,,,,,,,P102,001,2025-02-12_14h12.17.371,posner_endo_new1,2024.2.4,59.87504079156531,2025-02-12 14h12.29.755233 +0000,
cube_r.png,0.1,-0.31,invalid,9,9,0,up,4.386008599991328,None,space,0.3583123999997042,None,,,,,0,9,9,9,,,,,503.0997115000064,,,,,,,,,,,,,503.08433080000395,503.0997115000064,503.0997115000064,503.0997115000064,507.49603739999293,,,,507.5056442000059,507.51596259999496,507.51596259999496,507.56184910000593,507.5621516999963,507.57823830000416,507.57823830000416,507.57823830000416,507.6615315999952,507.94577360000403,,,,,,,,up,4.386008599991328,None,space,0.3583123999997042,None,,,,,,,,,,,,,,,P102,001,2025-02-12_14h12.17.371,posner_endo_new1,2024.2.4,59.87504079156531,2025-02-12 14h12.29.755233 +0000,
cube_l.png,0.1,0.31,invalid,10,10,0,up,5.349064200010616,None,space,0.3155373000045074,None,,,,,0,10,10,10,,,,,507.96136649999244,,,,,,,,,,,,,507.9460274000012,507.96136649999244,507.96136649999244,507.96136649999244,513.3234494000062,,,,513.3330784999998,513.3432819000009,513.3432819000009,513.3893127000047,513.3896273999999,513.4057149,513.4057149,513.4057149,513.4889847000013,513.7233800999966,,,,,,,,up,5.349064200010616,None,space,0.3155373000045074,None,,,,,,,,,,,,,,,P102,001,2025-02-12_14h12.17.371,posner_endo_new1,2024.2.4,59.87504079156531,2025-02-12 14h12.29.755233 +0000,
cube_r.png,0.1,-0.31,invalid,11,11,0,up,5.235456800000975,None,space,0.42857899999944493,None,,,,,0,11,11,11,,,,,513.7387759999983,,,,,,,,,,,,,513.7236307999992,513.7387759999983,513.7387759999983,513.7387759999983,518.9844108999969,,,,518.9939790000062,519.0042169999942,519.0042169999942,519.0501412000012,519.0504473000037,519.0667061999993,519.0667061999993,519.0667061999993,519.1498264999973,519.5005680000031,,,,,,,,up,5.235456800000975,None,space,0.42857899999944493,None,,,,,,,,,,,,,,,P102,001,2025-02-12_14h12.17.371,posner_endo_new1,2024.2.4,59.87504079156531,2025-02-12 14h12.29.755233 +0000,
cube_r.png,0.1,0.31,valid,12,12,0,up,5.354535099992063,None,space,0.37116490000335034,None,,,,,0,12,12,12,,,,,519.516152199998,,,,,,,,,,,,,519.5008181000012,519.516152199998,519.516152199998,519.516152199998,524.8784693000052,,,,524.8881126000051,524.8983053999982,524.8983053999982,524.9441489000019,524.9444513000053,524.9606429999985,524.9606429999985,524.9606429999985,525.0438991999981,525.3445609000046,,,,,,,,up,5.354535099992063,None,space,0.37116490000335034,None,,,,,,,,,,,,,,,P102,001,2025-02-12_14h12.17.371,posner_endo_new1,2024.2.4,59.87504079156531,2025-02-12 14h12.29.755233 +0000,
cube_l.png,0.1,10,catch,13,13,0,up,5.526041900011478,None,None,,,,,,,0,13,13,13,,,,,525.3601488999993,,,,,,,,,,,,,525.3448149000033,525.3601488999993,525.3601488999993,525.3601488999993,530.8890278000035,,,,530.8986479000014,530.908823699996,530.908823699996,530.9546395999932,530.9549448000034,530.971126000004,530.971126000004,530.971126000004,531.0545836999954,533.9686713999981,,,,533.0689993999986,533.9847583999945,533.9847583999945,533.9847583999945,up,5.526041900011478,None,None,,,,,,,,,,,,,,,,,P102,001,2025-02-12_14h12.17.371,posner_endo_new1,2024.2.4,59.87504079156531,2025-02-12 14h12.29.755233 +0000,
cube_r.png,0.1,-0.31,invalid,14,14,0,up,2.3577330999978585,None,space,0.4331681999901775,None,,,,,0,14,14,14,,,,,533.9847583999945,,,,,,,,,,,,,533.9689050000015,533.9847583999945,533.9847583999945,533.9847583999945,536.3498680000048,,,,536.3595194999943,536.3696653999941,536.3696653999941,536.4155158000067,536.4158188000001,536.4322242000053,536.4322242000053,536.4322242000053,536.5154600999958,536.8664638000046,,,,,,,,up,2.3577330999978585,None,space,0.4331681999901775,None,,,,,,,,,,,,,,,P102,001,2025-02-12_14h12.17.371,posner_endo_new1,2024.2.4,59.87504079156531,2025-02-12 14h12.29.755233 +0000,
cube_l.png,0.1,-0.31,valid,15,15,0,up,5.484666999996989,None,space,0.4079490000003716,None,,,,,0,15,15,15,,,,,536.881768399995,,,,,,,,,,,,,536.8667163000064,536.881768399995,536.881768399995,536.881768399995,542.3771381999977,,,,542.3868157999968,542.3970958999998,542.3970958999998,542.4429547000036,542.4432574999955,542.4594019999931,542.4594019999931,542.4594019999931,542.5426487999939,542.8767599999992,,,,,,,,up,5.484666999996989,None,space,0.4079490000003716,None,,,,,,,,,,,,,,,P102,001,2025-02-12_14h12.17.371,posner_endo_new1,2024.2.4,59.87504079156531,2025-02-12 14h12.29.755233 +0000,
cube_r.png,0.1,10,catch,16,16,0,up,5.370012800005497,None,None,,,,,,,0,16,16,16,,,,,542.8923929000011,,,,,,,,,,,,,542.8770176999969,542.8923929000011,542.8923929000011,542.8923929000011,548.2710625000036,,,,548.2807374999975,548.2909453000029,548.2909453000029,548.3368875000015,548.337191700004,548.3533851999964,548.3533851999964,548.3533851999964,548.4365198000014,551.3510632999969,,,,550.4512327999983,551.3669216999988,551.3669216999988,551.3669216999988,up,5.370012800005497,None,None,,,,,,,,,,,,,,,,,P102,001,2025-02-12_14h12.17.371,posner_endo_new1,2024.2.4,59.87504079156531,2025-02-12 14h12.29.755233 +0000,
cube_r.png,0.1,10,catch,17,17,0,up,2.343692299997201,None,None,,,,,,,0,17,17,17,,,,,551.3669216999988,,,,,,,,,,,,,551.3513016999932,551.3669216999988,551.3669216999988,551.3669216999988,553.7157245999988,,,,553.7257296000025,553.7355876999936,553.7355876999936,553.7812841999985,553.7815909000055,553.7977339999925,553.7977339999925,553.7977339999925,553.8809839000023,556.7954328000051,,,,555.8956505999959,556.8114171000052,556.8114171000052,556.8114171000052,up,2.343692299997201,None,None,,,,,,,,,,,,,,,,,P102,001,2025-02-12_14h12.17.371,posner_endo_new1,2024.2.4,59.87504079156531,2025-02-12 14h12.29.755233 +0000,
cube_l.png,0.1,0.31,invalid,18,18,0,up,1.7871850000083214,None,space,0.4257106000004569,None,,,,,0,18,18,18,,,,,556.8114171000052,,,,,,,,,,,,,556.7956657000032,556.8114171000052,556.8114171000052,556.8114171000052,558.6105278000032,,,,558.6201620000065,558.6301609999937,558.6301609999937,558.6762644999981,558.676570399999,558.6927002000011,558.6927002000011,558.6927002000011,558.7760066000046,559.1267572999932,,,,,,,,up,1.7871850000083214,None,space,0.4257106000004569,None,,,,,,,,,,,,,,,P102,001,2025-02-12_14h12.17.371,posner_endo_new1,2024.2.4,59.87504079156531,2025-02-12 14h12.29.755233 +0000,
cube_l.png,0.1,10,catch,19,19,0,up,4.975633900001412,None,None,,,,,,,0,19,19,19,,,,,559.142288899995,,,,,,,,,,,,,559.127012500001,559.142288899995,559.142288899995,559.142288899995,564.1216443000012,,,,564.1314393999928,564.1415865000017,564.1415865000017,564.1873447999969,564.1876483999949,564.203860499998,564.203860499998,564.203860499998,564.2871541000059,567.2014151000039,,,,566.3017012000055,567.2173676999955,567.2173676999955,567.2173676999955,up,4.975633900001412,None,None,,,,,,,,,,,,,,,,,P102,001,2025-02-12_14h12.17.371,posner_endo_new1,2024.2.4,59.87504079156531,2025-02-12 14h12.29.755233 +0000,
cube_l.png,0.1,0.31,invalid,20,20,0,up,1.8608861999964574,None,space,0.40161129999614786,None,,,,,0,20,20,20,,,,,567.2173676999955,,,,,,,,,,,,,567.2016563999932,567.2173676999955,567.2173676999955,567.2173676999955,569.0832295,,,,569.0929153000034,569.1031843999954,569.1031843999954,569.1490136999928,569.1493248000043,569.1654228999978,569.1654228999978,569.1654228999978,569.2487209999963,569.5826422999962,,,,,,,,up,1.8608861999964574,None,space,0.40161129999614786,None,,,,,,,,,,,,,,,P102,001,2025-02-12_14h12.17.371,posner_endo_new1,2024.2.4,59.87504079156531,2025-02-12 14h12.29.755233 +0000,
cube_l.png,0.1,-0.31,valid,21,21,0,up,4.0555452999979025,None,space,0.38588639999215957,None,,,,,0,21,21,21,,,,,569.5983597000013,,,,,,,,,,,,,569.5828940000065,569.5983597000013,569.5983597000013,569.5983597000013,573.6618606999982,,,,573.6703187999956,573.6802666000003,573.6802666000003,573.7277324000024,573.7279699999926,573.7440526999999,573.7440526999999,573.7440526999999,573.8273986999993,574.1447110000008,,,,,,,,up,4.0555452999979025,None,space,0.38588639999215957,None,,,,,,,,,,,,,,,P102,001,2025-02-12_14h12.17.371,posner_endo_new1,2024.2.4,59.87504079156531,2025-02-12 14h12.29.755233 +0000,
cube_r.png,0.1,0.31,valid,22,22,0,up,4.589453100008541,None,space,0.3992897999996785,None,,,,,0,22,22,22,,,,,574.1602906000044,,,,,,,,,,,,,574.1448874000052,574.1602906000044,574.1602906000044,574.1602906000044,578.7565284000011,,,,578.7628564000042,578.7745922000031,578.7745922000031,578.8223096000002,578.8225325999956,578.8389779999998,578.8389779999998,578.8389779999998,578.9219229000009,579.2394356000004,,,,,,,,up,4.589453100008541,None,space,0.3992897999996785,None,,,,,,,,,,,,,,,P102,001,2025-02-12_14h12.17.371,posner_endo_new1,2024.2.4,59.87504079156531,2025-02-12 14h12.29.755233 +0000,
cube_r.png,0.1,-0.31,invalid,23,23,0,up,4.326955600001384,None,space,0.4631334000005154,None,,,,,0,23,23,23,,,,,579.2551314000011,,,,,,,,,,,,,579.2396041000029,579.2551314000011,579.2551314000011,579.2551314000011,583.5846718999965,,,,583.5906396999926,583.6022761000058,583.6022761000058,583.6505799000006,583.6508021000045,583.6671287000063,583.6671287000063,583.6671287000063,583.7337049000053,584.1342023000034,,,,,,,,up,4.326955600001384,None,space,0.4631334000005154,None,,,,,,,,,,,,,,,P102,001,2025-02-12_14h12.17.371,posner_endo_new1,2024.2.4,59.87504079156531,2025-02-12 14h12.29.755233 +0000,
cube_r.png,0.1,0.31,valid,24,24,0,up,4.455603700000211,None,space,0.3989604000089457,None,,,,,0,24,24,24,,,,,584.1499560999946,,,,,,,,,,,,,584.1343747999927,584.1499560999946,584.1499560999946,584.1499560999946,588.6127458999981,,,,588.6187266000052,588.6303784000047,588.6303784000047,588.6787566999992,588.6789800999977,588.6954000999976,588.6954000999976,588.6954000999976,588.7618928000011,589.0960143999982,,,,,,,,up,4.455603700000211,None,space,0.3989604000089457,None,,,,,,,,,,,,,,,P102,001,2025-02-12_14h12.17.371,posner_endo_new1,2024.2.4,59.87504079156531,2025-02-12 14h12.29.755233 +0000,
cube_r.png,0.1,-0.31,invalid,25,25,0,up,5.182446599996183,None,space,0.3571453000040492,None,,,,,0,25,25,25,,,,,589.1115327000007,,,,,,,,,,,,,589.0961894999928,589.1115327000007,589.1115327000007,589.1115327000007,594.3070864000038,,,,594.3132236999954,594.3250475999957,594.3250475999957,594.3730663000024,594.3732918000023,594.3894544000068,594.3894544000068,594.3894544000068,594.4728482999926,594.756423800005,,,,,,,,up,5.182446599996183,None,space,0.3571453000040492,None,,,,,,,,,,,,,,,P102,001,2025-02-12_14h12.17.371,posner_endo_new1,2024.2.4,59.87504079156531,2025-02-12 14h12.29.755233 +0000,
cube_l.png,0.1,-0.31,valid,26,26,0,up,4.585060400000657,None,space,0.43248590000439435,None,,,,,0,26,26,26,,,,,594.7727110999986,,,,,,,,,,,,,594.7565944999951,594.7727110999986,594.7727110999986,594.7727110999986,599.3685247999965,,,,599.3744896999997,599.3862901999964,599.3862901999964,599.4344811000046,599.4347045000031,599.451020499997,599.451020499997,599.451020499997,599.5177514999959,599.8846826999943,,,,,,,,up,4.585060400000657,None,space,0.43248590000439435,None,,,,,,,,,,,,,,,P102,001,2025-02-12_14h12.17.371,posner_endo_new1,2024.2.4,59.87504079156531,2025-02-12 14h12.29.755233 +0000,
cube_r.png,0.1,0.31,valid,27,27,0,up,4.296964199995273,None,space,0.37835339999583084,None,,,,,0,27,27,27,,,,,599.9006384999957,,,,,,,,,,,,,599.8848547999951,599.9006384999957,599.9006384999957,599.9006384999957,604.2136243999994,,,,604.2195769999962,604.2312469000026,604.2312469000026,604.2795611000038,604.2797923000035,604.2959719999926,604.2959719999926,604.2959719999926,604.3627319999941,604.6798945000046,,,,,,,,up,4.296964199995273,None,space,0.37835339999583084,None,,,,,,,,,,,,,,,P102,001,2025-02-12_14h12.17.371,posner_endo_new1,2024.2.4,59.87504079156531,2025-02-12 14h12.29.755233 +0000,
cube_r.png,0.1,10,catch,28,28,0,up,4.622268499995698,None,None,,,,,,,0,28,28,28,,,,,604.6958293000062,,,,,,,,,,,,,604.6800734999997,604.6958293000062,604.6958293000062,604.6958293000062,609.3249230999936,,,,609.3308842999977,609.3425065000047,609.3425065000047,609.391008599996,609.3912348000013,609.4074937999976,609.4074937999976,609.4074937999976,609.4740343000012,612.4050048999925,,,,611.488619900003,612.4211016000045,612.4211016000045,612.4211016000045,up,4.622268499995698,None,None,,,,,,,,,,,,,,,,,P102,001,2025-02-12_14h12.17.371,posner_endo_new1,2024.2.4,59.87504079156531,2025-02-12 14h12.29.755233 +0000,
cube_r.png,0.1,0.31,valid,29,29,0,up,1.6090898999973433,None,space,0.39168899999640416,None,,,,,0,29,29,29,,,,,612.4211016000045,,,,,,,,,,,,,612.4051739999995,612.4211016000045,612.4211016000045,612.4211016000045,614.037078399997,,,,614.0433307000058,614.0551741999952,614.0551741999952,614.1028049000015,614.1030410999956,614.1193872000003,614.1193872000003,614.1193872000003,614.2026916000032,614.5197935000033,,,,,,,,up,1.6090898999973433,None,space,0.39168899999640416,None,,,,,,,,,,,,,,,P102,001,2025-02-12_14h12.17.371,posner_endo_new1,2024.2.4,59.87504079156531,2025-02-12 14h12.29.755233 +0000,
cube_r.png,0.1,0.31,valid,30,30,0,up,4.830362300010165,None,space,0.37352569999347907,None,,,,,0,30,30,30,,,,,614.5355366000003,,,,,,,,,,,,,614.5199733000045,614.5355366000003,614.5355366000003,614.5355366000003,619.3813685000059,,,,619.3873805000039,619.3990493000019,619.3990493000019,619.4474041000067,619.4476252000022,619.4641063000017,619.4641063000017,619.4641063000017,619.5304654000065,619.8474765999999,,,,,,,,up,4.830362300010165,None,space,0.37352569999347907,None,,,,,,,,,,,,,,,P102,001,2025-02-12_14h12.17.371,posner_endo_new1,2024.2.4,59.87504079156531,2025-02-12 14h12.29.755233 +0000,
cube_l.png,0.1,-0.31,valid,31,31,0,up,4.9501841999881435,None,space,0.35162729999865405,None,,,,,0,31,31,31,,,,,619.8635388999974,,,,,,,,,,,,,619.8476538999967,619.8635388999974,619.8635388999974,619.8635388999974,624.8256617000006,,,,624.8315881000017,624.843277699998,624.843277699998,624.8918339999946,624.8920581999992,624.9084046999924,624.9084046999924,624.9084046999924,624.9750261000008,625.2752474000008,,,,,,,,up,4.9501841999881435,None,space,0.35162729999865405,None,,,,,,,,,,,,,,,P102,001,2025-02-12_14h12.17.371,posner_endo_new1,2024.2.4,59.87504079156531,2025-02-12 14h12.29.755233 +0000,
cube_r.png,0.1,0.31,valid,32,32,0,up,4.643194100004621,None,space,0.43154339998727664,None,,,,,0,32,32,32,,,,,625.2912574999937,,,,,,,,,,,,,625.2754193000001,625.2912574999937,625.2912574999937,625.2912574999937,629.9372481000028,,,,629.9431668000034,629.9548798000033,629.9548798000033,630.0032483999967,630.0034689000022,630.0198118999979,630.0198118999979,630.0198118999979,630.0863757000043,630.4534302999964,,,,,,,,up,4.643194100004621,None,space,0.43154339998727664,None,,,,,,,,,,,,,,,P102,001,2025-02-12_14h12.17.371,posner_endo_new1,2024.2.4,59.87504079156531,2025-02-12 14h12.29.755233 +0000,
cube_r.png,0.1,-0.31,invalid,33,33,0,up,4.744283100008033,None,space,0.41706570000678767,None,,,,,0,33,33,33,,,,,630.4693829000025,,,,,,,,,,,,,630.4536094000068,630.4693829000025,630.4693829000025,630.4693829000025,635.2154175000032,,,,635.2214247999946,635.2327958999958,635.2327958999958,635.2808718000015,635.2813200999954,635.2973598999961,635.2973598999961,635.2973598999961,635.380565200001,635.7316655000031,,,,,,,,up,4.744283100008033,None,space,0.41706570000678767,None,,,,,,,,,,,,,,,P102,001,2025-02-12_14h12.17.371,posner_endo_new1,2024.2.4,59.87504079156531,2025-02-12 14h12.29.755233 +0000,
cube_r.png,0.1,10,catch,34,34,0,up,4.899119199995766,None,space,0.318222899993998,None,,,,,0,34,34,34,,,,,635.7472405000008,,,,,,,,,,,,,635.7319220999925,635.7472405000008,635.7472405000008,635.7472405000008,640.6599053999962,,,,640.6698153000034,640.6800400999928,640.6800400999928,640.725777700005,640.7260937999963,640.7421030999976,640.7421030999976,640.7421030999976,640.8253546000051,641.0763827000046,,,,,,,,up,4.899119199995766,None,space,0.318222899993998,None,,,,,,,,,,,,,,,P102,001,2025-02-12_14h12.17.371,posner_endo_new1,2024.2.4,59.87504079156531,2025-02-12 14h12.29.755233 +0000,
cube_r.png,0.1,0.31,valid,35,35,0,up,4.009933099994669,None,space,0.4590870999963954,None,,,,,0,35,35,35,,,,,641.0918915999937,,,,,,,,,,,,,641.0766411999939,641.0918915999937,641.0918915999937,641.0918915999937,645.1055086999986,,,,645.1151320000063,645.125329500006,645.125329500006,645.1712188999954,645.1715224999934,645.1877606000053,645.1877606000053,645.1877606000053,645.2708669999993,645.654942299996,,,,,,,,up,4.009933099994669,None,space,0.4590870999963954,None,,,,,,,,,,,,,,,P102,001,2025-02-12_14h12.17.371,posner_endo_new1,2024.2.4,59.87504079156531,2025-02-12 14h12.29.755233 +0000,
cube_r.png,0.1,-0.31,invalid,36,36,0,up,4.663139999989653,None,space,0.44918690000486095,None,,,,,0,36,36,36,,,,,645.6704572000017,,,,,,,,,,,,,645.6552010000014,645.6704572000017,645.6704572000017,645.6704572000017,650.3501968000055,,,,650.3601645000017,650.3702653999935,650.3702653999935,650.4157952999958,650.4161109999986,650.4321984999988,650.4321984999988,650.4321984999988,650.515430600004,650.8830877,,,,,,,,up,4.663139999989653,None,space,0.44918690000486095,None,,,,,,,,,,,,,,,P102,001,2025-02-12_14h12.17.371,posner_endo_new1,2024.2.4,59.87504079156531,2025-02-12 14h12.29.755233 +0000,
cube_l.png,0.1,0.31,invalid,37,37,0,up,4.356067799992161,None,space,0.568759300003876,None,,,,,0,37,37,37,,,,,650.8983727000013,,,,,,,,,,,,,650.8833589999995,650.8983727000013,650.8983727000013,650.8983727000013,655.261559999999,,,,655.2700999999943,655.2801720999996,655.2801720999996,655.3273721000005,655.3276097000053,655.3438495000009,655.3438495000009,655.3438495000009,655.4272721000016,655.9272876000032,,,,,,,,up,4.356067799992161,None,space,0.568759300003876,None,,,,,,,,,,,,,,,P102,001,2025-02-12_14h12.17.371,posner_endo_new1,2024.2.4,59.87504079156531,2025-02-12 14h12.29.755233 +0000,
cube_l.png,0.1,0.31,invalid,38,38,0,up,4.591016699996544,None,space,0.4858056000084616,None,,,,,0,38,38,38,,,,,655.943131699998,,,,,,,,,,,,,655.927466299996,655.943131699998,655.943131699998,655.943131699998,660.5393467999966,,,,660.5458313999989,660.5576123000064,660.5576123000064,660.605518700002,660.6057404000021,660.6217181999964,660.6217181999964,660.6217181999964,660.688415800003,661.1219221999927,,,,,,,,up,4.591016699996544,None,space,0.4858056000084616,None,,,,,,,,,,,,,,,P102,001,2025-02-12_14h12.17.371,posner_endo_new1,2024.2.4,59.87504079156531,2025-02-12 14h12.29.755233 +0000,
cube_r.png,0.1,0.31,valid,39,39,0,up,4.907861300001969,None,space,0.3899172999954317,None,,,,,0,39,39,39,,,,,661.1379469999956,,,,,,,,,,,,,661.1220928999974,661.1379469999956,661.1379469999956,661.1379469999956,666.0513544999994,,,,666.0686445000028,666.0796255000023,666.0796255000023,666.1162448999967,666.1167525000055,666.1326501000003,666.1326501000003,666.1326501000003,666.2158640999987,666.5341056000034,,,,,,,,up,4.907861300001969,None,space,0.3899172999954317,None,,,,,,,,,,,,,,,P102,001,2025-02-12_14h12.17.371,posner_endo_new1,2024.2.4,59.87504079156531,2025-02-12 14h12.29.755233 +0000,
cube_l.png,0.1,0.31,invalid,40,40,0,up,4.5534782000031555,None,space,0.4257089999882737,None,,,,,0,40,40,40,,,,,666.548884200005,,,,,,,,,,,,,666.5345516999951,666.548884200005,666.548884200005,666.548884200005,671.1121776999935,,,,671.1237660000043,671.134277899997,671.134277899997,671.1778322000027,671.1781772999966,671.1944439999934,671.1944439999934,671.1944439999934,671.2775972999953,671.6285720000014,,,,,,,,up,4.5534782000031555,None,space,0.4257089999882737,None,,,,,,,,,,,,,,,P102,001,2025-02-12_14h12.17.371,posner_endo_new1,2024.2.4,59.87504079156531,2025-02-12 14h12.29.755233 +0000,
cube_l.png,0.1,10,catch,41,41,0,up,4.290091000002576,None,None,,,,,,,0,41,41,41,,,,,671.6441530000011,,,,,,,,,,,,,671.6288630000054,671.6441530000011,671.6441530000011,671.6441530000011,675.9407223000017,,,,675.9522721999965,675.9626493999967,675.9626493999967,676.006177999996,676.0065216999938,676.0226991999953,676.0226991999953,676.0226991999953,676.1059661000036,679.0203443000064,,,,678.1205235999951,679.0363044999976,679.0363044999976,679.0363044999976,up,4.290091000002576,None,None,,,,,,,,,,,,,,,,,P102,001,2025-02-12_14h12.17.371,posner_endo_new1,2024.2.4,59.87504079156531,2025-02-12 14h12.29.755233 +0000,
cube_l.png,0.1,-0.31,valid,42,42,0,up,2.186119799996959,None,space,0.4229353999980958,None,,,,,0,42,42,42,,,,,679.0363044999976,,,,,,,,,,,,,679.0206206000003,679.0363044999976,679.0363044999976,679.0363044999976,681.2352105000027,,,,681.2466807000019,681.2569523999991,681.2569523999991,681.3007383999939,681.3010802999925,681.3172526999988,681.3172526999988,681.3172526999988,681.4005133000028,681.7514929000026,,,,,,,,up,2.186119799996959,None,space,0.4229353999980958,None,,,,,,,,,,,,,,,P102,001,2025-02-12_14h12.17.371,posner_endo_new1,2024.2.4,59.87504079156531,2025-02-12 14h12.29.755233 +0000,
cube_l.png,0.1,10,catch,43,43,0,up,4.623349600005895,None,None,,,,,,,0,43,43,43,,,,,681.7667953000055,,,,,,,,,,,,,681.7517862999957,681.7667953000055,681.7667953000055,681.7667953000055,686.3966064999986,,,,686.4082001000061,686.4185385000019,686.4185385000019,686.462096999996,686.4623476999986,686.4785698000051,686.4785698000051,686.4785698000051,686.5619168999983,689.4763543000008,,,,688.5765531999932,689.4922381999932,689.4922381999932,689.4922381999932,up,4.623349600005895,None,None,,,,,,,,,,,,,,,,,P102,001,2025-02-12_14h12.17.371,posner_endo_new1,2024.2.4,59.87504079156531,2025-02-12 14h12.29.755233 +0000,
cube_l.png,0.1,0.31,invalid,44,44,0,up,1.6261241000029258,None,space,0.43518430000403896,None,,,,,0,44,44,44,,,,,689.4922381999932,,,,,,,,,,,,,689.4766214999981,689.4922381999932,689.4922381999932,689.4922381999932,691.1251102999959,,,,691.1367584999971,691.1473517999984,691.1473517999984,691.1908382999973,691.1911817999935,691.2069621999981,691.2069621999981,691.2069621999981,691.2905795999977,691.6579791999975,,,,,,,,up,1.6261241000029258,None,space,0.43518430000403896,None,,,,,,,,,,,,,,,P102,001,2025-02-12_14h12.17.371,posner_endo_new1,2024.2.4,59.87504079156531,2025-02-12 14h12.29.755233 +0000,
cube_l.png,0.1,0.31,invalid,45,45,0,up,4.420836000004783,None,space,0.4355580999981612,None,,,,,0,45,45,45,,,,,691.6733042999986,,,,,,,,,,,,,691.6582944999973,691.6733042999986,691.6733042999986,691.6733042999986,696.1029748000001,,,,696.1093859999964,696.1211405999929,696.1211405999929,696.1684833000036,696.1688733000046,696.1849383999943,696.1849383999943,696.1849383999943,696.2684772999928,696.6365048000007,,,,,,,,up,4.420836000004783,None,space,0.4355580999981612,None,,,,,,,,,,,,,,,P102,001,2025-02-12_14h12.17.371,posner_endo_new1,2024.2.4,59.87504079156531,2025-02-12 14h12.29.755233 +0000,
cube_r.png,0.1,0.31,valid,46,46,0,up,4.811090699993656,None,space,0.4276382000098238,None,,,,,0,46,46,46,,,,,696.6514075000014,,,,,,,,,,,,,696.6369271000003,696.6514075000014,696.6514075000014,696.6514075000014,701.4646072000032,,,,701.4761550999974,701.4865048999927,701.4865048999927,701.5300743999978,701.5304264000006,701.5465459999978,701.5465459999978,701.5465459999978,701.6299070999958,701.9805901999935,,,,,,,,up,4.811090699993656,None,space,0.4276382000098238,None,,,,,,,,,,,,,,,P102,001,2025-02-12_14h12.17.371,posner_endo_new1,2024.2.4,59.87504079156531,2025-02-12 14h12.29.755233 +0000,
cube_l.png,0.1,-0.31,valid,47,47,0,up,5.001789699992514,None,space,0.3536636000062572,None,,,,,0,47,47,47,,,,,701.9961467999965,,,,,,,,,,,,,701.980876600006,701.9961467999965,701.9961467999965,701.9961467999965,707.0087330999959,,,,707.0201791,707.0305447999999,707.0305447999999,707.0744893999945,707.0748364000028,707.0910558000032,707.0910558000032,707.0910558000032,707.1742578999983,707.4584316999972,,,,,,,,up,5.001789699992514,None,space,0.3536636000062572,None,,,,,,,,,,,,,,,P102,001,2025-02-12_14h12.17.371,posner_endo_new1,2024.2.4,59.87504079156531,2025-02-12 14h12.29.755233 +0000,
cube_r.png,0.1,-0.31,invalid,48,48,0,up,4.588928899989696,None,space,0.41822410000895616,None,,,,,0,48,48,48,,,,,707.4738726000069,,,,,,,,,,,,,707.4587249000033,707.4738726000069,707.4738726000069,707.4738726000069,712.0702519000042,,,,712.0816939999931,712.092055000001,712.092055000001,712.1360513999971,712.1363933999965,712.1524222000007,712.1524222000007,712.1524222000007,712.2355788999994,712.5866000999958,,,,,,,,up,4.588928899989696,None,space,0.41822410000895616,None,,,,,,,,,,,,,,,P102,001,2025-02-12_14h12.17.371,posner_endo_new1,2024.2.4,59.87504079156531,2025-02-12 14h12.29.755233 +0000,
cube_r.png,0.1,10,catch,49,49,0,up,4.7159400999953505,None,None,,,,,,,0,49,49,49,,,,,712.6020325999998,,,,,,,,,,,,,712.5868858000031,712.6020325999998,712.6020325999998,712.6020325999998,717.3316126999998,,,,717.3412301999924,717.3508803000004,717.3508803000004,717.3971996000037,717.397455600003,717.4135345999966,717.4135345999966,717.4135345999966,717.4968547000026,720.411153699999,,,,719.5115783999936,720.4272594999929,720.4272594999929,720.4272594999929,up,4.7159400999953505,None,None,,,,,,,,,,,,,,,,,P102,001,2025-02-12_14h12.17.371,posner_endo_new1,2024.2.4,59.87504079156531,2025-02-12 14h12.29.755233 +0000,
cube_l.png,0.1,-0.31,valid,50,50,0,up,1.5788998999923933,None,space,0.41977339998993557,None,,,,,0,50,50,50,,,,,720.4272594999929,,,,,,,,,,,,,720.4113274999982,720.4272594999929,720.4272594999929,720.4272594999929,722.0098832999938,,,,722.0167671999952,722.0285712000041,722.0285712000041,722.0757563999941,722.0759913999937,722.0922851999931,722.0922851999931,722.0922851999931,722.175479700003,722.5258921000059,,,,,,,,up,1.5788998999923933,None,space,0.41977339998993557,None,,,,,,,,,,,,,,,P102,001,2025-02-12_14h12.17.371,posner_endo_new1,2024.2.4,59.87504079156531,2025-02-12 14h12.29.755233 +0000,
cube_l.png,0.1,-0.31,valid,51,51,0,up,4.496616299991729,None,space,0.3688624000060372,None,,,,,0,51,51,51,,,,,722.5417330000055,,,,,,,,,,,,,722.5260757999931,722.5417330000055,722.5417330000055,722.5417330000055,727.0556204000022,,,,727.0741426000022,727.0850034000032,727.0850034000032,727.1207236000046,727.121026199995,727.1371719000017,727.1371719000017,727.1371719000017,727.2204639999982,727.5210565000016,,,,,,,,up,4.496616299991729,None,space,0.3688624000060372,None,,,,,,,,,,,,,,,P102,001,2025-02-12_14h12.17.371,posner_endo_new1,2024.2.4,59.87504079156531,2025-02-12 14h12.29.755233 +0000,
cube_r.png,0.1,-0.31,invalid,52,52,0,up,5.173008100013249,None,space,0.4265777000109665,None,,,,,0,52,52,52,,,,,727.5368368000054,,,,,,,,,,,,,727.5213044999982,727.5368368000054,727.5368368000054,727.5368368000054,732.7167355999991,,,,732.7352550000069,732.7467588,732.7467588,732.7815105000045,732.7820565000002,732.797916800002,732.797916800002,732.797916800002,732.8812050999986,733.2327607000043,,,,,,,,up,5.173008100013249,None,space,0.4265777000109665,None,,,,,,,,,,,,,,,P102,001,2025-02-12_14h12.17.371,posner_endo_new1,2024.2.4,59.87504079156531,2025-02-12 14h12.29.755233 +0000,
cube_l.png,0.1,-0.31,valid,53,53,0,up,5.134306699997978,None,space,0.4700320000119973,None,,,,,0,53,53,53,,,,,733.2474427999987,,,,,,,,,,,,,733.2332262999989,733.2474427999987,733.2474427999987,733.2474427999987,738.3940314999927,,,,738.4126679000037,738.4240680999937,738.4240680999937,738.4592570999957,738.459809699998,738.4754127000051,738.4754127000051,738.4754127000051,738.5586335999978,738.960110999993,,,,,,,,up,5.134306699997978,None,space,0.4700320000119973,None,,,,,,,,,,,,,,,P102,001,2025-02-12_14h12.17.371,posner_endo_new1,2024.2.4,59.87504079156531,2025-02-12 14h12.29.755233 +0000,
cube_r.png,0.1,10,catch,54,54,0,up,5.030844100008835,None,None,,,,,,,0,54,54,54,,,,,738.9748719000054,,,,,,,,,,,,,738.9605815999967,738.9748719000054,738.9748719000054,738.9748719000054,744.0216176999966,,,,744.039260000005,744.049560200001,744.049560200001,744.0865983999975,744.0869415000052,744.1031873000029,744.1031873000029,744.1031873000029,744.1863544999942,747.1010677000013,,,,746.2008276999986,747.1165536000044,747.1165536000044,747.1165536000044,up,5.030844100008835,None,None,,,,,,,,,,,,,,,,,P102,001,2025-02-12_14h12.17.371,posner_endo_new1,2024.2.4,59.87504079156531,2025-02-12 14h12.29.755233 +0000,
cube_l.png,0.1,0.31,invalid,55,55,0,up,2.4730841999989934,None,space,0.4698080999951344,None,,,,,0,55,55,55,,,,,747.1165536000044,,,,,,,,,,,,,747.1014981000044,747.1165536000044,747.1165536000044,747.1165536000044,749.5986410000041,,,,749.6101299000002,749.6204806000023,749.6204806000023,749.6642641999933,749.6646226000012,749.6805219999951,749.6805219999951,749.6805219999951,749.7639926999982,750.1645632,,,,,,,,up,2.4730841999989934,None,space,0.4698080999951344,None,,,,,,,,,,,,,,,P102,001,2025-02-12_14h12.17.371,posner_endo_new1,2024.2.4,59.87504079156531,2025-02-12 14h12.29.755233 +0000,
cube_l.png,0.1,-0.31,valid,56,56,0,up,4.329958100002841,None,space,0.41894350000075065,None,,,,,0,56,56,56,,,,,750.1802201999963,,,,,,,,,,,,,750.1648505000048,750.1802201999963,750.1802201999963,750.1802201999963,754.5269066000037,,,,754.5384223000001,754.548332499995,754.548332499995,754.5925046000048,754.5928505000047,754.609023099998,754.609023099998,754.609023099998,754.6921890999947,755.0430919000064,,,,,,,,up,4.329958100002841,None,space,0.41894350000075065,None,,,,,,,,,,,,,,,P102,001,2025-02-12_14h12.17.371,posner_endo_new1,2024.2.4,59.87504079156531,2025-02-12 14h12.29.755233 +0000,
cube_r.png,0.1,0.31,valid,57,57,0,up,4.620146500004921,None,space,0.4419614999933401,None,,,,,0,57,57,57,,,,,755.0585219000059,,,,,,,,,,,,,755.0433765000053,755.0585219000059,755.0585219000059,755.0585219000059,759.6883793000015,,,,759.6998216999928,759.7102283999993,759.7102283999993,759.7539638000017,759.7543076000002,759.770439999993,759.770439999993,759.770439999993,759.8537228000059,760.2211145000038,,,,,,,,up,4.620146500004921,None,space,0.4419614999933401,None,,,,,,,,,,,,,,,P102,001,2025-02-12_14h12.17.371,posner_endo_new1,2024.2.4,59.87504079156531,2025-02-12 14h12.29.755233 +0000,
cube_r.png,0.1,-0.31,invalid,58,58,0,up,4.873876800003927,None,space,0.40708199999062344,None,,,,,0,58,58,58,,,,,760.2366409999959,,,,,,,,,,,,,760.2214069000038,760.2366409999959,760.2366409999959,760.2366409999959,765.1162266000028,,,,765.1276925999991,765.1380447999982,765.1380447999982,765.1816645999934,765.1820084000065,765.1981144000019,765.1981144000019,765.1981144000019,765.2814608000044,765.6156703000015,,,,,,,,up,4.873876800003927,None,space,0.40708199999062344,None,,,,,,,,,,,,,,,P102,001,2025-02-12_14h12.17.371,posner_endo_new1,2024.2.4,59.87504079156531,2025-02-12 14h12.29.755233 +0000,
cube_l.png,0.1,0.31,invalid,59,59,0,up,4.9116656000114745,None,space,0.4103335999971023,None,,,,,0,59,59,59,,,,,765.6308820999984,,,,,,,,,,,,,765.6159571000026,765.6308820999984,765.6308820999984,765.6308820999984,770.5440348999982,,,,770.5554700000066,770.5658089000062,770.5658089000062,770.6094954,770.6098414000007,770.6259352000052,770.6259352000052,770.6259352000052,770.7092244999949,771.0431725999952,,,,,,,,up,4.9116656000114745,None,space,0.4103335999971023,None,,,,,,,,,,,,,,,P102,001,2025-02-12_14h12.17.371,posner_endo_new1,2024.2.4,59.87504079156531,2025-02-12 14h12.29.755233 +0000,
,,,,,,,,,,,,,,,,,,,,,,,,,,,,,,,,,,,,,,,,,,,,,,,,,,,,,,,,,,,,,,,,,,,,,771.0433761000022,771.0588756999932,771.0588756999932,831.0640844000009,852.343550000005,space,81.27514939999674,None,,,,,,,P102,001,2025-02-12_14h12.17.371,posner_endo_new1,2024.2.4,59.87504079156531,2025-02-12 14h12.29.755233 +0000,
,,,,,,,,,,,,,,,,,,,,,,,,,,,,,,,,,,852.3436386999965,852.3589608000038,855.3713996000006,855.3399747999938,,,,,,,,,,,,,,,,,,,,,,,,,,,,,,,,,,,,,,,,,,,,,,P102,001,2025-02-12_14h12.17.371,posner_endo_new1,2024.2.4,59.87504079156531,2025-02-12 14h12.29.755233 +0000,
cube_l.png,0.1,10,catch,0,0,0,down,9.940061000001151,None,None,,,,,,,,,,,0,0,0,0,855.3713996000006,,,,,,,,,,,,,855.3619898000034,855.3713996000006,855.3713996000006,855.3713996000006,865.3137944000046,,,,865.3256434000068,865.3359976999927,865.3359976999927,865.3790496000001,865.379299399996,865.3956018000026,865.3956018000026,865.3956018000026,865.4789410999947,868.3931804000022,,,,867.4935438999964,868.4091929999995,868.4091929999995,868.4091929999995,,,,,,,,,,,,,,,down,9.940061000001151,None,None,,,P102,001,2025-02-12_14h12.17.371,posner_endo_new1,2024.2.4,59.87504079156531,2025-02-12 14h12.29.755233 +0000,
cube_l.png,0.1,10,catch,1,1,0,down,0.8768228999979328,None,None,,,,,,,,,,,0,1,1,1,868.4091929999995,,,,,,,,,,,,,868.3933725999959,868.4091929999995,868.4091929999995,868.4091929999995,869.2925418999948,,,,869.3000714999944,869.3112588999938,869.3112588999938,869.3582861000032,869.3585557000042,869.3748831999983,869.3748831999983,869.3748831999983,869.4414623000048,872.3723921000055,,,,871.4560079999937,872.3883143999992,872.3883143999992,872.3883143999992,,,,,,,,,,,,,,,down,0.8768228999979328,None,None,,,P102,001,2025-02-12_14h12.17.371,posner_endo_new1,2024.2.4,59.87504079156531,2025-02-12 14h12.29.755233 +0000,
cube_l.png,0.1,0.31,invalid,2,2,0,down,1.7137193999951705,None,space,0.6052123999979813,None,,,,,,,,,0,2,2,2,872.3883143999992,,,,,,,,,,,,,872.3725861999992,872.3883143999992,872.3883143999992,872.3883143999992,874.1052688000054,,,,874.1222804999998,874.1334544999991,874.1334544999991,874.1701036000013,874.1706152999977,874.1865020999976,874.1865020999976,874.1865020999976,874.269773699998,874.8042630999989,,,,,,,,,,,,,,,,,,,,,,down,1.7137193999951705,None,space,0.6052123999979813,None,P102,001,2025-02-12_14h12.17.371,posner_endo_new1,2024.2.4,59.87504079156531,2025-02-12 14h12.29.755233 +0000,
cube_l.png,0.1,0.31,invalid,3,3,0,down,2.7227806000009878,None,space,0.417495699992287,None,,,,,,,,,0,3,3,3,874.8192228999978,,,,,,,,,,,,,874.804707000003,874.8192228999978,874.8192228999978,874.8192228999978,877.5510254999972,,,,877.5624552999943,877.5728066000011,877.5728066000011,877.6167761999968,877.6171262999997,877.6332185000065,877.6332185000065,877.6332185000065,877.7164465999958,878.0672561999963,,,,,,,,,,,,,,,,,,,,,,down,2.7227806000009878,None,space,0.417495699992287,None,P102,001,2025-02-12_14h12.17.371,posner_endo_new1,2024.2.4,59.87504079156531,2025-02-12 14h12.29.755233 +0000,
cube_l.png,0.1,-0.31,valid,4,4,0,down,4.571676000006846,None,space,0.397611100008362,None,,,,,,,,,0,4,4,4,878.0827914999973,,,,,,,,,,,,,878.067549600004,878.0827914999973,878.0827914999973,878.0827914999973,882.6623665999941,,,,882.6715172999975,882.6812026999978,882.6812026999978,882.7280364000035,882.728274699999,882.7445522000053,882.7445522000053,882.7445522000053,882.827730399993,883.1452281999955,,,,,,,,,,,,,,,,,,,,,,down,4.571676000006846,None,space,0.397611100008362,None,P102,001,2025-02-12_14h12.17.371,posner_endo_new1,2024.2.4,59.87504079156531,2025-02-12 14h12.29.755233 +0000,
cube_r.png,0.1,-0.31,invalid,5,5,0,down,3.6369264999957522,None,space,0.4021486999990884,None,,,,,,,,,0,5,5,5,883.1607321000047,,,,,,,,,,,,,883.1454170999932,883.1607321000047,883.1607321000047,883.1607321000047,886.807919800005,,,,886.8148121999984,886.8266129999975,886.8266129999975,886.8737198000017,886.8739554000058,886.8904427999951,886.8904427999951,886.8904427999951,886.9570659000019,887.3074110000016,,,,,,,,,,,,,,,,,,,,,,down,3.6369264999957522,None,space,0.4021486999990884,None,P102,001,2025-02-12_14h12.17.371,posner_endo_new1,2024.2.4,59.87504079156531,2025-02-12 14h12.29.755233 +0000,
cube_r.png,0.1,0.31,valid,6,6,0,down,4.419055099991965,None,space,0.37585320000653155,None,,,,,,,,,0,6,6,6,887.3233422000048,,,,,,,,,,,,,887.3076000000001,887.3233422000048,887.3233422000048,887.3233422000048,891.7537322999997,,,,891.7706164999981,891.7815953999961,891.7815953999961,891.8189169999969,891.8192634000006,891.8352547999966,891.8352547999966,891.8352547999966,891.9185001000005,892.2198625000019,,,,,,,,,,,,,,,,,,,,,,down,4.419055099991965,None,space,0.37585320000653155,None,P102,001,2025-02-12_14h12.17.371,posner_endo_new1,2024.2.4,59.87504079156531,2025-02-12 14h12.29.755233 +0000,
cube_r.png,0.1,-0.31,invalid,7,7,0,down,2.94719669999904,None,space,0.5315578000008827,None,,,,,,,,,0,7,7,7,892.2347037,,,,,,,,,,,,,892.2203256000066,892.2347037,892.2347037,892.2347037,895.1832512999972,,,,895.1946475000004,895.2049816999934,895.2049816999934,895.2486979999958,895.2490464000002,895.2650772000052,895.2650772000052,895.2650772000052,895.3484236999939,895.7990600000048,,,,,,,,,,,,,,,,,,,,,,down,2.94719669999904,None,space,0.5315578000008827,None,P102,001,2025-02-12_14h12.17.371,posner_endo_new1,2024.2.4,59.87504079156531,2025-02-12 14h12.29.755233 +0000,
cube_l.png,0.1,-0.31,valid,8,8,0,down,4.431639400005224,None,space,0.39905540000472683,None,,,,,,,,,0,8,8,8,895.8146333000041,,,,,,,,,,,,,895.7993518000003,895.8146333000041,895.8146333000041,895.8146333000041,900.261041699996,,,,900.2685135000065,900.2794833999942,900.2794833999942,900.3267213999934,900.3272356999951,900.3430991000059,900.3430991000059,900.3430991000059,900.426355699994,900.7447068000038,,,,,,,,,,,,,,,,,,,,,,down,4.431639400005224,None,space,0.39905540000472683,None,P102,001,2025-02-12_14h12.17.371,posner_endo_new1,2024.2.4,59.87504079156531,2025-02-12 14h12.29.755233 +0000,
cube_r.png,0.1,-0.31,invalid,9,9,0,down,3.142997800008743,None,space,0.42639469999994617,None,,,,,,,,,0,9,9,9,900.7593938999926,,,,,,,,,,,,,900.7451658999926,900.7593938999926,900.7593938999926,900.7593938999926,903.9076150000037,,,,903.9189830999967,903.929326700003,903.929326700003,903.9731022000051,903.9734523999941,903.989785800004,903.989785800004,903.989785800004,904.0728739000042,904.4236372000014,,,,,,,,,,,,,,,,,,,,,,down,3.142997800008743,None,space,0.42639469999994617,None,P102,001,2025-02-12_14h12.17.371,posner_endo_new1,2024.2.4,59.87504079156531,2025-02-12 14h12.29.755233 +0000,
cube_l.png,0.1,0.31,invalid,10,10,0,down,3.879386999993585,None,space,0.44830540000111796,None,,,,,,,,,0,10,10,10,904.4389244000049,,,,,,,,,,,,,904.4239325999952,904.4389244000049,904.4389244000049,904.4389244000049,908.3198165000067,,,,908.3313055000035,908.3417158999946,908.3417158999946,908.3851181999926,908.3854641999933,908.401724299998,908.401724299998,908.401724299998,908.4850318999961,908.8524305000028,,,,,,,,,,,,,,,,,,,,,,down,3.879386999993585,None,space,0.44830540000111796,None,P102,001,2025-02-12_14h12.17.371,posner_endo_new1,2024.2.4,59.87504079156531,2025-02-12 14h12.29.755233 +0000,
cube_r.png,0.1,-0.31,invalid,11,11,0,down,4.178434599991306,None,space,0.3860002000001259,None,,,,,,,,,0,11,11,11,908.8679163000052,,,,,,,,,,,,,908.8527213000052,908.8679163000052,908.8679163000052,908.8679163000052,913.0483266999945,,,,913.0597514999972,913.0699854999984,913.0699854999984,913.1137361000001,913.1140809999924,913.1301011000032,913.1301011000032,913.1301011000032,913.2134686999925,913.5310125999968,,,,,,,,,,,,,,,,,,,,,,down,4.178434599991306,None,space,0.3860002000001259,None,P102,001,2025-02-12_14h12.17.371,posner_endo_new1,2024.2.4,59.87504079156531,2025-02-12 14h12.29.755233 +0000,
cube_r.png,0.1,0.31,valid,12,12,0,down,3.8356678999989526,None,space,0.38633690000278875,None,,,,,,,,,0,12,12,12,913.5464617999969,,,,,,,,,,,,,913.5313047999953,913.5464617999969,913.5464617999969,913.5464617999969,917.3936721999926,,,,917.405150999999,917.4155277999962,917.4155277999962,917.4593010999961,917.4596490999975,917.4756286000047,917.4756286000047,917.4756286000047,917.5590148000047,917.8765164999932,,,,,,,,,,,,,,,,,,,,,,down,3.8356678999989526,None,space,0.38633690000278875,None,P102,001,2025-02-12_14h12.17.371,posner_endo_new1,2024.2.4,59.87504079156531,2025-02-12 14h12.29.755233 +0000,
cube_l.png,0.1,10,catch,13,13,0,down,3.690386900008889,None,None,,,,,,,,,,,0,13,13,13,917.8920389999985,,,,,,,,,,,,,917.876814400006,917.8920389999985,917.8920389999985,917.8920389999985,921.5894563000038,,,,921.6009538999933,921.6113536000048,921.6113536000048,921.6550413999939,921.6553892999946,921.6714546000003,921.6714546000003,921.6714546000003,921.7547259999992,924.6691282999964,,,,923.7693486999924,924.6850886000029,924.6850886000029,924.6850886000029,,,,,,,,,,,,,,,down,3.690386900008889,None,None,,,P102,001,2025-02-12_14h12.17.371,posner_endo_new1,2024.2.4,59.87504079156531,2025-02-12 14h12.29.755233 +0000,
cube_r.png,0.1,-0.31,invalid,14,14,0,down,1.1211347999924328,None,space,0.49142799999390263,None,,,,,,,,,0,14,14,14,924.6850886000029,,,,,,,,,,,,,924.6694036999979,924.6850886000029,924.6850886000029,924.6850886000029,925.8183858999982,,,,925.8298669000069,925.8403324999963,925.8403324999963,925.8839769000042,925.8843280000001,925.9004563000053,925.9004563000053,925.9004563000053,925.9837087000051,926.4012973999925,,,,,,,,,,,,,,,,,,,,,,down,1.1211347999924328,None,space,0.49142799999390263,None,P102,001,2025-02-12_14h12.17.371,posner_endo_new1,2024.2.4,59.87504079156531,2025-02-12 14h12.29.755233 +0000,
cube_l.png,0.1,-0.31,valid,15,15,0,down,3.7974171999958344,None,space,0.36920099999406375,None,,,,,,,,,0,15,15,15,926.4165958999947,,,,,,,,,,,,,926.4015880999941,926.4165958999947,926.4165958999947,926.4165958999947,930.2305830999976,,,,930.242012799994,930.2520330999978,930.2520330999978,930.296187999993,930.2965324999968,930.3125786000019,930.3125786000019,930.3125786000019,930.3958464000025,930.6968111000024,,,,,,,,,,,,,,,,,,,,,,down,3.7974171999958344,None,space,0.36920099999406375,None,P102,001,2025-02-12_14h12.17.371,posner_endo_new1,2024.2.4,59.87504079156531,2025-02-12 14h12.29.755233 +0000,
cube_r.png,0.1,10,catch,16,16,0,down,4.526061799988383,None,None,,,,,,,,,,,0,16,16,16,930.7122518999968,,,,,,,,,,,,,930.6971020000055,930.7122518999968,930.7122518999968,930.7122518999968,935.2420309000008,,,,935.2535090000019,935.263839399995,935.263839399995,935.3077803000051,935.3081317000033,935.3240229999938,935.3240229999938,935.3240229999938,935.4074072999938,938.3218663000007,,,,937.4219540000049,938.3378938999958,938.3378938999958,938.3378938999958,,,,,,,,,,,,,,,down,4.526061799988383,None,None,,,P102,001,2025-02-12_14h12.17.371,posner_endo_new1,2024.2.4,59.87504079156531,2025-02-12 14h12.29.755233 +0000,
cube_r.png,0.1,10,catch,17,17,0,down,0.9812029000022449,None,None,,,,,,,,,,,0,17,17,17,938.3378938999958,,,,,,,,,,,,,938.3221507999988,938.3378938999958,938.3378938999958,938.3378938999958,939.3214428000065,,,,939.3329490000033,939.343383200001,939.343383200001,939.3868044999981,939.387167199995,939.4032482000039,939.4032482000039,939.4032482000039,939.4865603999933,942.4009393000015,,,,941.5011379000061,942.4169345999981,942.4169345999981,942.4169345999981,,,,,,,,,,,,,,,down,0.9812029000022449,None,None,,,P102,001,2025-02-12_14h12.17.371,posner_endo_new1,2024.2.4,59.87504079156531,2025-02-12 14h12.29.755233 +0000,
cube_l.png,0.1,0.31,invalid,18,18,0,down,0.5973195999977179,None,space,0.43444759999692906,None,,,,,,,,,0,18,18,18,942.4169345999981,,,,,,,,,,,,,942.4012103999994,942.4169345999981,942.4169345999981,942.4169345999981,943.0175566999969,,,,943.0289927999984,943.0393123999966,943.0393123999966,943.0829405999975,943.0832954999933,943.0995255000016,943.0995255000016,943.0995255000016,943.1827680999995,943.5503926999954,,,,,,,,,,,,,,,,,,,,,,down,0.5973195999977179,None,space,0.43444759999692906,None,P102,001,2025-02-12_14h12.17.371,posner_endo_new1,2024.2.4,59.87504079156531,2025-02-12 14h12.29.755233 +0000,
cube_l.png,0.1,10,catch,19,19,0,down,2.5128826000000117,None,None,,,,,,,,,,,0,19,19,19,943.5657866999973,,,,,,,,,,,,,943.5506836999994,943.5657866999973,943.5657866999973,943.5657866999973,946.0811051000055,,,,946.0911825999938,946.1009756999993,946.1009756999993,946.1468939000042,946.1471317999967,946.1631710999936,946.1631710999936,946.1631710999936,946.246390100001,949.1605804999999,,,,948.261090999993,949.1767360999947,949.1767360999947,949.1767360999947,,,,,,,,,,,,,,,down,2.5128826000000117,None,None,,,P102,001,2025-02-12_14h12.17.371,posner_endo_new1,2024.2.4,59.87504079156531,2025-02-12 14h12.29.755233 +0000,
cube_l.png,0.1,0.31,invalid,20,20,0,down,1.141565800004173,None,space,0.5393251000059536,None,,,,,,,,,0,20,20,20,949.1767360999947,,,,,,,,,,,,,949.1607670999947,949.1767360999947,949.1767360999947,949.1767360999947,950.3262549000065,,,,950.333406100006,950.3452099999995,950.3452099999995,950.3922782000009,950.392531599995,950.4086187000066,950.4086187000066,950.4086187000066,950.475391800006,950.9589816999942,,,,,,,,,,,,,,,,,,,,,,down,1.141565800004173,None,space,0.5393251000059536,None,P102,001,2025-02-12_14h12.17.371,posner_endo_new1,2024.2.4,59.87504079156531,2025-02-12 14h12.29.755233 +0000,
cube_l.png,0.1,-0.31,valid,21,21,0,down,3.1838222999940626,None,space,0.38615849999769125,None,,,,,,,,,0,21,21,21,950.9747269999934,,,,,,,,,,,,,950.9591794000007,950.9747269999934,950.9747269999934,950.9747269999934,954.1723365999933,,,,954.1794260000024,954.1911064000014,954.1911064000014,954.2383055999962,954.2385611000063,954.2546410000068,954.2546410000068,954.2546410000068,954.3380678999965,954.6553254000028,,,,,,,,,,,,,,,,,,,,,,down,3.1838222999940626,None,space,0.38615849999769125,None,P102,001,2025-02-12_14h12.17.371,posner_endo_new1,2024.2.4,59.87504079156531,2025-02-12 14h12.29.755233 +0000,
cube_r.png,0.1,0.31,valid,22,22,0,down,3.966888499999186,None,space,0.4282724000076996,None,,,,,,,,,0,22,22,22,954.6710380000004,,,,,,,,,,,,,954.6555225000047,954.6710380000004,954.6710380000004,954.6710380000004,958.6517553000012,,,,958.6688195000024,958.6798244999954,958.6798244999954,958.7169270000013,958.7174259000021,958.7333439000067,958.7333439000067,958.7333439000067,958.8166420000052,959.1681709999975,,,,,,,,,,,,,,,,,,,,,,down,3.966888499999186,None,space,0.4282724000076996,None,P102,001,2025-02-12_14h12.17.371,posner_endo_new1,2024.2.4,59.87504079156531,2025-02-12 14h12.29.755233 +0000,
cube_r.png,0.1,-0.31,invalid,23,23,0,down,4.135640599997714,None,space,0.6119919000047958,None,,,,,,,,,0,23,23,23,959.1828669999959,,,,,,,,,,,,,959.1686162999977,959.1828669999959,959.1828669999959,959.1828669999959,963.329931500004,,,,963.3404206999985,963.3502229000005,963.3502229000005,963.3956365000049,963.3958872999938,963.4118522999925,963.4118522999925,963.4118522999925,963.4953477999952,964.0290799000068,,,,,,,,,,,,,,,,,,,,,,down,4.135640599997714,None,space,0.6119919000047958,None,P102,001,2025-02-12_14h12.17.371,posner_endo_new1,2024.2.4,59.87504079156531,2025-02-12 14h12.29.755233 +0000,
cube_r.png,0.1,0.31,valid,24,24,0,down,3.6655527999973856,None,space,0.3784047999943141,None,,,,,,,,,0,24,24,24,964.0447488000063,,,,,,,,,,,,,964.0292871999991,964.0447488000063,964.0447488000063,964.0447488000063,967.7270814999938,,,,967.7491564999946,967.7593796000001,967.7593796000001,967.7910246999963,967.791366599995,967.8075587000058,967.8075587000058,967.8075587000058,967.8908990000054,968.1919408999966,,,,,,,,,,,,,,,,,,,,,,down,3.6655527999973856,None,space,0.3784047999943141,None,P102,001,2025-02-12_14h12.17.371,posner_endo_new1,2024.2.4,59.87504079156531,2025-02-12 14h12.29.755233 +0000,
cube_r.png,0.1,-0.31,invalid,25,25,0,down,3.76720309999655,None,space,0.4894323000044096,None,,,,,,,,,0,25,25,25,968.2071922000032,,,,,,,,,,,,,968.1922329999943,968.2071922000032,968.2071922000032,968.2071922000032,971.9892690999986,,,,972.0105343000032,972.0205985000066,972.0205985000066,972.0531177999947,972.0535063999996,972.0694745999936,972.0694745999936,972.0694745999936,972.1526586999971,972.570301300002,,,,,,,,,,,,,,,,,,,,,,down,3.76720309999655,None,space,0.4894323000044096,None,P102,001,2025-02-12_14h12.17.371,posner_endo_new1,2024.2.4,59.87504079156531,2025-02-12 14h12.29.755233 +0000,
cube_l.png,0.1,-0.31,valid,26,26,0,down,3.9486254999937955,None,space,0.42848240000603255,None,,,,,,,,,0,26,26,26,972.5855713000055,,,,,,,,,,,,,972.570632899995,972.5855713000055,972.5855713000055,972.5855713000055,976.5494387999934,,,,976.5557965000044,976.567733200005,976.567733200005,976.615161099995,976.6156182999985,976.6315804000042,976.6315804000042,976.6315804000042,976.7148384000029,977.065732899995,,,,,,,,,,,,,,,,,,,,,,down,3.9486254999937955,None,space,0.42848240000603255,None,P102,001,2025-02-12_14h12.17.371,posner_endo_new1,2024.2.4,59.87504079156531,2025-02-12 14h12.29.755233 +0000,
cube_r.png,0.1,0.31,valid,27,27,0,down,3.604652399997576,None,space,0.41374289999657776,None,,,,,,,,,0,27,27,27,977.0815881000017,,,,,,,,,,,,,977.0659191000013,977.0815881000017,977.0815881000017,977.0815881000017,980.6951886000024,,,,980.7015491000056,980.7134581999999,980.7134581999999,980.7612227999925,980.7614632000041,980.7777379000036,980.7777379000036,980.7777379000036,980.844334399997,981.194516699994,,,,,,,,,,,,,,,,,,,,,,down,3.604652399997576,None,space,0.41374289999657776,None,P102,001,2025-02-12_14h12.17.371,posner_endo_new1,2024.2.4,59.87504079156531,2025-02-12 14h12.29.755233 +0000,
cube_r.png,0.1,10,catch,28,28,0,down,4.043541899998672,None,None,,,,,,,,,,,0,28,28,28,981.2106300000014,,,,,,,,,,,,,981.194696999999,981.2106300000014,981.2106300000014,981.2106300000014,985.2573621000047,,,,985.2633496000053,985.275032599995,985.275032599995,985.3231820999936,985.3234037999937,985.3398056000005,985.3398056000005,985.3398056000005,985.4229808999953,988.3373210999998,,,,987.4377046000009,988.3532208999968,988.3532208999968,988.3532208999968,,,,,,,,,,,,,,,down,4.043541899998672,None,None,,,P102,001,2025-02-12_14h12.17.371,posner_endo_new1,2024.2.4,59.87504079156531,2025-02-12 14h12.29.755233 +0000,
cube_r.png,0.1,0.31,valid,29,29,0,down,0.869654599999194,None,space,0.4582839999930002,None,,,,,,,,,0,29,29,29,988.3532208999968,,,,,,,,,,,,,988.337492000006,988.3532208999968,988.3532208999968,988.3532208999968,989.236559500001,,,,989.2426768000005,989.2544590000034,989.2544590000034,989.3024565999949,989.3026902999991,989.3191243000038,989.3191243000038,989.3191243000038,989.3856797000044,989.7858911999938,,,,,,,,,,,,,,,,,,,,,,down,0.869654599999194,None,space,0.4582839999930002,None,P102,001,2025-02-12_14h12.17.371,posner_endo_new1,2024.2.4,59.87504079156531,2025-02-12 14h12.29.755233 +0000,
cube_r.png,0.1,0.31,valid,30,30,0,down,3.868535699992208,None,space,0.3721178999985568,None,,,,,,,,,0,30,30,30,989.801804200004,,,,,,,,,,,,,989.7860654999968,989.801804200004,989.801804200004,989.801804200004,993.6819328999991,,,,993.6880508000031,993.6996067,993.6996067,993.7477573999931,993.7482548999978,993.7642117000069,993.7642117000069,993.7642117000069,993.847405499997,994.148543400006,,,,,,,,,,,,,,,,,,,,,,down,3.868535699992208,None,space,0.3721178999985568,None,P102,001,2025-02-12_14h12.17.371,posner_endo_new1,2024.2.4,59.87504079156531,2025-02-12 14h12.29.755233 +0000,
cube_l.png,0.1,-0.31,valid,31,31,0,down,3.906234800000675,None,space,0.9313702999934321,None,,,,,,,,,0,31,31,31,994.1640075000032,,,,,,,,,,,,,994.1488337000046,994.1640075000032,994.1640075000032,994.1640075000032,998.0772433999955,,,,998.0840728000039,998.0958499999979,998.0958499999979,998.143491099996,998.1437199000065,998.1599270000006,998.1599270000006,998.1599270000006,998.2264968999953,999.0930309999967,,,,,,,,,,,,,,,,,,,,,,down,3.906234800000675,None,space,0.9313702999934321,None,P102,001,2025-02-12_14h12.17.371,posner_endo_new1,2024.2.4,59.87504079156531,2025-02-12 14h12.29.755233 +0000,
cube_r.png,0.1,0.31,valid,32,32,0,down,2.5695077999989735,None,space,0.5586692000069888,None,,,,,,,,,0,32,32,32,999.108598699997,,,,,,,,,,,,,999.0932117000048,999.108598699997,999.108598699997,999.108598699997,1001.6904104999994,,,,1001.6966050000046,1001.7084291000065,1001.7084291000065,1001.7563313999999,1001.7565562999953,1001.7727732000058,1001.7727732000058,1001.7727732000058,1001.8561338,1002.3397797999933,,,,,,,,,,,,,,,,,,,,,,down,2.5695077999989735,None,space,0.5586692000069888,None,P102,001,2025-02-12_14h12.17.371,posner_endo_new1,2024.2.4,59.87504079156531,2025-02-12 14h12.29.755233 +0000,
cube_r.png,0.1,-0.31,invalid,33,33,0,down,3.8420633999921847,None,space,0.414384899995639,None,,,,,,,,,0,33,33,33,1002.3557205999969,,,,,,,,,,,,,1002.339969099994,1002.3557205999969,1002.3557205999969,1002.3557205999969,1006.2024158999993,,,,1006.2083930999943,1006.2200256999931,1006.2200256999931,1006.2683953999949,1006.2686188999942,1006.2849589999969,1006.2849589999969,1006.2849589999969,1006.3516558999981,1006.7020040000061,,,,,,,,,,,,,,,,,,,,,,down,3.8420633999921847,None,space,0.414384899995639,None,P102,001,2025-02-12_14h12.17.371,posner_endo_new1,2024.2.4,59.87504079156531,2025-02-12 14h12.29.755233 +0000,
cube_r.png,0.1,10,catch,34,34,0,down,2.98567149999144,None,None,,,,,,,,,,,0,34,34,34,1006.7178179000039,,,,,,,,,,,,,1006.702178099993,1006.7178179000039,1006.7178179000039,1006.7178179000039,1009.7154937000014,,,,1009.7217381999944,1009.7336611000064,1009.7336611000064,1009.7816128999984,1009.7818428000028,1009.798011299994,1009.798011299994,1009.798011299994,1009.8644802000053,1012.7956968999933,,,,1011.8791042999947,1012.8115982000018,1012.8115982000018,1012.8115982000018,,,,,,,,,,,,,,,down,2.98567149999144,None,None,,,P102,001,2025-02-12_14h12.17.371,posner_endo_new1,2024.2.4,59.87504079156531,2025-02-12 14h12.29.755233 +0000,
cube_r.png,0.1,0.31,valid,35,35,0,down,1.2748225999966962,None,space,0.48588520000339486,None,,,,,,,,,0,35,35,35,1012.8115982000018,,,,,,,,,,,,,1012.7958690999949,1012.8115982000018,1012.8115982000018,1012.8115982000018,1014.0943884000008,,,,1014.1006927999988,1014.1125884999929,1014.1125884999929,1014.1604061999969,1014.1606570000004,1014.1768664999981,1014.1768664999981,1014.1768664999981,1014.2435453999933,1014.6769688000059,,,,,,,,,,,,,,,,,,,,,,down,1.2748225999966962,None,space,0.48588520000339486,None,P102,001,2025-02-12_14h12.17.371,posner_endo_new1,2024.2.4,59.87504079156531,2025-02-12 14h12.29.755233 +0000,
cube_r.png,0.1,-0.31,invalid,36,36,0,down,3.3773906999995233,None,space,0.4321875000023283,None,,,,,,,,,0,36,36,36,1014.6930844000017,,,,,,,,,,,,,1014.6771578000044,1014.6930844000017,1014.6930844000017,1014.6930844000017,1018.0734834000032,,,,1018.0797314999945,1018.0913285999995,1018.0913285999995,1018.1396868000011,1018.1399229999952,1018.1562658000039,1018.1562658000039,1018.1562658000039,1018.222787199993,1018.5901267000008,,,,,,,,,,,,,,,,,,,,,,down,3.3773906999995233,None,space,0.4321875000023283,None,P102,001,2025-02-12_14h12.17.371,posner_endo_new1,2024.2.4,59.87504079156531,2025-02-12 14h12.29.755233 +0000,
cube_l.png,0.1,0.31,invalid,37,37,0,down,3.328298899999936,None,space,0.42528159999346826,None,,,,,,,,,0,37,37,37,1018.605638699999,,,,,,,,,,,,,1018.5903102000011,1018.605638699999,1018.605638699999,1018.605638699999,1021.9364582999988,,,,1021.9429737000028,1021.9547833999968,1021.9547833999968,1022.0023199999996,1022.0025565999968,1022.0189755000029,1022.0189755000029,1022.0189755000029,1022.0854778000066,1022.4527680000028,,,,,,,,,,,,,,,,,,,,,,down,3.328298899999936,None,space,0.42528159999346826,None,P102,001,2025-02-12_14h12.17.371,posner_endo_new1,2024.2.4,59.87504079156531,2025-02-12 14h12.29.755233 +0000,
cube_l.png,0.1,0.31,invalid,38,38,0,down,3.8255121000111103,None,space,0.440547999998671,None,,,,,,,,,0,38,38,38,1022.4686574999942,,,,,,,,,,,,,1022.452948399994,1022.4686574999942,1022.4686574999942,1022.4686574999942,1026.2998311999982,,,,1026.3187452999991,1026.3301276999991,1026.3301276999991,1026.364553899999,1026.3648985000036,1026.3812172000034,1026.3812172000034,1026.3812172000034,1026.464314500001,1026.8318276000064,,,,,,,,,,,,,,,,,,,,,,down,3.8255121000111103,None,space,0.440547999998671,None,P102,001,2025-02-12_14h12.17.371,posner_endo_new1,2024.2.4,59.87504079156531,2025-02-12 14h12.29.755233 +0000,
cube_r.png,0.1,0.31,valid,39,39,0,down,2.142792599988752,None,space,0.4783205999992788,None,,,,,,,,,0,39,39,39,1026.8471954999986,,,,,,,,,,,,,1026.8321294000052,1026.8471954999986,1026.8471954999986,1026.8471954999986,1028.9970100999926,,,,1029.0156377999956,1029.0270347000042,1029.0270347000042,1029.0618316000036,1029.0623709999927,1029.0781841999997,1029.0781841999997,1029.0781841999997,1029.1614738999924,1029.5631024000031,,,,,,,,,,,,,,,,,,,,,,down,2.142792599988752,None,space,0.4783205999992788,None,P102,001,2025-02-12_14h12.17.371,posner_endo_new1,2024.2.4,59.87504079156531,2025-02-12 14h12.29.755233 +0000,
cube_l.png,0.1,0.31,invalid,40,40,0,down,3.8206894000031753,None,space,0.4349147000029916,None,,,,,,,,,0,40,40,40,1029.5776738999994,,,,,,,,,,,,,1029.5635907999967,1029.5776738999994,1029.5776738999994,1029.5776738999994,1033.4091776999994,,,,1033.4278115000052,1033.4393760999956,1033.4393760999956,1033.4739524000033,1033.4745032999926,1033.490309300003,1033.490309300003,1033.490309300003,1033.5735340999963,1033.9418785000016,,,,,,,,,,,,,,,,,,,,,,down,3.8206894000031753,None,space,0.4349147000029916,None,P102,001,2025-02-12_14h12.17.371,posner_endo_new1,2024.2.4,59.87504079156531,2025-02-12 14h12.29.755233 +0000,
cube_l.png,0.1,10,catch,41,41,0,down,4.242139199996018,None,None,,,,,,,,,,,0,41,41,41,1033.9565592,,,,,,,,,,,,,1033.9423633999977,1033.9565592,1033.9565592,1033.9565592,1038.2042796000023,,,,1038.2230376999942,1038.234459600004,1038.234459600004,1038.2690128999966,1038.2695766999968,1038.2854164000018,1038.2854164000018,1038.2854164000018,1038.3687039999932,1041.2835193000064,,,,1040.3832926000032,1041.2990498,1041.2990498,1041.2990498,,,,,,,,,,,,,,,down,4.242139199996018,None,None,,,P102,001,2025-02-12_14h12.17.371,posner_endo_new1,2024.2.4,59.87504079156531,2025-02-12 14h12.29.755233 +0000,
cube_l.png,0.1,-0.31,valid,42,42,0,down,1.0277345000067726,None,space,0.4049053999915486,None,,,,,,,,,0,42,42,42,1041.2990498,,,,,,,,,,,,,1041.2839651999966,1041.2990498,1041.2990498,1041.2990498,1042.3335690999957,,,,1042.3525379000057,1042.364188099993,1042.364188099993,1042.3981536999927,1042.3984981999965,1042.4145866000035,1042.4145866000035,1042.4145866000035,1042.4978259000054,1042.8321131999983,,,,,,,,,,,,,,,,,,,,,,down,1.0277345000067726,None,space,0.4049053999915486,None,P102,001,2025-02-12_14h12.17.371,posner_endo_new1,2024.2.4,59.87504079156531,2025-02-12 14h12.29.755233 +0000,
cube_l.png,0.1,10,catch,43,43,0,down,4.134345700003905,None,None,,,,,,,,,,,0,43,43,43,1042.8475828999944,,,,,,,,,,,,,1042.8324186999962,1042.8475828999944,1042.8475828999944,1042.8475828999944,1046.9950680000038,,,,1047.0137808,1047.0252051999996,1047.0252051999996,1047.0600776000065,1047.0606193999993,1047.0764478000056,1047.0764478000056,1047.0764478000056,1047.159723699995,1050.0745682999986,,,,1049.1743469000066,1050.0900571999955,1050.0900571999955,1050.0900571999955,,,,,,,,,,,,,,,down,4.134345700003905,None,None,,,P102,001,2025-02-12_14h12.17.371,posner_endo_new1,2024.2.4,59.87504079156531,2025-02-12 14h12.29.755233 +0000,
cube_l.png,0.1,0.31,invalid,44,44,0,down,1.035825200000545,None,space,0.4213279999967199,None,,,,,,,,,0,44,44,44,1050.0900571999955,,,,,,,,,,,,,1050.0750146999926,1050.0900571999955,1050.0900571999955,1050.0900571999955,1051.140855000005,,,,1051.1595281000045,1051.1708171000064,1051.1708171000064,1051.2057657999976,1051.206107799997,1051.2222160999954,1051.2222160999954,1051.2222160999954,1051.3055426999927,1051.6594026999956,,,,,,,,,,,,,,,,,,,,,,down,1.035825200000545,None,space,0.4213279999967199,None,P102,001,2025-02-12_14h12.17.371,posner_endo_new1,2024.2.4,59.87504079156531,2025-02-12 14h12.29.755233 +0000,
cube_l.png,0.1,0.31,invalid,45,45,0,down,3.517166299992823,None,space,0.4702088000049116,None,,,,,,,,,0,45,45,45,1051.6812446999975,,,,,,,,,,,,,1051.659665500003,1051.6812446999975,1051.6812446999975,1051.6812446999975,1055.2026592000038,,,,1055.2087067999964,1055.2204409999977,1055.2204409999977,1055.268284299993,1055.2685076000053,1055.2847500000062,1055.2847500000062,1055.2847500000062,1055.3681838000048,1055.7684147999971,,,,,,,,,,,,,,,,,,,,,,down,3.517166299992823,None,space,0.4702088000049116,None,P102,001,2025-02-12_14h12.17.371,posner_endo_new1,2024.2.4,59.87504079156531,2025-02-12 14h12.29.755233 +0000,
cube_r.png,0.1,0.31,valid,46,46,0,down,4.077587899999344,None,space,0.39661330000672024,None,,,,,,,,,0,46,46,46,1055.7842746999959,,,,,,,,,,,,,1055.7685895000031,1055.7842746999959,1055.7842746999959,1055.7842746999959,1059.8647592000052,,,,1059.8764241000026,1059.8869249999989,1059.8869249999989,1059.9301139000017,1059.9303642000013,1059.946764399996,1059.946764399996,1059.946764399996,1060.0297224999958,1060.3472150000016,,,,,,,,,,,,,,,,,,,,,,down,4.077587899999344,None,space,0.39661330000672024,None,P102,001,2025-02-12_14h12.17.371,posner_endo_new1,2024.2.4,59.87504079156531,2025-02-12 14h12.29.755233 +0000,
cube_l.png,0.1,-0.31,valid,47,47,0,down,4.411379900004249,None,space,0.4310193999990588,None,,,,,,,,,0,47,47,47,1060.3629242000025,,,,,,,,,,,,,1060.347416100005,1060.3629242000025,1060.3629242000025,1060.3629242000025,1064.7759970000043,,,,1064.7831027999928,1064.7945782000024,1064.7945782000024,1064.8417673999938,1064.8422810000047,1064.8581989999948,1064.8581989999948,1064.8581989999948,1064.9414165000053,1065.2930817000015,,,,,,,,,,,,,,,,,,,,,,down,4.411379900004249,None,space,0.4310193999990588,None,P102,001,2025-02-12_14h12.17.371,posner_endo_new1,2024.2.4,59.87504079156531,2025-02-12 14h12.29.755233 +0000,
cube_r.png,0.1,-0.31,invalid,48,48,0,down,4.586477300006663,None,space,0.39464589999988675,None,,,,,,,,,0,48,48,48,1065.3076997000026,,,,,,,,,,,,,1065.2935509999952,1065.3076997000026,1065.3076997000026,1065.3076997000026,1069.9043743999937,,,,1069.9155907999957,1069.9257917000068,1069.9257917000068,1069.969983899995,1069.970354200006,1069.9863561999955,1069.9863561999955,1069.9863561999955,1070.0696847999934,1070.3872248999978,,,,,,,,,,,,,,,,,,,,,,down,4.586477300006663,None,space,0.39464589999988675,None,P102,001,2025-02-12_14h12.17.371,posner_endo_new1,2024.2.4,59.87504079156531,2025-02-12 14h12.29.755233 +0000,
cube_r.png,0.1,10,catch,49,49,0,down,4.244187099990086,None,None,,,,,,,,,,,0,49,49,49,1070.4026236000063,,,,,,,,,,,,,1070.3875120000012,1070.4026236000063,1070.4026236000063,1070.4026236000063,1074.649617300005,,,,1074.6567238999996,1074.6679158000043,1074.6679158000043,1074.714965399995,1074.7154800999997,1074.7313656000042,1074.7313656000042,1074.7313656000042,1074.8146523000032,1077.7293605000013,,,,1076.8294233000051,1077.7451413999952,1077.7451413999952,1077.7451413999952,,,,,,,,,,,,,,,down,4.244187099990086,None,None,,,P102,001,2025-02-12_14h12.17.371,posner_endo_new1,2024.2.4,59.87504079156531,2025-02-12 14h12.29.755233 +0000,
cube_l.png,0.1,-0.31,valid,50,50,0,down,0.9978664000082063,None,space,0.4191625999956159,None,,,,,,,,,0,50,50,50,1077.7451413999952,,,,,,,,,,,,,1077.7296486999985,1077.7451413999952,1077.7451413999952,1077.7451413999952,1078.7453381999949,,,,1078.7537714000064,1078.7637038999965,1078.7637038999965,1078.8109275000024,1078.8111650000064,1078.8275468000065,1078.8275468000065,1078.8275468000065,1078.9107093000057,1079.2610748000006,,,,,,,,,,,,,,,,,,,,,,down,0.9978664000082063,None,space,0.4191625999956159,None,P102,001,2025-02-12_14h12.17.371,posner_endo_new1,2024.2.4,59.87504079156531,2025-02-12 14h12.29.755233 +0000,
cube_l.png,0.1,-0.31,valid,51,51,0,down,4.2258598000044,None,space,0.524400099995546,None,,,,,,,,,0,51,51,51,1079.276999099995,,,,,,,,,,,,,1079.2612657999998,1079.276999099995,1079.276999099995,1079.276999099995,1083.5068717999966,,,,1083.5134333000024,1083.5251210999995,1083.5251210999995,1083.5726924000046,1083.5729329000023,1083.5893113000056,1083.5893113000056,1083.5893113000056,1083.6725359999982,1084.122753699994,,,,,,,,,,,,,,,,,,,,,,down,4.2258598000044,None,space,0.524400099995546,None,P102,001,2025-02-12_14h12.17.371,posner_endo_new1,2024.2.4,59.87504079156531,2025-02-12 14h12.29.755233 +0000,
cube_r.png,0.1,-0.31,invalid,52,52,0,down,3.883409100002609,None,space,0.6079795999976341,None,,,,,,,,,0,52,52,52,1084.1387188999943,,,,,,,,,,,,,1084.1229365000036,1084.1387188999943,1084.1387188999943,1084.1387188999943,1088.035209099995,,,,1088.041256299999,1088.0530605999957,1088.0530605999957,1088.1013398000068,1088.1015681999997,1088.1177986999974,1088.1177986999974,1088.1177986999974,1088.1846068000013,1088.7346691999992,,,,,,,,,,,,,,,,,,,,,,down,3.883409100002609,None,space,0.6079795999976341,None,P102,001,2025-02-12_14h12.17.371,posner_endo_new1,2024.2.4,59.87504079156531,2025-02-12 14h12.29.755233 +0000,
cube_l.png,0.1,-0.31,valid,53,53,0,down,4.168072300002677,None,space,0.47847940000065137,None,,,,,,,,,0,53,53,53,1088.7507332999958,,,,,,,,,,,,,1088.7348458000051,1088.7507332999958,1088.7507332999958,1088.7507332999958,1092.930421500001,,,,1092.9364793999994,1092.9480874,1092.9480874,1092.996349299996,1092.9965733999998,1093.012890500002,1093.012890500002,1093.012890500002,1093.0796417999954,1093.4965617999987,,,,,,,,,,,,,,,,,,,,,,down,4.168072300002677,None,space,0.47847940000065137,None,P102,001,2025-02-12_14h12.17.371,posner_endo_new1,2024.2.4,59.87504079156531,2025-02-12 14h12.29.755233 +0000,
cube_r.png,0.1,10,catch,54,54,0,down,4.109423400004744,None,None,,,,,,,,,,,0,54,54,54,1093.5124249999935,,,,,,,,,,,,,1093.4967514000018,1093.5124249999935,1093.5124249999935,1093.5124249999935,1097.625570499993,,,,1097.6316291999974,1097.6438546999998,1097.6438546999998,1097.6916169000033,1097.691843499997,1097.7081272000069,1097.7081272000069,1097.7081272000069,1097.7748182000068,1100.705460199999,,,,1099.7893324000033,1100.721772399993,1100.721772399993,1100.721772399993,,,,,,,,,,,,,,,down,4.109423400004744,None,None,,,P102,001,2025-02-12_14h12.17.371,posner_endo_new1,2024.2.4,59.87504079156531,2025-02-12 14h12.29.755233 +0000,
cube_l.png,0.1,0.31,invalid,55,55,0,down,1.052165300003253,None,space,0.4932027999893762,None,,,,,,,,,0,55,55,55,1100.721772399993,,,,,,,,,,,,,1100.7056357999973,1100.721772399993,1100.721772399993,1100.721772399993,1101.7878023999947,,,,1101.7941165999946,1101.8056153999933,1101.8056153999933,1101.854016199999,1101.8542383000022,1101.8706964000012,1101.8706964000012,1101.8706964000012,1101.9371003999986,1102.3708339000004,,,,,,,,,,,,,,,,,,,,,,down,1.052165300003253,None,space,0.4932027999893762,None,P102,001,2025-02-12_14h12.17.371,posner_endo_new1,2024.2.4,59.87504079156531,2025-02-12 14h12.29.755233 +0000,
cube_l.png,0.1,-0.31,valid,56,56,0,down,3.739122300001327,None,space,0.43657940000412054,None,,,,,,,,,0,56,56,56,1102.3866884000017,,,,,,,,,,,,,1102.371014000004,1102.3866884000017,1102.3866884000017,1102.3866884000017,1106.1339785000018,,,,1106.144000500004,1106.154269199993,1106.154269199993,1106.1996411,1106.1999645000033,1106.2160459000006,1106.2160459000006,1106.2160459000006,1106.2993685999973,1106.6666151999962,,,,,,,,,,,,,,,,,,,,,,down,3.739122300001327,None,space,0.43657940000412054,None,P102,001,2025-02-12_14h12.17.371,posner_endo_new1,2024.2.4,59.87504079156531,2025-02-12 14h12.29.755233 +0000,
cube_r.png,0.1,0.31,valid,57,57,0,down,2.8118408000009367,None,space,0.38747309999598656,None,,,,,,,,,0,57,57,57,1106.6822929000045,,,,,,,,,,,,,1106.6668846999964,1106.6822929000045,1106.6822929000045,1106.6822929000045,1109.4971695999993,,,,1109.5072465999983,1109.5174820999964,1109.5174820999964,1109.5627857999934,1109.5631102000043,1109.5793554999982,1109.5793554999982,1109.5793554999982,1109.662389899997,1109.9798373999947,,,,,,,,,,,,,,,,,,,,,,down,2.8118408000009367,None,space,0.38747309999598656,None,P102,001,2025-02-12_14h12.17.371,posner_endo_new1,2024.2.4,59.87504079156531,2025-02-12 14h12.29.755233 +0000,
cube_r.png,0.1,-0.31,invalid,58,58,0,down,4.107037099995068,None,space,0.44163960000150837,None,,,,,,,,,0,58,58,58,1109.9955296999979,,,,,,,,,,,,,1109.980100700006,1109.9955296999979,1109.9955296999979,1109.9955296999979,1114.1090585000056,,,,1114.1186755999952,1114.128468099996,1114.128468099996,1114.1747628000012,1114.1750064999942,1114.1913313999976,1114.1913313999976,1114.1913313999976,1114.2744745999953,1114.6415648999973,,,,,,,,,,,,,,,,,,,,,,down,4.107037099995068,None,space,0.44163960000150837,None,P102,001,2025-02-12_14h12.17.371,posner_endo_new1,2024.2.4,59.87504079156531,2025-02-12 14h12.29.755233 +0000,
cube_l.png,0.1,0.31,invalid,59,59,0,down,3.341348599991761,None,space,0.5546141000086209,None,,,,,,,,,0,59,59,59,1114.6575103000068,,,,,,,,,,,,,1114.6417484999984,1114.6575103000068,1114.6575103000068,1114.6575103000068,1118.0049986999948,,,,1118.0111886999948,1118.0229816000065,1118.0229816000065,1118.0706856000033,1118.070926600005,1118.087223800001,1118.087223800001,1118.087223800001,1118.1537760000065,1118.6540865999996,,,,,,,,,,,,,,,,,,,,,,down,3.341348599991761,None,space,0.5546141000086209,None,P102,001,2025-02-12_14h12.17.371,posner_endo_new1,2024.2.4,59.87504079156531,2025-02-12 14h12.29.755233 +0000,
