cue_img,cue_soa,target_y,trial,thisN,thisTrialN,thisRepN,key_control2.keys,key_control2.rt,key_control2.duration,key_resp.keys,key_resp.rt,key_resp.duration,practice.thisRepN,practice.thisTrialN,practice.thisN,practice.thisIndex,block1.thisRepN,block1.thisTrialN,block1.thisN,block1.thisIndex,block2.thisRepN,block2.thisTrialN,block2.thisN,block2.thisIndex,thisRow.t,notes,instructions.started,instructions_txt.started,key_control.started,instructions.stopped,key_control.keys,key_control.rt,key_control.duration,ready.started,ready_txt.started,ready_txt.stopped,ready.stopped,fix.started,fixation.started,key_control2.started,fixation_cross.started,fix.stopped,practice.key_control2.keys,practice.key_control2.rt,practice.key_control2.duration,cue.started,cube.started,fixation_cross_cue.started,cue.stopped,target.started,fixation_target.started,fixation_cross_target.started,key_resp.started,star.started,target.stopped,practice.key_resp.keys,practice.key_resp.rt,practice.key_resp.duration,star.stopped,fixation_target.stopped,fixation_cross_target.stopped,key_resp.stopped,block1.key_control2.keys,block1.key_control2.rt,block1.key_control2.duration,block1.key_resp.keys,block1.key_resp.rt,block1.key_resp.duration,break_2.started,text.started,key_control3.started,text.stopped,break_2.stopped,key_control3.keys,key_control3.rt,key_control3.duration,block2.key_control2.keys,block2.key_control2.rt,block2.key_control2.duration,block2.key_resp.keys,block2.key_resp.rt,block2.key_resp.duration,participant,session,date,expName,psychopyVersion,frameRate,expStart,
,,,,,,,,,,,,,,,,,,,,,,,,,,,0.007900500000687316,0.027803000004496425,0.027803000004496425,356.00361800000246,up,355.97056699999666,None,,,,,,,,,,,,,,,,,,,,,,,,,,,,,,,,,,,,,,,,,,,,,,,,,,P103,001,2025-02-12_14h59.33.627,posner_endo_new1,2024.2.4,60.10261920803092,2025-02-12 14h59.42.308429 +0000,
,,,,,,,,,,,,,,,,,,,,,,,,,,,,,,,,,,356.0036714000016,356.01627069999813,359.01629559999856,358.99714760000643,,,,,,,,,,,,,,,,,,,,,,,,,,,,,,,,,,,,,,,,,,,,,,P103,001,2025-02-12_14h59.33.627,posner_endo_new1,2024.2.4,60.10261920803092,2025-02-12 14h59.42.308429 +0000,
cube_l.png,0.1,-0.31,valid,0,0,0,down,5.958310999994865,None,space,0.598725400006515,None,0,0,0,0,,,,,,,,,359.01629559999856,,,,,,,,,,,,,359.004978500001,359.01629559999856,359.01629559999856,359.01629559999856,364.99158790000365,down,5.958310999994865,None,365.0117881000042,365.02292899999884,365.02292899999884,365.057346600006,365.057693499999,365.07377829999314,365.07377829999314,365.07377829999314,365.1570344000065,365.67442130000563,space,0.598725400006515,None,,,,,,,,,,,,,,,,,,,,,,,,,P103,001,2025-02-12_14h59.33.627,posner_endo_new1,2024.2.4,60.10261920803092,2025-02-12 14h59.42.308429 +0000,
cube_l.png,0.1,0.31,invalid,1,1,0,down,5.2054472000017995,None,space,0.46928670001216233,None,0,1,1,1,,,,,,,,,365.6898366999958,,,,,,,,,,,,,365.67469770000025,365.6898366999958,365.6898366999958,365.6898366999958,370.90247489999456,down,5.2054472000017995,None,370.9144901999971,370.9248680000019,370.9248680000019,370.9677764999942,370.9680259000015,370.984454999998,370.984454999998,370.984454999998,371.06766600000265,371.4679376999993,space,0.46928670001216233,None,,,,,,,,,,,,,,,,,,,,,,,,,P103,001,2025-02-12_14h59.33.627,posner_endo_new1,2024.2.4,60.10261920803092,2025-02-12 14h59.42.308429 +0000,
cube_r.png,0.1,-0.31,invalid,2,2,0,down,5.626873100001831,None,space,0.5820504000002984,None,0,2,2,2,,,,,,,,,371.48393089999445,,,,,,,,,,,,,371.4681245999964,371.48393089999445,371.48393089999445,371.48393089999445,377.112424299994,down,5.626873100001831,None,377.1199617999955,377.1310744999937,377.1310744999937,377.17834369999764,377.1785929000034,377.1948134999984,377.1948134999984,377.1948134999984,377.2781263999932,377.7786205000011,space,0.5820504000002984,None,,,,,,,,,,,,,,,,,,,,,,,,,P103,001,2025-02-12_14h59.33.627,posner_endo_new1,2024.2.4,60.10261920803092,2025-02-12 14h59.42.308429 +0000,
cube_r.png,0.1,10,catch,3,3,0,down,6.284648200002266,None,None,,,0,3,3,3,,,,,,,,,377.7940743000072,,,,,,,,,,,,,377.7788092999981,377.7940743000072,377.7940743000072,377.7940743000072,384.0885163000057,down,6.284648200002266,None,384.0960261,384.10751529999834,384.10751529999834,384.15429780000704,384.15454659999523,384.1709244999947,384.1709244999947,384.1709244999947,384.2374516999989,387.168405599994,None,,,386.25215729999763,387.1845417000004,387.1845417000004,387.1845417000004,,,,,,,,,,,,,,,,,,,,,P103,001,2025-02-12_14h59.33.627,posner_endo_new1,2024.2.4,60.10261920803092,2025-02-12 14h59.42.308429 +0000,
cube_l.png,0.1,-0.31,valid,4,4,0,down,2.89384340000106,None,space,0.460906199994497,None,0,4,4,4,,,,,,,,,387.1845417000004,,,,,,,,,,,,,387.1685831000068,387.1845417000004,387.1845417000004,387.1845417000004,390.0824575000006,down,2.89384340000106,None,390.08987630000047,390.10094319999916,390.10094319999916,390.1483522000053,390.1486104000069,390.1648501000018,390.1648501000018,390.1648501000018,390.2479083000071,390.63180479999573,space,0.460906199994497,None,,,,,,,,,,,,,,,,,,,,,,,,,P103,001,2025-02-12_14h59.33.627,posner_endo_new1,2024.2.4,60.10261920803092,2025-02-12 14h59.42.308429 +0000,
cube_l.png,0.1,0.31,invalid,5,5,0,down,5.855051599995932,None,space,0.5498379999917233,None,0,5,5,5,,,,,,,,,390.64763390000735,,,,,,,,,,,,,390.6319913000043,390.64763390000735,390.64763390000735,390.64763390000735,396.5091661000042,down,5.855051599995932,None,396.51657059999707,396.5278735000029,396.5278735000029,396.5749133000063,396.5751612000022,396.5919958000013,396.5919958000013,396.5919958000013,396.6748299000028,397.15862649999326,space,0.5498379999917233,None,,,,,,,,,,,,,,,,,,,,,,,,,P103,001,2025-02-12_14h59.33.627,posner_endo_new1,2024.2.4,60.10261920803092,2025-02-12 14h59.42.308429 +0000,
cube_r.png,0.1,-0.31,invalid,6,6,0,down,6.01587400000426,None,space,0.47412959999928717,None,0,6,6,6,,,,,,,,,397.1743681999942,,,,,,,,,,,,,397.1588131000026,397.1743681999942,397.1743681999942,397.1743681999942,403.20212309999624,down,6.01587400000426,None,403.2094841000071,403.2210602999985,403.2210602999985,403.26822399999946,403.2684767000028,403.28472989999864,403.28472989999864,403.28472989999864,403.35127790000115,403.7684697999939,space,0.47412959999928717,None,,,,,,,,,,,,,,,,,,,,,,,,,P103,001,2025-02-12_14h59.33.627,posner_endo_new1,2024.2.4,60.10261920803092,2025-02-12 14h59.42.308429 +0000,
cube_r.png,0.1,0.31,valid,7,7,0,down,11.742040199998883,None,space,0.3988320000062231,None,0,7,7,7,,,,,,,,,403.78420840000035,,,,,,,,,,,,,403.7686646999937,403.78420840000035,403.78420840000035,403.78420840000035,415.5396737999981,down,11.742040199998883,None,415.54706100000476,415.5585527999938,415.5585527999938,415.6054310000036,415.6056801999948,415.6222370000032,415.6222370000032,415.6222370000032,415.7053317999962,416.02270509999653,space,0.3988320000062231,None,,,,,,,,,,,,,,,,,,,,,,,,,P103,001,2025-02-12_14h59.33.627,posner_endo_new1,2024.2.4,60.10261920803092,2025-02-12 14h59.42.308429 +0000,
cube_l.png,0.1,-0.31,valid,8,8,0,down,5.672502100002021,None,space,0.395503000007011,None,0,8,8,8,,,,,,,,,416.0382952999935,,,,,,,,,,,,,416.0228913000028,416.0382952999935,416.0382952999935,416.0382952999935,421.7166311000037,down,5.672502100002021,None,421.7240699999966,421.7471186000039,421.7471186000039,421.7826714999974,421.7829209000047,421.7991922999936,421.7991922999936,421.7991922999936,421.86561550000624,422.19949119999364,space,0.395503000007011,None,,,,,,,,,,,,,,,,,,,,,,,,,P103,001,2025-02-12_14h59.33.627,posner_endo_new1,2024.2.4,60.10261920803092,2025-02-12 14h59.42.308429 +0000,
cube_r.png,0.1,-0.31,invalid,9,9,0,down,6.088230900000781,None,space,0.42325189999246504,None,0,9,9,9,,,,,,,,,422.2153385999991,,,,,,,,,,,,,422.1996853000019,422.2153385999991,422.2153385999991,422.2153385999991,428.30983209999977,down,6.088230900000781,None,428.31734239999787,428.3288296999963,428.3288296999963,428.3756218000053,428.3758699000027,428.3923170000053,428.3923170000053,428.3923170000053,428.4754066000023,428.82610409999324,space,0.42325189999246504,None,,,,,,,,,,,,,,,,,,,,,,,,,P103,001,2025-02-12_14h59.33.627,posner_endo_new1,2024.2.4,60.10261920803092,2025-02-12 14h59.42.308429 +0000,
cube_r.png,0.1,0.31,valid,10,10,0,down,6.067974599995068,None,space,0.4888379000040004,None,0,10,10,10,,,,,,,,,428.84191829999327,,,,,,,,,,,,,428.82629719999386,428.84191829999327,428.84191829999327,428.84191829999327,434.919962999993,down,6.067974599995068,None,434.92755809999653,434.9385747000051,434.9385747000051,434.985780300005,434.98602989999927,435.00234340000316,435.00234340000316,435.00234340000316,435.0853453000018,435.50256730000547,space,0.4888379000040004,None,,,,,,,,,,,,,,,,,,,,,,,,,P103,001,2025-02-12_14h59.33.627,posner_endo_new1,2024.2.4,60.10261920803092,2025-02-12 14h59.42.308429 +0000,
,,,,,,,,,,,,,,,,,,,,,,,,,,,,,,,,,,435.50268750000396,435.5184685999993,438.5360740000033,438.499229699999,,,,,,,,,,,,,,,,,,,,,,,,,,,,,,,,,,,,,,,,,,,,,,P103,001,2025-02-12_14h59.33.627,posner_endo_new1,2024.2.4,60.10261920803092,2025-02-12 14h59.42.308429 +0000,
cube_l.png,0.1,10,catch,0,0,0,down,8.014574200002244,None,None,,,,,,,0,0,0,0,,,,,438.5360740000033,,,,,,,,,,,,,438.5256640000007,438.5360740000033,438.5360740000033,438.5360740000033,446.55830140000035,,,,446.57001019999734,446.58040099999926,446.58040099999926,446.62381679999817,446.6241665999987,446.6403500000015,446.6403500000015,446.6403500000015,446.7235667000059,449.63810179999564,,,,448.738188000003,449.65394620000734,449.65394620000734,449.65394620000734,down,8.014574200002244,None,None,,,,,,,,,,,,,,,,,P103,001,2025-02-12_14h59.33.627,posner_endo_new1,2024.2.4,60.10261920803092,2025-02-12 14h59.42.308429 +0000,
cube_l.png,0.1,10,catch,1,1,0,down,3.8570788000070024,None,None,,,,,,,0,1,1,1,,,,,449.65394620000734,,,,,,,,,,,,,449.6383685000037,449.65394620000734,449.65394620000734,449.65394620000734,453.5178416999988,,,,453.52940169999783,453.5396664,453.5396664,453.583464299998,453.5838100999972,453.5999008999934,453.5999008999934,453.5999008999934,453.68316929999855,456.5975899000041,,,,455.69769729999825,456.6135362000059,456.6135362000059,456.6135362000059,down,3.8570788000070024,None,None,,,,,,,,,,,,,,,,,P103,001,2025-02-12_14h59.33.627,posner_endo_new1,2024.2.4,60.10261920803092,2025-02-12 14h59.42.308429 +0000,
cube_l.png,0.1,0.31,invalid,2,2,0,down,4.065079699998023,None,space,0.4102608999965014,None,,,,,0,2,2,2,,,,,456.6135362000059,,,,,,,,,,,,,456.59785789999296,456.6135362000059,456.6135362000059,456.6135362000059,460.6937425000069,,,,460.7052924000018,460.71567190000496,460.71567190000496,460.759366600003,460.75962009999785,460.7758593000035,460.7758593000035,460.7758593000035,460.85920399999304,461.19289219999337,,,,,,,,down,4.065079699998023,None,space,0.4102608999965014,None,,,,,,,,,,,,,,,P103,001,2025-02-12_14h59.33.627,posner_endo_new1,2024.2.4,60.10261920803092,2025-02-12 14h59.42.308429 +0000,
cube_l.png,0.1,0.31,invalid,3,3,0,down,6.428916799995932,None,space,0.42544760000600945,None,,,,,0,3,3,3,,,,,461.20885389999603,,,,,,,,,,,,,461.19309149999754,461.20885389999603,461.20885389999603,461.20885389999603,467.6530197999964,,,,467.6604124000005,467.6719812999945,467.6719812999945,467.71901650000655,467.71926630000235,467.73528340000485,467.73528340000485,467.73528340000485,467.80221330000495,468.16898149999906,,,,,,,,down,6.428916799995932,None,space,0.42544760000600945,None,,,,,,,,,,,,,,,P103,001,2025-02-12_14h59.33.627,posner_endo_new1,2024.2.4,60.10261920803092,2025-02-12 14h59.42.308429 +0000,
cube_l.png,0.1,-0.31,valid,4,4,0,down,6.124876400004723,None,space,0.43392269998730626,None,,,,,0,4,4,4,,,,,468.1851430999959,,,,,,,,,,,,,468.1691756000073,468.1851430999959,468.1851430999959,468.1851430999959,474.3129134000046,,,,474.3204330000008,474.3315575000015,474.3315575000015,474.37865719999536,474.3789053000073,474.3952813000069,474.3952813000069,474.3952813000069,474.46177019999595,474.8456143999938,,,,,,,,down,6.124876400004723,None,space,0.43392269998730626,None,,,,,,,,,,,,,,,P103,001,2025-02-12_14h59.33.627,posner_endo_new1,2024.2.4,60.10261920803092,2025-02-12 14h59.42.308429 +0000,
cube_r.png,0.1,-0.31,invalid,5,5,0,down,6.632801699990523,None,space,0.42666250000183936,None,,,,,0,5,5,5,,,,,474.8614865999989,,,,,,,,,,,,,474.84580929999356,474.8614865999989,474.8614865999989,474.8614865999989,481.5054147000046,,,,481.5128248999972,481.5243691000069,481.5243691000069,481.5713265999948,481.57158190000337,481.587958300006,481.587958300006,481.587958300006,481.6711073000042,482.0216111000045,,,,,,,,down,6.632801699990523,None,space,0.42666250000183936,None,,,,,,,,,,,,,,,P103,001,2025-02-12_14h59.33.627,posner_endo_new1,2024.2.4,60.10261920803092,2025-02-12 14h59.42.308429 +0000,
cube_r.png,0.1,0.31,valid,6,6,0,down,6.112320799991721,None,space,0.4177828999963822,None,,,,,0,6,6,6,,,,,482.03751330000523,,,,,,,,,,,,,482.02180560000124,482.03751330000523,482.03751330000523,482.03751330000523,488.1654019999987,,,,488.17290229999344,488.184087600006,488.184087600006,488.2314871999988,488.23173499999393,488.24787490000017,488.24787490000017,488.24787490000017,488.3309153000009,488.6814127999969,,,,,,,,down,6.112320799991721,None,space,0.4177828999963822,None,,,,,,,,,,,,,,,P103,001,2025-02-12_14h59.33.627,posner_endo_new1,2024.2.4,60.10261920803092,2025-02-12 14h59.42.308429 +0000,
cube_r.png,0.1,-0.31,invalid,7,7,0,down,7.0772302000114,None,space,0.4952001000056043,None,,,,,0,7,7,7,,,,,488.6972467000014,,,,,,,,,,,,,488.68160729999363,488.6972467000014,488.6972467000014,488.6972467000014,495.7909157999966,,,,495.7983249999961,495.80986189999385,495.80986189999385,495.8568635999982,495.85711209999863,495.873316600002,495.873316600002,495.873316600002,495.95649329999287,496.37369059999764,,,,,,,,down,7.0772302000114,None,space,0.4952001000056043,None,,,,,,,,,,,,,,,P103,001,2025-02-12_14h59.33.627,posner_endo_new1,2024.2.4,60.10261920803092,2025-02-12 14h59.42.308429 +0000,
cube_l.png,0.1,-0.31,valid,8,8,0,down,6.977797400002601,None,space,0.4582236999995075,None,,,,,0,8,8,8,,,,,496.38939460000256,,,,,,,,,,,,,496.373886500005,496.38939460000256,496.38939460000256,496.38939460000256,503.3832679000043,,,,503.39076880000357,503.401889700006,503.401889700006,503.4489864000061,503.44923250000284,503.4655521999957,503.4655521999957,503.4655521999957,503.54890650000016,503.9325109000056,,,,,,,,down,6.977797400002601,None,space,0.4582236999995075,None,,,,,,,,,,,,,,,P103,001,2025-02-12_14h59.33.627,posner_endo_new1,2024.2.4,60.10261920803092,2025-02-12 14h59.42.308429 +0000,
cube_r.png,0.1,-0.31,invalid,9,9,0,down,5.513625099993078,None,space,0.41714749998936895,None,,,,,0,9,9,9,,,,,503.9484697000007,,,,,,,,,,,,,503.9327062999946,503.9484697000007,503.9484697000007,503.9484697000007,509.47684299999673,,,,509.4841999000055,509.49571370000194,509.49571370000194,509.5428599000006,509.5431089000049,509.5594409000041,509.5594409000041,509.5594409000041,509.6259301999962,509.99296050000703,,,,,,,,down,5.513625099993078,None,space,0.41714749998936895,None,,,,,,,,,,,,,,,P103,001,2025-02-12_14h59.33.627,posner_endo_new1,2024.2.4,60.10261920803092,2025-02-12 14h59.42.308429 +0000,
cube_l.png,0.1,0.31,invalid,10,10,0,down,5.9571941000031075,None,space,0.4657078000018373,None,,,,,0,10,10,10,,,,,510.00881559999834,,,,,,,,,,,,,509.99315399999614,510.00881559999834,510.00881559999834,510.00881559999834,515.9703975000011,,,,515.9778045999992,515.9891849999985,515.9891849999985,516.036166299993,516.0364239000046,516.0526280000049,516.0526280000049,516.0526280000049,516.1359029000014,516.5199084000051,,,,,,,,down,5.9571941000031075,None,space,0.4657078000018373,None,,,,,,,,,,,,,,,P103,001,2025-02-12_14h59.33.627,posner_endo_new1,2024.2.4,60.10261920803092,2025-02-12 14h59.42.308429 +0000,
cube_r.png,0.1,-0.31,invalid,11,11,0,down,6.7184654000011506,None,space,0.39786530000856146,None,,,,,0,11,11,11,,,,,516.5355060000002,,,,,,,,,,,,,516.5201027000003,516.5355060000002,516.5355060000002,516.5355060000002,523.2628574999981,,,,523.2702738999942,523.2815329000005,523.2815329000005,523.328626100003,523.3288731999928,523.3451754999987,523.3451754999987,523.3451754999987,523.4284846999944,523.7457102000044,,,,,,,,down,6.7184654000011506,None,space,0.39786530000856146,None,,,,,,,,,,,,,,,P103,001,2025-02-12_14h59.33.627,posner_endo_new1,2024.2.4,60.10261920803092,2025-02-12 14h59.42.308429 +0000,
cube_r.png,0.1,0.31,valid,12,12,0,down,6.428393599999254,None,space,0.38690979999955744,None,,,,,0,12,12,12,,,,,523.7614864000061,,,,,,,,,,,,,523.7459071000048,523.7614864000061,523.7614864000061,523.7614864000061,530.2056199999934,,,,530.2130574000039,530.2245606999932,530.2245606999932,530.2716135999945,530.271860599998,530.2882384999975,530.2882384999975,530.2882384999975,530.3547982000018,530.6886900999962,,,,,,,,down,6.428393599999254,None,space,0.38690979999955744,None,,,,,,,,,,,,,,,P103,001,2025-02-12_14h59.33.627,posner_endo_new1,2024.2.4,60.10261920803092,2025-02-12 14h59.42.308429 +0000,
cube_l.png,0.1,10,catch,13,13,0,down,7.14217120000103,None,None,,,,,,,0,13,13,13,,,,,530.7044439000019,,,,,,,,,,,,,530.6888868999959,530.7044439000019,530.7044439000019,530.7044439000019,537.847926100003,,,,537.8553454000066,537.8667735000054,537.8667735000054,537.9138627000066,537.9141119999986,537.9304254000017,537.9304254000017,537.9304254000017,537.9969073999964,540.9277900000016,,,,540.0116388000024,540.9439970999956,540.9439970999956,540.9439970999956,down,7.14217120000103,None,None,,,,,,,,,,,,,,,,,P103,001,2025-02-12_14h59.33.627,posner_endo_new1,2024.2.4,60.10261920803092,2025-02-12 14h59.42.308429 +0000,
cube_r.png,0.1,-0.31,invalid,14,14,0,down,4.158304000011412,None,space,0.4493529000028502,None,,,,,0,14,14,14,,,,,540.9439970999956,,,,,,,,,,,,,540.9279735000018,540.9439970999956,540.9439970999956,540.9439970999956,545.1070329000067,,,,545.1144914000033,545.125884699999,545.125884699999,545.1729049999994,545.1731537000014,545.1894994000031,545.1894994000031,545.1894994000031,545.2561240000068,545.639926200005,,,,,,,,down,4.158304000011412,None,space,0.4493529000028502,None,,,,,,,,,,,,,,,P103,001,2025-02-12_14h59.33.627,posner_endo_new1,2024.2.4,60.10261920803092,2025-02-12 14h59.42.308429 +0000,
cube_l.png,0.1,-0.31,valid,15,15,0,down,6.814389099992695,None,space,0.4605821000004653,None,,,,,0,15,15,15,,,,,545.6557142999955,,,,,,,,,,,,,545.6401249000046,545.6557142999955,545.6557142999955,545.6557142999955,552.4828501000011,,,,552.4905816999963,552.5017424999969,552.5017424999969,552.548784300001,552.549033400006,552.5654297000001,552.5654297000001,552.5654297000001,552.631910600001,553.0326012000005,,,,,,,,down,6.814389099992695,None,space,0.4605821000004653,None,,,,,,,,,,,,,,,P103,001,2025-02-12_14h59.33.627,posner_endo_new1,2024.2.4,60.10261920803092,2025-02-12 14h59.42.308429 +0000,
cube_r.png,0.1,10,catch,16,16,0,down,6.943199200002709,None,None,,,,,,,0,16,16,16,,,,,553.0480314000015,,,,,,,,,,,,,553.0327977999987,553.0480314000015,553.0480314000015,553.0480314000015,559.9920762999973,,,,559.9996198000008,560.0106131000066,560.0106131000066,560.0577069999999,560.057956100005,560.0743317000015,560.0743317000015,560.0743317000015,560.1576647000038,563.0717864000035,,,,562.1722074999998,563.087841600005,563.087841600005,563.087841600005,down,6.943199200002709,None,None,,,,,,,,,,,,,,,,,P103,001,2025-02-12_14h59.33.627,posner_endo_new1,2024.2.4,60.10261920803092,2025-02-12 14h59.42.308429 +0000,
cube_r.png,0.1,10,catch,17,17,0,down,3.622133099997882,None,None,,,,,,,0,17,17,17,,,,,563.087841600005,,,,,,,,,,,,,563.0719669999962,563.087841600005,563.087841600005,563.087841600005,566.7182872999983,,,,566.7257574999967,566.7371992999979,566.7371992999979,566.784172700005,566.7844186000002,566.8006352999946,566.8006352999946,566.8006352999946,566.8674540000065,569.7982476000034,,,,568.8822010000004,569.8143413000071,569.8143413000071,569.8143413000071,down,3.622133099997882,None,None,,,,,,,,,,,,,,,,,P103,001,2025-02-12_14h59.33.627,posner_endo_new1,2024.2.4,60.10261920803092,2025-02-12 14h59.42.308429 +0000,
cube_l.png,0.1,0.31,invalid,18,18,0,down,3.8159909000096377,None,space,0.4639381000015419,None,,,,,0,18,18,18,,,,,569.8143413000071,,,,,,,,,,,,,569.7984397999971,569.8143413000071,569.8143413000071,569.8143413000071,573.6445285999944,,,,573.652059400003,573.6635639000015,573.6635639000015,573.7104434999928,573.7106904999964,573.7268811999966,573.7268811999966,573.7268811999966,573.8102792999998,574.1940720999992,,,,,,,,down,3.8159909000096377,None,space,0.4639381000015419,None,,,,,,,,,,,,,,,P103,001,2025-02-12_14h59.33.627,posner_endo_new1,2024.2.4,60.10261920803092,2025-02-12 14h59.42.308429 +0000,
cube_l.png,0.1,10,catch,19,19,0,down,7.75784369999019,None,None,,,,,,,0,19,19,19,,,,,574.2097784999933,,,,,,,,,,,,,574.1942662999936,574.2097784999933,574.2097784999933,574.2097784999933,581.9696999000007,,,,581.9771248000034,581.9881591000012,581.9881591000012,582.0351257000002,582.0353759999998,582.0519687000051,582.0519687000051,582.0519687000051,582.1350437999936,585.0494805000053,,,,584.1496794999985,585.0654803999932,585.0654803999932,585.0654803999932,down,7.75784369999019,None,None,,,,,,,,,,,,,,,,,P103,001,2025-02-12_14h59.33.627,posner_endo_new1,2024.2.4,60.10261920803092,2025-02-12 14h59.42.308429 +0000,
cube_l.png,0.1,0.31,invalid,20,20,0,down,5.2290856000036,None,space,0.5183781999949133,None,,,,,0,20,20,20,,,,,585.0654803999932,,,,,,,,,,,,,585.049662999998,585.0654803999932,585.0654803999932,585.0654803999932,590.3108894000034,,,,590.3182934999932,590.3296029000048,590.3296029000048,590.3768913999957,590.3771398999961,590.3933912000066,590.3933912000066,590.3933912000066,590.4599190000008,590.9269292999961,,,,,,,,down,5.2290856000036,None,space,0.5183781999949133,None,,,,,,,,,,,,,,,P103,001,2025-02-12_14h59.33.627,posner_endo_new1,2024.2.4,60.10261920803092,2025-02-12 14h59.42.308429 +0000,
cube_l.png,0.1,-0.31,valid,21,21,0,down,7.303067899993039,None,space,0.3903730000020005,None,,,,,0,21,21,21,,,,,590.9427334000065,,,,,,,,,,,,,590.9271255000058,590.9427334000065,590.9427334000065,590.9427334000065,598.2526625000028,,,,598.2602155000059,598.2715994000027,598.2715994000027,598.3185727999953,598.3188240000018,598.3351235000009,598.3351235000009,598.3351235000009,598.4018376000022,598.7356739999959,,,,,,,,down,7.303067899993039,None,space,0.3903730000020005,None,,,,,,,,,,,,,,,P103,001,2025-02-12_14h59.33.627,posner_endo_new1,2024.2.4,60.10261920803092,2025-02-12 14h59.42.308429 +0000,
cube_r.png,0.1,0.31,valid,22,22,0,down,7.495649199991021,None,space,0.457139999998617,None,,,,,0,22,22,22,,,,,598.751340200004,,,,,,,,,,,,,598.7358692999987,598.751340200004,598.751340200004,598.751340200004,606.2612777000031,,,,606.2686801999953,606.2800164000073,606.2800164000073,606.3271660000028,606.3274125000025,606.343647200003,606.343647200003,606.343647200003,606.426950699999,606.8106325999979,,,,,,,,down,7.495649199991021,None,space,0.457139999998617,None,,,,,,,,,,,,,,,P103,001,2025-02-12_14h59.33.627,posner_endo_new1,2024.2.4,60.10261920803092,2025-02-12 14h59.42.308429 +0000,
cube_r.png,0.1,-0.31,invalid,23,23,0,down,6.9637020000081975,None,space,0.47527850000187755,None,,,,,0,23,23,23,,,,,606.8265054999938,,,,,,,,,,,,,606.8108323000051,606.8265054999938,606.8265054999938,606.8265054999938,613.8034306000045,,,,613.8108428999985,613.8223307000007,613.8223307000007,613.8694322999945,613.8696799000027,613.8858297999977,613.8858297999977,613.8858297999977,613.9525257000059,614.3697026000009,,,,,,,,down,6.9637020000081975,None,space,0.47527850000187755,None,,,,,,,,,,,,,,,P103,001,2025-02-12_14h59.33.627,posner_endo_new1,2024.2.4,60.10261920803092,2025-02-12 14h59.42.308429 +0000,
cube_r.png,0.1,0.31,valid,24,24,0,down,6.764603400006308,None,space,0.36808149999706075,None,,,,,0,24,24,24,,,,,614.3854857999977,,,,,,,,,,,,,614.369895900003,614.3854857999977,614.3854857999977,614.3854857999977,621.1626580000011,,,,621.1700010000059,621.1815620999987,621.1815620999987,621.2284990000044,621.2287463999965,621.2450408000004,621.2450408000004,621.2450408000004,621.3116360999993,621.6288760000025,,,,,,,,down,6.764603400006308,None,space,0.36808149999706075,None,,,,,,,,,,,,,,,P103,001,2025-02-12_14h59.33.627,posner_endo_new1,2024.2.4,60.10261920803092,2025-02-12 14h59.42.308429 +0000,
cube_r.png,0.1,-0.31,invalid,25,25,0,down,7.170273299998371,None,space,0.49471720001020003,None,,,,,0,25,25,25,,,,,621.6447714999958,,,,,,,,,,,,,621.6290753999929,621.6447714999958,621.6447714999958,621.6447714999958,628.8215606000012,,,,628.8289697,628.8403518999985,628.8403518999985,628.8872918999987,628.887541300006,628.9040307999967,628.9040307999967,628.9040307999967,628.9872762000014,629.4043307999964,,,,,,,,down,7.170273299998371,None,space,0.49471720001020003,None,,,,,,,,,,,,,,,P103,001,2025-02-12_14h59.33.627,posner_endo_new1,2024.2.4,60.10261920803092,2025-02-12 14h59.42.308429 +0000,
cube_l.png,0.1,-0.31,valid,26,26,0,down,7.450157900006161,None,space,0.3847848999866983,None,,,,,0,26,26,26,,,,,629.4200380999973,,,,,,,,,,,,,629.4045255999954,629.4200380999973,629.4200380999973,629.4200380999973,636.8799483000039,,,,636.8873299999977,636.9104741000046,636.9104741000046,636.9458677999937,636.9461169999995,636.9623583999928,636.9623583999928,636.9623583999928,637.0456018999976,637.3627624000073,,,,,,,,down,7.450157900006161,None,space,0.3847848999866983,None,,,,,,,,,,,,,,,P103,001,2025-02-12_14h59.33.627,posner_endo_new1,2024.2.4,60.10261920803092,2025-02-12 14h59.42.308429 +0000,
cube_r.png,0.1,0.31,valid,27,27,0,down,7.643828499989468,None,space,0.34856879999279045,None,,,,,0,27,27,27,,,,,637.3784926999942,,,,,,,,,,,,,637.3629580999987,637.3784926999942,637.3784926999942,637.3784926999942,645.0381679999991,,,,645.0455939999956,645.0570507999946,645.0570507999946,645.1042178000062,645.1044772000023,645.1207681999949,645.1207681999949,645.1207681999949,645.1872945000068,645.4713293999957,,,,,,,,down,7.643828499989468,None,space,0.34856879999279045,None,,,,,,,,,,,,,,,P103,001,2025-02-12_14h59.33.627,posner_endo_new1,2024.2.4,60.10261920803092,2025-02-12 14h59.42.308429 +0000,
cube_r.png,0.1,10,catch,28,28,0,down,8.735599699997692,None,None,,,,,,,0,28,28,28,,,,,645.4870389999996,,,,,,,,,,,,,645.4715278999938,645.4870389999996,645.4870389999996,645.4870389999996,654.2287061999959,,,,654.2361033000052,654.2479300999985,654.2479300999985,654.2948097000044,654.2950554999989,654.3112239000038,654.3112239000038,654.3112239000038,654.3777685999958,657.308746499999,,,,656.392425900005,657.3247975999984,657.3247975999984,657.3247975999984,down,8.735599699997692,None,None,,,,,,,,,,,,,,,,,P103,001,2025-02-12_14h59.33.627,posner_endo_new1,2024.2.4,60.10261920803092,2025-02-12 14h59.42.308429 +0000,
cube_r.png,0.1,0.31,valid,29,29,0,down,2.8502388000051724,None,space,0.4377175999979954,None,,,,,0,29,29,29,,,,,657.3247975999984,,,,,,,,,,,,,657.3089267000032,657.3247975999984,657.3247975999984,657.3247975999984,660.1894729000051,,,,660.1967833999952,660.208335400006,660.208335400006,660.2552984999929,660.2555457999988,660.2719382000068,660.2719382000068,660.2719382000068,660.3550111999939,660.7222412999981,,,,,,,,down,2.8502388000051724,None,space,0.4377175999979954,None,,,,,,,,,,,,,,,P103,001,2025-02-12_14h59.33.627,posner_endo_new1,2024.2.4,60.10261920803092,2025-02-12 14h59.42.308429 +0000,
cube_r.png,0.1,0.31,valid,30,30,0,down,6.740206700007548,None,space,0.5172347999905469,None,,,,,0,30,30,30,,,,,660.7379531000042,,,,,,,,,,,,,660.7224353000056,660.7379531000042,660.7379531000042,660.7379531000042,667.4819240999932,,,,667.4893040000024,667.5007630000036,667.5007630000036,667.5477002999978,667.5479564999987,667.5643555999995,667.5643555999995,667.5643555999995,667.6309273999941,668.0979933000053,,,,,,,,down,6.740206700007548,None,space,0.5172347999905469,None,,,,,,,,,,,,,,,P103,001,2025-02-12_14h59.33.627,posner_endo_new1,2024.2.4,60.10261920803092,2025-02-12 14h59.42.308429 +0000,
cube_l.png,0.1,-0.31,valid,31,31,0,down,6.748515799990855,None,space,0.49450790000264533,None,,,,,0,31,31,31,,,,,668.1136434000073,,,,,,,,,,,,,668.0981907999958,668.1136434000073,668.1136434000073,668.1136434000073,674.8742977999937,,,,674.8816520999972,674.8934135000018,674.8934135000018,674.9403680999967,674.940614799998,674.9567231999972,674.9567231999972,674.9567231999972,675.0233701999969,675.4571978000022,,,,,,,,down,6.748515799990855,None,space,0.49450790000264533,None,,,,,,,,,,,,,,,P103,001,2025-02-12_14h59.33.627,posner_endo_new1,2024.2.4,60.10261920803092,2025-02-12 14h59.42.308429 +0000,
cube_r.png,0.1,0.31,valid,32,32,0,down,5.125598500002525,None,space,0.4731177000066964,None,,,,,0,32,32,32,,,,,675.4729189000063,,,,,,,,,,,,,675.4573928000027,675.4729189000063,675.4729189000063,675.4729189000063,680.6018687000033,,,,680.6093064000015,680.6207231000008,680.6207231000008,680.6677340000024,680.6679829000059,680.684325299997,680.684325299997,680.684325299997,680.7675461000035,681.1680513000028,,,,,,,,down,5.125598500002525,None,space,0.4731177000066964,None,,,,,,,,,,,,,,,P103,001,2025-02-12_14h59.33.627,posner_endo_new1,2024.2.4,60.10261920803092,2025-02-12 14h59.42.308429 +0000,
cube_r.png,0.1,-0.31,invalid,33,33,0,down,9.222128800000064,None,space,0.4226205999875674,None,,,,,0,33,33,33,,,,,681.1837950000045,,,,,,,,,,,,,681.1682460000011,681.1837950000045,681.1837950000045,681.1837950000045,690.4085808999953,,,,690.4159547000017,690.4388801000023,690.4388801000023,690.4743400000007,690.4745977999992,690.4909770999948,690.4909770999948,690.4909770999948,690.5742805000045,690.9246019999991,,,,,,,,down,9.222128800000064,None,space,0.4226205999875674,None,,,,,,,,,,,,,,,P103,001,2025-02-12_14h59.33.627,posner_endo_new1,2024.2.4,60.10261920803092,2025-02-12 14h59.42.308429 +0000,
cube_r.png,0.1,10,catch,34,34,0,down,8.057687900000019,None,None,,,,,,,0,34,34,34,,,,,690.9405134999979,,,,,,,,,,,,,690.9248009000003,690.9405134999979,690.9405134999979,690.9405134999979,698.9999021999975,,,,699.0073018999974,699.0185354999994,699.0185354999994,699.0655906000029,699.0658387000003,699.0821829000051,699.0821829000051,699.0821829000051,699.1654582000047,702.0797814999969,,,,701.1798998000013,702.0958432000043,702.0958432000043,702.0958432000043,down,8.057687900000019,None,None,,,,,,,,,,,,,,,,,P103,001,2025-02-12_14h59.33.627,posner_endo_new1,2024.2.4,60.10261920803092,2025-02-12 14h59.42.308429 +0000,
cube_r.png,0.1,0.31,valid,35,35,0,down,2.270447699993383,None,space,0.5370101000007708,None,,,,,0,35,35,35,,,,,702.0958432000043,,,,,,,,,,,,,702.0799613999989,702.0958432000043,702.0958432000043,702.0958432000043,704.377416599993,,,,704.3848847000045,704.3964111999958,704.3964111999958,704.4432666000066,704.4435142000002,704.4599918000022,704.4599918000022,704.4599918000022,704.5266728999995,705.0100938999967,,,,,,,,down,2.270447699993383,None,space,0.5370101000007708,None,,,,,,,,,,,,,,,P103,001,2025-02-12_14h59.33.627,posner_endo_new1,2024.2.4,60.10261920803092,2025-02-12 14h59.42.308429 +0000,
cube_r.png,0.1,-0.31,invalid,36,36,0,down,8.580263299998478,None,space,0.41190910000295844,None,,,,,0,36,36,36,,,,,705.0260084000038,,,,,,,,,,,,,705.0102887999965,705.0260084000038,705.0260084000038,705.0260084000038,713.6181414000021,,,,713.625526200005,713.6369045000029,713.6369045000029,713.6839353999967,713.6841828000033,713.700428199998,713.700428199998,713.700428199998,713.7671769000008,714.1176435999951,,,,,,,,down,8.580263299998478,None,space,0.41190910000295844,None,,,,,,,,,,,,,,,P103,001,2025-02-12_14h59.33.627,posner_endo_new1,2024.2.4,60.10261920803092,2025-02-12 14h59.42.308429 +0000,
cube_l.png,0.1,0.31,invalid,37,37,0,down,6.817534200003138,None,space,0.41710729998885654,None,,,,,0,37,37,37,,,,,714.1333025000058,,,,,,,,,,,,,714.1178400000063,714.1333025000058,714.1333025000058,714.1333025000058,720.9606717999995,,,,720.9682096000033,720.979388199994,720.979388199994,721.0264821000019,721.0267312000069,721.0430786999932,721.0430786999932,721.0430786999932,721.126291499997,721.4767731000029,,,,,,,,down,6.817534200003138,None,space,0.41710729998885654,None,,,,,,,,,,,,,,,P103,001,2025-02-12_14h59.33.627,posner_endo_new1,2024.2.4,60.10261920803092,2025-02-12 14h59.42.308429 +0000,
cube_l.png,0.1,0.31,invalid,38,38,0,down,13.305935900003533,None,space,0.4688647000002675,None,,,,,0,38,38,38,,,,,721.4924732000072,,,,,,,,,,,,,721.4769706999941,721.4924732000072,721.4924732000072,721.4924732000072,734.8131089999952,,,,734.820489699996,734.831846800007,734.831846800007,734.8789245999942,734.8791792999982,734.8954345999955,734.8954345999955,734.8954345999955,734.9788043000008,735.379050699994,,,,,,,,down,13.305935900003533,None,space,0.4688647000002675,None,,,,,,,,,,,,,,,P103,001,2025-02-12_14h59.33.627,posner_endo_new1,2024.2.4,60.10261920803092,2025-02-12 14h59.42.308429 +0000,
cube_r.png,0.1,0.31,valid,39,39,0,down,7.219829199995729,None,space,0.42490600000019185,None,,,,,0,39,39,39,,,,,735.3950006999949,,,,,,,,,,,,,735.3792498999974,735.3950006999949,735.3950006999949,735.3950006999949,742.6218190000072,,,,742.6291907999985,742.6519802999974,742.6519802999974,742.6876015000016,742.6878514999989,742.7040962000028,742.7040962000028,742.7040962000028,742.7875582999986,743.1377896000049,,,,,,,,down,7.219829199995729,None,space,0.42490600000019185,None,,,,,,,,,,,,,,,P103,001,2025-02-12_14h59.33.627,posner_endo_new1,2024.2.4,60.10261920803092,2025-02-12 14h59.42.308429 +0000,
cube_l.png,0.1,0.31,invalid,40,40,0,down,4.916992899990873,None,space,0.5246052000002237,None,,,,,0,40,40,40,,,,,743.1537271999987,,,,,,,,,,,,,743.1379878000007,743.1537271999987,743.1537271999987,743.1537271999987,748.0829971000057,,,,748.0902881999937,748.1016825999977,748.1016825999977,748.1487690999929,748.1490216999955,748.1652833999979,748.1652833999979,748.1652833999979,748.2485179000068,748.6988279999932,,,,,,,,down,4.916992899990873,None,space,0.5246052000002237,None,,,,,,,,,,,,,,,P103,001,2025-02-12_14h59.33.627,posner_endo_new1,2024.2.4,60.10261920803092,2025-02-12 14h59.42.308429 +0000,
cube_l.png,0.1,10,catch,41,41,0,down,6.459825400001137,None,None,,,,,,,0,41,41,41,,,,,748.7147846000007,,,,,,,,,,,,,748.6990269999951,748.7147846000007,748.7147846000007,748.7147846000007,755.1756902000052,,,,755.1830225000012,755.1943526999967,755.1943526999967,755.2413418999931,755.241589199999,755.2580310000048,755.2580310000048,755.2580310000048,755.3412785999972,758.2553982999962,,,,757.3560025000043,758.2715710000048,758.2715710000048,758.2715710000048,down,6.459825400001137,None,None,,,,,,,,,,,,,,,,,P103,001,2025-02-12_14h59.33.627,posner_endo_new1,2024.2.4,60.10261920803092,2025-02-12 14h59.42.308429 +0000,
cube_l.png,0.1,-0.31,valid,42,42,0,down,2.8388608999957796,None,space,0.5027422999992268,None,,,,,0,42,42,42,,,,,758.2715710000048,,,,,,,,,,,,,758.2555787000019,758.2715710000048,758.2715710000048,758.2715710000048,761.1196430999989,,,,761.1271792000043,761.1382350000058,761.1382350000058,761.1854924999934,761.1857407000061,761.2018150999938,761.2018150999938,761.2018150999938,761.2851315000007,761.7190549999941,,,,,,,,down,2.8388608999957796,None,space,0.5027422999992268,None,,,,,,,,,,,,,,,P103,001,2025-02-12_14h59.33.627,posner_endo_new1,2024.2.4,60.10261920803092,2025-02-12 14h59.42.308429 +0000,
cube_l.png,0.1,10,catch,43,43,0,down,8.071951400008402,None,None,,,,,,,0,43,43,43,,,,,761.7346338000061,,,,,,,,,,,,,761.7192505999992,761.7346338000061,761.7346338000061,761.7346338000061,769.8106361999962,,,,769.818002999993,769.8294557000045,769.8294557000045,769.8764934000064,769.8767482999974,769.892989999993,769.892989999993,769.892989999993,769.9596247000009,772.8905457999936,,,,771.9742901999998,772.906713000004,772.906713000004,772.906713000004,down,8.071951400008402,None,None,,,,,,,,,,,,,,,,,P103,001,2025-02-12_14h59.33.627,posner_endo_new1,2024.2.4,60.10261920803092,2025-02-12 14h59.42.308429 +0000,
cube_l.png,0.1,0.31,invalid,44,44,0,down,4.019365000000107,None,space,0.5011483999987831,None,,,,,0,44,44,44,,,,,772.906713000004,,,,,,,,,,,,,772.8907271000062,772.906713000004,772.906713000004,772.906713000004,776.9365445000003,,,,776.9439060000004,776.9554891000007,776.9554891000007,777.0025634000049,777.0028108999977,777.0192036999943,777.0192036999943,777.0192036999943,777.0857848000014,777.5359740999993,,,,,,,,down,4.019365000000107,None,space,0.5011483999987831,None,,,,,,,,,,,,,,,P103,001,2025-02-12_14h59.33.627,posner_endo_new1,2024.2.4,60.10261920803092,2025-02-12 14h59.42.308429 +0000,
cube_l.png,0.1,0.31,invalid,45,45,0,down,8.854427899990696,None,space,0.446197299999767,None,,,,,0,45,45,45,,,,,777.5519777000009,,,,,,,,,,,,,777.5361705999967,777.5519777000009,777.5519777000009,777.5519777000009,786.4103189000016,,,,786.4176977000025,786.4291186000046,786.4291186000046,786.4762103999965,786.4764636000036,786.4927743000007,786.4927743000007,786.4927743000007,786.5760161000071,786.943423100005,,,,,,,,down,8.854427899990696,None,space,0.446197299999767,None,,,,,,,,,,,,,,,P103,001,2025-02-12_14h59.33.627,posner_endo_new1,2024.2.4,60.10261920803092,2025-02-12 14h59.42.308429 +0000,
cube_r.png,0.1,0.31,valid,46,46,0,down,11.167458999989321,None,space,0.43440800000098534,None,,,,,0,46,46,46,,,,,786.9588375000021,,,,,,,,,,,,,786.9436164999934,786.9588375000021,786.9588375000021,786.9588375000021,798.1316884999978,,,,798.1390749999991,798.1502054000011,798.1502054000011,798.1975533999939,798.1978372000012,798.2138647999964,798.2138647999964,798.2138647999964,798.2972123999934,798.6644796000037,,,,,,,,down,11.167458999989321,None,space,0.43440800000098534,None,,,,,,,,,,,,,,,P103,001,2025-02-12_14h59.33.627,posner_endo_new1,2024.2.4,60.10261920803092,2025-02-12 14h59.42.308429 +0000,
cube_l.png,0.1,-0.31,valid,47,47,0,down,6.534773399995174,None,space,0.3988002999976743,None,,,,,0,47,47,47,,,,,798.680145499995,,,,,,,,,,,,,798.6646746000042,798.680145499995,798.680145499995,798.680145499995,805.2244613999937,,,,805.231956699994,805.2432485000027,805.2432485000027,805.2900799000054,805.2903270999959,805.3068739000009,805.3068739000009,805.3068739000009,805.3900897999993,805.7074038999999,,,,,,,,down,6.534773399995174,None,space,0.3988002999976743,None,,,,,,,,,,,,,,,P103,001,2025-02-12_14h59.33.627,posner_endo_new1,2024.2.4,60.10261920803092,2025-02-12 14h59.42.308429 +0000,
cube_r.png,0.1,-0.31,invalid,48,48,0,down,7.611949999991339,None,space,0.5053637999953935,None,,,,,0,48,48,48,,,,,805.722941999993,,,,,,,,,,,,,805.7075979999936,805.722941999993,805.722941999993,805.722941999993,813.3494111000036,,,,813.3568984000012,813.3681787999958,813.3681787999958,813.4153653999965,813.4155924999941,813.4316727999976,813.4316727999976,813.4316727999976,813.4984364999982,813.9487300000037,,,,,,,,down,7.611949999991339,None,space,0.5053637999953935,None,,,,,,,,,,,,,,,P103,001,2025-02-12_14h59.33.627,posner_endo_new1,2024.2.4,60.10261920803092,2025-02-12 14h59.42.308429 +0000,
cube_r.png,0.1,10,catch,49,49,0,down,7.1300424999935785,None,None,,,,,,,0,49,49,49,,,,,813.9646300000022,,,,,,,,,,,,,813.9488985000062,813.9646300000022,813.9646300000022,813.9646300000022,821.1081535999983,,,,821.1141250999935,821.1255302000063,821.1255302000063,821.1739671999967,821.1741918000043,821.1906118000043,821.1906118000043,821.1906118000043,821.2572045999987,824.188013299994,,,,823.2716112000053,824.2043162000045,824.2043162000045,824.2043162000045,down,7.1300424999935785,None,None,,,,,,,,,,,,,,,,,P103,001,2025-02-12_14h59.33.627,posner_endo_new1,2024.2.4,60.10261920803092,2025-02-12 14h59.42.308429 +0000,
cube_l.png,0.1,-0.31,valid,50,50,0,down,4.099019100001897,None,space,0.5898286000010557,None,,,,,0,50,50,50,,,,,824.2043162000045,,,,,,,,,,,,,824.1881714000046,824.2043162000045,824.2043162000045,824.2043162000045,828.3173397000064,,,,828.323407200005,828.3348475999956,828.3348475999956,828.3832189999957,828.3834408999974,828.3999851999979,828.3999851999979,828.3999851999979,828.4663930999959,828.999940099995,,,,,,,,down,4.099019100001897,None,space,0.5898286000010557,None,,,,,,,,,,,,,,,P103,001,2025-02-12_14h59.33.627,posner_endo_new1,2024.2.4,60.10261920803092,2025-02-12 14h59.42.308429 +0000,
cube_l.png,0.1,-0.31,valid,51,51,0,down,6.934081100000185,None,space,0.5772992999991402,None,,,,,0,51,51,51,,,,,829.015916999997,,,,,,,,,,,,,829.0001195999939,829.015916999997,829.015916999997,829.015916999997,835.9596552000003,,,,835.965651999999,835.977232899997,835.977232899997,836.0253777000034,836.0256018000073,836.0420857999998,836.0420857999998,836.0420857999998,836.1084604000062,836.625177599999,,,,,,,,down,6.934081100000185,None,space,0.5772992999991402,None,,,,,,,,,,,,,,,P103,001,2025-02-12_14h59.33.627,posner_endo_new1,2024.2.4,60.10261920803092,2025-02-12 14h59.42.308429 +0000,
cube_r.png,0.1,-0.31,invalid,52,52,0,down,7.2364431000023615,None,space,0.46648410000489093,None,,,,,0,52,52,52,,,,,836.6414071000036,,,,,,,,,,,,,836.6253492999967,836.6414071000036,836.6414071000036,836.6414071000036,843.8846197999956,,,,843.8916043000063,843.9032335999946,843.9032335999946,843.9506238000031,843.9508472000016,843.9673758999998,843.9673758999998,843.9673758999998,844.0338915000029,844.450977200002,,,,,,,,down,7.2364431000023615,None,space,0.46648410000489093,None,,,,,,,,,,,,,,,P103,001,2025-02-12_14h59.33.627,posner_endo_new1,2024.2.4,60.10261920803092,2025-02-12 14h59.42.308429 +0000,
cube_l.png,0.1,-0.31,valid,53,53,0,down,6.459788299995125,None,space,0.594769900009851,None,,,,,0,53,53,53,,,,,844.4668214999983,,,,,,,,,,,,,844.4511520999949,844.4668214999983,844.4668214999983,844.4668214999983,850.9275631000055,,,,850.9341214000015,850.9458735999942,850.9458735999942,850.9933805000037,850.9936042000045,851.0100144000025,851.0100144000025,851.0100144000025,851.0766900000017,851.6101767000073,,,,,,,,down,6.459788299995125,None,space,0.594769900009851,None,,,,,,,,,,,,,,,P103,001,2025-02-12_14h59.33.627,posner_endo_new1,2024.2.4,60.10261920803092,2025-02-12 14h59.42.308429 +0000,
cube_r.png,0.1,10,catch,54,54,0,down,7.2603358999913326,None,None,,,,,,,0,54,54,54,,,,,851.6260976000049,,,,,,,,,,,,,851.6103459000005,851.6260976000049,851.6260976000049,851.6260976000049,858.9027208000043,,,,858.9093698999932,858.9211617999972,858.9211617999972,858.968592499994,858.9688163999963,858.9852172999963,858.9852172999963,858.9852172999963,859.0519453000015,861.9825853999937,,,,861.0664389000012,861.9989252999949,861.9989252999949,861.9989252999949,down,7.2603358999913326,None,None,,,,,,,,,,,,,,,,,P103,001,2025-02-12_14h59.33.627,posner_endo_new1,2024.2.4,60.10261920803092,2025-02-12 14h59.42.308429 +0000,
cube_l.png,0.1,0.31,invalid,55,55,0,down,4.911400099997991,None,space,0.49097849999088794,None,,,,,0,55,55,55,,,,,861.9989252999949,,,,,,,,,,,,,861.9827426999982,861.9989252999949,861.9989252999949,861.9989252999949,866.911366100001,,,,866.9187280000042,866.9300940999965,866.9300940999965,866.977129100007,866.977364499995,866.9936901000037,866.9936901000037,866.9936901000037,867.0602250999946,867.4938956999977,,,,,,,,down,4.911400099997991,None,space,0.49097849999088794,None,,,,,,,,,,,,,,,P103,001,2025-02-12_14h59.33.627,posner_endo_new1,2024.2.4,60.10261920803092,2025-02-12 14h59.42.308429 +0000,
cube_l.png,0.1,-0.31,valid,56,56,0,down,6.368991299998015,None,space,0.3833755999949062,None,,,,,0,56,56,56,,,,,867.5097458999953,,,,,,,,,,,,,867.4940638999979,867.5097458999953,867.5097458999953,867.5097458999953,873.8873253000056,,,,873.8942118999985,873.9060254000069,873.9060254000069,873.9534751000028,873.9537018999981,873.9699662000057,873.9699662000057,873.9699662000057,874.0364573999977,874.3702721000009,,,,,,,,down,6.368991299998015,None,space,0.3833755999949062,None,,,,,,,,,,,,,,,P103,001,2025-02-12_14h59.33.627,posner_endo_new1,2024.2.4,60.10261920803092,2025-02-12 14h59.42.308429 +0000,
cube_r.png,0.1,0.31,valid,57,57,0,down,6.476042800000869,None,space,0.43650690000504255,None,,,,,0,57,57,57,,,,,874.3861661999981,,,,,,,,,,,,,874.3704411000072,874.3861661999981,874.3861661999981,874.3861661999981,880.8638683000027,,,,880.8707560000039,880.8822465999983,880.8822465999983,880.9297096999944,880.9299326000037,880.9461066999938,880.9461066999938,880.9461066999938,881.0294925000053,881.3963759000035,,,,,,,,down,6.476042800000869,None,space,0.43650690000504255,None,,,,,,,,,,,,,,,P103,001,2025-02-12_14h59.33.627,posner_endo_new1,2024.2.4,60.10261920803092,2025-02-12 14h59.42.308429 +0000,
cube_r.png,0.1,-0.31,invalid,58,58,0,down,6.849929400006658,None,space,0.48807599999418017,None,,,,,0,58,58,58,,,,,881.4123522000009,,,,,,,,,,,,,881.3965487999958,881.4123522000009,881.4123522000009,881.4123522000009,888.2727157000045,,,,888.279843700002,888.2914584999962,888.2914584999962,888.3386327000044,888.338857900002,888.3554307000013,888.3554307000013,888.3554307000013,888.4218062,888.8553732,,,,,,,,down,6.849929400006658,None,space,0.48807599999418017,None,,,,,,,,,,,,,,,P103,001,2025-02-12_14h59.33.627,posner_endo_new1,2024.2.4,60.10261920803092,2025-02-12 14h59.42.308429 +0000,
cube_l.png,0.1,0.31,invalid,59,59,0,down,7.520191299990984,None,space,0.4321981999964919,None,,,,,0,59,59,59,,,,,888.8714057000034,,,,,,,,,,,,,888.8555416000017,888.8714057000034,888.8714057000034,888.8714057000034,896.3977612000017,,,,896.4045276999968,896.4165228000056,896.4165228000056,896.4636909999972,896.4639141999942,896.4800931000063,896.4800931000063,896.4800931000063,896.5468194999994,896.9140372999973,,,,,,,,down,7.520191299990984,None,space,0.4321981999964919,None,,,,,,,,,,,,,,,P103,001,2025-02-12_14h59.33.627,posner_endo_new1,2024.2.4,60.10261920803092,2025-02-12 14h59.42.308429 +0000,
,,,,,,,,,,,,,,,,,,,,,,,,,,,,,,,,,,,,,,,,,,,,,,,,,,,,,,,,,,,,,,,,,,,,,896.9141473000054,896.9297412000014,896.9297412000014,956.9351562999946,972.6860151000001,space,75.74037739999767,None,,,,,,,P103,001,2025-02-12_14h59.33.627,posner_endo_new1,2024.2.4,60.10261920803092,2025-02-12 14h59.42.308429 +0000,
,,,,,,,,,,,,,,,,,,,,,,,,,,,,,,,,,,972.6860683999985,972.7022526999936,975.703698199999,975.6830833999993,,,,,,,,,,,,,,,,,,,,,,,,,,,,,,,,,,,,,,,,,,,,,,P103,001,2025-02-12_14h59.33.627,posner_endo_new1,2024.2.4,60.10261920803092,2025-02-12 14h59.42.308429 +0000,
cube_l.png,0.1,10,catch,0,0,0,up,9.12619349999295,None,None,,,,,,,,,,,0,0,0,0,975.703698199999,,,,,,,,,,,,,975.6948265999963,975.703698199999,975.703698199999,975.703698199999,984.8406251999986,,,,984.8468189999985,984.8586482999963,984.8586482999963,984.9066889999958,984.9069189000002,984.9229731999949,984.9229731999949,984.9229731999949,985.0061966000067,987.9204654000059,,,,987.0208131999971,987.9366865000047,987.9366865000047,987.9366865000047,,,,,,,,,,,,,,,up,9.12619349999295,None,None,,,P103,001,2025-02-12_14h59.33.627,posner_endo_new1,2024.2.4,60.10261920803092,2025-02-12 14h59.42.308429 +0000,
cube_l.png,0.1,10,catch,1,1,0,up,4.758043800000451,None,None,,,,,,,,,,,0,1,1,1,987.9366865000047,,,,,,,,,,,,,987.9206288999994,987.9366865000047,987.9366865000047,987.9366865000047,992.6995879000024,,,,992.7125369999994,992.7225788999931,992.7225788999931,992.7652119999984,992.7654756999982,992.7817491000023,992.7817491000023,992.7817491000023,992.8649326000013,995.7790587000054,,,,994.8796854999964,995.7952007999993,995.7952007999993,995.7952007999993,,,,,,,,,,,,,,,up,4.758043800000451,None,None,,,P103,001,2025-02-12_14h59.33.627,posner_endo_new1,2024.2.4,60.10261920803092,2025-02-12 14h59.42.308429 +0000,
cube_l.png,0.1,0.31,invalid,2,2,0,up,4.411125500002527,None,space,0.5016145999979926,None,,,,,,,,,0,2,2,2,995.7952007999993,,,,,,,,,,,,,995.7792781000026,995.7952007999993,995.7952007999993,995.7952007999993,1000.2084771999944,,,,1000.221532399999,1000.2319279999938,1000.2319279999938,1000.2741955999954,1000.2744568000053,1000.2906497999938,1000.2906497999938,1000.2906497999938,1000.3738715999934,1000.8077542999963,,,,,,,,,,,,,,,,,,,,,,up,4.411125500002527,None,space,0.5016145999979926,None,P103,001,2025-02-12_14h59.33.627,posner_endo_new1,2024.2.4,60.10261920803092,2025-02-12 14h59.42.308429 +0000,
cube_l.png,0.1,0.31,invalid,3,3,0,up,7.8718481000105385,None,space,0.4712597000034293,None,,,,,,,,,0,3,3,3,1000.8230960999936,,,,,,,,,,,,,1000.8080841000046,1000.8230960999936,1000.8230960999936,1000.8230960999936,1008.6997152999975,,,,1008.707805900005,1008.7183387999976,1008.7183387999976,1008.7654296999972,1008.7656907000055,1008.7818820999964,1008.7818820999964,1008.7818820999964,1008.8652690000017,1009.2657968999993,,,,,,,,,,,,,,,,,,,,,,up,7.8718481000105385,None,space,0.4712597000034293,None,P103,001,2025-02-12_14h59.33.627,posner_endo_new1,2024.2.4,60.10261920803092,2025-02-12 14h59.42.308429 +0000,
cube_l.png,0.1,-0.31,valid,4,4,0,up,6.757218500002637,None,space,0.4280896999989636,None,,,,,,,,,0,4,4,4,1009.2813962999935,,,,,,,,,,,,,1009.2660074000014,1009.2813962999935,1009.2813962999935,1009.2813962999935,1016.0422661000048,,,,1016.0502802999981,1016.0608759000024,1016.0608759000024,1016.1080694999982,1016.1083304000058,1016.1244918000011,1016.1244918000011,1016.1244918000011,1016.2076342999935,1016.5583912000002,,,,,,,,,,,,,,,,,,,,,,up,6.757218500002637,None,space,0.4280896999989636,None,P103,001,2025-02-12_14h59.33.627,posner_endo_new1,2024.2.4,60.10261920803092,2025-02-12 14h59.42.308429 +0000,
cube_r.png,0.1,-0.31,invalid,5,5,0,up,6.944575699992129,None,space,0.4484831000008853,None,,,,,,,,,0,5,5,5,1016.5739528999984,,,,,,,,,,,,,1016.5586081999936,1016.5739528999984,1016.5739528999984,1016.5739528999984,1023.5343584999937,,,,1023.542380400002,1023.5532126000035,1023.5532126000035,1023.600283000007,1023.6005484000052,1023.6167133999988,1023.6167133999988,1023.6167133999988,1023.7000842999987,1024.0673646000068,,,,,,,,,,,,,,,,,,,,,,up,6.944575699992129,None,space,0.4484831000008853,None,P103,001,2025-02-12_14h59.33.627,posner_endo_new1,2024.2.4,60.10261920803092,2025-02-12 14h59.42.308429 +0000,
cube_r.png,0.1,0.31,valid,6,6,0,up,7.611086799995974,None,space,0.5171451999922283,None,,,,,,,,,0,6,6,6,1024.0831269000046,,,,,,,,,,,,,1024.0675745000044,1024.0831269000046,1024.0831269000046,1024.0831269000046,1031.7094039999938,,,,1031.7172712000029,1031.7283400000015,1031.7283400000015,1031.7751874999958,1031.7754572999984,1031.7918003999948,1031.7918003999948,1031.7918003999948,1031.8749336000037,1032.3255460999935,,,,,,,,,,,,,,,,,,,,,,up,7.611086799995974,None,space,0.5171451999922283,None,P103,001,2025-02-12_14h59.33.627,posner_endo_new1,2024.2.4,60.10261920803092,2025-02-12 14h59.42.308429 +0000,
cube_r.png,0.1,-0.31,invalid,7,7,0,up,7.625621399987722,None,space,0.507586400010041,None,,,,,,,,,0,7,7,7,1032.3412017999945,,,,,,,,,,,,,1032.325758299994,1032.3412017999945,1032.3412017999945,1032.3412017999945,1039.9677239000011,,,,1039.9757417000073,1039.9863199999963,1039.9863199999963,1040.0334143999935,1040.033675300001,1040.0500043000065,1040.0500043000065,1040.0500043000065,1040.1332421999978,1040.5670058999967,,,,,,,,,,,,,,,,,,,,,,up,7.625621399987722,None,space,0.507586400010041,None,P103,001,2025-02-12_14h59.33.627,posner_endo_new1,2024.2.4,60.10261920803092,2025-02-12 14h59.42.308429 +0000,
cube_l.png,0.1,-0.31,valid,8,8,0,up,8.80749229999492,None,space,0.3745826000085799,None,,,,,,,,,0,8,8,8,1040.5828457000025,,,,,,,,,,,,,1040.5672175000072,1040.5828457000025,1040.5828457000025,1040.5828457000025,1049.3914758000028,,,,1049.3995252000022,1049.4100112000015,1049.4100112000015,1049.4572234999941,1049.4575077000045,1049.4736445000017,1049.4736445000017,1049.4736445000017,1049.5570005000045,1049.8575098000001,,,,,,,,,,,,,,,,,,,,,,up,8.80749229999492,None,space,0.3745826000085799,None,P103,001,2025-02-12_14h59.33.627,posner_endo_new1,2024.2.4,60.10261920803092,2025-02-12 14h59.42.308429 +0000,
cube_r.png,0.1,-0.31,invalid,9,9,0,up,8.165659500009497,None,space,0.417477199996938,None,,,,,,,,,0,9,9,9,1049.873229799996,,,,,,,,,,,,,1049.8577286000072,1049.873229799996,1049.873229799996,1049.873229799996,1058.0490647999977,,,,1058.0569745999965,1058.0678993000038,1058.0678993000038,1058.114974600001,1058.1152347000025,1058.1315552000015,1058.1315552000015,1058.1315552000015,1058.1981910000031,1058.565228899999,,,,,,,,,,,,,,,,,,,,,,up,8.165659500009497,None,space,0.417477199996938,None,P103,001,2025-02-12_14h59.33.627,posner_endo_new1,2024.2.4,60.10261920803092,2025-02-12 14h59.42.308429 +0000,
cube_l.png,0.1,0.31,invalid,10,10,0,up,8.554093200000352,None,space,0.37769689998822287,None,,,,,,,,,0,10,10,10,1058.5810065999976,,,,,,,,,,,,,1058.565449799993,1058.5810065999976,1058.5810065999976,1058.5810065999976,1067.1399579999998,,,,1067.1478602999996,1067.158628499994,1067.158628499994,1067.2057591000048,1067.206023199993,1067.2221813999931,1067.2221813999931,1067.2221813999931,1067.3054834000068,1067.606063500003,,,,,,,,,,,,,,,,,,,,,,up,8.554093200000352,None,space,0.37769689998822287,None,P103,001,2025-02-12_14h59.33.627,posner_endo_new1,2024.2.4,60.10261920803092,2025-02-12 14h59.42.308429 +0000,
cube_r.png,0.1,-0.31,invalid,11,11,0,up,7.280880000005709,None,space,0.4159409999992931,None,,,,,,,,,0,11,11,11,1067.621873600001,,,,,,,,,,,,,1067.6062740000052,1067.621873600001,1067.621873600001,1067.621873600001,1074.9153489000018,,,,1074.923217500007,1074.9340037999937,1074.9340037999937,1074.9810848000052,1074.9813439999998,1074.9976241999975,1074.9976241999975,1074.9976241999975,1075.0808629999956,1075.4147885999992,,,,,,,,,,,,,,,,,,,,,,up,7.280880000005709,None,space,0.4159409999992931,None,P103,001,2025-02-12_14h59.33.627,posner_endo_new1,2024.2.4,60.10261920803092,2025-02-12 14h59.42.308429 +0000,
cube_r.png,0.1,0.31,valid,12,12,0,up,7.928141399999731,None,space,0.4602044999919599,None,,,,,,,,,0,12,12,12,1075.4304464000015,,,,,,,,,,,,,1075.4150070000032,1075.4304464000015,1075.4304464000015,1075.4304464000015,1083.3732446000067,,,,1083.3811289000005,1083.3920948000014,1083.3920948000014,1083.4389998999977,1083.4392673999973,1083.455559599999,1083.455559599999,1083.455559599999,1083.5389111999975,1083.9227212999976,,,,,,,,,,,,,,,,,,,,,,up,7.928141399999731,None,space,0.4602044999919599,None,P103,001,2025-02-12_14h59.33.627,posner_endo_new1,2024.2.4,60.10261920803092,2025-02-12 14h59.42.308429 +0000,
cube_l.png,0.1,10,catch,13,13,0,up,7.027719899997464,None,None,,,,,,,,,,,0,13,13,13,1083.9384640000062,,,,,,,,,,,,,1083.9229320000013,1083.9384640000062,1083.9384640000062,1083.9384640000062,1090.9822363999992,,,,1090.9901546000037,1091.0009151999984,1091.0009151999984,1091.047959100004,1091.0482252999936,1091.0644919000042,1091.0644919000042,1091.0644919000042,1091.1477869999944,1094.0619944000064,,,,1093.1623653999995,1094.0780668999942,1094.0780668999942,1094.0780668999942,,,,,,,,,,,,,,,up,7.027719899997464,None,None,,,P103,001,2025-02-12_14h59.33.627,posner_endo_new1,2024.2.4,60.10261920803092,2025-02-12 14h59.42.308429 +0000,
cube_r.png,0.1,-0.31,invalid,14,14,0,up,4.799931000001379,None,space,0.4318349999957718,None,,,,,,,,,0,14,14,14,1094.0780668999942,,,,,,,,,,,,,1094.0622022000025,1094.0780668999942,1094.0780668999942,1094.0780668999942,1098.890777099994,,,,1098.8987067999988,1098.9094659999973,1098.9094659999973,1098.956560999999,1098.9568214000028,1098.9730715000042,1098.9730715000042,1098.9730715000042,1099.056288199994,1099.4067952000041,,,,,,,,,,,,,,,,,,,,,,up,4.799931000001379,None,space,0.4318349999957718,None,P103,001,2025-02-12_14h59.33.627,posner_endo_new1,2024.2.4,60.10261920803092,2025-02-12 14h59.42.308429 +0000,
cube_l.png,0.1,-0.31,valid,15,15,0,up,8.151882000005571,None,space,0.47444560000440106,None,,,,,,,,,0,15,15,15,1099.4226568000013,,,,,,,,,,,,,1099.407019499995,1099.4226568000013,1099.4226568000013,1099.4226568000013,1107.5816501999943,,,,1107.5895602999954,1107.6007848000008,1107.6007848000008,1107.6476031000057,1107.6478676999977,1107.6642587999959,1107.6642587999959,1107.6642587999959,1107.7307672000024,1108.1478588000027,,,,,,,,,,,,,,,,,,,,,,up,8.151882000005571,None,space,0.47444560000440106,None,P103,001,2025-02-12_14h59.33.627,posner_endo_new1,2024.2.4,60.10261920803092,2025-02-12 14h59.42.308429 +0000,
cube_r.png,0.1,10,catch,16,16,0,up,8.906991599986213,None,None,,,,,,,,,,,0,16,16,16,1108.1636543000059,,,,,,,,,,,,,1108.148071500007,1108.1636543000059,1108.1636543000059,1108.1636543000059,1117.0723036999989,,,,1117.0802085000032,1117.0910064000054,1117.0910064000054,1117.137948500007,1117.1382097000023,1117.1545199999964,1117.1545199999964,1117.1545199999964,1117.2376894000045,1120.152036200001,,,,1119.252407699998,1120.1679990999983,1120.1679990999983,1120.1679990999983,,,,,,,,,,,,,,,up,8.906991599986213,None,None,,,P103,001,2025-02-12_14h59.33.627,posner_endo_new1,2024.2.4,60.10261920803092,2025-02-12 14h59.42.308429 +0000,
cube_r.png,0.1,10,catch,17,17,0,up,5.582962000000407,None,None,,,,,,,,,,,0,17,17,17,1120.1679990999983,,,,,,,,,,,,,1120.1522362999967,1120.1679990999983,1120.1679990999983,1120.1679990999983,1125.763207099997,,,,1125.7710915000062,1125.7820436000038,1125.7820436000038,1125.828958500002,1125.8292206000042,1125.845643499997,1125.845643499997,1125.845643499997,1125.9289019999997,1128.8431332000036,,,,1127.9435185000038,1128.859283800004,1128.859283800004,1128.859283800004,,,,,,,,,,,,,,,up,5.582962000000407,None,None,,,P103,001,2025-02-12_14h59.33.627,posner_endo_new1,2024.2.4,60.10261920803092,2025-02-12 14h59.42.308429 +0000,
cube_l.png,0.1,0.31,invalid,18,18,0,up,4.290918300001067,None,space,0.4660899000009522,None,,,,,,,,,0,18,18,18,1128.859283800004,,,,,,,,,,,,,1128.8433330999978,1128.859283800004,1128.859283800004,1128.859283800004,1133.1558778000035,,,,1133.1639182000072,1133.1743652000005,1133.1743652000005,1133.2213985999988,1133.221662099997,1133.2380643999932,1133.2380643999932,1133.2380643999932,1133.3211830999935,1133.705183900005,,,,,,,,,,,,,,,,,,,,,,up,4.290918300001067,None,space,0.4660899000009522,None,P103,001,2025-02-12_14h59.33.627,posner_endo_new1,2024.2.4,60.10261920803092,2025-02-12 14h59.42.308429 +0000,
cube_l.png,0.1,10,catch,19,19,0,up,6.205758500000229,None,None,,,,,,,,,,,0,19,19,19,1133.7208157999994,,,,,,,,,,,,,1133.7053949999972,1133.7208157999994,1133.7208157999994,1133.7208157999994,1139.9322498999973,,,,1139.940151600007,1139.9509142000024,1139.9509142000024,1139.997748099995,1139.9980103999987,1140.014380499997,1140.014380499997,1140.014380499997,1140.097651899996,1143.012004499993,,,,1142.1122124999965,1143.027946999995,1143.027946999995,1143.027946999995,,,,,,,,,,,,,,,up,6.205758500000229,None,None,,,P103,001,2025-02-12_14h59.33.627,posner_endo_new1,2024.2.4,60.10261920803092,2025-02-12 14h59.42.308429 +0000,
cube_l.png,0.1,0.31,invalid,20,20,0,up,4.2661323999927845,None,space,0.44122819999756757,None,,,,,,,,,0,20,20,20,1143.027946999995,,,,,,,,,,,,,1143.0122009000042,1143.027946999995,1143.027946999995,1143.027946999995,1147.3077836000011,,,,1147.3156120000058,1147.3266267,1147.3266267,1147.3734784999979,1147.3737380999955,1147.3901837000012,1147.3901837000012,1147.3901837000012,1147.473447299999,1147.8406744999957,,,,,,,,,,,,,,,,,,,,,,up,4.2661323999927845,None,space,0.44122819999756757,None,P103,001,2025-02-12_14h59.33.627,posner_endo_new1,2024.2.4,60.10261920803092,2025-02-12 14h59.42.308429 +0000,
cube_l.png,0.1,-0.31,valid,21,21,0,up,8.205950100003975,None,space,0.47322060000442434,None,,,,,,,,,0,21,21,21,1147.8563263999968,,,,,,,,,,,,,1147.8408914000029,1147.8563263999968,1147.8563263999968,1147.8563263999968,1156.0654166000022,,,,1156.0733856000006,1156.084458600002,1156.084458600002,1156.1313198999997,1156.1315875,1156.1479985000042,1156.1479985000042,1156.1479985000042,1156.2144728999992,1156.6316871000017,,,,,,,,,,,,,,,,,,,,,,up,8.205950100003975,None,space,0.47322060000442434,None,P103,001,2025-02-12_14h59.33.627,posner_endo_new1,2024.2.4,60.10261920803092,2025-02-12 14h59.42.308429 +0000,
cube_r.png,0.1,0.31,valid,22,22,0,up,7.287154600009671,None,space,0.5015344999992521,None,,,,,,,,,0,22,22,22,1156.6474545999954,,,,,,,,,,,,,1156.6318972000008,1156.6474545999954,1156.6474545999954,1156.6474545999954,1163.9408275000023,,,,1163.9486518000049,1163.9595780999953,1163.9595780999953,1164.006057599996,1164.0063362000074,1164.0225368999963,1164.0225368999963,1164.0225368999963,1164.106488999998,1164.5402837000001,,,,,,,,,,,,,,,,,,,,,,up,7.287154600009671,None,space,0.5015344999992521,None,P103,001,2025-02-12_14h59.33.627,posner_endo_new1,2024.2.4,60.10261920803092,2025-02-12 14h59.42.308429 +0000,
cube_r.png,0.1,-0.31,invalid,23,23,0,up,7.058821999991778,None,space,0.5613695999927586,None,,,,,,,,,0,23,23,23,1164.5560278000048,,,,,,,,,,,,,1164.5404946000053,1164.5560278000048,1164.5560278000048,1164.5560278000048,1171.616539499999,,,,1171.6244461000024,1171.6348346000013,1171.6348346000013,1171.682188100007,1171.6824570000026,1171.6987107000023,1171.6987107000023,1171.6987107000023,1171.7819680999964,1172.2658701000037,,,,,,,,,,,,,,,,,,,,,,up,7.058821999991778,None,space,0.5613695999927586,None,P103,001,2025-02-12_14h59.33.627,posner_endo_new1,2024.2.4,60.10261920803092,2025-02-12 14h59.42.308429 +0000,
cube_r.png,0.1,0.31,valid,24,24,0,up,7.853203200007556,None,space,0.6722544000076596,None,,,,,,,,,0,24,24,24,1172.2813016,,,,,,,,,,,,,1172.2660920000053,1172.2813016,1172.2813016,1172.2813016,1180.1409837999963,,,,1180.148815499997,1180.1599141000042,1180.1599141000042,1180.206775300001,1180.2070368999994,1180.223278999998,1180.223278999998,1180.223278999998,1180.3064790000062,1180.9068658000033,,,,,,,,,,,,,,,,,,,,,,up,7.853203200007556,None,space,0.6722544000076596,None,P103,001,2025-02-12_14h59.33.627,posner_endo_new1,2024.2.4,60.10261920803092,2025-02-12 14h59.42.308429 +0000,
cube_r.png,0.1,-0.31,invalid,25,25,0,up,7.812468200005242,None,space,0.5064242999942508,None,,,,,,,,,0,25,25,25,1180.922482599999,,,,,,,,,,,,,1180.9070801000053,1180.922482599999,1180.922482599999,1180.922482599999,1188.7487101000006,,,,1188.7565896000015,1188.7674723999953,1188.7674723999953,1188.8146643999935,1188.8149307999993,1188.831208500007,1188.831208500007,1188.831208500007,1188.8976757000055,1189.3483350000024,,,,,,,,,,,,,,,,,,,,,,up,7.812468200005242,None,space,0.5064242999942508,None,P103,001,2025-02-12_14h59.33.627,posner_endo_new1,2024.2.4,60.10261920803092,2025-02-12 14h59.42.308429 +0000,
cube_l.png,0.1,-0.31,valid,26,26,0,up,10.145919699993101,None,space,1.0842591999971773,None,,,,,,,,,0,26,26,26,1189.3640997000039,,,,,,,,,,,,,1189.3485488000006,1189.3640997000039,1189.3640997000039,1189.3640997000039,1199.5211557000002,,,,1199.5290615999984,1199.5399762000015,1199.5399762000015,1199.586948600001,1199.5872088000033,1199.6035228999972,1199.6035228999972,1199.6035228999972,1199.6867926999985,1200.7033107000025,,,,,,,,,,,,,,,,,,,,,,up,10.145919699993101,None,space,1.0842591999971773,None,P103,001,2025-02-12_14h59.33.627,posner_endo_new1,2024.2.4,60.10261920803092,2025-02-12 14h59.42.308429 +0000,
cube_r.png,0.1,0.31,valid,27,27,0,up,7.624164399996516,None,space,0.46522620000177994,None,,,,,,,,,0,27,27,27,1200.7188771999936,,,,,,,,,,,,,1200.703531399995,1200.7188771999936,1200.7188771999936,1200.7188771999936,1208.3453767000028,,,,1208.353357400003,1208.364319500004,1208.364319500004,1208.4113172999932,1208.411576700004,1208.4277964999928,1208.4277964999928,1208.4277964999928,1208.4942490999965,1208.8951700000034,,,,,,,,,,,,,,,,,,,,,,up,7.624164399996516,None,space,0.46522620000177994,None,P103,001,2025-02-12_14h59.33.627,posner_endo_new1,2024.2.4,60.10261920803092,2025-02-12 14h59.42.308429 +0000,
cube_r.png,0.1,10,catch,28,28,0,up,8.32744759999332,None,None,,,,,,,,,,,0,28,28,28,1208.910671000005,,,,,,,,,,,,,1208.8953867999953,1208.910671000005,1208.910671000005,1208.910671000005,1217.2529149000038,,,,1217.2609907000005,1217.271727600004,1217.271727600004,1217.3188360000058,1217.319103899994,1217.3353571000043,1217.3353571000043,1217.3353571000043,1217.4186069999996,1220.3328444999934,,,,1219.4331781999936,1220.3488814000011,1220.3488814000011,1220.3488814000011,,,,,,,,,,,,,,,up,8.32744759999332,None,None,,,P103,001,2025-02-12_14h59.33.627,posner_endo_new1,2024.2.4,60.10261920803092,2025-02-12 14h59.42.308429 +0000,
cube_r.png,0.1,0.31,valid,29,29,0,up,4.969884199992521,None,space,0.47148350000497885,None,,,,,,,,,0,29,29,29,1220.3488814000011,,,,,,,,,,,,,1220.3330520000018,1220.3488814000011,1220.3488814000011,1220.3488814000011,1225.3279355999985,,,,1225.335819,1225.3468602000066,1225.3468602000066,1225.393839299999,1225.394111799993,1225.4104022999963,1225.4104022999963,1225.4104022999963,1225.4769277000014,1225.8941436000023,,,,,,,,,,,,,,,,,,,,,,up,4.969884199992521,None,space,0.47148350000497885,None,P103,001,2025-02-12_14h59.33.627,posner_endo_new1,2024.2.4,60.10261920803092,2025-02-12 14h59.42.308429 +0000,
cube_r.png,0.1,0.31,valid,30,30,0,up,7.912379499990493,None,space,0.4765785999916261,None,,,,,,,,,0,30,30,30,1225.9099339999957,,,,,,,,,,,,,1225.8943547999952,1225.9099339999957,1225.9099339999957,1225.9099339999957,1233.8360459999967,,,,1233.8439548000024,1233.8547495999956,1233.8547495999956,1233.9015669999935,1233.9018283000041,1233.9184630999953,1233.9184630999953,1233.9184630999953,1234.0015955999988,1234.4020905999932,,,,,,,,,,,,,,,,,,,,,,up,7.912379499990493,None,space,0.4765785999916261,None,P103,001,2025-02-12_14h59.33.627,posner_endo_new1,2024.2.4,60.10261920803092,2025-02-12 14h59.42.308429 +0000,
cube_l.png,0.1,-0.31,valid,31,31,0,up,7.556387200005702,None,space,0.4021721000026446,None,,,,,,,,,0,31,31,31,1234.4179437999992,,,,,,,,,,,,,1234.4023032999976,1234.4179437999992,1234.4179437999992,1234.4179437999992,1241.977739199996,,,,1241.9857741000014,1241.9964362000028,1241.9964362000028,1242.0435540000035,1242.043816999998,1242.0601247000013,1242.0601247000013,1242.0601247000013,1242.1431688000011,1242.4770792000054,,,,,,,,,,,,,,,,,,,,,,up,7.556387200005702,None,space,0.4021721000026446,None,P103,001,2025-02-12_14h59.33.627,posner_endo_new1,2024.2.4,60.10261920803092,2025-02-12 14h59.42.308429 +0000,
cube_r.png,0.1,0.31,valid,32,32,0,up,7.129334900004324,None,space,0.3210714000015287,None,,,,,,,,,0,32,32,32,1242.4929324999976,,,,,,,,,,,,,1242.477319800004,1242.4929324999976,1242.4929324999976,1242.4929324999976,1249.6363946000056,,,,1249.6442377000058,1249.655336099997,1249.655336099997,1249.702438799999,1249.7027011000027,1249.7190248999977,1249.7190248999977,1249.7190248999977,1249.7853408999945,1250.052806199994,,,,,,,,,,,,,,,,,,,,,,up,7.129334900004324,None,space,0.3210714000015287,None,P103,001,2025-02-12_14h59.33.627,posner_endo_new1,2024.2.4,60.10261920803092,2025-02-12 14h59.42.308429 +0000,
cube_r.png,0.1,-0.31,invalid,33,33,0,up,7.890548800001852,None,space,0.521111900001415,None,,,,,,,,,0,33,33,33,1250.0683965000062,,,,,,,,,,,,,1250.053025000001,1250.0683965000062,1250.0683965000062,1250.0683965000062,1257.9615047999978,,,,1257.9693426000013,1257.9801623999956,1257.9801623999956,1258.0271971000038,1258.0274582999991,1258.043749599994,1258.043749599994,1258.043749599994,1258.1103049999947,1258.5774460999965,,,,,,,,,,,,,,,,,,,,,,up,7.890548800001852,None,space,0.521111900001415,None,P103,001,2025-02-12_14h59.33.627,posner_endo_new1,2024.2.4,60.10261920803092,2025-02-12 14h59.42.308429 +0000,
cube_r.png,0.1,10,catch,34,34,0,up,7.470048199989833,None,None,,,,,,,,,,,0,34,34,34,1258.5933834000025,,,,,,,,,,,,,1258.5776580999955,1258.5933834000025,1258.5933834000025,1258.5933834000025,1266.0696838000003,,,,1266.077541999999,1266.0886608,1266.0886608,1266.1354583000066,1266.135720899998,1266.1521266000054,1266.1521266000054,1266.1521266000054,1266.2186829999991,1269.1493448999972,,,,1268.2334110999946,1269.1657511999947,1269.1657511999947,1269.1657511999947,,,,,,,,,,,,,,,up,7.470048199989833,None,None,,,P103,001,2025-02-12_14h59.33.627,posner_endo_new1,2024.2.4,60.10261920803092,2025-02-12 14h59.42.308429 +0000,
cube_r.png,0.1,0.31,valid,35,35,0,up,4.8646240000089165,None,space,0.43391089999931864,None,,,,,,,,,0,35,35,35,1269.1657511999947,,,,,,,,,,,,,1269.1495465000044,1269.1657511999947,1269.1657511999947,1269.1657511999947,1274.044948499999,,,,1274.0527845000033,1274.0637418999977,1274.0637418999977,1274.1107705000031,1274.1110326000053,1274.1272750000062,1274.1272750000062,1274.1272750000062,1274.2106226000033,1274.5777970000054,,,,,,,,,,,,,,,,,,,,,,up,4.8646240000089165,None,space,0.43391089999931864,None,P103,001,2025-02-12_14h59.33.627,posner_endo_new1,2024.2.4,60.10261920803092,2025-02-12 14h59.42.308429 +0000,
cube_r.png,0.1,-0.31,invalid,36,36,0,up,7.516336200002115,None,space,0.5079951000079745,None,,,,,,,,,0,36,36,36,1274.593878700005,,,,,,,,,,,,,1274.5780083999998,1274.593878700005,1274.593878700005,1274.593878700005,1282.120001400006,,,,1282.1278612000024,1282.138800300003,1282.138800300003,1282.1857533000002,1282.1860233000043,1282.2022483000037,1282.2022483000037,1282.2022483000037,1282.2857027999999,1282.719528799993,,,,,,,,,,,,,,,,,,,,,,up,7.516336200002115,None,space,0.5079951000079745,None,P103,001,2025-02-12_14h59.33.627,posner_endo_new1,2024.2.4,60.10261920803092,2025-02-12 14h59.42.308429 +0000,
cube_l.png,0.1,0.31,invalid,37,37,0,up,7.263347000000067,None,space,0.31667829999059904,None,,,,,,,,,0,37,37,37,1282.7350366000028,,,,,,,,,,,,,1282.7197394999966,1282.7350366000028,1282.7350366000028,1282.7350366000028,1290.0119691,,,,1290.0198281000048,1290.030594900003,1290.030594900003,1290.077665100005,1290.0779253000073,1290.0946817999939,1290.0946817999939,1290.0946817999939,1290.177555400005,1290.4281336999993,,,,,,,,,,,,,,,,,,,,,,up,7.263347000000067,None,space,0.31667829999059904,None,P103,001,2025-02-12_14h59.33.627,posner_endo_new1,2024.2.4,60.10261920803092,2025-02-12 14h59.42.308429 +0000,
cube_l.png,0.1,0.31,invalid,38,38,0,up,7.739037299994379,None,space,0.4548878999921726,None,,,,,,,,,0,38,38,38,1290.4440077000036,,,,,,,,,,,,,1290.4283473999967,1290.4440077000036,1290.4440077000036,1290.4440077000036,1298.186977999998,,,,1298.194937399996,1298.2056460000022,1298.2056460000022,1298.2527569999947,1298.253022200006,1298.2692142000014,1298.2692142000014,1298.2692142000014,1298.3525203000027,1298.7363727000047,,,,,,,,,,,,,,,,,,,,,,up,7.739037299994379,None,space,0.4548878999921726,None,P103,001,2025-02-12_14h59.33.627,posner_endo_new1,2024.2.4,60.10261920803092,2025-02-12 14h59.42.308429 +0000,
cube_r.png,0.1,0.31,valid,39,39,0,up,7.870482300000731,None,space,0.3603380999993533,None,,,,,,,,,0,39,39,39,1298.7519439000025,,,,,,,,,,,,,1298.7365843000007,1298.7519439000025,1298.7519439000025,1298.7519439000025,1306.6281811999943,,,,1306.6360153999995,1306.6470872000064,1306.6470872000064,1306.6941432000021,1306.6944030000013,1306.7105217000062,1306.7105217000062,1306.7105217000062,1306.7938897999993,1307.0777244000055,,,,,,,,,,,,,,,,,,,,,,up,7.870482300000731,None,space,0.3603380999993533,None,P103,001,2025-02-12_14h59.33.627,posner_endo_new1,2024.2.4,60.10261920803092,2025-02-12 14h59.42.308429 +0000,
cube_l.png,0.1,0.31,invalid,40,40,0,up,7.936856999993324,None,space,0.3507870999892475,None,,,,,,,,,0,40,40,40,1307.0937800999964,,,,,,,,,,,,,1307.077942200005,1307.0937800999964,1307.0937800999964,1307.0937800999964,1315.0363477000064,,,,1315.0442401000037,1315.0550280000025,1315.0550280000025,1315.102099900003,1315.1023604999937,1315.1186839000002,1315.1186839000002,1315.1186839000002,1315.2018873000052,1315.4860417000018,,,,,,,,,,,,,,,,,,,,,,up,7.936856999993324,None,space,0.3507870999892475,None,P103,001,2025-02-12_14h59.33.627,posner_endo_new1,2024.2.4,60.10261920803092,2025-02-12 14h59.42.308429 +0000,
cube_l.png,0.1,10,catch,41,41,0,up,8.30480830000306,None,None,,,,,,,,,,,0,41,41,41,1315.5016875000001,,,,,,,,,,,,,1315.4862544000061,1315.5016875000001,1315.5016875000001,1315.5016875000001,1323.810740300003,,,,1323.8185827999987,1323.8294328000047,1323.8294328000047,1323.8764840999938,1323.8767527000018,1323.893130299999,1323.893130299999,1323.893130299999,1323.9762450999988,1326.8905825999973,,,,1325.9909052000003,1326.9065452000068,1326.9065452000068,1326.9065452000068,,,,,,,,,,,,,,,up,8.30480830000306,None,None,,,P103,001,2025-02-12_14h59.33.627,posner_endo_new1,2024.2.4,60.10261920803092,2025-02-12 14h59.42.308429 +0000,
cube_l.png,0.1,-0.31,valid,42,42,0,up,3.5003986999945482,None,space,0.4883432999922661,None,,,,,,,,,0,42,42,42,1326.9065452000068,,,,,,,,,,,,,1326.8907819000015,1326.9065452000068,1326.9065452000068,1326.9065452000068,1330.420677400005,,,,1330.4285635999986,1330.4393301999953,1330.4393301999953,1330.4863685000018,1330.4866272999934,1330.5029532000044,1330.5029532000044,1330.5029532000044,1330.5861655000044,1331.0033186999935,,,,,,,,,,,,,,,,,,,,,,up,3.5003986999945482,None,space,0.4883432999922661,None,P103,001,2025-02-12_14h59.33.627,posner_endo_new1,2024.2.4,60.10261920803092,2025-02-12 14h59.42.308429 +0000,
cube_l.png,0.1,10,catch,43,43,0,up,8.634942500008037,None,None,,,,,,,,,,,0,43,43,43,1331.0191367999942,,,,,,,,,,,,,1331.0035296999995,1331.0191367999942,1331.0191367999942,1331.0191367999942,1339.6610530000034,,,,1339.6688930999953,1339.679847499996,1339.679847499996,1339.7269645000051,1339.7272274999996,1339.7434643000015,1339.7434643000015,1339.7434643000015,1339.8267792999977,1342.7409855000005,,,,1341.8412681000045,1342.7571331999934,1342.7571331999934,1342.7571331999934,,,,,,,,,,,,,,,up,8.634942500008037,None,None,,,P103,001,2025-02-12_14h59.33.627,posner_endo_new1,2024.2.4,60.10261920803092,2025-02-12 14h59.42.308429 +0000,
cube_l.png,0.1,0.31,invalid,44,44,0,up,4.977464199997485,None,space,0.49494140000024345,None,,,,,,,,,0,44,44,44,1342.7571331999934,,,,,,,,,,,,,1342.7411886000045,1342.7571331999934,1342.7571331999934,1342.7571331999934,1347.7363245000015,,,,1347.7441694000008,1347.7548902999988,1347.7548902999988,1347.8019700000004,1347.802229599998,1347.8187348000065,1347.8187348000065,1347.8187348000065,1347.901896700001,1348.3189925000042,,,,,,,,,,,,,,,,,,,,,,up,4.977464199997485,None,space,0.49494140000024345,None,P103,001,2025-02-12_14h59.33.627,posner_endo_new1,2024.2.4,60.10261920803092,2025-02-12 14h59.42.308429 +0000,
cube_l.png,0.1,0.31,invalid,45,45,0,up,8.503980299996329,None,space,0.46672810000018217,None,,,,,,,,,0,45,45,45,1348.3348243999935,,,,,,,,,,,,,1348.3192031999934,1348.3348243999935,1348.3348243999935,1348.3348243999935,1356.8436223000026,,,,1356.8515488999983,1356.8623110000044,1356.8623110000044,1356.9093272000027,1356.909587999995,1356.9259824000037,1356.9259824000037,1356.9259824000037,1357.009091999993,1357.409481900002,,,,,,,,,,,,,,,,,,,,,,up,8.503980299996329,None,space,0.46672810000018217,None,P103,001,2025-02-12_14h59.33.627,posner_endo_new1,2024.2.4,60.10261920803092,2025-02-12 14h59.42.308429 +0000,
cube_r.png,0.1,0.31,valid,46,46,0,up,7.9576785000099335,None,space,0.45218689998728223,None,,,,,,,,,0,46,46,46,1357.425403000001,,,,,,,,,,,,,1357.4097001000046,1357.425403000001,1357.425403000001,1357.425403000001,1365.3848921000026,,,,1365.3927487000037,1365.403611799993,1365.403611799993,1365.4506055999955,1365.450874400005,1365.4671243000048,1365.4671243000048,1365.4671243000048,1365.5504326999944,1365.934257300003,,,,,,,,,,,,,,,,,,,,,,up,7.9576785000099335,None,space,0.45218689998728223,None,P103,001,2025-02-12_14h59.33.627,posner_endo_new1,2024.2.4,60.10261920803092,2025-02-12 14h59.42.308429 +0000,
cube_l.png,0.1,-0.31,valid,47,47,0,up,8.000576999998884,None,space,0.41459820000454783,None,,,,,,,,,0,47,47,47,1365.9500788000005,,,,,,,,,,,,,1365.9344710000005,1365.9500788000005,1365.9500788000005,1365.9500788000005,1373.9593683999992,,,,1373.967359000002,1373.978094200007,1373.978094200007,1374.0252368999936,1374.0254595000006,1374.041707700002,1374.041707700002,1374.041707700002,1374.1083284000051,1374.4588567000028,,,,,,,,,,,,,,,,,,,,,,up,8.000576999998884,None,space,0.41459820000454783,None,P103,001,2025-02-12_14h59.33.627,posner_endo_new1,2024.2.4,60.10261920803092,2025-02-12 14h59.42.308429 +0000,
cube_r.png,0.1,-0.31,invalid,48,48,0,up,7.707848099991679,None,space,0.5361466000031214,None,,,,,,,,,0,48,48,48,1374.4747589000035,,,,,,,,,,,,,1374.459034600004,1374.4747589000035,1374.4747589000035,1374.4747589000035,1382.184427900007,,,,1382.1905586999928,1382.202154300001,1382.202154300001,1382.2501634999935,1382.250391900001,1382.2665523000032,1382.2665523000032,1382.2665523000032,1382.349904600007,1382.816802500005,,,,,,,,,,,,,,,,,,,,,,up,7.707848099991679,None,space,0.5361466000031214,None,P103,001,2025-02-12_14h59.33.627,posner_endo_new1,2024.2.4,60.10261920803092,2025-02-12 14h59.42.308429 +0000,
cube_r.png,0.1,10,catch,49,49,0,up,7.829349299994647,None,None,,,,,,,,,,,0,49,49,49,1382.8328069999989,,,,,,,,,,,,,1382.8169765000057,1382.8328069999989,1382.8328069999989,1382.8328069999989,1390.675396599996,,,,1390.6813953999954,1390.6928654999938,1390.6928654999938,1390.7414621000062,1390.7416864999977,1390.7579392000043,1390.7579392000043,1390.7579392000043,1390.8245674000063,1393.7552693000034,,,,1392.8391284999961,1393.7715456000005,1393.7715456000005,1393.7715456000005,,,,,,,,,,,,,,,up,7.829349299994647,None,None,,,P103,001,2025-02-12_14h59.33.627,posner_endo_new1,2024.2.4,60.10261920803092,2025-02-12 14h59.42.308429 +0000,
cube_l.png,0.1,-0.31,valid,50,50,0,up,7.026834400006919,None,space,0.462474400002975,None,,,,,,,,,0,50,50,50,1393.7715456000005,,,,,,,,,,,,,1393.7554354000022,1393.7715456000005,1393.7715456000005,1393.7715456000005,1400.815128000002,,,,1400.8211968999967,1400.8325725000032,1400.8325725000032,1400.881071900003,1400.8812975000037,1400.8974970999989,1400.8974970999989,1400.8974970999989,1400.9641807000007,1401.3647472000011,,,,,,,,,,,,,,,,,,,,,,up,7.026834400006919,None,space,0.462474400002975,None,P103,001,2025-02-12_14h59.33.627,posner_endo_new1,2024.2.4,60.10261920803092,2025-02-12 14h59.42.308429 +0000,
cube_l.png,0.1,-0.31,valid,51,51,0,up,8.9783763000014,None,space,0.3007251999952132,None,,,,,,,,,0,51,51,51,1401.3805356999947,,,,,,,,,,,,,1401.3649242999963,1401.3805356999947,1401.3805356999947,1401.3805356999947,1410.372137600003,,,,1410.3781420000014,1410.3898675999953,1410.3898675999953,1410.4380134999956,1410.438236700007,1410.4545841999934,1410.4545841999934,1410.4545841999934,1410.5378057000053,1410.771468699997,,,,,,,,,,,,,,,,,,,,,,up,8.9783763000014,None,space,0.3007251999952132,None,P103,001,2025-02-12_14h59.33.627,posner_endo_new1,2024.2.4,60.10261920803092,2025-02-12 14h59.42.308429 +0000,
cube_r.png,0.1,-0.31,invalid,52,52,0,up,10.315214400005061,None,space,0.5056302000011783,None,,,,,,,,,0,52,52,52,1410.7876032000058,,,,,,,,,,,,,1410.7716459999938,1410.7876032000058,1410.7876032000058,1410.7876032000058,1421.1108185000048,,,,1421.116869599995,1421.1284148999985,1421.1284148999985,1421.1768862000026,1421.1771161999932,1421.1935075999936,1421.1935075999936,1421.1935075999936,1421.2603147000045,1421.7101703999942,,,,,,,,,,,,,,,,,,,,,,up,10.315214400005061,None,space,0.5056302000011783,None,P103,001,2025-02-12_14h59.33.627,posner_endo_new1,2024.2.4,60.10261920803092,2025-02-12 14h59.42.308429 +0000,
cube_l.png,0.1,-0.31,valid,53,53,0,up,10.42477759999747,None,space,0.5704287000116892,None,,,,,,,,,0,53,53,53,1421.7263891000039,,,,,,,,,,,,,1421.7103489,1421.7263891000039,1421.7263891000039,1421.7263891000039,1432.166435399995,,,,1432.1724599000008,1432.1840203000029,1432.1840203000029,1432.2321659000008,1432.2323905999947,1432.2490569999936,1432.2490569999936,1432.2490569999936,1432.315540800002,1432.832230400003,,,,,,,,,,,,,,,,,,,,,,up,10.42477759999747,None,space,0.5704287000116892,None,P103,001,2025-02-12_14h59.33.627,posner_endo_new1,2024.2.4,60.10261920803092,2025-02-12 14h59.42.308429 +0000,
cube_r.png,0.1,10,catch,54,54,0,up,9.278229299990926,None,None,,,,,,,,,,,0,54,54,54,1432.848290599999,,,,,,,,,,,,,1432.8324032999953,1432.848290599999,1432.848290599999,1432.848290599999,1442.1395676999964,,,,1442.1455834999942,1442.1571359999944,1442.1571359999944,1442.205524399993,1442.2057494000037,1442.2219883999933,1442.2219883999933,1442.2219883999933,1442.305301100001,1445.219490500007,,,,1444.3198483000015,1445.235498199996,1445.235498199996,1445.235498199996,,,,,,,,,,,,,,,up,9.278229299990926,None,None,,,P103,001,2025-02-12_14h59.33.627,posner_endo_new1,2024.2.4,60.10261920803092,2025-02-12 14h59.42.308429 +0000,
cube_l.png,0.1,0.31,invalid,55,55,0,up,6.482611700004782,None,space,0.39302109999698587,None,,,,,,,,,0,55,55,55,1445.235498199996,,,,,,,,,,,,,1445.2196529000066,1445.235498199996,1445.235498199996,1445.235498199996,1451.7298308000027,,,,1451.735798099995,1451.7472667999973,1451.7472667999973,1451.795620200006,1451.795843400003,1451.8122919000016,1451.8122919000016,1451.8122919000016,1451.8789955999964,1452.2124559999938,,,,,,,,,,,,,,,,,,,,,,up,6.482611700004782,None,space,0.39302109999698587,None,P103,001,2025-02-12_14h59.33.627,posner_endo_new1,2024.2.4,60.10261920803092,2025-02-12 14h59.42.308429 +0000,
cube_l.png,0.1,-0.31,valid,56,56,0,up,10.146414899994852,None,space,0.4918480000051204,None,,,,,,,,,0,56,56,56,1452.2285407000018,,,,,,,,,,,,,1452.2126285999984,1452.2285407000018,1452.2285407000018,1452.2285407000018,1462.385488999993,,,,1462.3916769000061,1462.4030265000038,1462.4030265000038,1462.451387299996,1462.4516123000067,1462.468048099996,1462.468048099996,1462.468048099996,1462.5345732999995,1462.9680580999993,,,,,,,,,,,,,,,,,,,,,,up,10.146414899994852,None,space,0.4918480000051204,None,P103,001,2025-02-12_14h59.33.627,posner_endo_new1,2024.2.4,60.10261920803092,2025-02-12 14h59.42.308429 +0000,
cube_r.png,0.1,0.31,valid,57,57,0,up,8.399019099990255,None,space,0.49287420000473503,None,,,,,,,,,0,57,57,57,1462.984133200007,,,,,,,,,,,,,1462.9682321,1462.984133200007,1462.984133200007,1462.984133200007,1471.3928745000012,,,,1471.3988967000041,1471.4105076999986,1471.4105076999986,1471.458912999995,1471.459146699999,1471.4754491000058,1471.4754491000058,1471.4754491000058,1471.5420381000004,1471.9757587000058,,,,,,,,,,,,,,,,,,,,,,up,8.399019099990255,None,space,0.49287420000473503,None,P103,001,2025-02-12_14h59.33.627,posner_endo_new1,2024.2.4,60.10261920803092,2025-02-12 14h59.42.308429 +0000,
cube_r.png,0.1,-0.31,invalid,58,58,0,up,8.983228800003417,None,space,0.4636131999868667,None,,,,,,,,,0,58,58,58,1471.9915504999954,,,,,,,,,,,,,1471.975934400005,1471.9915504999954,1471.9915504999954,1471.9915504999954,1480.9828916999977,,,,1480.9889550999942,1481.0005951000057,1481.0005951000057,1481.0490917999996,1481.049317900004,1481.0657115000067,1481.0657115000067,1481.0657115000067,1481.1320788000012,1481.5325485000067,,,,,,,,,,,,,,,,,,,,,,up,8.983228800003417,None,space,0.4636131999868667,None,P103,001,2025-02-12_14h59.33.627,posner_endo_new1,2024.2.4,60.10261920803092,2025-02-12 14h59.42.308429 +0000,
cube_l.png,0.1,0.31,invalid,59,59,0,up,7.970501999996486,None,space,0.4408478999976069,None,,,,,,,,,0,59,59,59,1481.5484982000053,,,,,,,,,,,,,1481.532722799995,1481.5484982000053,1481.5484982000053,1481.5484982000053,1489.5244335000025,,,,1489.5304686000018,1489.5420212000026,1489.5420212000026,1489.590186100002,1489.5904126999958,1489.6069014999957,1489.6069014999957,1489.6069014999957,1489.6900557000045,1490.0571391999983,,,,,,,,,,,,,,,,,,,,,,up,7.970501999996486,None,space,0.4408478999976069,None,P103,001,2025-02-12_14h59.33.627,posner_endo_new1,2024.2.4,60.10261920803092,2025-02-12 14h59.42.308429 +0000,
