cue_img,cue_soa,target_y,trial,thisN,thisTrialN,thisRepN,key_control2.keys,key_control2.rt,key_control2.duration,key_resp.keys,key_resp.rt,key_resp.duration,practice.thisRepN,practice.thisTrialN,practice.thisN,practice.thisIndex,block1.thisRepN,block1.thisTrialN,block1.thisN,block1.thisIndex,block2.thisRepN,block2.thisTrialN,block2.thisN,block2.thisIndex,thisRow.t,notes,instructions.started,instructions_txt.started,key_control.started,instructions.stopped,key_control.keys,key_control.rt,key_control.duration,ready.started,ready_txt.started,ready_txt.stopped,ready.stopped,fix.started,fixation.started,key_control2.started,fixation_cross.started,fix.stopped,practice.key_control2.keys,practice.key_control2.rt,practice.key_control2.duration,cue.started,cube.started,fixation_cross_cue.started,cue.stopped,target.started,fixation_target.started,fixation_cross_target.started,key_resp.started,star.started,target.stopped,practice.key_resp.keys,practice.key_resp.rt,practice.key_resp.duration,block1.key_control2.keys,block1.key_control2.rt,block1.key_control2.duration,star.stopped,fixation_target.stopped,fixation_cross_target.stopped,key_resp.stopped,block1.key_resp.keys,block1.key_resp.rt,block1.key_resp.duration,break_2.started,text.started,key_control3.started,text.stopped,break_2.stopped,key_control3.keys,key_control3.rt,key_control3.duration,block2.key_control2.keys,block2.key_control2.rt,block2.key_control2.duration,block2.key_resp.keys,block2.key_resp.rt,block2.key_resp.duration,participant,session,date,expName,psychopyVersion,frameRate,expStart,
,,,,,,,,,,,,,,,,,,,,,,,,,,,0.007658699993044138,0.027876199994352646,0.027876199994352646,704.7793081999989,up,704.7363669000042,None,,,,,,,,,,,,,,,,,,,,,,,,,,,,,,,,,,,,,,,,,,,,,,,,,,P104,001,2025-02-12_16h31.09.442,posner_endo_new1,2024.2.4,60.098537558633666,2025-02-12 16h31.17.072719 +0000,
,,,,,,,,,,,,,,,,,,,,,,,,,,,,,,,,,,704.7793844999978,704.7914705000003,707.8121197,707.7729174999986,,,,,,,,,,,,,,,,,,,,,,,,,,,,,,,,,,,,,,,,,,,,,,P104,001,2025-02-12_16h31.09.442,posner_endo_new1,2024.2.4,60.098537558633666,2025-02-12 16h31.17.072719 +0000,
cube_l.png,0.1,-0.31,valid,0,0,0,down,4.183711699995911,None,space,0.3643178999918746,None,0,0,0,0,,,,,,,,,707.8121197,,,,,,,,,,,,,707.7975230999873,707.8121197,707.8121197,707.8121197,712.0033483000007,down,4.183711699995911,None,712.0357948999881,712.0485489999992,712.0485489999992,712.0665082999913,712.0667877999949,712.0830425999884,712.0830425999884,712.0830425999884,712.1668393,712.4506379999948,space,0.3643178999918746,None,,,,,,,,,,,,,,,,,,,,,,,,,P104,001,2025-02-12_16h31.09.442,posner_endo_new1,2024.2.4,60.098537558633666,2025-02-12 16h31.17.072719 +0000,
cube_l.png,0.1,0.31,invalid,1,1,0,down,8.265379400007077,None,space,0.37154730000474956,None,0,1,1,1,,,,,,,,,712.4665718999895,,,,,,,,,,,,,712.4508459999925,712.4665718999895,712.4665718999895,712.4665718999895,720.7441239999898,down,8.265379400007077,None,720.7681072999985,720.7803817999957,720.7803817999957,720.8078931999917,720.8082515999995,720.8242327999906,720.8242327999906,720.8242327999906,720.9080779999931,721.2089038999984,space,0.37154730000474956,None,,,,,,,,,,,,,,,,,,,,,,,,,P104,001,2025-02-12_16h31.09.442,posner_endo_new1,2024.2.4,60.098537558633666,2025-02-12 16h31.17.072719 +0000,
cube_r.png,0.1,-0.31,invalid,2,2,0,down,7.42003150000528,None,space,0.45182950000162236,None,0,2,2,2,,,,,,,,,721.2239227999962,,,,,,,,,,,,,721.2091880999942,721.2239227999962,721.2239227999962,721.2239227999962,728.6513501999871,down,7.42003150000528,None,728.6630779999978,728.6734173999866,728.6734173999866,728.7168288999965,728.7171861999959,728.7333594999945,728.7333594999945,728.7333594999945,728.8165290999896,729.2007286999869,space,0.45182950000162236,None,,,,,,,,,,,,,,,,,,,,,,,,,P104,001,2025-02-12_16h31.09.442,posner_endo_new1,2024.2.4,60.098537558633666,2025-02-12 16h31.17.072719 +0000,
cube_r.png,0.1,10,catch,3,3,0,down,7.827404099996784,None,space,0.30780670000240207,None,0,3,3,3,,,,,,,,,729.2158371999976,,,,,,,,,,,,,729.2010184999963,729.2158371999976,729.2158371999976,729.2158371999976,737.0592674999934,down,7.827404099996784,None,737.0710270999989,737.0812941999902,737.0812941999902,737.1247040999879,737.1250619999919,737.1413356999983,737.1413356999983,737.1413356999983,737.224652799996,737.4590246999869,space,0.30780670000240207,None,,,,,,,,,,,,,,,,,,,,,,,,,P104,001,2025-02-12_16h31.09.442,posner_endo_new1,2024.2.4,60.098537558633666,2025-02-12 16h31.17.072719 +0000,
cube_l.png,0.1,-0.31,valid,4,4,0,down,7.6170576000004075,None,space,0.4143146999995224,None,0,4,4,4,,,,,,,,,737.474217799987,,,,,,,,,,,,,737.4593362999876,737.474217799987,737.474217799987,737.474217799987,745.1010517999966,down,7.6170576000004075,None,745.1115771999903,745.1211155999918,745.1211155999918,745.1668553999916,745.1671008999983,745.183155199993,745.183155199993,745.183155199993,745.2663372999959,745.6002106999949,space,0.4143146999995224,None,,,,,,,,,,,,,,,,,,,,,,,,,P104,001,2025-02-12_16h31.09.442,posner_endo_new1,2024.2.4,60.098537558633666,2025-02-12 16h31.17.072719 +0000,
cube_l.png,0.1,0.31,invalid,5,5,0,down,10.011834699995234,None,space,0.4127050999959465,None,0,5,5,5,,,,,,,,,745.6158030999941,,,,,,,,,,,,,745.6003969999874,745.6158030999941,745.6158030999941,745.6158030999941,755.6402439999947,down,10.011834699995234,None,755.6521265999909,755.6623733999877,755.6623733999877,755.7054593999928,755.7057035999896,755.7223450999882,755.7223450999882,755.7223450999882,755.8056321999902,756.1393233999988,space,0.4127050999959465,None,,,,,,,,,,,,,,,,,,,,,,,,,P104,001,2025-02-12_16h31.09.442,posner_endo_new1,2024.2.4,60.098537558633666,2025-02-12 16h31.17.072719 +0000,
cube_r.png,0.1,-0.31,invalid,6,6,0,down,8.065131600000313,None,space,0.33388730000297073,None,0,6,6,6,,,,,,,,,756.1552977999963,,,,,,,,,,,,,756.1395046999969,756.1552977999963,756.1552977999963,756.1552977999963,764.2329398999864,down,8.065131600000313,None,764.2567606999946,764.2690692999895,764.2690692999895,764.2967426999967,764.2971415999928,764.3131572999991,764.3131572999991,764.3131572999991,764.3964010999916,764.6640573999903,space,0.33388730000297073,None,,,,,,,,,,,,,,,,,,,,,,,,,P104,001,2025-02-12_16h31.09.442,posner_endo_new1,2024.2.4,60.098537558633666,2025-02-12 16h31.17.072719 +0000,
cube_r.png,0.1,0.31,valid,7,7,0,down,7.420618700009072,None,space,0.3983360999991419,None,0,7,7,7,,,,,,,,,764.6794571999926,,,,,,,,,,,,,764.6643770999945,764.6794571999926,764.6794571999926,764.6794571999926,772.1061977999925,down,7.420618700009072,None,772.116090999989,772.1259632000001,772.1259632000001,772.1724687999958,772.1730173999968,772.1888342999882,772.1888342999882,772.1888342999882,772.2554472999909,772.5905534999911,space,0.3983360999991419,None,,,,,,,,,,,,,,,,,,,,,,,,,P104,001,2025-02-12_16h31.09.442,posner_endo_new1,2024.2.4,60.098537558633666,2025-02-12 16h31.17.072719 +0000,
cube_l.png,0.1,-0.31,valid,8,8,0,down,8.366674700009753,None,space,0.31825989999924786,None,0,8,8,8,,,,,,,,,772.6050856999937,,,,,,,,,,,,,772.5910064999916,772.6050856999937,772.6050856999937,772.6050856999937,780.9826420999889,down,8.366674700009753,None,781.006625199996,781.0188771999965,781.0188771999965,781.0462265999959,781.0466241999966,781.0633495999937,781.0633495999937,781.0633495999937,781.1465934000007,781.3987725999905,space,0.31825989999924786,None,,,,,,,,,,,,,,,,,,,,,,,,,P104,001,2025-02-12_16h31.09.442,posner_endo_new1,2024.2.4,60.098537558633666,2025-02-12 16h31.17.072719 +0000,
cube_r.png,0.1,-0.31,invalid,9,9,0,down,7.751112600002671,None,space,0.5454436999862082,None,0,9,9,9,,,,,,,,,781.4130102999916,,,,,,,,,,,,,781.3993409999966,781.4130102999916,781.4130102999916,781.4130102999916,789.1744111000007,down,7.751112600002671,None,789.1985055999976,789.2107199999882,789.2107199999882,789.2377540999878,789.2381233999913,789.2546686999995,789.2546686999995,789.2546686999995,789.3379642999935,789.8051806999865,space,0.5454436999862082,None,,,,,,,,,,,,,,,,,,,,,,,,,P104,001,2025-02-12_16h31.09.442,posner_endo_new1,2024.2.4,60.098537558633666,2025-02-12 16h31.17.072719 +0000,
cube_r.png,0.1,0.31,valid,10,10,0,down,7.02300249999098,None,space,0.35468910000054166,None,0,10,10,10,,,,,,,,,789.8207452999923,,,,,,,,,,,,,789.805461099997,789.8207452999923,789.8207452999923,789.8207452999923,796.8483399999968,down,7.02300249999098,None,796.8601685999893,796.8704651999869,796.8704651999869,796.9133807999897,796.9137427999958,796.9300758999889,796.9300758999889,796.9300758999889,797.013417299997,797.2976702999877,space,0.35468910000054166,None,,,,,,,,,,,,,,,,,,,,,,,,,P104,001,2025-02-12_16h31.09.442,posner_endo_new1,2024.2.4,60.098537558633666,2025-02-12 16h31.17.072719 +0000,
,,,,,,,,,,,,,,,,,,,,,,,,,,,,,,,,,,797.2978587999969,797.313083999994,800.3248946999956,800.2937716999877,,,,,,,,,,,,,,,,,,,,,,,,,,,,,,,,,,,,,,,,,,,,,,P104,001,2025-02-12_16h31.09.442,posner_endo_new1,2024.2.4,60.098537558633666,2025-02-12 16h31.17.072719 +0000,
cube_l.png,0.1,10,catch,0,0,0,down,13.503151099997922,None,None,,,,,,,0,0,0,0,,,,,800.3248946999956,,,,,,,,,,,,,800.3154571999912,800.3248946999956,800.3248946999956,800.3248946999956,813.8304121999972,,,,813.8424266999937,813.8526179999899,813.8526179999899,813.896453399997,813.8968083999935,813.9127817999979,813.9127817999979,813.9127817999979,813.9960824999871,816.9104872999887,,,,down,13.503151099997922,None,816.0105070999998,816.9260501999961,816.9260501999961,816.9260501999961,None,,,,,,,,,,,,,,,,,P104,001,2025-02-12_16h31.09.442,posner_endo_new1,2024.2.4,60.098537558633666,2025-02-12 16h31.17.072719 +0000,
cube_l.png,0.1,10,catch,1,1,0,down,2.181700200002524,None,None,,,,,,,0,1,1,1,,,,,816.9260501999961,,,,,,,,,,,,,816.9107634999964,816.9260501999961,816.9260501999961,816.9260501999961,819.1089719999873,,,,819.1208120999945,819.1310247999936,819.1310247999936,819.1743410999916,819.1746968999942,819.1904552999913,819.1904552999913,819.1904552999913,819.2737732999958,822.1880410999875,,,,down,2.181700200002524,None,821.2886728999874,822.2042706999928,822.2042706999928,822.2042706999928,None,,,,,,,,,,,,,,,,,P104,001,2025-02-12_16h31.09.442,posner_endo_new1,2024.2.4,60.098537558633666,2025-02-12 16h31.17.072719 +0000,
cube_l.png,0.1,0.31,invalid,2,2,0,down,5.3273472000000766,None,space,0.3943499000015436,None,,,,,0,2,2,2,,,,,822.2042706999928,,,,,,,,,,,,,822.1883169999928,822.2042706999928,822.2042706999928,822.2042706999928,827.5333183999901,,,,827.5408869999956,827.5517421999975,827.5517421999975,827.5989318999927,827.599441399987,827.6154475999938,827.6154475999938,827.6154475999938,827.6985179999901,828.0161716999864,,,,down,5.3273472000000766,None,,,,,space,0.3943499000015436,None,,,,,,,,,,,,,,,P104,001,2025-02-12_16h31.09.442,posner_endo_new1,2024.2.4,60.098537558633666,2025-02-12 16h31.17.072719 +0000,
cube_l.png,0.1,0.31,invalid,3,3,0,down,8.812830700000632,None,space,0.4970074000011664,None,,,,,0,3,3,3,,,,,828.0314093999914,,,,,,,,,,,,,828.016475299999,828.0314093999914,828.0314093999914,828.0314093999914,836.8571196999983,,,,836.8689356999967,836.8790770999913,836.8790770999913,836.9226299999864,836.9228844999889,836.9392387999978,836.9392387999978,836.9392387999978,837.0225084999984,837.439576299992,,,,down,8.812830700000632,None,,,,,space,0.4970074000011664,None,,,,,,,,,,,,,,,P104,001,2025-02-12_16h31.09.442,posner_endo_new1,2024.2.4,60.098537558633666,2025-02-12 16h31.17.072719 +0000,
cube_l.png,0.1,-0.31,valid,4,4,0,down,6.500246299998253,None,space,0.4487700999889057,None,,,,,0,4,4,4,,,,,837.4552582999895,,,,,,,,,,,,,837.4397800999868,837.4552582999895,837.4552582999895,837.4552582999895,843.9659958999982,,,,843.9736368999875,843.9848672999942,843.9848672999942,844.0321586999926,844.0326705999905,844.0486543999868,844.0486543999868,844.0486543999868,844.115169599987,844.5001082999952,,,,down,6.500246299998253,None,,,,,space,0.4487700999889057,None,,,,,,,,,,,,,,,P104,001,2025-02-12_16h31.09.442,posner_endo_new1,2024.2.4,60.098537558633666,2025-02-12 16h31.17.072719 +0000,
cube_r.png,0.1,-0.31,invalid,5,5,0,down,7.20989980000013,None,space,0.4157316999917384,None,,,,,0,5,5,5,,,,,844.5147918999864,,,,,,,,,,,,,844.5005612999958,844.5147918999864,844.5147918999864,844.5147918999864,851.7421510999993,,,,851.7540084999928,851.7639491999871,851.7639491999871,851.8075371999876,851.8078892999911,851.8236502999935,851.8236502999935,851.8236502999935,851.907212399994,852.2414519999875,,,,down,7.20989980000013,None,,,,,space,0.4157316999917384,None,,,,,,,,,,,,,,,P104,001,2025-02-12_16h31.09.442,posner_endo_new1,2024.2.4,60.098537558633666,2025-02-12 16h31.17.072719 +0000,
cube_r.png,0.1,0.31,valid,6,6,0,down,10.099306499992963,None,space,0.3579471000120975,None,,,,,0,6,6,6,,,,,852.2568977999908,,,,,,,,,,,,,852.2417454999959,852.2568977999908,852.2568977999908,852.2568977999908,862.3641971999896,,,,862.376206099987,862.386599999998,862.386599999998,862.4297904999985,862.4301410999906,862.4466189999948,862.4466189999948,862.4466189999948,862.5297262999957,862.813971999989,,,,down,10.099306499992963,None,,,,,space,0.3579471000120975,None,,,,,,,,,,,,,,,P104,001,2025-02-12_16h31.09.442,posner_endo_new1,2024.2.4,60.098537558633666,2025-02-12 16h31.17.072719 +0000,
cube_r.png,0.1,-0.31,invalid,7,7,0,down,5.814900299999863,None,space,0.3716463000018848,None,,,,,0,7,7,7,,,,,862.8293370999891,,,,,,,,,,,,,862.8142676999996,862.8293370999891,862.8293370999891,862.8293370999891,868.6579186999879,,,,868.669828699989,868.6800987999886,868.6800987999886,868.7231619999948,868.7234207000001,868.7397758000006,868.7397758000006,868.7397758000006,868.8232221999933,869.1236093999905,,,,down,5.814900299999863,None,,,,,space,0.3716463000018848,None,,,,,,,,,,,,,,,P104,001,2025-02-12_16h31.09.442,posner_endo_new1,2024.2.4,60.098537558633666,2025-02-12 16h31.17.072719 +0000,
cube_l.png,0.1,-0.31,valid,8,8,0,down,8.840003400007845,None,space,0.3491016000043601,None,,,,,0,8,8,8,,,,,869.1393776999903,,,,,,,,,,,,,869.1238124999945,869.1393776999903,869.1393776999903,869.1393776999903,877.9816969999956,,,,877.989316799998,878.0001193999924,878.0001193999924,878.0473614999937,878.0478664999973,878.0637652000005,878.0637652000005,878.0637652000005,878.1469971999904,878.4154787999869,,,,down,8.840003400007845,None,,,,,space,0.3491016000043601,None,,,,,,,,,,,,,,,P104,001,2025-02-12_16h31.09.442,posner_endo_new1,2024.2.4,60.098537558633666,2025-02-12 16h31.17.072719 +0000,
cube_r.png,0.1,-0.31,invalid,9,9,0,down,11.261331999994582,None,space,0.2812363999983063,None,,,,,0,9,9,9,,,,,878.4300611999934,,,,,,,,,,,,,878.4159376999887,878.4300611999934,878.4300611999934,878.4300611999934,889.7032688999898,,,,889.7150743999955,889.7255280999962,889.7255280999962,889.7685320999881,889.768882599994,889.7850812999968,889.7850812999968,889.7850812999968,889.868587799996,890.0692860999989,,,,down,11.261331999994582,None,,,,,space,0.2812363999983063,None,,,,,,,,,,,,,,,P104,001,2025-02-12_16h31.09.442,posner_endo_new1,2024.2.4,60.098537558633666,2025-02-12 16h31.17.072719 +0000,
cube_l.png,0.1,0.31,invalid,10,10,0,down,5.902780799995526,None,space,0.39765289999195375,None,,,,,0,10,10,10,,,,,890.0846689999889,,,,,,,,,,,,,890.0695837999956,890.0846689999889,890.0846689999889,890.0846689999889,895.9966543999908,,,,896.0085047999892,896.0188365999929,896.0188365999929,896.062265399989,896.0626384999923,896.0787160999898,896.0787160999898,896.0787160999898,896.1619601999992,896.4797451999912,,,,down,5.902780799995526,None,,,,,space,0.39765289999195375,None,,,,,,,,,,,,,,,P104,001,2025-02-12_16h31.09.442,posner_endo_new1,2024.2.4,60.098537558633666,2025-02-12 16h31.17.072719 +0000,
cube_r.png,0.1,-0.31,invalid,11,11,0,down,5.797648599997046,None,space,0.3779817000031471,None,,,,,0,11,11,11,,,,,896.4945903999906,,,,,,,,,,,,,896.4800407999865,896.4945903999906,896.4945903999906,896.4945903999906,902.3066733999876,,,,902.318526099989,902.3289787999965,902.3289787999965,902.372566799997,902.372919699992,902.3890148999926,902.3890148999926,902.3890148999926,902.4721490999946,902.7729748999991,,,,down,5.797648599997046,None,,,,,space,0.3779817000031471,None,,,,,,,,,,,,,,,P104,001,2025-02-12_16h31.09.442,posner_endo_new1,2024.2.4,60.098537558633666,2025-02-12 16h31.17.072719 +0000,
cube_r.png,0.1,0.31,valid,12,12,0,down,6.399801200008369,None,space,0.6766778000019258,None,,,,,0,12,12,12,,,,,902.788206799989,,,,,,,,,,,,,902.7732694000006,902.788206799989,902.788206799989,902.788206799989,909.1995104999951,,,,909.2131410999864,909.2253457999905,909.2253457999905,909.2658700999891,909.2665454999951,909.2822200999944,909.2822200999944,909.2822200999944,909.3488489999872,909.9673034999869,,,,down,6.399801200008369,None,,,,,space,0.6766778000019258,None,,,,,,,,,,,,,,,P104,001,2025-02-12_16h31.09.442,posner_endo_new1,2024.2.4,60.098537558633666,2025-02-12 16h31.17.072719 +0000,
cube_l.png,0.1,10,catch,13,13,0,down,4.406463100007386,None,None,,,,,,,0,13,13,13,,,,,909.9817020999908,,,,,,,,,,,,,909.9679125999974,909.9817020999908,909.9817020999908,909.9817020999908,914.396625399997,,,,914.4203276999906,914.4330009999976,914.4330009999976,914.4596833999967,914.4600309999951,914.4761580999912,914.4761580999912,914.4761580999912,914.5596011999878,917.4743676999933,,,,down,4.406463100007386,None,916.5743513999914,917.4901730999991,917.4901730999991,917.4901730999991,None,,,,,,,,,,,,,,,,,P104,001,2025-02-12_16h31.09.442,posner_endo_new1,2024.2.4,60.098537558633666,2025-02-12 16h31.17.072719 +0000,
cube_r.png,0.1,-0.31,invalid,14,14,0,down,3.137302399991313,None,space,0.3162432999961311,None,,,,,0,14,14,14,,,,,917.4901730999991,,,,,,,,,,,,,917.4746314999938,917.4901730999991,917.4901730999991,917.4901730999991,920.6377464999969,,,,920.6490198999963,920.6592036999937,920.6592036999937,920.7034760999959,920.7038114999887,920.7200338999974,920.7200338999974,920.7200338999974,920.8032226999931,921.0379034999933,,,,down,3.137302399991313,None,,,,,space,0.3162432999961311,None,,,,,,,,,,,,,,,P104,001,2025-02-12_16h31.09.442,posner_endo_new1,2024.2.4,60.098537558633666,2025-02-12 16h31.17.072719 +0000,
cube_l.png,0.1,-0.31,valid,15,15,0,down,7.734756100006052,None,space,0.5804648999910569,None,,,,,0,15,15,15,,,,,921.0529222999903,,,,,,,,,,,,,921.0381881999929,921.0529222999903,921.0529222999903,921.0529222999903,928.7963853999972,,,,928.8076935999998,928.8179576999974,928.8179576999974,928.8621531999961,928.8624913999956,928.8781940999907,928.8781940999907,928.8781940999907,928.9617415999965,929.4625981999998,,,,down,7.734756100006052,None,,,,,space,0.5804648999910569,None,,,,,,,,,,,,,,,P104,001,2025-02-12_16h31.09.442,posner_endo_new1,2024.2.4,60.098537558633666,2025-02-12 16h31.17.072719 +0000,
cube_r.png,0.1,10,catch,16,16,0,down,7.1753687000018544,None,space,0.3062822999927448,None,,,,,0,16,16,16,,,,,929.4779882999865,,,,,,,,,,,,,929.462881799991,929.4779882999865,929.4779882999865,929.4779882999865,936.6549259999883,,,,936.663564699993,936.6735393999988,936.6735393999988,936.720407899993,936.7207559999952,936.7372557999915,936.7372557999915,936.7372557999915,936.8201406000007,937.0547155999957,,,,down,7.1753687000018544,None,,,,,space,0.3062822999927448,None,,,,,,,,,,,,,,,P104,001,2025-02-12_16h31.09.442,posner_endo_new1,2024.2.4,60.098537558633666,2025-02-12 16h31.17.072719 +0000,
cube_r.png,0.1,10,catch,17,17,0,down,7.965375100000529,None,None,,,,,,,0,17,17,17,,,,,937.0700122999988,,,,,,,,,,,,,937.0549964999955,937.0700122999988,937.0700122999988,937.0700122999988,945.0465646999946,,,,945.0577096999914,945.0679124999879,945.0679124999879,945.1120421999949,945.1123866999988,945.1286789999867,945.1286789999867,945.1286789999867,945.211418299994,948.1262625999952,,,,down,7.965375100000529,None,947.2264307999867,948.1417346999951,948.1417346999951,948.1417346999951,None,,,,,,,,,,,,,,,,,P104,001,2025-02-12_16h31.09.442,posner_endo_new1,2024.2.4,60.098537558633666,2025-02-12 16h31.17.072719 +0000,
cube_l.png,0.1,0.31,invalid,18,18,0,down,3.837717199989129,None,space,0.4426039999962086,None,,,,,0,18,18,18,,,,,948.1417346999951,,,,,,,,,,,,,948.1265331999894,948.1417346999951,948.1417346999951,948.1417346999951,951.989356399994,,,,952.0006265999982,952.0108857999876,952.0108857999876,952.055157099996,952.0554050999926,952.0714368999907,952.0714368999907,952.0714368999907,952.1544833999942,952.5218293999933,,,,down,3.837717199989129,None,,,,,space,0.4426039999962086,None,,,,,,,,,,,,,,,P104,001,2025-02-12_16h31.09.442,posner_endo_new1,2024.2.4,60.098537558633666,2025-02-12 16h31.17.072719 +0000,
cube_l.png,0.1,10,catch,19,19,0,down,6.210420000003069,None,None,,,,,,,0,19,19,19,,,,,952.5378338999872,,,,,,,,,,,,,952.52202389999,952.5378338999872,952.5378338999872,952.5378338999872,958.7654001999908,,,,958.7739472999965,958.7840547999949,958.7840547999949,958.8315538999886,958.8318126999948,958.8475203999988,958.8475203999988,958.8475203999988,958.914099799993,961.8465995000006,,,,down,6.210420000003069,None,960.9293924999947,961.8617436999921,961.8617436999921,961.8617436999921,None,,,,,,,,,,,,,,,,,P104,001,2025-02-12_16h31.09.442,posner_endo_new1,2024.2.4,60.098537558633666,2025-02-12 16h31.17.072719 +0000,
cube_l.png,0.1,0.31,invalid,20,20,0,down,2.7902227000013227,None,space,0.39815350000571925,None,,,,,0,20,20,20,,,,,961.8617436999921,,,,,,,,,,,,,961.8471678999922,961.8617436999921,961.8617436999921,961.8617436999921,964.6613938999944,,,,964.6824205999874,964.6926573999954,964.6926573999954,964.7251453999925,964.7255437999993,964.7415456999879,964.7415456999879,964.7415456999879,964.8248609000002,965.1427006999875,,,,down,2.7902227000013227,None,,,,,space,0.39815350000571925,None,,,,,,,,,,,,,,,P104,001,2025-02-12_16h31.09.442,posner_endo_new1,2024.2.4,60.098537558633666,2025-02-12 16h31.17.072719 +0000,
cube_l.png,0.1,-0.31,valid,21,21,0,down,4.51033410000673,None,space,0.39307170000392944,None,,,,,0,21,21,21,,,,,965.1578452999966,,,,,,,,,,,,,965.143046799989,965.1578452999966,965.1578452999966,965.1578452999966,969.6710333999945,,,,969.6772554999916,969.6888276999962,969.6888276999962,969.7368081999884,969.7370497999946,969.7534441999887,969.7534441999887,969.7534441999887,969.819896999994,970.1533511999878,,,,down,4.51033410000673,None,,,,,space,0.39307170000392944,None,,,,,,,,,,,,,,,P104,001,2025-02-12_16h31.09.442,posner_endo_new1,2024.2.4,60.098537558633666,2025-02-12 16h31.17.072719 +0000,
cube_r.png,0.1,0.31,valid,22,22,0,down,17.202208400005475,None,space,0.4021696999989217,None,,,,,0,22,22,22,,,,,970.1696079999965,,,,,,,,,,,,,970.1535394999955,970.1696079999965,970.1696079999965,970.1696079999965,987.3881743999955,,,,987.4121555999882,987.4238346999919,987.4238346999919,987.4517784999916,987.4521340999927,987.4686598999979,987.4686598999979,987.4686598999979,987.5516251999943,987.8859882999968,,,,down,17.202208400005475,None,,,,,space,0.4021696999989217,None,,,,,,,,,,,,,,,P104,001,2025-02-12_16h31.09.442,posner_endo_new1,2024.2.4,60.098537558633666,2025-02-12 16h31.17.072719 +0000,
cube_r.png,0.1,-0.31,invalid,23,23,0,down,6.230441100007738,None,space,0.4913096999953268,None,,,,,0,23,23,23,,,,,987.9014225999999,,,,,,,,,,,,,987.8862660999876,987.9014225999999,987.9014225999999,987.9014225999999,994.1460265999922,,,,994.1572835999978,994.1675312000007,994.1675312000007,994.2115053999878,994.2118498999916,994.2282492999948,994.2282492999948,994.2282492999948,994.3112987999921,994.7290062999964,,,,down,6.230441100007738,None,,,,,space,0.4913096999953268,None,,,,,,,,,,,,,,,P104,001,2025-02-12_16h31.09.442,posner_endo_new1,2024.2.4,60.098537558633666,2025-02-12 16h31.17.072719 +0000,
cube_r.png,0.1,0.31,valid,24,24,0,down,7.459775399998762,None,space,0.3503550000023097,None,,,,,0,24,24,24,,,,,994.7442278999952,,,,,,,,,,,,,994.7292887999938,994.7442278999952,994.7442278999952,994.7442278999952,1002.2212692999892,,,,1002.232640999995,1002.2425485999993,1002.2425485999993,1002.286999399992,1002.2873382999969,1002.3034071999864,1002.3034071999864,1002.3034071999864,1002.3864327999909,1002.6709097999992,,,,down,7.459775399998762,None,,,,,space,0.3503550000023097,None,,,,,,,,,,,,,,,P104,001,2025-02-12_16h31.09.442,posner_endo_new1,2024.2.4,60.098537558633666,2025-02-12 16h31.17.072719 +0000,
cube_r.png,0.1,-0.31,invalid,25,25,0,down,7.973672099993564,None,space,0.3376101000030758,None,,,,,0,25,25,25,,,,,1002.6860295999941,,,,,,,,,,,,,1002.6712014999939,1002.6860295999941,1002.6860295999941,1002.6860295999941,1010.6627205999976,,,,1010.6723479999928,1010.6821805999934,1010.6821805999934,1010.7281236999988,1010.7283915000007,1010.7447892999917,1010.7447892999917,1010.7447892999917,1010.8277135999961,1011.0948888999992,,,,down,7.973672099993564,None,,,,,space,0.3376101000030758,None,,,,,,,,,,,,,,,P104,001,2025-02-12_16h31.09.442,posner_endo_new1,2024.2.4,60.098537558633666,2025-02-12 16h31.17.072719 +0000,
cube_l.png,0.1,-0.31,valid,26,26,0,down,7.597154100003536,None,space,0.40548410000337753,None,,,,,0,26,26,26,,,,,1011.1110347999929,,,,,,,,,,,,,1011.0950828999921,1011.1110347999929,1011.1110347999929,1011.1110347999929,1018.722680699997,,,,1018.7431879999931,1018.7534341999999,1018.7534341999999,1018.7864256999892,1018.7868260999967,1018.8028563999978,1018.8028563999978,1018.8028563999978,1018.88619379999,1019.2200831999944,,,,down,7.597154100003536,None,,,,,space,0.40548410000337753,None,,,,,,,,,,,,,,,P104,001,2025-02-12_16h31.09.442,posner_endo_new1,2024.2.4,60.098537558633666,2025-02-12 16h31.17.072719 +0000,
cube_r.png,0.1,0.31,valid,27,27,0,down,7.703600599998026,None,space,0.3608864999987418,None,,,,,0,27,27,27,,,,,1019.2360860999906,,,,,,,,,,,,,1019.2203154999879,1019.2360860999906,1019.2360860999906,1019.2360860999906,1026.9461854999972,,,,1026.9549750000006,1026.965145299997,1026.965145299997,1027.011779499997,1027.0120647999865,1027.0278057999967,1027.0278057999967,1027.0278057999967,1027.111231399991,1027.3953890999983,,,,down,7.703600599998026,None,,,,,space,0.3608864999987418,None,,,,,,,,,,,,,,,P104,001,2025-02-12_16h31.09.442,posner_endo_new1,2024.2.4,60.098537558633666,2025-02-12 16h31.17.072719 +0000,
cube_r.png,0.1,10,catch,28,28,0,down,6.209361300003366,None,None,,,,,,,0,28,28,28,,,,,1027.4111547999928,,,,,,,,,,,,,1027.3956274999946,1027.4111547999928,1027.4111547999928,1027.4111547999928,1033.6221326999948,,,,1033.6308286999993,1033.6408205999905,1033.6408205999905,1033.687801699998,1033.6880886,1033.7044565999968,1033.7044565999968,1033.7044565999968,1033.7713753999997,1036.7018188999937,,,,down,6.209361300003366,None,1035.7855175000004,1036.7183095999935,1036.7183095999935,1036.7183095999935,None,,,,,,,,,,,,,,,,,P104,001,2025-02-12_16h31.09.442,posner_endo_new1,2024.2.4,60.098537558633666,2025-02-12 16h31.17.072719 +0000,
cube_r.png,0.1,0.31,valid,29,29,0,down,3.2857804000086617,None,space,0.3578525000048103,None,,,,,0,29,29,29,,,,,1036.7183095999935,,,,,,,,,,,,,1036.7020362999901,1036.7183095999935,1036.7183095999935,1036.7183095999935,1040.0155021999963,,,,1040.024240999992,1040.0344775999984,1040.0344775999984,1040.0816101999953,1040.0821330999897,1040.0980361999973,1040.0980361999973,1040.0980361999973,1040.1646182999975,1040.4660899999872,,,,down,3.2857804000086617,None,,,,,space,0.3578525000048103,None,,,,,,,,,,,,,,,P104,001,2025-02-12_16h31.09.442,posner_endo_new1,2024.2.4,60.098537558633666,2025-02-12 16h31.17.072719 +0000,
cube_r.png,0.1,0.31,valid,30,30,0,down,6.875454699998954,None,space,0.35223589999077376,None,,,,,0,30,30,30,,,,,1040.480939999994,,,,,,,,,,,,,1040.4665290999983,1040.480939999994,1040.480939999994,1040.480939999994,1047.3586567999882,,,,1047.3703969999915,1047.3805502999894,1047.3805502999894,1047.4236409999867,1047.4239013999904,1047.4406755999953,1047.4406755999953,1047.4406755999953,1047.5235200999887,1047.8082066999923,,,,down,6.875454699998954,None,,,,,space,0.35223589999077376,None,,,,,,,,,,,,,,,P104,001,2025-02-12_16h31.09.442,posner_endo_new1,2024.2.4,60.098537558633666,2025-02-12 16h31.17.072719 +0000,
cube_l.png,0.1,-0.31,valid,31,31,0,down,6.556727899995167,None,space,0.34877189999679103,None,,,,,0,31,31,31,,,,,1047.8231927999877,,,,,,,,,,,,,1047.808508999995,1047.8231927999877,1047.8231927999877,1047.8231927999877,1054.3845635999896,,,,1054.3964463999873,1054.4067389999982,1054.4067389999982,1054.4502788999962,1054.4505461999943,1054.4663211999869,1054.4663211999869,1054.4663211999869,1054.5496289000002,1054.8173581999872,,,,down,6.556727899995167,None,,,,,space,0.34877189999679103,None,,,,,,,,,,,,,,,P104,001,2025-02-12_16h31.09.442,posner_endo_new1,2024.2.4,60.098537558633666,2025-02-12 16h31.17.072719 +0000,
cube_r.png,0.1,0.31,valid,32,32,0,down,6.395508100002189,None,space,0.3548146999964956,None,,,,,0,32,32,32,,,,,1054.8327183999936,,,,,,,,,,,,,1054.8176564999885,1054.8327183999936,1054.8327183999936,1054.8327183999936,1061.2443895999895,,,,1061.2535077999928,1061.2634950999927,1061.2634950999927,1061.3097366000002,1061.3099940999964,1061.3268944999872,1061.3268944999872,1061.3268944999872,1061.4095977999968,1061.6934005999938,,,,down,6.395508100002189,None,,,,,space,0.3548146999964956,None,,,,,,,,,,,,,,,P104,001,2025-02-12_16h31.09.442,posner_endo_new1,2024.2.4,60.098537558633666,2025-02-12 16h31.17.072719 +0000,
cube_r.png,0.1,-0.31,invalid,33,33,0,down,6.8227082999947015,None,space,0.37094700000307057,None,,,,,0,33,33,33,,,,,1061.7093142999947,,,,,,,,,,,,,1061.6936053999962,1061.7093142999947,1061.7093142999947,1061.7093142999947,1068.5366638999985,,,,1068.54856689999,1068.5589579999942,1068.5589579999942,1068.6024456999876,1068.6028067000007,1068.6190512999892,1068.6190512999892,1068.6190512999892,1068.7022358999966,1069.0028077999887,,,,down,6.8227082999947015,None,,,,,space,0.37094700000307057,None,,,,,,,,,,,,,,,P104,001,2025-02-12_16h31.09.442,posner_endo_new1,2024.2.4,60.098537558633666,2025-02-12 16h31.17.072719 +0000,
cube_r.png,0.1,10,catch,34,34,0,down,6.425310999999056,None,None,,,,,,,0,34,34,34,,,,,1069.0185017999902,,,,,,,,,,,,,1069.0031186999986,1069.0185017999902,1069.0185017999902,1069.0185017999902,1075.4482830999914,,,,1075.47047439999,1075.4809038999956,1075.4809038999956,1075.5116666999966,1075.5120242999983,1075.5281294999877,1075.5281294999877,1075.5281294999877,1075.611674899992,1078.5260500000004,,,,down,6.425310999999056,None,1077.6263315999968,1078.5421418999904,1078.5421418999904,1078.5421418999904,None,,,,,,,,,,,,,,,,,P104,001,2025-02-12_16h31.09.442,posner_endo_new1,2024.2.4,60.098537558633666,2025-02-12 16h31.17.072719 +0000,
cube_r.png,0.1,0.31,valid,35,35,0,down,4.21413290000055,None,space,0.36809039999207016,None,,,,,0,35,35,35,,,,,1078.5421418999904,,,,,,,,,,,,,1078.5263243999943,1078.5421418999904,1078.5421418999904,1078.5421418999904,1082.7720913999947,,,,1082.7840202999942,1082.7943077999953,1082.7943077999953,1082.837936099997,1082.8382953999972,1082.854143199991,1082.854143199991,1082.854143199991,1082.937628899992,1083.2383281999937,,,,down,4.21413290000055,None,,,,,space,0.36809039999207016,None,,,,,,,,,,,,,,,P104,001,2025-02-12_16h31.09.442,posner_endo_new1,2024.2.4,60.098537558633666,2025-02-12 16h31.17.072719 +0000,
cube_r.png,0.1,-0.31,invalid,36,36,0,down,7.630244200001471,None,space,0.41257250000489876,None,,,,,0,36,36,36,,,,,1083.2539342999953,,,,,,,,,,,,,1083.2386199999892,1083.2539342999953,1083.2539342999953,1083.2539342999953,1090.8971787999908,,,,1090.9089252999984,1090.9192048999976,1090.9192048999976,1090.9625761999923,1090.9629283999966,1090.9794435999938,1090.9794435999938,1090.9794435999938,1091.062716299988,1091.39706019999,,,,down,7.630244200001471,None,,,,,space,0.41257250000489876,None,,,,,,,,,,,,,,,P104,001,2025-02-12_16h31.09.442,posner_endo_new1,2024.2.4,60.098537558633666,2025-02-12 16h31.17.072719 +0000,
cube_l.png,0.1,0.31,invalid,37,37,0,down,7.3441014000127325,None,space,0.3786455999943428,None,,,,,0,37,37,37,,,,,1091.412214699987,,,,,,,,,,,,,1091.397372499996,1091.412214699987,1091.412214699987,1091.412214699987,1098.7725995999936,,,,1098.7822704999999,1098.7918026999978,1098.7918026999978,1098.8380922999931,1098.8383412999974,1098.8547575999983,1098.8547575999983,1098.8547575999983,1098.9377431999892,1099.238154999999,,,,down,7.3441014000127325,None,,,,,space,0.3786455999943428,None,,,,,,,,,,,,,,,P104,001,2025-02-12_16h31.09.442,posner_endo_new1,2024.2.4,60.098537558633666,2025-02-12 16h31.17.072719 +0000,
cube_l.png,0.1,0.31,invalid,38,38,0,down,4.557821499998681,None,space,0.3674609000008786,None,,,,,0,38,38,38,,,,,1099.254214799992,,,,,,,,,,,,,1099.2383492999943,1099.254214799992,1099.254214799992,1099.254214799992,1103.8172029999987,,,,1103.827554699994,1103.8376422999863,1103.8376422999863,1103.8827528999973,1103.8830757999967,1103.8992670000007,1103.8992670000007,1103.8992670000007,1103.9827179999993,1104.2836022999982,,,,down,4.557821499998681,None,,,,,space,0.3674609000008786,None,,,,,,,,,,,,,,,P104,001,2025-02-12_16h31.09.442,posner_endo_new1,2024.2.4,60.098537558633666,2025-02-12 16h31.17.072719 +0000,
cube_r.png,0.1,0.31,valid,39,39,0,down,5.97783299999719,None,space,0.3377593000041088,None,,,,,0,39,39,39,,,,,1104.2988148999866,,,,,,,,,,,,,1104.2838641999988,1104.2988148999866,1104.2988148999866,1104.2988148999866,1110.2938922999892,,,,1110.3020690999983,1110.312455399995,1110.312455399995,1110.359815399992,1110.3603326999873,1110.3762507999927,1110.3762507999927,1110.3762507999927,1110.459379699998,1110.7268532999879,,,,down,5.97783299999719,None,,,,,space,0.3377593000041088,None,,,,,,,,,,,,,,,P104,001,2025-02-12_16h31.09.442,posner_endo_new1,2024.2.4,60.098537558633666,2025-02-12 16h31.17.072719 +0000,
cube_l.png,0.1,0.31,invalid,40,40,0,down,6.460991200001445,None,space,0.5348144000017783,None,,,,,0,40,40,40,,,,,1110.7425880999945,,,,,,,,,,,,,1110.7271600999957,1110.7425880999945,1110.7425880999945,1110.7425880999945,1117.2205542999873,,,,1117.2313724999985,1117.2407109999913,1117.2407109999913,1117.2859364999895,1117.2861829999893,1117.3024323999998,1117.3024323999998,1117.3024323999998,1117.3857534999988,1117.852809899996,,,,down,6.460991200001445,None,,,,,space,0.5348144000017783,None,,,,,,,,,,,,,,,P104,001,2025-02-12_16h31.09.442,posner_endo_new1,2024.2.4,60.098537558633666,2025-02-12 16h31.17.072719 +0000,
cube_l.png,0.1,10,catch,41,41,0,down,6.751357899993309,None,None,,,,,,,0,41,41,41,,,,,1117.8681747999944,,,,,,,,,,,,,1117.8530012999981,1117.8681747999944,1117.8681747999944,1117.8681747999944,1124.6302769999893,,,,1124.649540399987,1124.6610599999985,1124.6610599999985,1124.6947789999977,1124.6951336999919,1124.7116417999932,1124.7116417999932,1124.7116417999932,1124.7947653999872,1127.7092713999882,,,,down,6.751357899993309,None,1126.8092074999877,1127.7248469999904,1127.7248469999904,1127.7248469999904,None,,,,,,,,,,,,,,,,,P104,001,2025-02-12_16h31.09.442,posner_endo_new1,2024.2.4,60.098537558633666,2025-02-12 16h31.17.072719 +0000,
cube_l.png,0.1,-0.31,valid,42,42,0,down,3.208121100004064,None,space,0.3843388000095729,None,,,,,0,42,42,42,,,,,1127.7248469999904,,,,,,,,,,,,,1127.7095508999919,1127.7248469999904,1127.7248469999904,1127.7248469999904,1130.9394857999869,,,,1130.9513020999875,1130.9615677999973,1130.9615677999973,1131.0051483999996,1131.0054124999879,1131.0214290999866,1131.0214290999866,1131.0214290999866,1131.1050383999973,1131.4231779999973,,,,down,3.208121100004064,None,,,,,space,0.3843388000095729,None,,,,,,,,,,,,,,,P104,001,2025-02-12_16h31.09.442,posner_endo_new1,2024.2.4,60.098537558633666,2025-02-12 16h31.17.072719 +0000,
cube_l.png,0.1,10,catch,43,43,0,down,8.09378719999222,None,None,,,,,,,0,43,43,43,,,,,1131.4380593999958,,,,,,,,,,,,,1131.42368539999,1131.4380593999958,1131.4380593999958,1131.4380593999958,1139.5485405999934,,,,1139.567703599998,1139.5785575999907,1139.5785575999907,1139.6129884999973,1139.6132814999874,1139.629544899988,1139.629544899988,1139.629544899988,1139.7125491999905,1142.6277174999996,,,,down,8.09378719999222,None,1141.7275042999972,1142.643238299992,1142.643238299992,1142.643238299992,None,,,,,,,,,,,,,,,,,P104,001,2025-02-12_16h31.09.442,posner_endo_new1,2024.2.4,60.098537558633666,2025-02-12 16h31.17.072719 +0000,
cube_l.png,0.1,0.31,invalid,44,44,0,down,3.969032699998934,None,space,0.3573287000035634,None,,,,,0,44,44,44,,,,,1142.643238299992,,,,,,,,,,,,,1142.6281615999906,1142.643238299992,1142.643238299992,1142.643238299992,1146.6244595999888,,,,1146.6435214999947,1146.654997199992,1146.654997199992,1146.6888475999876,1146.6891762999876,1146.7057004999951,1146.7057004999951,1146.7057004999951,1146.7886384999874,1147.0730375999992,,,,down,3.969032699998934,None,,,,,space,0.3573287000035634,None,,,,,,,,,,,,,,,P104,001,2025-02-12_16h31.09.442,posner_endo_new1,2024.2.4,60.098537558633666,2025-02-12 16h31.17.072719 +0000,
cube_l.png,0.1,0.31,invalid,45,45,0,down,5.93141389999073,None,space,0.3672516000078758,None,,,,,0,45,45,45,,,,,1147.0886111,,,,,,,,,,,,,1147.0733140999946,1147.0886111,1147.0886111,1147.0886111,1153.0336873999913,,,,1153.0437033999915,1153.053968799999,1153.053968799999,1153.0994397999893,1153.099753699993,1153.1155978999886,1153.1155978999886,1153.1155978999886,1153.1988784999994,1153.499872699991,,,,down,5.93141389999073,None,,,,,space,0.3672516000078758,None,,,,,,,,,,,,,,,P104,001,2025-02-12_16h31.09.442,posner_endo_new1,2024.2.4,60.098537558633666,2025-02-12 16h31.17.072719 +0000,
cube_r.png,0.1,0.31,valid,46,46,0,down,9.608964899991406,None,space,0.31847620000189636,None,,,,,0,46,46,46,,,,,1153.5154345999908,,,,,,,,,,,,,1153.500132599991,1153.5154345999908,1153.5154345999908,1153.5154345999908,1163.1399982000003,,,,1163.1500245999923,1163.1601456999924,1163.1601456999924,1163.2053869999945,1163.2057008999982,1163.2217995999963,1163.2217995999963,1163.2217995999963,1163.3055165999976,1163.5558613999892,,,,down,9.608964899991406,None,,,,,space,0.31847620000189636,None,,,,,,,,,,,,,,,P104,001,2025-02-12_16h31.09.442,posner_endo_new1,2024.2.4,60.098537558633666,2025-02-12 16h31.17.072719 +0000,
cube_l.png,0.1,-0.31,valid,47,47,0,down,4.807898300001398,None,space,0.43342719999782275,None,,,,,0,47,47,47,,,,,1163.5716749999992,,,,,,,,,,,,,1163.5561148999986,1163.5716749999992,1163.5716749999992,1163.5716749999992,1168.3844489999901,,,,1168.3944425999944,1168.4048333999963,1168.4048333999963,1168.450315899987,1168.4506315999897,1168.466885499991,1168.466885499991,1168.466885499991,1168.5498325999943,1168.9170803999878,,,,down,4.807898300001398,None,,,,,space,0.43342719999782275,None,,,,,,,,,,,,,,,P104,001,2025-02-12_16h31.09.442,posner_endo_new1,2024.2.4,60.098537558633666,2025-02-12 16h31.17.072719 +0000,
cube_r.png,0.1,-0.31,invalid,48,48,0,down,6.366782700002659,None,space,0.44566060000215657,None,,,,,0,48,48,48,,,,,1168.9330300999864,,,,,,,,,,,,,1168.9173431999952,1168.9330300999864,1168.9330300999864,1168.9330300999864,1175.310610799992,,,,1175.3206662999874,1175.3308065999881,1175.3308065999881,1175.3766183999978,1175.3769321,1175.3929925999983,1175.3929925999983,1175.3929925999983,1175.4593277999957,1175.8435188999865,,,,down,6.366782700002659,None,,,,,space,0.44566060000215657,None,,,,,,,,,,,,,,,P104,001,2025-02-12_16h31.09.442,posner_endo_new1,2024.2.4,60.098537558633666,2025-02-12 16h31.17.072719 +0000,
cube_r.png,0.1,10,catch,49,49,0,down,7.3047188999917125,None,None,,,,,,,0,49,49,49,,,,,1175.8592192999931,,,,,,,,,,,,,1175.8437852999923,1175.8592192999931,1175.8592192999931,1175.8592192999931,1183.1696573999943,,,,1183.1798281999945,1183.1899943999888,1183.1899943999888,1183.2351595999935,1183.2354709999927,1183.251632399988,1183.251632399988,1183.251632399988,1183.3349638999935,1186.2489396999881,,,,down,7.3047188999917125,None,1185.3495276999893,1186.2650861999864,1186.2650861999864,1186.2650861999864,None,,,,,,,,,,,,,,,,,P104,001,2025-02-12_16h31.09.442,posner_endo_new1,2024.2.4,60.098537558633666,2025-02-12 16h31.17.072719 +0000,
cube_l.png,0.1,-0.31,valid,50,50,0,down,1.9871877999976277,None,space,0.3644384000072023,None,,,,,0,50,50,50,,,,,1186.2650861999864,,,,,,,,,,,,,1186.2491824999888,1186.2650861999864,1186.2650861999864,1186.2650861999864,1188.2643726999959,,,,1188.274387499987,1188.284741999989,1188.284741999989,1188.3297545999958,1188.3300712999917,1188.346600399993,1188.346600399993,1188.346600399993,1188.429475099998,1188.7138976999995,,,,down,1.9871877999976277,None,,,,,space,0.3644384000072023,None,,,,,,,,,,,,,,,P104,001,2025-02-12_16h31.09.442,posner_endo_new1,2024.2.4,60.098537558633666,2025-02-12 16h31.17.072719 +0000,
cube_l.png,0.1,-0.31,valid,51,51,0,down,4.939580000005662,None,space,0.36801170000398997,None,,,,,0,51,51,51,,,,,1188.7291001999984,,,,,,,,,,,,,1188.7141599999886,1188.7291001999984,1188.7291001999984,1188.7291001999984,1193.6755871999922,,,,1193.6855996999948,1193.6959389999975,1193.6959389999975,1193.741162099992,1193.7414758999948,1193.7575407999975,1193.7575407999975,1193.7575407999975,1193.8409966999898,1194.1413549999997,,,,down,4.939580000005662,None,,,,,space,0.36801170000398997,None,,,,,,,,,,,,,,,P104,001,2025-02-12_16h31.09.442,posner_endo_new1,2024.2.4,60.098537558633666,2025-02-12 16h31.17.072719 +0000,
cube_r.png,0.1,-0.31,invalid,52,52,0,down,23.67107159999432,None,space,0.544151599999168,None,,,,,0,52,52,52,,,,,1194.1571049999911,,,,,,,,,,,,,1194.1416212999902,1194.1571049999911,1194.1571049999911,1194.1571049999911,1217.83371549999,,,,1217.8439313999988,1217.8542496999871,1217.8542496999871,1217.8997307999962,1217.9000503999996,1217.9160826999869,1217.9160826999869,1217.9160826999869,1217.9994559999905,1218.4664989999874,,,,down,23.67107159999432,None,,,,,space,0.544151599999168,None,,,,,,,,,,,,,,,P104,001,2025-02-12_16h31.09.442,posner_endo_new1,2024.2.4,60.098537558633666,2025-02-12 16h31.17.072719 +0000,
cube_l.png,0.1,-0.31,valid,53,53,0,down,6.033050799989724,None,space,0.3713123000052292,None,,,,,0,53,53,53,,,,,1218.4824187999911,,,,,,,,,,,,,1218.466754699999,1218.4824187999911,1218.4824187999911,1218.4824187999911,1224.5272071999934,,,,1224.537347199992,1224.54773939999,1224.54773939999,1224.593017799998,1224.5933327999956,1224.6090266999963,1224.6090266999963,1224.6090266999963,1224.6925686999894,1224.9934843999945,,,,down,6.033050799989724,None,,,,,space,0.3713123000052292,None,,,,,,,,,,,,,,,P104,001,2025-02-12_16h31.09.442,posner_endo_new1,2024.2.4,60.098537558633666,2025-02-12 16h31.17.072719 +0000,
cube_r.png,0.1,10,catch,54,54,0,down,5.40267669998866,None,None,,,,,,,0,54,54,54,,,,,1225.0090269999928,,,,,,,,,,,,,1224.9937508999865,1225.0090269999928,1225.0090269999928,1225.0090269999928,1230.420813299992,,,,1230.4308588999993,1230.4412174999889,1230.4412174999889,1230.4865585999942,1230.4868755999923,1230.503317499999,1230.503317499999,1230.503317499999,1230.5696651999897,1233.5009352999914,,,,down,5.40267669998866,None,1232.5846164999966,1233.5170670999942,1233.5170670999942,1233.5170670999942,None,,,,,,,,,,,,,,,,,P104,001,2025-02-12_16h31.09.442,posner_endo_new1,2024.2.4,60.098537558633666,2025-02-12 16h31.17.072719 +0000,
cube_l.png,0.1,0.31,invalid,55,55,0,down,2.486778600010439,None,space,0.3769065000087721,None,,,,,0,55,55,55,,,,,1233.5170670999942,,,,,,,,,,,,,1233.5011819999927,1233.5170670999942,1233.5170670999942,1233.5170670999942,1236.0153587999957,,,,1236.025406899993,1236.0355536999996,1236.0355536999996,1236.08107629999,1236.0813898999913,1236.0976894999912,1236.0976894999912,1236.0976894999912,1236.1807200999901,1236.4817473999865,,,,down,2.486778600010439,None,,,,,space,0.3769065000087721,None,,,,,,,,,,,,,,,P104,001,2025-02-12_16h31.09.442,posner_endo_new1,2024.2.4,60.098537558633666,2025-02-12 16h31.17.072719 +0000,
cube_l.png,0.1,-0.31,valid,56,56,0,down,4.6432022999943,None,space,0.37066159999812953,None,,,,,0,56,56,56,,,,,1236.4969477999985,,,,,,,,,,,,,1236.4820046999957,1236.4969477999985,1236.4969477999985,1236.4969477999985,1241.1435750999954,,,,1241.1538209999999,1241.1639823999867,1241.1639823999867,1241.2091908999864,1241.2095032999932,1241.2254168999934,1241.2254168999934,1241.2254168999934,1241.308983799987,1241.6097638999927,,,,down,4.6432022999943,None,,,,,space,0.37066159999812953,None,,,,,,,,,,,,,,,P104,001,2025-02-12_16h31.09.442,posner_endo_new1,2024.2.4,60.098537558633666,2025-02-12 16h31.17.072719 +0000,
cube_r.png,0.1,0.31,valid,57,57,0,down,6.138702500000363,None,space,0.3609166000096593,None,,,,,0,57,57,57,,,,,1241.625407399988,,,,,,,,,,,,,1241.6100205999974,1241.625407399988,1241.625407399988,1241.625407399988,1247.7701159999997,,,,1247.7801848999952,1247.7904729000002,1247.7904729000002,1247.8355042999901,1247.8358140999917,1247.8520453999954,1247.8520453999954,1247.8520453999954,1247.935367699989,1248.2195661000005,,,,down,6.138702500000363,None,,,,,space,0.3609166000096593,None,,,,,,,,,,,,,,,P104,001,2025-02-12_16h31.09.442,posner_endo_new1,2024.2.4,60.098537558633666,2025-02-12 16h31.17.072719 +0000,
cube_r.png,0.1,-0.31,invalid,58,58,0,down,7.320702600001823,None,space,0.33663019999221433,None,,,,,0,58,58,58,,,,,1248.2353100999899,,,,,,,,,,,,,1248.2198296999995,1248.2353100999899,1248.2353100999899,1248.2353100999899,1255.5616709999886,,,,1255.5693714999943,1255.580473599999,1255.580473599999,1255.6277420999977,1255.6279716999998,1255.6443574000004,1255.6443574000004,1255.6443574000004,1255.7106796000007,1255.9946908999991,,,,down,7.320702600001823,None,,,,,space,0.33663019999221433,None,,,,,,,,,,,,,,,P104,001,2025-02-12_16h31.09.442,posner_endo_new1,2024.2.4,60.098537558633666,2025-02-12 16h31.17.072719 +0000,
cube_l.png,0.1,0.31,invalid,59,59,0,down,8.593968500004848,None,space,0.5033330000005662,None,,,,,0,59,59,59,,,,,1256.0105767999921,,,,,,,,,,,,,1255.9948958999885,1256.0105767999921,1256.0105767999921,1256.0105767999921,1264.6212677000003,,,,1264.645249299996,1264.6568476999964,1264.6568476999964,1264.6847280999937,1264.6850436999957,1264.7012878999958,1264.7012878999958,1264.7012878999958,1264.7846413999941,1265.2186804999947,,,,down,8.593968500004848,None,,,,,space,0.5033330000005662,None,,,,,,,,,,,,,,,P104,001,2025-02-12_16h31.09.442,posner_endo_new1,2024.2.4,60.098537558633666,2025-02-12 16h31.17.072719 +0000,
,,,,,,,,,,,,,,,,,,,,,,,,,,,,,,,,,,,,,,,,,,,,,,,,,,,,,,,,,,,,,,,,,,,,,1265.218803699987,1265.2343887999887,1265.2343887999887,1325.2399644999969,1341.7254732999863,space,76.4741187000036,None,,,,,,,P104,001,2025-02-12_16h31.09.442,posner_endo_new1,2024.2.4,60.098537558633666,2025-02-12 16h31.17.072719 +0000,
,,,,,,,,,,,,,,,,,,,,,,,,,,,,,,,,,,1341.7256563999981,1341.7397338999872,1344.7661362999934,1344.7213542999962,,,,,,,,,,,,,,,,,,,,,,,,,,,,,,,,,,,,,,,,,,,,,,P104,001,2025-02-12_16h31.09.442,posner_endo_new1,2024.2.4,60.098537558633666,2025-02-12 16h31.17.072719 +0000,
cube_l.png,0.1,10,catch,0,0,0,up,10.821752500007278,None,None,,,,,,,,,,,0,0,0,0,1344.7661362999934,,,,,,,,,,,,,1344.7574972000002,1344.7661362999934,1344.7661362999934,1344.7661362999934,1355.5929757999984,,,,1355.6032209999976,1355.613440999994,1355.613440999994,1355.6587612000003,1355.6590985999937,1355.6749779999955,1355.6749779999955,1355.6749779999955,1355.7585309999995,1358.6727497999964,,,,,,,1357.7731881999935,1358.688540999996,1358.688540999996,1358.688540999996,,,,,,,,,,,,up,10.821752500007278,None,None,,,P104,001,2025-02-12_16h31.09.442,posner_endo_new1,2024.2.4,60.098537558633666,2025-02-12 16h31.17.072719 +0000,
cube_l.png,0.1,10,catch,1,1,0,up,2.979526499999338,None,None,,,,,,,,,,,0,1,1,1,1358.688540999996,,,,,,,,,,,,,1358.672998199996,1358.688540999996,1358.688540999996,1358.688540999996,1361.6702090999897,,,,1361.6802148999996,1361.6905062999867,1361.6905062999867,1361.7358775999892,1361.736200299987,1361.752086099994,1361.752086099994,1361.752086099994,1361.8356270999939,1364.7501444999943,,,,,,,1363.8500454999885,1364.7657529999997,1364.7657529999997,1364.7657529999997,,,,,,,,,,,,up,2.979526499999338,None,None,,,P104,001,2025-02-12_16h31.09.442,posner_endo_new1,2024.2.4,60.098537558633666,2025-02-12 16h31.17.072719 +0000,
cube_l.png,0.1,0.31,invalid,2,2,0,up,4.5182618999970146,None,space,0.4361592999921413,None,,,,,,,,,0,2,2,2,1364.7657529999997,,,,,,,,,,,,,1364.7503915999987,1364.7657529999997,1364.7657529999997,1364.7657529999997,1369.2958045999985,,,,1369.3060847999877,1369.3163165000005,1369.3163165000005,1369.3614734000002,1369.3617852999887,1369.3778301999992,1369.3778301999992,1369.3778301999992,1369.4611940999894,1369.8286055999924,,,,,,,,,,,,,,,,,,,,,,up,4.5182618999970146,None,space,0.4361592999921413,None,P104,001,2025-02-12_16h31.09.442,posner_endo_new1,2024.2.4,60.098537558633666,2025-02-12 16h31.17.072719 +0000,
cube_l.png,0.1,0.31,invalid,3,3,0,up,6.8881523000018205,None,space,0.38985829999728594,None,,,,,,,,,0,3,3,3,1369.8441598999925,,,,,,,,,,,,,1369.8288940999919,1369.8441598999925,1369.8441598999925,1369.8441598999925,1376.7402072999976,,,,1376.7610841999995,1376.7712049999973,1376.7712049999973,1376.8034642999992,1376.8038200999872,1376.8202414999978,1376.8202414999978,1376.8202414999978,1376.90362859999,1377.221121999988,,,,,,,,,,,,,,,,,,,,,,up,6.8881523000018205,None,space,0.38985829999728594,None,P104,001,2025-02-12_16h31.09.442,posner_endo_new1,2024.2.4,60.098537558633666,2025-02-12 16h31.17.072719 +0000,
cube_l.png,0.1,-0.31,valid,4,4,0,up,6.695353100003558,None,space,0.36729680000280496,None,,,,,,,,,0,4,4,4,1377.2366673999932,,,,,,,,,,,,,1377.2214267999952,1377.2366673999932,1377.2366673999932,1377.2366673999932,1383.9473037999996,,,,1383.9592104999901,1383.9693654999865,1383.9693654999865,1384.012973399993,1384.0133268999925,1384.0295705999888,1384.0295705999888,1384.0295705999888,1384.1126178999984,1384.4138144999888,,,,,,,,,,,,,,,,,,,,,,up,6.695353100003558,None,space,0.36729680000280496,None,P104,001,2025-02-12_16h31.09.442,posner_endo_new1,2024.2.4,60.098537558633666,2025-02-12 16h31.17.072719 +0000,
cube_r.png,0.1,-0.31,invalid,5,5,0,up,7.694493300004979,None,space,0.36142149999795947,None,,,,,,,,,0,5,5,5,1384.4292776999937,,,,,,,,,,,,,1384.4141218999866,1384.4292776999937,1384.4292776999937,1384.4292776999937,1392.1391762999992,,,,1392.1510811999906,1392.161317799997,1392.161317799997,1392.2047221999965,1392.2050807999913,1392.2213007999962,1392.2213007999962,1392.2213007999962,1392.3046695999947,1392.5889623999974,,,,,,,,,,,,,,,,,,,,,,up,7.694493300004979,None,space,0.36142149999795947,None,P104,001,2025-02-12_16h31.09.442,posner_endo_new1,2024.2.4,60.098537558633666,2025-02-12 16h31.17.072719 +0000,
cube_r.png,0.1,0.31,valid,6,6,0,up,7.0806235000054585,None,space,0.2816229000018211,None,,,,,,,,,0,6,6,6,1392.6039831999951,,,,,,,,,,,,,1392.5892626999994,1392.6039831999951,1392.6039831999951,1392.6039831999951,1399.6978556999966,,,,1399.7097906999988,1399.7200421999878,1399.7200421999878,1399.7638390999928,1399.7641911999963,1399.7799935999938,1399.7799935999938,1399.7799935999938,1399.8632153999934,1400.0646990999958,,,,,,,,,,,,,,,,,,,,,,up,7.0806235000054585,None,space,0.2816229000018211,None,P104,001,2025-02-12_16h31.09.442,posner_endo_new1,2024.2.4,60.098537558633666,2025-02-12 16h31.17.072719 +0000,
cube_r.png,0.1,-0.31,invalid,7,7,0,up,7.25337039999431,None,space,0.28417800000170246,None,,,,,,,,,0,7,7,7,1400.079939999996,,,,,,,,,,,,,1400.0649990999955,1400.079939999996,1400.079939999996,1400.079939999996,1407.3403158999863,,,,1407.3522369999991,1407.3626575999951,1407.3626575999951,1407.405872599993,1407.4062328999862,1407.4221449999895,1407.4221449999895,1407.4221449999895,1407.505695999993,1407.7087292999931,,,,,,,,,,,,,,,,,,,,,,up,7.25337039999431,None,space,0.28417800000170246,None,P104,001,2025-02-12_16h31.09.442,posner_endo_new1,2024.2.4,60.098537558633666,2025-02-12 16h31.17.072719 +0000,
cube_l.png,0.1,-0.31,valid,8,8,0,up,9.23301330000686,None,space,0.31197290000272915,None,,,,,,,,,0,8,8,8,1407.722727299988,,,,,,,,,,,,,1407.70935379999,1407.722727299988,1407.722727299988,1407.722727299988,1416.963634899992,,,,1416.9737232999905,1416.9839158999966,1416.9839158999966,1417.0290916999948,1417.029402699991,1417.0458251999953,1417.0458251999953,1417.0458251999953,1417.1291950999876,1417.3629392000003,,,,,,,,,,,,,,,,,,,,,,up,9.23301330000686,None,space,0.31197290000272915,None,P104,001,2025-02-12_16h31.09.442,posner_endo_new1,2024.2.4,60.098537558633666,2025-02-12 16h31.17.072719 +0000,
cube_r.png,0.1,-0.31,invalid,9,9,0,up,7.377853899990441,None,space,0.2502295000012964,None,,,,,,,,,0,9,9,9,1417.3786422999983,,,,,,,,,,,,,1417.3632029,1417.3786422999983,1417.3786422999983,1417.3786422999983,1424.772159,,,,1424.7824209999962,1424.7925603999902,1424.7925603999902,1424.837918499994,1424.8382323999977,1424.8543014999887,1424.8543014999887,1424.8543014999887,1424.937492099998,1425.1218102999992,,,,,,,,,,,,,,,,,,,,,,up,7.377853899990441,None,space,0.2502295000012964,None,P104,001,2025-02-12_16h31.09.442,posner_endo_new1,2024.2.4,60.098537558633666,2025-02-12 16h31.17.072719 +0000,
cube_l.png,0.1,0.31,invalid,10,10,0,up,7.803269900003215,None,space,0.3034951000008732,None,,,,,,,,,0,10,10,10,1425.1372753999894,,,,,,,,,,,,,1425.1220774999965,1425.1372753999894,1425.1372753999894,1425.1372753999894,1432.9475297999888,,,,1432.9577434999956,1432.9678524999908,1432.9678524999908,1433.0130347999948,1433.0133479999931,1433.0292004999937,1433.0292004999937,1433.0292004999937,1433.1126117999956,1433.346910799999,,,,,,,,,,,,,,,,,,,,,,up,7.803269900003215,None,space,0.3034951000008732,None,P104,001,2025-02-12_16h31.09.442,posner_endo_new1,2024.2.4,60.098537558633666,2025-02-12 16h31.17.072719 +0000,
cube_r.png,0.1,-0.31,invalid,11,11,0,up,7.386169999997946,None,space,0.3528185999894049,None,,,,,,,,,0,11,11,11,1433.3625436999864,,,,,,,,,,,,,1433.3471736999927,1433.3625436999864,1433.3625436999864,1433.3625436999864,1440.7560839999933,,,,1440.7660614999913,1440.7763303999964,1440.7763303999964,1440.8214275999926,1440.8217455999984,1440.8379359999963,1440.8379359999963,1440.8379359999963,1440.9214349999966,1441.2052350999875,,,,,,,,,,,,,,,,,,,,,,up,7.386169999997946,None,space,0.3528185999894049,None,P104,001,2025-02-12_16h31.09.442,posner_endo_new1,2024.2.4,60.098537558633666,2025-02-12 16h31.17.072719 +0000,
cube_r.png,0.1,0.31,valid,12,12,0,up,7.583369100000709,None,space,0.31399819999933243,None,,,,,,,,,0,12,12,12,1441.2211150999938,,,,,,,,,,,,,1441.205495599992,1441.2211150999938,1441.2211150999938,1441.2211150999938,1448.8143442999863,,,,1448.8244885999884,1448.8348250999989,1448.8348250999989,1448.8802628999983,1448.8805795999942,1448.8963790999987,1448.8963790999987,1448.8963790999987,1448.979528699987,1449.213859399999,,,,,,,,,,,,,,,,,,,,,,up,7.583369100000709,None,space,0.31399819999933243,None,P104,001,2025-02-12_16h31.09.442,posner_endo_new1,2024.2.4,60.098537558633666,2025-02-12 16h31.17.072719 +0000,
cube_l.png,0.1,10,catch,13,13,0,up,8.606740400005947,None,space,0.27349340000364464,None,,,,,,,,,0,13,13,13,1449.2297380999953,,,,,,,,,,,,,1449.2141286999977,1449.2297380999953,1449.2297380999953,1449.2297380999953,1457.8383392999967,,,,1457.8482987999887,1457.8587482000003,1457.8587482000003,1457.903920599987,1457.9042336999992,1457.920942599987,1457.920942599987,1457.920942599987,1458.0038166999875,1458.2046608999954,,,,,,,,,,,,,,,,,,,,,,up,8.606740400005947,None,space,0.27349340000364464,None,P104,001,2025-02-12_16h31.09.442,posner_endo_new1,2024.2.4,60.098537558633666,2025-02-12 16h31.17.072719 +0000,
cube_r.png,0.1,-0.31,invalid,14,14,0,up,8.239763599995058,None,space,0.4156892000028165,None,,,,,,,,,0,14,14,14,1458.2201732999965,,,,,,,,,,,,,1458.2049243999936,1458.2201732999965,1458.2201732999965,1458.2201732999965,1466.4631357999897,,,,1466.4731811999955,1466.4834492999944,1466.4834492999944,1466.5283897999907,1466.5287034999928,1466.5451570999867,1466.5451570999867,1466.5451570999867,1466.6284669999877,1466.962544599999,,,,,,,,,,,,,,,,,,,,,,up,8.239763599995058,None,space,0.4156892000028165,None,P104,001,2025-02-12_16h31.09.442,posner_endo_new1,2024.2.4,60.098537558633666,2025-02-12 16h31.17.072719 +0000,
cube_l.png,0.1,-0.31,valid,15,15,0,up,9.049512099998537,None,space,0.36020200001075864,None,,,,,,,,,0,15,15,15,1466.9782344999985,,,,,,,,,,,,,1466.9628139999986,1466.9782344999985,1466.9782344999985,1466.9782344999985,1476.0364161999896,,,,1476.0463611999876,1476.0567021999886,1476.0567021999886,1476.1022901999968,1476.102602999992,1476.118498699987,1476.118498699987,1476.118498699987,1476.2016314999928,1476.486157499996,,,,,,,,,,,,,,,,,,,,,,up,9.049512099998537,None,space,0.36020200001075864,None,P104,001,2025-02-12_16h31.09.442,posner_endo_new1,2024.2.4,60.098537558633666,2025-02-12 16h31.17.072719 +0000,
cube_r.png,0.1,10,catch,16,16,0,up,5.151076800000737,None,None,,,,,,,,,,,0,16,16,16,1476.501385999989,,,,,,,,,,,,,1476.4864203999896,1476.501385999989,1476.501385999989,1476.501385999989,1481.6642473999964,,,,1481.6742286999943,1481.6845010999969,1481.6845010999969,1481.7299803999922,1481.7302941999951,1481.7461122999957,1481.7461122999957,1481.7461122999957,1481.8294744999876,1484.7436804999888,,,,,,,1483.844100199989,1484.7599186999869,1484.7599186999869,1484.7599186999869,,,,,,,,,,,,up,5.151076800000737,None,None,,,P104,001,2025-02-12_16h31.09.442,posner_endo_new1,2024.2.4,60.098537558633666,2025-02-12 16h31.17.072719 +0000,
cube_r.png,0.1,10,catch,17,17,0,up,3.1884545999928378,None,None,,,,,,,,,,,0,17,17,17,1484.7599186999869,,,,,,,,,,,,,1484.7439306999877,1484.7599186999869,1484.7599186999869,1484.7599186999869,1487.9577523999906,,,,1487.9677157999977,1487.9779487999913,1487.9779487999913,1488.0231517999928,1488.0234653999942,1488.039876499999,1488.039876499999,1488.039876499999,1488.1231707999978,1491.037646599987,,,,,,,1490.1376508999965,1491.0531443999935,1491.0531443999935,1491.0531443999935,,,,,,,,,,,,up,3.1884545999928378,None,None,,,P104,001,2025-02-12_16h31.09.442,posner_endo_new1,2024.2.4,60.098537558633666,2025-02-12 16h31.17.072719 +0000,
cube_l.png,0.1,0.31,invalid,18,18,0,up,6.022686299998895,None,space,0.38911009998992085,None,,,,,,,,,0,18,18,18,1491.0531443999935,,,,,,,,,,,,,1491.0378978999943,1491.0531443999935,1491.0531443999935,1491.0531443999935,1497.0819284999889,,,,1497.0922796999948,1497.1023443999875,1497.1023443999875,1497.147458899999,1497.1477873999975,1497.1637216999952,1497.1637216999952,1497.1637216999952,1497.2471372,1497.5646832999919,,,,,,,,,,,,,,,,,,,,,,up,6.022686299998895,None,space,0.38911009998992085,None,P104,001,2025-02-12_16h31.09.442,posner_endo_new1,2024.2.4,60.098537558633666,2025-02-12 16h31.17.072719 +0000,
cube_l.png,0.1,10,catch,19,19,0,up,9.66484290000517,None,None,,,,,,,,,,,0,19,19,19,1497.5798495999916,,,,,,,,,,,,,1497.5649606999941,1497.5798495999916,1497.5798495999916,1497.5798495999916,1507.2564566999936,,,,1507.2800515999988,1507.2924289999937,1507.2924289999937,1507.31998439999,1507.3203419999918,1507.3368835999863,1507.3368835999863,1507.3368835999863,1507.4197590999975,1510.3343093999865,,,,,,,1509.4344186999951,1510.3504902999994,1510.3504902999994,1510.3504902999994,,,,,,,,,,,,up,9.66484290000517,None,None,,,P104,001,2025-02-12_16h31.09.442,posner_endo_new1,2024.2.4,60.098537558633666,2025-02-12 16h31.17.072719 +0000,
cube_l.png,0.1,0.31,invalid,20,20,0,up,6.157565999994404,None,space,0.3688674000004539,None,,,,,,,,,0,20,20,20,1510.3504902999994,,,,,,,,,,,,,1510.3345900999993,1510.3504902999994,1510.3504902999994,1510.3504902999994,1516.5120037999877,,,,1516.5237789999956,1516.5340634999884,1516.5340634999884,1516.57723119999,1516.577583899998,1516.5940892999934,1516.5940892999934,1516.5940892999934,1516.6773409999878,1516.978411899996,,,,,,,,,,,,,,,,,,,,,,up,6.157565999994404,None,space,0.3688674000004539,None,P104,001,2025-02-12_16h31.09.442,posner_endo_new1,2024.2.4,60.098537558633666,2025-02-12 16h31.17.072719 +0000,
cube_l.png,0.1,-0.31,valid,21,21,0,up,11.426734500011662,None,space,0.33060059999115765,None,,,,,,,,,0,21,21,21,1516.9937192999932,,,,,,,,,,,,,1516.9787125000003,1516.9937192999932,1516.9937192999932,1516.9937192999932,1528.4330835999863,,,,1528.442569299994,1528.4523499999923,1528.4523499999923,1528.4987182999903,1528.4989648999908,1528.5152407999994,1528.5152407999994,1528.5152407999994,1528.598397499998,1528.8488000999932,,,,,,,,,,,,,,,,,,,,,,up,11.426734500011662,None,space,0.33060059999115765,None,P104,001,2025-02-12_16h31.09.442,posner_endo_new1,2024.2.4,60.098537558633666,2025-02-12 16h31.17.072719 +0000,
cube_r.png,0.1,0.31,valid,22,22,0,up,8.507425600007991,None,space,0.3821370000077877,None,,,,,,,,,0,22,22,22,1528.864786399994,,,,,,,,,,,,,1528.8489969999937,1528.864786399994,1528.864786399994,1528.864786399994,1537.3742503999965,,,,1537.38309019999,1537.3929231999937,1537.3929231999937,1537.4395813999872,1537.4398300999892,1537.4560342999903,1537.4560342999903,1537.4560342999903,1537.539158399988,1537.8401882999897,,,,,,,,,,,,,,,,,,,,,,up,8.507425600007991,None,space,0.3821370000077877,None,P104,001,2025-02-12_16h31.09.442,posner_endo_new1,2024.2.4,60.098537558633666,2025-02-12 16h31.17.072719 +0000,
cube_r.png,0.1,-0.31,invalid,23,23,0,up,7.413176999994903,None,space,0.386502900000778,None,,,,,,,,,0,23,23,23,1537.8555197999958,,,,,,,,,,,,,1537.840383799994,1537.8555197999958,1537.8555197999958,1537.8555197999958,1545.2826133999915,,,,1545.2944600999908,1545.304793599993,1545.304793599993,1545.3478646999865,1545.348215399994,1545.36439219999,1545.36439219999,1545.36439219999,1545.447983399994,1545.7651210999902,,,,,,,,,,,,,,,,,,,,,,up,7.413176999994903,None,space,0.386502900000778,None,P104,001,2025-02-12_16h31.09.442,posner_endo_new1,2024.2.4,60.098537558633666,2025-02-12 16h31.17.072719 +0000,
cube_r.png,0.1,0.31,valid,24,24,0,up,7.30410789999587,None,space,0.3431889999919804,None,,,,,,,,,0,24,24,24,1545.7806525999913,,,,,,,,,,,,,1545.7654242999997,1545.7806525999913,1545.7806525999913,1545.7806525999913,1553.0909423999983,,,,1553.1017621999927,1553.1114320999914,1553.1114320999914,1553.1569214999909,1553.1571777999925,1553.1734418999986,1553.1734418999986,1553.1734418999986,1553.2566982999997,1553.523553799998,,,,,,,,,,,,,,,,,,,,,,up,7.30410789999587,None,space,0.3431889999919804,None,P104,001,2025-02-12_16h31.09.442,posner_endo_new1,2024.2.4,60.098537558633666,2025-02-12 16h31.17.072719 +0000,
cube_r.png,0.1,-0.31,invalid,25,25,0,up,7.216188199992757,None,space,0.2679755999997724,None,,,,,,,,,0,25,25,25,1553.5396103999956,,,,,,,,,,,,,1553.5237584999995,1553.5396103999956,1553.5396103999956,1553.5396103999956,1560.7675072999991,,,,1560.786602399996,1560.7981,1560.7981,1560.8323428999865,1560.8329080999974,1560.848798299994,1560.848798299994,1560.848798299994,1560.9320749999897,1561.1338723999943,,,,,,,,,,,,,,,,,,,,,,up,7.216188199992757,None,space,0.2679755999997724,None,P104,001,2025-02-12_16h31.09.442,posner_endo_new1,2024.2.4,60.098537558633666,2025-02-12 16h31.17.072719 +0000,
cube_l.png,0.1,-0.31,valid,26,26,0,up,6.416098100002273,None,space,0.3452343999961158,None,,,,,,,,,0,26,26,26,1561.148569099998,,,,,,,,,,,,,1561.134375099995,1561.148569099998,1561.148569099998,1561.148569099998,1567.577258499994,,,,1567.5932452999987,1567.6036187999998,1567.6036187999998,1567.6419554999884,1567.642305699992,1567.6581768999895,1567.6581768999895,1567.6581768999895,1567.7418715999956,1568.0093119999947,,,,,,,,,,,,,,,,,,,,,,up,6.416098100002273,None,space,0.3452343999961158,None,P104,001,2025-02-12_16h31.09.442,posner_endo_new1,2024.2.4,60.098537558633666,2025-02-12 16h31.17.072719 +0000,
cube_r.png,0.1,0.31,valid,27,27,0,up,10.579577700002119,None,space,0.34619240000029095,None,,,,,,,,,0,27,27,27,1568.0246143999975,,,,,,,,,,,,,1568.0096207999886,1568.0246143999975,1568.0246143999975,1568.0246143999975,1578.6151522,,,,1578.6269648999878,1578.6373910999973,1578.6373910999973,1578.6808267999877,1578.6811930999975,1578.6969943999866,1578.6969943999866,1578.6969943999866,1578.7803843000002,1579.0481942999904,,,,,,,,,,,,,,,,,,,,,,up,10.579577700002119,None,space,0.34619240000029095,None,P104,001,2025-02-12_16h31.09.442,posner_endo_new1,2024.2.4,60.098537558633666,2025-02-12 16h31.17.072719 +0000,
cube_r.png,0.1,10,catch,28,28,0,up,8.212849799994729,None,space,0.29480770000373013,None,,,,,,,,,0,28,28,28,1579.0635652999918,,,,,,,,,,,,,1579.0484953999985,1579.0635652999918,1579.0635652999918,1579.0635652999918,1587.2894154999958,,,,1587.3012545999954,1587.3114529999875,1587.3114529999875,1587.3549892999872,1587.3553418999945,1587.3717580999946,1587.3717580999946,1587.3717580999946,1587.454958199989,1587.6726534999907,,,,,,,,,,,,,,,,,,,,,,up,8.212849799994729,None,space,0.29480770000373013,None,P104,001,2025-02-12_16h31.09.442,posner_endo_new1,2024.2.4,60.098537558633666,2025-02-12 16h31.17.072719 +0000,
cube_r.png,0.1,0.31,valid,29,29,0,up,8.54799869999988,None,space,0.3746374000038486,None,,,,,,,,,0,29,29,29,1587.687753399994,,,,,,,,,,,,,1587.6729526999989,1587.687753399994,1587.687753399994,1587.687753399994,1596.246882099993,,,,1596.2588338999922,1596.2691867999965,1596.2691867999965,1596.3127626999922,1596.313115699988,1596.3291258999961,1596.3291258999961,1596.3291258999961,1596.4121176999906,1596.7130267999892,,,,,,,,,,,,,,,,,,,,,,up,8.54799869999988,None,space,0.3746374000038486,None,P104,001,2025-02-12_16h31.09.442,posner_endo_new1,2024.2.4,60.098537558633666,2025-02-12 16h31.17.072719 +0000,
cube_r.png,0.1,0.31,valid,30,30,0,up,6.94010329998855,None,space,0.477163899995503,None,,,,,,,,,0,30,30,30,1596.7285372999904,,,,,,,,,,,,,1596.7133313999948,1596.7285372999904,1596.7285372999904,1596.7285372999904,1603.6727641999896,,,,1603.6825603999896,1603.692303399992,1603.692303399992,1603.7380898999982,1603.7383472999936,1603.7549369999906,1603.7549369999906,1603.7549369999906,1603.8383442999911,1604.2383957999991,,,,,,,,,,,,,,,,,,,,,,up,6.94010329998855,None,space,0.477163899995503,None,P104,001,2025-02-12_16h31.09.442,posner_endo_new1,2024.2.4,60.098537558633666,2025-02-12 16h31.17.072719 +0000,
cube_l.png,0.1,-0.31,valid,31,31,0,up,7.869521399989026,None,space,0.3358051999966847,None,,,,,,,,,0,31,31,31,1604.2544971999887,,,,,,,,,,,,,1604.2386004999862,1604.2544971999887,1604.2544971999887,1604.2544971999887,1612.1325036999915,,,,1612.1562351999892,1612.1684430999885,1612.1684430999885,1612.1960478999972,1612.1964010999945,1612.212567399998,1612.212567399998,1612.212567399998,1612.2961431999865,1612.563873799998,,,,,,,,,,,,,,,,,,,,,,up,7.869521399989026,None,space,0.3358051999966847,None,P104,001,2025-02-12_16h31.09.442,posner_endo_new1,2024.2.4,60.098537558633666,2025-02-12 16h31.17.072719 +0000,
cube_r.png,0.1,0.31,valid,32,32,0,up,6.784814200000255,None,space,0.3241718000062974,None,,,,,,,,,0,32,32,32,1612.5791914999863,,,,,,,,,,,,,1612.5641944999952,1612.5791914999863,1612.5791914999863,1612.5791914999863,1619.3734922999865,,,,1619.3852752999956,1619.3955465999898,1619.3955465999898,1619.4390398999967,1619.4392959999968,1619.4555837999942,1619.4555837999942,1619.4555837999942,1619.5384193999926,1619.7894631999952,,,,,,,,,,,,,,,,,,,,,,up,6.784814200000255,None,space,0.3241718000062974,None,P104,001,2025-02-12_16h31.09.442,posner_endo_new1,2024.2.4,60.098537558633666,2025-02-12 16h31.17.072719 +0000,
cube_r.png,0.1,-0.31,invalid,33,33,0,up,7.143252499998198,None,space,0.32835109998995904,None,,,,,,,,,0,33,33,33,1619.8052641999966,,,,,,,,,,,,,1619.7896763999888,1619.8052641999966,1619.8052641999966,1619.8052641999966,1626.9509483999864,,,,1626.9748691999994,1626.9871563999914,1626.9871563999914,1627.0143654999993,1627.0147581999918,1627.0307240999973,1627.0307240999973,1627.0307240999973,1627.1139966999908,1627.365298699995,,,,,,,,,,,,,,,,,,,,,,up,7.143252499998198,None,space,0.32835109998995904,None,P104,001,2025-02-12_16h31.09.442,posner_endo_new1,2024.2.4,60.098537558633666,2025-02-12 16h31.17.072719 +0000,
cube_r.png,0.1,10,catch,34,34,0,up,7.863954100001138,None,None,,,,,,,,,,,0,34,34,34,1627.3804776999896,,,,,,,,,,,,,1627.3656347999931,1627.3804776999896,1627.3804776999896,1627.3804776999896,1635.2568025999935,,,,1635.2655467000004,1635.2753479999956,1635.2753479999956,1635.3227906999964,1635.3233065999957,1635.339180799987,1635.339180799987,1635.339180799987,1635.4224377999926,1638.337314199991,,,,,,,1637.4370284999895,1638.35285499999,1638.35285499999,1638.35285499999,,,,,,,,,,,,up,7.863954100001138,None,None,,,P104,001,2025-02-12_16h31.09.442,posner_endo_new1,2024.2.4,60.098537558633666,2025-02-12 16h31.17.072719 +0000,
cube_r.png,0.1,0.31,valid,35,35,0,up,2.427588599995943,None,space,0.48697399999946356,None,,,,,,,,,0,35,35,35,1638.35285499999,,,,,,,,,,,,,1638.3377423999918,1638.35285499999,1638.35285499999,1638.35285499999,1640.7849156999873,,,,1640.7933136999927,1640.803287399991,1640.803287399991,1640.8504870999896,1640.8508232999884,1640.8666352999862,1640.8666352999862,1640.8666352999862,1640.9501377999986,1641.367306,,,,,,,,,,,,,,,,,,,,,,up,2.427588599995943,None,space,0.48697399999946356,None,P104,001,2025-02-12_16h31.09.442,posner_endo_new1,2024.2.4,60.098537558633666,2025-02-12 16h31.17.072719 +0000,
cube_r.png,0.1,-0.31,invalid,36,36,0,up,4.461223699996481,None,space,0.4120014999934938,None,,,,,,,,,0,36,36,36,1641.3831290999951,,,,,,,,,,,,,1641.367597199991,1641.3831290999951,1641.3831290999951,1641.3831290999951,1645.8465645999968,,,,1645.8579303999868,1645.8680320999993,1645.8680320999993,1645.9116303999908,1645.9119739999878,1645.9284060999926,1645.9284060999926,1645.9284060999926,1646.0115845999971,1646.3455475999945,,,,,,,,,,,,,,,,,,,,,,up,4.461223699996481,None,space,0.4120014999934938,None,P104,001,2025-02-12_16h31.09.442,posner_endo_new1,2024.2.4,60.098537558633666,2025-02-12 16h31.17.072719 +0000,
cube_l.png,0.1,0.31,invalid,37,37,0,up,7.426463600000716,None,space,0.35993439999583643,None,,,,,,,,,0,37,37,37,1646.36128859999,,,,,,,,,,,,,1646.3458353999886,1646.36128859999,1646.36128859999,1646.36128859999,1653.804442499997,,,,1653.813133699994,1653.8231611999945,1653.8231611999945,1653.8703852999897,1653.870898299996,1653.8870416999998,1653.8870416999998,1653.8870416999998,1653.9534949999943,1654.2544764999911,,,,,,,,,,,,,,,,,,,,,,up,7.426463600000716,None,space,0.35993439999583643,None,P104,001,2025-02-12_16h31.09.442,posner_endo_new1,2024.2.4,60.098537558633666,2025-02-12 16h31.17.072719 +0000,
cube_l.png,0.1,0.31,invalid,38,38,0,up,6.614735900002415,None,space,0.34175729998969473,None,,,,,,,,,0,38,38,38,1654.2698619999865,,,,,,,,,,,,,1654.2547739000001,1654.2698619999865,1654.2698619999865,1654.2698619999865,1660.8973535999976,,,,1660.9091530999867,1660.9193999999989,1660.9193999999989,1660.9629582999914,1660.9633100999927,1660.9796394999867,1660.9796394999867,1660.9796394999867,1661.062666999991,1661.3303757999965,,,,,,,,,,,,,,,,,,,,,,up,6.614735900002415,None,space,0.34175729998969473,None,P104,001,2025-02-12_16h31.09.442,posner_endo_new1,2024.2.4,60.098537558633666,2025-02-12 16h31.17.072719 +0000,
cube_r.png,0.1,0.31,valid,39,39,0,up,8.162880100004259,None,space,0.33360060000268277,None,,,,,,,,,0,39,39,39,1661.3458939999982,,,,,,,,,,,,,1661.3306748999894,1661.3458939999982,1661.3458939999982,1661.3458939999982,1669.5219063999975,,,,1669.5311531999905,1669.5411502999923,1669.5411502999923,1669.587627899993,1669.5878605999897,1669.6042874999985,1669.6042874999985,1669.6042874999985,1669.6875334999932,1669.9405360999954,,,,,,,,,,,,,,,,,,,,,,up,8.162880100004259,None,space,0.33360060000268277,None,P104,001,2025-02-12_16h31.09.442,posner_endo_new1,2024.2.4,60.098537558633666,2025-02-12 16h31.17.072719 +0000,
cube_l.png,0.1,0.31,invalid,40,40,0,up,8.08919660000538,None,space,0.36605120000604074,None,,,,,,,,,0,40,40,40,1669.954567599998,,,,,,,,,,,,,1669.9411590999953,1669.954567599998,1669.954567599998,1669.954567599998,1678.0469471999968,,,,1678.0587541999994,1678.0690875999862,1678.0690875999862,1678.1123623999883,1678.112716699994,1678.1285971999896,1678.1285971999896,1678.1285971999896,1678.2121878999897,1678.4961291999934,,,,,,,,,,,,,,,,,,,,,,up,8.08919660000538,None,space,0.36605120000604074,None,P104,001,2025-02-12_16h31.09.442,posner_endo_new1,2024.2.4,60.098537558633666,2025-02-12 16h31.17.072719 +0000,
cube_l.png,0.1,10,catch,41,41,0,up,6.804573100002017,None,None,,,,,,,,,,,0,41,41,41,1678.5118368999974,,,,,,,,,,,,,1678.49643069999,1678.5118368999974,1678.5118368999974,1678.5118368999974,1685.322842099995,,,,1685.3347047999996,1685.3449248999968,1685.3449248999968,1685.3882472999976,1685.3886036999902,1685.404736899989,1685.404736899989,1685.404736899989,1685.487638199993,1688.4021838999906,,,,,,,1687.5025468999957,1688.4183124999981,1688.4183124999981,1688.4183124999981,,,,,,,,,,,,up,6.804573100002017,None,None,,,P104,001,2025-02-12_16h31.09.442,posner_endo_new1,2024.2.4,60.098537558633666,2025-02-12 16h31.17.072719 +0000,
cube_l.png,0.1,-0.31,valid,42,42,0,up,5.361990500008687,None,space,0.4568709999875864,None,,,,,,,,,0,42,42,42,1688.4183124999981,,,,,,,,,,,,,1688.4024651999935,1688.4183124999981,1688.4183124999981,1688.4183124999981,1693.797043499988,,,,1693.8047397999908,1693.8157756,1693.8157756,1693.8630329000007,1693.8635959999956,1693.879459399992,1693.879459399992,1693.879459399992,1693.9626740999956,1694.3475749999925,,,,,,,,,,,,,,,,,,,,,,up,5.361990500008687,None,space,0.4568709999875864,None,P104,001,2025-02-12_16h31.09.442,posner_endo_new1,2024.2.4,60.098537558633666,2025-02-12 16h31.17.072719 +0000,
cube_l.png,0.1,10,catch,43,43,0,up,6.882032800000161,None,None,,,,,,,,,,,0,43,43,43,1694.362288999997,,,,,,,,,,,,,1694.3480627999961,1694.362288999997,1694.362288999997,1694.362288999997,1701.257109699989,,,,1701.2731028999988,1701.283517399992,1701.283517399992,1701.321853299989,1701.3222105999885,1701.33847599999,1701.33847599999,1701.33847599999,1701.42172079999,1704.3362355999998,,,,,,,1703.4364112999901,1704.3516918999958,1704.3516918999958,1704.3516918999958,,,,,,,,,,,,up,6.882032800000161,None,None,,,P104,001,2025-02-12_16h31.09.442,posner_endo_new1,2024.2.4,60.098537558633666,2025-02-12 16h31.17.072719 +0000,
cube_l.png,0.1,0.31,invalid,44,44,0,up,5.444222900012392,None,space,0.47770230000605807,None,,,,,,,,,0,44,44,44,1704.3516918999958,,,,,,,,,,,,,1704.3365201999986,1704.3516918999958,1704.3516918999958,1704.3516918999958,1709.7977497999964,,,,1709.8095081999927,1709.8198174999998,1709.8198174999998,1709.8632399999915,1709.8635024999967,1709.8793201999943,1709.8793201999943,1709.8793201999943,1709.9630003999919,1710.3655232999881,,,,,,,,,,,,,,,,,,,,,,up,5.444222900012392,None,space,0.47770230000605807,None,P104,001,2025-02-12_16h31.09.442,posner_endo_new1,2024.2.4,60.098537558633666,2025-02-12 16h31.17.072719 +0000,
cube_l.png,0.1,0.31,invalid,45,45,0,up,6.848671400002786,None,space,0.3216608999937307,None,,,,,,,,,0,45,45,45,1710.3797829999967,,,,,,,,,,,,,1710.366144899992,1710.3797829999967,1710.3797829999967,1710.3797829999967,1717.2414826999884,,,,1717.2622468999907,1717.2724893999984,1717.2724893999984,1717.305297999992,1717.3057001999987,1717.3217929999955,1717.3217929999955,1717.3217929999955,1717.4049727999954,1717.6559146999934,,,,,,,,,,,,,,,,,,,,,,up,6.848671400002786,None,space,0.3216608999937307,None,P104,001,2025-02-12_16h31.09.442,posner_endo_new1,2024.2.4,60.098537558633666,2025-02-12 16h31.17.072719 +0000,
cube_r.png,0.1,0.31,valid,46,46,0,up,8.172659400006523,None,space,0.40740609999920707,None,,,,,,,,,0,46,46,46,1717.6716346999892,,,,,,,,,,,,,1717.6561541999981,1717.6716346999892,1717.6716346999892,1717.6716346999892,1725.847377099999,,,,1725.8560206999973,1725.8662042999931,1725.8662042999931,1725.913147299987,1725.9134358999872,1725.9299532000005,1725.9299532000005,1725.9299532000005,1725.9963559999887,1726.3472700999992,,,,,,,,,,,,,,,,,,,,,,up,8.172659400006523,None,space,0.40740609999920707,None,P104,001,2025-02-12_16h31.09.442,posner_endo_new1,2024.2.4,60.098537558633666,2025-02-12 16h31.17.072719 +0000,
cube_l.png,0.1,-0.31,valid,47,47,0,up,8.354855300000054,None,space,0.3608531999925617,None,,,,,,,,,0,47,47,47,1726.36244669999,,,,,,,,,,,,,1726.3475173999905,1726.36244669999,1726.36244669999,1726.36244669999,1734.7219297999982,,,,1734.7307406999898,1734.7409795999993,1734.7409795999993,1734.7873652999988,1734.7876486999885,1734.803845699993,1734.803845699993,1734.803845699993,1734.8871467999998,1735.1711157999962,,,,,,,,,,,,,,,,,,,,,,up,8.354855300000054,None,space,0.3608531999925617,None,P104,001,2025-02-12_16h31.09.442,posner_endo_new1,2024.2.4,60.098537558633666,2025-02-12 16h31.17.072719 +0000,
cube_r.png,0.1,-0.31,invalid,48,48,0,up,9.242386699988856,None,space,0.30646900000283495,None,,,,,,,,,0,48,48,48,1735.186800999989,,,,,,,,,,,,,1735.1713567999977,1735.186800999989,1735.186800999989,1735.186800999989,1744.4450365999946,,,,1744.4538665999862,1744.4639233999915,1744.4639233999915,1744.5111308999913,1744.511641899997,1744.5275368999864,1744.5275368999864,1744.5275368999864,1744.5941087999963,1744.8455927999894,,,,,,,,,,,,,,,,,,,,,,up,9.242386699988856,None,space,0.30646900000283495,None,P104,001,2025-02-12_16h31.09.442,posner_endo_new1,2024.2.4,60.098537558633666,2025-02-12 16h31.17.072719 +0000,
cube_r.png,0.1,10,catch,49,49,0,up,6.496581300001708,None,None,,,,,,,,,,,0,49,49,49,1744.8604804999923,,,,,,,,,,,,,1744.8460453000007,1744.8604804999923,1744.8604804999923,1744.8604804999923,1751.371400899996,,,,1751.378509599992,1751.3902904999995,1751.3902904999995,1751.4372888999933,1751.4377309999982,1751.4536329999974,1751.4536329999974,1751.4536329999974,1751.5370178999874,1754.4512111999938,,,,,,,1753.5513095999922,1754.4673997999926,1754.4673997999926,1754.4673997999926,,,,,,,,,,,,up,6.496581300001708,None,None,,,P104,001,2025-02-12_16h31.09.442,posner_endo_new1,2024.2.4,60.098537558633666,2025-02-12 16h31.17.072719 +0000,
cube_l.png,0.1,-0.31,valid,50,50,0,up,4.378085000003921,None,space,0.46100479998858646,None,,,,,,,,,0,50,50,50,1754.4673997999926,,,,,,,,,,,,,1754.4514688999916,1754.4673997999926,1754.4673997999926,1754.4673997999926,1758.8470983999869,,,,1758.8570833999984,1758.867299599995,1758.867299599995,1758.9126885000005,1758.9130004999897,1758.929382199989,1758.929382199989,1758.929382199989,1759.0127121999976,1759.3966549999896,,,,,,,,,,,,,,,,,,,,,,up,4.378085000003921,None,space,0.46100479998858646,None,P104,001,2025-02-12_16h31.09.442,posner_endo_new1,2024.2.4,60.098537558633666,2025-02-12 16h31.17.072719 +0000,
cube_l.png,0.1,-0.31,valid,51,51,0,up,8.168459199994686,None,space,0.34934489999432117,None,,,,,,,,,0,51,51,51,1759.4121075999865,,,,,,,,,,,,,1759.3969269999943,1759.4121075999865,1759.4121075999865,1759.4121075999865,1767.5886188000004,,,,1767.5988766999944,1767.6090326999984,1767.6090326999984,1767.6540645999921,1767.6543767999974,1767.6702579999983,1767.6702579999983,1767.6702579999983,1767.7538134999922,1768.0213425999973,,,,,,,,,,,,,,,,,,,,,,up,8.168459199994686,None,space,0.34934489999432117,None,P104,001,2025-02-12_16h31.09.442,posner_endo_new1,2024.2.4,60.098537558633666,2025-02-12 16h31.17.072719 +0000,
cube_r.png,0.1,-0.31,invalid,52,52,0,up,7.952760800006217,None,space,0.3231456000066828,None,,,,,,,,,0,52,52,52,1768.0369135999936,,,,,,,,,,,,,1768.0216065999994,1768.0369135999936,1768.0369135999936,1768.0369135999936,1775.99634659999,,,,1776.006303599992,1776.0165557999862,1776.0165557999862,1776.0621013999917,1776.0624117999978,1776.0785666999873,1776.0785666999873,1776.0785666999873,1776.1620027999888,1776.4127899999876,,,,,,,,,,,,,,,,,,,,,,up,7.952760800006217,None,space,0.3231456000066828,None,P104,001,2025-02-12_16h31.09.442,posner_endo_new1,2024.2.4,60.098537558633666,2025-02-12 16h31.17.072719 +0000,
cube_l.png,0.1,-0.31,valid,53,53,0,up,7.199770400009584,None,space,0.424742300005164,None,,,,,,,,,0,53,53,53,1776.4279937999963,,,,,,,,,,,,,1776.4130529999966,1776.4279937999963,1776.4279937999963,1776.4279937999963,1783.638389499989,,,,1783.6483402999875,1783.6584333999926,1783.6584333999926,1783.7040628999966,1783.7043871999922,1783.7208226999937,1783.7208226999937,1783.7208226999937,1783.8040840999893,1784.1547919999866,,,,,,,,,,,,,,,,,,,,,,up,7.199770400009584,None,space,0.424742300005164,None,P104,001,2025-02-12_16h31.09.442,posner_endo_new1,2024.2.4,60.098537558633666,2025-02-12 16h31.17.072719 +0000,
cube_r.png,0.1,10,catch,54,54,0,up,7.17068530000688,None,None,,,,,,,,,,,0,54,54,54,1784.1703362999979,,,,,,,,,,,,,1784.1550628999976,1784.1703362999979,1784.1703362999979,1784.1703362999979,1791.3472551999876,,,,1791.3572315999918,1791.3674956999894,1791.3674956999894,1791.4128019999916,1791.413117899996,1791.4295437999972,1791.4295437999972,1791.4295437999972,1791.5125371999893,1794.4272488999995,,,,,,,1793.5271791999985,1794.4429613999964,1794.4429613999964,1794.4429613999964,,,,,,,,,,,,up,7.17068530000688,None,None,,,P104,001,2025-02-12_16h31.09.442,posner_endo_new1,2024.2.4,60.098537558633666,2025-02-12 16h31.17.072719 +0000,
cube_l.png,0.1,0.31,invalid,55,55,0,up,5.073726100003114,None,space,0.35490520000166725,None,,,,,,,,,0,55,55,55,1794.4429613999964,,,,,,,,,,,,,1794.427504899999,1794.4429613999964,1794.4429613999964,1794.4429613999964,1799.522258699988,,,,1799.5322382999875,1799.5423788999906,1799.5423788999906,1799.5881260999886,1799.5884347999963,1799.6045186999982,1799.6045186999982,1799.6045186999982,1799.6876952999883,1799.9716534999898,,,,,,,,,,,,,,,,,,,,,,up,5.073726100003114,None,space,0.35490520000166725,None,P104,001,2025-02-12_16h31.09.442,posner_endo_new1,2024.2.4,60.098537558633666,2025-02-12 16h31.17.072719 +0000,
cube_l.png,0.1,-0.31,valid,56,56,0,up,7.658233099995414,None,space,0.3629592000070261,None,,,,,,,,,0,56,56,56,1799.9872086999967,,,,,,,,,,,,,1799.9719197999948,1799.9872086999967,1799.9872086999967,1799.9872086999967,1807.6471251999901,,,,1807.657228799988,1807.667686099987,1807.667686099987,1807.713056499997,1807.7133750999928,1807.7293172999925,1807.7293172999925,1807.7293172999925,1807.8125843999878,1808.0970654999983,,,,,,,,,,,,,,,,,,,,,,up,7.658233099995414,None,space,0.3629592000070261,None,P104,001,2025-02-12_16h31.09.442,posner_endo_new1,2024.2.4,60.098537558633666,2025-02-12 16h31.17.072719 +0000,
cube_r.png,0.1,0.31,valid,57,57,0,up,7.1476273000007495,None,space,0.367871099995682,None,,,,,,,,,0,57,57,57,1808.1122980999935,,,,,,,,,,,,,1808.0973401999945,1808.1122980999935,1808.1122980999935,1808.1122980999935,1815.2726719999919,,,,1815.2826319999876,1815.2927889999992,1815.2927889999992,1815.3383780999866,1815.3386877999874,1815.3552474999888,1815.3552474999888,1815.3552474999888,1815.438358799991,1815.7389666999952,,,,,,,,,,,,,,,,,,,,,,up,7.1476273000007495,None,space,0.367871099995682,None,P104,001,2025-02-12_16h31.09.442,posner_endo_new1,2024.2.4,60.098537558633666,2025-02-12 16h31.17.072719 +0000,
cube_r.png,0.1,-0.31,invalid,58,58,0,up,6.473804599998402,None,space,0.3216544999886537,None,,,,,,,,,0,58,58,58,1815.7546726,,,,,,,,,,,,,1815.7392352999886,1815.7546726,1815.7546726,1815.7546726,1822.232290199987,,,,1822.2422705999925,1822.2525298999972,1822.2525298999972,1822.2979357000004,1822.2982470999996,1822.3148015999905,1822.3148015999905,1822.3148015999905,1822.3976693999866,1822.6485325999965,,,,,,,,,,,,,,,,,,,,,,up,6.473804599998402,None,space,0.3216544999886537,None,P104,001,2025-02-12_16h31.09.442,posner_endo_new1,2024.2.4,60.098537558633666,2025-02-12 16h31.17.072719 +0000,
cube_l.png,0.1,0.31,invalid,59,59,0,up,7.508365899993805,None,space,0.2883837000117637,None,,,,,,,,,0,59,59,59,1822.6642382999999,,,,,,,,,,,,,1822.6487985999993,1822.6642382999999,1822.6642382999999,1822.6642382999999,1830.1745647999924,,,,1830.1847886999894,1830.1949293999933,1830.1949293999933,1830.2397316999995,1830.2400542999967,1830.2562763999886,1830.2562763999886,1830.2562763999886,1830.339557299987,1830.5573775999947,,,,,,,,,,,,,,,,,,,,,,up,7.508365899993805,None,space,0.2883837000117637,None,P104,001,2025-02-12_16h31.09.442,posner_endo_new1,2024.2.4,60.098537558633666,2025-02-12 16h31.17.072719 +0000,
