cue_img,cue_soa,target_y,trial,thisN,thisTrialN,thisRepN,key_control2.keys,key_control2.rt,key_control2.duration,key_resp.keys,key_resp.rt,key_resp.duration,practice.thisRepN,practice.thisTrialN,practice.thisN,practice.thisIndex,block1.thisRepN,block1.thisTrialN,block1.thisN,block1.thisIndex,block2.thisRepN,block2.thisTrialN,block2.thisN,block2.thisIndex,thisRow.t,notes,instructions.started,instructions_txt.started,key_control.started,instructions.stopped,key_control.keys,key_control.rt,key_control.duration,ready.started,ready_txt.started,ready_txt.stopped,ready.stopped,fix.started,fixation.started,key_control2.started,fixation_cross.started,fix.stopped,practice.key_control2.keys,practice.key_control2.rt,practice.key_control2.duration,cue.started,cube.started,fixation_cross_cue.started,cue.stopped,target.started,fixation_target.started,fixation_cross_target.started,key_resp.started,star.started,target.stopped,practice.key_resp.keys,practice.key_resp.rt,practice.key_resp.duration,block1.key_control2.keys,block1.key_control2.rt,block1.key_control2.duration,block1.key_resp.keys,block1.key_resp.rt,block1.key_resp.duration,star.stopped,fixation_target.stopped,fixation_cross_target.stopped,key_resp.stopped,break_2.started,text.started,key_control3.started,text.stopped,break_2.stopped,key_control3.keys,key_control3.rt,key_control3.duration,block2.key_control2.keys,block2.key_control2.rt,block2.key_control2.duration,block2.key_resp.keys,block2.key_resp.rt,block2.key_resp.duration,participant,session,date,expName,psychopyVersion,frameRate,expStart,
,,,,,,,,,,,,,,,,,,,,,,,,,,,0.007529400000066744,0.02127169999994294,0.02127169999994294,48.34413570000015,up,48.306124599999976,None,,,,,,,,,,,,,,,,,,,,,,,,,,,,,,,,,,,,,,,,,,,,,,,,,,P105,001,2025-02-13_10h13.34.285,posner_endo_new1,2024.2.4,59.98713875742286,2025-02-13 10h13.44.316555 +0000,
,,,,,,,,,,,,,,,,,,,,,,,,,,,,,,,,,,48.34420750000004,48.35626109999998,51.355722000000014,51.336499799999956,,,,,,,,,,,,,,,,,,,,,,,,,,,,,,,,,,,,,,,,,,,,,,P105,001,2025-02-13_10h13.34.285,posner_endo_new1,2024.2.4,59.98713875742286,2025-02-13 10h13.44.316555 +0000,
cube_l.png,0.1,-0.31,valid,0,0,0,up,11.052008500000056,None,space,0.3712029999999231,None,0,0,0,0,,,,,,,,,51.355722000000014,,,,,,,,,,,,,51.343744300000026,51.355722000000014,51.355722000000014,51.355722000000014,62.40926630000013,up,11.052008500000056,None,62.42095990000007,62.43106290000014,62.43106290000014,62.475007700000106,62.47523479999995,62.49172220000014,62.49172220000014,62.49172220000014,62.57476910000014,62.87512609999999,space,0.3712029999999231,None,,,,,,,,,,,,,,,,,,,,,,,,,P105,001,2025-02-13_10h13.34.285,posner_endo_new1,2024.2.4,59.98713875742286,2025-02-13 10h13.44.316555 +0000,
cube_l.png,0.1,0.31,invalid,1,1,0,up,6.724348399999826,None,space,0.3450717999999142,None,0,1,1,1,,,,,,,,,62.89114590000008,,,,,,,,,,,,,62.87529160000008,62.89114590000008,62.89114590000008,62.89114590000008,69.61832700000014,up,6.724348399999826,None,69.6256029000001,69.63704370000005,69.63704370000005,69.68439680000006,69.6846253000001,69.70082200000002,69.70082200000002,69.70082200000002,69.76749740000014,70.05165770000008,space,0.3450717999999142,None,,,,,,,,,,,,,,,,,,,,,,,,,P105,001,2025-02-13_10h13.34.285,posner_endo_new1,2024.2.4,59.98713875742286,2025-02-13 10h13.44.316555 +0000,
cube_r.png,0.1,-0.31,invalid,2,2,0,up,4.660965199999964,None,space,0.34756850000007944,None,0,2,2,2,,,,,,,,,70.06720910000013,,,,,,,,,,,,,70.05182370000011,70.06720910000013,70.06720910000013,70.06720910000013,74.73037640000007,up,4.660965199999964,None,74.74367860000007,74.75392480000005,74.75392480000005,74.79582950000008,74.79618989999994,74.81237379999993,74.81237379999993,74.81237379999993,74.89556379999999,75.16330110000013,space,0.34756850000007944,None,,,,,,,,,,,,,,,,,,,,,,,,,P105,001,2025-02-13_10h13.34.285,posner_endo_new1,2024.2.4,59.98713875742286,2025-02-13 10h13.44.316555 +0000,
cube_r.png,0.1,10,catch,3,3,0,up,6.860995000000003,None,space,0.3242045000001781,None,0,3,3,3,,,,,,,,,75.17854310000007,,,,,,,,,,,,,75.16358379999997,75.17854310000007,75.17854310000007,75.17854310000007,82.05643609999993,up,6.860995000000003,None,82.06852210000011,82.0784314,82.0784314,82.12159900000006,82.12195150000002,82.13818370000013,82.13818370000013,82.13818370000013,82.2214626,82.47236459999999,space,0.3242045000001781,None,,,,,,,,,,,,,,,,,,,,,,,,,P105,001,2025-02-13_10h13.34.285,posner_endo_new1,2024.2.4,59.98713875742286,2025-02-13 10h13.44.316555 +0000,
cube_l.png,0.1,-0.31,valid,4,4,0,up,5.904915399999936,None,space,0.40832030000001396,None,0,4,4,4,,,,,,,,,82.48784780000005,,,,,,,,,,,,,82.47263889999999,82.48784780000005,82.48784780000005,82.48784780000005,88.39982580000014,up,5.904915399999936,None,88.41149960000007,88.42179439999995,88.42179439999995,88.46518960000003,88.46553979999999,88.48150910000004,88.48150910000004,88.48150910000004,88.56498379999994,88.89907470000003,space,0.40832030000001396,None,,,,,,,,,,,,,,,,,,,,,,,,,P105,001,2025-02-13_10h13.34.285,posner_endo_new1,2024.2.4,59.98713875742286,2025-02-13 10h13.44.316555 +0000,
cube_l.png,0.1,0.31,invalid,5,5,0,up,6.156591700000035,None,space,0.43655009999997674,None,0,5,5,5,,,,,,,,,88.91457160000004,,,,,,,,,,,,,88.89934829999993,88.91457160000004,88.91457160000004,88.91457160000004,95.07600810000008,up,6.156591700000035,None,95.0876072000001,95.09798760000012,95.09798760000012,95.14174660000003,95.14210460000004,95.158275,95.158275,95.158275,95.24135939999996,95.6088714,space,0.43655009999997674,None,,,,,,,,,,,,,,,,,,,,,,,,,P105,001,2025-02-13_10h13.34.285,posner_endo_new1,2024.2.4,59.98713875742286,2025-02-13 10h13.44.316555 +0000,
cube_r.png,0.1,-0.31,invalid,6,6,0,up,5.25493779999988,None,space,0.3382331999998769,None,0,6,6,6,,,,,,,,,95.62441100000001,,,,,,,,,,,,,95.60915220000015,95.62441100000001,95.62441100000001,95.62441100000001,100.88696690000006,up,5.25493779999988,None,100.89856860000009,100.90886649999993,100.90886649999993,100.95234090000008,100.95269069999995,100.96885629999997,100.96885629999997,100.96885629999997,101.05232799999999,101.31974280000009,space,0.3382331999998769,None,,,,,,,,,,,,,,,,,,,,,,,,,P105,001,2025-02-13_10h13.34.285,posner_endo_new1,2024.2.4,59.98713875742286,2025-02-13 10h13.44.316555 +0000,
cube_r.png,0.1,0.31,valid,7,7,0,up,3.6801776000002064,None,space,0.36556739999991805,None,0,7,7,7,,,,,,,,,101.33529429999999,,,,,,,,,,,,,101.32001830000013,101.33529429999999,101.33529429999999,101.33529429999999,105.03256880000004,up,3.6801776000002064,None,105.04430019999995,105.05449620000013,105.05449620000013,105.0982646,105.09862180000005,105.11474109999995,105.11474109999995,105.11474109999995,105.1978623,105.48236109999993,space,0.36556739999991805,None,,,,,,,,,,,,,,,,,,,,,,,,,P105,001,2025-02-13_10h13.34.285,posner_endo_new1,2024.2.4,59.98713875742286,2025-02-13 10h13.44.316555 +0000,
cube_l.png,0.1,-0.31,valid,8,8,0,up,6.702195000000074,None,space,0.39296760000001996,None,0,8,8,8,,,,,,,,,105.49760170000013,,,,,,,,,,,,,105.48263530000008,105.49760170000013,105.49760170000013,105.49760170000013,112.20882789999996,up,6.702195000000074,None,112.22043090000011,112.23086209999997,112.23086209999997,112.27419880000002,112.27454899999998,112.29067880000002,112.29067880000002,112.29067880000002,112.37405160000003,112.69168549999995,space,0.39296760000001996,None,,,,,,,,,,,,,,,,,,,,,,,,,P105,001,2025-02-13_10h13.34.285,posner_endo_new1,2024.2.4,59.98713875742286,2025-02-13 10h13.44.316555 +0000,
cube_r.png,0.1,-0.31,invalid,9,9,0,up,5.3727965000000495,None,space,0.2935909999998785,None,0,9,9,9,,,,,,,,,112.70690949999994,,,,,,,,,,,,,112.69195790000003,112.70690949999994,112.70690949999994,112.70690949999994,118.08593429999996,up,5.3727965000000495,None,118.09763169999997,118.107845,118.107845,118.15155819999995,118.15192449999995,118.16796739999995,118.16796739999995,118.16796739999995,118.25127629999997,118.46881810000014,space,0.2935909999998785,None,,,,,,,,,,,,,,,,,,,,,,,,,P105,001,2025-02-13_10h13.34.285,posner_endo_new1,2024.2.4,59.98713875742286,2025-02-13 10h13.44.316555 +0000,
cube_r.png,0.1,0.31,valid,10,10,0,up,4.963794999999891,None,space,0.35801839999999174,None,0,10,10,10,,,,,,,,,118.48423890000004,,,,,,,,,,,,,118.4690928,118.48423890000004,118.48423890000004,118.48423890000004,123.4637679,up,4.963794999999891,None,123.47306580000009,123.48280890000001,123.48280890000001,123.5292207,123.52946270000007,123.54573619999996,123.54573619999996,123.54573619999996,123.62906999999996,123.91275730000007,space,0.35801839999999174,None,,,,,,,,,,,,,,,,,,,,,,,,,P105,001,2025-02-13_10h13.34.285,posner_endo_new1,2024.2.4,59.98713875742286,2025-02-13 10h13.44.316555 +0000,
,,,,,,,,,,,,,,,,,,,,,,,,,,,,,,,,,,123.91287809999994,123.92878910000013,126.93808590000003,126.9094778000001,,,,,,,,,,,,,,,,,,,,,,,,,,,,,,,,,,,,,,,,,,,,,,P105,001,2025-02-13_10h13.34.285,posner_endo_new1,2024.2.4,59.98713875742286,2025-02-13 10h13.44.316555 +0000,
cube_l.png,0.1,10,catch,0,0,0,up,3.925207300000011,None,space,0.28521409999984826,None,,,,,0,0,0,0,,,,,126.93808590000003,,,,,,,,,,,,,126.92829740000002,126.93808590000003,126.93808590000003,126.93808590000003,130.87345870000013,,,,130.8923777,130.90376700000002,130.90376700000002,130.93851570000015,130.93887300000006,130.9549012,130.9549012,130.9549012,131.03812990000006,131.25590740000007,,,,up,3.925207300000011,None,space,0.28521409999984826,None,,,,,,,,,,,,,,,,,,,P105,001,2025-02-13_10h13.34.285,posner_endo_new1,2024.2.4,59.98713875742286,2025-02-13 10h13.44.316555 +0000,
cube_l.png,0.1,10,catch,1,1,0,up,7.264968299999964,None,None,,,,,,,0,1,1,1,,,,,131.2713126000001,,,,,,,,,,,,,131.25620330000015,131.2713126000001,131.2713126000001,131.2713126000001,138.54823469999997,,,,138.55995559999997,138.57029379999994,138.57029379999994,138.61379899999997,138.6140534000001,138.63041390000012,138.63041390000012,138.63041390000012,138.71355289999997,141.62776239999994,,,,up,7.264968299999964,None,None,,,140.7280820000001,141.6439613,141.6439613,141.6439613,,,,,,,,,,,,,,,P105,001,2025-02-13_10h13.34.285,posner_endo_new1,2024.2.4,59.98713875742286,2025-02-13 10h13.44.316555 +0000,
cube_l.png,0.1,0.31,invalid,2,2,0,up,6.227854900000011,None,space,0.38296760000002905,None,,,,,0,2,2,2,,,,,141.6439613,,,,,,,,,,,,,141.62794159999999,141.6439613,141.6439613,141.6439613,147.88846260000014,,,,147.89592170000014,147.90721710000003,147.90721710000003,147.95434999999998,147.95491579999998,147.97072290000006,147.97072290000006,147.97072290000006,148.05397400000015,148.35584199999994,,,,up,6.227854900000011,None,space,0.38296760000002905,None,,,,,,,,,,,,,,,,,,,P105,001,2025-02-13_10h13.34.285,posner_endo_new1,2024.2.4,59.98713875742286,2025-02-13 10h13.44.316555 +0000,
cube_l.png,0.1,0.31,invalid,3,3,0,up,6.565060200000062,None,space,0.39800979999995434,None,,,,,0,3,3,3,,,,,148.37034960000005,,,,,,,,,,,,,148.3563180000001,148.37034960000005,148.37034960000005,148.37034960000005,154.94844450000005,,,,154.96002680000015,154.97040549999997,154.97040549999997,155.01385500000015,155.01420630000007,155.0302332000001,155.0302332000001,155.0302332000001,155.11365060000003,155.43111109999995,,,,up,6.565060200000062,None,space,0.39800979999995434,None,,,,,,,,,,,,,,,,,,,P105,001,2025-02-13_10h13.34.285,posner_endo_new1,2024.2.4,59.98713875742286,2025-02-13 10h13.44.316555 +0000,
cube_l.png,0.1,-0.31,valid,4,4,0,up,5.841242500000135,None,space,0.8214620999999624,None,,,,,0,4,4,4,,,,,155.44655860000012,,,,,,,,,,,,,155.43140749999998,155.44655860000012,155.44655860000012,155.44655860000012,161.29172089999997,,,,161.30235689999995,161.31196720000003,161.31196720000003,161.35724430000005,161.35748880000006,161.3737569,161.3737569,161.3737569,161.45704030000002,162.2070162,,,,up,5.841242500000135,None,space,0.8214620999999624,None,,,,,,,,,,,,,,,,,,,P105,001,2025-02-13_10h13.34.285,posner_endo_new1,2024.2.4,59.98713875742286,2025-02-13 10h13.44.316555 +0000,
cube_r.png,0.1,-0.31,invalid,5,5,0,up,5.921747800000048,None,space,0.3923178000000007,None,,,,,0,5,5,5,,,,,162.22283549999997,,,,,,,,,,,,,162.20720110000002,162.22283549999997,162.22283549999997,162.22283549999997,168.1511872000001,,,,168.15816840000002,168.16988579999997,168.16988579999997,168.21672850000004,168.21696999999995,168.23351939999998,168.23351939999998,168.23351939999998,168.31661669999994,168.63376820000008,,,,up,5.921747800000048,None,space,0.3923178000000007,None,,,,,,,,,,,,,,,,,,,P105,001,2025-02-13_10h13.34.285,posner_endo_new1,2024.2.4,59.98713875742286,2025-02-13 10h13.44.316555 +0000,
cube_r.png,0.1,0.31,valid,6,6,0,up,5.558618399999887,None,space,0.38372750000007727,None,,,,,0,6,6,6,,,,,168.6496078,,,,,,,,,,,,,168.63395979999996,168.6496078,168.6496078,168.6496078,174.2114564000001,,,,174.21846720000008,174.2300752000001,174.2300752000001,174.27740760000006,174.27763660000005,174.29395790000012,174.29395790000012,174.29395790000012,174.36060199999997,174.69426390000012,,,,up,5.558618399999887,None,space,0.38372750000007727,None,,,,,,,,,,,,,,,,,,,P105,001,2025-02-13_10h13.34.285,posner_endo_new1,2024.2.4,59.98713875742286,2025-02-13 10h13.44.316555 +0000,
cube_r.png,0.1,-0.31,invalid,7,7,0,up,15.057184799999959,None,space,0.3675459999999475,None,,,,,0,7,7,7,,,,,174.7101851,,,,,,,,,,,,,174.69443520000004,174.7101851,174.7101851,174.7101851,189.77930400000014,,,,189.79088060000004,189.8013426,189.8013426,189.84494010000003,189.8452996000001,189.86153710000008,189.86153710000008,189.86153710000008,189.94457699999998,190.24554490000014,,,,up,15.057184799999959,None,space,0.3675459999999475,None,,,,,,,,,,,,,,,,,,,P105,001,2025-02-13_10h13.34.285,posner_endo_new1,2024.2.4,59.98713875742286,2025-02-13 10h13.44.316555 +0000,
cube_l.png,0.1,-0.31,valid,8,8,0,up,4.747027399999979,None,space,0.4765113000000838,None,,,,,0,8,8,8,,,,,190.2607908,,,,,,,,,,,,,190.24583150000012,190.2607908,190.2607908,190.2607908,195.02386660000002,,,,195.03547500000013,195.04586500000005,195.04586500000005,195.0895564,195.08991689999993,195.1061016000001,195.1061016000001,195.1061016000001,195.1893609000001,195.59010850000004,,,,up,4.747027399999979,None,space,0.4765113000000838,None,,,,,,,,,,,,,,,,,,,P105,001,2025-02-13_10h13.34.285,posner_endo_new1,2024.2.4,59.98713875742286,2025-02-13 10h13.44.316555 +0000,
cube_r.png,0.1,-0.31,invalid,9,9,0,up,3.5305723999999827,None,space,0.3760429000001295,None,,,,,0,9,9,9,,,,,195.6055464000001,,,,,,,,,,,,,195.59039440000015,195.6055464000001,195.6055464000001,195.6055464000001,199.15301109999996,,,,199.16262230000007,199.1721460000001,199.1721460000001,199.21861220000005,199.21885659999998,199.23506939999993,199.23506939999993,199.23506939999993,199.31845650000014,199.61897820000013,,,,up,3.5305723999999827,None,space,0.3760429000001295,None,,,,,,,,,,,,,,,,,,,P105,001,2025-02-13_10h13.34.285,posner_endo_new1,2024.2.4,59.98713875742286,2025-02-13 10h13.44.316555 +0000,
cube_l.png,0.1,0.31,invalid,10,10,0,up,3.405573900000036,None,space,0.42406800000003386,None,,,,,0,10,10,10,,,,,199.6346701,,,,,,,,,,,,,199.61916330000008,199.6346701,199.6346701,199.6346701,203.0483710000001,,,,203.05533089999994,203.06709790000014,203.06709790000014,203.1145907,203.11483040000007,203.1311098000001,203.1311098000001,203.1311098000001,203.19777339999996,203.56483419999995,,,,up,3.405573900000036,None,space,0.42406800000003386,None,,,,,,,,,,,,,,,,,,,P105,001,2025-02-13_10h13.34.285,posner_endo_new1,2024.2.4,59.98713875742286,2025-02-13 10h13.44.316555 +0000,
cube_r.png,0.1,-0.31,invalid,11,11,0,up,8.747028900000032,None,space,0.33439439999983733,None,,,,,0,11,11,11,,,,,203.580598,,,,,,,,,,,,,203.56501939999998,203.580598,203.580598,203.580598,212.33926080000015,,,,212.3462846,212.35784209999997,212.35784209999997,212.40501590000008,212.40553120000004,212.42146120000007,212.42146120000007,212.42146120000007,212.50469859999998,212.77284950000012,,,,up,8.747028900000032,None,space,0.33439439999983733,None,,,,,,,,,,,,,,,,,,,P105,001,2025-02-13_10h13.34.285,posner_endo_new1,2024.2.4,59.98713875742286,2025-02-13 10h13.44.316555 +0000,
cube_r.png,0.1,0.31,valid,12,12,0,up,6.668242799999916,None,space,0.4071618000000399,None,,,,,0,12,12,12,,,,,212.78775990000008,,,,,,,,,,,,,212.77327600000012,212.78775990000008,212.78775990000008,212.78775990000008,219.46565069999997,,,,219.47427100000004,219.4840726,219.4840726,219.53122640000015,219.5314793,219.5475225,219.5475225,219.5475225,219.63099280000006,219.96464660000015,,,,up,6.668242799999916,None,space,0.4071618000000399,None,,,,,,,,,,,,,,,,,,,P105,001,2025-02-13_10h13.34.285,posner_endo_new1,2024.2.4,59.98713875742286,2025-02-13 10h13.44.316555 +0000,
cube_l.png,0.1,10,catch,13,13,0,up,3.9469435999999405,None,None,,,,,,,0,13,13,13,,,,,219.98062170000003,,,,,,,,,,,,,219.96484480000004,219.98062170000003,219.98062170000003,219.98062170000003,223.9439453,,,,223.95136360000015,223.96280419999994,223.96280419999994,224.00997600000005,224.01053230000002,224.02635110000006,224.02635110000006,224.02635110000006,224.10957729999996,227.02419350000014,,,,up,3.9469435999999405,None,None,,,226.1243849,227.04005410000013,227.04005410000013,227.04005410000013,,,,,,,,,,,,,,,P105,001,2025-02-13_10h13.34.285,posner_endo_new1,2024.2.4,59.98713875742286,2025-02-13 10h13.44.316555 +0000,
cube_r.png,0.1,-0.31,invalid,14,14,0,up,5.976283500000136,None,space,0.4876864000000296,None,,,,,0,14,14,14,,,,,227.04005410000013,,,,,,,,,,,,,227.02446039999995,227.04005410000013,227.04005410000013,227.04005410000013,233.0184951000001,,,,233.03013950000013,233.04046390000008,233.04046390000008,233.08413560000008,233.08449229999997,233.1005752000001,233.1005752000001,233.1005752000001,233.18383760000006,233.6011171,,,,up,5.976283500000136,None,space,0.4876864000000296,None,,,,,,,,,,,,,,,,,,,P105,001,2025-02-13_10h13.34.285,posner_endo_new1,2024.2.4,59.98713875742286,2025-02-13 10h13.44.316555 +0000,
cube_l.png,0.1,-0.31,valid,15,15,0,up,6.3114256999999725,None,space,0.3131427000000713,None,,,,,0,15,15,15,,,,,233.61676920000014,,,,,,,,,,,,,233.60140320000005,233.61676920000014,233.61676920000014,233.61676920000014,239.94469589999994,,,,239.95630900000015,239.96624380000003,239.96624380000003,240.0103193,240.0106713,240.02684220000015,240.02684220000015,240.02684220000015,240.11006150000003,240.34458500000005,,,,up,6.3114256999999725,None,space,0.3131427000000713,None,,,,,,,,,,,,,,,,,,,P105,001,2025-02-13_10h13.34.285,posner_endo_new1,2024.2.4,59.98713875742286,2025-02-13 10h13.44.316555 +0000,
cube_r.png,0.1,10,catch,16,16,0,up,4.3762314999999035,None,None,,,,,,,0,16,16,16,,,,,240.3597198,,,,,,,,,,,,,240.34487089999993,240.3597198,240.3597198,240.3597198,244.73976300000004,,,,244.7514920000001,244.76190040000006,244.76190040000006,244.80543970000008,244.80580320000013,244.82189960000005,244.82189960000005,244.82189960000005,244.90521790000003,247.81969479999998,,,,up,4.3762314999999035,None,None,,,246.91969089999998,247.83530580000001,247.83530580000001,247.83530580000001,,,,,,,,,,,,,,,P105,001,2025-02-13_10h13.34.285,posner_endo_new1,2024.2.4,59.98713875742286,2025-02-13 10h13.44.316555 +0000,
cube_r.png,0.1,10,catch,17,17,0,up,0.981738999999834,None,space,0.3506322000000637,None,,,,,0,17,17,17,,,,,247.83530580000001,,,,,,,,,,,,,247.81996010000012,247.83530580000001,247.83530580000001,247.83530580000001,248.81919719999996,,,,248.8308078,248.84122260000004,248.84122260000004,248.88461080000002,248.88496729999997,248.901116,248.901116,248.901116,248.98428920000015,249.26862129999995,,,,up,0.981738999999834,None,space,0.3506322000000637,None,,,,,,,,,,,,,,,,,,,P105,001,2025-02-13_10h13.34.285,posner_endo_new1,2024.2.4,59.98713875742286,2025-02-13 10h13.44.316555 +0000,
cube_l.png,0.1,0.31,invalid,18,18,0,up,3.1474121999999625,None,space,0.43232369999986986,None,,,,,0,18,18,18,,,,,249.28404390000014,,,,,,,,,,,,,249.26891190000015,249.28404390000014,249.28404390000014,249.28404390000014,252.4482849000001,,,,252.45419500000003,252.4657376,252.4657376,252.51414950000003,252.51437850000002,252.53069870000013,252.53069870000013,252.53069870000013,252.61391789999993,252.96443410000006,,,,up,3.1474121999999625,None,space,0.43232369999986986,None,,,,,,,,,,,,,,,,,,,P105,001,2025-02-13_10h13.34.285,posner_endo_new1,2024.2.4,59.98713875742286,2025-02-13 10h13.44.316555 +0000,
cube_l.png,0.1,10,catch,19,19,0,up,5.251869500000112,None,None,,,,,,,0,19,19,19,,,,,252.98018109999998,,,,,,,,,,,,,252.9646044000001,252.98018109999998,252.98018109999998,252.98018109999998,258.2419542,,,,258.24788250000006,258.2595656000001,258.2595656000001,258.30818479999994,258.30841499999997,258.32479620000004,258.32479620000004,258.32479620000004,258.3914356,261.3221787,,,,up,5.251869500000112,None,None,,,260.40583960000004,261.338387,261.338387,261.338387,,,,,,,,,,,,,,,P105,001,2025-02-13_10h13.34.285,posner_endo_new1,2024.2.4,59.98713875742286,2025-02-13 10h13.44.316555 +0000,
cube_l.png,0.1,0.31,invalid,20,20,0,up,2.381090399999948,None,space,0.5153113999999732,None,,,,,0,20,20,20,,,,,261.338387,,,,,,,,,,,,,261.32233799999995,261.338387,261.338387,261.338387,263.72024469999997,,,,263.7262343,263.7381384,263.7381384,263.78588390000004,263.7863979000001,263.80229099999997,263.80229099999997,263.80229099999997,263.88551469999993,264.3200389000001,,,,up,2.381090399999948,None,space,0.5153113999999732,None,,,,,,,,,,,,,,,,,,,P105,001,2025-02-13_10h13.34.285,posner_endo_new1,2024.2.4,59.98713875742286,2025-02-13 10h13.44.316555 +0000,
cube_l.png,0.1,-0.31,valid,21,21,0,up,5.553010200000017,None,space,0.5195597999997972,None,,,,,0,21,21,21,,,,,264.3353161,,,,,,,,,,,,,264.3203261000001,264.3353161,264.3353161,264.3353161,269.89732359999994,,,,269.90891290000013,269.9192643000001,269.9192643000001,269.963072,269.96343019999995,269.97957399999996,269.97957399999996,269.97957399999996,270.06282720000013,270.51363949999995,,,,up,5.553010200000017,None,space,0.5195597999997972,None,,,,,,,,,,,,,,,,,,,P105,001,2025-02-13_10h13.34.285,posner_endo_new1,2024.2.4,59.98713875742286,2025-02-13 10h13.44.316555 +0000,
cube_r.png,0.1,0.31,valid,22,22,0,up,6.478335100000095,None,space,0.5764259999998558,None,,,,,0,22,22,22,,,,,270.5290559,,,,,,,,,,,,,270.5139378000001,270.5290559,270.5290559,270.5290559,277.0234915000001,,,,277.03501570000003,277.0454062000001,277.0454062000001,277.0891045000001,277.0894627,277.10564180000006,277.10564180000006,277.10564180000006,277.18886250000014,277.68954840000015,,,,up,6.478335100000095,None,space,0.5764259999998558,None,,,,,,,,,,,,,,,,,,,P105,001,2025-02-13_10h13.34.285,posner_endo_new1,2024.2.4,59.98713875742286,2025-02-13 10h13.44.316555 +0000,
cube_r.png,0.1,-0.31,invalid,23,23,0,up,3.7274747999999818,None,space,0.3295765999998821,None,,,,,0,23,23,23,,,,,277.7049690000001,,,,,,,,,,,,,277.68983290000006,277.7049690000001,277.7049690000001,277.7049690000001,281.43580640000005,,,,281.44729870000015,281.4576577,281.4576577,281.50120820000006,281.501565,281.5176818,281.5176818,281.5176818,281.60097050000013,281.8521763000001,,,,up,3.7274747999999818,None,space,0.3295765999998821,None,,,,,,,,,,,,,,,,,,,P105,001,2025-02-13_10h13.34.285,posner_endo_new1,2024.2.4,59.98713875742286,2025-02-13 10h13.44.316555 +0000,
cube_r.png,0.1,0.31,valid,24,24,0,up,7.756007299999965,None,space,0.8566054000000349,None,,,,,0,24,24,24,,,,,281.867477,,,,,,,,,,,,,281.85246129999996,281.867477,281.867477,281.867477,289.6272314,,,,289.63876660000005,289.64903989999993,289.64903989999993,289.69289189999995,289.6932448,289.709341,289.709341,289.709341,289.7926526000001,290.5763094000001,,,,up,7.756007299999965,None,space,0.8566054000000349,None,,,,,,,,,,,,,,,,,,,P105,001,2025-02-13_10h13.34.285,posner_endo_new1,2024.2.4,59.98713875742286,2025-02-13 10h13.44.316555 +0000,
cube_r.png,0.1,-0.31,invalid,25,25,0,up,5.000002199999926,None,space,0.4020754999999099,None,,,,,0,25,25,25,,,,,290.59176449999995,,,,,,,,,,,,,290.576603,290.59176449999995,290.59176449999995,290.59176449999995,295.6045858,,,,295.6139763000001,295.623795,295.623795,295.6702103,295.6704637,295.68658690000007,295.68658690000007,295.68658690000007,295.7697309,296.1035104,,,,up,5.000002199999926,None,space,0.4020754999999099,None,,,,,,,,,,,,,,,,,,,P105,001,2025-02-13_10h13.34.285,posner_endo_new1,2024.2.4,59.98713875742286,2025-02-13 10h13.44.316555 +0000,
cube_l.png,0.1,-0.31,valid,26,26,0,up,8.088190599999962,None,space,0.43289499999991676,None,,,,,0,26,26,26,,,,,296.11937290000014,,,,,,,,,,,,,296.10370839999996,296.11937290000014,296.11937290000014,296.11937290000014,304.21203160000005,,,,304.2194608,304.2313601000001,304.2313601000001,304.2782611,304.27895420000004,304.29461100000003,304.29461100000003,304.29461100000003,304.36124459999996,304.73009449999995,,,,up,8.088190599999962,None,space,0.43289499999991676,None,,,,,,,,,,,,,,,,,,,P105,001,2025-02-13_10h13.34.285,posner_endo_new1,2024.2.4,59.98713875742286,2025-02-13 10h13.44.316555 +0000,
cube_r.png,0.1,0.31,valid,27,27,0,up,4.543484099999887,None,space,0.35125059999995756,None,,,,,0,27,27,27,,,,,304.74424539999995,,,,,,,,,,,,,304.7306937999999,304.74424539999995,304.74424539999995,304.74424539999995,309.2921312000001,,,,309.3155987,309.32758519999993,309.32758519999993,309.3556573000001,309.3560509000001,309.37212709999994,309.37212709999994,309.37212709999994,309.4553754000001,309.73983050000015,,,,up,4.543484099999887,None,space,0.35125059999995756,None,,,,,,,,,,,,,,,,,,,P105,001,2025-02-13_10h13.34.285,posner_endo_new1,2024.2.4,59.98713875742286,2025-02-13 10h13.44.316555 +0000,
cube_r.png,0.1,10,catch,28,28,0,up,6.8382490999999845,None,None,,,,,,,0,28,28,28,,,,,309.755077,,,,,,,,,,,,,309.7401618000001,309.755077,309.755077,309.755077,316.59956310000007,,,,316.6122765,316.6222894,316.6222894,316.66485490000014,316.6652550000001,316.6813241,316.6813241,316.6813241,316.7650272000001,319.67919770000003,,,,up,6.8382490999999845,None,None,,,318.7797157,319.6950482,319.6950482,319.6950482,,,,,,,,,,,,,,,P105,001,2025-02-13_10h13.34.285,posner_endo_new1,2024.2.4,59.98713875742286,2025-02-13 10h13.44.316555 +0000,
cube_r.png,0.1,0.31,valid,29,29,0,up,0.6246593000000757,None,space,0.44096139999987827,None,,,,,0,29,29,29,,,,,319.6950482,,,,,,,,,,,,,319.6793987000001,319.6950482,319.6950482,319.6950482,320.32899199999997,,,,320.3374245,320.34767480000005,320.34767480000005,320.39488210000013,320.3951667000001,320.4114439,320.4114439,320.4114439,320.4946052,320.8617763,,,,up,0.6246593000000757,None,space,0.44096139999987827,None,,,,,,,,,,,,,,,,,,,P105,001,2025-02-13_10h13.34.285,posner_endo_new1,2024.2.4,59.98713875742286,2025-02-13 10h13.44.316555 +0000,
cube_r.png,0.1,0.31,valid,30,30,0,up,2.307109099999934,None,space,0.4882399999999052,None,,,,,0,30,30,30,,,,,320.8774439000001,,,,,,,,,,,,,320.8619996,320.8774439000001,320.8774439000001,320.8774439000001,323.1928752000001,,,,323.20127720000005,323.2114616000001,323.2114616000001,323.2584449000001,323.25873390000015,323.2751135000001,323.2751135000001,323.2751135000001,323.35820590000003,323.77534850000006,,,,up,2.307109099999934,None,space,0.4882399999999052,None,,,,,,,,,,,,,,,,,,,P105,001,2025-02-13_10h13.34.285,posner_endo_new1,2024.2.4,59.98713875742286,2025-02-13 10h13.44.316555 +0000,
cube_l.png,0.1,-0.31,valid,31,31,0,up,2.520656899999949,None,space,0.4655443000001469,None,,,,,0,31,31,31,,,,,323.7910988000001,,,,,,,,,,,,,323.7755730000001,323.7910988000001,323.7910988000001,323.7910988000001,326.3227432000001,,,,326.33109089999994,326.34153430000015,326.34153430000015,326.3885769000001,326.38886049999996,326.4051522,326.4051522,326.4051522,326.48843469999997,326.8724913000001,,,,up,2.520656899999949,None,space,0.4655443000001469,None,,,,,,,,,,,,,,,,,,,P105,001,2025-02-13_10h13.34.285,posner_endo_new1,2024.2.4,59.98713875742286,2025-02-13 10h13.44.316555 +0000,
cube_r.png,0.1,0.31,valid,32,32,0,up,2.4559189999999944,None,space,0.3883837000000767,None,,,,,0,32,32,32,,,,,326.88803210000015,,,,,,,,,,,,,326.8727185,326.88803210000015,326.88803210000015,326.88803210000015,329.35296170000015,,,,329.36138729999993,329.3717368,329.3717368,329.41881979999994,329.4191223,329.4354068,329.4354068,329.4354068,329.50191300000006,329.83574049999993,,,,up,2.4559189999999944,None,space,0.3883837000000767,None,,,,,,,,,,,,,,,,,,,P105,001,2025-02-13_10h13.34.285,posner_endo_new1,2024.2.4,59.98713875742286,2025-02-13 10h13.44.316555 +0000,
cube_r.png,0.1,-0.31,invalid,33,33,0,up,4.604076999999961,None,space,0.3888090000000375,None,,,,,0,33,33,33,,,,,329.85156959999995,,,,,,,,,,,,,329.8359881000001,329.85156959999995,329.85156959999995,329.85156959999995,334.46456119999993,,,,334.4730032,334.4832308,334.4832308,334.53036539999994,334.53092360000005,334.5468016,334.5468016,334.5468016,334.63001610000015,334.9482600000001,,,,up,4.604076999999961,None,space,0.3888090000000375,None,,,,,,,,,,,,,,,,,,,P105,001,2025-02-13_10h13.34.285,posner_endo_new1,2024.2.4,59.98713875742286,2025-02-13 10h13.44.316555 +0000,
cube_r.png,0.1,10,catch,34,34,0,up,3.005622899999935,None,None,,,,,,,0,34,34,34,,,,,334.96302400000013,,,,,,,,,,,,,334.9487597,334.96302400000013,334.96302400000013,334.96302400000013,337.9778881,,,,337.9923788000001,338.0027516,338.0027516,338.04313649999995,338.04358460000003,338.0596204000001,338.0596204000001,338.0596204000001,338.142832,341.0575638,,,,up,3.005622899999935,None,None,,,340.15787339999997,341.07366189999993,341.07366189999993,341.07366189999993,,,,,,,,,,,,,,,P105,001,2025-02-13_10h13.34.285,posner_endo_new1,2024.2.4,59.98713875742286,2025-02-13 10h13.44.316555 +0000,
cube_r.png,0.1,0.31,valid,35,35,0,up,7.606573499999968,None,space,0.3753998000001957,None,,,,,0,35,35,35,,,,,341.07366189999993,,,,,,,,,,,,,341.05779329999996,341.07366189999993,341.07366189999993,341.07366189999993,348.6834332000001,,,,348.69319070000006,348.70346240000003,348.70346240000003,348.74932190000004,348.7496343,348.76576109999996,348.76576109999996,348.76576109999996,348.84910820000005,349.14978070000006,,,,up,7.606573499999968,None,space,0.3753998000001957,None,,,,,,,,,,,,,,,,,,,P105,001,2025-02-13_10h13.34.285,posner_endo_new1,2024.2.4,59.98713875742286,2025-02-13 10h13.44.316555 +0000,
cube_r.png,0.1,-0.31,invalid,36,36,0,up,4.298249299999952,None,space,0.36492120000002615,None,,,,,0,36,36,36,,,,,349.1654596000001,,,,,,,,,,,,,349.15002700000014,349.1654596000001,349.1654596000001,349.1654596000001,353.47857880000015,,,,353.4883618000001,353.4986298000001,353.4986298000001,353.5442782,353.54459109999993,353.56075020000003,353.56075020000003,353.56075020000003,353.6440506000001,353.9281393000001,,,,up,4.298249299999952,None,space,0.36492120000002615,None,,,,,,,,,,,,,,,,,,,P105,001,2025-02-13_10h13.34.285,posner_endo_new1,2024.2.4,59.98713875742286,2025-02-13 10h13.44.316555 +0000,
cube_l.png,0.1,0.31,invalid,37,37,0,up,6.792690100000073,None,space,0.3702872000001207,None,,,,,0,37,37,37,,,,,353.943716,,,,,,,,,,,,,353.92839500000014,353.943716,353.943716,353.943716,360.7378526,,,,360.74759930000005,360.7574357000001,360.7574357000001,360.80352930000004,360.8038435000001,360.8200247,360.8200247,360.8200247,360.9033697,361.2041136,,,,up,6.792690100000073,None,space,0.3702872000001207,None,,,,,,,,,,,,,,,,,,,P105,001,2025-02-13_10h13.34.285,posner_endo_new1,2024.2.4,59.98713875742286,2025-02-13 10h13.44.316555 +0000,
cube_l.png,0.1,0.31,invalid,38,38,0,up,9.812730899999906,None,space,0.5670396999998957,None,,,,,0,38,38,38,,,,,361.21967770000015,,,,,,,,,,,,,361.20436960000006,361.21967770000015,361.21967770000015,361.21967770000015,371.0440386,,,,371.0539384000001,371.06404910000015,371.06404910000015,371.1095692000001,371.10988250000014,371.12630450000006,371.12630450000006,371.12630450000006,371.20940459999997,371.7099951,,,,up,9.812730899999906,None,space,0.5670396999998957,None,,,,,,,,,,,,,,,,,,,P105,001,2025-02-13_10h13.34.285,posner_endo_new1,2024.2.4,59.98713875742286,2025-02-13 10h13.44.316555 +0000,
cube_r.png,0.1,0.31,valid,39,39,0,up,10.658325699999978,None,space,0.48763270000017656,None,,,,,0,39,39,39,,,,,371.7256867000001,,,,,,,,,,,,,371.71024740000007,371.7256867000001,371.7256867000001,371.7256867000001,382.3990351,,,,382.4088644000001,382.4191539000001,382.4191539000001,382.46475239999995,382.46507539999993,382.48137250000013,382.48137250000013,382.48137250000013,382.5644910000001,382.98182180000003,,,,up,10.658325699999978,None,space,0.48763270000017656,None,,,,,,,,,,,,,,,,,,,P105,001,2025-02-13_10h13.34.285,posner_endo_new1,2024.2.4,59.98713875742286,2025-02-13 10h13.44.316555 +0000,
cube_l.png,0.1,0.31,invalid,40,40,0,up,5.93072670000015,None,space,0.565266500000007,None,,,,,0,40,40,40,,,,,382.9973850000001,,,,,,,,,,,,,382.9820794,382.9973850000001,382.9973850000001,382.9973850000001,388.94245490000003,,,,388.9522769,388.96241800000007,388.96241800000007,389.0080381,389.0083505,389.02468769999996,389.02468769999996,389.02468769999996,389.10777810000013,389.5917936000001,,,,up,5.93072670000015,None,space,0.565266500000007,None,,,,,,,,,,,,,,,,,,,P105,001,2025-02-13_10h13.34.285,posner_endo_new1,2024.2.4,59.98713875742286,2025-02-13 10h13.44.316555 +0000,
cube_l.png,0.1,10,catch,41,41,0,up,4.440514900000153,None,None,,,,,,,0,41,41,41,,,,,389.60736169999996,,,,,,,,,,,,,389.5920427000001,389.60736169999996,389.60736169999996,389.60736169999996,394.05404339999995,,,,394.0640634000001,394.07422510000015,394.07422510000015,394.11958890000005,394.119909,394.1361005000001,394.1361005000001,394.1361005000001,394.2192655000001,397.1336398000001,,,,up,4.440514900000153,None,None,,,396.2338456,397.14963250000005,397.14963250000005,397.14963250000005,,,,,,,,,,,,,,,P105,001,2025-02-13_10h13.34.285,posner_endo_new1,2024.2.4,59.98713875742286,2025-02-13 10h13.44.316555 +0000,
cube_l.png,0.1,-0.31,valid,42,42,0,up,0.3382506000000376,None,space,0.4185598999999911,None,,,,,0,42,42,42,,,,,397.14963250000005,,,,,,,,,,,,,397.13387190000003,397.14963250000005,397.14963250000005,397.14963250000005,397.5003147,,,,397.50997200000006,397.52017190000015,397.52017190000015,397.5660415,397.56635200000005,397.5825308000001,397.5825308000001,397.5825308000001,397.6657603000001,398.0164826,,,,up,0.3382506000000376,None,space,0.4185598999999911,None,,,,,,,,,,,,,,,,,,,P105,001,2025-02-13_10h13.34.285,posner_endo_new1,2024.2.4,59.98713875742286,2025-02-13 10h13.44.316555 +0000,
cube_l.png,0.1,10,catch,43,43,0,up,6.943960099999913,None,None,,,,,,,0,43,43,43,,,,,398.03207250000014,,,,,,,,,,,,,398.0167377,398.03207250000014,398.03207250000014,398.03207250000014,404.99267510000004,,,,405.0023969000001,405.0123278000001,405.0123278000001,405.0583031000001,405.05861430000004,405.0748615,405.0748615,405.0748615,405.158052,408.07245090000015,,,,up,6.943960099999913,None,None,,,407.17270499999995,408.088485,408.088485,408.088485,,,,,,,,,,,,,,,P105,001,2025-02-13_10h13.34.285,posner_endo_new1,2024.2.4,59.98713875742286,2025-02-13 10h13.44.316555 +0000,
cube_l.png,0.1,0.31,invalid,44,44,0,up,0.7593420000000606,None,space,0.37116939999987153,None,,,,,0,44,44,44,,,,,408.088485,,,,,,,,,,,,,408.07268309999995,408.088485,408.088485,408.088485,408.85521859999994,,,,408.86486390000005,408.8751419,408.8751419,408.9211712000001,408.9214893000001,408.9375348000001,408.9375348000001,408.9375348000001,409.0039214000001,409.3215384,,,,up,0.7593420000000606,None,space,0.37116939999987153,None,,,,,,,,,,,,,,,,,,,P105,001,2025-02-13_10h13.34.285,posner_endo_new1,2024.2.4,59.98713875742286,2025-02-13 10h13.44.316555 +0000,
cube_l.png,0.1,0.31,invalid,45,45,0,up,7.926672700000154,None,space,0.4373576000000412,None,,,,,0,45,45,45,,,,,409.33713620000003,,,,,,,,,,,,,409.32178909999993,409.33713620000003,409.33713620000003,409.33713620000003,417.28018900000006,,,,417.2899138,417.29985550000015,417.29985550000015,417.3457747,417.34608760000015,417.3623428000001,417.3623428000001,417.3623428000001,417.4454684,417.81297599999994,,,,up,7.926672700000154,None,space,0.4373576000000412,None,,,,,,,,,,,,,,,,,,,P105,001,2025-02-13_10h13.34.285,posner_endo_new1,2024.2.4,59.98713875742286,2025-02-13 10h13.44.316555 +0000,
cube_r.png,0.1,0.31,valid,46,46,0,up,6.963874300000043,None,space,0.4077868000001672,None,,,,,0,46,46,46,,,,,417.82862279999995,,,,,,,,,,,,,417.81322790000013,417.82862279999995,417.82862279999995,417.82862279999995,424.8056319,,,,424.81546460000004,424.8257317,424.8257317,424.87155559999997,424.87186670000006,424.8879486000001,424.8879486000001,424.8879486000001,424.97124329999997,425.3050651000001,,,,up,6.963874300000043,None,space,0.4077868000001672,None,,,,,,,,,,,,,,,,,,,P105,001,2025-02-13_10h13.34.285,posner_endo_new1,2024.2.4,59.98713875742286,2025-02-13 10h13.44.316555 +0000,
cube_l.png,0.1,-0.31,valid,47,47,0,up,2.807579300000043,None,space,0.3774935000001278,None,,,,,0,47,47,47,,,,,425.3208449000001,,,,,,,,,,,,,425.3053126,425.3208449000001,425.3208449000001,425.3208449000001,428.1357431000001,,,,428.1454937000001,428.15567639999995,428.15567639999995,428.2015079,428.20181619999994,428.2178563,428.2178563,428.2178563,428.3011342,428.601901,,,,up,2.807579300000043,None,space,0.3774935000001278,None,,,,,,,,,,,,,,,,,,,P105,001,2025-02-13_10h13.34.285,posner_endo_new1,2024.2.4,59.98713875742286,2025-02-13 10h13.44.316555 +0000,
cube_r.png,0.1,-0.31,invalid,48,48,0,up,3.70290470000009,None,space,0.3674630000000434,None,,,,,0,48,48,48,,,,,428.61735309999995,,,,,,,,,,,,,428.60214710000014,428.61735309999995,428.61735309999995,428.61735309999995,432.33122189999995,,,,432.3407953000001,432.35097270000006,432.35097270000006,432.39709070000004,432.39740770000003,432.41360209999993,432.41360209999993,432.41360209999993,432.48023839999996,432.79752729999996,,,,up,3.70290470000009,None,space,0.3674630000000434,None,,,,,,,,,,,,,,,,,,,P105,001,2025-02-13_10h13.34.285,posner_endo_new1,2024.2.4,59.98713875742286,2025-02-13 10h13.44.316555 +0000,
cube_r.png,0.1,10,catch,49,49,0,up,3.1552570000001197,None,None,,,,,,,0,49,49,49,,,,,432.81322160000013,,,,,,,,,,,,,432.7977813,432.81322160000013,432.81322160000013,432.81322160000013,435.97764870000015,,,,435.9873089,435.99747619999994,435.99747619999994,436.04364839999994,436.04434519999995,436.06000500000005,436.06000500000005,436.06000500000005,436.1432652000001,439.0582813000001,,,,up,3.1552570000001197,None,None,,,438.1578799000001,439.0735632000001,439.0735632000001,439.0735632000001,,,,,,,,,,,,,,,P105,001,2025-02-13_10h13.34.285,posner_endo_new1,2024.2.4,59.98713875742286,2025-02-13 10h13.44.316555 +0000,
cube_l.png,0.1,-0.31,valid,50,50,0,up,0.2862179000001106,None,space,0.3961011999999755,None,,,,,0,50,50,50,,,,,439.0735632000001,,,,,,,,,,,,,439.05882640000004,439.0735632000001,439.0735632000001,439.0735632000001,439.3756843000001,,,,439.3987208000001,439.4095308000001,439.4095308000001,439.4398705000001,439.4402328000001,439.4563276000001,439.4563276000001,439.4563276000001,439.53971330000013,439.8573337,,,,up,0.2862179000001106,None,space,0.3961011999999755,None,,,,,,,,,,,,,,,,,,,P105,001,2025-02-13_10h13.34.285,posner_endo_new1,2024.2.4,59.98713875742286,2025-02-13 10h13.44.316555 +0000,
cube_l.png,0.1,-0.31,valid,51,51,0,up,2.2155299000000923,None,space,0.38432689999990544,None,,,,,0,51,51,51,,,,,439.8727924,,,,,,,,,,,,,439.8576158000001,439.8727924,439.8727924,439.8727924,442.1045183000001,,,,442.11718410000003,442.12685520000014,442.12685520000014,442.17044680000004,442.1707294,442.1869282,442.1869282,442.1869282,442.27004060000013,442.5872340000001,,,,up,2.2155299000000923,None,space,0.38432689999990544,None,,,,,,,,,,,,,,,,,,,P105,001,2025-02-13_10h13.34.285,posner_endo_new1,2024.2.4,59.98713875742286,2025-02-13 10h13.44.316555 +0000,
cube_r.png,0.1,-0.31,invalid,52,52,0,up,3.445332199999939,None,space,0.47871970000005604,None,,,,,0,52,52,52,,,,,442.6030396000001,,,,,,,,,,,,,442.5874609,442.6030396000001,442.6030396000001,442.6030396000001,446.0506729000001,,,,446.0633355,446.07335030000013,446.07335030000013,446.11593800000014,446.1163381000001,446.1323715000001,446.1323715000001,446.1323715000001,446.21568160000015,446.6165287000001,,,,up,3.445332199999939,None,space,0.47871970000005604,None,,,,,,,,,,,,,,,,,,,P105,001,2025-02-13_10h13.34.285,posner_endo_new1,2024.2.4,59.98713875742286,2025-02-13 10h13.44.316555 +0000,
cube_l.png,0.1,-0.31,valid,53,53,0,up,2.6798459000001458,None,space,0.3567323000002034,None,,,,,0,53,53,53,,,,,446.63190469999995,,,,,,,,,,,,,446.6168476,446.63190469999995,446.63190469999995,446.63190469999995,449.31391800000006,,,,449.32651209999995,449.3365576000001,449.3365576000001,449.3792747,449.3796744000001,449.39570419999995,449.39570419999995,449.39570419999995,449.4789588000001,449.7633473000001,,,,up,2.6798459000001458,None,space,0.3567323000002034,None,,,,,,,,,,,,,,,,,,,P105,001,2025-02-13_10h13.34.285,posner_endo_new1,2024.2.4,59.98713875742286,2025-02-13 10h13.44.316555 +0000,
cube_r.png,0.1,10,catch,54,54,0,up,2.197733900000003,None,None,,,,,,,0,54,54,54,,,,,449.77868490000014,,,,,,,,,,,,,449.7636702,449.77868490000014,449.77868490000014,449.77868490000014,451.97790080000004,,,,451.99049349999996,452.00052240000014,452.00052240000014,452.0433342000001,452.04361670000003,452.0600749,452.0600749,452.0600749,452.1432778000001,455.05749289999994,,,,up,2.197733900000003,None,None,,,454.1580888000001,455.07326439999997,455.07326439999997,455.07326439999997,,,,,,,,,,,,,,,P105,001,2025-02-13_10h13.34.285,posner_endo_new1,2024.2.4,59.98713875742286,2025-02-13 10h13.44.316555 +0000,
cube_l.png,0.1,0.31,invalid,55,55,0,up,2.3346006999997826,None,space,0.4180478000000676,None,,,,,0,55,55,55,,,,,455.07326439999997,,,,,,,,,,,,,455.05780189999996,455.07326439999997,455.07326439999997,455.07326439999997,457.4222973000001,,,,457.4330666999999,457.44283100000007,457.44283100000007,457.4878821,457.48813599999994,457.5045147000001,457.5045147000001,457.5045147000001,457.5877183,457.93829670000014,,,,up,2.3346006999997826,None,space,0.4180478000000676,None,,,,,,,,,,,,,,,,,,,P105,001,2025-02-13_10h13.34.285,posner_endo_new1,2024.2.4,59.98713875742286,2025-02-13 10h13.44.316555 +0000,
cube_l.png,0.1,-0.31,valid,56,56,0,up,4.494534200000089,None,space,0.4793393999998443,None,,,,,0,56,56,56,,,,,457.95397,,,,,,,,,,,,,457.93848890000004,457.95397,457.95397,457.95397,462.45038610000006,,,,462.45777220000014,462.4692076000001,462.4692076000001,462.51626540000007,462.5165307,462.5327032,462.5327032,462.5327032,462.61617780000006,463.01661480000007,,,,up,4.494534200000089,None,space,0.4793393999998443,None,,,,,,,,,,,,,,,,,,,P105,001,2025-02-13_10h13.34.285,posner_endo_new1,2024.2.4,59.98713875742286,2025-02-13 10h13.44.316555 +0000,
cube_r.png,0.1,0.31,valid,57,57,0,up,16.34526269999992,None,space,0.6521605000000363,None,,,,,0,57,57,57,,,,,463.0320915,,,,,,,,,,,,,463.0168073,463.0320915,463.0320915,463.0320915,479.38310130000013,,,,479.39050020000013,479.40185210000004,479.40185210000004,479.44885569999997,479.4491078000001,479.46540849999997,479.46540849999997,479.46540849999997,479.5321192000001,480.13235510000004,,,,up,16.34526269999992,None,space,0.6521605000000363,None,,,,,,,,,,,,,,,,,,,P105,001,2025-02-13_10h13.34.285,posner_endo_new1,2024.2.4,59.98713875742286,2025-02-13 10h13.44.316555 +0000,
cube_r.png,0.1,-0.31,invalid,58,58,0,up,1.949277800000118,None,space,0.4109987000001638,None,,,,,0,58,58,58,,,,,480.14790719999996,,,,,,,,,,,,,480.1325491,480.14790719999996,480.14790719999996,480.14790719999996,482.1134221,,,,482.120774,482.1324698000001,482.1324698000001,482.1795386000001,482.1798125,482.1959932,482.1959932,482.1959932,482.2624942,482.61292159999994,,,,up,1.949277800000118,None,space,0.4109987000001638,None,,,,,,,,,,,,,,,,,,,P105,001,2025-02-13_10h13.34.285,posner_endo_new1,2024.2.4,59.98713875742286,2025-02-13 10h13.44.316555 +0000,
cube_l.png,0.1,0.31,invalid,59,59,0,up,13.363374700000122,None,space,0.43877009999982874,None,,,,,0,59,59,59,,,,,482.628917,,,,,,,,,,,,,482.61311580000006,482.628917,482.628917,482.628917,495.99917589999995,,,,496.0065503000001,496.01826929999993,496.01826929999993,496.0653353,496.06559130000005,496.08162400000015,496.08162400000015,496.08162400000015,496.1484954,496.53213559999995,,,,up,13.363374700000122,None,space,0.43877009999982874,None,,,,,,,,,,,,,,,,,,,P105,001,2025-02-13_10h13.34.285,posner_endo_new1,2024.2.4,59.98713875742286,2025-02-13 10h13.44.316555 +0000,
,,,,,,,,,,,,,,,,,,,,,,,,,,,,,,,,,,,,,,,,,,,,,,,,,,,,,,,,,,,,,,,,,,,,,496.53226029999996,496.5478561,496.5478561,556.5536691,564.0970617,space,67.54052770000021,None,,,,,,,P105,001,2025-02-13_10h13.34.285,posner_endo_new1,2024.2.4,59.98713875742286,2025-02-13 10h13.44.316555 +0000,
,,,,,,,,,,,,,,,,,,,,,,,,,,,,,,,,,,564.0971435000001,564.1123408999999,567.1235949,567.0932601,,,,,,,,,,,,,,,,,,,,,,,,,,,,,,,,,,,,,,,,,,,,,,P105,001,2025-02-13_10h13.34.285,posner_endo_new1,2024.2.4,59.98713875742286,2025-02-13 10h13.44.316555 +0000,
cube_l.png,0.1,10,catch,0,0,0,down,8.413030500000104,None,None,,,,,,,,,,,0,0,0,0,567.1235949,,,,,,,,,,,,,567.1143727000001,567.1235949,567.1235949,567.1235949,575.5513452,,,,575.5584663,575.5701842999999,575.5701842999999,575.6172204,575.6174502000001,575.6338615,575.6338615,575.6338615,575.7004542,578.631353,,,,,,,,,,577.7149803,578.6473963000001,578.6473963000001,578.6473963000001,,,,,,,,,down,8.413030500000104,None,None,,,P105,001,2025-02-13_10h13.34.285,posner_endo_new1,2024.2.4,59.98713875742286,2025-02-13 10h13.44.316555 +0000,
cube_l.png,0.1,10,catch,1,1,0,down,5.320986100000027,None,None,,,,,,,,,,,0,1,1,1,578.6473963000001,,,,,,,,,,,,,578.6315132,578.6473963000001,578.6473963000001,578.6473963000001,583.9762421,,,,583.9823886000001,583.9941394,583.9941394,584.0420355000001,584.0422619000001,584.0585091,584.0585091,584.0585091,584.1419128,587.0562461,,,,,,,,,,586.1564796,587.0722539000001,587.0722539000001,587.0722539000001,,,,,,,,,down,5.320986100000027,None,None,,,P105,001,2025-02-13_10h13.34.285,posner_endo_new1,2024.2.4,59.98713875742286,2025-02-13 10h13.44.316555 +0000,
cube_l.png,0.1,0.31,invalid,2,2,0,down,3.7123027000000093,None,space,0.4982482999998865,None,,,,,,,,,0,2,2,2,587.0722539000001,,,,,,,,,,,,,587.0564122000001,587.0722539000001,587.0722539000001,587.0722539000001,590.7859789000001,,,,590.7920682000001,590.8036447,590.8036447,590.8519262,590.8521571000001,590.8684484,590.8684484,590.8684484,590.9516686,591.3686921000001,,,,,,,,,,,,,,,,,,,,,,down,3.7123027000000093,None,space,0.4982482999998865,None,P105,001,2025-02-13_10h13.34.285,posner_endo_new1,2024.2.4,59.98713875742286,2025-02-13 10h13.44.316555 +0000,
cube_l.png,0.1,0.31,invalid,3,3,0,down,6.335699799999929,None,space,0.3857811000000311,None,,,,,,,,,0,3,3,3,591.3843346000001,,,,,,,,,,,,,591.3688674,591.3843346000001,591.3843346000001,591.3843346000001,597.7286759000001,,,,597.7347705,597.7464524,597.7464524,597.7943327,597.7945589000001,597.8114,597.8114,597.8114,597.8778484,598.2114935,,,,,,,,,,,,,,,,,,,,,,down,6.335699799999929,None,space,0.3857811000000311,None,P105,001,2025-02-13_10h13.34.285,posner_endo_new1,2024.2.4,59.98713875742286,2025-02-13 10h13.44.316555 +0000,
cube_l.png,0.1,-0.31,valid,4,4,0,down,6.165270299999975,None,space,0.34446780000007493,None,,,,,,,,,0,4,4,4,598.2274280000001,,,,,,,,,,,,,598.211667,598.2274280000001,598.2274280000001,598.2274280000001,604.4057359000001,,,,604.4173969000001,604.4276428000001,604.4276428000001,604.4713845000001,604.4717424,604.4880241999999,604.4880241999999,604.4880241999999,604.5709937000001,604.8385076,,,,,,,,,,,,,,,,,,,,,,down,6.165270299999975,None,space,0.34446780000007493,None,P105,001,2025-02-13_10h13.34.285,posner_endo_new1,2024.2.4,59.98713875742286,2025-02-13 10h13.44.316555 +0000,
cube_r.png,0.1,-0.31,invalid,5,5,0,down,5.554558899999847,None,space,0.31229430000007596,None,,,,,,,,,0,5,5,5,604.8540911,,,,,,,,,,,,,604.8387999000001,604.8540911,604.8540911,604.8540911,610.415581,,,,610.4225665000001,610.4340041,610.4340041,610.4818534000001,610.4821888000001,610.4982996000001,610.4982996000001,610.4982996000001,610.5649920999999,610.8159233000001,,,,,,,,,,,,,,,,,,,,,,down,5.554558899999847,None,space,0.31229430000007596,None,P105,001,2025-02-13_10h13.34.285,posner_endo_new1,2024.2.4,59.98713875742286,2025-02-13 10h13.44.316555 +0000,
cube_r.png,0.1,0.31,valid,6,6,0,down,4.59421199999997,None,space,0.33842669999989994,None,,,,,,,,,0,6,6,6,610.8313579000001,,,,,,,,,,,,,610.8161973000001,610.8313579000001,610.8313579000001,610.8313579000001,615.4279994000001,,,,615.4390751000001,615.4493487,615.4493487,615.4928718000001,615.4932097999999,615.5099558,615.5099558,615.5099558,615.5931419000001,615.8605781000001,,,,,,,,,,,,,,,,,,,,,,down,4.59421199999997,None,space,0.33842669999989994,None,P105,001,2025-02-13_10h13.34.285,posner_endo_new1,2024.2.4,59.98713875742286,2025-02-13 10h13.44.316555 +0000,
cube_r.png,0.1,-0.31,invalid,7,7,0,down,4.64424699999995,None,space,0.6505815000000439,None,,,,,,,,,0,7,7,7,615.8760884000001,,,,,,,,,,,,,615.8608574,615.8760884000001,615.8760884000001,615.8760884000001,620.5225259000001,,,,620.5336148000001,620.5438458000001,620.5438458000001,620.5881077000001,620.5884561,620.6046352999999,620.6046352999999,620.6046352999999,620.6878487000001,621.2718338,,,,,,,,,,,,,,,,,,,,,,down,4.64424699999995,None,space,0.6505815000000439,None,P105,001,2025-02-13_10h13.34.285,posner_endo_new1,2024.2.4,59.98713875742286,2025-02-13 10h13.44.316555 +0000,
cube_l.png,0.1,-0.31,valid,8,8,0,down,4.313181900000018,None,space,0.4398534000001746,None,,,,,,,,,0,8,8,8,621.2873565,,,,,,,,,,,,,621.2721134000001,621.2873565,621.2873565,621.2873565,625.6172586,,,,625.6283226,625.6382036,625.6382036,625.6829585,625.6832966,625.6995075,625.6995075,625.6995075,625.7827502,626.1501175999999,,,,,,,,,,,,,,,,,,,,,,down,4.313181900000018,None,space,0.4398534000001746,None,P105,001,2025-02-13_10h13.34.285,posner_endo_new1,2024.2.4,59.98713875742286,2025-02-13 10h13.44.316555 +0000,
cube_r.png,0.1,-0.31,invalid,9,9,0,down,8.851529400000118,None,space,0.45005859999992026,None,,,,,,,,,0,9,9,9,626.1656692000001,,,,,,,,,,,,,626.1503967000001,626.1656692000001,626.1656692000001,626.1656692000001,635.024314,,,,635.0331134,635.0429334,635.0429334,635.0899225000001,635.0901689,635.1064407000001,635.1064407000001,635.1064407000001,635.1897065,635.5732654000001,,,,,,,,,,,,,,,,,,,,,,down,8.851529400000118,None,space,0.45005859999992026,None,P105,001,2025-02-13_10h13.34.285,posner_endo_new1,2024.2.4,59.98713875742286,2025-02-13 10h13.44.316555 +0000,
cube_l.png,0.1,0.31,invalid,10,10,0,down,2.811165399999936,None,space,1.026215699999966,None,,,,,,,,,0,10,10,10,635.5891627000001,,,,,,,,,,,,,635.5734529000001,635.5891627000001,635.5891627000001,635.5891627000001,638.4039659,,,,638.4109075000001,638.4224202,638.4224202,638.4698117,638.4700382000001,638.4863452,638.4863452,638.4863452,638.5695777999999,639.5193777,,,,,,,,,,,,,,,,,,,,,,down,2.811165399999936,None,space,1.026215699999966,None,P105,001,2025-02-13_10h13.34.285,posner_endo_new1,2024.2.4,59.98713875742286,2025-02-13 10h13.44.316555 +0000,
cube_r.png,0.1,-0.31,invalid,11,11,0,down,2.30483449999997,None,space,0.3923064999999042,None,,,,,,,,,0,11,11,11,639.5353017,,,,,,,,,,,,,639.5195505000002,639.5353017,639.5353017,639.5353017,641.8503275,,,,641.8563866,641.8680805000001,641.8680805000001,641.9160165000001,641.9164597000001,641.932448,641.932448,641.932448,642.0156872,642.3335903,,,,,,,,,,,,,,,,,,,,,,down,2.30483449999997,None,space,0.3923064999999042,None,P105,001,2025-02-13_10h13.34.285,posner_endo_new1,2024.2.4,59.98713875742286,2025-02-13 10h13.44.316555 +0000,
cube_r.png,0.1,0.31,valid,12,12,0,down,1.739660400000048,None,space,0.28770559999998113,None,,,,,,,,,0,12,12,12,642.3487215,,,,,,,,,,,,,642.3339700000001,642.3487215,642.3487215,642.3487215,644.0983484000001,,,,644.1080541000001,644.1183341000001,644.1183341000001,644.1641125000001,644.1644283,644.1806431,644.1806431,644.1806431,644.2637494,644.4812722000001,,,,,,,,,,,,,,,,,,,,,,down,1.739660400000048,None,space,0.28770559999998113,None,P105,001,2025-02-13_10h13.34.285,posner_endo_new1,2024.2.4,59.98713875742286,2025-02-13 10h13.44.316555 +0000,
cube_l.png,0.1,10,catch,13,13,0,down,2.663530499999979,None,space,0.2674377999999251,None,,,,,,,,,0,13,13,13,644.4969123999999,,,,,,,,,,,,,644.4815242,644.4969123999999,644.4969123999999,644.4969123999999,647.1620818000001,,,,647.1718398,647.1820527,647.1820527,647.2275825000002,647.2279011,647.2440931000001,647.2440931000001,647.2440931000001,647.3274612,647.5282084,,,,,,,,,,,,,,,,,,,,,,down,2.663530499999979,None,space,0.2674377999999251,None,P105,001,2025-02-13_10h13.34.285,posner_endo_new1,2024.2.4,59.98713875742286,2025-02-13 10h13.44.316555 +0000,
cube_r.png,0.1,-0.31,invalid,14,14,0,down,2.6884377999999742,None,space,0.3991045000000213,None,,,,,,,,,0,14,14,14,647.5438716000001,,,,,,,,,,,,,647.5284678,647.5438716000001,647.5438716000001,647.5438716000001,650.242139,,,,650.2519298,650.262037,650.262037,650.3077719,650.3080806,650.3243808,650.3243808,650.3243808,650.4076433,650.7250218000001,,,,,,,,,,,,,,,,,,,,,,down,2.6884377999999742,None,space,0.3991045000000213,None,P105,001,2025-02-13_10h13.34.285,posner_endo_new1,2024.2.4,59.98713875742286,2025-02-13 10h13.44.316555 +0000,
cube_l.png,0.1,-0.31,valid,15,15,0,down,2.8365553000001,None,space,0.5529151999999158,None,,,,,,,,,0,15,15,15,650.740493,,,,,,,,,,,,,650.7252755,650.740493,650.740493,650.740493,653.5886523000001,,,,653.5983128,653.6084430999999,653.6084430999999,653.6543164,653.6546272,653.6708897999999,653.6708897999999,653.6708897999999,653.7541209999999,654.2380963,,,,,,,,,,,,,,,,,,,,,,down,2.8365553000001,None,space,0.5529151999999158,None,P105,001,2025-02-13_10h13.34.285,posner_endo_new1,2024.2.4,59.98713875742286,2025-02-13 10h13.44.316555 +0000,
cube_r.png,0.1,10,catch,16,16,0,down,1.8264306000000943,None,None,,,,,,,,,,,0,16,16,16,654.2536027000001,,,,,,,,,,,,,654.2383459,654.2536027000001,654.2536027000001,654.2536027000001,656.0860606000001,,,,656.0957419000001,656.1058110000001,656.1058110000001,656.1518121000001,656.1521270000001,656.1684273000001,656.1684273000001,656.1684273000001,656.2515889000001,659.1659252,,,,,,,,,,658.2662153000001,659.1818693,659.1818693,659.1818693,,,,,,,,,down,1.8264306000000943,None,None,,,P105,001,2025-02-13_10h13.34.285,posner_endo_new1,2024.2.4,59.98713875742286,2025-02-13 10h13.44.316555 +0000,
cube_r.png,0.1,10,catch,17,17,0,down,3.0029007999999067,None,None,,,,,,,,,,,0,17,17,17,659.1818693,,,,,,,,,,,,,659.1661618,659.1818693,659.1818693,659.1818693,662.1965163,,,,662.2062941000002,662.2165067000001,662.2165067000001,662.2622411,662.2625547,662.2788327000001,662.2788327000001,662.2788327000001,662.3620721,665.2763646000001,,,,,,,,,,664.3765214,665.2923365000001,665.2923365000001,665.2923365000001,,,,,,,,,down,3.0029007999999067,None,None,,,P105,001,2025-02-13_10h13.34.285,posner_endo_new1,2024.2.4,59.98713875742286,2025-02-13 10h13.44.316555 +0000,
cube_l.png,0.1,0.31,invalid,18,18,0,down,2.484038099999907,None,space,0.9325219000002107,None,,,,,,,,,0,18,18,18,665.2923365000001,,,,,,,,,,,,,665.2766091999999,665.2923365000001,665.2923365000001,665.2923365000001,667.7907776,,,,667.8005128,667.8106908,667.8106908,667.8564882000001,667.8567991,667.8729754000001,667.8729754000001,667.8729754000001,667.9562396000001,668.8065272000001,,,,,,,,,,,,,,,,,,,,,,down,2.484038099999907,None,space,0.9325219000002107,None,P105,001,2025-02-13_10h13.34.285,posner_endo_new1,2024.2.4,59.98713875742286,2025-02-13 10h13.44.316555 +0000,
cube_l.png,0.1,10,catch,19,19,0,down,1.8341279999999642,None,None,,,,,,,,,,,0,19,19,19,668.822156,,,,,,,,,,,,,668.8067806000001,668.822156,668.822156,668.822156,670.6711371000001,,,,670.6807959,670.6909545999999,670.6909545999999,670.7369917000001,670.737306,670.7533825,670.7533825,670.7533825,670.8367857000001,673.7510457000001,,,,,,,,,,672.8512223,673.7668882,673.7668882,673.7668882,,,,,,,,,down,1.8341279999999642,None,None,,,P105,001,2025-02-13_10h13.34.285,posner_endo_new1,2024.2.4,59.98713875742286,2025-02-13 10h13.44.316555 +0000,
cube_l.png,0.1,0.31,invalid,20,20,0,down,16.033296900000096,None,space,0.4619330999998965,None,,,,,,,,,0,20,20,20,673.7668882,,,,,,,,,,,,,673.7512802000001,673.7668882,673.7668882,673.7668882,689.8018248999999,,,,689.8110404000001,689.8207279000001,689.8207279000001,689.8674589,689.8676892999999,689.8837513000001,689.8837513000001,689.8837513000001,689.9669779999999,690.3507930000001,,,,,,,,,,,,,,,,,,,,,,down,16.033296900000096,None,space,0.4619330999998965,None,P105,001,2025-02-13_10h13.34.285,posner_endo_new1,2024.2.4,59.98713875742286,2025-02-13 10h13.44.316555 +0000,
cube_l.png,0.1,-0.31,valid,21,21,0,down,5.330248799999936,None,space,0.422040700000025,None,,,,,,,,,0,21,21,21,690.366704,,,,,,,,,,,,,690.3509673000001,690.366704,690.366704,690.366704,695.711976,,,,695.718458,695.7300821000001,695.7300821000001,695.7779724,695.7782015,695.7945278,695.7945278,695.7945278,695.8611136,696.2280871,,,,,,,,,,,,,,,,,,,,,,down,5.330248799999936,None,space,0.422040700000025,None,P105,001,2025-02-13_10h13.34.285,posner_endo_new1,2024.2.4,59.98713875742286,2025-02-13 10h13.44.316555 +0000,
cube_r.png,0.1,0.31,valid,22,22,0,down,5.509863199999927,None,space,0.3343626000000768,None,,,,,,,,,0,22,22,22,696.2439574,,,,,,,,,,,,,696.2282616,696.2439574,696.2439574,696.2439574,701.7558401000001,,,,701.7622823000002,701.7738717,701.7738717,701.8218712,701.8221001,701.8383734000001,701.8383734000001,701.8383734000001,701.9048933000001,702.1885772,,,,,,,,,,,,,,,,,,,,,,down,5.509863199999927,None,space,0.3343626000000768,None,P105,001,2025-02-13_10h13.34.285,posner_endo_new1,2024.2.4,59.98713875742286,2025-02-13 10h13.44.316555 +0000,
cube_r.png,0.1,-0.31,invalid,23,23,0,down,6.219565999999986,None,space,0.3903081999999358,None,,,,,,,,,0,23,23,23,702.2045004000001,,,,,,,,,,,,,702.1887526,702.2045004000001,702.2045004000001,702.2045004000001,708.4323041,,,,708.4383591000001,708.4502750000001,708.4502750000001,708.4981979000002,708.4987063000001,708.5146065000001,708.5146065000001,708.5146065000001,708.5978400000001,708.9155546,,,,,,,,,,,,,,,,,,,,,,down,6.219565999999986,None,space,0.3903081999999358,None,P105,001,2025-02-13_10h13.34.285,posner_endo_new1,2024.2.4,59.98713875742286,2025-02-13 10h13.44.316555 +0000,
cube_r.png,0.1,0.31,valid,24,24,0,down,3.557307999999921,None,space,0.4050061000000369,None,,,,,,,,,0,24,24,24,708.9310904000001,,,,,,,,,,,,,708.9158318,708.9310904000001,708.9310904000001,708.9310904000001,712.4950529,,,,712.5060857999999,712.5163291000001,712.5163291000001,712.5607047000001,712.5610555000001,712.5772945000001,712.5772945000001,712.5772945000001,712.6606009,712.9948870000001,,,,,,,,,,,,,,,,,,,,,,down,3.557307999999921,None,space,0.4050061000000369,None,P105,001,2025-02-13_10h13.34.285,posner_endo_new1,2024.2.4,59.98713875742286,2025-02-13 10h13.44.316555 +0000,
cube_r.png,0.1,-0.31,invalid,25,25,0,down,1.8544013000000632,None,space,0.39412930000003144,None,,,,,,,,,0,25,25,25,713.0101813000001,,,,,,,,,,,,,712.9951672,713.0101813000001,713.0101813000001,713.0101813000001,714.8760818000001,,,,714.8870849,714.8972428,714.8972428,714.9417101000001,714.9420473,714.9582563000001,714.9582563000001,714.9582563000001,715.0413675,715.3590495000001,,,,,,,,,,,,,,,,,,,,,,down,1.8544013000000632,None,space,0.39412930000003144,None,P105,001,2025-02-13_10h13.34.285,posner_endo_new1,2024.2.4,59.98713875742286,2025-02-13 10h13.44.316555 +0000,
cube_l.png,0.1,-0.31,valid,26,26,0,down,4.970608399999946,None,space,0.3340892999999596,None,,,,,,,,,0,26,26,26,715.3744963000001,,,,,,,,,,,,,715.3593284000001,715.3744963000001,715.3744963000001,715.3744963000001,720.3541016000001,,,,720.3651105000001,720.375313,720.375313,720.4195296,720.4198661,720.4358969,720.4358969,720.4358969,720.5193136,720.7866561000001,,,,,,,,,,,,,,,,,,,,,,down,4.970608399999946,None,space,0.3340892999999596,None,P105,001,2025-02-13_10h13.34.285,posner_endo_new1,2024.2.4,59.98713875742286,2025-02-13 10h13.44.316555 +0000,
cube_r.png,0.1,0.31,valid,27,27,0,down,6.574055900000076,None,space,0.3149725999999191,None,,,,,,,,,0,27,27,27,720.8024010000001,,,,,,,,,,,,,720.7869375,720.8024010000001,720.8024010000001,720.8024010000001,727.3800307000001,,,,727.3913383000001,727.4015744000001,727.4015744000001,727.4455600000001,727.4459046,727.4622105000001,727.4622105000001,727.4622105000001,727.5453413,727.7796813,,,,,,,,,,,,,,,,,,,,,,down,6.574055900000076,None,space,0.3149725999999191,None,P105,001,2025-02-13_10h13.34.285,posner_endo_new1,2024.2.4,59.98713875742286,2025-02-13 10h13.44.316555 +0000,
cube_r.png,0.1,10,catch,28,28,0,down,6.181455199999846,None,None,,,,,,,,,,,0,28,28,28,727.7951745,,,,,,,,,,,,,727.7799578000001,727.7951745,727.7951745,727.7951745,733.9899523000001,,,,734.001037,734.0111233,734.0111233,734.0557148,734.0560513,734.0720797000001,734.0720797000001,734.0720797000001,734.1552828000001,737.0696907000001,,,,,,,,,,736.169913,737.0855963000001,737.0855963000001,737.0855963000001,,,,,,,,,down,6.181455199999846,None,None,,,P105,001,2025-02-13_10h13.34.285,posner_endo_new1,2024.2.4,59.98713875742286,2025-02-13 10h13.44.316555 +0000,
cube_r.png,0.1,0.31,valid,29,29,0,down,4.323151199999984,None,space,0.4877778000000035,None,,,,,,,,,0,29,29,29,737.0855963000001,,,,,,,,,,,,,737.0699539,737.0855963000001,737.0855963000001,737.0855963000001,741.4156294,,,,741.4266468000001,741.4369379,741.4369379,741.4813514,741.4816940000001,741.4977276,741.4977276,741.4977276,741.5811521,741.9983896000001,,,,,,,,,,,,,,,,,,,,,,down,4.323151199999984,None,space,0.4877778000000035,None,P105,001,2025-02-13_10h13.34.285,posner_endo_new1,2024.2.4,59.98713875742286,2025-02-13 10h13.44.316555 +0000,
cube_r.png,0.1,0.31,valid,30,30,0,down,5.082827700000053,None,space,0.3525550000001658,None,,,,,,,,,0,30,30,30,742.0140414,,,,,,,,,,,,,741.9986715,742.0140414,742.0140414,742.0140414,747.1098033000001,,,,747.1208340000001,747.1310974,747.1310974,747.1754952000001,747.1758420000001,747.1920646000001,747.1920646000001,747.1920646000001,747.2752241000001,747.5595499000001,,,,,,,,,,,,,,,,,,,,,,down,5.082827700000053,None,space,0.3525550000001658,None,P105,001,2025-02-13_10h13.34.285,posner_endo_new1,2024.2.4,59.98713875742286,2025-02-13 10h13.44.316555 +0000,
cube_l.png,0.1,-0.31,valid,31,31,0,down,14.113645799999858,None,space,0.4493070999999418,None,,,,,,,,,0,31,31,31,747.5749382000001,,,,,,,,,,,,,747.5598273,747.5749382000001,747.5749382000001,747.5749382000001,761.6950641999999,,,,761.7061781,761.7164436,761.7164436,761.7607257,761.7610630000001,761.7771205000001,761.7771205000001,761.7771205000001,761.8603323,762.2280064000001,,,,,,,,,,,,,,,,,,,,,,down,14.113645799999858,None,space,0.4493070999999418,None,P105,001,2025-02-13_10h13.34.285,posner_endo_new1,2024.2.4,59.98713875742286,2025-02-13 10h13.44.316555 +0000,
cube_r.png,0.1,0.31,valid,32,32,0,down,1.9893409000001157,None,space,0.6398140000001149,None,,,,,,,,,0,32,32,32,762.2432448,,,,,,,,,,,,,762.2282888,762.2432448,762.2432448,762.2432448,764.2423111,,,,764.2533115000001,764.2635230000001,764.2635230000001,764.3081182000001,764.3084581,764.3245109,764.3245109,764.3245109,764.4078393,764.9749804,,,,,,,,,,,,,,,,,,,,,,down,1.9893409000001157,None,space,0.6398140000001149,None,P105,001,2025-02-13_10h13.34.285,posner_endo_new1,2024.2.4,59.98713875742286,2025-02-13 10h13.44.316555 +0000,
cube_r.png,0.1,-0.31,invalid,33,33,0,down,7.058596399999942,None,space,0.32495139999991807,None,,,,,,,,,0,33,33,33,764.9906276000002,,,,,,,,,,,,,764.9752671000001,764.9906276000002,764.9906276000002,764.9906276000002,772.0512290000001,,,,772.0622313000001,772.0724629000001,772.0724629000001,772.1166685000001,772.1170036999999,772.1330911,772.1330911,772.1330911,772.2164852000001,772.4673177,,,,,,,,,,,,,,,,,,,,,,down,7.058596399999942,None,space,0.32495139999991807,None,P105,001,2025-02-13_10h13.34.285,posner_endo_new1,2024.2.4,59.98713875742286,2025-02-13 10h13.44.316555 +0000,
cube_r.png,0.1,10,catch,34,34,0,down,11.61338950000004,None,None,,,,,,,,,,,0,34,34,34,772.482769,,,,,,,,,,,,,772.4675944,772.482769,772.482769,772.482769,784.1052766,,,,784.116358,784.1266584,784.1266584,784.1709301000001,784.1712712000001,784.1875828,784.1875828,784.1875828,784.2707556,787.1852762000001,,,,,,,,,,786.2853073000001,787.20101,787.20101,787.20101,,,,,,,,,down,11.61338950000004,None,None,,,P105,001,2025-02-13_10h13.34.285,posner_endo_new1,2024.2.4,59.98713875742286,2025-02-13 10h13.44.316555 +0000,
cube_r.png,0.1,0.31,valid,35,35,0,down,2.999270800000204,None,space,0.4550707999999304,None,,,,,,,,,0,35,35,35,787.20101,,,,,,,,,,,,,787.1855325000001,787.20101,787.20101,787.20101,790.2159518999999,,,,790.2270028,790.2372554000001,790.2372554000001,790.2814364999999,790.2817722,790.2979734,790.2979734,790.2979734,790.3811925,790.7652385000001,,,,,,,,,,,,,,,,,,,,,,down,2.999270800000204,None,space,0.4550707999999304,None,P105,001,2025-02-13_10h13.34.285,posner_endo_new1,2024.2.4,59.98713875742286,2025-02-13 10h13.44.316555 +0000,
cube_r.png,0.1,-0.31,invalid,36,36,0,down,1.859479599999986,None,space,0.3753033999998934,None,,,,,,,,,0,36,36,36,790.7808135,,,,,,,,,,,,,790.7655263000001,790.7808135,790.7808135,790.7808135,792.646708,,,,792.6577344,792.6679029,792.6679029,792.7121904,792.7125399000001,792.7287572,792.7287572,792.7287572,792.8121401000001,793.1131656999999,,,,,,,,,,,,,,,,,,,,,,down,1.859479599999986,None,space,0.3753033999998934,None,P105,001,2025-02-13_10h13.34.285,posner_endo_new1,2024.2.4,59.98713875742286,2025-02-13 10h13.44.316555 +0000,
cube_l.png,0.1,0.31,invalid,37,37,0,down,4.65582570000015,None,space,0.4193381000000045,None,,,,,,,,,0,37,37,37,793.1284471000001,,,,,,,,,,,,,793.1134417000001,793.1284471000001,793.1284471000001,793.1284471000001,797.7913126000001,,,,797.8023031999999,797.812522,797.812522,797.8570496,797.8573890999999,797.8736040000001,797.8736040000001,797.8736040000001,797.9567260000001,798.3075850000002,,,,,,,,,,,,,,,,,,,,,,down,4.65582570000015,None,space,0.4193381000000045,None,P105,001,2025-02-13_10h13.34.285,posner_endo_new1,2024.2.4,59.98713875742286,2025-02-13 10h13.44.316555 +0000,
cube_l.png,0.1,0.31,invalid,38,38,0,down,1.8938742999998794,None,space,0.5413244999999733,None,,,,,,,,,0,38,38,38,798.3231756000002,,,,,,,,,,,,,798.3078658000002,798.3231756000002,798.3231756000002,798.3231756000002,800.2223855999998,,,,800.2333234999999,800.2436513,800.2436513,800.2878944000001,800.2882336999999,800.3044797,800.3044797,800.3044797,800.3876312,800.8549325000001,,,,,,,,,,,,,,,,,,,,,,down,1.8938742999998794,None,space,0.5413244999999733,None,P105,001,2025-02-13_10h13.34.285,posner_endo_new1,2024.2.4,59.98713875742286,2025-02-13 10h13.44.316555 +0000,
cube_r.png,0.1,0.31,valid,39,39,0,down,2.5469171999998252,None,space,0.32595790000004854,None,,,,,,,,,0,39,39,39,800.8703591000001,,,,,,,,,,,,,800.8552189,800.8703591000001,800.8703591000001,800.8703591000001,803.4191361000001,,,,803.4300845999999,803.4402888000002,803.4402888000002,803.4847280000001,803.4850643000002,803.5010485,803.5010485,803.5010485,803.5844,803.8353745000002,,,,,,,,,,,,,,,,,,,,,,down,2.5469171999998252,None,space,0.32595790000004854,None,P105,001,2025-02-13_10h13.34.285,posner_endo_new1,2024.2.4,59.98713875742286,2025-02-13 10h13.44.316555 +0000,
cube_l.png,0.1,0.31,invalid,40,40,0,down,2.9020747999998093,None,space,0.39978229999996984,None,,,,,,,,,0,40,40,40,803.8507505999999,,,,,,,,,,,,,803.8356532999999,803.8507505999999,803.8507505999999,803.8507505999999,806.7655315,,,,806.7764500999999,806.7868077999999,806.7868077999999,806.8312492000002,806.8315847000001,806.8477392000002,806.8477392000002,806.8477392000002,806.9311150000001,807.2486328000002,,,,,,,,,,,,,,,,,,,,,,down,2.9020747999998093,None,space,0.39978229999996984,None,P105,001,2025-02-13_10h13.34.285,posner_endo_new1,2024.2.4,59.98713875742286,2025-02-13 10h13.44.316555 +0000,
cube_l.png,0.1,10,catch,41,41,0,down,4.472790700000132,None,None,,,,,,,,,,,0,41,41,41,807.2639557,,,,,,,,,,,,,807.2489083000003,807.2639557,807.2639557,807.2639557,811.7436082000002,,,,811.7545616,811.7647555000001,811.7647555000001,811.8094360000002,811.8097788000002,811.8260766000001,811.8260766000001,811.8260766000001,811.9092447999999,814.8234841000001,,,,,,,,,,813.9238287999999,814.8395766000001,814.8395766000001,814.8395766000001,,,,,,,,,down,4.472790700000132,None,None,,,P105,001,2025-02-13_10h13.34.285,posner_endo_new1,2024.2.4,59.98713875742286,2025-02-13 10h13.44.316555 +0000,
cube_l.png,0.1,-0.31,valid,42,42,0,down,1.9929833000001054,None,space,0.40366450000010445,None,,,,,,,,,0,42,42,42,814.8395766000001,,,,,,,,,,,,,814.8237480999999,814.8395766000001,814.8395766000001,814.8395766000001,816.8384828000001,,,,816.8495433999999,816.8596991000002,816.8596991000002,816.9042661000001,816.9046125000002,816.9208141000001,816.9208141000001,816.9208141000001,817.0039591000002,817.3381292000001,,,,,,,,,,,,,,,,,,,,,,down,1.9929833000001054,None,space,0.40366450000010445,None,P105,001,2025-02-13_10h13.34.285,posner_endo_new1,2024.2.4,59.98713875742286,2025-02-13 10h13.44.316555 +0000,
cube_l.png,0.1,10,catch,43,43,0,down,21.49591320000036,None,None,,,,,,,,,,,0,43,43,43,817.3535720000002,,,,,,,,,,,,,817.3384094,817.3535720000002,817.3535720000002,817.3535720000002,838.8661571999999,,,,838.8771834000001,838.8871116000003,838.8871116000003,838.9316543000002,838.9319889999999,838.9482009000001,838.9482009000001,838.9482009000001,839.0314360999998,841.9457593999998,,,,,,,,,,841.0461631999999,841.9618886000001,841.9618886000001,841.9618886000001,,,,,,,,,down,21.49591320000036,None,None,,,P105,001,2025-02-13_10h13.34.285,posner_endo_new1,2024.2.4,59.98713875742286,2025-02-13 10h13.44.316555 +0000,
cube_l.png,0.1,0.31,invalid,44,44,0,down,5.735256899999968,None,space,0.5816521000001558,None,,,,,,,,,0,44,44,44,841.9618886000001,,,,,,,,,,,,,841.9460181000002,841.9618886000001,841.9618886000001,841.9618886000001,847.7070451000002,,,,847.7181707000002,847.7284025000001,847.7284025000001,847.7727909000002,847.7731320999999,847.7891402000002,847.7891402000002,847.7891402000002,847.8723658000001,848.3732570999998,,,,,,,,,,,,,,,,,,,,,,down,5.735256899999968,None,space,0.5816521000001558,None,P105,001,2025-02-13_10h13.34.285,posner_endo_new1,2024.2.4,59.98713875742286,2025-02-13 10h13.44.316555 +0000,
cube_l.png,0.1,0.31,invalid,45,45,0,down,7.163772600000357,None,space,0.5376332999999249,None,,,,,,,,,0,45,45,45,848.3885585999999,,,,,,,,,,,,,848.3735441000001,848.3885585999999,848.3885585999999,848.3885585999999,855.5652661000001,,,,855.5717096999999,855.5834711,855.5834711,855.6311693,855.6313950000001,855.6477880999998,855.6477880999998,855.6477880999998,855.7310587,856.1979730999999,,,,,,,,,,,,,,,,,,,,,,down,7.163772600000357,None,space,0.5376332999999249,None,P105,001,2025-02-13_10h13.34.285,posner_endo_new1,2024.2.4,59.98713875742286,2025-02-13 10h13.44.316555 +0000,
cube_r.png,0.1,0.31,valid,46,46,0,down,6.131014199999754,None,space,0.9172380999998495,None,,,,,,,,,0,46,46,46,856.2138152999999,,,,,,,,,,,,,856.1981471000001,856.2138152999999,856.2138152999999,856.2138152999999,862.3583187000002,,,,862.3647987000002,862.3764250000002,862.3764250000002,862.4243871000001,862.4246165000002,862.4409194000002,862.4409194000002,862.4409194000002,862.50739,863.3739908,,,,,,,,,,,,,,,,,,,,,,down,6.131014199999754,None,space,0.9172380999998495,None,P105,001,2025-02-13_10h13.34.285,posner_endo_new1,2024.2.4,59.98713875742286,2025-02-13 10h13.44.316555 +0000,
cube_l.png,0.1,-0.31,valid,47,47,0,down,1.698803200000384,None,space,0.3894748000002437,None,,,,,,,,,0,47,47,47,863.3898136999999,,,,,,,,,,,,,863.3741683999999,863.3898136999999,863.3898136999999,863.3898136999999,865.1054468,,,,865.1114688,865.1229067000002,865.1229067000002,865.1715916,865.171822,865.1880631000001,865.1880631000001,865.1880631000001,865.2546024999999,865.5883689999998,,,,,,,,,,,,,,,,,,,,,,down,1.698803200000384,None,space,0.3894748000002437,None,P105,001,2025-02-13_10h13.34.285,posner_endo_new1,2024.2.4,59.98713875742286,2025-02-13 10h13.44.316555 +0000,
cube_r.png,0.1,-0.31,invalid,48,48,0,down,5.061026299999867,None,space,0.5781382000000121,None,,,,,,,,,0,48,48,48,865.6043830000001,,,,,,,,,,,,,865.5885503000002,865.6043830000001,865.6043830000001,865.6043830000001,870.6670354999999,,,,870.6785705999998,870.6888726999998,870.6888726999998,870.7325017000001,870.7328546000001,870.7490389000002,870.7490389000002,870.7490389000002,870.8324111,871.3329378999999,,,,,,,,,,,,,,,,,,,,,,down,5.061026299999867,None,space,0.5781382000000121,None,P105,001,2025-02-13_10h13.34.285,posner_endo_new1,2024.2.4,59.98713875742286,2025-02-13 10h13.44.316555 +0000,
cube_r.png,0.1,10,catch,49,49,0,down,4.8446789999998146,None,None,,,,,,,,,,,0,49,49,49,871.3485065000002,,,,,,,,,,,,,871.3332341000003,871.3485065000002,871.3485065000002,871.3485065000002,876.1948131000001,,,,876.2038731999999,876.2137337000001,876.2137337000001,876.2603141000002,876.2605701999998,876.2767369000001,876.2767369000001,876.2767369000001,876.3599474,879.2740415000001,,,,,,,,,,878.3743651000002,879.2901438000001,879.2901438000001,879.2901438000001,,,,,,,,,down,4.8446789999998146,None,None,,,P105,001,2025-02-13_10h13.34.285,posner_endo_new1,2024.2.4,59.98713875742286,2025-02-13 10h13.44.316555 +0000,
cube_l.png,0.1,-0.31,valid,50,50,0,down,4.87838260000035,None,space,0.4120121000000836,None,,,,,,,,,0,50,50,50,879.2901438000001,,,,,,,,,,,,,879.2742243,879.2901438000001,879.2901438000001,879.2901438000001,884.1695619999998,,,,884.1769422999998,884.1882154000002,884.1882154000002,884.2354882000002,884.2357441000001,884.2517074,884.2517074,884.2517074,884.3349790999998,884.6689549,,,,,,,,,,,,,,,,,,,,,,down,4.87838260000035,None,space,0.4120121000000836,None,P105,001,2025-02-13_10h13.34.285,posner_endo_new1,2024.2.4,59.98713875742286,2025-02-13 10h13.44.316555 +0000,
cube_l.png,0.1,-0.31,valid,51,51,0,down,5.444344999999885,None,space,0.3694593000000168,None,,,,,,,,,0,51,51,51,884.6845930000002,,,,,,,,,,,,,884.6691592999998,884.6845930000002,884.6845930000002,884.6845930000002,890.1300091999999,,,,890.1373515000002,890.1488797,890.1488797,890.1958505999999,890.1961079999999,890.2123435000001,890.2123435000001,890.2123435000001,890.2955691999998,890.5962058000002,,,,,,,,,,,,,,,,,,,,,,down,5.444344999999885,None,space,0.3694593000000168,None,P105,001,2025-02-13_10h13.34.285,posner_endo_new1,2024.2.4,59.98713875742286,2025-02-13 10h13.44.316555 +0000,
cube_r.png,0.1,-0.31,invalid,52,52,0,down,4.972747600000275,None,space,0.409840400000121,None,,,,,,,,,0,52,52,52,890.6118711000001,,,,,,,,,,,,,890.5964022,890.6118711000001,890.6118711000001,890.6118711000001,895.5912194999999,,,,895.5986083,895.6099372000001,895.6099372000001,895.6568441000002,895.6570958,895.6734778000002,895.6734778000002,895.6734778000002,895.7567001,896.0904149,,,,,,,,,,,,,,,,,,,,,,down,4.972747600000275,None,space,0.409840400000121,None,P105,001,2025-02-13_10h13.34.285,posner_endo_new1,2024.2.4,59.98713875742286,2025-02-13 10h13.44.316555 +0000,
cube_l.png,0.1,-0.31,valid,53,53,0,down,4.463892300000225,None,space,0.4920521999997618,None,,,,,,,,,0,53,53,53,896.1062631000002,,,,,,,,,,,,,896.0906154000002,896.1062631000002,896.1062631000002,896.1062631000002,900.5858615999998,,,,900.5932539000003,900.6050873000002,900.6050873000002,900.6517233000002,900.6519835000001,900.6682886000001,900.6682886000001,900.6682886000001,900.7351857000001,901.1686572000001,,,,,,,,,,,,,,,,,,,,,,down,4.463892300000225,None,space,0.4920521999997618,None,P105,001,2025-02-13_10h13.34.285,posner_endo_new1,2024.2.4,59.98713875742286,2025-02-13 10h13.44.316555 +0000,
cube_r.png,0.1,10,catch,54,54,0,down,13.503932199999781,None,None,,,,,,,,,,,0,54,54,54,901.1844036,,,,,,,,,,,,,901.1688775,901.1844036,901.1844036,901.1844036,914.7048568000002,,,,914.7122981,914.7235246000002,914.7235246000002,914.7708292999998,914.7713913,914.7872955999999,914.7872955999999,914.7872955999999,914.8538873999998,917.7854184999999,,,,,,,,,,916.8684182,917.8008677,917.8008677,917.8008677,,,,,,,,,down,13.503932199999781,None,None,,,P105,001,2025-02-13_10h13.34.285,posner_endo_new1,2024.2.4,59.98713875742286,2025-02-13 10h13.44.316555 +0000,
cube_l.png,0.1,0.31,invalid,55,55,0,down,7.639881099999911,None,space,0.3831728000000112,None,,,,,,,,,0,55,55,55,917.8008677,,,,,,,,,,,,,917.7858733999999,917.8008677,917.8008677,917.8008677,925.4451510000001,,,,925.463919,925.4752406999999,925.4752406999999,925.5099074000002,925.5104653999999,925.5263098000003,925.5263098000003,925.5263098000003,925.6096181999999,925.9115689000002,,,,,,,,,,,,,,,,,,,,,,down,7.639881099999911,None,space,0.3831728000000112,None,P105,001,2025-02-13_10h13.34.285,posner_endo_new1,2024.2.4,59.98713875742286,2025-02-13 10h13.44.316555 +0000,
cube_l.png,0.1,-0.31,valid,56,56,0,down,6.867211499999939,None,space,0.4481691000000865,None,,,,,,,,,0,56,56,56,925.9258766999999,,,,,,,,,,,,,925.9120516,925.9258766999999,925.9258766999999,925.9258766999999,932.8042616,,,,932.8229265000002,932.8342805,932.8342805,932.8690386999999,932.8693753,932.8855538999999,932.8855538999999,932.8855538999999,932.9688628000001,933.3364967999998,,,,,,,,,,,,,,,,,,,,,,down,6.867211499999939,None,space,0.4481691000000865,None,P105,001,2025-02-13_10h13.34.285,posner_endo_new1,2024.2.4,59.98713875742286,2025-02-13 10h13.44.316555 +0000,
cube_r.png,0.1,0.31,valid,57,57,0,down,5.9532492999996975,None,space,0.39320279999992636,None,,,,,,,,,0,57,57,57,933.3516953999999,,,,,,,,,,,,,933.3367771999999,933.3516953999999,933.3516953999999,933.3516953999999,939.3137525,,,,939.3233438999998,939.3331971,939.3331971,939.3789015999998,939.379181,939.3955208,939.3955208,939.3955208,939.4788005000003,939.7959211,,,,,,,,,,,,,,,,,,,,,,down,5.9532492999996975,None,space,0.39320279999992636,None,P105,001,2025-02-13_10h13.34.285,posner_endo_new1,2024.2.4,59.98713875742286,2025-02-13 10h13.44.316555 +0000,
cube_r.png,0.1,-0.31,invalid,58,58,0,down,4.725585499999852,None,space,0.3946639000000687,None,,,,,,,,,0,58,58,58,939.8116871999998,,,,,,,,,,,,,939.7961191000002,939.8116871999998,939.8116871999998,939.8116871999998,944.5410656000001,,,,944.5484681,944.5714495999998,944.5714495999998,944.6073601999999,944.6080319,944.6236790999999,944.6236790999999,944.6236790999999,944.6902375000002,945.0256657000002,,,,,,,,,,,,,,,,,,,,,,down,4.725585499999852,None,space,0.3946639000000687,None,P105,001,2025-02-13_10h13.34.285,posner_endo_new1,2024.2.4,59.98713875742286,2025-02-13 10h13.44.316555 +0000,
cube_l.png,0.1,0.31,invalid,59,59,0,down,3.944688699999915,None,space,0.42457469999999375,None,,,,,,,,,0,59,59,59,945.0399995999999,,,,,,,,,,,,,945.0262650000002,945.0399995999999,945.0399995999999,945.0399995999999,948.9885978,,,,949.0105663000002,949.0211136,949.0211136,949.0520760000002,949.0524477000001,949.0685308,949.0685308,949.0685308,949.1522747000001,949.5030724999999,,,,,,,,,,,,,,,,,,,,,,down,3.944688699999915,None,space,0.42457469999999375,None,P105,001,2025-02-13_10h13.34.285,posner_endo_new1,2024.2.4,59.98713875742286,2025-02-13 10h13.44.316555 +0000,
