cue_img,cue_soa,target_y,trial,thisN,thisTrialN,thisRepN,key_control2.keys,key_control2.rt,key_control2.duration,key_resp.keys,key_resp.rt,key_resp.duration,practice.thisRepN,practice.thisTrialN,practice.thisN,practice.thisIndex,block1.thisRepN,block1.thisTrialN,block1.thisN,block1.thisIndex,block2.thisRepN,block2.thisTrialN,block2.thisN,block2.thisIndex,thisRow.t,notes,instructions.started,instructions_txt.started,key_control.started,instructions.stopped,key_control.keys,key_control.rt,key_control.duration,ready.started,ready_txt.started,ready_txt.stopped,ready.stopped,fix.started,fixation.started,key_control2.started,fixation_cross.started,fix.stopped,practice.key_control2.keys,practice.key_control2.rt,practice.key_control2.duration,cue.started,cube.started,fixation_cross_cue.started,cue.stopped,target.started,fixation_target.started,fixation_cross_target.started,key_resp.started,star.started,target.stopped,practice.key_resp.keys,practice.key_resp.rt,practice.key_resp.duration,block1.key_control2.keys,block1.key_control2.rt,block1.key_control2.duration,star.stopped,fixation_target.stopped,fixation_cross_target.stopped,key_resp.stopped,block1.key_resp.keys,block1.key_resp.rt,block1.key_resp.duration,break_2.started,text.started,key_control3.started,text.stopped,break_2.stopped,key_control3.keys,key_control3.rt,key_control3.duration,block2.key_control2.keys,block2.key_control2.rt,block2.key_control2.duration,block2.key_resp.keys,block2.key_resp.rt,block2.key_resp.duration,participant,session,date,expName,psychopyVersion,frameRate,expStart,
,,,,,,,,,,,,,,,,,,,,,,,,,,,0.00748699999985547,0.02714670000023034,0.02714670000023034,73.35866940000051,up,73.31995479999932,None,,,,,,,,,,,,,,,,,,,,,,,,,,,,,,,,,,,,,,,,,,,,,,,,,,P105,001,2025-02-13_11h48.02.203,posner_endo_new1,2024.2.4,59.975302170474464,2025-02-13 11h48.11.770137 +0000,
,,,,,,,,,,,,,,,,,,,,,,,,,,,,,,,,,,73.35873660000016,73.37039569999979,76.3700601999999,76.35034480000013,,,,,,,,,,,,,,,,,,,,,,,,,,,,,,,,,,,,,,,,,,,,,,P105,001,2025-02-13_11h48.02.203,posner_endo_new1,2024.2.4,59.975302170474464,2025-02-13 11h48.11.770137 +0000,
cube_l.png,0.1,-0.31,valid,0,0,0,up,18.77729309999995,None,space,0.44262649999927817,None,0,0,0,0,,,,,,,,,76.3700601999999,,,,,,,,,,,,,76.35758590000023,76.3700601999999,76.3700601999999,76.3700601999999,95.15011670000058,up,18.77729309999995,None,95.19306060000054,95.20369380000011,95.20369380000011,95.20390130000033,95.20420400000057,95.21638470000016,95.21638470000016,95.21638470000016,95.3140014999999,95.66600860000017,space,0.44262649999927817,None,,,,,,,,,,,,,,,,,,,,,,,,,P105,001,2025-02-13_11h48.02.203,posner_endo_new1,2024.2.4,59.975302170474464,2025-02-13 11h48.11.770137 +0000,
cube_l.png,0.1,0.31,invalid,1,1,0,up,7.610308999999688,None,space,0.3909086000003299,None,0,1,1,1,,,,,,,,,95.6804600000005,,,,,,,,,,,,,95.66656030000013,95.6804600000005,95.6804600000005,95.6804600000005,103.30801710000014,up,7.610308999999688,None,103.32961890000024,103.33969830000024,103.33969830000024,103.37215319999996,103.3726002000003,103.38863339999989,103.38863339999989,103.38863339999989,103.47184360000028,103.79005479999978,space,0.3909086000003299,None,,,,,,,,,,,,,,,,,,,,,,,,,P105,001,2025-02-13_11h48.02.203,posner_endo_new1,2024.2.4,59.975302170474464,2025-02-13 11h48.11.770137 +0000,
cube_r.png,0.1,-0.31,invalid,2,2,0,up,7.205562500000269,None,space,0.29833249999956024,None,0,2,2,2,,,,,,,,,103.80483900000036,,,,,,,,,,,,,103.79040520000035,103.80483900000036,103.80483900000036,103.80483900000036,111.01557890000004,up,7.205562500000269,None,111.02590690000034,111.03592709999975,111.03592709999975,111.08124640000005,111.08155970000007,111.09800970000015,111.09800970000015,111.09800970000015,111.18072980000034,111.39868470000056,space,0.29833249999956024,None,,,,,,,,,,,,,,,,,,,,,,,,,P105,001,2025-02-13_11h48.02.203,posner_endo_new1,2024.2.4,59.975302170474464,2025-02-13 11h48.11.770137 +0000,
cube_r.png,0.1,10,catch,3,3,0,up,8.957250100000238,None,space,0.3462620000000243,None,0,3,3,3,,,,,,,,,111.41402770000059,,,,,,,,,,,,,111.39891970000008,111.41402770000059,111.41402770000059,111.41402770000059,120.37264229999982,up,8.957250100000238,None,120.38325840000016,120.39322880000054,120.39322880000054,120.43826650000028,120.43857370000023,120.45476950000011,120.45476950000011,120.45476950000011,120.53790010000012,120.80575090000002,space,0.3462620000000243,None,,,,,,,,,,,,,,,,,,,,,,,,,P105,001,2025-02-13_11h48.02.203,posner_endo_new1,2024.2.4,59.975302170474464,2025-02-13 11h48.11.770137 +0000,
cube_l.png,0.1,-0.31,valid,4,4,0,up,4.661470399999416,None,space,0.5411503000004814,None,0,4,4,4,,,,,,,,,120.82129650000024,,,,,,,,,,,,,120.80600240000058,120.82129650000024,120.82129650000024,120.82129650000024,125.48416960000031,up,4.661470399999416,None,125.49347990000024,125.5030198000004,125.5030198000004,125.5496936999998,125.54991859999973,125.56626349999988,125.56626349999988,125.56626349999988,125.64931979999983,126.11600989999988,space,0.5411503000004814,None,,,,,,,,,,,,,,,,,,,,,,,,,P105,001,2025-02-13_11h48.02.203,posner_endo_new1,2024.2.4,59.975302170474464,2025-02-13 11h48.11.770137 +0000,
cube_l.png,0.1,0.31,invalid,5,5,0,up,8.590184900000168,None,space,0.38099289999991015,None,0,5,5,5,,,,,,,,,126.13229599999977,,,,,,,,,,,,,126.11617339999975,126.13229599999977,126.13229599999977,126.13229599999977,134.7243201000001,up,8.590184900000168,None,134.73127019999993,134.74322930000017,134.74322930000017,134.7902178000004,134.79045010000027,134.80681860000004,134.80681860000004,134.80681860000004,134.88992920000055,135.19019329999992,space,0.38099289999991015,None,,,,,,,,,,,,,,,,,,,,,,,,,P105,001,2025-02-13_11h48.02.203,posner_endo_new1,2024.2.4,59.975302170474464,2025-02-13 11h48.11.770137 +0000,
cube_r.png,0.1,-0.31,invalid,6,6,0,up,10.220152200000484,None,space,0.3897981999998592,None,0,6,6,6,,,,,,,,,135.2063760000001,,,,,,,,,,,,,135.19035609999992,135.2063760000001,135.2063760000001,135.2063760000001,145.43034119999993,up,10.220152200000484,None,145.43696960000034,145.44847459999983,145.44847459999983,145.49594369999977,145.49617390000003,145.5125108000002,145.5125108000002,145.5125108000002,145.5956925999999,145.91276259999995,space,0.3897981999998592,None,,,,,,,,,,,,,,,,,,,,,,,,,P105,001,2025-02-13_11h48.02.203,posner_endo_new1,2024.2.4,59.975302170474464,2025-02-13 11h48.11.770137 +0000,
cube_r.png,0.1,0.31,valid,7,7,0,up,8.753842500000246,None,space,0.40590339999926073,None,0,7,7,7,,,,,,,,,145.9289429999999,,,,,,,,,,,,,145.91293050000058,145.9289429999999,145.9289429999999,145.9289429999999,154.6874211000004,up,8.753842500000246,None,154.69418760000008,154.7059502000002,154.7059502000002,154.75307169999996,154.7532983000001,154.76975779999975,154.76975779999975,154.76975779999975,154.85291460000008,155.18647620000047,space,0.40590339999926073,None,,,,,,,,,,,,,,,,,,,,,,,,,P105,001,2025-02-13_11h48.02.203,posner_endo_new1,2024.2.4,59.975302170474464,2025-02-13 11h48.11.770137 +0000,
cube_l.png,0.1,-0.31,valid,8,8,0,up,10.792232400000103,None,space,0.3841618999995262,None,0,8,8,8,,,,,,,,,155.20271020000018,,,,,,,,,,,,,155.1866399999999,155.20271020000018,155.20271020000018,155.20271020000018,166.00909320000028,up,10.792232400000103,None,166.0181517000001,166.02828190000037,166.02828190000037,166.07476589999987,166.07505750000018,166.09148300000015,166.09148300000015,166.09148300000015,166.17481580000003,166.49206270000013,space,0.3841618999995262,None,,,,,,,,,,,,,,,,,,,,,,,,,P105,001,2025-02-13_11h48.02.203,posner_endo_new1,2024.2.4,59.975302170474464,2025-02-13 11h48.11.770137 +0000,
cube_r.png,0.1,-0.31,invalid,9,9,0,up,11.062937700000475,None,space,0.37753150000025926,None,0,9,9,9,,,,,,,,,166.5076611000004,,,,,,,,,,,,,166.49228349999976,166.5076611000004,166.5076611000004,166.5076611000004,177.58084980000058,up,11.062937700000475,None,177.59024709999994,177.60036010000022,177.60036010000022,177.64643030000025,177.64672960000007,177.6629813999998,177.6629813999998,177.6629813999998,177.7462532999998,178.04709689999981,space,0.37753150000025926,None,,,,,,,,,,,,,,,,,,,,,,,,,P105,001,2025-02-13_11h48.02.203,posner_endo_new1,2024.2.4,59.975302170474464,2025-02-13 11h48.11.770137 +0000,
cube_r.png,0.1,0.31,valid,10,10,0,up,15.404340000000047,None,space,0.4721973000005164,None,0,10,10,10,,,,,,,,,178.06255610000062,,,,,,,,,,,,,178.0473208000003,178.06255610000062,178.06255610000062,178.06255610000062,193.48114439999972,up,15.404340000000047,None,193.49034709999978,193.5003760999998,193.5003760999998,193.5468451000006,193.54713340000035,193.5634854,193.5634854,193.5634854,193.64673270000003,194.04731979999997,space,0.4721973000005164,None,,,,,,,,,,,,,,,,,,,,,,,,,P105,001,2025-02-13_11h48.02.203,posner_endo_new1,2024.2.4,59.975302170474464,2025-02-13 11h48.11.770137 +0000,
,,,,,,,,,,,,,,,,,,,,,,,,,,,,,,,,,,194.04746590000013,194.06289770000058,197.06976430000032,197.04389290000017,,,,,,,,,,,,,,,,,,,,,,,,,,,,,,,,,,,,,,,,,,,,,,P105,001,2025-02-13_11h48.02.203,posner_endo_new1,2024.2.4,59.975302170474464,2025-02-13 11h48.11.770137 +0000,
cube_l.png,0.1,10,catch,0,0,0,up,5.25358419999975,None,None,,,,,,,0,0,0,0,,,,,197.06976430000032,,,,,,,,,,,,,197.06093430000055,197.06976430000032,197.06976430000032,197.06976430000032,202.33858830000008,,,,202.34480429999985,202.35655700000007,202.35655700000007,202.40443849999974,202.4046698000002,202.4210946000003,202.4210946000003,202.4210946000003,202.5042014999999,205.41842429999997,,,,up,5.25358419999975,None,204.51849349999975,205.43456229999993,205.43456229999993,205.43456229999993,None,,,,,,,,,,,,,,,,,P105,001,2025-02-13_11h48.02.203,posner_endo_new1,2024.2.4,59.975302170474464,2025-02-13 11h48.11.770137 +0000,
cube_l.png,0.1,10,catch,1,1,0,up,3.9688028999999005,None,None,,,,,,,0,1,1,1,,,,,205.43456229999993,,,,,,,,,,,,,205.41858479999973,205.43456229999993,205.43456229999993,205.43456229999993,209.41464629999973,,,,209.42074980000052,209.43232239999998,209.43232239999998,209.48078170000008,209.48101550000047,209.49679689999994,209.49679689999994,209.49679689999994,209.5802848000003,212.49410549999993,,,,up,3.9688028999999005,None,211.5950898000001,212.51070119999986,212.51070119999986,212.51070119999986,None,,,,,,,,,,,,,,,,,P105,001,2025-02-13_11h48.02.203,posner_endo_new1,2024.2.4,59.975302170474464,2025-02-13 11h48.11.770137 +0000,
cube_l.png,0.1,0.31,invalid,2,2,0,up,5.940023099999962,None,space,0.45443990000057966,None,,,,,0,2,2,2,,,,,212.51070119999986,,,,,,,,,,,,,212.49427790000027,212.51070119999986,212.51070119999986,212.51070119999986,218.45755389999977,,,,218.4810961000003,218.49338520000038,218.49338520000038,218.52146830000038,218.52181459999974,218.53783060000023,218.53783060000023,218.53783060000023,218.62109920000057,219.00522600000022,,,,up,5.940023099999962,None,,,,,space,0.45443990000057966,None,,,,,,,,,,,,,,,P105,001,2025-02-13_11h48.02.203,posner_endo_new1,2024.2.4,59.975302170474464,2025-02-13 11h48.11.770137 +0000,
cube_l.png,0.1,0.31,invalid,3,3,0,up,9.950379699999758,None,space,0.5952851000001829,None,,,,,0,3,3,3,,,,,219.02061349999985,,,,,,,,,,,,,219.0055129000002,219.02061349999985,219.02061349999985,219.02061349999985,228.97836499999994,,,,228.99008310000045,229.00036799999998,229.00036799999998,229.0439581999999,229.04421400000047,229.06031729999995,229.06031729999995,229.06031729999995,229.14351869999973,229.66081880000002,,,,up,9.950379699999758,None,,,,,space,0.5952851000001829,None,,,,,,,,,,,,,,,P105,001,2025-02-13_11h48.02.203,posner_endo_new1,2024.2.4,59.975302170474464,2025-02-13 11h48.11.770137 +0000,
cube_l.png,0.1,-0.31,valid,4,4,0,up,8.798931999999695,None,space,0.4112204000002748,None,,,,,0,4,4,4,,,,,229.6764487999999,,,,,,,,,,,,,229.66101830000025,229.6764487999999,229.6764487999999,229.6764487999999,238.4850223000003,,,,238.4925185000002,238.50373080000008,238.50373080000008,238.55114010000034,238.5513901000004,238.56742740000027,238.56742740000027,238.56742740000027,238.63397480000003,238.98464299999978,,,,up,8.798931999999695,None,,,,,space,0.4112204000002748,None,,,,,,,,,,,,,,,P105,001,2025-02-13_11h48.02.203,posner_endo_new1,2024.2.4,59.975302170474464,2025-02-13 11h48.11.770137 +0000,
cube_r.png,0.1,-0.31,invalid,5,5,0,up,8.514263299999584,None,space,0.4990845000002082,None,,,,,0,5,5,5,,,,,239.00022499999977,,,,,,,,,,,,,238.9848407999998,239.00022499999977,239.00022499999977,239.00022499999977,247.52583680000043,,,,247.5341969000001,247.54447840000012,247.54447840000012,247.59169670000028,247.59205490000022,247.6080724000003,247.6080724000003,247.6080724000003,247.69129150000026,248.10917059999974,,,,up,8.514263299999584,None,,,,,space,0.4990845000002082,None,,,,,,,,,,,,,,,P105,001,2025-02-13_11h48.02.203,posner_endo_new1,2024.2.4,59.975302170474464,2025-02-13 11h48.11.770137 +0000,
cube_r.png,0.1,0.31,valid,6,6,0,up,17.062630100000206,None,space,0.403229000000465,None,,,,,0,6,6,6,,,,,248.12425950000033,,,,,,,,,,,,,248.10945489999995,248.12425950000033,248.12425950000033,248.12425950000033,265.1913884000005,,,,265.2031766,265.2134123000005,265.2134123000005,265.25690639999993,265.2572608999999,265.27341220000017,265.27341220000017,265.27341220000017,265.3567356000003,265.6908131,,,,up,17.062630100000206,None,,,,,space,0.403229000000465,None,,,,,,,,,,,,,,,P105,001,2025-02-13_11h48.02.203,posner_endo_new1,2024.2.4,59.975302170474464,2025-02-13 11h48.11.770137 +0000,
cube_r.png,0.1,-0.31,invalid,7,7,0,up,13.329175699999723,None,space,0.31830080000054295,None,,,,,0,7,7,7,,,,,265.7062999,,,,,,,,,,,,,265.6911019999998,265.7062999,265.7062999,265.7062999,279.0438933000005,,,,279.0554576000004,279.06569860000036,279.06569860000036,279.10939419999977,279.1097402000005,279.1260011000004,279.1260011000004,279.1260011000004,279.2091396000005,279.4600446000004,,,,up,13.329175699999723,None,,,,,space,0.31830080000054295,None,,,,,,,,,,,,,,,P105,001,2025-02-13_11h48.02.203,posner_endo_new1,2024.2.4,59.975302170474464,2025-02-13 11h48.11.770137 +0000,
cube_l.png,0.1,-0.31,valid,8,8,0,up,11.983926599999904,None,space,0.49849640000047657,None,,,,,0,8,8,8,,,,,279.47553179999977,,,,,,,,,,,,,279.4603371000003,279.47553179999977,279.47553179999977,279.47553179999977,291.4651717000006,,,,291.4822819000001,291.49257690000013,291.49257690000013,291.5300965000006,291.5304549000002,291.5465316,291.5465316,291.5465316,291.62976080000044,292.0472939000001,,,,up,11.983926599999904,None,,,,,space,0.49849640000047657,None,,,,,,,,,,,,,,,P105,001,2025-02-13_11h48.02.203,posner_endo_new1,2024.2.4,59.975302170474464,2025-02-13 11h48.11.770137 +0000,
cube_r.png,0.1,-0.31,invalid,9,9,0,up,5.500196599999981,None,space,0.4016293000004225,None,,,,,0,9,9,9,,,,,292.0626830000001,,,,,,,,,,,,,292.04757979999977,292.0626830000001,292.0626830000001,292.0626830000001,297.5749639000005,,,,297.5867539000001,297.59685830000035,297.59685830000035,297.6404536,297.6408095000006,297.65694799999983,297.65694799999983,297.65694799999983,297.74026010000034,298.0744372999998,,,,up,5.500196599999981,None,,,,,space,0.4016293000004225,None,,,,,,,,,,,,,,,P105,001,2025-02-13_11h48.02.203,posner_endo_new1,2024.2.4,59.975302170474464,2025-02-13 11h48.11.770137 +0000,
cube_l.png,0.1,0.31,invalid,10,10,0,up,5.217300599999362,None,space,0.347870900000089,None,,,,,0,10,10,10,,,,,298.08992540000054,,,,,,,,,,,,,298.0747317000005,298.08992540000054,298.08992540000054,298.08992540000054,303.31911579999996,,,,303.33094900000015,303.341136,303.341136,303.3846387000003,303.38498549999986,303.40121100000033,303.40121100000033,303.40121100000033,303.48438540000006,303.75201110000035,,,,up,5.217300599999362,None,,,,,space,0.347870900000089,None,,,,,,,,,,,,,,,P105,001,2025-02-13_11h48.02.203,posner_endo_new1,2024.2.4,59.975302170474464,2025-02-13 11h48.11.770137 +0000,
cube_r.png,0.1,-0.31,invalid,11,11,0,up,5.9315944999998464,None,space,0.35410700000011275,None,,,,,0,11,11,11,,,,,303.76733669999976,,,,,,,,,,,,,303.7522966000006,303.76733669999976,303.76733669999976,303.76733669999976,309.7125584000005,,,,309.7243404000001,309.734469,309.734469,309.7781270000005,309.77848110000014,309.79456910000044,309.79456910000044,309.79456910000044,309.8778355000004,310.16203120000046,,,,up,5.9315944999998464,None,,,,,space,0.35410700000011275,None,,,,,,,,,,,,,,,P105,001,2025-02-13_11h48.02.203,posner_endo_new1,2024.2.4,59.975302170474464,2025-02-13 11h48.11.770137 +0000,
cube_r.png,0.1,0.31,valid,12,12,0,up,8.385527000000366,None,space,0.3977134000006117,None,,,,,0,12,12,12,,,,,310.1775481000004,,,,,,,,,,,,,310.1623172999998,310.1775481000004,310.1775481000004,310.1775481000004,318.5702177000003,,,,318.5820364000001,318.5921322000004,318.5921322000004,318.6358492999998,318.6361998000002,318.6521364,318.6521364,318.6521364,318.7355606000001,319.0529738000005,,,,up,8.385527000000366,None,,,,,space,0.3977134000006117,None,,,,,,,,,,,,,,,P105,001,2025-02-13_11h48.02.203,posner_endo_new1,2024.2.4,59.975302170474464,2025-02-13 11h48.11.770137 +0000,
cube_l.png,0.1,10,catch,13,13,0,up,12.807044999999562,None,None,,,,,,,0,13,13,13,,,,,319.0684183000003,,,,,,,,,,,,,319.05325450000055,319.0684183000003,319.0684183000003,319.0684183000003,331.8898506000005,,,,331.90165609999985,331.9118131000005,331.9118131000005,331.9554054,331.95575290000033,331.97197680000045,331.97197680000045,331.97197680000045,332.0552668,334.9695388,,,,up,12.807044999999562,None,334.06972550000046,334.98553210000046,334.98553210000046,334.98553210000046,None,,,,,,,,,,,,,,,,,P105,001,2025-02-13_11h48.02.203,posner_endo_new1,2024.2.4,59.975302170474464,2025-02-13 11h48.11.770137 +0000,
cube_r.png,0.1,-0.31,invalid,14,14,0,up,3.9933303999996497,None,space,0.3047420000002603,None,,,,,0,14,14,14,,,,,334.98553210000046,,,,,,,,,,,,,334.9698033000004,334.98553210000046,334.98553210000046,334.98553210000046,338.9821601000003,,,,338.98885940000036,339.0004260000005,339.0004260000005,339.0481666000005,339.04837620000035,339.0647434000002,339.0647434000002,339.0647434000002,339.1478739000004,339.38164250000045,,,,up,3.9933303999996497,None,,,,,space,0.3047420000002603,None,,,,,,,,,,,,,,,P105,001,2025-02-13_11h48.02.203,posner_endo_new1,2024.2.4,59.975302170474464,2025-02-13 11h48.11.770137 +0000,
cube_l.png,0.1,-0.31,valid,15,15,0,up,4.117175000000316,None,space,0.34100780000062514,None,,,,,0,15,15,15,,,,,339.3978373,,,,,,,,,,,,,339.3818144000006,339.3978373,339.3978373,339.3978373,343.52755179999986,,,,343.5339846000006,343.5456310999998,343.5456310999998,343.59351609999976,343.5937416000006,343.6101527999999,343.6101527999999,343.6101527999999,343.6766097999998,343.9606653999999,,,,up,4.117175000000316,None,,,,,space,0.34100780000062514,None,,,,,,,,,,,,,,,P105,001,2025-02-13_11h48.02.203,posner_endo_new1,2024.2.4,59.975302170474464,2025-02-13 11h48.11.770137 +0000,
cube_r.png,0.1,10,catch,16,16,0,up,16.554689499999768,None,None,,,,,,,0,16,16,16,,,,,343.97647959999995,,,,,,,,,,,,,343.9608334000004,343.97647959999995,343.97647959999995,343.97647959999995,360.5440767,,,,360.55598269999973,360.5660839000002,360.5660839000002,360.6096045000004,360.60995210000056,360.62596529999973,360.62596529999973,360.62596529999973,360.7091582000003,363.6237037000001,,,,up,16.554689499999768,None,362.7238219000001,363.6395760000005,363.6395760000005,363.6395760000005,None,,,,,,,,,,,,,,,,,P105,001,2025-02-13_11h48.02.203,posner_endo_new1,2024.2.4,59.975302170474464,2025-02-13 11h48.11.770137 +0000,
cube_r.png,0.1,10,catch,17,17,0,up,15.011916800000108,None,None,,,,,,,0,17,17,17,,,,,363.6395760000005,,,,,,,,,,,,,363.62396530000024,363.6395760000005,363.6395760000005,363.6395760000005,378.6588744999999,,,,378.6707197000005,378.68086310000035,378.68086310000035,378.7243693999999,378.7247281,378.74081170000045,378.74081170000045,378.74081170000045,378.8240661,381.7385168999999,,,,up,15.011916800000108,None,380.83871550000003,381.75441860000046,381.75441860000046,381.75441860000046,None,,,,,,,,,,,,,,,,,P105,001,2025-02-13_11h48.02.203,posner_endo_new1,2024.2.4,59.975302170474464,2025-02-13 11h48.11.770137 +0000,
cube_l.png,0.1,0.31,invalid,18,18,0,up,13.056932999999844,None,space,0.3670000000001892,None,,,,,0,18,18,18,,,,,381.75441860000046,,,,,,,,,,,,,381.7387858000002,381.75441860000046,381.75441860000046,381.75441860000046,394.8255200000003,,,,394.83309890000055,394.8439699999999,394.8439699999999,394.8912700000001,394.89152230000036,394.9074228999998,394.9074228999998,394.9074228999998,394.9908408000001,395.2914055000001,,,,up,13.056932999999844,None,,,,,space,0.3670000000001892,None,,,,,,,,,,,,,,,P105,001,2025-02-13_11h48.02.203,posner_endo_new1,2024.2.4,59.975302170474464,2025-02-13 11h48.11.770137 +0000,
cube_l.png,0.1,10,catch,19,19,0,up,12.584192000000257,None,space,0.2761694999999236,None,,,,,0,19,19,19,,,,,395.3073307000004,,,,,,,,,,,,,395.29160180000054,395.3073307000004,395.3073307000004,395.3073307000004,407.8953753000005,,,,407.9029993000004,407.91399,407.91399,407.9612182999999,407.9614750999999,407.9778326000005,407.9778326000005,407.9778326000005,408.0608888000006,408.2615781000004,,,,up,12.584192000000257,None,,,,,space,0.2761694999999236,None,,,,,,,,,,,,,,,P105,001,2025-02-13_11h48.02.203,posner_endo_new1,2024.2.4,59.975302170474464,2025-02-13 11h48.11.770137 +0000,
cube_l.png,0.1,0.31,invalid,20,20,0,up,13.973803099999714,None,space,0.40753380000023753,None,,,,,0,20,20,20,,,,,408.2773793000006,,,,,,,,,,,,,408.2617712000001,408.2773793000006,408.2773793000006,408.2773793000006,422.2641911999999,,,,422.27590229999987,422.28607850000026,422.28607850000026,422.32978060000005,422.33013800000026,422.3463240000001,422.3463240000001,422.3463240000001,422.4294841000001,422.76378380000006,,,,up,13.973803099999714,None,,,,,space,0.40753380000023753,None,,,,,,,,,,,,,,,P105,001,2025-02-13_11h48.02.203,posner_endo_new1,2024.2.4,59.975302170474464,2025-02-13 11h48.11.770137 +0000,
cube_l.png,0.1,-0.31,valid,21,21,0,up,9.799841099999867,None,space,0.3820002000002205,None,,,,,0,21,21,21,,,,,422.7792294000001,,,,,,,,,,,,,422.7640685000006,422.7792294000001,422.7792294000001,422.7792294000001,432.58704110000053,,,,432.5989547999998,432.6090750000003,432.6090750000003,432.6525652999999,432.65291460000026,432.6690685000003,432.6690685000003,432.6690685000003,432.7522417,433.0532608000003,,,,up,9.799841099999867,None,,,,,space,0.3820002000002205,None,,,,,,,,,,,,,,,P105,001,2025-02-13_11h48.02.203,posner_endo_new1,2024.2.4,59.975302170474464,2025-02-13 11h48.11.770137 +0000,
cube_r.png,0.1,0.31,valid,22,22,0,up,10.84671680000065,None,space,0.3407411999996839,None,,,,,0,22,22,22,,,,,433.0687112000005,,,,,,,,,,,,,433.0535527000002,433.0687112000005,433.0687112000005,433.0687112000005,443.92538570000033,,,,443.9371746000006,443.94727909999983,443.94727909999983,443.99103280000054,443.99138740000035,444.00748029999977,444.00748029999977,444.00748029999977,444.09068819999993,444.3582088000003,,,,up,10.84671680000065,None,,,,,space,0.3407411999996839,None,,,,,,,,,,,,,,,P105,001,2025-02-13_11h48.02.203,posner_endo_new1,2024.2.4,59.975302170474464,2025-02-13 11h48.11.770137 +0000,
cube_r.png,0.1,-0.31,invalid,23,23,0,up,4.197263799999746,None,None,,,,,,,0,23,23,23,,,,,444.37373900000057,,,,,,,,,,,,,444.35849250000047,444.37373900000057,444.37373900000057,444.37373900000057,448.58728770000016,,,,448.5963382,448.6058638000004,448.6058638000004,448.65293699999984,448.65319249999993,448.6694053000001,448.6694053000001,448.6694053000001,448.7527662000002,451.66690560000006,,,,up,4.197263799999746,None,450.7670214,451.6830604000006,451.6830604000006,451.6830604000006,None,,,,,,,,,,,,,,,,,P105,001,2025-02-13_11h48.02.203,posner_endo_new1,2024.2.4,59.975302170474464,2025-02-13 11h48.11.770137 +0000,
cube_r.png,0.1,0.31,valid,24,24,0,up,9.248598099999981,None,space,0.5668841000006068,None,,,,,0,24,24,24,,,,,451.6830604000006,,,,,,,,,,,,,451.66708860000017,451.6830604000006,451.6830604000006,451.6830604000006,460.9428267000003,,,,460.9661679999999,460.9783557999999,460.9783557999999,461.0069067000004,461.0072553,461.0233883000001,461.0233883000001,461.0233883000001,461.10664820000056,461.6072763000002,,,,up,9.248598099999981,None,,,,,space,0.5668841000006068,None,,,,,,,,,,,,,,,P105,001,2025-02-13_11h48.02.203,posner_endo_new1,2024.2.4,59.975302170474464,2025-02-13 11h48.11.770137 +0000,
cube_r.png,0.1,-0.31,invalid,25,25,0,up,16.356320300000334,None,space,0.3572492000002967,None,,,,,0,25,25,25,,,,,461.6229308000002,,,,,,,,,,,,,461.60756500000025,461.6229308000002,461.6229308000002,461.6229308000002,477.9913710999999,,,,478.0104996,478.0218652000003,478.0218652000003,478.05616400000054,478.0565166000006,478.07264159999977,478.07264159999977,478.07264159999977,478.1559139000001,478.4401764000004,,,,up,16.356320300000334,None,,,,,space,0.3572492000002967,None,,,,,,,,,,,,,,,P105,001,2025-02-13_11h48.02.203,posner_endo_new1,2024.2.4,59.975302170474464,2025-02-13 11h48.11.770137 +0000,
cube_l.png,0.1,-0.31,valid,26,26,0,up,7.941063399999621,None,space,0.4115637999993851,None,,,,,0,26,26,26,,,,,478.4555674000003,,,,,,,,,,,,,478.4404647000001,478.4555674000003,478.4555674000003,478.4555674000003,486.3988121000002,,,,486.4104447999998,486.42050949999975,486.42050949999975,486.46429200000057,486.4646480000001,486.4807461999999,486.4807461999999,486.4807461999999,486.56398700000045,486.8983966000005,,,,up,7.941063399999621,None,,,,,space,0.4115637999993851,None,,,,,,,,,,,,,,,P105,001,2025-02-13_11h48.02.203,posner_endo_new1,2024.2.4,59.975302170474464,2025-02-13 11h48.11.770137 +0000,
cube_r.png,0.1,0.31,valid,27,27,0,up,4.865418800000043,None,space,1.795575999999528,None,,,,,0,27,27,27,,,,,486.9135959000005,,,,,,,,,,,,,486.8986807000001,486.9135959000005,486.9135959000005,486.9135959000005,491.79314990000057,,,,491.8047610000003,491.81494509999993,491.81494509999993,491.85875920000035,491.8590240000003,491.87531300000046,491.87531300000046,491.87531300000046,491.9586239999999,493.6742881,,,,up,4.865418800000043,None,,,,,space,1.795575999999528,None,,,,,,,,,,,,,,,P105,001,2025-02-13_11h48.02.203,posner_endo_new1,2024.2.4,59.975302170474464,2025-02-13 11h48.11.770137 +0000,
cube_r.png,0.1,10,catch,28,28,0,up,6.8006899000001795,None,None,,,,,,,0,28,28,28,,,,,493.69034340000053,,,,,,,,,,,,,493.6744819000005,493.69034340000053,493.69034340000053,493.69034340000053,500.50062640000033,,,,500.5081280000004,500.5194115000004,500.5194115000004,500.5665785000001,500.56682999999975,500.58303350000006,500.58303350000006,500.58303350000006,500.6663196999998,503.5804910000006,,,,up,6.8006899000001795,None,502.6809277000002,503.5966503999998,503.5966503999998,503.5966503999998,None,,,,,,,,,,,,,,,,,P105,001,2025-02-13_11h48.02.203,posner_endo_new1,2024.2.4,59.975302170474464,2025-02-13 11h48.11.770137 +0000,
cube_r.png,0.1,0.31,valid,29,29,0,up,4.943214900000385,None,space,0.3375876000000062,None,,,,,0,29,29,29,,,,,503.5966503999998,,,,,,,,,,,,,503.58067310000024,503.5966503999998,503.5966503999998,503.5966503999998,508.5425537000001,,,,508.5499957000002,508.5611501000003,508.5611501000003,508.6083785000001,508.60863080000036,508.6248556999999,508.6248556999999,508.6248556999999,508.69108719999986,508.97528630000033,,,,up,4.943214900000385,None,,,,,space,0.3375876000000062,None,,,,,,,,,,,,,,,P105,001,2025-02-13_11h48.02.203,posner_endo_new1,2024.2.4,59.975302170474464,2025-02-13 11h48.11.770137 +0000,
cube_r.png,0.1,0.31,valid,30,30,0,up,4.308023500000672,None,space,0.369019699999626,None,,,,,0,30,30,30,,,,,508.99107619999995,,,,,,,,,,,,,508.97548220000044,508.99107619999995,508.99107619999995,508.99107619999995,513.3042974,,,,513.3116674000003,513.3229423000002,513.3229423000002,513.3701871000003,513.3704413000005,513.3862635000005,513.3862635000005,513.3862635000005,513.4697427000001,513.7705689000004,,,,up,4.308023500000672,None,,,,,space,0.369019699999626,None,,,,,,,,,,,,,,,P105,001,2025-02-13_11h48.02.203,posner_endo_new1,2024.2.4,59.975302170474464,2025-02-13 11h48.11.770137 +0000,
cube_l.png,0.1,-0.31,valid,31,31,0,up,2.769636399999399,None,space,0.39579090000006545,None,,,,,0,31,31,31,,,,,513.7862561000002,,,,,,,,,,,,,513.7707612000004,513.7862561000002,513.7862561000002,513.7862561000002,516.5675155999998,,,,516.5749516000005,516.5864090000005,516.5864090000005,516.6336769999998,516.6339260000004,516.6499903000004,516.6499903000004,516.6499903000004,516.7331877000006,517.0504618000004,,,,up,2.769636399999399,None,,,,,space,0.39579090000006545,None,,,,,,,,,,,,,,,P105,001,2025-02-13_11h48.02.203,posner_endo_new1,2024.2.4,59.975302170474464,2025-02-13 11h48.11.770137 +0000,
cube_r.png,0.1,0.31,valid,32,32,0,up,2.841559600000437,None,space,0.3716330999995989,None,,,,,0,32,32,32,,,,,517.0662057999998,,,,,,,,,,,,,517.0506538,517.0662057999998,517.0662057999998,517.0662057999998,519.9140599000002,,,,519.9215329999997,519.9330373000003,519.9330373000003,519.9800399000005,519.9802915,519.9965293000005,519.9965293000005,519.9965293000005,520.0631469,520.3802167000003,,,,up,2.841559600000437,None,,,,,space,0.3716330999995989,None,,,,,,,,,,,,,,,P105,001,2025-02-13_11h48.02.203,posner_endo_new1,2024.2.4,59.975302170474464,2025-02-13 11h48.11.770137 +0000,
cube_r.png,0.1,-0.31,invalid,33,33,0,up,3.151918399999886,None,space,0.48396320000028936,None,,,,,0,33,33,33,,,,,520.3960569999999,,,,,,,,,,,,,520.3804103000002,520.3960569999999,520.3960569999999,520.3960569999999,523.5606097999998,,,,523.5680523000001,523.5792216999998,523.5792216999998,523.6263417,523.6265983000003,523.6427125,523.6427125,523.6427125,523.7260771000001,524.1430873999998,,,,up,3.151918399999886,None,,,,,space,0.48396320000028936,None,,,,,,,,,,,,,,,P105,001,2025-02-13_11h48.02.203,posner_endo_new1,2024.2.4,59.975302170474464,2025-02-13 11h48.11.770137 +0000,
cube_r.png,0.1,10,catch,34,34,0,up,4.61271140000008,None,None,,,,,,,0,34,34,34,,,,,524.1591624000002,,,,,,,,,,,,,524.1432804000005,524.1591624000002,524.1591624000002,524.1591624000002,528.7890189999998,,,,528.8062711000002,528.8171689999999,528.8171689999999,528.8543508000002,528.8546500000002,528.8707970000005,528.8707970000005,528.8707970000005,528.9540923000004,531.8684703999998,,,,up,4.61271140000008,None,530.9686485000002,531.8844433000004,531.8844433000004,531.8844433000004,None,,,,,,,,,,,,,,,,,P105,001,2025-02-13_11h48.02.203,posner_endo_new1,2024.2.4,59.975302170474464,2025-02-13 11h48.11.770137 +0000,
cube_r.png,0.1,0.31,valid,35,35,0,up,1.7270345999995698,None,space,0.3367606000001615,None,,,,,0,35,35,35,,,,,531.8844433000004,,,,,,,,,,,,,531.8686846999999,531.8844433000004,531.8844433000004,531.8844433000004,533.6170197000001,,,,533.6259237000004,533.6360113999999,533.6360113999999,533.6828788000003,533.6831659999998,533.6993014,533.6993014,533.6993014,533.7824694000001,534.0498582999999,,,,up,1.7270345999995698,None,,,,,space,0.3367606000001615,None,,,,,,,,,,,,,,,P105,001,2025-02-13_11h48.02.203,posner_endo_new1,2024.2.4,59.975302170474464,2025-02-13 11h48.11.770137 +0000,
cube_r.png,0.1,-0.31,invalid,36,36,0,up,5.489750800000365,None,space,0.3587050000005547,None,,,,,0,36,36,36,,,,,534.0655286000001,,,,,,,,,,,,,534.0500980000006,534.0655286000001,534.0655286000001,534.0655286000001,539.5610156000002,,,,539.5699335999998,539.5800015000004,539.5800015000004,539.6267825000004,539.6270712000005,539.6431939000004,539.6431939000004,539.6431939000004,539.7264412000004,540.0105672,,,,up,5.489750800000365,None,,,,,space,0.3587050000005547,None,,,,,,,,,,,,,,,P105,001,2025-02-13_11h48.02.203,posner_endo_new1,2024.2.4,59.975302170474464,2025-02-13 11h48.11.770137 +0000,
cube_l.png,0.1,0.31,invalid,37,37,0,up,6.225197199999457,None,space,0.37650550000034855,None,,,,,0,37,37,37,,,,,540.0260878999998,,,,,,,,,,,,,540.0107960000005,540.0260878999998,540.0260878999998,540.0260878999998,546.2541702999997,,,,546.2630568000004,546.2731417000005,546.2731417000005,546.3199181999998,546.3202059000005,546.3363918000005,546.3363918000005,546.3363918000005,546.4195624000004,546.7200662000005,,,,up,6.225197199999457,None,,,,,space,0.37650550000034855,None,,,,,,,,,,,,,,,P105,001,2025-02-13_11h48.02.203,posner_endo_new1,2024.2.4,59.975302170474464,2025-02-13 11h48.11.770137 +0000,
cube_l.png,0.1,0.31,invalid,38,38,0,up,5.099922299999889,None,space,0.2862697999999,None,,,,,0,38,38,38,,,,,546.7359340000003,,,,,,,,,,,,,546.7203051000006,546.7359340000003,546.7359340000003,546.7359340000003,551.8482009999998,,,,551.8571776999997,551.8671783,551.8671783,551.9141365000005,551.9144242000002,551.9305973999999,551.9305973999999,551.9305973999999,551.9971857,552.2312048000003,,,,up,5.099922299999889,None,,,,,space,0.2862697999999,None,,,,,,,,,,,,,,,P105,001,2025-02-13_11h48.02.203,posner_endo_new1,2024.2.4,59.975302170474464,2025-02-13 11h48.11.770137 +0000,
cube_r.png,0.1,0.31,valid,39,39,0,up,11.173167199999625,None,space,0.4208029000001261,None,,,,,0,39,39,39,,,,,552.2469479000001,,,,,,,,,,,,,552.2314308000005,552.2469479000001,552.2469479000001,552.2469479000001,563.4378332000006,,,,563.4612739000004,563.4713165000003,563.4713165000003,563.5022520000002,563.5025304000001,563.5187930000002,563.5187930000002,563.5187930000002,563.6020777000003,563.9525146000005,,,,up,11.173167199999625,None,,,,,space,0.4208029000001261,None,,,,,,,,,,,,,,,P105,001,2025-02-13_11h48.02.203,posner_endo_new1,2024.2.4,59.975302170474464,2025-02-13 11h48.11.770137 +0000,
cube_l.png,0.1,0.31,invalid,40,40,0,up,7.4831419000001915,None,space,0.3971155999997791,None,,,,,0,40,40,40,,,,,563.9683855000003,,,,,,,,,,,,,563.9527345000006,563.9683855000003,563.9683855000003,563.9683855000003,571.4616968999999,,,,571.4702336,571.4802105999997,571.4802105999997,571.5274178999998,571.5277016,571.5438818000002,571.5438818000002,571.5438818000002,571.6268215999999,571.9446335000002,,,,up,7.4831419000001915,None,,,,,space,0.3971155999997791,None,,,,,,,,,,,,,,,P105,001,2025-02-13_11h48.02.203,posner_endo_new1,2024.2.4,59.975302170474464,2025-02-13 11h48.11.770137 +0000,
cube_l.png,0.1,10,catch,41,41,0,up,4.995416199999454,None,None,,,,,,,0,41,41,41,,,,,571.9601059000006,,,,,,,,,,,,,571.9448536999998,571.9601059000006,571.9601059000006,571.9601059000006,576.9725122,,,,576.9810253000005,576.9913539999998,576.9913539999998,577.0383682000001,577.0386465000001,577.0548877000001,577.0548877000001,577.0548877000001,577.1216339000002,580.0524384999999,,,,up,4.995416199999454,None,579.1361539,580.0684744999999,580.0684744999999,580.0684744999999,None,,,,,,,,,,,,,,,,,P105,001,2025-02-13_11h48.02.203,posner_endo_new1,2024.2.4,59.975302170474464,2025-02-13 11h48.11.770137 +0000,
cube_l.png,0.1,-0.31,valid,42,42,0,up,3.8465237999998863,None,space,0.37919010000041453,None,,,,,0,42,42,42,,,,,580.0684744999999,,,,,,,,,,,,,580.0526453000002,580.0684744999999,580.0684744999999,580.0684744999999,583.9316460999999,,,,583.9386506999999,583.9502375000002,583.9502375000002,583.9979583000004,583.9981865,584.0141816000005,584.0141816000005,584.0141816000005,584.0983228000005,584.3976619000005,,,,up,3.8465237999998863,None,,,,,space,0.37919010000041453,None,,,,,,,,,,,,,,,P105,001,2025-02-13_11h48.02.203,posner_endo_new1,2024.2.4,59.975302170474464,2025-02-13 11h48.11.770137 +0000,
cube_l.png,0.1,10,catch,43,43,0,up,15.926175200000216,None,None,,,,,,,0,43,43,43,,,,,584.4138768000003,,,,,,,,,,,,,584.3978299999999,584.4138768000003,584.4138768000003,584.4138768000003,600.3488585000005,,,,600.3601914000001,600.3701338000001,600.3701338000001,600.4145737999997,600.4148857999999,600.4309707000002,600.4309707000002,600.4309707000002,600.5142287999997,603.4285971999998,,,,up,15.926175200000216,None,602.5289205999998,603.4445894,603.4445894,603.4445894,None,,,,,,,,,,,,,,,,,P105,001,2025-02-13_11h48.02.203,posner_endo_new1,2024.2.4,59.975302170474464,2025-02-13 11h48.11.770137 +0000,
cube_l.png,0.1,0.31,invalid,44,44,0,up,5.2483862999997655,None,space,0.38986990000012156,None,,,,,0,44,44,44,,,,,603.4445894,,,,,,,,,,,,,603.4288406000005,603.4445894,603.4445894,603.4445894,608.7069695999999,,,,608.7184463000003,608.7283627000006,608.7283627000006,608.7727341999998,608.7730464000006,608.7891337000001,608.7891337000001,608.7891337000001,608.8723749999999,609.1897186000006,,,,up,5.2483862999997655,None,,,,,space,0.38986990000012156,None,,,,,,,,,,,,,,,P105,001,2025-02-13_11h48.02.203,posner_endo_new1,2024.2.4,59.975302170474464,2025-02-13 11h48.11.770137 +0000,
cube_l.png,0.1,0.31,invalid,45,45,0,up,8.125799400000687,None,space,0.3488377000003311,None,,,,,0,45,45,45,,,,,609.2054632999998,,,,,,,,,,,,,609.1899681000004,609.2054632999998,609.2054632999998,609.2054632999998,617.3481542,,,,617.3588791000002,617.3685123000005,617.3685123000005,617.4137982000002,617.4141104999999,617.4303164000003,617.4303164000003,617.4303164000003,617.5135870000004,617.7811300000003,,,,up,8.125799400000687,None,,,,,space,0.3488377000003311,None,,,,,,,,,,,,,,,P105,001,2025-02-13_11h48.02.203,posner_endo_new1,2024.2.4,59.975302170474464,2025-02-13 11h48.11.770137 +0000,
cube_r.png,0.1,0.31,valid,46,46,0,up,12.99869149999995,None,space,0.40380280000044877,None,,,,,0,46,46,46,,,,,617.7966886000004,,,,,,,,,,,,,617.7813741999998,617.7966886000004,617.7966886000004,617.7966886000004,630.8011677000004,,,,630.8124493000005,630.8247141000002,630.8247141000002,630.8671247000002,630.8678294000001,630.8834506000003,630.8834506000003,630.8834506000003,630.9667596999998,631.3020900000001,,,,up,12.99869149999995,None,,,,,space,0.40380280000044877,None,,,,,,,,,,,,,,,P105,001,2025-02-13_11h48.02.203,posner_endo_new1,2024.2.4,59.975302170474464,2025-02-13 11h48.11.770137 +0000,
cube_l.png,0.1,-0.31,valid,47,47,0,up,7.087307900000269,None,space,0.41875209999943763,None,,,,,0,47,47,47,,,,,631.3165289999997,,,,,,,,,,,,,631.3026694999999,631.3165289999997,631.3165289999997,631.3165289999997,638.4116406000003,,,,638.4348454000001,638.4453356000004,638.4453356000004,638.4753892999997,638.4758405000002,638.4918339000005,638.4918339000005,638.4918339000005,638.5751250000003,638.9262116,,,,up,7.087307900000269,None,,,,,space,0.41875209999943763,None,,,,,,,,,,,,,,,P105,001,2025-02-13_11h48.02.203,posner_endo_new1,2024.2.4,59.975302170474464,2025-02-13 11h48.11.770137 +0000,
cube_r.png,0.1,-0.31,invalid,48,48,0,up,5.926577000000179,None,space,0.36954340000011143,None,,,,,0,48,48,48,,,,,638.9413733000001,,,,,,,,,,,,,638.9265802,638.9413733000001,638.9413733000001,638.9413733000001,644.8699047,,,,644.8799801000005,644.8900235000001,644.8900235000001,644.9356975000001,644.9360114000001,644.9522472999997,644.9522472999997,644.9522472999997,645.0355275000002,645.3361565000005,,,,up,5.926577000000179,None,,,,,space,0.36954340000011143,None,,,,,,,,,,,,,,,P105,001,2025-02-13_11h48.02.203,posner_endo_new1,2024.2.4,59.975302170474464,2025-02-13 11h48.11.770137 +0000,
cube_r.png,0.1,10,catch,49,49,0,up,5.684138700000403,None,None,,,,,,,0,49,49,49,,,,,645.3517437,,,,,,,,,,,,,645.3364007,645.3517437,645.3517437,645.3517437,651.0470389000002,,,,651.0570476000003,651.0670793999998,651.0670793999998,651.1127269999997,651.1130358,651.1292524,651.1292524,651.1292524,651.2125040999999,654.1267030999998,,,,up,5.684138700000403,None,653.2269924000002,654.1427893,654.1427893,654.1427893,None,,,,,,,,,,,,,,,,,P105,001,2025-02-13_11h48.02.203,posner_endo_new1,2024.2.4,59.975302170474464,2025-02-13 11h48.11.770137 +0000,
cube_l.png,0.1,-0.31,valid,50,50,0,up,8.308511700000054,None,space,0.3811335999998846,None,,,,,0,50,50,50,,,,,654.1427893,,,,,,,,,,,,,654.1269357000001,654.1427893,654.1427893,654.1427893,662.4523153999999,,,,662.4627699000002,662.4727781000001,662.4727781000001,662.517675,662.5179825000005,662.5342098000001,662.5342098000001,662.5342098000001,662.6174994000003,662.9182446000004,,,,up,8.308511700000054,None,,,,,space,0.3811335999998846,None,,,,,,,,,,,,,,,P105,001,2025-02-13_11h48.02.203,posner_endo_new1,2024.2.4,59.975302170474464,2025-02-13 11h48.11.770137 +0000,
cube_l.png,0.1,-0.31,valid,51,51,0,up,10.949403200000233,None,space,0.278491899999608,None,,,,,0,51,51,51,,,,,662.9338644,,,,,,,,,,,,,662.9184925999998,662.9338644,662.9338644,662.9338644,673.8902979000004,,,,673.9001636000003,673.9102258000003,673.9102258000003,673.9560302999998,673.9563433000003,673.9726021000006,673.9726021000006,673.9726021000006,674.0558068999999,674.2567405999998,,,,up,10.949403200000233,None,,,,,space,0.278491899999608,None,,,,,,,,,,,,,,,P105,001,2025-02-13_11h48.02.203,posner_endo_new1,2024.2.4,59.975302170474464,2025-02-13 11h48.11.770137 +0000,
cube_r.png,0.1,-0.31,invalid,52,52,0,up,17.56386730000031,None,space,0.5379196000003503,None,,,,,0,52,52,52,,,,,674.2722911000001,,,,,,,,,,,,,674.2569887,674.2722911000001,674.2722911000001,674.2722911000001,691.8388294000006,,,,691.8489976000001,691.8589707000001,691.8589707000001,691.9043814000006,691.9046872999998,691.9208576999999,691.9208576999999,691.9208576999999,692.0040144000004,692.4713139000005,,,,up,17.56386730000031,None,,,,,space,0.5379196000003503,None,,,,,,,,,,,,,,,P105,001,2025-02-13_11h48.02.203,posner_endo_new1,2024.2.4,59.975302170474464,2025-02-13 11h48.11.770137 +0000,
cube_l.png,0.1,-0.31,valid,53,53,0,up,8.38856830000077,None,space,0.3977654000000257,None,,,,,0,53,53,53,,,,,692.4869229000005,,,,,,,,,,,,,692.4715566000004,692.4869229000005,692.4869229000005,692.4869229000005,700.8795037,,,,700.8894344,700.8994689000001,700.8994689000001,700.9452169000006,700.9455298000003,700.9616559000006,700.9616559000006,700.9616559000006,701.0448818000004,701.3623990000006,,,,up,8.38856830000077,None,,,,,space,0.3977654000000257,None,,,,,,,,,,,,,,,P105,001,2025-02-13_11h48.02.203,posner_endo_new1,2024.2.4,59.975302170474464,2025-02-13 11h48.11.770137 +0000,
cube_r.png,0.1,10,catch,54,54,0,up,14.52181019999989,None,None,,,,,,,0,54,54,54,,,,,701.3779159000005,,,,,,,,,,,,,701.3626433999998,701.3779159000005,701.3779159000005,701.3779159000005,715.9140047999999,,,,715.9233156999999,715.9329047000001,715.9329047000001,715.9796118000004,715.9798367000003,715.9964120000004,715.9964120000004,715.9964120000004,716.0792584000001,718.9936361,,,,up,14.52181019999989,None,718.0940693000002,719.0100557000005,719.0100557000005,719.0100557000005,None,,,,,,,,,,,,,,,,,P105,001,2025-02-13_11h48.02.203,posner_endo_new1,2024.2.4,59.975302170474464,2025-02-13 11h48.11.770137 +0000,
cube_l.png,0.1,0.31,invalid,55,55,0,up,2.7780718000003617,None,space,0.4233572000002823,None,,,,,0,55,55,55,,,,,719.0100557000005,,,,,,,,,,,,,718.9938004000005,719.0100557000005,719.0100557000005,719.0100557000005,721.7933079000004,,,,721.8115480000006,721.8221395999999,721.8221395999999,721.8569068000006,721.8573495,721.8733468,721.8733468,721.8733468,721.9566006000005,722.3077436000003,,,,up,2.7780718000003617,None,,,,,space,0.4233572000002823,None,,,,,,,,,,,,,,,P105,001,2025-02-13_11h48.02.203,posner_endo_new1,2024.2.4,59.975302170474464,2025-02-13 11h48.11.770137 +0000,
cube_l.png,0.1,-0.31,valid,56,56,0,up,7.785135500000251,None,space,0.4256985000001805,None,,,,,0,56,56,56,,,,,722.3228741000003,,,,,,,,,,,,,722.3081140000004,722.3228741000003,722.3228741000003,722.3228741000003,730.1179505,,,,730.1413751,730.1517676000003,730.1517676000003,730.1815661999999,730.1819639000005,730.1980631000006,730.1980631000006,730.1980631000006,730.2813151,730.6323158000005,,,,up,7.785135500000251,None,,,,,space,0.4256985000001805,None,,,,,,,,,,,,,,,P105,001,2025-02-13_11h48.02.203,posner_endo_new1,2024.2.4,59.975302170474464,2025-02-13 11h48.11.770137 +0000,
cube_r.png,0.1,0.31,valid,57,57,0,up,2.0204727000000275,None,None,,,,,,,0,57,57,57,,,,,730.6476131999998,,,,,,,,,,,,,730.6326312000001,730.6476131999998,730.6476131999998,730.6476131999998,732.6801712000006,,,,732.6932838000002,732.7033514000004,732.7033514000004,732.7456204,732.7460195000003,732.7620851000001,732.7620851000001,732.7620851000001,732.8453374000001,735.7598706999997,,,,up,2.0204727000000275,None,734.8599402,735.7757178000002,735.7757178000002,735.7757178000002,None,,,,,,,,,,,,,,,,,P105,001,2025-02-13_11h48.02.203,posner_endo_new1,2024.2.4,59.975302170474464,2025-02-13 11h48.11.770137 +0000,
cube_r.png,0.1,-0.31,invalid,58,58,0,up,2.2287562999999864,None,space,0.5441697999995085,None,,,,,0,58,58,58,,,,,735.7757178000002,,,,,,,,,,,,,735.7601689000003,735.7757178000002,735.7757178000002,735.7757178000002,738.0082719000002,,,,738.0169347000001,738.0268818000004,738.0268818000004,738.0738688000001,738.0741476000003,738.0903479999997,738.0903479999997,738.0903479999997,738.17353,738.6409328,,,,up,2.2287562999999864,None,,,,,space,0.5441697999995085,None,,,,,,,,,,,,,,,P105,001,2025-02-13_11h48.02.203,posner_endo_new1,2024.2.4,59.975302170474464,2025-02-13 11h48.11.770137 +0000,
cube_l.png,0.1,0.31,invalid,59,59,0,up,8.683802499999729,None,space,0.36672249999992346,None,,,,,0,59,59,59,,,,,738.6564042,,,,,,,,,,,,,738.6411487000005,738.6564042,738.6564042,738.6564042,747.3491023000006,,,,747.3607468999999,747.3710552000002,747.3710552000002,747.4144028999999,747.4146457000006,747.4308648000006,747.4308648000006,747.4308648000006,747.5140585999998,747.8143759000004,,,,up,8.683802499999729,None,,,,,space,0.36672249999992346,None,,,,,,,,,,,,,,,P105,001,2025-02-13_11h48.02.203,posner_endo_new1,2024.2.4,59.975302170474464,2025-02-13 11h48.11.770137 +0000,
,,,,,,,,,,,,,,,,,,,,,,,,,,,,,,,,,,,,,,,,,,,,,,,,,,,,,,,,,,,,,,,,,,,,,747.8144952000002,747.8299907,747.8299907,807.8356722999997,815.8306479000003,space,67.99829529999988,None,,,,,,,P105,001,2025-02-13_11h48.02.203,posner_endo_new1,2024.2.4,59.975302170474464,2025-02-13 11h48.11.770137 +0000,
,,,,,,,,,,,,,,,,,,,,,,,,,,,,,,,,,,815.8308266000004,815.8445005000003,818.8699605000002,818.8261994000004,,,,,,,,,,,,,,,,,,,,,,,,,,,,,,,,,,,,,,,,,,,,,,P105,001,2025-02-13_11h48.02.203,posner_endo_new1,2024.2.4,59.975302170474464,2025-02-13 11h48.11.770137 +0000,
cube_l.png,0.1,10,catch,0,0,0,down,11.654201199999989,None,None,,,,,,,,,,,0,0,0,0,818.8699605000002,,,,,,,,,,,,,818.8609121999998,818.8699605000002,818.8699605000002,818.8699605000002,830.5303291,,,,830.5419364999998,830.5521417,830.5521417,830.5960549000001,830.5964042000005,830.6126107,830.6126107,830.6126107,830.6957296,833.6101849000006,,,,,,,832.7103953000005,833.6261356000005,833.6261356000005,833.6261356000005,,,,,,,,,,,,down,11.654201199999989,None,None,,,P105,001,2025-02-13_11h48.02.203,posner_endo_new1,2024.2.4,59.975302170474464,2025-02-13 11h48.11.770137 +0000,
cube_l.png,0.1,10,catch,1,1,0,down,1.8580276000002414,None,None,,,,,,,,,,,0,1,1,1,833.6261356000005,,,,,,,,,,,,,833.6104407000003,833.6261356000005,833.6261356000005,833.6261356000005,835.4922112000004,,,,835.5033629999998,835.5135078000003,835.5135078000003,835.5576766000004,835.5580108000004,835.5742436,835.5742436,835.5742436,835.6574009000005,838.5716677,,,,,,,837.6718564000003,838.5876103,838.5876103,838.5876103,,,,,,,,,,,,down,1.8580276000002414,None,None,,,P105,001,2025-02-13_11h48.02.203,posner_endo_new1,2024.2.4,59.975302170474464,2025-02-13 11h48.11.770137 +0000,
cube_l.png,0.1,0.31,invalid,2,2,0,down,1.2815663999999742,None,space,0.4290455000000293,None,,,,,,,,,0,2,2,2,838.5876103,,,,,,,,,,,,,838.5719356,838.5876103,838.5876103,838.5876103,839.8710464000005,,,,839.8823103000004,839.8924974000001,839.8924974000001,839.9364212,839.9367661000006,839.9528362000001,839.9528362000001,839.9528362000001,840.0361232000005,840.3871498999997,,,,,,,,,,,,,,,,,,,,,,down,1.2815663999999742,None,space,0.4290455000000293,None,P105,001,2025-02-13_11h48.02.203,posner_endo_new1,2024.2.4,59.975302170474464,2025-02-13 11h48.11.770137 +0000,
cube_l.png,0.1,0.31,invalid,3,3,0,down,8.457306399999652,None,space,0.3648564000004626,None,,,,,,,,,0,3,3,3,840.4024526000003,,,,,,,,,,,,,840.3874388000004,840.4024526000003,840.4024526000003,840.4024526000003,848.8618299999998,,,,848.8729530999999,848.8831356000001,848.8831356000001,848.9273367000005,848.9276824999997,848.9436863999999,848.9436863999999,848.9436863999999,849.0271358999998,849.3114433999999,,,,,,,,,,,,,,,,,,,,,,down,8.457306399999652,None,space,0.3648564000004626,None,P105,001,2025-02-13_11h48.02.203,posner_endo_new1,2024.2.4,59.975302170474464,2025-02-13 11h48.11.770137 +0000,
cube_l.png,0.1,-0.31,valid,4,4,0,down,1.8453691000004255,None,space,0.9164879999998448,None,,,,,,,,,0,4,4,4,849.3267692999998,,,,,,,,,,,,,849.3117226000004,849.3267692999998,849.3267692999998,849.3267692999998,851.1761637,,,,851.1872094999999,851.1973601999998,851.1973601999998,851.2416836000002,851.2420195000004,851.2580158999999,851.2580158999999,851.2580158999999,851.3414024000003,852.1914625999998,,,,,,,,,,,,,,,,,,,,,,down,1.8453691000004255,None,space,0.9164879999998448,None,P105,001,2025-02-13_11h48.02.203,posner_endo_new1,2024.2.4,59.975302170474464,2025-02-13 11h48.11.770137 +0000,
cube_r.png,0.1,-0.31,invalid,5,5,0,down,10.068422999999711,None,space,0.35592350000024453,None,,,,,,,,,0,5,5,5,852.2071612,,,,,,,,,,,,,852.1917386000005,852.2071612,852.2071612,852.2071612,862.2814519000003,,,,862.2926425000005,862.3027953999999,862.3027953999999,862.3469826999999,862.3473155000001,862.3634732,862.3634732,862.3634732,862.4467136000003,862.7308886000001,,,,,,,,,,,,,,,,,,,,,,down,10.068422999999711,None,space,0.35592350000024453,None,P105,001,2025-02-13_11h48.02.203,posner_endo_new1,2024.2.4,59.975302170474464,2025-02-13 11h48.11.770137 +0000,
cube_r.png,0.1,0.31,valid,6,6,0,down,10.657137700000021,None,space,0.328161800000089,None,,,,,,,,,0,6,6,6,862.7463531000003,,,,,,,,,,,,,862.7311632000001,862.7463531000003,862.7463531000003,862.7463531000003,873.4200114000005,,,,873.4312405000001,873.4410245999998,873.4410245999998,873.4855699,873.4859053,873.5020850000001,873.5020850000001,873.5020850000001,873.5852627000004,873.8363993000003,,,,,,,,,,,,,,,,,,,,,,down,10.657137700000021,None,space,0.328161800000089,None,P105,001,2025-02-13_11h48.02.203,posner_endo_new1,2024.2.4,59.975302170474464,2025-02-13 11h48.11.770137 +0000,
cube_r.png,0.1,-0.31,invalid,7,7,0,down,11.769071300000178,None,space,0.3608003999997891,None,,,,,,,,,0,7,7,7,873.8516244000002,,,,,,,,,,,,,873.8366747999999,873.8516244000002,873.8516244000002,873.8516244000002,885.6240075000005,,,,885.6342021999999,885.6438349,885.6438349,885.6898599000006,885.6900961000001,885.7061523000002,885.7061523000002,885.7061523000002,885.7895503999998,886.0734448000003,,,,,,,,,,,,,,,,,,,,,,down,11.769071300000178,None,space,0.3608003999997891,None,P105,001,2025-02-13_11h48.02.203,posner_endo_new1,2024.2.4,59.975302170474464,2025-02-13 11h48.11.770137 +0000,
cube_l.png,0.1,-0.31,valid,8,8,0,down,8.659107700000277,None,space,0.36215960000026826,None,,,,,,,,,0,8,8,8,886.0892033,,,,,,,,,,,,,886.0736256,886.0892033,886.0892033,886.0892033,894.7648368999999,,,,894.7766283000001,894.7865842000001,894.7865842000001,894.8303580000002,894.8307067000005,894.8468877000005,894.8468877000005,894.8468877000005,894.9300611999997,895.2144220999999,,,,,,,,,,,,,,,,,,,,,,down,8.659107700000277,None,space,0.36215960000026826,None,P105,001,2025-02-13_11h48.02.203,posner_endo_new1,2024.2.4,59.975302170474464,2025-02-13 11h48.11.770137 +0000,
cube_r.png,0.1,-0.31,invalid,9,9,0,down,10.014157999999952,None,space,0.3544974000005823,None,,,,,,,,,0,9,9,9,895.2297841999998,,,,,,,,,,,,,895.2147214000006,895.2297841999998,895.2297841999998,895.2297841999998,905.2540687000001,,,,905.2658542999998,905.2760439000003,905.2760439000003,905.3196767999998,905.3200318999998,905.3361927000005,905.3361927000005,905.3361927000005,905.4194182000001,905.7036514000001,,,,,,,,,,,,,,,,,,,,,,down,10.014157999999952,None,space,0.3544974000005823,None,P105,001,2025-02-13_11h48.02.203,posner_endo_new1,2024.2.4,59.975302170474464,2025-02-13 11h48.11.770137 +0000,
cube_l.png,0.1,0.31,invalid,10,10,0,down,6.262200400000438,None,space,0.34944889999951556,None,,,,,,,,,0,10,10,10,905.7190565000001,,,,,,,,,,,,,905.7039411000005,905.7190565000001,905.7190565000001,905.7190565000001,911.9971856000002,,,,912.0058282999998,912.0156625,912.0156625,912.0628689000005,912.0630946000001,912.0792631000004,912.0792631000004,912.0792631000004,912.1626869000002,912.4299768999999,,,,,,,,,,,,,,,,,,,,,,down,6.262200400000438,None,space,0.34944889999951556,None,P105,001,2025-02-13_11h48.02.203,posner_endo_new1,2024.2.4,59.975302170474464,2025-02-13 11h48.11.770137 +0000,
cube_r.png,0.1,-0.31,invalid,11,11,0,down,15.486910399999942,None,space,0.6563812999993388,None,,,,,,,,,0,11,11,11,912.4456582000003,,,,,,,,,,,,,912.4301501999998,912.4456582000003,912.4456582000003,912.4456582000003,927.9471825999999,,,,927.9533441000003,927.9649700999998,927.9649700999998,928.0132183000005,928.0134507000002,928.0295359000002,928.0295359000002,928.0295359000002,928.0959248999998,928.6964912000003,,,,,,,,,,,,,,,,,,,,,,down,15.486910399999942,None,space,0.6563812999993388,None,P105,001,2025-02-13_11h48.02.203,posner_endo_new1,2024.2.4,59.975302170474464,2025-02-13 11h48.11.770137 +0000,
cube_r.png,0.1,0.31,valid,12,12,0,down,5.732150300000285,None,space,0.38219149999986257,None,,,,,,,,,0,12,12,12,928.7120005000006,,,,,,,,,,,,,928.6966646999999,928.7120005000006,928.7120005000006,928.7120005000006,934.4570463999999,,,,934.4632320000001,934.4748129,934.4748129,934.5232501999999,934.5234750999998,934.5396480999998,934.5396480999998,934.5396480999998,934.6058621000002,934.9236243000005,,,,,,,,,,,,,,,,,,,,,,down,5.732150300000285,None,space,0.38219149999986257,None,P105,001,2025-02-13_11h48.02.203,posner_endo_new1,2024.2.4,59.975302170474464,2025-02-13 11h48.11.770137 +0000,
cube_l.png,0.1,10,catch,13,13,0,down,3.4890944999997373,None,None,,,,,,,,,,,0,13,13,13,934.939241,,,,,,,,,,,,,934.9237982000004,934.939241,934.939241,934.939241,938.4366669000001,,,,938.4428236000003,938.4544992000001,938.4544992000001,938.5023687000003,938.5025943999999,938.5191356000005,938.5191356000005,938.5191356000005,938.6020582000001,941.5175354000003,,,,,,,940.6170490000004,941.5327441,941.5327441,941.5327441,,,,,,,,,,,,down,3.4890944999997373,None,None,,,P105,001,2025-02-13_11h48.02.203,posner_endo_new1,2024.2.4,59.975302170474464,2025-02-13 11h48.11.770137 +0000,
cube_r.png,0.1,-0.31,invalid,14,14,0,down,2.799537099999725,None,space,0.2700286999997843,None,,,,,,,,,0,14,14,14,941.5327441,,,,,,,,,,,,,941.5181030000003,941.5327441,941.5327441,941.5327441,944.3490650000003,,,,944.3718711000001,944.3818355000003,944.3818355000003,944.4127088000005,944.4130565000005,944.4292172000005,944.4292172000005,944.4292172000005,944.5127655000006,944.7138386000006,,,,,,,,,,,,,,,,,,,,,,down,2.799537099999725,None,space,0.2700286999997843,None,P105,001,2025-02-13_11h48.02.203,posner_endo_new1,2024.2.4,59.975302170474464,2025-02-13 11h48.11.770137 +0000,
cube_l.png,0.1,-0.31,valid,15,15,0,down,9.09225830000014,None,space,0.4963025999995807,None,,,,,,,,,0,15,15,15,944.7291949,,,,,,,,,,,,,944.7141325000002,944.7291949,944.7291949,944.7291949,953.8377692000004,,,,953.8476639,953.8576874,953.8576874,953.9033592000005,953.9036715000002,953.9199430999997,953.9199430999997,953.9199430999997,954.0031231000003,954.4205742000004,,,,,,,,,,,,,,,,,,,,,,down,9.09225830000014,None,space,0.4963025999995807,None,P105,001,2025-02-13_11h48.02.203,posner_endo_new1,2024.2.4,59.975302170474464,2025-02-13 11h48.11.770137 +0000,
cube_r.png,0.1,10,catch,16,16,0,down,5.671841699999277,None,None,,,,,,,,,,,0,16,16,16,954.4359688000004,,,,,,,,,,,,,954.4208243000003,954.4359688000004,954.4359688000004,954.4359688000004,960.1145922000005,,,,960.1238196000004,960.1334046000002,960.1334046000002,960.1802888000002,960.1805162999999,960.1968665000004,960.1968665000004,960.1968665000004,960.2798454000003,963.1942196999998,,,,,,,962.2942812000001,963.2102682000004,963.2102682000004,963.2102682000004,,,,,,,,,,,,down,5.671841699999277,None,None,,,P105,001,2025-02-13_11h48.02.203,posner_endo_new1,2024.2.4,59.975302170474464,2025-02-13 11h48.11.770137 +0000,
cube_r.png,0.1,10,catch,17,17,0,down,5.074116100000538,None,None,,,,,,,,,,,0,17,17,17,963.2102682000004,,,,,,,,,,,,,963.1943885999999,963.2102682000004,963.2102682000004,963.2102682000004,968.2894418000005,,,,968.2960800000001,968.3077187999997,968.3077187999997,968.3552458000004,968.3554722999997,968.3717732000005,968.3717732000005,968.3717732000005,968.4550927999999,971.3693821000006,,,,,,,970.4693699,971.3851042000006,971.3851042000006,971.3851042000006,,,,,,,,,,,,down,5.074116100000538,None,None,,,P105,001,2025-02-13_11h48.02.203,posner_endo_new1,2024.2.4,59.975302170474464,2025-02-13 11h48.11.770137 +0000,
cube_l.png,0.1,0.31,invalid,18,18,0,down,4.075098199999957,None,space,0.37638759999936156,None,,,,,,,,,0,18,18,18,971.3851042000006,,,,,,,,,,,,,971.3697443000001,971.3851042000006,971.3851042000006,971.3851042000006,975.4656739000002,,,,975.4756384000002,975.4857179999999,975.4857179999999,975.5312807999999,975.5315902000002,975.5478220000005,975.5478220000005,975.5478220000005,975.6143388999999,975.9320355999998,,,,,,,,,,,,,,,,,,,,,,down,4.075098199999957,None,space,0.37638759999936156,None,P105,001,2025-02-13_11h48.02.203,posner_endo_new1,2024.2.4,59.975302170474464,2025-02-13 11h48.11.770137 +0000,
cube_l.png,0.1,10,catch,19,19,0,down,6.4253803999999946,None,None,,,,,,,,,,,0,19,19,19,975.9472965000004,,,,,,,,,,,,,975.9322929,975.9472965000004,975.9472965000004,975.9472965000004,982.3753465999998,,,,982.3841566000001,982.3937998000001,982.3937998000001,982.4408342000006,982.4410779,982.4570303999999,982.4570303999999,982.4570303999999,982.5402364000001,985.4549624000001,,,,,,,984.5554024000003,985.4710989000005,985.4710989000005,985.4710989000005,,,,,,,,,,,,down,6.4253803999999946,None,None,,,P105,001,2025-02-13_11h48.02.203,posner_endo_new1,2024.2.4,59.975302170474464,2025-02-13 11h48.11.770137 +0000,
cube_l.png,0.1,0.31,invalid,20,20,0,down,6.132859199999984,None,space,0.3871976000000359,None,,,,,,,,,0,20,20,20,985.4710989000005,,,,,,,,,,,,,985.4551264000002,985.4710989000005,985.4710989000005,985.4710989000005,991.6155682999997,,,,991.6222496999999,991.6340010000004,991.6340010000004,991.6813693000004,991.6816128,991.6980567,991.6980567,991.6980567,991.7810883000002,992.0986745999999,,,,,,,,,,,,,,,,,,,,,,down,6.132859199999984,None,space,0.3871976000000359,None,P105,001,2025-02-13_11h48.02.203,posner_endo_new1,2024.2.4,59.975302170474464,2025-02-13 11h48.11.770137 +0000,
cube_l.png,0.1,-0.31,valid,21,21,0,down,6.4664364000000205,None,space,0.41405870000016876,None,,,,,,,,,0,21,21,21,992.1142035000003,,,,,,,,,,,,,992.0988482000002,992.1142035000003,992.1142035000003,992.1142035000003,998.5928137000001,,,,998.6116883000004,998.6219161999998,998.6219161999998,998.6576071,998.6579437,998.6742290000002,998.6742290000002,998.6742290000002,998.7573911,999.0914893999998,,,,,,,,,,,,,,,,,,,,,,down,6.4664364000000205,None,space,0.41405870000016876,None,P105,001,2025-02-13_11h48.02.203,posner_endo_new1,2024.2.4,59.975302170474464,2025-02-13 11h48.11.770137 +0000,
cube_r.png,0.1,0.31,valid,22,22,0,down,10.6413321,None,space,0.37844760000007227,None,,,,,,,,,0,22,22,22,999.1070049,,,,,,,,,,,,,999.0917685000004,999.1070049,999.1070049,999.1070049,1009.7639004000002,,,,1009.7740282000004,1009.7835795999999,1009.7835795999999,1009.8296986000005,1009.8299382000005,1009.8459631000005,1009.8459631000005,1009.8459631000005,1009.9294773000001,1010.2300464,,,,,,,,,,,,,,,,,,,,,,down,10.6413321,None,space,0.37844760000007227,None,P105,001,2025-02-13_11h48.02.203,posner_endo_new1,2024.2.4,59.975302170474464,2025-02-13 11h48.11.770137 +0000,
cube_r.png,0.1,-0.31,invalid,23,23,0,down,6.774589599999672,None,space,0.4208281999999599,None,,,,,,,,,0,23,23,23,1010.2452828000005,,,,,,,,,,,,,1010.2302415000004,1010.2452828000005,1010.2452828000005,1010.2452828000005,1017.0229522999998,,,,1017.0300256,1017.0416433,1017.0416433,1017.0888182999997,1017.0890581000003,1017.1049454000004,1017.1049454000004,1017.1049454000004,1017.1886271000003,1017.5390435999998,,,,,,,,,,,,,,,,,,,,,,down,6.774589599999672,None,space,0.4208281999999599,None,P105,001,2025-02-13_11h48.02.203,posner_endo_new1,2024.2.4,59.975302170474464,2025-02-13 11h48.11.770137 +0000,
cube_r.png,0.1,0.31,valid,24,24,0,down,10.225507600000128,None,space,0.7793265999998766,None,,,,,,,,,0,24,24,24,1017.5547613999997,,,,,,,,,,,,,1017.5392308999999,1017.5547613999997,1017.5547613999997,1017.5547613999997,1027.7972558000001,,,,1027.8208853000006,1027.8323781,1027.8323781,1027.8608307000004,1027.8612073000004,1027.8774412000002,1027.8774412000002,1027.8774412000002,1027.9608749999998,1028.6615028000006,,,,,,,,,,,,,,,,,,,,,,down,10.225507600000128,None,space,0.7793265999998766,None,P105,001,2025-02-13_11h48.02.203,posner_endo_new1,2024.2.4,59.975302170474464,2025-02-13 11h48.11.770137 +0000,
cube_r.png,0.1,-0.31,invalid,25,25,0,down,6.30361559999983,None,space,0.24679980000018986,None,,,,,,,,,0,25,25,25,1028.6767206000004,,,,,,,,,,,,,1028.6618006999997,1028.6767206000004,1028.6767206000004,1028.6767206000004,1034.988437,,,,1035.0000816000002,1035.0102117000006,1035.0102117000006,1035.0537161000002,1035.0539678000005,1035.0703037000003,1035.0703037000003,1035.0703037000003,1035.1535473000004,1035.3205729000001,,,,,,,,,,,,,,,,,,,,,,down,6.30361559999983,None,space,0.24679980000018986,None,P105,001,2025-02-13_11h48.02.203,posner_endo_new1,2024.2.4,59.975302170474464,2025-02-13 11h48.11.770137 +0000,
cube_l.png,0.1,-0.31,valid,26,26,0,down,13.25207379999938,None,space,0.3531044000001202,None,,,,,,,,,0,26,26,26,1035.3367521,,,,,,,,,,,,,1035.3207714,1035.3367521,1035.3367521,1035.3367521,1048.5909953999999,,,,1048.598758,1048.6093548,1048.6093548,1048.6565603,1048.6568318,1048.6729752,1048.6729752,1048.6729752,1048.7561529000004,1049.0402810000005,,,,,,,,,,,,,,,,,,,,,,down,13.25207379999938,None,space,0.3531044000001202,None,P105,001,2025-02-13_11h48.02.203,posner_endo_new1,2024.2.4,59.975302170474464,2025-02-13 11h48.11.770137 +0000,
cube_r.png,0.1,0.31,valid,27,27,0,down,9.741186899999775,None,space,0.43517919999976584,None,,,,,,,,,0,27,27,27,1049.0561316000003,,,,,,,,,,,,,1049.0405054000003,1049.0561316000003,1049.0561316000003,1049.0561316000003,1058.8135355000004,,,,1058.8214343,1058.8321303000002,1058.8321303000002,1058.8791227000002,1058.8793938999997,1058.8959498000004,1058.8959498000004,1058.8959498000004,1058.9788485,1059.3462657,,,,,,,,,,,,,,,,,,,,,,down,9.741186899999775,None,space,0.43517919999976584,None,P105,001,2025-02-13_11h48.02.203,posner_endo_new1,2024.2.4,59.975302170474464,2025-02-13 11h48.11.770137 +0000,
cube_r.png,0.1,10,catch,28,28,0,down,12.297994200000176,None,None,,,,,,,,,,,0,28,28,28,1059.3621852000006,,,,,,,,,,,,,1059.3464733,1059.3621852000006,1059.3621852000006,1059.3621852000006,1071.6671109,,,,1071.6747728,1071.6857753000004,1071.6857753000004,1071.7326155,1071.7328785,1071.7496330000004,1071.7496330000004,1071.7496330000004,1071.8328444999997,1074.7470543999998,,,,,,,1073.8474498000005,1074.7633024000006,1074.7633024000006,1074.7633024000006,,,,,,,,,,,,down,12.297994200000176,None,None,,,P105,001,2025-02-13_11h48.02.203,posner_endo_new1,2024.2.4,59.975302170474464,2025-02-13 11h48.11.770137 +0000,
cube_r.png,0.1,0.31,valid,29,29,0,down,2.1533112999995865,None,space,0.36335700000017823,None,,,,,,,,,0,29,29,29,1074.7633024000006,,,,,,,,,,,,,1074.7472506000004,1074.7633024000006,1074.7633024000006,1074.7633024000006,1076.9284377000004,,,,1076.9360946000006,1076.9470185,1076.9470185,1076.9939075000002,1076.9941795000004,1077.0107798999998,1077.0107798999998,1077.0107798999998,1077.0939775000006,1077.3776472999998,,,,,,,,,,,,,,,,,,,,,,down,2.1533112999995865,None,space,0.36335700000017823,None,P105,001,2025-02-13_11h48.02.203,posner_endo_new1,2024.2.4,59.975302170474464,2025-02-13 11h48.11.770137 +0000,
cube_r.png,0.1,0.31,valid,30,30,0,down,11.730298699999366,None,space,0.40475619999961054,None,,,,,,,,,0,30,30,30,1077.3936945000005,,,,,,,,,,,,,1077.3778536999998,1077.3936945000005,1077.3936945000005,1077.3936945000005,1089.1327396000006,,,,1089.1404941,1089.151229,1089.151229,1089.1986198000004,1089.1988929,1089.2151644000005,1089.2151644000005,1089.2151644000005,1089.2983544999997,1089.6323103000004,,,,,,,,,,,,,,,,,,,,,,down,11.730298699999366,None,space,0.40475619999961054,None,P105,001,2025-02-13_11h48.02.203,posner_endo_new1,2024.2.4,59.975302170474464,2025-02-13 11h48.11.770137 +0000,
cube_l.png,0.1,-0.31,valid,31,31,0,down,6.988253299999997,None,space,0.32000259999949776,None,,,,,,,,,0,31,31,31,1089.6478720000005,,,,,,,,,,,,,1089.6325145,1089.6478720000005,1089.6478720000005,1089.6478720000005,1096.6413391000006,,,,1096.6490198000001,1096.6603065,1096.6603065,1096.7074567,1096.7077244000002,1096.724045,1096.724045,1096.724045,1096.8074877,1097.0579423999998,,,,,,,,,,,,,,,,,,,,,,down,6.988253299999997,None,space,0.32000259999949776,None,P105,001,2025-02-13_11h48.02.203,posner_endo_new1,2024.2.4,59.975302170474464,2025-02-13 11h48.11.770137 +0000,
cube_r.png,0.1,0.31,valid,32,32,0,down,7.779170800000429,None,space,0.6036777999997867,None,,,,,,,,,0,32,32,32,1097.0736470000002,,,,,,,,,,,,,1097.0581565000002,1097.0736470000002,1097.0736470000002,1097.0736470000002,1104.866516,,,,1104.8741521000002,1104.8852656,1104.8852656,1104.9323632000005,1104.9326298000005,1104.9489080000003,1104.9489080000003,1104.9489080000003,1105.0320671999998,1105.5659187,,,,,,,,,,,,,,,,,,,,,,down,7.779170800000429,None,space,0.6036777999997867,None,P105,001,2025-02-13_11h48.02.203,posner_endo_new1,2024.2.4,59.975302170474464,2025-02-13 11h48.11.770137 +0000,
cube_r.png,0.1,-0.31,invalid,33,33,0,down,5.110967399999936,None,space,0.37089819999982865,None,,,,,,,,,0,33,33,33,1105.5816099000003,,,,,,,,,,,,,1105.5661248000006,1105.5816099000003,1105.5816099000003,1105.5816099000003,1110.6940572000003,,,,1110.7016592999998,1110.7124985,1110.7124985,1110.7598867000006,1110.7601505000002,1110.7761894000005,1110.7761894000005,1110.7761894000005,1110.8596546999997,1111.1601688,,,,,,,,,,,,,,,,,,,,,,down,5.110967399999936,None,space,0.37089819999982865,None,P105,001,2025-02-13_11h48.02.203,posner_endo_new1,2024.2.4,59.975302170474464,2025-02-13 11h48.11.770137 +0000,
cube_r.png,0.1,10,catch,34,34,0,down,6.916642799999863,None,None,,,,,,,,,,,0,34,34,34,1111.1758414000005,,,,,,,,,,,,,1111.1603730000006,1111.1758414000005,1111.1758414000005,1111.1758414000005,1118.1032345000003,,,,1118.1109926999998,1118.1216972000002,1118.1216972000002,1118.1686645999998,1118.1689289000005,1118.1855861000004,1118.1855861000004,1118.1855861000004,1118.2685846000004,1121.1828777,,,,,,,1120.283085,1121.1988695,1121.1988695,1121.1988695,,,,,,,,,,,,down,6.916642799999863,None,None,,,P105,001,2025-02-13_11h48.02.203,posner_endo_new1,2024.2.4,59.975302170474464,2025-02-13 11h48.11.770137 +0000,
cube_r.png,0.1,0.31,valid,35,35,0,down,6.062053800000285,None,space,0.3510063000003356,None,,,,,,,,,0,35,35,35,1121.1988695,,,,,,,,,,,,,1121.1830686000003,1121.1988695,1121.1988695,1121.1988695,1127.2770291000006,,,,1127.2847822000003,1127.2955733999997,1127.2955733999997,1127.3427613000003,1127.3430276999998,1127.3594201000005,1127.3594201000005,1127.3594201000005,1127.4427243,1127.7264776000002,,,,,,,,,,,,,,,,,,,,,,down,6.062053800000285,None,space,0.3510063000003356,None,P105,001,2025-02-13_11h48.02.203,posner_endo_new1,2024.2.4,59.975302170474464,2025-02-13 11h48.11.770137 +0000,
cube_r.png,0.1,-0.31,invalid,36,36,0,down,6.3178430999996635,None,space,0.32949769999959244,None,,,,,,,,,0,36,36,36,1127.7422818000005,,,,,,,,,,,,,1127.7266835,1127.7422818000005,1127.7422818000005,1127.7422818000005,1134.0718711,,,,1134.0937559000004,1134.1040282000004,1134.1040282000004,1134.1358469000006,1134.1362152000002,1134.1523052000002,1134.1523052000002,1134.1523052000002,1134.2355810999998,1134.4865826000005,,,,,,,,,,,,,,,,,,,,,,down,6.3178430999996635,None,space,0.32949769999959244,None,P105,001,2025-02-13_11h48.02.203,posner_endo_new1,2024.2.4,59.975302170474464,2025-02-13 11h48.11.770137 +0000,
cube_l.png,0.1,0.31,invalid,37,37,0,down,7.6865643000001,None,space,0.36902719999943656,None,,,,,,,,,0,37,37,37,1134.5019530999998,,,,,,,,,,,,,1134.4868788000003,1134.5019530999998,1134.5019530999998,1134.5019530999998,1142.1954541000005,,,,1142.2071194999999,1142.2173183000004,1142.2173183000004,1142.2609223999998,1142.2612754000002,1142.2772434999997,1142.2772434999997,1142.2772434999997,1142.3606120000004,1142.6615034000006,,,,,,,,,,,,,,,,,,,,,,down,7.6865643000001,None,space,0.36902719999943656,None,P105,001,2025-02-13_11h48.02.203,posner_endo_new1,2024.2.4,59.975302170474464,2025-02-13 11h48.11.770137 +0000,
cube_l.png,0.1,0.31,invalid,38,38,0,down,7.199274699999478,None,space,0.3559101000000737,None,,,,,,,,,0,38,38,38,1142.6769337000005,,,,,,,,,,,,,1142.6617983000006,1142.6769337000005,1142.6769337000005,1142.6769337000005,1149.8874010999998,,,,1149.8990580999998,1149.9091441,1149.9091441,1149.9531124000005,1149.9533643000004,1149.9694663999999,1149.9694663999999,1149.9694663999999,1150.0528180000001,1150.3367127000001,,,,,,,,,,,,,,,,,,,,,,down,7.199274699999478,None,space,0.3559101000000737,None,P105,001,2025-02-13_11h48.02.203,posner_endo_new1,2024.2.4,59.975302170474464,2025-02-13 11h48.11.770137 +0000,
cube_r.png,0.1,0.31,valid,39,39,0,down,6.500230099999499,None,space,0.44924580000042624,None,,,,,,,,,0,39,39,39,1150.3524134,,,,,,,,,,,,,1150.3369106,1150.3524134,1150.3524134,1150.3524134,1156.8634014,,,,1156.8708671000004,1156.8821324,1156.8821324,1156.9292928000004,1156.9295444,1156.9459175000002,1156.9459175000002,1156.9459175000002,1157.0291297000003,1157.396331,,,,,,,,,,,,,,,,,,,,,,down,6.500230099999499,None,space,0.44924580000042624,None,P105,001,2025-02-13_11h48.02.203,posner_endo_new1,2024.2.4,59.975302170474464,2025-02-13 11h48.11.770137 +0000,
cube_l.png,0.1,0.31,invalid,40,40,0,down,12.360714000000371,None,space,0.3447168000002421,None,,,,,,,,,0,40,40,40,1157.4120340999998,,,,,,,,,,,,,1157.3965300999998,1157.4120340999998,1157.4120340999998,1157.4120340999998,1169.7835197000004,,,,1169.7911746999998,1169.8022142,1169.8022142,1169.8494136999998,1169.8496464,1169.8658308000004,1169.8658308000004,1169.8658308000004,1169.9491539,1170.2164367000005,,,,,,,,,,,,,,,,,,,,,,down,12.360714000000371,None,space,0.3447168000002421,None,P105,001,2025-02-13_11h48.02.203,posner_endo_new1,2024.2.4,59.975302170474464,2025-02-13 11h48.11.770137 +0000,
cube_l.png,0.1,10,catch,41,41,0,down,7.220377499999813,None,None,,,,,,,,,,,0,41,41,41,1170.2322251000005,,,,,,,,,,,,,1170.2166118000005,1170.2322251000005,1170.2322251000005,1170.2322251000005,1177.4586229000006,,,,1177.4647443000003,1177.4763518,1177.4763518,1177.5247663999999,1177.5249916000002,1177.5413960000005,1177.5413960000005,1177.5413960000005,1177.6082201999998,1180.5388572000002,,,,,,,1179.6226918000002,1180.5548475000005,1180.5548475000005,1180.5548475000005,,,,,,,,,,,,down,7.220377499999813,None,None,,,P105,001,2025-02-13_11h48.02.203,posner_endo_new1,2024.2.4,59.975302170474464,2025-02-13 11h48.11.770137 +0000,
cube_l.png,0.1,-0.31,valid,42,42,0,down,3.4256577000005564,None,space,0.4810403999999835,None,,,,,,,,,0,42,42,42,1180.5548475000005,,,,,,,,,,,,,1180.539017,1180.5548475000005,1180.5548475000005,1180.5548475000005,1183.9877916000005,,,,1184.0115906,1184.0218080000004,1184.0218080000004,1184.0514138999997,1184.0517647000006,1184.0676457999998,1184.0676457999998,1184.0676457999998,1184.1512565000003,1184.5517879,,,,,,,,,,,,,,,,,,,,,,down,3.4256577000005564,None,space,0.4810403999999835,None,P105,001,2025-02-13_11h48.02.203,posner_endo_new1,2024.2.4,59.975302170474464,2025-02-13 11h48.11.770137 +0000,
cube_l.png,0.1,10,catch,43,43,0,down,12.78053220000038,None,None,,,,,,,,,,,0,43,43,43,1184.5676558000005,,,,,,,,,,,,,1184.5519814,1184.5676558000005,1184.5676558000005,1184.5676558000005,1197.3552958999999,,,,1197.3632189999998,1197.3740733000004,1197.3740733000004,1197.4212619,1197.4215377,1197.4377042000006,1197.4377042000006,1197.4377042000006,1197.5210810999997,1200.4350946000004,,,,,,,1199.5356065000005,1200.4514169000004,1200.4514169000004,1200.4514169000004,,,,,,,,,,,,down,12.78053220000038,None,None,,,P105,001,2025-02-13_11h48.02.203,posner_endo_new1,2024.2.4,59.975302170474464,2025-02-13 11h48.11.770137 +0000,
cube_l.png,0.1,0.31,invalid,44,44,0,down,22.889033700000255,None,space,0.5423903000000792,None,,,,,,,,,0,44,44,44,1200.4514169000004,,,,,,,,,,,,,1200.4352790000003,1200.4514169000004,1200.4514169000004,1200.4514169000004,1223.3457434000002,,,,1223.3535321999998,1223.3643056,1223.3643056,1223.4112985000002,1223.4118054,1223.4277582000004,1223.4277582000004,1223.4277582000004,1223.5110064,1223.9789591999997,,,,,,,,,,,,,,,,,,,,,,down,22.889033700000255,None,space,0.5423903000000792,None,P105,001,2025-02-13_11h48.02.203,posner_endo_new1,2024.2.4,59.975302170474464,2025-02-13 11h48.11.770137 +0000,
cube_l.png,0.1,0.31,invalid,45,45,0,down,8.418944699999884,None,space,1.145437099999981,None,,,,,,,,,0,45,45,45,1223.9938539000004,,,,,,,,,,,,,1223.9794069999998,1223.9938539000004,1223.9938539000004,1223.9938539000004,1232.4199884999998,,,,1232.4318147000004,1232.4419981,1232.4419981,1232.4853583000004,1232.4857092000002,1232.5017906000003,1232.5017906000003,1232.5017906000003,1232.5850937000005,1233.6520703000006,,,,,,,,,,,,,,,,,,,,,,down,8.418944699999884,None,space,1.145437099999981,None,P105,001,2025-02-13_11h48.02.203,posner_endo_new1,2024.2.4,59.975302170474464,2025-02-13 11h48.11.770137 +0000,
cube_r.png,0.1,0.31,valid,46,46,0,down,18.02551500000027,None,space,0.4340548000000126,None,,,,,,,,,0,46,46,46,1233.6673296999998,,,,,,,,,,,,,1233.6523599000002,1233.6673296999998,1233.6673296999998,1233.6673296999998,1251.6998070999998,,,,1251.7076003000002,1251.7185126000004,1251.7185126000004,1251.7656742,1251.7659254,1251.7821883000006,1251.7821883000006,1251.7821883000006,1251.8655993000002,1252.2325866,,,,,,,,,,,,,,,,,,,,,,down,18.02551500000027,None,space,0.4340548000000126,None,P105,001,2025-02-13_11h48.02.203,posner_endo_new1,2024.2.4,59.975302170474464,2025-02-13 11h48.11.770137 +0000,
cube_l.png,0.1,-0.31,valid,47,47,0,down,14.339959799999633,None,space,0.3353689999994458,None,,,,,,,,,0,47,47,47,1252.2483293000005,,,,,,,,,,,,,1252.2327827,1252.2483293000005,1252.2483293000005,1252.2483293000005,1266.6019289000005,,,,1266.6138157000005,1266.6240116999998,1266.6240116999998,1266.6670771999998,1266.6674367000005,1266.6836223999999,1266.6836223999999,1266.6836223999999,1266.7668570000005,1267.0343578000002,,,,,,,,,,,,,,,,,,,,,,down,14.339959799999633,None,space,0.3353689999994458,None,P105,001,2025-02-13_11h48.02.203,posner_endo_new1,2024.2.4,59.975302170474464,2025-02-13 11h48.11.770137 +0000,
cube_r.png,0.1,-0.31,invalid,48,48,0,down,2.1389368999998624,None,space,0.4306612000000314,None,,,,,,,,,0,48,48,48,1267.0499254000006,,,,,,,,,,,,,1267.0346624000003,1267.0499254000006,1267.0499254000006,1267.0499254000006,1269.1989248,,,,1269.2107000000005,1269.2211677000005,1269.2211677000005,1269.2645204,1269.2648735000002,1269.2809208999997,1269.2809208999997,1269.2809208999997,1269.3641284000005,1269.7150781,,,,,,,,,,,,,,,,,,,,,,down,2.1389368999998624,None,space,0.4306612000000314,None,P105,001,2025-02-13_11h48.02.203,posner_endo_new1,2024.2.4,59.975302170474464,2025-02-13 11h48.11.770137 +0000,
cube_r.png,0.1,10,catch,49,49,0,down,12.90676429999985,None,None,,,,,,,,,,,0,49,49,49,1269.7303694000002,,,,,,,,,,,,,1269.7153763000006,1269.7303694000002,1269.7303694000002,1269.7303694000002,1282.6514764000003,,,,1282.6577823000007,1282.6693730000006,1282.6693730000006,1282.7173722999996,1282.7175982000008,1282.7339336999994,1282.7339336999994,1282.7339336999994,1282.8004796999994,1285.7314131000003,,,,,,,1284.8148562999995,1285.7474051000008,1285.7474051000008,1285.7474051000008,,,,,,,,,,,,down,12.90676429999985,None,None,,,P105,001,2025-02-13_11h48.02.203,posner_endo_new1,2024.2.4,59.975302170474464,2025-02-13 11h48.11.770137 +0000,
cube_l.png,0.1,-0.31,valid,50,50,0,down,6.473392999998396,None,space,0.3981340000009368,None,,,,,,,,,0,50,50,50,1285.7474051000008,,,,,,,,,,,,,1285.731574200001,1285.7474051000008,1285.7474051000008,1285.7474051000008,1292.2272823000003,,,,1292.2514916,1292.2616634000005,1292.2616634000005,1292.2906282000004,1292.2910223,1292.307087700001,1292.307087700001,1292.307087700001,1292.3903386000002,1292.7082604999996,,,,,,,,,,,,,,,,,,,,,,down,6.473392999998396,None,space,0.3981340000009368,None,P105,001,2025-02-13_11h48.02.203,posner_endo_new1,2024.2.4,59.975302170474464,2025-02-13 11h48.11.770137 +0000,
cube_l.png,0.1,-0.31,valid,51,51,0,down,21.66583130000072,None,space,0.5459377999995922,None,,,,,,,,,0,51,51,51,1292.7233450000003,,,,,,,,,,,,,1292.7085865999998,1292.7233450000003,1292.7233450000003,1292.7233450000003,1314.4035103000006,,,,1314.4222363999997,1314.4325594000002,1314.4325594000002,1314.4682470000007,1314.4686003999996,1314.4847341999994,1314.4847341999994,1314.4847341999994,1314.5681138,1315.0355861000007,,,,,,,,,,,,,,,,,,,,,,down,21.66583130000072,None,space,0.5459377999995922,None,P105,001,2025-02-13_11h48.02.203,posner_endo_new1,2024.2.4,59.975302170474464,2025-02-13 11h48.11.770137 +0000,
cube_r.png,0.1,-0.31,invalid,52,52,0,down,4.385727699998824,None,space,0.43575500000042666,None,,,,,,,,,0,52,52,52,1315.0508004000003,,,,,,,,,,,,,1315.0358933000007,1315.0508004000003,1315.0508004000003,1315.0508004000003,1319.4475662999994,,,,1319.4594514,1319.4696502999996,1319.4696502999996,1319.5132391000006,1319.5135922999998,1319.5296519000003,1319.5296519000003,1319.5296519000003,1319.6128831000005,1319.9804033,,,,,,,,,,,,,,,,,,,,,,down,4.385727699998824,None,space,0.43575500000042666,None,P105,001,2025-02-13_11h48.02.203,posner_endo_new1,2024.2.4,59.975302170474464,2025-02-13 11h48.11.770137 +0000,
cube_l.png,0.1,-0.31,valid,53,53,0,down,17.4968800000006,None,space,0.4763191000001825,None,,,,,,,,,0,53,53,53,1319.9957926999996,,,,,,,,,,,,,1319.9806991000005,1319.9957926999996,1319.9957926999996,1319.9957926999996,1337.496664100001,,,,1337.5159808999997,1337.5278159999998,1337.5278159999998,1337.5614031999994,1337.5617036999993,1337.5779722999996,1337.5779722999996,1337.5779722999996,1337.6612126,1338.0617533999994,,,,,,,,,,,,,,,,,,,,,,down,17.4968800000006,None,space,0.4763191000001825,None,P105,001,2025-02-13_11h48.02.203,posner_endo_new1,2024.2.4,59.975302170474464,2025-02-13 11h48.11.770137 +0000,
cube_r.png,0.1,10,catch,54,54,0,down,22.35940870000013,None,None,,,,,,,,,,,0,54,54,54,1338.0774363,,,,,,,,,,,,,1338.0619893000003,1338.0774363,1338.0774363,1338.0774363,1360.4389750999999,,,,1360.4480671000001,1360.4580714999993,1360.4580714999993,1360.5046034000006,1360.5048946000006,1360.5210594,1360.5210594,1360.5210594,1360.6044734000006,1363.5187477,,,,,,,1362.619024900001,1363.5348161000002,1363.5348161000002,1363.5348161000002,,,,,,,,,,,,down,22.35940870000013,None,None,,,P105,001,2025-02-13_11h48.02.203,posner_endo_new1,2024.2.4,59.975302170474464,2025-02-13 11h48.11.770137 +0000,
cube_l.png,0.1,0.31,invalid,55,55,0,down,3.1979534000001877,None,space,0.5065909999993892,None,,,,,,,,,0,55,55,55,1363.5348161000002,,,,,,,,,,,,,1363.5189719999998,1363.5348161000002,1363.5348161000002,1363.5348161000002,1366.7491061,,,,1366.7581701,1366.7681493,1366.7681493,1366.8148450000008,1366.8151338000007,1366.8314327000007,1366.8314327000007,1366.8314327000007,1366.9147138000008,1367.3484516000008,,,,,,,,,,,,,,,,,,,,,,down,3.1979534000001877,None,space,0.5065909999993892,None,P105,001,2025-02-13_11h48.02.203,posner_endo_new1,2024.2.4,59.975302170474464,2025-02-13 11h48.11.770137 +0000,
cube_l.png,0.1,-0.31,valid,56,56,0,down,6.824550799999997,None,space,0.5369326000000001,None,,,,,,,,,0,56,56,56,1367.3642595000001,,,,,,,,,,,,,1367.3486859000004,1367.3642595000001,1367.3642595000001,1367.3642595000001,1374.1916182999994,,,,1374.2006889999993,1374.2108114000002,1374.2108114000002,1374.257249100001,1374.2575367000009,1374.273767300001,1374.273767300001,1374.273767300001,1374.3569220999998,1374.8241354000002,,,,,,,,,,,,,,,,,,,,,,down,6.824550799999997,None,space,0.5369326000000001,None,P105,001,2025-02-13_11h48.02.203,posner_endo_new1,2024.2.4,59.975302170474464,2025-02-13 11h48.11.770137 +0000,
cube_r.png,0.1,0.31,valid,57,57,0,down,7.517589399998542,None,space,0.49053249999997206,None,,,,,,,,,0,57,57,57,1374.8397540999995,,,,,,,,,,,,,1374.8243684999998,1374.8397540999995,1374.8397540999995,1374.8397540999995,1382.366403,,,,1382.3755600000004,1382.3855425000002,1382.3855425000002,1382.4323342000007,1382.4326302000009,1382.4487817999998,1382.4487817999998,1382.4487817999998,1382.5319992000004,1382.9492649999993,,,,,,,,,,,,,,,,,,,,,,down,7.517589399998542,None,space,0.49053249999997206,None,P105,001,2025-02-13_11h48.02.203,posner_endo_new1,2024.2.4,59.975302170474464,2025-02-13 11h48.11.770137 +0000,
cube_r.png,0.1,-0.31,invalid,58,58,0,down,8.01611050000065,None,space,0.5416533999996318,None,,,,,,,,,0,58,58,58,1382.9649372999993,,,,,,,,,,,,,1382.9495033000003,1382.9649372999993,1382.9649372999993,1382.9649372999993,1390.9909597999995,,,,1391.0000555999995,1391.0100698000006,1391.0100698000006,1391.056778600001,1391.0570700999997,1391.0732411999998,1391.0732411999998,1391.0732411999998,1391.1565455,1391.6237732000009,,,,,,,,,,,,,,,,,,,,,,down,8.01611050000065,None,space,0.5416533999996318,None,P105,001,2025-02-13_11h48.02.203,posner_endo_new1,2024.2.4,59.975302170474464,2025-02-13 11h48.11.770137 +0000,
cube_l.png,0.1,0.31,invalid,59,59,0,down,9.101348000000144,None,space,0.6816767000000254,None,,,,,,,,,0,59,59,59,1391.6393559999997,,,,,,,,,,,,,1391.6240111999996,1391.6393559999997,1391.6393559999997,1391.6393559999997,1400.7475618000008,,,,1400.7565283999993,1400.7665837999994,1400.7665837999994,1400.8134922999998,1400.813795,1400.8298720000003,1400.8298720000003,1400.8298720000003,1400.8965896999998,1401.5135549999995,,,,,,,,,,,,,,,,,,,,,,down,9.101348000000144,None,space,0.6816767000000254,None,P105,001,2025-02-13_11h48.02.203,posner_endo_new1,2024.2.4,59.975302170474464,2025-02-13 11h48.11.770137 +0000,
