cue_img,cue_soa,target_y,trial,thisN,thisTrialN,thisRepN,key_control2.keys,key_control2.rt,key_control2.duration,key_resp.keys,key_resp.rt,key_resp.duration,practice.thisRepN,practice.thisTrialN,practice.thisN,practice.thisIndex,block1.thisRepN,block1.thisTrialN,block1.thisN,block1.thisIndex,block2.thisRepN,block2.thisTrialN,block2.thisN,block2.thisIndex,thisRow.t,notes,instructions.started,instructions_txt.started,key_control.started,instructions.stopped,key_control.keys,key_control.rt,key_control.duration,ready.started,ready_txt.started,ready_txt.stopped,ready.stopped,fix.started,fixation.started,key_control2.started,fixation_cross.started,fix.stopped,practice.key_control2.keys,practice.key_control2.rt,practice.key_control2.duration,cue.started,cube.started,fixation_cross_cue.started,cue.stopped,target.started,fixation_target.started,fixation_cross_target.started,key_resp.started,star.started,target.stopped,practice.key_resp.keys,practice.key_resp.rt,practice.key_resp.duration,star.stopped,fixation_target.stopped,fixation_cross_target.stopped,key_resp.stopped,block1.key_control2.keys,block1.key_control2.rt,block1.key_control2.duration,block1.key_resp.keys,block1.key_resp.rt,block1.key_resp.duration,break_2.started,text.started,key_control3.started,text.stopped,break_2.stopped,key_control3.keys,key_control3.rt,key_control3.duration,block2.key_control2.keys,block2.key_control2.rt,block2.key_control2.duration,block2.key_resp.keys,block2.key_resp.rt,block2.key_resp.duration,participant,session,date,expName,psychopyVersion,frameRate,expStart,
,,,,,,,,,,,,,,,,,,,,,,,,,,,0.007519299999330542,0.021653499999956694,0.021653499999956694,60.745127899999716,up,60.722395400000096,None,,,,,,,,,,,,,,,,,,,,,,,,,,,,,,,,,,,,,,,,,,,,,,,,,,P107,001,2025-02-13_13h03.27.909,posner_endo_new1,2024.2.4,59.87923555744991,2025-02-13 13h03.40.132331 +0000,
,,,,,,,,,,,,,,,,,,,,,,,,,,,,,,,,,,60.74519659999896,60.760310099998605,63.76486269999987,63.74117949999891,,,,,,,,,,,,,,,,,,,,,,,,,,,,,,,,,,,,,,,,,,,,,,P107,001,2025-02-13_13h03.27.909,posner_endo_new1,2024.2.4,59.87923555744991,2025-02-13 13h03.40.132331 +0000,
cube_l.png,0.1,-0.31,valid,0,0,0,up,1.0273149000004196,None,space,0.5954146000003675,None,0,0,0,0,,,,,,,,,63.76486269999987,,,,,,,,,,,,,63.75290359999963,63.76486269999987,63.76486269999987,63.76486269999987,64.80731959999866,up,1.0273149000004196,None,64.8223141999988,64.83328040000015,64.83328040000015,64.8729757000001,64.87327969999933,64.889345399999,64.889345399999,64.889345399999,64.9727157999987,65.49007849999907,space,0.5954146000003675,None,,,,,,,,,,,,,,,,,,,,,,,,,P107,001,2025-02-13_13h03.27.909,posner_endo_new1,2024.2.4,59.87923555744991,2025-02-13 13h03.40.132331 +0000,
cube_l.png,0.1,0.31,invalid,1,1,0,down,13.958131599998524,None,space,0.3991007999993599,None,0,1,1,1,,,,,,,,,65.50552329999846,,,,,,,,,,,,,65.49031539999851,65.50552329999846,65.50552329999846,65.50552329999846,79.47561129999849,down,13.958131599998524,None,79.48690569999962,79.49693370000023,79.49693370000023,79.54133489999913,79.54164309999942,79.55758239999886,79.55758239999886,79.55758239999886,79.64106240000001,79.95848849999857,space,0.3991007999993599,None,,,,,,,,,,,,,,,,,,,,,,,,,P107,001,2025-02-13_13h03.27.909,posner_endo_new1,2024.2.4,59.87923555744991,2025-02-13 13h03.40.132331 +0000,
cube_r.png,0.1,-0.31,invalid,2,2,0,down,9.129911100000754,None,space,0.4742317999989609,None,0,2,2,2,,,,,,,,,79.97405369999979,,,,,,,,,,,,,79.95872849999978,79.97405369999979,79.97405369999979,79.97405369999979,89.11563339999884,down,9.129911100000754,None,89.12671959999898,89.13680529999874,89.13680529999874,89.18145589999949,89.18175899999915,89.19792169999891,89.19792169999891,89.19792169999891,89.28121229999851,89.68176309999944,space,0.4742317999989609,None,,,,,,,,,,,,,,,,,,,,,,,,,P107,001,2025-02-13_13h03.27.909,posner_endo_new1,2024.2.4,59.87923555744991,2025-02-13 13h03.40.132331 +0000,
cube_r.png,0.1,10,catch,3,3,0,down,8.654061899998851,None,None,,,0,3,3,3,,,,,,,,,89.69745359999979,,,,,,,,,,,,,89.68199469999854,89.69745359999979,89.69745359999979,89.69745359999979,98.35642009999901,down,8.654061899998851,None,98.36727849999988,98.37734639999871,98.37734639999871,98.42197879999912,98.42228309999882,98.43851369999902,98.43851369999902,98.43851369999902,98.52174000000014,101.43605899999966,None,,,100.53636629999892,101.45210289999886,101.45210289999886,101.45210289999886,,,,,,,,,,,,,,,,,,,,,P107,001,2025-02-13_13h03.27.909,posner_endo_new1,2024.2.4,59.87923555744991,2025-02-13 13h03.40.132331 +0000,
cube_l.png,0.1,-0.31,valid,4,4,0,down,6.2281633999991755,None,space,0.39124290000108886,None,0,4,4,4,,,,,,,,,101.45210289999886,,,,,,,,,,,,,101.43628309999986,101.45210289999886,101.45210289999886,101.45210289999886,107.69660649999969,down,6.2281633999991755,None,107.70684529999926,107.71653100000003,107.71653100000003,107.76247049999984,107.76278549999915,107.77894639999977,107.77894639999977,107.77894639999977,107.86214629999995,108.17952220000006,space,0.39124290000108886,None,,,,,,,,,,,,,,,,,,,,,,,,,P107,001,2025-02-13_13h03.27.909,posner_endo_new1,2024.2.4,59.87923555744991,2025-02-13 13h03.40.132331 +0000,
cube_l.png,0.1,0.31,invalid,5,5,0,down,4.428904700000203,None,space,0.4020080999998754,None,0,5,5,5,,,,,,,,,108.1951455999988,,,,,,,,,,,,,108.17976019999878,108.1951455999988,108.1951455999988,108.1951455999988,112.6253758999992,down,4.428904700000203,None,112.63606419999996,112.64602829999967,112.64602829999967,112.69067559999894,112.69098269999995,112.70728169999893,112.70728169999893,112.70728169999893,112.79049249999844,113.12456489999931,space,0.4020080999998754,None,,,,,,,,,,,,,,,,,,,,,,,,,P107,001,2025-02-13_13h03.27.909,posner_endo_new1,2024.2.4,59.87923555744991,2025-02-13 13h03.40.132331 +0000,
cube_r.png,0.1,-0.31,invalid,6,6,0,down,3.747875600000043,None,space,0.48390809999909834,None,0,6,6,6,,,,,,,,,113.14000560000022,,,,,,,,,,,,,113.12479699999858,113.14000560000022,113.14000560000022,113.14000560000022,116.9038045999987,down,3.747875600000043,None,116.91411309999967,116.9241637999985,116.9241637999985,116.9697275999988,116.97003429999859,116.98620799999844,116.98620799999844,116.98620799999844,117.06941499999994,117.48672850000003,space,0.48390809999909834,None,,,,,,,,,,,,,,,,,,,,,,,,,P107,001,2025-02-13_13h03.27.909,posner_endo_new1,2024.2.4,59.87923555744991,2025-02-13 13h03.40.132331 +0000,
cube_r.png,0.1,0.31,valid,7,7,0,down,3.4729795000002923,None,space,0.4136789999993198,None,0,7,7,7,,,,,,,,,117.50237379999999,,,,,,,,,,,,,117.48697629999879,117.50237379999999,117.50237379999999,117.50237379999999,120.98323960000016,down,3.4729795000002923,None,120.99372179999955,121.0036325000001,121.0036325000001,121.04897699999856,121.04928349999864,121.06537159999971,121.06537159999971,121.06537159999971,121.1486363999993,121.48282109999855,space,0.4136789999993198,None,,,,,,,,,,,,,,,,,,,,,,,,,P107,001,2025-02-13_13h03.27.909,posner_endo_new1,2024.2.4,59.87923555744991,2025-02-13 13h03.40.132331 +0000,
cube_l.png,0.1,-0.31,valid,8,8,0,down,3.6697758000009344,None,space,0.3358896999998251,None,0,8,8,8,,,,,,,,,121.49830279999878,,,,,,,,,,,,,121.48305959999925,121.49830279999878,121.49830279999878,121.49830279999878,125.1789063999986,down,3.6697758000009344,None,125.18951349999952,125.19967969999925,125.19967969999925,125.24447859999964,125.24478099999942,125.26108279999971,125.26108279999971,125.26108279999971,125.34428149999985,125.61187280000013,space,0.3358896999998251,None,,,,,,,,,,,,,,,,,,,,,,,,,P107,001,2025-02-13_13h03.27.909,posner_endo_new1,2024.2.4,59.87923555744991,2025-02-13 13h03.40.132331 +0000,
cube_r.png,0.1,-0.31,invalid,9,9,0,down,5.028627699999561,None,space,0.38136240000130783,None,0,9,9,9,,,,,,,,,125.62740719999965,,,,,,,,,,,,,125.6121136999991,125.62740719999965,125.62740719999965,125.62740719999965,130.67315099999905,down,5.028627699999561,None,130.68379749999986,130.69360719999895,130.69360719999895,130.73918669999875,130.73949099999845,130.75544089999858,130.75544089999858,130.75544089999858,130.83874209999885,131.13956409999992,space,0.38136240000130783,None,,,,,,,,,,,,,,,,,,,,,,,,,P107,001,2025-02-13_13h03.27.909,posner_endo_new1,2024.2.4,59.87923555744991,2025-02-13 13h03.40.132331 +0000,
cube_r.png,0.1,0.31,valid,10,10,0,down,3.7329090000002907,None,space,0.35927430000083405,None,0,10,10,10,,,,,,,,,131.15509399999974,,,,,,,,,,,,,131.13981129999956,131.15509399999974,131.15509399999974,131.15509399999974,134.9022860999994,down,3.7329090000002907,None,134.91281309999977,134.9230876999991,134.9230876999991,134.9679132000001,134.96821809999892,134.98456819999956,134.98456819999956,134.98456819999956,135.06763359999968,135.35186029999932,space,0.35927430000083405,None,,,,,,,,,,,,,,,,,,,,,,,,,P107,001,2025-02-13_13h03.27.909,posner_endo_new1,2024.2.4,59.87923555744991,2025-02-13 13h03.40.132331 +0000,
,,,,,,,,,,,,,,,,,,,,,,,,,,,,,,,,,,135.35201659999984,135.36735339999905,138.37610080000013,138.34829720000016,,,,,,,,,,,,,,,,,,,,,,,,,,,,,,,,,,,,,,,,,,,,,,P107,001,2025-02-13_13h03.27.909,posner_endo_new1,2024.2.4,59.87923555744991,2025-02-13 13h03.40.132331 +0000,
cube_l.png,0.1,10,catch,0,0,0,down,2.1752443999994284,None,None,,,,,,,0,0,0,0,,,,,138.37610080000013,,,,,,,,,,,,,138.36707039999965,138.37610080000013,138.37610080000013,138.37610080000013,140.56319819999953,,,,140.57318080000005,140.5833165999993,140.5833165999993,140.62888909999856,140.62919369999872,140.64550229999986,140.64550229999986,140.64550229999986,140.72861459999876,143.64294829999926,,,,142.74321959999907,143.65895649999948,143.65895649999948,143.65895649999948,down,2.1752443999994284,None,None,,,,,,,,,,,,,,,,,P107,001,2025-02-13_13h03.27.909,posner_endo_new1,2024.2.4,59.87923555744991,2025-02-13 13h03.40.132331 +0000,
cube_l.png,0.1,10,catch,1,1,0,down,2.1734575999998924,None,None,,,,,,,0,1,1,1,,,,,143.65895649999948,,,,,,,,,,,,,143.64318309999908,143.65895649999948,143.65895649999948,143.65895649999948,145.84106549999888,,,,145.8493956000002,145.85971139999856,145.85971139999856,145.90671519999887,145.9069404999991,145.92333529999996,145.92333529999996,145.92333529999996,146.00666589999855,148.92067789999965,,,,148.021185399999,148.93680270000004,148.93680270000004,148.93680270000004,down,2.1734575999998924,None,None,,,,,,,,,,,,,,,,,P107,001,2025-02-13_13h03.27.909,posner_endo_new1,2024.2.4,59.87923555744991,2025-02-13 13h03.40.132331 +0000,
cube_l.png,0.1,0.31,invalid,2,2,0,down,3.799351999999999,None,space,0.3890843999997742,None,,,,,0,2,2,2,,,,,148.93680270000004,,,,,,,,,,,,,148.92083579999962,148.93680270000004,148.93680270000004,148.93680270000004,152.75053859999935,,,,152.75698349999948,152.7687240999985,152.7687240999985,152.81620999999905,152.81643209999856,152.83290789999955,152.83290789999955,152.83290789999955,152.89957219999997,153.23325149999982,,,,,,,,down,3.799351999999999,None,space,0.3890843999997742,None,,,,,,,,,,,,,,,P107,001,2025-02-13_13h03.27.909,posner_endo_new1,2024.2.4,59.87923555744991,2025-02-13 13h03.40.132331 +0000,
cube_l.png,0.1,0.31,invalid,3,3,0,down,7.071176499999638,None,space,0.3826160999997228,None,,,,,0,3,3,3,,,,,153.24913930000002,,,,,,,,,,,,,153.2334235999988,153.24913930000002,153.24913930000002,153.24913930000002,160.32625569999982,,,,160.33791310000015,160.34831339999982,160.34831339999982,160.3920354999991,160.3923834999987,160.40852039999845,160.40852039999845,160.40852039999845,160.4917416999997,160.79276729999947,,,,,,,,down,7.071176499999638,None,space,0.3826160999997228,None,,,,,,,,,,,,,,,P107,001,2025-02-13_13h03.27.909,posner_endo_new1,2024.2.4,59.87923555744991,2025-02-13 13h03.40.132331 +0000,
cube_l.png,0.1,-0.31,valid,4,4,0,down,6.295263600000908,None,space,0.38564469999982975,None,,,,,0,4,4,4,,,,,160.80815059999986,,,,,,,,,,,,,160.79306569999972,160.80815059999986,160.80815059999986,160.80815059999986,167.1194822999987,,,,167.1311941999993,167.1415065000001,167.1415065000001,167.18506089999937,167.18541539999933,167.2016165999994,167.2016165999994,167.2016165999994,167.2848137000001,167.60227809999924,,,,,,,,down,6.295263600000908,None,space,0.38564469999982975,None,,,,,,,,,,,,,,,P107,001,2025-02-13_13h03.27.909,posner_endo_new1,2024.2.4,59.87923555744991,2025-02-13 13h03.40.132331 +0000,
cube_r.png,0.1,-0.31,invalid,5,5,0,down,5.766085299999759,None,space,0.37622710000141524,None,,,,,0,5,5,5,,,,,167.61781699999847,,,,,,,,,,,,,167.60256320000008,167.61781699999847,167.61781699999847,167.61781699999847,173.3963791999995,,,,173.40810349999992,173.4183792999993,173.4183792999993,173.46192399999927,173.46227379999982,173.4785054999993,173.4785054999993,173.4785054999993,173.56174759999885,173.86269639999955,,,,,,,,down,5.766085299999759,None,space,0.37622710000141524,None,,,,,,,,,,,,,,,P107,001,2025-02-13_13h03.27.909,posner_endo_new1,2024.2.4,59.87923555744991,2025-02-13 13h03.40.132331 +0000,
cube_r.png,0.1,0.31,valid,6,6,0,down,6.218280799999775,None,space,0.39564960000097926,None,,,,,0,6,6,6,,,,,173.8780358999993,,,,,,,,,,,,,173.86298349999925,173.8780358999993,173.8780358999993,173.8780358999993,180.10642310000003,,,,180.11805599999934,180.1284187000001,180.1284187000001,180.17181939999864,180.1721667999991,180.1883539999999,180.1883539999999,180.1883539999999,180.27156839999952,180.58913570000004,,,,,,,,down,6.218280799999775,None,space,0.39564960000097926,None,,,,,,,,,,,,,,,P107,001,2025-02-13_13h03.27.909,posner_endo_new1,2024.2.4,59.87923555744991,2025-02-13 13h03.40.132331 +0000,
cube_r.png,0.1,-0.31,invalid,7,7,0,down,5.266966000001048,None,space,0.3451955000000453,None,,,,,0,7,7,7,,,,,180.60462759999973,,,,,,,,,,,,,180.58942389999902,180.60462759999973,180.60462759999973,180.60462759999973,185.883740199999,,,,185.89537579999887,185.90577440000015,185.90577440000015,185.94909329999973,185.94933870000023,185.96571089999998,185.96571089999998,185.96571089999998,186.04920669999956,186.31641679999848,,,,,,,,down,5.266966000001048,None,space,0.3451955000000453,None,,,,,,,,,,,,,,,P107,001,2025-02-13_13h03.27.909,posner_endo_new1,2024.2.4,59.87923555744991,2025-02-13 13h03.40.132331 +0000,
cube_l.png,0.1,-0.31,valid,8,8,0,down,6.708549799999673,None,space,0.399111400000038,None,,,,,0,8,8,8,,,,,186.3319653999988,,,,,,,,,,,,,186.31661759999952,186.3319653999988,186.3319653999988,186.3319653999988,193.04272369999853,,,,193.0502424999995,193.0615915999988,193.0615915999988,193.10851729999922,193.10876800000005,193.1249317999991,193.1249317999991,193.1249317999991,193.20832609999889,193.52572899999905,,,,,,,,down,6.708549799999673,None,space,0.399111400000038,None,,,,,,,,,,,,,,,P107,001,2025-02-13_13h03.27.909,posner_endo_new1,2024.2.4,59.87923555744991,2025-02-13 13h03.40.132331 +0000,
cube_r.png,0.1,-0.31,invalid,9,9,0,down,12.586894300000495,None,space,0.46814570000060485,None,,,,,0,9,9,9,,,,,193.5413348000002,,,,,,,,,,,,,193.52592269999877,193.5413348000002,193.5413348000002,193.5413348000002,206.12933779999912,,,,206.13679359999878,206.14808709999852,206.14808709999852,206.1952358999988,206.19548489999943,206.2117443999996,206.2117443999996,206.2117443999996,206.29502069999944,206.69542199999887,,,,,,,,down,12.586894300000495,None,space,0.46814570000060485,None,,,,,,,,,,,,,,,P107,001,2025-02-13_13h03.27.909,posner_endo_new1,2024.2.4,59.87923555744991,2025-02-13 13h03.40.132331 +0000,
cube_l.png,0.1,0.31,invalid,10,10,0,down,4.568581399998948,None,space,0.3776956000001519,None,,,,,0,10,10,10,,,,,206.71124269999927,,,,,,,,,,,,,206.6956167999997,206.71124269999927,206.71124269999927,206.71124269999927,211.2905925999985,,,,211.29811509999854,211.30950940000002,211.30950940000002,211.35657209999954,211.3568258999985,211.3731278999985,211.3731278999985,211.3731278999985,211.45660270000008,211.7566551,,,,,,,,down,4.568581399998948,None,space,0.3776956000001519,None,,,,,,,,,,,,,,,P107,001,2025-02-13_13h03.27.909,posner_endo_new1,2024.2.4,59.87923555744991,2025-02-13 13h03.40.132331 +0000,
cube_r.png,0.1,-0.31,invalid,11,11,0,down,15.891260299998976,None,space,0.35282069999993837,None,,,,,0,11,11,11,,,,,211.77271990000008,,,,,,,,,,,,,211.7568543999987,211.77271990000008,211.77271990000008,211.77271990000008,227.67377189999934,,,,227.68134199999986,227.6923539999989,227.6923539999989,227.7397738999989,227.7402803999994,227.75617259999854,227.75617259999854,227.75617259999854,227.82277149999936,228.12382499999876,,,,,,,,down,15.891260299998976,None,space,0.35282069999993837,None,,,,,,,,,,,,,,,P107,001,2025-02-13_13h03.27.909,posner_endo_new1,2024.2.4,59.87923555744991,2025-02-13 13h03.40.132331 +0000,
cube_r.png,0.1,0.31,valid,12,12,0,down,5.02901810000003,None,space,0.37357479999991483,None,,,,,0,12,12,12,,,,,228.13912189999974,,,,,,,,,,,,,228.12411520000023,228.13912189999974,228.13912189999974,228.13912189999974,233.18537339999966,,,,233.1970242999996,233.20696639999915,233.20696639999915,233.2509300999991,233.2512756999986,233.2674264999987,233.2674264999987,233.2674264999987,233.35068919999867,233.65157499999987,,,,,,,,down,5.02901810000003,None,space,0.37357479999991483,None,,,,,,,,,,,,,,,P107,001,2025-02-13_13h03.27.909,posner_endo_new1,2024.2.4,59.87923555744991,2025-02-13 13h03.40.132331 +0000,
cube_l.png,0.1,10,catch,13,13,0,down,4.021239700001388,None,None,,,,,,,0,13,13,13,,,,,233.66715529999965,,,,,,,,,,,,,233.6518586000002,233.66715529999965,233.66715529999965,233.66715529999965,237.69737279999936,,,,237.70895009999913,237.71920209999917,237.71920209999917,237.7630277999997,237.763372899999,237.77954630000022,237.77954630000022,237.77954630000022,237.8627789000002,240.77726149999944,,,,239.8774386999994,240.7931314999987,240.7931314999987,240.7931314999987,down,4.021239700001388,None,None,,,,,,,,,,,,,,,,,P107,001,2025-02-13_13h03.27.909,posner_endo_new1,2024.2.4,59.87923555744991,2025-02-13 13h03.40.132331 +0000,
cube_r.png,0.1,-0.31,invalid,14,14,0,down,0.7602455999985978,None,space,0.4159675999999308,None,,,,,0,14,14,14,,,,,240.7931314999987,,,,,,,,,,,,,240.77752749999854,240.7931314999987,240.7931314999987,240.7931314999987,241.5602686000002,,,,241.57180369999878,241.58216209999955,241.58216209999955,241.6257233999986,241.6260631999994,241.64221980000002,241.64221980000002,241.64221980000002,241.72559759999967,242.0598962999993,,,,,,,,down,0.7602455999985978,None,space,0.4159675999999308,None,,,,,,,,,,,,,,,P107,001,2025-02-13_13h03.27.909,posner_endo_new1,2024.2.4,59.87923555744991,2025-02-13 13h03.40.132331 +0000,
cube_l.png,0.1,-0.31,valid,15,15,0,down,6.1012346999996225,None,space,0.4964873999997508,None,,,,,0,15,15,15,,,,,242.0750877999999,,,,,,,,,,,,,242.0601872999996,242.0750877999999,242.0750877999999,242.0750877999999,248.1867119999988,,,,248.1982938000001,248.2085748999998,248.2085748999998,248.2523900999986,248.25273389999893,248.2687219999989,248.2687219999989,248.2687219999989,248.35195239999848,248.7694475999997,,,,,,,,down,6.1012346999996225,None,space,0.4964873999997508,None,,,,,,,,,,,,,,,P107,001,2025-02-13_13h03.27.909,posner_endo_new1,2024.2.4,59.87923555744991,2025-02-13 13h03.40.132331 +0000,
cube_r.png,0.1,10,catch,16,16,0,down,2.926812700001392,None,None,,,,,,,0,16,16,16,,,,,248.78498529999888,,,,,,,,,,,,,248.7697307999988,248.78498529999888,248.78498529999888,248.78498529999888,251.7166879999986,,,,251.72826299999906,251.73888599999918,251.73888599999918,251.78200789999937,251.78234829999928,251.79856870000003,251.79856870000003,251.79856870000003,251.8816655999999,254.7962625,,,,253.89639949999946,254.81187510000018,254.81187510000018,254.81187510000018,down,2.926812700001392,None,None,,,,,,,,,,,,,,,,,P107,001,2025-02-13_13h03.27.909,posner_endo_new1,2024.2.4,59.87923555744991,2025-02-13 13h03.40.132331 +0000,
cube_r.png,0.1,10,catch,17,17,0,down,3.147626099998888,None,None,,,,,,,0,17,17,17,,,,,254.81187510000018,,,,,,,,,,,,,254.79652649999844,254.81187510000018,254.81187510000018,254.81187510000018,257.976306999999,,,,257.9831680999996,257.9946917999987,257.9946917999987,258.0421735,258.0423936999996,258.0586638999994,258.0586638999994,258.0586638999994,258.12535260000004,261.0562725999989,,,,260.13964269999997,261.07207579999886,261.07207579999886,261.07207579999886,down,3.147626099998888,None,None,,,,,,,,,,,,,,,,,P107,001,2025-02-13_13h03.27.909,posner_endo_new1,2024.2.4,59.87923555744991,2025-02-13 13h03.40.132331 +0000,
cube_l.png,0.1,0.31,invalid,18,18,0,down,1.0394944999989093,None,space,0.5461348999997426,None,,,,,0,18,18,18,,,,,261.07207579999886,,,,,,,,,,,,,261.0566136999987,261.07207579999886,261.07207579999886,261.07207579999886,262.12255919999916,,,,262.1375406999996,262.1479299999992,262.1479299999992,262.18774419999863,262.1881711999995,262.20420809999996,262.20420809999996,262.20420809999996,262.28746429999956,262.7551724999994,,,,,,,,down,1.0394944999989093,None,space,0.5461348999997426,None,,,,,,,,,,,,,,,P107,001,2025-02-13_13h03.27.909,posner_endo_new1,2024.2.4,59.87923555744991,2025-02-13 13h03.40.132331 +0000,
cube_l.png,0.1,10,catch,19,19,0,down,4.885867700000745,None,None,,,,,,,0,19,19,19,,,,,262.77027949999865,,,,,,,,,,,,,262.7555414999988,262.77027949999865,262.77027949999865,262.77027949999865,267.6666630999989,,,,267.6765349999987,267.68670980000024,267.68670980000024,267.73217060000025,267.7324716999992,267.74884719999864,267.74884719999864,267.74884719999864,267.8321503999996,270.74640499999987,,,,269.8468436999992,270.7624519000001,270.7624519000001,270.7624519000001,down,4.885867700000745,None,None,,,,,,,,,,,,,,,,,P107,001,2025-02-13_13h03.27.909,posner_endo_new1,2024.2.4,59.87923555744991,2025-02-13 13h03.40.132331 +0000,
cube_l.png,0.1,0.31,invalid,20,20,0,down,2.365691199998764,None,space,0.2526963000000251,None,,,,,0,20,20,20,,,,,270.7624519000001,,,,,,,,,,,,,270.74663709999913,270.7624519000001,270.7624519000001,270.7624519000001,273.1458533999994,,,,273.1687184000002,273.17875019999883,273.17875019999883,273.2097808999988,273.2102213999988,273.2262375999999,273.2262375999999,273.2262375999999,273.30948910000006,273.49415899999985,,,,,,,,down,2.365691199998764,None,space,0.2526963000000251,None,,,,,,,,,,,,,,,P107,001,2025-02-13_13h03.27.909,posner_endo_new1,2024.2.4,59.87923555744991,2025-02-13 13h03.40.132331 +0000,
cube_l.png,0.1,-0.31,valid,21,21,0,down,4.059193799999775,None,space,0.4651356999984273,None,,,,,0,21,21,21,,,,,273.50928059999933,,,,,,,,,,,,,273.4945243000002,273.50928059999933,273.50928059999933,273.50928059999933,277.573163699999,,,,277.5830000999995,277.5931456999988,277.5931456999988,277.63880549999885,277.63911169999847,277.65534789999947,277.65534789999947,277.65534789999947,277.738799499999,278.1226262,,,,,,,,down,4.059193799999775,None,space,0.4651356999984273,None,,,,,,,,,,,,,,,P107,001,2025-02-13_13h03.27.909,posner_endo_new1,2024.2.4,59.87923555744991,2025-02-13 13h03.40.132331 +0000,
cube_r.png,0.1,0.31,valid,22,22,0,down,3.877791700000671,None,space,0.5292859000001044,None,,,,,0,22,22,22,,,,,278.13827889999993,,,,,,,,,,,,,278.1228855999998,278.13827889999993,278.13827889999993,278.13827889999993,282.0187628999993,,,,282.0287137999985,282.0392121999994,282.0392121999994,282.0843386999986,282.08464119999917,282.10094089999984,282.10094089999984,282.10094089999984,282.18411319999905,282.6348065000002,,,,,,,,down,3.877791700000671,None,space,0.5292859000001044,None,,,,,,,,,,,,,,,P107,001,2025-02-13_13h03.27.909,posner_endo_new1,2024.2.4,59.87923555744991,2025-02-13 13h03.40.132331 +0000,
cube_r.png,0.1,-0.31,invalid,23,23,0,down,4.47798259999945,None,space,0.24463699999978417,None,,,,,0,23,23,23,,,,,282.6502139999993,,,,,,,,,,,,,282.6350547000002,282.6502139999993,282.6502139999993,282.6502139999993,287.1301335999997,,,,287.14004269999896,287.1502528000001,287.1502528000001,287.19581039999866,287.1961190000002,287.2123428999985,287.2123428999985,287.2123428999985,287.295573899999,287.4630843999985,,,,,,,,down,4.47798259999945,None,space,0.24463699999978417,None,,,,,,,,,,,,,,,P107,001,2025-02-13_13h03.27.909,posner_endo_new1,2024.2.4,59.87923555744991,2025-02-13 13h03.40.132331 +0000,
cube_r.png,0.1,0.31,valid,24,24,0,down,7.233490999999049,None,space,0.21766739999839047,None,,,,,0,24,24,24,,,,,287.4787605999991,,,,,,,,,,,,,287.46333369999957,287.4787605999991,287.4787605999991,287.4787605999991,294.7224150000002,,,,294.73262409999916,294.74263879999853,294.74263879999853,294.7880669999995,294.788373899999,294.8045790999986,294.8045790999986,294.8045790999986,294.88776809999945,295.0387300000002,,,,,,,,down,7.233490999999049,None,space,0.21766739999839047,None,,,,,,,,,,,,,,,P107,001,2025-02-13_13h03.27.909,posner_endo_new1,2024.2.4,59.87923555744991,2025-02-13 13h03.40.132331 +0000,
cube_r.png,0.1,-0.31,invalid,25,25,0,down,3.866125099999408,None,space,0.2875294000004942,None,,,,,0,25,25,25,,,,,295.05423059999885,,,,,,,,,,,,,295.03897679999864,295.05423059999885,295.05423059999885,295.05423059999885,298.93485689999943,,,,298.94498049999856,298.95499839999866,298.95499839999866,299.00052529999994,299.0008349999989,299.01682769999934,299.01682769999934,299.01682769999934,299.1001433000001,299.3173859999988,,,,,,,,down,3.866125099999408,None,space,0.2875294000004942,None,,,,,,,,,,,,,,,P107,001,2025-02-13_13h03.27.909,posner_endo_new1,2024.2.4,59.87923555744991,2025-02-13 13h03.40.132331 +0000,
cube_l.png,0.1,-0.31,valid,26,26,0,down,7.298885999998674,None,space,0.25810720000117726,None,,,,,0,26,26,26,,,,,299.33319459999984,,,,,,,,,,,,,299.31763539999884,299.33319459999984,299.33319459999984,299.33319459999984,306.6434402999985,,,,306.6533714999987,306.66337979999844,306.66337979999844,306.70956209999895,306.71024450000004,306.7258517999999,306.7258517999999,306.7258517999999,306.80919509999876,306.99474869999904,,,,,,,,down,7.298885999998674,None,space,0.25810720000117726,None,,,,,,,,,,,,,,,P107,001,2025-02-13_13h03.27.909,posner_endo_new1,2024.2.4,59.87923555744991,2025-02-13 13h03.40.132331 +0000,
cube_r.png,0.1,0.31,valid,27,27,0,down,3.7267793999999412,None,space,0.26568520000000717,None,,,,,0,27,27,27,,,,,307.00909200000024,,,,,,,,,,,,,306.9953476999999,307.00909200000024,307.00909200000024,307.00909200000024,310.74119040000005,,,,310.76452119999885,310.77674489999845,310.77674489999845,310.8047544000001,310.80520400000023,310.8211530999997,310.8211530999997,310.8211530999997,310.9044436999993,311.08920549999857,,,,,,,,down,3.7267793999999412,None,space,0.26568520000000717,None,,,,,,,,,,,,,,,P107,001,2025-02-13_13h03.27.909,posner_endo_new1,2024.2.4,59.87923555744991,2025-02-13 13h03.40.132331 +0000,
cube_r.png,0.1,10,catch,28,28,0,down,3.4393810000001395,None,space,0.2673990000002959,None,,,,,0,28,28,28,,,,,311.10421700000006,,,,,,,,,,,,,311.0895724999991,311.10421700000006,311.10421700000006,311.10421700000006,314.5522371999996,,,,314.5620807999985,314.5722190999986,314.5722190999986,314.6176300999996,314.61793279999983,314.63425180000013,314.63425180000013,314.63425180000013,314.7174309000002,314.918327899999,,,,,,,,down,3.4393810000001395,None,space,0.2673990000002959,None,,,,,,,,,,,,,,,P107,001,2025-02-13_13h03.27.909,posner_endo_new1,2024.2.4,59.87923555744991,2025-02-13 13h03.40.132331 +0000,
cube_r.png,0.1,0.31,valid,29,29,0,down,2.898117099999581,None,space,0.2539441999997507,None,,,,,0,29,29,29,,,,,314.93391249999877,,,,,,,,,,,,,314.9185755999988,314.93391249999877,314.93391249999877,314.93391249999877,317.84883269999955,,,,317.85905809999895,317.8688321999998,317.8688321999998,317.91437029999906,317.91467289999855,317.93098589999863,317.93098589999863,317.93098589999863,318.01398489999883,318.19833669999935,,,,,,,,down,2.898117099999581,None,space,0.2539441999997507,None,,,,,,,,,,,,,,,P107,001,2025-02-13_13h03.27.909,posner_endo_new1,2024.2.4,59.87923555744991,2025-02-13 13h03.40.132331 +0000,
cube_r.png,0.1,0.31,valid,30,30,0,down,3.6743616000003385,None,space,0.3564024999996036,None,,,,,0,30,30,30,,,,,318.2139040000002,,,,,,,,,,,,,318.1985851999998,318.2139040000002,318.2139040000002,318.2139040000002,321.89458209999975,,,,321.9043664000001,321.91458779999994,321.91458779999994,321.96018529999856,321.96049349999885,321.9767211999988,321.9767211999988,321.9767211999988,322.06006829999933,322.3441623999988,,,,,,,,down,3.6743616000003385,None,space,0.3564024999996036,None,,,,,,,,,,,,,,,P107,001,2025-02-13_13h03.27.909,posner_endo_new1,2024.2.4,59.87923555744991,2025-02-13 13h03.40.132331 +0000,
cube_l.png,0.1,-0.31,valid,31,31,0,down,3.441164200001367,None,space,0.35526670000035665,None,,,,,0,31,31,31,,,,,322.3597347999985,,,,,,,,,,,,,322.34441179999885,322.3597347999985,322.3597347999985,322.3597347999985,325.80727149999984,,,,325.81705489999877,325.82701689999885,325.82701689999885,325.8729223999999,325.873222799999,325.88944850000007,325.88944850000007,325.88944850000007,325.97263479999856,326.2570287999988,,,,,,,,down,3.441164200001367,None,space,0.35526670000035665,None,,,,,,,,,,,,,,,P107,001,2025-02-13_13h03.27.909,posner_endo_new1,2024.2.4,59.87923555744991,2025-02-13 13h03.40.132331 +0000,
cube_r.png,0.1,0.31,valid,32,32,0,down,3.3439130000006116,None,space,0.3370940000004339,None,,,,,0,32,32,32,,,,,326.2723995999986,,,,,,,,,,,,,326.25727709999956,326.2723995999986,326.2723995999986,326.2723995999986,329.6199498999995,,,,329.6285893999993,329.6385689999988,329.6385689999988,329.68555299999935,329.6857749999999,329.70223049999913,329.70223049999913,329.70223049999913,329.78544150000016,330.0524303000002,,,,,,,,down,3.3439130000006116,None,space,0.3370940000004339,None,,,,,,,,,,,,,,,P107,001,2025-02-13_13h03.27.909,posner_endo_new1,2024.2.4,59.87923555744991,2025-02-13 13h03.40.132331 +0000,
cube_r.png,0.1,-0.31,invalid,33,33,0,down,2.9954180999993696,None,space,0.4142694999991363,None,,,,,0,33,33,33,,,,,330.06861149999895,,,,,,,,,,,,,330.0526054999991,330.06861149999895,330.06861149999895,330.06861149999895,333.06628230000024,,,,333.07286269999895,333.0845696999986,333.0845696999986,333.1321990999986,333.13243069999953,333.14866579999943,333.14866579999943,333.14866579999943,333.21539759999905,333.5657013,,,,,,,,down,2.9954180999993696,None,space,0.4142694999991363,None,,,,,,,,,,,,,,,P107,001,2025-02-13_13h03.27.909,posner_endo_new1,2024.2.4,59.87923555744991,2025-02-13 13h03.40.132331 +0000,
cube_r.png,0.1,10,catch,34,34,0,down,3.2916151999997965,None,None,,,,,,,0,34,34,34,,,,,333.5815103999994,,,,,,,,,,,,,333.5658741999996,333.5815103999994,333.5815103999994,333.5815103999994,336.87952419999965,,,,336.88959859999886,336.8991928999985,336.8991928999985,336.9448658000001,336.9451035000002,336.96162299999924,336.96162299999924,336.96162299999924,337.0447559999993,339.95898849999867,,,,339.0594139999994,339.9749118999989,339.9749118999989,339.9749118999989,down,3.2916151999997965,None,None,,,,,,,,,,,,,,,,,P107,001,2025-02-13_13h03.27.909,posner_endo_new1,2024.2.4,59.87923555744991,2025-02-13 13h03.40.132331 +0000,
cube_r.png,0.1,0.31,valid,35,35,0,down,0.24876030000086757,None,space,0.3830992999992304,None,,,,,0,35,35,35,,,,,339.9749118999989,,,,,,,,,,,,,339.95915929999865,339.9749118999989,339.9749118999989,339.9749118999989,340.22577809999893,,,,340.2327580000001,340.244514,340.244514,340.29133289999845,340.29176329999973,340.30775679999897,340.30775679999897,340.30775679999897,340.3910027999991,340.6923986999991,,,,,,,,down,0.24876030000086757,None,space,0.3830992999992304,None,,,,,,,,,,,,,,,P107,001,2025-02-13_13h03.27.909,posner_endo_new1,2024.2.4,59.87923555744991,2025-02-13 13h03.40.132331 +0000,
cube_r.png,0.1,-0.31,invalid,36,36,0,down,3.45299740000155,None,space,0.44221229999857314,None,,,,,0,36,36,36,,,,,340.7073124999988,,,,,,,,,,,,,340.69277429999966,340.7073124999988,340.7073124999988,340.7073124999988,344.1718757999988,,,,344.18171919999986,344.1919253999986,344.1919253999986,344.2378943999993,344.2381970999995,344.2540405,344.2540405,344.2540405,344.33727459999864,344.70459389999996,,,,,,,,down,3.45299740000155,None,space,0.44221229999857314,None,,,,,,,,,,,,,,,P107,001,2025-02-13_13h03.27.909,posner_endo_new1,2024.2.4,59.87923555744991,2025-02-13 13h03.40.132331 +0000,
cube_l.png,0.1,0.31,invalid,37,37,0,down,2.8159176999997726,None,space,0.3180534999992233,None,,,,,0,37,37,37,,,,,344.72009069999876,,,,,,,,,,,,,344.7048451999999,344.72009069999876,344.72009069999876,344.72009069999876,347.55165549999947,,,,347.56148329999996,347.5716761999993,347.5716761999993,347.6173084999991,347.6176153999986,347.6338778999998,347.6338778999998,347.6338778999998,347.71710769999845,347.96794749999935,,,,,,,,down,2.8159176999997726,None,space,0.3180534999992233,None,,,,,,,,,,,,,,,P107,001,2025-02-13_13h03.27.909,posner_endo_new1,2024.2.4,59.87923555744991,2025-02-13 13h03.40.132331 +0000,
cube_l.png,0.1,0.31,invalid,38,38,0,down,3.2328348999999434,None,space,0.4277438999997685,None,,,,,0,38,38,38,,,,,347.98360519999915,,,,,,,,,,,,,347.9681996999989,347.98360519999915,347.98360519999915,347.98360519999915,351.2312191000001,,,,351.2410407999996,351.2513146000001,351.2513146000001,351.29697419999866,351.2972764999995,351.3135241,351.3135241,351.3135241,351.3966958000001,351.74742999999944,,,,,,,,down,3.2328348999999434,None,space,0.4277438999997685,None,,,,,,,,,,,,,,,P107,001,2025-02-13_13h03.27.909,posner_endo_new1,2024.2.4,59.87923555744991,2025-02-13 13h03.40.132331 +0000,
cube_r.png,0.1,0.31,valid,39,39,0,down,11.172929600001225,None,space,0.33516360000066925,None,,,,,0,39,39,39,,,,,351.76298439999846,,,,,,,,,,,,,351.74767769999926,351.76298439999846,351.76298439999846,351.76298439999846,362.9525924999998,,,,362.9625297999992,362.9722133999985,362.9722133999985,363.01834079999935,363.0186453999995,363.0347144999996,363.0347144999996,363.0347144999996,363.11783939999987,363.38543429999845,,,,,,,,down,11.172929600001225,None,space,0.33516360000066925,None,,,,,,,,,,,,,,,P107,001,2025-02-13_13h03.27.909,posner_endo_new1,2024.2.4,59.87923555744991,2025-02-13 13h03.40.132331 +0000,
cube_l.png,0.1,0.31,invalid,40,40,0,down,4.359513000001243,None,space,0.3550983000004635,None,,,,,0,40,40,40,,,,,363.4010798999989,,,,,,,,,,,,,363.385680899999,363.4010798999989,363.4010798999989,363.4010798999989,367.76448399999936,,,,367.77432189999854,367.7844731999994,367.7844731999994,367.83005889999913,367.830363699999,367.84643270000015,367.84643270000015,367.84643270000015,367.9298841999989,368.2139017999998,,,,,,,,down,4.359513000001243,None,space,0.3550983000004635,None,,,,,,,,,,,,,,,P107,001,2025-02-13_13h03.27.909,posner_endo_new1,2024.2.4,59.87923555744991,2025-02-13 13h03.40.132331 +0000,
cube_l.png,0.1,10,catch,41,41,0,down,5.066863199999716,None,None,,,,,,,0,41,41,41,,,,,368.22949139999946,,,,,,,,,,,,,368.2141456999998,368.22949139999946,368.22949139999946,368.22949139999946,373.3086973999998,,,,373.3186977999994,373.3286860999997,373.3286860999997,373.37442799999917,373.3747309999999,373.39091349999944,373.39091349999944,373.39091349999944,373.47408299999915,376.388484699999,,,,375.48881280000023,376.4044809999996,376.4044809999996,376.4044809999996,down,5.066863199999716,None,None,,,,,,,,,,,,,,,,,P107,001,2025-02-13_13h03.27.909,posner_endo_new1,2024.2.4,59.87923555744991,2025-02-13 13h03.40.132331 +0000,
cube_l.png,0.1,-0.31,valid,42,42,0,down,2.339568399998825,None,space,0.33896289999938745,None,,,,,0,42,42,42,,,,,376.4044809999996,,,,,,,,,,,,,376.388715699999,376.4044809999996,376.4044809999996,376.4044809999996,378.75310609999906,,,,378.76284399999895,378.7730233000002,378.7730233000002,378.81881749999957,378.81912589999956,378.8353083000002,378.8353083000002,378.8353083000002,378.9185450999994,379.18611059999967,,,,,,,,down,2.339568399998825,None,space,0.33896289999938745,None,,,,,,,,,,,,,,,P107,001,2025-02-13_13h03.27.909,posner_endo_new1,2024.2.4,59.87923555744991,2025-02-13 13h03.40.132331 +0000,
cube_l.png,0.1,10,catch,43,43,0,down,4.126593999999386,None,None,,,,,,,0,43,43,43,,,,,379.20159349999994,,,,,,,,,,,,,379.1863775999991,379.20159349999994,379.20159349999994,379.20159349999994,383.3317962000001,,,,383.3415780999985,383.3517919999995,383.3517919999995,383.397487799999,383.39778899999874,383.4139620999995,383.4139620999995,383.4139620999995,383.49736139999914,386.4116285,,,,385.5119089,386.427635,386.427635,386.427635,down,4.126593999999386,None,None,,,,,,,,,,,,,,,,,P107,001,2025-02-13_13h03.27.909,posner_endo_new1,2024.2.4,59.87923555744991,2025-02-13 13h03.40.132331 +0000,
cube_l.png,0.1,0.31,invalid,44,44,0,down,2.1245613000010053,None,space,0.41134059999967576,None,,,,,0,44,44,44,,,,,386.427635,,,,,,,,,,,,,386.41186879999987,386.427635,386.427635,386.427635,388.55973039999844,,,,388.5695199999991,388.57973369999854,388.57973369999854,388.6254541999988,388.62576159999844,388.64189239999905,388.64189239999905,388.64189239999905,388.7252430999997,389.0592704999999,,,,,,,,down,2.1245613000010053,None,space,0.41134059999967576,None,,,,,,,,,,,,,,,P107,001,2025-02-13_13h03.27.909,posner_endo_new1,2024.2.4,59.87923555744991,2025-02-13 13h03.40.132331 +0000,
cube_l.png,0.1,0.31,invalid,45,45,0,down,3.829487999999401,None,space,0.35569070000019565,None,,,,,0,45,45,45,,,,,389.0748402999998,,,,,,,,,,,,,389.0595212999997,389.0748402999998,389.0748402999998,389.0748402999998,392.90544599999885,,,,392.9151757999989,392.92530409999927,392.92530409999927,392.9710636999989,392.9713713000001,392.98758499999894,392.98758499999894,392.98758499999894,393.0708227999985,393.3548319999991,,,,,,,,down,3.829487999999401,None,space,0.35569070000019565,None,,,,,,,,,,,,,,,P107,001,2025-02-13_13h03.27.909,posner_endo_new1,2024.2.4,59.87923555744991,2025-02-13 13h03.40.132331 +0000,
cube_r.png,0.1,0.31,valid,46,46,0,down,3.191098700001021,None,space,0.4802220000001398,None,,,,,0,46,46,46,,,,,393.3706427999987,,,,,,,,,,,,,393.35507659999894,393.3706427999987,393.3706427999987,393.3706427999987,396.5684100999988,,,,396.5780946999985,396.58828279999943,396.58828279999943,396.63393019999967,396.6342307999985,396.65045439999994,396.65045439999994,396.65045439999994,396.73371549999865,397.1344907999992,,,,,,,,down,3.191098700001021,None,space,0.4802220000001398,None,,,,,,,,,,,,,,,P107,001,2025-02-13_13h03.27.909,posner_endo_new1,2024.2.4,59.87923555744991,2025-02-13 13h03.40.132331 +0000,
cube_l.png,0.1,-0.31,valid,47,47,0,down,6.138217700001405,None,space,0.3963485000003857,None,,,,,0,47,47,47,,,,,397.1498909000002,,,,,,,,,,,,,397.1347410999988,397.1498909000002,397.1498909000002,397.1498909000002,403.29469979999885,,,,403.3044467999989,403.3146777000002,403.3146777000002,403.36042049999924,403.36072779999995,403.3768545999992,403.3768545999992,403.3768545999992,403.46023629999945,403.77775680000013,,,,,,,,down,6.138217700001405,None,space,0.3963485000003857,None,,,,,,,,,,,,,,,P107,001,2025-02-13_13h03.27.909,posner_endo_new1,2024.2.4,59.87923555744991,2025-02-13 13h03.40.132331 +0000,
cube_r.png,0.1,-0.31,invalid,48,48,0,down,4.782816400000229,None,space,0.4373550999989675,None,,,,,0,48,48,48,,,,,403.7930497999987,,,,,,,,,,,,,403.7780040999987,403.7930497999987,403.7930497999987,403.7930497999987,408.5894661000002,,,,408.59928789999867,408.60940299999857,408.60940299999857,408.65504229999897,408.65534449999905,408.67150239999864,408.67150239999864,408.67150239999864,408.75479429999905,409.1221502999997,,,,,,,,down,4.782816400000229,None,space,0.4373550999989675,None,,,,,,,,,,,,,,,P107,001,2025-02-13_13h03.27.909,posner_endo_new1,2024.2.4,59.87923555744991,2025-02-13 13h03.40.132331 +0000,
cube_r.png,0.1,10,catch,49,49,0,down,4.2305677000003925,None,None,,,,,,,0,49,49,49,,,,,409.13772979999885,,,,,,,,,,,,,409.1223947999988,409.13772979999885,409.13772979999885,409.13772979999885,413.3843804999997,,,,413.3941873999993,413.40433569999914,413.40433569999914,413.4501384999985,413.45045329999994,413.4666512999993,413.4666512999993,413.4666512999993,413.5498403999991,416.46404040000016,,,,415.56444759999977,416.4801471999999,416.4801471999999,416.4801471999999,down,4.2305677000003925,None,None,,,,,,,,,,,,,,,,,P107,001,2025-02-13_13h03.27.909,posner_endo_new1,2024.2.4,59.87923555744991,2025-02-13 13h03.40.132331 +0000,
cube_l.png,0.1,-0.31,valid,50,50,0,down,5.5761727999997674,None,space,0.38020069999947737,None,,,,,0,50,50,50,,,,,416.4801471999999,,,,,,,,,,,,,416.4642705999995,416.4801471999999,416.4801471999999,416.4801471999999,422.0589767999991,,,,422.06879839999965,422.07896569999866,422.07896569999866,422.1246085999992,422.12491129999944,422.14110509999955,422.14110509999955,422.14110509999955,422.224318999999,422.5252141000001,,,,,,,,down,5.5761727999997674,None,space,0.38020069999947737,None,,,,,,,,,,,,,,,P107,001,2025-02-13_13h03.27.909,posner_endo_new1,2024.2.4,59.87923555744991,2025-02-13 13h03.40.132331 +0000,
cube_l.png,0.1,-0.31,valid,51,51,0,down,5.075635499999407,None,space,0.4151694000011048,None,,,,,0,51,51,51,,,,,422.5407589999995,,,,,,,,,,,,,422.5254664999993,422.5407589999995,422.5407589999995,422.5407589999995,427.61990539999897,,,,427.6298079999997,427.64007109999875,427.64007109999875,427.6855739999992,427.68587729999854,427.702072099999,427.702072099999,427.702072099999,427.78515960000004,428.11960139999974,,,,,,,,down,5.075635499999407,None,space,0.4151694000011048,None,,,,,,,,,,,,,,,P107,001,2025-02-13_13h03.27.909,posner_endo_new1,2024.2.4,59.87923555744991,2025-02-13 13h03.40.132331 +0000,
cube_r.png,0.1,-0.31,invalid,52,52,0,down,4.497516800000085,None,space,0.4276249000013195,None,,,,,0,52,52,52,,,,,428.13492249999945,,,,,,,,,,,,,428.11984649999977,428.13492249999945,428.13492249999945,428.13492249999945,432.64805139999953,,,,432.65785700000015,432.6680858,432.6680858,432.71373200000016,432.71403610000016,432.73016709999865,432.73016709999865,432.73016709999865,432.8135345999999,433.16428429999905,,,,,,,,down,4.497516800000085,None,space,0.4276249000013195,None,,,,,,,,,,,,,,,P107,001,2025-02-13_13h03.27.909,posner_endo_new1,2024.2.4,59.87923555744991,2025-02-13 13h03.40.132331 +0000,
cube_l.png,0.1,-0.31,valid,53,53,0,down,4.908004900000378,None,space,0.38910089999990305,None,,,,,0,53,53,53,,,,,433.1798807999985,,,,,,,,,,,,,433.1645386,433.1798807999985,433.1798807999985,433.1798807999985,438.09256490000007,,,,438.10239399999955,438.1125459999985,438.1125459999985,438.1581879999994,438.15849269999853,438.17467039999974,438.17467039999974,438.17467039999974,438.25807279999935,438.57532189999984,,,,,,,,down,4.908004900000378,None,space,0.38910089999990305,None,,,,,,,,,,,,,,,P107,001,2025-02-13_13h03.27.909,posner_endo_new1,2024.2.4,59.87923555744991,2025-02-13 13h03.40.132331 +0000,
cube_r.png,0.1,10,catch,54,54,0,down,3.489391400000386,None,None,,,,,,,0,54,54,54,,,,,438.59088039999915,,,,,,,,,,,,,438.57557429999906,438.59088039999915,438.59088039999915,438.59088039999915,442.0885456999986,,,,442.0978450999992,442.1074641999985,442.1074641999985,442.1541488999992,442.15437380000003,442.17077379999864,442.17077379999864,442.17077379999864,442.25392999999895,445.168075399999,,,,444.2684709999994,445.18441469999925,445.18441469999925,445.18441469999925,down,3.489391400000386,None,None,,,,,,,,,,,,,,,,,P107,001,2025-02-13_13h03.27.909,posner_endo_new1,2024.2.4,59.87923555744991,2025-02-13 13h03.40.132331 +0000,
cube_l.png,0.1,0.31,invalid,55,55,0,down,5.34403200000088,None,space,0.5008437000014965,None,,,,,0,55,55,55,,,,,445.18441469999925,,,,,,,,,,,,,445.16823829999885,445.18441469999925,445.18441469999925,445.18441469999925,450.52971009999965,,,,450.53613699999914,450.54794479999873,450.54794479999873,450.5952284999985,450.59568169999875,450.61167019999993,450.61167019999993,450.61167019999993,450.6949095,451.12916009999935,,,,,,,,down,5.34403200000088,None,space,0.5008437000014965,None,,,,,,,,,,,,,,,P107,001,2025-02-13_13h03.27.909,posner_endo_new1,2024.2.4,59.87923555744991,2025-02-13 13h03.40.132331 +0000,
cube_l.png,0.1,-0.31,valid,56,56,0,down,2.903232900000148,None,space,0.4041269999997894,None,,,,,0,56,56,56,,,,,451.14481819999855,,,,,,,,,,,,,451.12941580000006,451.14481819999855,451.14481819999855,451.14481819999855,454.0594474999998,,,,454.0681509999995,454.07813949999945,454.07813949999945,454.1253221999996,454.12554459999956,454.141663299999,454.141663299999,454.141663299999,454.2248536999996,454.55863639999916,,,,,,,,down,2.903232900000148,None,space,0.4041269999997894,None,,,,,,,,,,,,,,,P107,001,2025-02-13_13h03.27.909,posner_endo_new1,2024.2.4,59.87923555744991,2025-02-13 13h03.40.132331 +0000,
cube_r.png,0.1,0.31,valid,57,57,0,down,3.129274799999621,None,space,0.48903489999975136,None,,,,,0,57,57,57,,,,,454.57468849999896,,,,,,,,,,,,,454.5588061999988,454.57468849999896,454.57468849999896,454.57468849999896,457.70567309999933,,,,457.7121013999986,457.7238706999997,457.7238706999997,457.7714355999997,457.7716587999985,457.78818929999943,457.78818929999943,457.78818929999943,457.85459939999964,458.28869769999983,,,,,,,,down,3.129274799999621,None,space,0.48903489999975136,None,,,,,,,,,,,,,,,P107,001,2025-02-13_13h03.27.909,posner_endo_new1,2024.2.4,59.87923555744991,2025-02-13 13h03.40.132331 +0000,
cube_r.png,0.1,-0.31,invalid,58,58,0,down,3.408510799999931,None,space,0.3820015000001149,None,,,,,0,58,58,58,,,,,458.30383509999956,,,,,,,,,,,,,458.2890579999985,458.30383509999956,458.30383509999956,458.30383509999956,461.71849179999845,,,,461.7283575999991,461.7388529,461.7388529,461.7840264999995,461.784336499999,461.80056609999883,461.80056609999883,461.80056609999883,461.88386569999966,462.18466609999996,,,,,,,,down,3.408510799999931,None,space,0.3820015000001149,None,,,,,,,,,,,,,,,P107,001,2025-02-13_13h03.27.909,posner_endo_new1,2024.2.4,59.87923555744991,2025-02-13 13h03.40.132331 +0000,
cube_l.png,0.1,0.31,invalid,59,59,0,down,3.2410815999992337,None,space,0.4940942000012001,None,,,,,0,59,59,59,,,,,462.20019539999885,,,,,,,,,,,,,462.1849072999994,462.20019539999885,462.20019539999885,462.20019539999885,465.4480008999999,,,,465.45782849999887,465.4680704000002,465.4680704000002,465.5136892999999,465.5139898999987,465.53008899999986,465.53008899999986,465.53008899999986,465.61334290000013,466.03044520000003,,,,,,,,down,3.2410815999992337,None,space,0.4940942000012001,None,,,,,,,,,,,,,,,P107,001,2025-02-13_13h03.27.909,posner_endo_new1,2024.2.4,59.87923555744991,2025-02-13 13h03.40.132331 +0000,
,,,,,,,,,,,,,,,,,,,,,,,,,,,,,,,,,,,,,,,,,,,,,,,,,,,,,,,,,,,,,,,,,,,,,466.0306036999991,466.04615229999945,466.04615229999945,526.0515723999997,579.3483860999986,space,113.29825700000038,None,,,,,,,P107,001,2025-02-13_13h03.27.909,posner_endo_new1,2024.2.4,59.87923555744991,2025-02-13 13h03.40.132331 +0000,
,,,,,,,,,,,,,,,,,,,,,,,,,,,,,,,,,,579.3484727999985,579.3638773999992,582.3766694999995,582.3447921999996,,,,,,,,,,,,,,,,,,,,,,,,,,,,,,,,,,,,,,,,,,,,,,P107,001,2025-02-13_13h03.27.909,posner_endo_new1,2024.2.4,59.87923555744991,2025-02-13 13h03.40.132331 +0000,
cube_l.png,0.1,10,catch,0,0,0,up,1.511495599999762,None,None,,,,,,,,,,,0,0,0,0,582.3766694999995,,,,,,,,,,,,,582.3673528999989,582.3766694999995,582.3766694999995,582.3766694999995,583.8939322999995,,,,583.9068063999985,583.9170483999987,583.9170483999987,583.9593233999985,583.9596783999987,583.9757279999994,583.9757279999994,583.9757279999994,584.059038899999,586.9736005999985,,,,586.0737075999987,586.9894097999986,586.9894097999986,586.9894097999986,,,,,,,,,,,,,,,up,1.511495599999762,None,None,,,P107,001,2025-02-13_13h03.27.909,posner_endo_new1,2024.2.4,59.87923555744991,2025-02-13 13h03.40.132331 +0000,
cube_l.png,0.1,10,catch,1,1,0,up,3.171470600000248,None,None,,,,,,,,,,,0,1,1,1,586.9894097999986,,,,,,,,,,,,,586.973872999999,586.9894097999986,586.9894097999986,586.9894097999986,590.170685699999,,,,590.1803034999994,590.1900295999985,590.1900295999985,590.2366403999986,590.2368748999997,590.2526776999985,590.2526776999985,590.2526776999985,590.3359739999996,593.2502538999997,,,,592.3505280999998,593.2664458999989,593.2664458999989,593.2664458999989,,,,,,,,,,,,,,,up,3.171470600000248,None,None,,,P107,001,2025-02-13_13h03.27.909,posner_endo_new1,2024.2.4,59.87923555744991,2025-02-13 13h03.40.132331 +0000,
cube_l.png,0.1,0.31,invalid,2,2,0,up,19.309634499999447,None,space,0.574504899999738,None,,,,,,,,,0,2,2,2,593.2664458999989,,,,,,,,,,,,,593.2504276999989,593.2664458999989,593.2664458999989,593.2664458999989,612.5806882999987,,,,612.5880849999994,612.5995215999992,612.5995215999992,612.6465025999987,612.6467414999988,612.6632453999991,612.6632453999991,612.6632453999991,612.7463653999985,613.2465937999987,,,,,,,,,,,,,,,,,,,,,,up,19.309634499999447,None,space,0.574504899999738,None,P107,001,2025-02-13_13h03.27.909,posner_endo_new1,2024.2.4,59.87923555744991,2025-02-13 13h03.40.132331 +0000,
cube_l.png,0.1,0.31,invalid,3,3,0,up,6.0902855999993335,None,space,0.40922669999963546,None,,,,,,,,,0,3,3,3,613.2625774999997,,,,,,,,,,,,,613.2467844999992,613.2625774999997,613.2625774999997,613.2625774999997,619.3573474999994,,,,619.3644969999987,619.3759298999994,619.3759298999994,619.4229079999986,619.4231323999993,619.4394300999993,619.4394300999993,619.4394300999993,619.5228150999992,619.8565382999986,,,,,,,,,,,,,,,,,,,,,,up,6.0902855999993335,None,space,0.40922669999963546,None,P107,001,2025-02-13_13h03.27.909,posner_endo_new1,2024.2.4,59.87923555744991,2025-02-13 13h03.40.132331 +0000,
cube_l.png,0.1,-0.31,valid,4,4,0,up,7.248017900001287,None,space,0.3848515999998199,None,,,,,,,,,0,4,4,4,619.8724267999987,,,,,,,,,,,,,619.8567114999987,619.8724267999987,619.8724267999987,619.8724267999987,627.132866599999,,,,627.1419569999998,627.1516656999993,627.1516656999993,627.1982697999993,627.1984897999992,627.2149767999999,627.2149767999999,627.2149767999999,627.2982127999985,627.6150736,,,,,,,,,,,,,,,,,,,,,,up,7.248017900001287,None,space,0.3848515999998199,None,P107,001,2025-02-13_13h03.27.909,posner_endo_new1,2024.2.4,59.87923555744991,2025-02-13 13h03.40.132331 +0000,
cube_r.png,0.1,-0.31,invalid,5,5,0,up,7.5296134000000166,None,space,0.3748752000010427,None,,,,,,,,,0,5,5,5,627.6312045999985,,,,,,,,,,,,,627.6152464999996,627.6312045999985,627.6312045999985,627.6312045999985,635.1740056999988,,,,635.1802975999999,635.1920049,635.1920049,635.2401050999997,635.2406157999994,635.2565610999991,635.2565610999991,635.2565610999991,635.3230857999988,635.6408415999995,,,,,,,,,,,,,,,,,,,,,,up,7.5296134000000166,None,space,0.3748752000010427,None,P107,001,2025-02-13_13h03.27.909,posner_endo_new1,2024.2.4,59.87923555744991,2025-02-13 13h03.40.132331 +0000,
cube_r.png,0.1,0.31,valid,6,6,0,up,7.4408528999992996,None,space,0.43698810000023514,None,,,,,,,,,0,6,6,6,635.6562486999992,,,,,,,,,,,,,635.641131299999,635.6562486999992,635.6562486999992,635.6562486999992,643.1001397,,,,643.1119131999985,643.1221962,643.1221962,643.1654435,643.1657971999994,643.1819055999986,643.1819055999986,643.1819055999986,643.2652259999995,643.6326326999988,,,,,,,,,,,,,,,,,,,,,,up,7.4408528999992996,None,space,0.43698810000023514,None,P107,001,2025-02-13_13h03.27.909,posner_endo_new1,2024.2.4,59.87923555744991,2025-02-13 13h03.40.132331 +0000,
cube_r.png,0.1,-0.31,invalid,7,7,0,up,5.48857549999957,None,space,0.36773379999976896,None,,,,,,,,,0,7,7,7,643.6481356999993,,,,,,,,,,,,,643.6329280999998,643.6481356999993,643.6481356999993,643.6481356999993,649.1437566999994,,,,649.1554727000002,649.1657631999988,649.1657631999988,649.2093151999998,649.2096607999993,649.2257615999988,649.2257615999988,649.2257615999988,649.3090189999984,649.6099477999996,,,,,,,,,,,,,,,,,,,,,,up,5.48857549999957,None,space,0.36773379999976896,None,P107,001,2025-02-13_13h03.27.909,posner_endo_new1,2024.2.4,59.87923555744991,2025-02-13 13h03.40.132331 +0000,
cube_l.png,0.1,-0.31,valid,8,8,0,up,9.44763520000015,None,space,0.38726970000061556,None,,,,,,,,,0,8,8,8,649.6253490999989,,,,,,,,,,,,,649.6102417000002,649.6253490999989,649.6253490999989,649.6253490999989,659.0835587000001,,,,659.0954063999998,659.1057523999989,659.1057523999989,659.1492613999999,659.1496009000002,659.1655754999992,659.1655754999992,659.1655754999992,659.2489852999988,659.5664920999989,,,,,,,,,,,,,,,,,,,,,,up,9.44763520000015,None,space,0.38726970000061556,None,P107,001,2025-02-13_13h03.27.909,posner_endo_new1,2024.2.4,59.87923555744991,2025-02-13 13h03.40.132331 +0000,
cube_r.png,0.1,-0.31,invalid,9,9,0,up,7.171124500000587,None,space,0.41373339999881864,None,,,,,,,,,0,9,9,9,659.582013199999,,,,,,,,,,,,,659.5667894999988,659.582013199999,659.582013199999,659.582013199999,666.7591063,,,,666.7695724999994,666.7792878,666.7792878,666.8246408999985,666.8248764999989,666.8409761999992,666.8409761999992,666.8409761999992,666.9243073999987,667.2580954999994,,,,,,,,,,,,,,,,,,,,,,up,7.171124500000587,None,space,0.41373339999881864,None,P107,001,2025-02-13_13h03.27.909,posner_endo_new1,2024.2.4,59.87923555744991,2025-02-13 13h03.40.132331 +0000,
cube_l.png,0.1,0.31,invalid,10,10,0,up,7.878767100000914,None,space,0.3862243999992643,None,,,,,,,,,0,10,10,10,667.2739856999997,,,,,,,,,,,,,667.2582796999995,667.2739856999997,667.2739856999997,667.2739856999997,675.166854699999,,,,675.1739985999993,675.1857572999998,675.1857572999998,675.2325321999997,675.2330188999986,675.2489974,675.2489974,675.2489974,675.3322114000002,675.6502823999999,,,,,,,,,,,,,,,,,,,,,,up,7.878767100000914,None,space,0.3862243999992643,None,P107,001,2025-02-13_13h03.27.909,posner_endo_new1,2024.2.4,59.87923555744991,2025-02-13 13h03.40.132331 +0000,
cube_r.png,0.1,-0.31,invalid,11,11,0,up,5.071009799999956,None,space,0.44923670000025595,None,,,,,,,,,0,11,11,11,675.6652417999994,,,,,,,,,,,,,675.6507181999987,675.6652417999994,675.6652417999994,675.6652417999994,680.7448277999993,,,,680.7567479999998,680.7670983999997,680.7670983999997,680.8103169999995,680.810658299999,680.8268377999993,680.8268377999993,680.8268377999993,680.9100216999996,681.2777024999996,,,,,,,,,,,,,,,,,,,,,,up,5.071009799999956,None,space,0.44923670000025595,None,P107,001,2025-02-13_13h03.27.909,posner_endo_new1,2024.2.4,59.87923555744991,2025-02-13 13h03.40.132331 +0000,
cube_r.png,0.1,0.31,valid,12,12,0,up,2.691597400000319,None,space,0.4019200999991881,None,,,,,,,,,0,12,12,12,681.2929583999994,,,,,,,,,,,,,681.2779980999985,681.2929583999994,681.2929583999994,681.2929583999994,683.9912969999987,,,,684.0030803999998,684.0133870999998,684.0133870999998,684.0571547999989,684.0574949999991,684.0734548,684.0734548,684.0734548,684.1568365999992,684.4909126000002,,,,,,,,,,,,,,,,,,,,,,up,2.691597400000319,None,space,0.4019200999991881,None,P107,001,2025-02-13_13h03.27.909,posner_endo_new1,2024.2.4,59.87923555744991,2025-02-13 13h03.40.132331 +0000,
cube_l.png,0.1,10,catch,13,13,0,up,4.174508300000525,None,None,,,,,,,,,,,0,13,13,13,684.5064542,,,,,,,,,,,,,684.4912059999988,684.5064542,684.5064542,684.5064542,688.6867896999993,,,,688.6985410999987,688.7088779999995,688.7088779999995,688.7522359999984,688.7525765999999,688.7687239999996,688.7687239999996,688.7687239999996,688.8519288999996,691.7662927999991,,,,690.8664567999986,691.7824007999989,691.7824007999989,691.7824007999989,,,,,,,,,,,,,,,up,4.174508300000525,None,None,,,P107,001,2025-02-13_13h03.27.909,posner_endo_new1,2024.2.4,59.87923555744991,2025-02-13 13h03.40.132331 +0000,
cube_r.png,0.1,-0.31,invalid,14,14,0,up,0.027691799999956856,None,space,0.49806099999841535,None,,,,,,,,,0,14,14,14,691.7824007999989,,,,,,,,,,,,,691.7665718999997,691.7824007999989,691.7824007999989,691.7824007999989,691.8167146999986,,,,691.8283327999998,691.8384810999996,691.8384810999996,691.8823175999987,691.8826565999989,691.8989241999989,691.8989241999989,691.8989241999989,691.982237799999,692.3996544000001,,,,,,,,,,,,,,,,,,,,,,up,0.027691799999956856,None,space,0.49806099999841535,None,P107,001,2025-02-13_13h03.27.909,posner_endo_new1,2024.2.4,59.87923555744991,2025-02-13 13h03.40.132331 +0000,
cube_l.png,0.1,-0.31,valid,15,15,0,up,3.113204699999187,None,space,0.4713004999994155,None,,,,,,,,,0,15,15,15,692.4150379000002,,,,,,,,,,,,,692.3999504999992,692.4150379000002,692.4150379000002,692.4150379000002,695.5298039999998,,,,695.5414750999989,695.5518772999985,695.5518772999985,695.5952400999995,695.5955816999995,695.6117993999997,695.6117993999997,695.6117993999997,695.6949776000001,696.0959397999995,,,,,,,,,,,,,,,,,,,,,,up,3.113204699999187,None,space,0.4713004999994155,None,P107,001,2025-02-13_13h03.27.909,posner_endo_new1,2024.2.4,59.87923555744991,2025-02-13 13h03.40.132331 +0000,
cube_r.png,0.1,10,catch,16,16,0,up,2.977669199999582,None,None,,,,,,,,,,,0,16,16,16,696.111266599999,,,,,,,,,,,,,696.0962629999995,696.111266599999,696.111266599999,696.111266599999,699.0927248999997,,,,699.1043415999993,699.1146907999992,699.1146907999992,699.1581191999994,699.1583640999997,699.1748281,699.1748281,699.1748281,699.2580227999988,702.1721398999998,,,,701.2724454999989,702.1881834999986,702.1881834999986,702.1881834999986,,,,,,,,,,,,,,,up,2.977669199999582,None,None,,,P107,001,2025-02-13_13h03.27.909,posner_endo_new1,2024.2.4,59.87923555744991,2025-02-13 13h03.40.132331 +0000,
cube_r.png,0.1,10,catch,17,17,0,up,0.14059809999889694,None,None,,,,,,,,,,,0,17,17,17,702.1881834999986,,,,,,,,,,,,,702.1723321999998,702.1881834999986,702.1881834999986,702.1881834999986,702.338893099999,,,,702.3463527999993,702.3579906999985,702.3579906999985,702.4048881999988,702.4051370999987,702.4212209999987,702.4212209999987,702.4212209999987,702.4879368999991,705.4189702999993,,,,704.5026897999996,705.4349825999998,705.4349825999998,705.4349825999998,,,,,,,,,,,,,,,up,0.14059809999889694,None,None,,,P107,001,2025-02-13_13h03.27.909,posner_endo_new1,2024.2.4,59.87923555744991,2025-02-13 13h03.40.132331 +0000,
cube_l.png,0.1,0.31,invalid,18,18,0,up,0.06958419999864418,None,space,0.39607210000031046,None,,,,,,,,,0,18,18,18,705.4349825999998,,,,,,,,,,,,,705.4191567999987,705.4349825999998,705.4349825999998,705.4349825999998,705.5191601999995,,,,705.5266405000002,705.5378774000001,705.5378774000001,705.5850114999994,705.5852613999996,705.6014954000002,705.6014954000002,705.6014954000002,705.6847561999984,706.0019482999996,,,,,,,,,,,,,,,,,,,,,,up,0.06958419999864418,None,space,0.39607210000031046,None,P107,001,2025-02-13_13h03.27.909,posner_endo_new1,2024.2.4,59.87923555744991,2025-02-13 13h03.40.132331 +0000,
cube_l.png,0.1,10,catch,19,19,0,up,4.838684199999989,None,None,,,,,,,,,,,0,19,19,19,706.0178897999995,,,,,,,,,,,,,706.0021436999996,706.0178897999995,706.0178897999995,706.0178897999995,710.8634569999995,,,,710.8709448999998,710.8825965999986,710.8825965999986,710.9295229999989,710.9297733999992,710.9460847999999,710.9460847999999,710.9460847999999,711.0126172,713.9434591999998,,,,713.0271668999994,713.9596714999989,713.9596714999989,713.9596714999989,,,,,,,,,,,,,,,up,4.838684199999989,None,None,,,P107,001,2025-02-13_13h03.27.909,posner_endo_new1,2024.2.4,59.87923555744991,2025-02-13 13h03.40.132331 +0000,
cube_l.png,0.1,0.31,invalid,20,20,0,up,4.992617899999459,None,space,0.4148439000000508,None,,,,,,,,,0,20,20,20,713.9596714999989,,,,,,,,,,,,,713.9436435999996,713.9596714999989,713.9596714999989,713.9596714999989,718.9553985000002,,,,718.9630347000002,718.9737413999992,718.9737413999992,719.0211812999987,719.0216858999993,719.0375487000001,719.0375487000001,719.0375487000001,719.1207865999986,719.4559883000002,,,,,,,,,,,,,,,,,,,,,,up,4.992617899999459,None,space,0.4148439000000508,None,P107,001,2025-02-13_13h03.27.909,posner_endo_new1,2024.2.4,59.87923555744991,2025-02-13 13h03.40.132331 +0000,
cube_l.png,0.1,-0.31,valid,21,21,0,up,3.4977705999990576,None,space,0.6129321999997046,None,,,,,,,,,0,21,21,21,719.4704578000001,,,,,,,,,,,,,719.4564315999996,719.4704578000001,719.4704578000001,719.4704578000001,722.9849887,,,,722.9966143999991,723.0068407999988,723.0068407999988,723.0505088999998,723.0508517999988,723.0671062999991,723.0671062999991,723.0671062999991,723.1503073999993,723.684530999999,,,,,,,,,,,,,,,,,,,,,,up,3.4977705999990576,None,space,0.6129321999997046,None,P107,001,2025-02-13_13h03.27.909,posner_endo_new1,2024.2.4,59.87923555744991,2025-02-13 13h03.40.132331 +0000,
cube_r.png,0.1,0.31,valid,22,22,0,up,3.3408630000012636,None,space,0.38043389999984356,None,,,,,,,,,0,22,22,22,723.6997679999986,,,,,,,,,,,,,723.6848192999987,723.6997679999986,723.6997679999986,723.6997679999986,727.0470810999996,,,,727.0544950999993,727.0658914999985,727.0658914999985,727.1129024000002,727.1131483999998,727.1295155999996,727.1295155999996,727.1295155999996,727.1961427999995,727.5131789999996,,,,,,,,,,,,,,,,,,,,,,up,3.3408630000012636,None,space,0.38043389999984356,None,P107,001,2025-02-13_13h03.27.909,posner_endo_new1,2024.2.4,59.87923555744991,2025-02-13 13h03.40.132331 +0000,
cube_r.png,0.1,-0.31,invalid,23,23,0,up,3.215495500000543,None,space,0.2906886000000668,None,,,,,,,,,0,23,23,23,727.5291055999987,,,,,,,,,,,,,727.5133772999998,727.5291055999987,727.5291055999987,727.5291055999987,730.7600647999989,,,,730.767612399999,730.7790859999986,730.7790859999986,730.8258072999997,730.8263060999998,730.8422007999998,730.8422007999998,730.8422007999998,730.9254387000001,731.1436259999991,,,,,,,,,,,,,,,,,,,,,,up,3.215495500000543,None,space,0.2906886000000668,None,P107,001,2025-02-13_13h03.27.909,posner_endo_new1,2024.2.4,59.87923555744991,2025-02-13 13h03.40.132331 +0000,
cube_r.png,0.1,0.31,valid,24,24,0,up,2.6188717000004544,None,space,0.3096742000016093,None,,,,,,,,,0,24,24,24,731.158544599999,,,,,,,,,,,,,731.1440681999993,731.158544599999,731.158544599999,731.158544599999,733.790962699999,,,,733.8081633000002,733.8192978999996,733.8192978999996,733.856119099999,733.8564059,733.8725735999997,733.8725735999997,733.8725735999997,733.9558417999997,734.1900115999997,,,,,,,,,,,,,,,,,,,,,,up,2.6188717000004544,None,space,0.3096742000016093,None,P107,001,2025-02-13_13h03.27.909,posner_endo_new1,2024.2.4,59.87923555744991,2025-02-13 13h03.40.132331 +0000,
cube_r.png,0.1,-0.31,invalid,25,25,0,up,17.747545199999877,None,space,0.4805075999993278,None,,,,,,,,,0,25,25,25,734.2055822000002,,,,,,,,,,,,,734.1902481999987,734.2055822000002,734.2055822000002,734.2055822000002,751.9553834999988,,,,751.9670927999996,751.9773331999986,751.9773331999986,752.0208734999997,752.0212190000002,752.0373854999998,752.0373854999998,752.0373854999998,752.1205764999995,752.521595799999,,,,,,,,,,,,,,,,,,,,,,up,17.747545199999877,None,space,0.4805075999993278,None,P107,001,2025-02-13_13h03.27.909,posner_endo_new1,2024.2.4,59.87923555744991,2025-02-13 13h03.40.132331 +0000,
cube_l.png,0.1,-0.31,valid,26,26,0,up,6.024287300000651,None,space,0.42977820000123756,None,,,,,,,,,0,26,26,26,752.5369512999987,,,,,,,,,,,,,752.5218956999997,752.5369512999987,752.5369512999987,752.5369512999987,758.5655817999996,,,,758.5772562000002,758.5873654999996,758.5873654999996,758.6308339999996,758.6311824999993,758.6472353999998,758.6472353999998,758.6472353999998,758.7306500999985,759.0815583999993,,,,,,,,,,,,,,,,,,,,,,up,6.024287300000651,None,space,0.42977820000123756,None,P107,001,2025-02-13_13h03.27.909,posner_endo_new1,2024.2.4,59.87923555744991,2025-02-13 13h03.40.132331 +0000,
cube_r.png,0.1,0.31,valid,27,27,0,up,3.328131800000847,None,space,0.4563696000004711,None,,,,,,,,,0,27,27,27,759.096770099999,,,,,,,,,,,,,759.0818534999999,759.096770099999,759.096770099999,759.096770099999,762.4280259999996,,,,762.4385820999996,762.4481385999989,762.4481385999989,762.4934885999992,762.4937235999987,762.5101184999985,762.5101184999985,762.5101184999985,762.5932306999985,762.9771174999987,,,,,,,,,,,,,,,,,,,,,,up,3.328131800000847,None,space,0.4563696000004711,None,P107,001,2025-02-13_13h03.27.909,posner_endo_new1,2024.2.4,59.87923555744991,2025-02-13 13h03.40.132331 +0000,
cube_r.png,0.1,10,catch,28,28,0,up,2.847950800000035,None,None,,,,,,,,,,,0,28,28,28,762.9928886999987,,,,,,,,,,,,,762.9773036999995,762.9928886999987,762.9928886999987,762.9928886999987,765.8573140999997,,,,765.8643429999993,765.8760422999985,765.8760422999985,765.9232643999985,765.9235013999987,765.9397389999995,765.9397389999995,765.9397389999995,766.0063223999987,768.9372817999993,,,,768.0212233999991,768.9533922999999,768.9533922999999,768.9533922999999,,,,,,,,,,,,,,,up,2.847950800000035,None,None,,,P107,001,2025-02-13_13h03.27.909,posner_endo_new1,2024.2.4,59.87923555744991,2025-02-13 13h03.40.132331 +0000,
cube_r.png,0.1,0.31,valid,29,29,0,up,2.11113689999911,None,space,0.33894299999883515,None,,,,,,,,,0,29,29,29,768.9533922999999,,,,,,,,,,,,,768.9374619999999,768.9533922999999,768.9533922999999,768.9533922999999,771.0687173999995,,,,771.0757068999992,771.087388599999,771.087388599999,771.1348054999999,771.1350474999999,771.1513297999991,771.1513297999991,771.1513297999991,771.2179318999988,771.5014640999998,,,,,,,,,,,,,,,,,,,,,,up,2.11113689999911,None,space,0.33894299999883515,None,P107,001,2025-02-13_13h03.27.909,posner_endo_new1,2024.2.4,59.87923555744991,2025-02-13 13h03.40.132331 +0000,
cube_r.png,0.1,0.31,valid,30,30,0,up,6.323676500000147,None,space,0.3143264000009367,None,,,,,,,,,0,30,30,30,771.5174518999993,,,,,,,,,,,,,771.5016541999994,771.5174518999993,771.5174518999993,771.5174518999993,777.8451234999993,,,,777.8521397999993,777.8639957999985,777.8639957999985,777.9107210000002,777.9111082,777.9268913999986,777.9268913999986,777.9268913999986,777.9938021999988,778.2449325999987,,,,,,,,,,,,,,,,,,,,,,up,6.323676500000147,None,space,0.3143264000009367,None,P107,001,2025-02-13_13h03.27.909,posner_endo_new1,2024.2.4,59.87923555744991,2025-02-13 13h03.40.132331 +0000,
cube_l.png,0.1,-0.31,valid,31,31,0,up,7.356950700001107,None,space,0.3694466000015382,None,,,,,,,,,0,31,31,31,778.2603714999987,,,,,,,,,,,,,778.245110599999,778.2603714999987,778.2603714999987,778.2603714999987,785.6203373999997,,,,785.6266642999999,785.6391382999991,785.6391382999991,785.6864565999986,785.6869523999994,785.7027987000001,785.7027987000001,785.7027987000001,785.7694421999986,786.0871788999993,,,,,,,,,,,,,,,,,,,,,,up,7.356950700001107,None,space,0.3694466000015382,None,P107,001,2025-02-13_13h03.27.909,posner_endo_new1,2024.2.4,59.87923555744991,2025-02-13 13h03.40.132331 +0000,
cube_r.png,0.1,0.31,valid,32,32,0,up,4.082635099999607,None,space,0.34534849999909056,None,,,,,,,,,0,32,32,32,786.1025888999993,,,,,,,,,,,,,786.0874781999992,786.1025888999993,786.1025888999993,786.1025888999993,790.1996421999993,,,,790.2112636999991,790.2215029999988,790.2215029999988,790.2651454999996,790.2654886,790.2816867999991,790.2816867999991,790.2816867999991,790.3648873999991,790.6325077999991,,,,,,,,,,,,,,,,,,,,,,up,4.082635099999607,None,space,0.34534849999909056,None,P107,001,2025-02-13_13h03.27.909,posner_endo_new1,2024.2.4,59.87923555744991,2025-02-13 13h03.40.132331 +0000,
cube_r.png,0.1,-0.31,invalid,33,33,0,up,4.48976649999895,None,space,0.3743577000004734,None,,,,,,,,,0,33,33,33,790.6480942999988,,,,,,,,,,,,,790.6328049999993,790.6480942999988,790.6480942999988,790.6480942999988,795.1447177999999,,,,795.1563516999995,795.1665417999993,795.1665417999993,795.2098736999997,795.2101217999989,795.2266038999987,795.2266038999987,795.2266038999987,795.3096878999986,795.6099818000002,,,,,,,,,,,,,,,,,,,,,,up,4.48976649999895,None,space,0.3743577000004734,None,P107,001,2025-02-13_13h03.27.909,posner_endo_new1,2024.2.4,59.87923555744991,2025-02-13 13h03.40.132331 +0000,
cube_r.png,0.1,10,catch,34,34,0,up,3.7266651000009006,None,None,,,,,,,,,,,0,34,34,34,795.6262651999987,,,,,,,,,,,,,795.6101785999999,795.6262651999987,795.6262651999987,795.6262651999987,799.3566832999986,,,,799.3641157999991,799.374658499999,799.374658499999,799.4223777999996,799.4228819,799.4387736999997,799.4387736999997,799.4387736999997,799.5220732999987,802.4367120999996,,,,801.5368486999996,802.452503999999,802.452503999999,802.452503999999,,,,,,,,,,,,,,,up,3.7266651000009006,None,None,,,P107,001,2025-02-13_13h03.27.909,posner_endo_new1,2024.2.4,59.87923555744991,2025-02-13 13h03.40.132331 +0000,
cube_r.png,0.1,0.31,valid,35,35,0,up,0.7878774999990128,None,space,0.37821210000038263,None,,,,,,,,,0,35,35,35,802.452503999999,,,,,,,,,,,,,802.436982199999,802.452503999999,802.452503999999,802.452503999999,803.2528715999997,,,,803.2646515999986,803.2748852999994,803.2748852999994,803.3185997,803.318952399999,803.334906,803.334906,803.334906,803.4183894999987,803.7193509999997,,,,,,,,,,,,,,,,,,,,,,up,0.7878774999990128,None,space,0.37821210000038263,None,P107,001,2025-02-13_13h03.27.909,posner_endo_new1,2024.2.4,59.87923555744991,2025-02-13 13h03.40.132331 +0000,
cube_r.png,0.1,-0.31,invalid,36,36,0,up,3.434618600000249,None,space,0.42779199999858974,None,,,,,,,,,0,36,36,36,803.7346407999994,,,,,,,,,,,,,803.7196399999993,803.7346407999994,803.7346407999994,803.7346407999994,807.1822713999991,,,,807.1937292000002,807.2038990000001,807.2038990000001,807.2478131999997,807.2480586999991,807.2642996999984,807.2642996999984,807.2642996999984,807.3474064000002,807.6979871999993,,,,,,,,,,,,,,,,,,,,,,up,3.434618600000249,None,space,0.42779199999858974,None,P107,001,2025-02-13_13h03.27.909,posner_endo_new1,2024.2.4,59.87923555744991,2025-02-13 13h03.40.132331 +0000,
cube_l.png,0.1,0.31,invalid,37,37,0,up,2.7991354999994655,None,space,0.3762636999999813,None,,,,,,,,,0,37,37,37,807.7138269999996,,,,,,,,,,,,,807.6981866999995,807.7138269999996,807.7138269999996,807.7138269999996,810.5280022999996,,,,810.5353572999993,810.5471927999988,810.5471927999988,810.5942713999993,810.5947612,810.6106967999985,810.6106967999985,810.6106967999985,810.6772695,810.9953983999985,,,,,,,,,,,,,,,,,,,,,,up,2.7991354999994655,None,space,0.3762636999999813,None,P107,001,2025-02-13_13h03.27.909,posner_endo_new1,2024.2.4,59.87923555744991,2025-02-13 13h03.40.132331 +0000,
cube_l.png,0.1,0.31,invalid,38,38,0,up,6.406654599999456,None,space,0.37420879999990575,None,,,,,,,,,0,38,38,38,811.0102470000002,,,,,,,,,,,,,810.9958322000002,811.0102470000002,811.0102470000002,811.0102470000002,817.4220502999997,,,,817.4309682999992,817.4407582999993,817.4407582999993,817.4871535000002,817.4873967999993,817.5038511999992,817.5038511999992,817.5038511999992,817.5871944999999,817.8876354999993,,,,,,,,,,,,,,,,,,,,,,up,6.406654599999456,None,space,0.37420879999990575,None,P107,001,2025-02-13_13h03.27.909,posner_endo_new1,2024.2.4,59.87923555744991,2025-02-13 13h03.40.132331 +0000,
cube_r.png,0.1,0.31,valid,39,39,0,up,3.2971352000004117,None,space,0.38695740000002843,None,,,,,,,,,0,39,39,39,817.9033782999995,,,,,,,,,,,,,817.8878327000002,817.9033782999995,817.9033782999995,817.9033782999995,821.2173102999986,,,,821.2247360999991,821.2368222999994,821.2368222999994,821.2833117999999,821.2838118999989,821.2997767999987,821.2997767999987,821.2997767999987,821.3663459999989,821.7012180000002,,,,,,,,,,,,,,,,,,,,,,up,3.2971352000004117,None,space,0.38695740000002843,None,P107,001,2025-02-13_13h03.27.909,posner_endo_new1,2024.2.4,59.87923555744991,2025-02-13 13h03.40.132331 +0000,
cube_l.png,0.1,0.31,invalid,40,40,0,up,3.1249381000016,None,space,0.4156670000011218,None,,,,,,,,,0,40,40,40,821.7159729999985,,,,,,,,,,,,,821.701657399999,821.7159729999985,821.7159729999985,821.7159729999985,824.8478254000001,,,,824.8649097999987,824.8755665999997,824.8755665999997,824.9130495999998,824.9133516000002,824.9294957999991,824.9294957999991,824.9294957999991,825.0127213999986,825.3471411999999,,,,,,,,,,,,,,,,,,,,,,up,3.1249381000016,None,space,0.4156670000011218,None,P107,001,2025-02-13_13h03.27.909,posner_endo_new1,2024.2.4,59.87923555744991,2025-02-13 13h03.40.132331 +0000,
cube_l.png,0.1,10,catch,41,41,0,up,3.3829210000003513,None,None,,,,,,,,,,,0,41,41,41,825.3624111999998,,,,,,,,,,,,,825.3473921999994,825.3624111999998,825.3624111999998,825.3624111999998,828.7603058999994,,,,828.7698127999993,828.7795721999992,828.7795721999992,828.8258982999996,828.8261413,828.8421707999987,828.8421707999987,828.8421707999987,828.9255054999994,831.8396928000002,,,,830.9401161999995,831.8560534999997,831.8560534999997,831.8560534999997,,,,,,,,,,,,,,,up,3.3829210000003513,None,None,,,P107,001,2025-02-13_13h03.27.909,posner_endo_new1,2024.2.4,59.87923555744991,2025-02-13 13h03.40.132331 +0000,
cube_l.png,0.1,-0.31,valid,42,42,0,up,0.5371360999997705,None,space,0.35512439999911294,None,,,,,,,,,0,42,42,42,831.8560534999997,,,,,,,,,,,,,831.8398669999988,831.8560534999997,831.8560534999997,831.8560534999997,832.4061165999992,,,,832.4130789999999,832.4247300999996,832.4247300999996,832.4719258999994,832.4724269999988,832.4883424,832.4883424,832.4883424,832.571645,832.8563997000001,,,,,,,,,,,,,,,,,,,,,,up,0.5371360999997705,None,space,0.35512439999911294,None,P107,001,2025-02-13_13h03.27.909,posner_endo_new1,2024.2.4,59.87923555744991,2025-02-13 13h03.40.132331 +0000,
cube_l.png,0.1,10,catch,43,43,0,up,3.321341900000334,None,None,,,,,,,,,,,0,43,43,43,832.8714831999987,,,,,,,,,,,,,832.856844599999,832.8714831999987,832.8714831999987,832.8714831999987,836.2025560000002,,,,836.2110532999995,836.2211389999993,836.2211389999993,836.2681101999988,836.2683336999999,836.284732099999,836.284732099999,836.284732099999,836.3677950000001,839.2820901999985,,,,838.3824465999987,839.2982054999993,839.2982054999993,839.2982054999993,,,,,,,,,,,,,,,up,3.321341900000334,None,None,,,P107,001,2025-02-13_13h03.27.909,posner_endo_new1,2024.2.4,59.87923555744991,2025-02-13 13h03.40.132331 +0000,
cube_l.png,0.1,0.31,invalid,44,44,0,up,0.4302897999987181,None,space,0.38545090000116033,None,,,,,,,,,0,44,44,44,839.2982054999993,,,,,,,,,,,,,839.2822514999989,839.2982054999993,839.2982054999993,839.2982054999993,839.7317888999987,,,,839.7380428999986,839.7494893999992,839.7494893999992,839.7977326,839.7982255999996,839.8141572999994,839.8141572999994,839.8141572999994,839.8974048,840.2155521999994,,,,,,,,,,,,,,,,,,,,,,up,0.4302897999987181,None,space,0.38545090000116033,None,P107,001,2025-02-13_13h03.27.909,posner_endo_new1,2024.2.4,59.87923555744991,2025-02-13 13h03.40.132331 +0000,
cube_l.png,0.1,0.31,invalid,45,45,0,up,3.4183188999995764,None,space,0.3487471000007645,None,,,,,,,,,0,45,45,45,840.2304322999989,,,,,,,,,,,,,840.2159825999988,840.2304322999989,840.2304322999989,840.2304322999989,843.6616488999989,,,,843.6731086,843.6833569999999,843.6833569999999,843.727216199999,843.7275556999994,843.7437226000002,843.7437226000002,843.7437226000002,843.8270011999994,844.0945625999993,,,,,,,,,,,,,,,,,,,,,,up,3.4183188999995764,None,space,0.3487471000007645,None,P107,001,2025-02-13_13h03.27.909,posner_endo_new1,2024.2.4,59.87923555744991,2025-02-13 13h03.40.132331 +0000,
cube_r.png,0.1,0.31,valid,46,46,0,up,2.4187887999996747,None,space,0.5289357999990898,None,,,,,,,,,0,46,46,46,844.1098482999987,,,,,,,,,,,,,844.0948657999998,844.1098482999987,844.1098482999987,844.1098482999987,846.541612699999,,,,846.5489700999988,846.5604724999994,846.5604724999994,846.6074797000001,846.6077281999987,846.6241744999988,846.6241744999988,846.6241744999988,846.7072755999998,847.1577500999992,,,,,,,,,,,,,,,,,,,,,,up,2.4187887999996747,None,space,0.5289357999990898,None,P107,001,2025-02-13_13h03.27.909,posner_endo_new1,2024.2.4,59.87923555744991,2025-02-13 13h03.40.132331 +0000,
cube_l.png,0.1,-0.31,valid,47,47,0,up,4.643245000001116,None,space,0.4929787999990367,None,,,,,,,,,0,47,47,47,847.173358099999,,,,,,,,,,,,,847.157948,847.173358099999,847.173358099999,847.173358099999,851.8195551999997,,,,851.8269884999991,851.8500383999999,851.8500383999999,851.8856212999999,851.8858660999995,851.9020696999996,851.9020696999996,851.9020696999996,851.9687034999988,852.4020372999985,,,,,,,,,,,,,,,,,,,,,,up,4.643245000001116,None,space,0.4929787999990367,None,P107,001,2025-02-13_13h03.27.909,posner_endo_new1,2024.2.4,59.87923555744991,2025-02-13 13h03.40.132331 +0000,
cube_r.png,0.1,-0.31,invalid,48,48,0,up,4.870581099999981,None,space,0.4276233999989927,None,,,,,,,,,0,48,48,48,852.4180200999999,,,,,,,,,,,,,852.4022411999995,852.4180200999999,852.4180200999999,852.4180200999999,857.2973112999989,,,,857.3047201999998,857.327822199999,857.327822199999,857.3636869000002,857.3643484999993,857.3799313,857.3799313,857.3799313,857.4465237999993,857.8153292999996,,,,,,,,,,,,,,,,,,,,,,up,4.870581099999981,None,space,0.4276233999989927,None,P107,001,2025-02-13_13h03.27.909,posner_endo_new1,2024.2.4,59.87923555744991,2025-02-13 13h03.40.132331 +0000,
cube_r.png,0.1,10,catch,49,49,0,up,4.003103999999439,None,None,,,,,,,,,,,0,49,49,49,857.8297833999986,,,,,,,,,,,,,857.8159321999992,857.8297833999986,857.8297833999986,857.8297833999986,861.8445924999996,,,,861.8680179999992,861.8804498999998,861.8804498999998,861.9083498,861.9087867999988,861.9247825999992,861.9247825999992,861.9247825999992,862.0080502000001,864.9226827999992,,,,864.0226715999997,864.9383872999988,864.9383872999988,864.9383872999988,,,,,,,,,,,,,,,up,4.003103999999439,None,None,,,P107,001,2025-02-13_13h03.27.909,posner_endo_new1,2024.2.4,59.87923555744991,2025-02-13 13h03.40.132331 +0000,
cube_l.png,0.1,-0.31,valid,50,50,0,up,0.18298440000035043,None,space,0.4283601000006456,None,,,,,,,,,0,50,50,50,864.9383872999988,,,,,,,,,,,,,864.9230353999992,864.9383872999988,864.9383872999988,864.9383872999988,865.1231008999985,,,,865.1329640999993,865.143018499999,865.143018499999,865.1886834999987,865.188987399999,865.2050141999989,865.2050141999989,865.2050141999989,865.2882780999989,865.6390658,,,,,,,,,,,,,,,,,,,,,,up,0.18298440000035043,None,space,0.4283601000006456,None,P107,001,2025-02-13_13h03.27.909,posner_endo_new1,2024.2.4,59.87923555744991,2025-02-13 13h03.40.132331 +0000,
cube_l.png,0.1,-0.31,valid,51,51,0,up,3.154967899999974,None,space,0.5820988999985275,None,,,,,,,,,0,51,51,51,865.6545566999994,,,,,,,,,,,,,865.6393216999986,865.6545566999994,865.6545566999994,865.6545566999994,868.8191468999994,,,,868.8288307999992,868.8390460999999,868.8390460999999,868.8845879,868.8848882000002,868.9012477999986,868.9012477999986,868.9012477999986,868.9845475000002,869.4854113999991,,,,,,,,,,,,,,,,,,,,,,up,3.154967899999974,None,space,0.5820988999985275,None,P107,001,2025-02-13_13h03.27.909,posner_endo_new1,2024.2.4,59.87923555744991,2025-02-13 13h03.40.132331 +0000,
cube_r.png,0.1,-0.31,invalid,52,52,0,up,3.028675100000328,None,space,0.522400200001357,None,,,,,,,,,0,52,52,52,869.5007248999991,,,,,,,,,,,,,869.4856722999994,869.5007248999991,869.5007248999991,869.5007248999991,872.5320115999984,,,,872.5417555999993,872.551890499999,872.551890499999,872.5977860999992,872.5980963999991,872.6141556000002,872.6141556000002,872.6141556000002,872.6974071999994,873.1479459999991,,,,,,,,,,,,,,,,,,,,,,up,3.028675100000328,None,space,0.522400200001357,None,P107,001,2025-02-13_13h03.27.909,posner_endo_new1,2024.2.4,59.87923555744991,2025-02-13 13h03.40.132331 +0000,
cube_l.png,0.1,-0.31,valid,53,53,0,up,3.1817289000009623,None,space,0.4838759999984177,None,,,,,,,,,0,53,53,53,873.163657699999,,,,,,,,,,,,,873.1482001999993,873.163657699999,873.163657699999,873.163657699999,876.3613372999989,,,,876.3710303999997,876.3812616999985,876.3812616999985,876.4271190999989,876.4274240999985,876.4435646999991,876.4435646999991,876.4435646999991,876.5268760999988,876.9441554999994,,,,,,,,,,,,,,,,,,,,,,up,3.1817289000009623,None,space,0.4838759999984177,None,P107,001,2025-02-13_13h03.27.909,posner_endo_new1,2024.2.4,59.87923555744991,2025-02-13 13h03.40.132331 +0000,
cube_r.png,0.1,10,catch,54,54,0,up,2.7858304000001226,None,None,,,,,,,,,,,0,54,54,54,876.9596903999991,,,,,,,,,,,,,876.9444113999998,876.9596903999991,876.9596903999991,876.9596903999991,879.7578352,,,,879.7673526999988,879.7770721999987,879.7770721999987,879.8238439999986,879.8240670999985,879.8401367999995,879.8401367999995,879.8401367999995,879.9235831999995,882.8376847,,,,881.9380655999994,882.8538075999986,882.8538075999986,882.8538075999986,,,,,,,,,,,,,,,up,2.7858304000001226,None,None,,,P107,001,2025-02-13_13h03.27.909,posner_endo_new1,2024.2.4,59.87923555744991,2025-02-13 13h03.40.132331 +0000,
cube_l.png,0.1,0.31,invalid,55,55,0,up,0.6593204999990121,None,space,0.3955384000000777,None,,,,,,,,,0,55,55,55,882.8538075999986,,,,,,,,,,,,,882.8378524999989,882.8538075999986,882.8538075999986,882.8538075999986,883.5204772999987,,,,883.5264544000001,883.5381837999994,883.5381837999994,883.5863761,883.5868687999991,883.6028083000001,883.6028083000001,883.6028083000001,883.686079699999,884.0041770999997,,,,,,,,,,,,,,,,,,,,,,up,0.6593204999990121,None,space,0.3955384000000777,None,P107,001,2025-02-13_13h03.27.909,posner_endo_new1,2024.2.4,59.87923555744991,2025-02-13 13h03.40.132331 +0000,
cube_l.png,0.1,-0.31,valid,56,56,0,up,3.015236499999446,None,space,0.33585190000121656,None,,,,,,,,,0,56,56,56,884.0190785999985,,,,,,,,,,,,,884.0046168999997,884.0190785999985,884.0190785999985,884.0190785999985,887.0507003000002,,,,887.0600138999998,887.0695963999988,887.0695963999988,887.1160100999987,887.1162463000001,887.1327595999992,887.1327595999992,887.1327595999992,887.2160358000001,887.4832546999987,,,,,,,,,,,,,,,,,,,,,,up,3.015236499999446,None,space,0.33585190000121656,None,P107,001,2025-02-13_13h03.27.909,posner_endo_new1,2024.2.4,59.87923555744991,2025-02-13 13h03.40.132331 +0000,
cube_r.png,0.1,0.31,valid,57,57,0,up,7.1101840999999695,None,space,0.4162181000010605,None,,,,,,,,,0,57,57,57,887.4988653,,,,,,,,,,,,,887.4834412,887.4988653,887.4988653,887.4988653,894.6260014999989,,,,894.6330263,894.6446667,894.6446667,894.6917374999994,894.692228599999,894.708145999999,894.708145999999,894.708145999999,894.7913551000001,895.1262400999985,,,,,,,,,,,,,,,,,,,,,,up,7.1101840999999695,None,space,0.4162181000010605,None,P107,001,2025-02-13_13h03.27.909,posner_endo_new1,2024.2.4,59.87923555744991,2025-02-13 13h03.40.132331 +0000,
cube_r.png,0.1,-0.31,invalid,58,58,0,up,4.124569999999949,None,space,0.44074209999962477,None,,,,,,,,,0,58,58,58,895.1410311,,,,,,,,,,,,,895.1267200999991,895.1410311,895.1410311,895.1410311,899.2714717999988,,,,899.2830200999997,899.2933395,899.2933395,899.3369870999995,899.3373401999997,899.3535782999988,899.3535782999988,899.3535782999988,899.4367453999985,899.8042953999993,,,,,,,,,,,,,,,,,,,,,,up,4.124569999999949,None,space,0.44074209999962477,None,P107,001,2025-02-13_13h03.27.909,posner_endo_new1,2024.2.4,59.87923555744991,2025-02-13 13h03.40.132331 +0000,
cube_l.png,0.1,0.31,invalid,59,59,0,up,8.64486020000004,None,space,0.38116509999963455,None,,,,,,,,,0,59,59,59,899.8198147999992,,,,,,,,,,,,,899.8045863999996,899.8198147999992,899.8198147999992,899.8198147999992,908.4782669999986,,,,908.4856521000002,908.4971987999998,908.4971987999998,908.5441876999994,908.5446889999985,908.5606666999993,908.5606666999993,908.5606666999993,908.6439078999992,908.9453380999985,,,,,,,,,,,,,,,,,,,,,,up,8.64486020000004,None,space,0.38116509999963455,None,P107,001,2025-02-13_13h03.27.909,posner_endo_new1,2024.2.4,59.87923555744991,2025-02-13 13h03.40.132331 +0000,
