cue_img,cue_soa,target_y,trial,thisN,thisTrialN,thisRepN,key_control2.keys,key_control2.rt,key_control2.duration,key_resp.keys,key_resp.rt,key_resp.duration,practice.thisRepN,practice.thisTrialN,practice.thisN,practice.thisIndex,block1.thisRepN,block1.thisTrialN,block1.thisN,block1.thisIndex,block2.thisRepN,block2.thisTrialN,block2.thisN,block2.thisIndex,thisRow.t,notes,instructions.started,instructions_txt.started,key_control.started,instructions.stopped,key_control.keys,key_control.rt,key_control.duration,ready.started,ready_txt.started,ready_txt.stopped,ready.stopped,fix.started,fixation.started,key_control2.started,fixation_cross.started,fix.stopped,practice.key_control2.keys,practice.key_control2.rt,practice.key_control2.duration,cue.started,cube.started,fixation_cross_cue.started,cue.stopped,target.started,fixation_target.started,fixation_cross_target.started,key_resp.started,star.started,target.stopped,practice.key_resp.keys,practice.key_resp.rt,practice.key_resp.duration,star.stopped,fixation_target.stopped,fixation_cross_target.stopped,key_resp.stopped,block1.key_control2.keys,block1.key_control2.rt,block1.key_control2.duration,block1.key_resp.keys,block1.key_resp.rt,block1.key_resp.duration,break_2.started,text.started,key_control3.started,text.stopped,break_2.stopped,key_control3.keys,key_control3.rt,key_control3.duration,block2.key_control2.keys,block2.key_control2.rt,block2.key_control2.duration,block2.key_resp.keys,block2.key_resp.rt,block2.key_resp.duration,participant,session,date,expName,psychopyVersion,frameRate,expStart,
,,,,,,,,,,,,,,,,,,,,,,,,,,,0.007531600000220351,0.023283400001673726,0.023283400001673726,4.629449899999599,up,4.587765000000218,None,,,,,,,,,,,,,,,,,,,,,,,,,,,,,,,,,,,,,,,,,,,,,,,,,,P108,001,2025-02-13_14h32.39.068,posner_endo_new1,2024.2.4,60.061466904363236,2025-02-13 14h32.46.385229 +0000,
,,,,,,,,,,,,,,,,,,,,,,,,,,,,,,,,,,4.629580299999361,4.640847599999688,7.655263200002082,7.6172527000017,,,,,,,,,,,,,,,,,,,,,,,,,,,,,,,,,,,,,,,,,,,,,,P108,001,2025-02-13_14h32.39.068,posner_endo_new1,2024.2.4,60.061466904363236,2025-02-13 14h32.46.385229 +0000,
cube_l.png,0.1,-0.31,valid,0,0,0,down,28.091625100001693,None,space,0.4726483999984339,None,0,0,0,0,,,,,,,,,7.655263200002082,,,,,,,,,,,,,7.639851500000077,7.655263200002082,7.655263200002082,7.655263200002082,35.75518659999943,down,28.091625100001693,None,35.767611700001,35.778066700000636,35.778066700000636,35.82093010000244,35.8211967999996,35.83751560000019,35.83751560000019,35.83751560000019,35.92082540000047,36.321224999999686,space,0.4726483999984339,None,,,,,,,,,,,,,,,,,,,,,,,,,P108,001,2025-02-13_14h32.39.068,posner_endo_new1,2024.2.4,60.061466904363236,2025-02-13 14h32.46.385229 +0000,
cube_l.png,0.1,0.31,invalid,1,1,0,down,3.0105261000026076,None,space,0.3435979000023508,None,0,1,1,1,,,,,,,,,36.33686959999977,,,,,,,,,,,,,36.32143370000267,36.33686959999977,36.33686959999977,36.33686959999977,39.35148310000295,down,3.0105261000026076,None,39.360383600000205,39.3700897000017,39.3700897000017,39.417176500002824,39.417445099999895,39.4337028000009,39.4337028000009,39.4337028000009,39.50035690000004,39.7841597000006,space,0.3435979000023508,None,,,,,,,,,,,,,,,,,,,,,,,,,P108,001,2025-02-13_14h32.39.068,posner_endo_new1,2024.2.4,60.061466904363236,2025-02-13 14h32.46.385229 +0000,
cube_r.png,0.1,-0.31,invalid,2,2,0,down,4.075112500002433,None,space,0.46211030000267783,None,0,2,2,2,,,,,,,,,39.80012070000157,,,,,,,,,,,,,39.784366600000794,39.80012070000157,39.80012070000157,39.80012070000157,43.880124800001795,down,4.075112500002433,None,43.88868220000222,43.89876709999953,43.89876709999953,43.945912999999564,43.946180700000696,43.9623797000022,43.9623797000022,43.9623797000022,44.045719600002485,44.42952240000159,space,0.46211030000267783,None,,,,,,,,,,,,,,,,,,,,,,,,,P108,001,2025-02-13_14h32.39.068,posner_endo_new1,2024.2.4,60.061466904363236,2025-02-13 14h32.46.385229 +0000,
cube_r.png,0.1,10,catch,3,3,0,down,5.262371199998597,None,None,,,0,3,3,3,,,,,,,,,44.44525419999991,,,,,,,,,,,,,44.42972490000102,44.44525419999991,44.44525419999991,44.44525419999991,49.72416710000107,down,5.262371199998597,None,49.73256840000249,49.742731000002095,49.742731000002095,49.78991920000044,49.790417800002615,49.80631480000011,49.80631480000011,49.80631480000011,49.88959700000123,52.80408080000052,None,,,51.90418839999984,52.8198967999997,52.8198967999997,52.8198967999997,,,,,,,,,,,,,,,,,,,,,P108,001,2025-02-13_14h32.39.068,posner_endo_new1,2024.2.4,60.061466904363236,2025-02-13 14h32.46.385229 +0000,
cube_l.png,0.1,-0.31,valid,4,4,0,down,0.9675129999995988,None,space,0.4454446999989159,None,0,4,4,4,,,,,,,,,52.8198967999997,,,,,,,,,,,,,52.80433950000224,52.8198967999997,52.8198967999997,52.8198967999997,53.803519200002484,down,0.9675129999995988,None,53.81563020000249,53.82573970000158,53.82573970000158,53.869087500002934,53.869342800000595,53.885579800000414,53.885579800000414,53.885579800000414,53.968974499999604,54.33600690000094,space,0.4454446999989159,None,,,,,,,,,,,,,,,,,,,,,,,,,P108,001,2025-02-13_14h32.39.068,posner_endo_new1,2024.2.4,60.061466904363236,2025-02-13 14h32.46.385229 +0000,
cube_l.png,0.1,0.31,invalid,5,5,0,down,4.123751099999936,None,space,0.3192748000001302,None,0,5,5,5,,,,,,,,,54.35187660000156,,,,,,,,,,,,,54.3361971000013,54.35187660000156,54.35187660000156,54.35187660000156,58.48189040000216,down,4.123751099999936,None,58.49004310000237,58.50048400000014,58.50048400000014,58.5475993,58.5478535000002,58.56416620000164,58.56416620000164,58.56416620000164,58.64753750000091,58.898124400002416,space,0.3192748000001302,None,,,,,,,,,,,,,,,,,,,,,,,,,P108,001,2025-02-13_14h32.39.068,posner_endo_new1,2024.2.4,60.061466904363236,2025-02-13 14h32.46.385229 +0000,
cube_r.png,0.1,-0.31,invalid,6,6,0,down,5.865512599997601,None,space,0.2468354000011459,None,0,6,6,6,,,,,,,,,58.913810699999885,,,,,,,,,,,,,58.89831300000151,58.913810699999885,58.913810699999885,58.913810699999885,64.79199140000128,down,5.865512599997601,None,64.79984619999959,64.81077200000072,64.81077200000072,64.85786619999999,64.85811490000196,64.87441440000111,64.87441440000111,64.87441440000111,64.95764659999986,65.12468900000022,space,0.2468354000011459,None,,,,,,,,,,,,,,,,,,,,,,,,,P108,001,2025-02-13_14h32.39.068,posner_endo_new1,2024.2.4,60.061466904363236,2025-02-13 14h32.46.385229 +0000,
cube_r.png,0.1,0.31,valid,7,7,0,down,6.0469398999994155,None,space,0.25334720000319066,None,0,7,7,7,,,,,,,,,65.14081129999977,,,,,,,,,,,,,65.12488010000015,65.14081129999977,65.14081129999977,65.14081129999977,71.20193540000037,down,6.0469398999994155,None,71.20987760000207,71.22074190000058,71.22074190000058,71.26807900000131,71.26832760000252,71.28424029999951,71.28424029999951,71.28424029999951,71.35110290000011,71.55171470000278,space,0.25334720000319066,None,,,,,,,,,,,,,,,,,,,,,,,,,P108,001,2025-02-13_14h32.39.068,posner_endo_new1,2024.2.4,60.061466904363236,2025-02-13 14h32.46.385229 +0000,
cube_l.png,0.1,-0.31,valid,8,8,0,down,6.131555100000696,None,space,0.23950820000027306,None,0,8,8,8,,,,,,,,,71.56748030000017,,,,,,,,,,,,,71.55190679999941,71.56748030000017,71.56748030000017,71.56748030000017,77.71201890000157,down,6.131555100000696,None,77.71980890000123,77.73078720000194,77.73078720000194,77.77797470000223,77.77832330000092,77.79443879999963,77.79443879999963,77.79443879999963,77.86097230000087,78.04542960000254,space,0.23950820000027306,None,,,,,,,,,,,,,,,,,,,,,,,,,P108,001,2025-02-13_14h32.39.068,posner_endo_new1,2024.2.4,60.061466904363236,2025-02-13 14h32.46.385229 +0000,
cube_r.png,0.1,-0.31,invalid,9,9,0,down,5.254507800000283,None,space,0.3007986999982677,None,0,9,9,9,,,,,,,,,78.06079740000132,,,,,,,,,,,,,78.04571109999961,78.06079740000132,78.06079740000132,78.06079740000132,83.32356609999988,down,5.254507800000283,None,83.33580200000142,83.34597560000111,83.34597560000111,83.38876420000088,83.38901299999998,83.4053550000026,83.4053550000026,83.4053550000026,83.4887527000028,83.72248780000155,space,0.3007986999982677,None,,,,,,,,,,,,,,,,,,,,,,,,,P108,001,2025-02-13_14h32.39.068,posner_endo_new1,2024.2.4,60.061466904363236,2025-02-13 14h32.46.385229 +0000,
cube_r.png,0.1,0.31,valid,10,10,0,down,5.857011100000818,None,space,0.3727089000021806,None,0,10,10,10,,,,,,,,,83.7383903000009,,,,,,,,,,,,,83.72268629999962,83.7383903000009,83.7383903000009,83.7383903000009,89.60001760000159,down,5.857011100000818,None,89.60775310000099,89.6187417000001,89.6187417000001,89.66594520000217,89.6661924,89.68237109999973,89.68237109999973,89.68237109999973,89.76555949999965,90.06620210000256,space,0.3727089000021806,None,,,,,,,,,,,,,,,,,,,,,,,,,P108,001,2025-02-13_14h32.39.068,posner_endo_new1,2024.2.4,60.061466904363236,2025-02-13 14h32.46.385229 +0000,
,,,,,,,,,,,,,,,,,,,,,,,,,,,,,,,,,,90.06632900000113,90.08190640000248,93.0853117000006,93.0624112000005,,,,,,,,,,,,,,,,,,,,,,,,,,,,,,,,,,,,,,,,,,,,,,P108,001,2025-02-13_14h32.39.068,posner_endo_new1,2024.2.4,60.061466904363236,2025-02-13 14h32.46.385229 +0000,
cube_l.png,0.1,10,catch,0,0,0,down,9.765612499999406,None,None,,,,,,,0,0,0,0,,,,,93.0853117000006,,,,,,,,,,,,,93.07654150000235,93.0853117000006,93.0853117000006,93.0853117000006,102.85306850000052,,,,102.86078230000203,102.87183930000174,102.87183930000174,102.91884399999981,102.91909719999967,102.93545200000153,102.93545200000153,102.93545200000153,103.00201910000033,105.93295890000081,,,,105.01670000000013,105.94887100000051,105.94887100000051,105.94887100000051,down,9.765612499999406,None,None,,,,,,,,,,,,,,,,,P108,001,2025-02-13_14h32.39.068,posner_endo_new1,2024.2.4,60.061466904363236,2025-02-13 14h32.46.385229 +0000,
cube_l.png,0.1,10,catch,1,1,0,down,2.4059627999995428,None,space,0.37793579999924987,None,,,,,0,1,1,1,,,,,105.94887100000051,,,,,,,,,,,,,105.93314509999982,105.94887100000051,105.94887100000051,105.94887100000051,108.36400190000131,,,,108.37154630000077,108.38287870000204,108.38287870000204,108.4296979000028,108.42994630000248,108.44649770000251,108.44649770000251,108.44649770000251,108.52982580000025,108.8303244000017,,,,,,,,down,2.4059627999995428,None,space,0.37793579999924987,None,,,,,,,,,,,,,,,P108,001,2025-02-13_14h32.39.068,posner_endo_new1,2024.2.4,60.061466904363236,2025-02-13 14h32.46.385229 +0000,
cube_l.png,0.1,0.31,invalid,2,2,0,down,7.790068899998005,None,space,0.621563700002298,None,,,,,0,2,2,2,,,,,108.84604200000103,,,,,,,,,,,,,108.83052930000122,108.84604200000103,108.84604200000103,108.84604200000103,116.6409186000019,,,,116.66454110000268,116.6766697000021,116.6766697000021,116.70450279999932,116.70485520000148,116.72100040000078,116.72100040000078,116.72100040000078,116.80455240000083,117.3553267999996,,,,,,,,down,7.790068899998005,None,space,0.621563700002298,None,,,,,,,,,,,,,,,P108,001,2025-02-13_14h32.39.068,posner_endo_new1,2024.2.4,60.061466904363236,2025-02-13 14h32.46.385229 +0000,
cube_l.png,0.1,0.31,invalid,3,3,0,down,6.8002982000034535,None,space,0.3355542000026617,None,,,,,0,3,3,3,,,,,117.37073950000195,,,,,,,,,,,,,117.35562740000023,117.37073950000195,117.37073950000195,117.37073950000195,124.18153160000293,,,,124.19333910000205,124.20340310000029,124.20340310000029,124.24719870000263,124.24745030000122,124.26369120000163,124.26369120000163,124.26369120000163,124.3468611999997,124.61410310000065,,,,,,,,down,6.8002982000034535,None,space,0.3355542000026617,None,,,,,,,,,,,,,,,P108,001,2025-02-13_14h32.39.068,posner_endo_new1,2024.2.4,60.061466904363236,2025-02-13 14h32.46.385229 +0000,
cube_l.png,0.1,-0.31,valid,4,4,0,down,5.5174119000002975,None,space,0.37941630000204896,None,,,,,0,4,4,4,,,,,124.62994249999974,,,,,,,,,,,,,124.61431250000169,124.62994249999974,124.62994249999974,124.62994249999974,130.15844420000212,,,,130.165992000002,130.17729800000234,130.17729800000234,130.22446359999958,130.22471679999944,130.24067990000185,130.24067990000185,130.24067990000185,130.3239855000029,130.62487780000083,,,,,,,,down,5.5174119000002975,None,space,0.37941630000204896,None,,,,,,,,,,,,,,,P108,001,2025-02-13_14h32.39.068,posner_endo_new1,2024.2.4,60.061466904363236,2025-02-13 14h32.46.385229 +0000,
cube_r.png,0.1,-0.31,invalid,5,5,0,down,6.931325699999434,None,space,0.22518900000068243,None,,,,,0,5,5,5,,,,,130.64050599999973,,,,,,,,,,,,,130.62508010000238,130.64050599999973,130.64050599999973,130.64050599999973,137.58463530000154,,,,137.5939864000029,137.6036404000006,137.6036404000006,137.6497562000004,137.64999610000086,137.6666022999998,137.6666022999998,137.6666022999998,137.74994000000152,137.90038529999947,,,,,,,,down,6.931325699999434,None,space,0.22518900000068243,None,,,,,,,,,,,,,,,P108,001,2025-02-13_14h32.39.068,posner_endo_new1,2024.2.4,60.061466904363236,2025-02-13 14h32.46.385229 +0000,
cube_r.png,0.1,0.31,valid,6,6,0,down,4.574680100002297,None,space,0.3113262000006216,None,,,,,0,6,6,6,,,,,137.91634740000154,,,,,,,,,,,,,137.90057680000245,137.91634740000154,137.91634740000154,137.91634740000154,142.4960613000003,,,,142.50330920000124,142.51474240000243,142.51474240000243,142.56175730000177,142.56199470000138,142.5783489000023,142.5783489000023,142.5783489000023,142.66157730000123,142.89557530000093,,,,,,,,down,4.574680100002297,None,space,0.3113262000006216,None,,,,,,,,,,,,,,,P108,001,2025-02-13_14h32.39.068,posner_endo_new1,2024.2.4,60.061466904363236,2025-02-13 14h32.46.385229 +0000,
cube_r.png,0.1,-0.31,invalid,7,7,0,down,5.884121999999479,None,space,0.30393850000109524,None,,,,,0,7,7,7,,,,,142.91135670000222,,,,,,,,,,,,,142.89577389999977,142.91135670000222,142.91135670000222,142.91135670000222,148.80604030000177,,,,148.8132336000017,148.8248573000019,148.8248573000019,148.87198980000176,148.87222850000035,148.8884677999995,148.8884677999995,148.8884677999995,148.95516359999965,149.20544320000045,,,,,,,,down,5.884121999999479,None,space,0.30393850000109524,None,,,,,,,,,,,,,,,P108,001,2025-02-13_14h32.39.068,posner_endo_new1,2024.2.4,60.061466904363236,2025-02-13 14h32.46.385229 +0000,
cube_l.png,0.1,-0.31,valid,8,8,0,down,4.33366450000176,None,space,0.2946263999983785,None,,,,,0,8,8,8,,,,,149.2215537000011,,,,,,,,,,,,,149.20563670000047,149.2215537000011,149.2215537000011,149.2215537000011,153.5680582999994,,,,153.57520479999948,153.5869813999998,153.5869813999998,153.63396439999997,153.6342074000022,153.65030490000208,153.65030490000208,153.65030490000208,153.73361540000042,153.95080190000226,,,,,,,,down,4.33366450000176,None,space,0.2946263999983785,None,,,,,,,,,,,,,,,P108,001,2025-02-13_14h32.39.068,posner_endo_new1,2024.2.4,60.061466904363236,2025-02-13 14h32.46.385229 +0000,
cube_r.png,0.1,-0.31,invalid,9,9,0,down,4.7092740000007325,None,space,0.26603479999903357,None,,,,,0,9,9,9,,,,,153.96674690000145,,,,,,,,,,,,,153.9509947000006,153.96674690000145,153.96674690000145,153.96674690000145,158.6794391000003,,,,158.68653610000183,158.6983254000006,158.6983254000006,158.7453310000019,158.74557280000226,158.76171230000182,158.76171230000182,158.76171230000182,158.8452572999995,159.02910610000254,,,,,,,,down,4.7092740000007325,None,space,0.26603479999903357,None,,,,,,,,,,,,,,,P108,001,2025-02-13_14h32.39.068,posner_endo_new1,2024.2.4,60.061466904363236,2025-02-13 14h32.46.385229 +0000,
cube_l.png,0.1,0.31,invalid,10,10,0,down,4.879580299999361,None,space,0.38804309999977704,None,,,,,0,10,10,10,,,,,159.04474850000042,,,,,,,,,,,,,159.02930480000214,159.04474850000042,159.04474850000042,159.04474850000042,163.94056360000104,,,,163.94758530000036,163.9592881000026,163.9592881000026,164.0065730999995,164.00682159999997,164.02317200000107,164.02317200000107,164.02317200000107,164.08963720000247,164.42345639999985,,,,,,,,down,4.879580299999361,None,space,0.38804309999977704,None,,,,,,,,,,,,,,,P108,001,2025-02-13_14h32.39.068,posner_endo_new1,2024.2.4,60.061466904363236,2025-02-13 14h32.46.385229 +0000,
cube_r.png,0.1,-0.31,invalid,11,11,0,down,5.356498900000588,None,space,0.45686420000129147,None,,,,,0,11,11,11,,,,,164.43884310000067,,,,,,,,,,,,,164.42364610000004,164.43884310000067,164.43884310000067,164.43884310000067,169.8012153000018,,,,169.8082811000022,169.8201891000026,169.8201891000026,169.86737809999977,169.8676054000025,169.8835233000027,169.8835233000027,169.8835233000027,169.95004280000285,170.35058860000208,,,,,,,,down,5.356498900000588,None,space,0.45686420000129147,None,,,,,,,,,,,,,,,P108,001,2025-02-13_14h32.39.068,posner_endo_new1,2024.2.4,60.061466904363236,2025-02-13 14h32.46.385229 +0000,
cube_r.png,0.1,0.31,valid,12,12,0,down,5.020516000000498,None,space,0.41182219999973313,None,,,,,0,12,12,12,,,,,170.36665030000222,,,,,,,,,,,,,170.35076409999965,170.36665030000222,170.36665030000222,170.36665030000222,175.3955315000021,,,,175.40173470000082,175.41313100000116,175.41313100000116,175.46171170000162,175.46194130000003,175.4780619000012,175.4780619000012,175.4780619000012,175.54473950000101,175.89518750000207,,,,,,,,down,5.020516000000498,None,space,0.41182219999973313,None,,,,,,,,,,,,,,,P108,001,2025-02-13_14h32.39.068,posner_endo_new1,2024.2.4,60.061466904363236,2025-02-13 14h32.46.385229 +0000,
cube_l.png,0.1,10,catch,13,13,0,down,13.836302100000466,None,space,0.3641721999993024,None,,,,,0,13,13,13,,,,,175.91104650000125,,,,,,,,,,,,,175.89536919999955,175.91104650000125,175.91104650000125,175.91104650000125,189.74970130000293,,,,189.77325779999956,189.78577919999952,189.78577919999952,189.8132841000006,189.81372320000082,189.8297319000012,189.8297319000012,189.8297319000012,189.91316840000218,190.19725980000294,,,,,,,,down,13.836302100000466,None,space,0.3641721999993024,None,,,,,,,,,,,,,,,P108,001,2025-02-13_14h32.39.068,posner_endo_new1,2024.2.4,60.061466904363236,2025-02-13 14h32.46.385229 +0000,
cube_r.png,0.1,-0.31,invalid,14,14,0,down,6.390547999999399,None,space,0.310601700002735,None,,,,,0,14,14,14,,,,,190.21290969999973,,,,,,,,,,,,,190.19751760000145,190.21290969999973,190.21290969999973,190.21290969999973,196.60742440000104,,,,196.6175148000002,196.62754300000233,196.62754300000233,196.6731585000016,196.6734768000024,196.68970500000069,196.68970500000069,196.68970500000069,196.77300560000003,197.0071108000011,,,,,,,,down,6.390547999999399,None,space,0.310601700002735,None,,,,,,,,,,,,,,,P108,001,2025-02-13_14h32.39.068,posner_endo_new1,2024.2.4,60.061466904363236,2025-02-13 14h32.46.385229 +0000,
cube_l.png,0.1,-0.31,valid,15,15,0,down,8.709867800000211,None,space,0.5780106000020169,None,,,,,0,15,15,15,,,,,197.02247170000192,,,,,,,,,,,,,197.00737350000054,197.02247170000192,197.02247170000192,197.02247170000192,205.7481155000023,,,,205.75798080000095,205.76801800000248,205.76801800000248,205.8139805000028,205.81429430000208,205.83027100000254,205.83027100000254,205.83027100000254,205.91358010000113,206.4141524000006,,,,,,,,down,8.709867800000211,None,space,0.5780106000020169,None,,,,,,,,,,,,,,,P108,001,2025-02-13_14h32.39.068,posner_endo_new1,2024.2.4,60.061466904363236,2025-02-13 14h32.46.385229 +0000,
cube_r.png,0.1,10,catch,16,16,0,down,4.606150100000377,None,None,,,,,,,0,16,16,16,,,,,206.4297331000016,,,,,,,,,,,,,206.4144221000024,206.4297331000016,206.4297331000016,206.4297331000016,211.04282550000062,,,,211.05267970000205,211.0626787000001,211.0626787000001,211.10842960000082,211.10874370000238,211.12489210000058,211.12489210000058,211.12489210000058,211.20814840000094,214.1225357000003,,,,213.222776300001,214.13853270000254,214.13853270000254,214.13853270000254,down,4.606150100000377,None,None,,,,,,,,,,,,,,,,,P108,001,2025-02-13_14h32.39.068,posner_endo_new1,2024.2.4,60.061466904363236,2025-02-13 14h32.46.385229 +0000,
cube_r.png,0.1,10,catch,17,17,0,down,3.9925292000007175,None,None,,,,,,,0,17,17,17,,,,,214.13853270000254,,,,,,,,,,,,,214.12277449999965,214.13853270000254,214.13853270000254,214.13853270000254,218.13562690000253,,,,218.14542090000032,218.15545550000024,218.15545550000024,218.20114240000112,218.2014476000004,218.217730700002,218.217730700002,218.217730700002,218.30094820000159,221.21529350000128,,,,220.31552759999977,221.23131009999997,221.23131009999997,221.23131009999997,down,3.9925292000007175,None,None,,,,,,,,,,,,,,,,,P108,001,2025-02-13_14h32.39.068,posner_endo_new1,2024.2.4,60.061466904363236,2025-02-13 14h32.46.385229 +0000,
cube_l.png,0.1,0.31,invalid,18,18,0,down,2.972580799996649,None,space,0.38543769999887445,None,,,,,0,18,18,18,,,,,221.23131009999997,,,,,,,,,,,,,221.2155324000014,221.23131009999997,221.23131009999997,221.23131009999997,224.21258610000223,,,,224.2224464000028,224.2325058000024,224.2325058000024,224.27830069999982,224.27860979999969,224.2947908999995,224.2947908999995,224.2947908999995,224.3781025999997,224.69553000000087,,,,,,,,down,2.972580799996649,None,space,0.38543769999887445,None,,,,,,,,,,,,,,,P108,001,2025-02-13_14h32.39.068,posner_endo_new1,2024.2.4,60.061466904363236,2025-02-13 14h32.46.385229 +0000,
cube_l.png,0.1,10,catch,19,19,0,down,5.164983099999517,None,None,,,,,,,0,19,19,19,,,,,224.71107100000154,,,,,,,,,,,,,224.69579830000293,224.71107100000154,224.71107100000154,224.71107100000154,229.89003930000035,,,,229.8998582000022,229.90986990000238,229.90986990000238,229.955784400001,229.9560961999996,229.97234690000187,229.97234690000187,229.97234690000187,230.05552680000255,232.9699763000026,,,,232.0700945000026,232.9863805999994,232.9863805999994,232.9863805999994,down,5.164983099999517,None,None,,,,,,,,,,,,,,,,,P108,001,2025-02-13_14h32.39.068,posner_endo_new1,2024.2.4,60.061466904363236,2025-02-13 14h32.46.385229 +0000,
cube_l.png,0.1,0.31,invalid,20,20,0,down,2.8015659999982745,None,space,0.3821468999994977,None,,,,,0,20,20,20,,,,,232.9863805999994,,,,,,,,,,,,,232.97021700000187,232.9863805999994,232.9863805999994,232.9863805999994,235.80076399999962,,,,235.8106153000008,235.82070550000208,235.82070550000208,235.86653490000026,235.86684530000275,235.88292800000272,235.88292800000272,235.88292800000272,235.9661367000008,236.2671220000011,,,,,,,,down,2.8015659999982745,None,space,0.3821468999994977,None,,,,,,,,,,,,,,,P108,001,2025-02-13_14h32.39.068,posner_endo_new1,2024.2.4,60.061466904363236,2025-02-13 14h32.46.385229 +0000,
cube_l.png,0.1,-0.31,valid,21,21,0,down,7.45674809999764,None,space,0.38931659999798285,None,,,,,0,21,21,21,,,,,236.2826255,,,,,,,,,,,,,236.26738060000207,236.2826255,236.2826255,236.2826255,243.74266940000234,,,,243.752481800002,243.76262700000007,243.76262700000007,243.80833370000255,243.8086488000008,243.8248689000029,243.8248689000029,243.8248689000029,243.90805570000157,244.2253249000023,,,,,,,,down,7.45674809999764,None,space,0.38931659999798285,None,,,,,,,,,,,,,,,P108,001,2025-02-13_14h32.39.068,posner_endo_new1,2024.2.4,60.061466904363236,2025-02-13 14h32.46.385229 +0000,
cube_r.png,0.1,0.31,valid,22,22,0,down,4.482250199998816,None,space,0.47836439999809954,None,,,,,0,22,22,22,,,,,244.2411420999997,,,,,,,,,,,,,244.2255952000014,244.2411420999997,244.2411420999997,244.2411420999997,248.73758380000072,,,,248.74743090000266,248.75749460000225,248.75749460000225,248.80320159999974,248.80351200000223,248.81986800000232,248.81986800000232,248.81986800000232,248.9029881000024,249.30355450000206,,,,,,,,down,4.482250199998816,None,space,0.47836439999809954,None,,,,,,,,,,,,,,,P108,001,2025-02-13_14h32.39.068,posner_endo_new1,2024.2.4,60.061466904363236,2025-02-13 14h32.46.385229 +0000,
cube_r.png,0.1,-0.31,invalid,23,23,0,down,7.060693300001731,None,space,0.46381560000008903,None,,,,,0,23,23,23,,,,,249.3192078000029,,,,,,,,,,,,,249.30381269999998,249.3192078000029,249.3192078000029,249.3192078000029,256.39569649999976,,,,256.40190410000287,256.4135821000018,256.4135821000018,256.46179810000103,256.4620246000013,256.47876570000153,256.47876570000153,256.47876570000153,256.5454301000027,256.94551670000146,,,,,,,,down,7.060693300001731,None,space,0.46381560000008903,None,,,,,,,,,,,,,,,P108,001,2025-02-13_14h32.39.068,posner_endo_new1,2024.2.4,60.061466904363236,2025-02-13 14h32.46.385229 +0000,
cube_r.png,0.1,0.31,valid,24,24,0,down,6.386976999998296,None,space,0.38511819999985164,None,,,,,0,24,24,24,,,,,256.96095640000203,,,,,,,,,,,,,256.94569550000233,256.96095640000203,256.96095640000203,256.96095640000203,263.355617600002,,,,263.3617163000017,263.3732111999998,263.3732111999998,263.42153900000267,263.4217720000015,263.43829440000263,263.43829440000263,263.43829440000263,263.50491669999974,263.83847100000276,,,,,,,,down,6.386976999998296,None,space,0.38511819999985164,None,,,,,,,,,,,,,,,P108,001,2025-02-13_14h32.39.068,posner_endo_new1,2024.2.4,60.061466904363236,2025-02-13 14h32.46.385229 +0000,
cube_r.png,0.1,-0.31,invalid,25,25,0,down,5.549312399998598,None,space,0.8469733000019914,None,,,,,0,25,25,25,,,,,263.854432600001,,,,,,,,,,,,,263.83865309999965,263.854432600001,263.854432600001,263.854432600001,269.4161507000026,,,,269.42229670000233,269.43384739999965,269.43384739999965,269.48159710000255,269.4818202999995,269.4988553000003,269.4988553000003,269.4988553000003,269.58150540000133,270.34814720000213,,,,,,,,down,5.549312399998598,None,space,0.8469733000019914,None,,,,,,,,,,,,,,,P108,001,2025-02-13_14h32.39.068,posner_endo_new1,2024.2.4,60.061466904363236,2025-02-13 14h32.46.385229 +0000,
cube_l.png,0.1,-0.31,valid,26,26,0,down,4.36668009999994,None,space,0.34420590000081575,None,,,,,0,26,26,26,,,,,270.36440439999933,,,,,,,,,,,,,270.34832280000046,270.36440439999933,270.36440439999933,270.36440439999933,274.7439145000026,,,,274.75006249999933,274.7617387999999,274.7617387999999,274.8100446999997,274.81026920000295,274.82663120000143,274.82663120000143,274.82663120000143,274.8926965999999,275.17708219999986,,,,,,,,down,4.36668009999994,None,space,0.34420590000081575,None,,,,,,,,,,,,,,,P108,001,2025-02-13_14h32.39.068,posner_endo_new1,2024.2.4,60.061466904363236,2025-02-13 14h32.46.385229 +0000,
cube_r.png,0.1,0.31,valid,27,27,0,down,5.139244099998905,None,space,0.43402229999992414,None,,,,,0,27,27,27,,,,,275.19272170000113,,,,,,,,,,,,,275.1772638000002,275.19272170000113,275.19272170000113,275.19272170000113,280.3406361000016,,,,280.36281620000227,280.37342980000176,280.37342980000176,280.404053000002,280.40449850000005,280.42050270000254,280.42050270000254,280.42050270000254,280.5037781000028,280.87156630000027,,,,,,,,down,5.139244099998905,None,space,0.43402229999992414,None,,,,,,,,,,,,,,,P108,001,2025-02-13_14h32.39.068,posner_endo_new1,2024.2.4,60.061466904363236,2025-02-13 14h32.46.385229 +0000,
cube_r.png,0.1,10,catch,28,28,0,down,6.085015199998452,None,space,0.27951279999979306,None,,,,,0,28,28,28,,,,,280.8866947000024,,,,,,,,,,,,,280.8719435000021,280.8866947000024,280.8866947000024,280.8866947000024,286.9817361000023,,,,286.9914936999994,287.0015303,287.0015303,287.04757790000076,287.047886700002,287.0640196000022,287.0640196000022,287.0640196000022,287.14736529999936,287.34834050000063,,,,,,,,down,6.085015199998452,None,space,0.27951279999979306,None,,,,,,,,,,,,,,,P108,001,2025-02-13_14h32.39.068,posner_endo_new1,2024.2.4,60.061466904363236,2025-02-13 14h32.46.385229 +0000,
cube_r.png,0.1,0.31,valid,29,29,0,down,3.0476768000007723,None,space,0.45756840000103693,None,,,,,0,29,29,29,,,,,287.36374120000255,,,,,,,,,,,,,287.3486015000017,287.36374120000255,287.36374120000255,287.36374120000255,290.4282764000018,,,,290.4380400000009,290.4478909999998,290.4478909999998,290.49398980000115,290.4943005999994,290.51052809999965,290.51052809999965,290.51052809999965,290.5937933000023,290.9777974999997,,,,,,,,down,3.0476768000007723,None,space,0.45756840000103693,None,,,,,,,,,,,,,,,P108,001,2025-02-13_14h32.39.068,posner_endo_new1,2024.2.4,60.061466904363236,2025-02-13 14h32.46.385229 +0000,
cube_r.png,0.1,0.31,valid,30,30,0,down,7.938872200000333,None,space,0.3095372999996471,None,,,,,0,30,30,30,,,,,290.9932890000018,,,,,,,,,,,,,290.9780559999999,290.9932890000018,290.9932890000018,290.9932890000018,298.9363028000007,,,,298.9460706000027,298.9561136000011,298.9561136000011,299.002046900001,299.0023603000009,299.01843550000194,299.01843550000194,299.01843550000194,299.10169450000103,299.3358095000003,,,,,,,,down,7.938872200000333,None,space,0.3095372999996471,None,,,,,,,,,,,,,,,P108,001,2025-02-13_14h32.39.068,posner_endo_new1,2024.2.4,60.061466904363236,2025-02-13 14h32.46.385229 +0000,
cube_l.png,0.1,-0.31,valid,31,31,0,down,8.003990199998952,None,space,0.3812480000015057,None,,,,,0,31,31,31,,,,,299.35148800000024,,,,,,,,,,,,,299.3360735999995,299.35148800000024,299.35148800000024,299.35148800000024,307.36108850000164,,,,307.37088570000196,307.38097200000266,307.38097200000266,307.426701700002,307.4270111000005,307.443141300002,307.443141300002,307.443141300002,307.52640910000264,307.8273700000027,,,,,,,,down,8.003990199998952,None,space,0.3812480000015057,None,,,,,,,,,,,,,,,P108,001,2025-02-13_14h32.39.068,posner_endo_new1,2024.2.4,60.061466904363236,2025-02-13 14h32.46.385229 +0000,
cube_r.png,0.1,0.31,valid,32,32,0,down,7.217274300001009,None,space,0.349229400002514,None,,,,,0,32,32,32,,,,,307.8428730000014,,,,,,,,,,,,,307.8276293000017,307.8428730000014,307.8428730000014,307.8428730000014,315.0703336000006,,,,315.0876354000029,315.098646800001,315.098646800001,315.1355285999998,315.13581390000036,315.15200240000195,315.15200240000195,315.15200240000195,315.2353733000018,315.5024039000018,,,,,,,,down,7.217274300001009,None,space,0.349229400002514,None,,,,,,,,,,,,,,,P108,001,2025-02-13_14h32.39.068,posner_endo_new1,2024.2.4,60.061466904363236,2025-02-13 14h32.46.385229 +0000,
cube_r.png,0.1,-0.31,invalid,33,33,0,down,5.42909619999773,None,space,0.3157218999986071,None,,,,,0,33,33,33,,,,,315.5182480000003,,,,,,,,,,,,,315.50264310000057,315.5182480000003,315.5182480000003,315.5182480000003,320.9638455000022,,,,320.97269980000056,320.9825047000013,320.9825047000013,321.0295425000004,321.02983850000237,321.0460832000026,321.0460832000026,321.0460832000026,321.1292723000006,321.3635600000016,,,,,,,,down,5.42909619999773,None,space,0.3157218999986071,None,,,,,,,,,,,,,,,P108,001,2025-02-13_14h32.39.068,posner_endo_new1,2024.2.4,60.061466904363236,2025-02-13 14h32.46.385229 +0000,
cube_r.png,0.1,10,catch,34,34,0,down,6.569039799996972,None,None,,,,,,,0,34,34,34,,,,,321.379123900002,,,,,,,,,,,,,321.3638075000017,321.379123900002,321.379123900002,321.379123900002,327.9566780999994,,,,327.965567700001,327.97552469999937,327.97552469999937,328.0222702000028,328.0225568999995,328.03882050000175,328.03882050000175,328.03882050000175,328.1220783000026,331.0363935000023,,,,330.1367113000015,331.0524482000001,331.0524482000001,331.0524482000001,down,6.569039799996972,None,None,,,,,,,,,,,,,,,,,P108,001,2025-02-13_14h32.39.068,posner_endo_new1,2024.2.4,60.061466904363236,2025-02-13 14h32.46.385229 +0000,
cube_r.png,0.1,0.31,valid,35,35,0,down,2.8227990999985195,None,space,0.47888070000044536,None,,,,,0,35,35,35,,,,,331.0524482000001,,,,,,,,,,,,,331.0366138999998,331.0524482000001,331.0524482000001,331.0524482000001,333.8839009000003,,,,333.89279420000094,333.9028414000022,333.9028414000022,333.9495808000029,333.9498646000029,333.9660847000014,333.9660847000014,333.9660847000014,334.0494671000015,334.45001670000056,,,,,,,,down,2.8227990999985195,None,space,0.47888070000044536,None,,,,,,,,,,,,,,,P108,001,2025-02-13_14h32.39.068,posner_endo_new1,2024.2.4,60.061466904363236,2025-02-13 14h32.46.385229 +0000,
cube_r.png,0.1,-0.31,invalid,36,36,0,down,10.682241699996666,None,space,0.42349779999858583,None,,,,,0,36,36,36,,,,,334.4657818000014,,,,,,,,,,,,,334.450251000002,334.4657818000014,334.4657818000014,334.4657818000014,345.1557608000003,,,,345.16464760000235,345.17474220000076,345.17474220000076,345.2214641000028,345.2217500000006,345.2378699000001,345.2378699000001,345.2378699000001,345.32088099999964,345.6718338000028,,,,,,,,down,10.682241699996666,None,space,0.42349779999858583,None,,,,,,,,,,,,,,,P108,001,2025-02-13_14h32.39.068,posner_endo_new1,2024.2.4,60.061466904363236,2025-02-13 14h32.46.385229 +0000,
cube_l.png,0.1,0.31,invalid,37,37,0,down,4.02873610000097,None,space,0.5821859999996377,None,,,,,0,37,37,37,,,,,345.6874822000027,,,,,,,,,,,,,345.6720736999996,345.6874822000027,345.6874822000027,345.6874822000027,349.7178287000024,,,,349.7267909000002,349.73686839999937,349.73686839999937,349.78353360000256,349.783819100001,349.80008010000165,349.80008010000165,349.80008010000165,349.8832020000009,350.384043500002,,,,,,,,down,4.02873610000097,None,space,0.5821859999996377,None,,,,,,,,,,,,,,,P108,001,2025-02-13_14h32.39.068,posner_endo_new1,2024.2.4,60.061466904363236,2025-02-13 14h32.46.385229 +0000,
cube_l.png,0.1,0.31,invalid,38,38,0,down,8.948520800000551,None,space,0.3362120000019786,None,,,,,0,38,38,38,,,,,350.3991812999993,,,,,,,,,,,,,350.3842912,350.3991812999993,350.3991812999993,350.3991812999993,359.35790629999974,,,,359.36678360000224,359.37694340000235,359.37694340000235,359.42360680000274,359.4238992000028,359.44008179999946,359.44008179999946,359.44008179999946,359.5234823999999,359.7906208000022,,,,,,,,down,8.948520800000551,None,space,0.3362120000019786,None,,,,,,,,,,,,,,,P108,001,2025-02-13_14h32.39.068,posner_endo_new1,2024.2.4,60.061466904363236,2025-02-13 14h32.46.385229 +0000,
cube_r.png,0.1,0.31,valid,39,39,0,down,8.061779100000422,None,space,0.48646260000168695,None,,,,,0,39,39,39,,,,,359.8063637000014,,,,,,,,,,,,,359.7908588999999,359.8063637000014,359.8063637000014,359.8063637000014,367.88241370000105,,,,367.8913743000012,367.90139900000213,367.90139900000213,367.94807480000236,367.9483607000002,367.9648264999996,367.9648264999996,367.9648264999996,368.04794760000004,368.465011100001,,,,,,,,down,8.061779100000422,None,space,0.48646260000168695,None,,,,,,,,,,,,,,,P108,001,2025-02-13_14h32.39.068,posner_endo_new1,2024.2.4,60.061466904363236,2025-02-13 14h32.46.385229 +0000,
cube_l.png,0.1,0.31,invalid,40,40,0,down,5.587003299999196,None,space,0.3880472999990161,None,,,,,0,40,40,40,,,,,368.4808499999999,,,,,,,,,,,,,368.46525420000035,368.4808499999999,368.4808499999999,368.4808499999999,374.0761302000028,,,,374.0850554000026,374.0950871000023,374.0950871000023,374.1419285000011,374.1422119000017,374.1584256000024,374.1584256000024,374.1584256000024,374.2417483999998,374.5589973999995,,,,,,,,down,5.587003299999196,None,space,0.3880472999990161,None,,,,,,,,,,,,,,,P108,001,2025-02-13_14h32.39.068,posner_endo_new1,2024.2.4,60.061466904363236,2025-02-13 14h32.46.385229 +0000,
cube_l.png,0.1,10,catch,41,41,0,down,5.853414700002759,None,space,0.28454189999683877,None,,,,,0,41,41,41,,,,,374.5747389999997,,,,,,,,,,,,,374.55923090000215,374.5747389999997,374.5747389999997,374.5747389999997,380.43641820000266,,,,380.44532700000127,380.4554038000024,380.4554038000024,380.50202270000227,380.50231260000146,380.5185101999996,380.5185101999996,380.5185101999996,380.60184070000105,380.81920150000224,,,,,,,,down,5.853414700002759,None,space,0.28454189999683877,None,,,,,,,,,,,,,,,P108,001,2025-02-13_14h32.39.068,posner_endo_new1,2024.2.4,60.061466904363236,2025-02-13 14h32.46.385229 +0000,
cube_l.png,0.1,-0.31,valid,42,42,0,down,7.232789800000319,None,space,0.5506179000003613,None,,,,,0,42,42,42,,,,,380.83480150000105,,,,,,,,,,,,,380.81943800000226,380.83480150000105,380.83480150000105,380.83480150000105,388.0783332000028,,,,388.08722350000244,388.0973030000023,388.0973030000023,388.1442137000013,388.1445012000004,388.16065190000154,388.16065190000154,388.16065190000154,388.22742370000196,388.7278326000014,,,,,,,,down,7.232789800000319,None,space,0.5506179000003613,None,,,,,,,,,,,,,,,P108,001,2025-02-13_14h32.39.068,posner_endo_new1,2024.2.4,60.061466904363236,2025-02-13 14h32.46.385229 +0000,
cube_l.png,0.1,10,catch,43,43,0,down,7.987787799997022,None,None,,,,,,,0,43,43,43,,,,,388.74357210000016,,,,,,,,,,,,,388.72806290000153,388.74357210000016,388.74357210000016,388.74357210000016,396.73646310000186,,,,396.74560700000075,396.75556940000024,396.75556940000024,396.80206100000214,396.80235080000057,396.8186148999994,396.8186148999994,396.8186148999994,396.9019628999995,399.8161342000021,,,,398.91650239999944,399.83200829999987,399.83200829999987,399.83200829999987,down,7.987787799997022,None,None,,,,,,,,,,,,,,,,,P108,001,2025-02-13_14h32.39.068,posner_endo_new1,2024.2.4,60.061466904363236,2025-02-13 14h32.46.385229 +0000,
cube_l.png,0.1,0.31,invalid,44,44,0,down,5.707697199999529,None,space,0.3000328999987687,None,,,,,0,44,44,44,,,,,399.83200829999987,,,,,,,,,,,,,399.8163585000002,399.83200829999987,399.83200829999987,399.83200829999987,405.54417690000264,,,,405.55308720000176,405.5630791000003,405.5630791000003,405.60977920000005,405.6100707000005,405.6262123000015,405.6262123000015,405.6262123000015,405.70956760000263,405.9271837000015,,,,,,,,down,5.707697199999529,None,space,0.3000328999987687,None,,,,,,,,,,,,,,,P108,001,2025-02-13_14h32.39.068,posner_endo_new1,2024.2.4,60.061466904363236,2025-02-13 14h32.46.385229 +0000,
cube_l.png,0.1,0.31,invalid,45,45,0,down,9.981569299998228,None,space,0.336360400000558,None,,,,,0,45,45,45,,,,,405.94250459999967,,,,,,,,,,,,,405.92742139999973,405.94250459999967,405.94250459999967,405.94250459999967,415.93331890000263,,,,415.9421352999998,415.95229910000126,415.95229910000126,415.9990577999997,415.9993422000007,416.01569120000204,416.01569120000204,416.01569120000204,416.0988116000008,416.36641910000253,,,,,,,,down,9.981569299998228,None,space,0.336360400000558,None,,,,,,,,,,,,,,,P108,001,2025-02-13_14h32.39.068,posner_endo_new1,2024.2.4,60.061466904363236,2025-02-13 14h32.46.385229 +0000,
cube_r.png,0.1,0.31,valid,46,46,0,down,10.293768499999715,None,space,0.35763179999776185,None,,,,,0,46,46,46,,,,,416.3819239000004,,,,,,,,,,,,,416.36665370000264,416.3819239000004,416.3819239000004,416.3819239000004,426.68901109999933,,,,426.6978605000004,426.70801680000295,426.70801680000295,426.7547259000021,426.75501200000144,426.77126430000135,426.77126430000135,426.77126430000135,426.85454540000137,427.1386515000013,,,,,,,,down,10.293768499999715,None,space,0.35763179999776185,None,,,,,,,,,,,,,,,P108,001,2025-02-13_14h32.39.068,posner_endo_new1,2024.2.4,60.061466904363236,2025-02-13 14h32.46.385229 +0000,
cube_l.png,0.1,-0.31,valid,47,47,0,down,7.337469300000521,None,space,0.34446530000059283,None,,,,,0,47,47,47,,,,,427.1542143000006,,,,,,,,,,,,,427.1388893000003,427.1542143000006,427.1542143000006,427.1542143000006,434.4986420000023,,,,434.51744690000123,434.5288741000004,434.5288741000004,434.5634648000014,434.5637769999994,434.57997969999997,434.57997969999997,434.57997969999997,434.6632481000015,434.9305760000025,,,,,,,,down,7.337469300000521,None,space,0.34446530000059283,None,,,,,,,,,,,,,,,P108,001,2025-02-13_14h32.39.068,posner_endo_new1,2024.2.4,60.061466904363236,2025-02-13 14h32.46.385229 +0000,
cube_r.png,0.1,-0.31,invalid,48,48,0,down,5.417617299997801,None,space,0.32444540000142297,None,,,,,0,48,48,48,,,,,434.9461977000028,,,,,,,,,,,,,434.9308290000008,434.9461977000028,434.9461977000028,434.9461977000028,440.37513129999934,,,,440.38319430000047,440.39367870000206,440.39367870000206,440.44082830000116,440.4411336000012,440.4573287000021,440.4573287000021,440.4573287000021,440.5405826999995,440.79138760000205,,,,,,,,down,5.417617299997801,None,space,0.32444540000142297,None,,,,,,,,,,,,,,,P108,001,2025-02-13_14h32.39.068,posner_endo_new1,2024.2.4,60.061466904363236,2025-02-13 14h32.46.385229 +0000,
cube_r.png,0.1,10,catch,49,49,0,down,5.021251699999993,None,space,0.3067784000013489,None,,,,,0,49,49,49,,,,,440.8069037999994,,,,,,,,,,,,,440.7916409000027,440.8069037999994,440.8069037999994,440.8069037999994,445.83618209999986,,,,445.8459389000018,445.8559653000011,445.8559653000011,445.90189029999965,445.9021997000018,445.9184563000017,445.9184563000017,445.9184563000017,446.0016379000008,446.2357473000011,,,,,,,,down,5.021251699999993,None,space,0.3067784000013489,None,,,,,,,,,,,,,,,P108,001,2025-02-13_14h32.39.068,posner_endo_new1,2024.2.4,60.061466904363236,2025-02-13 14h32.46.385229 +0000,
cube_l.png,0.1,-0.31,valid,50,50,0,down,9.536860600001091,None,space,0.569870200000878,None,,,,,0,50,50,50,,,,,446.25141559999975,,,,,,,,,,,,,446.23600050000096,446.25141559999975,446.25141559999975,446.25141559999975,455.7928442000011,,,,455.8020085999997,455.81147710000005,455.81147710000005,455.85841880000226,455.85864779999974,455.87496830000237,455.87496830000237,455.87496830000237,455.9576992000002,456.4584978000021,,,,,,,,down,9.536860600001091,None,space,0.569870200000878,None,,,,,,,,,,,,,,,P108,001,2025-02-13_14h32.39.068,posner_endo_new1,2024.2.4,60.061466904363236,2025-02-13 14h32.46.385229 +0000,
cube_l.png,0.1,-0.31,valid,51,51,0,down,5.410079099998256,None,space,0.3789747999981046,None,,,,,0,51,51,51,,,,,456.47417960000166,,,,,,,,,,,,,456.45867089999956,456.47417960000166,456.47417960000166,456.47417960000166,461.8862332000026,,,,461.8927315000001,461.90439040000274,461.90439040000274,461.95217799999955,461.95240240000203,461.9687750000012,461.9687750000012,461.9687750000012,462.0348374000023,462.3524488000003,,,,,,,,down,5.410079099998256,None,space,0.3789747999981046,None,,,,,,,,,,,,,,,P108,001,2025-02-13_14h32.39.068,posner_endo_new1,2024.2.4,60.061466904363236,2025-02-13 14h32.46.385229 +0000,
cube_r.png,0.1,-0.31,invalid,52,52,0,down,6.387896099997306,None,space,0.5945787999989989,None,,,,,0,52,52,52,,,,,462.3682767999999,,,,,,,,,,,,,462.35262240000156,462.3682767999999,462.3682767999999,462.3682767999999,468.76257389999955,,,,468.76900810000006,468.7808550000009,468.7808550000009,468.82788620000065,468.8281100999993,468.8449354000004,468.8449354000004,468.8449354000004,468.9282725000012,469.4451880000015,,,,,,,,down,6.387896099997306,None,space,0.5945787999989989,None,,,,,,,,,,,,,,,P108,001,2025-02-13_14h32.39.068,posner_endo_new1,2024.2.4,60.061466904363236,2025-02-13 14h32.46.385229 +0000,
cube_l.png,0.1,-0.31,valid,53,53,0,down,7.15100060000259,None,space,0.2665890999996918,None,,,,,0,53,53,53,,,,,469.4610425000028,,,,,,,,,,,,,469.4453614000013,469.4610425000028,469.4610425000028,469.4610425000028,476.6208157000001,,,,476.6272468999996,476.6388014000004,476.6388014000004,476.68654790000073,476.6867736999993,476.7036369000016,476.7036369000016,476.7036369000016,476.7697386,476.9710167000012,,,,,,,,down,7.15100060000259,None,space,0.2665890999996918,None,,,,,,,,,,,,,,,P108,001,2025-02-13_14h32.39.068,posner_endo_new1,2024.2.4,60.061466904363236,2025-02-13 14h32.46.385229 +0000,
cube_r.png,0.1,10,catch,54,54,0,down,7.03227600000173,None,space,0.26251590000174474,None,,,,,0,54,54,54,,,,,476.9871665999999,,,,,,,,,,,,,476.97118799999953,476.9871665999999,476.9871665999999,476.9871665999999,484.0302655000014,,,,484.0367038000004,484.0484486999994,484.0484486999994,484.09631360000276,484.0965365000011,484.1127689999994,484.1127689999994,484.1127689999994,484.1959736000026,484.3800885000019,,,,,,,,down,7.03227600000173,None,space,0.26251590000174474,None,,,,,,,,,,,,,,,P108,001,2025-02-13_14h32.39.068,posner_endo_new1,2024.2.4,60.061466904363236,2025-02-13 14h32.46.385229 +0000,
cube_l.png,0.1,0.31,invalid,55,55,0,down,6.049083300000348,None,space,0.32816749999983585,None,,,,,0,55,55,55,,,,,484.39533660000234,,,,,,,,,,,,,484.3802718000006,484.39533660000234,484.39533660000234,484.39533660000234,490.4571579000003,,,,490.4632175000006,490.4748734999994,490.4748734999994,490.5225298000005,490.5227613999996,490.53918740000154,490.53918740000154,490.53918740000154,490.6060514000019,490.8728477000004,,,,,,,,down,6.049083300000348,None,space,0.32816749999983585,None,,,,,,,,,,,,,,,P108,001,2025-02-13_14h32.39.068,posner_endo_new1,2024.2.4,60.061466904363236,2025-02-13 14h32.46.385229 +0000,
cube_l.png,0.1,-0.31,valid,56,56,0,down,6.571012899999914,None,space,0.3344284999984666,None,,,,,0,56,56,56,,,,,490.8887702000029,,,,,,,,,,,,,490.87301990000196,490.8887702000029,490.8887702000029,490.8887702000029,497.46664299999975,,,,497.47266780000064,497.4844602000012,497.4844602000012,497.53196890000254,497.5321932000006,497.54904180000085,497.54904180000085,497.54904180000085,497.6152112000018,497.8990709999998,,,,,,,,down,6.571012899999914,None,space,0.3344284999984666,None,,,,,,,,,,,,,,,P108,001,2025-02-13_14h32.39.068,posner_endo_new1,2024.2.4,60.061466904363236,2025-02-13 14h32.46.385229 +0000,
cube_r.png,0.1,0.31,valid,57,57,0,down,11.440903000002436,None,space,0.29880749999938416,None,,,,,0,57,57,57,,,,,497.91525270000056,,,,,,,,,,,,,497.8992453999999,497.91525270000056,497.91525270000056,497.91525270000056,509.37093169999935,,,,509.3769973000017,509.3888154000015,509.3888154000015,509.4366921000001,509.4369144000011,509.45351140000275,509.45351140000275,509.45351140000275,509.52028060000157,509.7540162000005,,,,,,,,down,11.440903000002436,None,space,0.29880749999938416,None,,,,,,,,,,,,,,,P108,001,2025-02-13_14h32.39.068,posner_endo_new1,2024.2.4,60.061466904363236,2025-02-13 14h32.46.385229 +0000,
cube_r.png,0.1,-0.31,invalid,58,58,0,down,2.3942956999999296,None,space,0.5679688000018359,None,,,,,0,58,58,58,,,,,509.76976370000193,,,,,,,,,,,,,509.7541956000023,509.76976370000193,509.76976370000193,509.76976370000193,512.1699431000015,,,,512.1929893000015,512.2054151000011,512.2054151000011,512.2339638000012,512.2343084999993,512.2505684999996,512.2505684999996,512.2505684999996,512.3337586000016,512.8344787000024,,,,,,,,down,2.3942956999999296,None,space,0.5679688000018359,None,,,,,,,,,,,,,,,P108,001,2025-02-13_14h32.39.068,posner_endo_new1,2024.2.4,60.061466904363236,2025-02-13 14h32.46.385229 +0000,
cube_l.png,0.1,0.31,invalid,59,59,0,down,12.818764600000577,None,space,0.28396719999727793,None,,,,,0,59,59,59,,,,,512.8498954999995,,,,,,,,,,,,,512.834773300001,512.8498954999995,512.8498954999995,512.8498954999995,525.6714587999995,,,,525.6830251000029,525.6931847000014,525.6931847000014,525.736901100001,525.7372427000009,525.753435300001,525.753435300001,525.753435300001,525.8366131000002,526.0542803999997,,,,,,,,down,12.818764600000577,None,space,0.28396719999727793,None,,,,,,,,,,,,,,,P108,001,2025-02-13_14h32.39.068,posner_endo_new1,2024.2.4,60.061466904363236,2025-02-13 14h32.46.385229 +0000,
,,,,,,,,,,,,,,,,,,,,,,,,,,,,,,,,,,,,,,,,,,,,,,,,,,,,,,,,,,,,,,,,,,,,,526.0544769000007,526.0696945000018,526.0696945000018,586.075381900002,590.8062365000005,space,64.72666939999908,None,,,,,,,P108,001,2025-02-13_14h32.39.068,posner_endo_new1,2024.2.4,60.061466904363236,2025-02-13 14h32.46.385229 +0000,
,,,,,,,,,,,,,,,,,,,,,,,,,,,,,,,,,,590.8064039000019,590.8205362000008,593.8506789000021,593.8021015000013,,,,,,,,,,,,,,,,,,,,,,,,,,,,,,,,,,,,,,,,,,,,,,P108,001,2025-02-13_14h32.39.068,posner_endo_new1,2024.2.4,60.061466904363236,2025-02-13 14h32.46.385229 +0000,
cube_l.png,0.1,10,catch,0,0,0,up,12.401788200000738,None,space,0.3695941000005405,None,,,,,,,,,0,0,0,0,593.8506789000021,,,,,,,,,,,,,593.8415538000008,593.8506789000021,593.8506789000021,593.8506789000021,606.2555105000029,,,,606.265723200002,606.2757593999995,606.2757593999995,606.3212996000002,606.3216124999999,606.3378097000023,606.3378097000023,606.3378097000023,606.4211333000021,606.721717700002,,,,,,,,,,,,,,,,,,,,,,up,12.401788200000738,None,space,0.3695941000005405,None,P108,001,2025-02-13_14h32.39.068,posner_endo_new1,2024.2.4,60.061466904363236,2025-02-13 14h32.46.385229 +0000,
cube_l.png,0.1,10,catch,1,1,0,up,4.434955799999443,None,None,,,,,,,,,,,0,1,1,1,606.7373847000017,,,,,,,,,,,,,606.7219759,606.7373847000017,606.7373847000017,606.7373847000017,611.1854238000014,,,,611.2085366000028,611.2209084000024,611.2209084000024,611.2493328000019,611.2497662999995,611.2658071000005,611.2658071000005,611.2658071000005,611.3490584000028,614.2634417000008,,,,613.3639232999994,614.2796051000005,614.2796051000005,614.2796051000005,,,,,,,,,,,,,,,up,4.434955799999443,None,None,,,P108,001,2025-02-13_14h32.39.068,posner_endo_new1,2024.2.4,60.061466904363236,2025-02-13 14h32.46.385229 +0000,
cube_l.png,0.1,0.31,invalid,2,2,0,up,2.0688368000010087,None,space,0.5368319000008341,None,,,,,,,,,0,2,2,2,614.2796051000005,,,,,,,,,,,,,614.263647300002,614.2796051000005,614.2796051000005,614.2796051000005,616.3618473999995,,,,616.3697236000007,616.380608200001,616.380608200001,616.4274278000012,616.4278840000006,616.4438461999998,616.4438461999998,616.4438461999998,616.5270947999998,616.9946794000025,,,,,,,,,,,,,,,,,,,,,,up,2.0688368000010087,None,space,0.5368319000008341,None,P108,001,2025-02-13_14h32.39.068,posner_endo_new1,2024.2.4,60.061466904363236,2025-02-13 14h32.46.385229 +0000,
cube_l.png,0.1,0.31,invalid,3,3,0,up,7.322285700000066,None,space,0.41886860000158777,None,,,,,,,,,0,3,3,3,617.0103680000029,,,,,,,,,,,,,616.9949205000012,617.0103680000029,617.0103680000029,617.0103680000029,624.337036500001,,,,624.3459839000025,624.3559290000012,624.3559290000012,624.4029547000027,624.4032404000027,624.4194894000029,624.4194894000029,624.4194894000029,624.5025100000021,624.8532653000002,,,,,,,,,,,,,,,,,,,,,,up,7.322285700000066,None,space,0.41886860000158777,None,P108,001,2025-02-13_14h32.39.068,posner_endo_new1,2024.2.4,60.061466904363236,2025-02-13 14h32.46.385229 +0000,
cube_l.png,0.1,-0.31,valid,4,4,0,up,8.903675900000962,None,space,0.3942145000000892,None,,,,,,,,,0,4,4,4,624.8690927999996,,,,,,,,,,,,,624.8535035999994,624.8690927999996,624.8690927999996,624.8690927999996,633.7776205000009,,,,633.7867149000012,633.7967777000013,633.7967777000013,633.8431724000002,633.8434637000028,633.8596513000011,633.8596513000011,633.8596513000011,633.9429098,634.2603680000029,,,,,,,,,,,,,,,,,,,,,,up,8.903675900000962,None,space,0.3942145000000892,None,P108,001,2025-02-13_14h32.39.068,posner_endo_new1,2024.2.4,60.061466904363236,2025-02-13 14h32.46.385229 +0000,
cube_r.png,0.1,-0.31,invalid,5,5,0,up,7.000536199997441,None,space,0.41708199999993667,None,,,,,,,,,0,5,5,5,634.2760687000009,,,,,,,,,,,,,634.2606087000022,634.2760687000009,634.2760687000009,634.2760687000009,641.2863612000001,,,,641.2952593000009,641.3052996000006,641.3052996000006,641.3522479000021,641.3525360000021,641.3688906999996,641.3688906999996,641.3688906999996,641.4519572999998,641.8025576,,,,,,,,,,,,,,,,,,,,,,up,7.000536199997441,None,space,0.41708199999993667,None,P108,001,2025-02-13_14h32.39.068,posner_endo_new1,2024.2.4,60.061466904363236,2025-02-13 14h32.46.385229 +0000,
cube_r.png,0.1,0.31,valid,6,6,0,up,6.426305599998159,None,space,0.3211215999981505,None,,,,,,,,,0,6,6,6,641.8182152000009,,,,,,,,,,,,,641.802796,641.8182152000009,641.8182152000009,641.8182152000009,648.2462961000019,,,,648.2552192000003,648.2652244000019,648.2652244000019,648.3116651000018,648.3119499000022,648.3283639000001,648.3283639000001,648.3283639000001,648.4114002999995,648.6623130000007,,,,,,,,,,,,,,,,,,,,,,up,6.426305599998159,None,space,0.3211215999981505,None,P108,001,2025-02-13_14h32.39.068,posner_endo_new1,2024.2.4,60.061466904363236,2025-02-13 14h32.46.385229 +0000,
cube_r.png,0.1,-0.31,invalid,7,7,0,up,5.966519399997196,None,space,0.38382170000113547,None,,,,,,,,,0,7,7,7,648.6776179000008,,,,,,,,,,,,,648.6625549000019,648.6776179000008,648.6776179000008,648.6776179000008,654.6561125000007,,,,654.6649806000023,654.6749420000015,654.6749420000015,654.7219048000006,654.7221954000015,654.7383222000026,654.7383222000026,654.7383222000026,654.8216444000027,655.1390000000029,,,,,,,,,,,,,,,,,,,,,,up,5.966519399997196,None,space,0.38382170000113547,None,P108,001,2025-02-13_14h32.39.068,posner_endo_new1,2024.2.4,60.061466904363236,2025-02-13 14h32.46.385229 +0000,
cube_l.png,0.1,-0.31,valid,8,8,0,up,6.834014299998671,None,space,0.4001317000002018,None,,,,,,,,,0,8,8,8,655.154609600002,,,,,,,,,,,,,655.1392434000009,655.154609600002,655.154609600002,655.154609600002,661.9986323000012,,,,662.0076332000026,662.0176404000013,662.0176404000013,662.0643617000023,662.0646578000014,662.0807970999995,662.0807970999995,662.0807970999995,662.1640994000009,662.4980114999998,,,,,,,,,,,,,,,,,,,,,,up,6.834014299998671,None,space,0.4001317000002018,None,P108,001,2025-02-13_14h32.39.068,posner_endo_new1,2024.2.4,60.061466904363236,2025-02-13 14h32.46.385229 +0000,
cube_r.png,0.1,-0.31,invalid,9,9,0,up,5.7149177999999665,None,space,0.39136750000034226,None,,,,,,,,,0,9,9,9,662.513641900001,,,,,,,,,,,,,662.4982507999994,662.513641900001,662.513641900001,662.513641900001,668.2422913000009,,,,668.2511653000001,668.2612203999997,668.2612203999997,668.3079548000023,668.3082390000018,668.3245840000018,668.3245840000018,668.3245840000018,668.4077238999998,668.7249792000002,,,,,,,,,,,,,,,,,,,,,,up,5.7149177999999665,None,space,0.39136750000034226,None,P108,001,2025-02-13_14h32.39.068,posner_endo_new1,2024.2.4,60.061466904363236,2025-02-13 14h32.46.385229 +0000,
cube_l.png,0.1,0.31,invalid,10,10,0,up,6.59108340000239,None,space,0.36533699999927194,None,,,,,,,,,0,10,10,10,668.7407416999995,,,,,,,,,,,,,668.7252182000011,668.7407416999995,668.7407416999995,668.7407416999995,675.3349673000012,,,,675.3440300000002,675.3540462000019,675.3540462000019,675.400902100002,675.4011888999994,675.4169709000016,675.4169709000016,675.4169709000016,675.5005539000013,675.7846592000024,,,,,,,,,,,,,,,,,,,,,,up,6.59108340000239,None,space,0.36533699999927194,None,P108,001,2025-02-13_14h32.39.068,posner_endo_new1,2024.2.4,60.061466904363236,2025-02-13 14h32.46.385229 +0000,
cube_r.png,0.1,-0.31,invalid,11,11,0,up,6.940084800000477,None,space,0.3360967000007804,None,,,,,,,,,0,11,11,11,675.8001393000013,,,,,,,,,,,,,675.7848972000029,675.8001393000013,675.8001393000013,675.8001393000013,682.7459572000007,,,,682.7691975000016,682.7813325000025,682.7813325000025,682.8094679000023,682.8098530999996,682.8259416000001,682.8259416000001,682.8259416000001,682.9091838000022,683.1769177000024,,,,,,,,,,,,,,,,,,,,,,up,6.940084800000477,None,space,0.3360967000007804,None,P108,001,2025-02-13_14h32.39.068,posner_endo_new1,2024.2.4,60.061466904363236,2025-02-13 14h32.46.385229 +0000,
cube_r.png,0.1,0.31,valid,12,12,0,up,5.859741199998098,None,space,0.3624961000023177,None,,,,,,,,,0,12,12,12,683.1922238000006,,,,,,,,,,,,,683.1772559000019,683.1922238000006,683.1922238000006,683.1922238000006,689.0544260000024,,,,689.0671561000017,689.0771746000028,689.0771746000028,689.1200098000008,689.1202695000029,689.1365590999994,689.1365590999994,689.1365590999994,689.2197763000004,689.5037966000018,,,,,,,,,,,,,,,,,,,,,,up,5.859741199998098,None,space,0.3624961000023177,None,P108,001,2025-02-13_14h32.39.068,posner_endo_new1,2024.2.4,60.061466904363236,2025-02-13 14h32.46.385229 +0000,
cube_l.png,0.1,10,catch,13,13,0,up,5.340920599999663,None,None,,,,,,,,,,,0,13,13,13,689.5194572,,,,,,,,,,,,,689.5040139000012,689.5194572,689.5194572,689.5194572,694.8650702000014,,,,694.872951100002,694.8836962999994,694.8836962999994,694.9308031,694.9310678000002,694.9474186000007,694.9474186000007,694.9474186000007,695.0305778000002,697.9448088999998,,,,697.0452383000011,697.9608614999997,697.9608614999997,697.9608614999997,,,,,,,,,,,,,,,up,5.340920599999663,None,None,,,P108,001,2025-02-13_14h32.39.068,posner_endo_new1,2024.2.4,60.061466904363236,2025-02-13 14h32.46.385229 +0000,
cube_r.png,0.1,-0.31,invalid,14,14,0,up,4.867349599997397,None,space,0.4584752999980992,None,,,,,,,,,0,14,14,14,697.9608614999997,,,,,,,,,,,,,697.9450246000015,697.9608614999997,697.9608614999997,697.9608614999997,702.8400992999996,,,,702.8480546999999,702.8588234000017,702.8588234000017,702.9059659000013,702.9062369000021,702.9224702000029,702.9224702000029,702.9224702000029,703.0057890999997,703.3896346000001,,,,,,,,,,,,,,,,,,,,,,up,4.867349599997397,None,space,0.4584752999980992,None,P108,001,2025-02-13_14h32.39.068,posner_endo_new1,2024.2.4,60.061466904363236,2025-02-13 14h32.46.385229 +0000,
cube_l.png,0.1,-0.31,valid,15,15,0,up,6.71948859999975,None,space,0.37084300000060466,None,,,,,,,,,0,15,15,15,703.4052314,,,,,,,,,,,,,703.3898512000014,703.4052314,703.4052314,703.4052314,710.1325864999999,,,,710.1405432000029,710.1514042000017,710.1514042000017,710.1985357000012,710.1988022000005,710.2149640999996,710.2149640999996,710.2149640999996,710.2816104000012,710.5990022000005,,,,,,,,,,,,,,,,,,,,,,up,6.71948859999975,None,space,0.37084300000060466,None,P108,001,2025-02-13_14h32.39.068,posner_endo_new1,2024.2.4,60.061466904363236,2025-02-13 14h32.46.385229 +0000,
cube_r.png,0.1,10,catch,16,16,0,up,4.821358299999702,None,space,0.3526270000002114,None,,,,,,,,,0,16,16,16,710.614594900002,,,,,,,,,,,,,710.5992165000025,710.614594900002,710.614594900002,710.614594900002,715.4439205000017,,,,715.4518685000003,715.4626320999996,715.4626320999996,715.5097399000006,715.5100235999998,715.5262036000022,715.5262036000022,715.5262036000022,715.6094962999996,715.8937052000001,,,,,,,,,,,,,,,,,,,,,,up,4.821358299999702,None,space,0.3526270000002114,None,P108,001,2025-02-13_14h32.39.068,posner_endo_new1,2024.2.4,60.061466904363236,2025-02-13 14h32.46.385229 +0000,
cube_r.png,0.1,10,catch,17,17,0,up,6.767654799998127,None,None,,,,,,,,,,,0,17,17,17,715.9092353000015,,,,,,,,,,,,,715.8939243999994,715.9092353000015,715.9092353000015,715.9092353000015,722.6864965000022,,,,722.6945407000021,722.7051821000023,722.7051821000023,722.7523015000006,722.7525626999995,722.7688202000027,722.7688202000027,722.7688202000027,722.8521103000021,725.7663692000024,,,,724.8667353000019,725.7823485000008,725.7823485000008,725.7823485000008,,,,,,,,,,,,,,,up,6.767654799998127,None,None,,,P108,001,2025-02-13_14h32.39.068,posner_endo_new1,2024.2.4,60.061466904363236,2025-02-13 14h32.46.385229 +0000,
cube_l.png,0.1,0.31,invalid,18,18,0,up,4.821616199998971,None,space,0.5182682000013301,None,,,,,,,,,0,18,18,18,725.7823485000008,,,,,,,,,,,,,725.7665745000013,725.7823485000008,725.7823485000008,725.7823485000008,730.6118666000002,,,,730.6198459000007,730.6303602000007,730.6303602000007,730.6775078999999,730.6777708000009,730.6941184999996,730.6941184999996,730.6941184999996,730.7773771000029,731.2277358000028,,,,,,,,,,,,,,,,,,,,,,up,4.821616199998971,None,space,0.5182682000013301,None,P108,001,2025-02-13_14h32.39.068,posner_endo_new1,2024.2.4,60.061466904363236,2025-02-13 14h32.46.385229 +0000,
cube_l.png,0.1,10,catch,19,19,0,up,8.905142700001306,None,None,,,,,,,,,,,0,19,19,19,731.2435638000024,,,,,,,,,,,,,731.227948300002,731.2435638000024,731.2435638000024,731.2435638000024,740.1520528000001,,,,740.1599970999996,740.1705753000024,740.1705753000024,740.2178196999994,740.2180797000001,740.2342979000023,740.2342979000023,740.2342979000023,740.3175300000003,743.2318306000016,,,,742.3322069000023,743.2478779000012,743.2478779000012,743.2478779000012,,,,,,,,,,,,,,,up,8.905142700001306,None,None,,,P108,001,2025-02-13_14h32.39.068,posner_endo_new1,2024.2.4,60.061466904363236,2025-02-13 14h32.46.385229 +0000,
cube_l.png,0.1,0.31,invalid,20,20,0,up,8.132735999999568,None,space,0.4256621999993513,None,,,,,,,,,0,20,20,20,743.2478779000012,,,,,,,,,,,,,743.2320345000007,743.2478779000012,743.2478779000012,743.2478779000012,751.3907007000016,,,,751.4023336000027,751.4124894000015,751.4124894000015,751.4563229000014,751.4566709999999,751.4727963000005,751.4727963000005,751.4727963000005,751.5560349000007,751.9069393000027,,,,,,,,,,,,,,,,,,,,,,up,8.132735999999568,None,space,0.4256621999993513,None,P108,001,2025-02-13_14h32.39.068,posner_endo_new1,2024.2.4,60.061466904363236,2025-02-13 14h32.46.385229 +0000,
cube_l.png,0.1,-0.31,valid,21,21,0,up,4.746727500001725,None,space,0.5253870000015013,None,,,,,,,,,0,21,21,21,751.9223112,,,,,,,,,,,,,751.9072368000016,751.9223112,751.9223112,751.9223112,756.6852787000025,,,,756.6968529000005,756.7067060000008,756.7067060000008,756.7509718000001,756.7513146000019,756.7673082000001,756.7673082000001,756.7673082000001,756.8507100999996,757.301473200001,,,,,,,,,,,,,,,,,,,,,,up,4.746727500001725,None,space,0.5253870000015013,None,P108,001,2025-02-13_14h32.39.068,posner_endo_new1,2024.2.4,60.061466904363236,2025-02-13 14h32.46.385229 +0000,
cube_r.png,0.1,0.31,valid,22,22,0,up,6.8551384000020334,None,space,0.4319430999967153,None,,,,,,,,,0,22,22,22,757.3168011000016,,,,,,,,,,,,,757.3017741000003,757.3168011000016,757.3168011000016,757.3168011000016,764.1777886000018,,,,764.1893498000027,764.1994908000015,764.1994908000015,764.2432803000011,764.2436202000026,764.2596914999995,764.2596914999995,764.2596914999995,764.3430732000015,764.6938026999997,,,,,,,,,,,,,,,,,,,,,,up,6.8551384000020334,None,space,0.4319430999967153,None,P108,001,2025-02-13_14h32.39.068,posner_endo_new1,2024.2.4,60.061466904363236,2025-02-13 14h32.46.385229 +0000,
cube_r.png,0.1,-0.31,invalid,23,23,0,up,6.999609000002238,None,space,0.3584408999995503,None,,,,,,,,,0,23,23,23,764.7092259000019,,,,,,,,,,,,,764.6940996000012,764.7092259000019,764.7092259000019,764.7092259000019,771.7198470000003,,,,771.7314680000018,771.7416377000009,771.7416377000009,771.7855057000015,771.7858565999995,771.8021288000018,771.8021288000018,771.8021288000018,771.885278400001,772.1695694000009,,,,,,,,,,,,,,,,,,,,,,up,6.999609000002238,None,space,0.3584408999995503,None,P108,001,2025-02-13_14h32.39.068,posner_endo_new1,2024.2.4,60.061466904363236,2025-02-13 14h32.46.385229 +0000,
cube_r.png,0.1,0.31,valid,24,24,0,up,6.587151700001414,None,space,0.30352639999910025,None,,,,,,,,,0,24,24,24,772.1849952000011,,,,,,,,,,,,,772.1698680000009,772.1849952000011,772.1849952000011,772.1849952000011,778.7793760999994,,,,778.7910215000011,778.8010187,778.8010187,778.8449878000029,778.8453354000012,778.8614354000019,778.8614354000019,778.8614354000019,778.9447792000028,779.1790151999994,,,,,,,,,,,,,,,,,,,,,,up,6.587151700001414,None,space,0.30352639999910025,None,P108,001,2025-02-13_14h32.39.068,posner_endo_new1,2024.2.4,60.061466904363236,2025-02-13 14h32.46.385229 +0000,
cube_r.png,0.1,-0.31,invalid,25,25,0,up,5.529653800000233,None,space,0.28794619999825954,None,,,,,,,,,0,25,25,25,779.1946007000006,,,,,,,,,,,,,779.1793133000028,779.1946007000006,779.1946007000006,779.1946007000006,784.7400106999994,,,,784.7516192000003,784.7617237000013,784.7617237000013,784.8055913000026,784.8059348000024,784.8220481999997,784.8220481999997,784.8220481999997,784.9053000000022,785.1229294000004,,,,,,,,,,,,,,,,,,,,,,up,5.529653800000233,None,space,0.28794619999825954,None,P108,001,2025-02-13_14h32.39.068,posner_endo_new1,2024.2.4,60.061466904363236,2025-02-13 14h32.46.385229 +0000,
cube_l.png,0.1,-0.31,valid,26,26,0,up,7.010523199998715,None,space,0.8688068999981624,None,,,,,,,,,0,26,26,26,785.1384529999996,,,,,,,,,,,,,785.123226300002,785.1384529999996,785.1384529999996,785.1384529999996,792.165804100001,,,,792.1774366000027,792.1872069000019,792.1872069000019,792.231354800002,792.2317010000006,792.2477962000012,792.2477962000012,792.2477962000012,792.3309851000013,793.1313885000018,,,,,,,,,,,,,,,,,,,,,,up,7.010523199998715,None,space,0.8688068999981624,None,P108,001,2025-02-13_14h32.39.068,posner_endo_new1,2024.2.4,60.061466904363236,2025-02-13 14h32.46.385229 +0000,
cube_r.png,0.1,0.31,valid,27,27,0,up,4.35333940000055,None,space,0.28855980000298587,None,,,,,,,,,0,27,27,27,793.1468445999999,,,,,,,,,,,,,793.1316904000014,793.1468445999999,793.1468445999999,793.1468445999999,797.5103339000016,,,,797.5219281999998,797.5321549,797.5321549,797.5758857000001,797.5762348000026,797.5923866000012,797.5923866000012,797.5923866000012,797.6755888000007,797.8932172999994,,,,,,,,,,,,,,,,,,,,,,up,4.35333940000055,None,space,0.28855980000298587,None,P108,001,2025-02-13_14h32.39.068,posner_endo_new1,2024.2.4,60.061466904363236,2025-02-13 14h32.46.385229 +0000,
cube_r.png,0.1,10,catch,28,28,0,up,5.472512399999687,None,space,0.3831097000002046,None,,,,,,,,,0,28,28,28,797.9086335000029,,,,,,,,,,,,,797.8935135000029,797.9086335000029,797.9086335000029,797.9086335000029,803.3876784000022,,,,803.3993831000007,803.4095474999995,803.4095474999995,803.4532080999998,803.4535503000006,803.4697135999995,803.4697135999995,803.4697135999995,803.5530403000012,803.8540238000023,,,,,,,,,,,,,,,,,,,,,,up,5.472512399999687,None,space,0.3831097000002046,None,P108,001,2025-02-13_14h32.39.068,posner_endo_new1,2024.2.4,60.061466904363236,2025-02-13 14h32.46.385229 +0000,
cube_r.png,0.1,0.31,valid,29,29,0,up,6.095546100001229,None,space,0.503647200002888,None,,,,,,,,,0,29,29,29,803.8692031999999,,,,,,,,,,,,,803.8543248000024,803.8692031999999,803.8692031999999,803.8692031999999,809.9809018000014,,,,809.9924811000019,810.0026421000002,810.0026421000002,810.0465138,810.0468629000025,810.0628372000028,810.0628372000028,810.0628372000028,810.1461636000022,810.5803907000009,,,,,,,,,,,,,,,,,,,,,,up,6.095546100001229,None,space,0.503647200002888,None,P108,001,2025-02-13_14h32.39.068,posner_endo_new1,2024.2.4,60.061466904363236,2025-02-13 14h32.46.385229 +0000,
cube_r.png,0.1,0.31,valid,30,30,0,up,5.121185799998784,None,space,0.5194792000002053,None,,,,,,,,,0,30,30,30,810.5956544000001,,,,,,,,,,,,,810.5806883000005,810.5956544000001,810.5956544000001,810.5956544000001,815.7251020000003,,,,815.7366696999998,815.7469201000022,815.7469201000022,815.7906713000011,815.7910224000007,815.8070603000015,815.8070603000015,815.8070603000015,815.8903686000012,816.3410721,,,,,,,,,,,,,,,,,,,,,,up,5.121185799998784,None,space,0.5194792000002053,None,P108,001,2025-02-13_14h32.39.068,posner_endo_new1,2024.2.4,60.061466904363236,2025-02-13 14h32.46.385229 +0000,
cube_l.png,0.1,-0.31,valid,31,31,0,up,4.255701599999156,None,space,0.46386100000017905,None,,,,,,,,,0,31,31,31,816.3564704000019,,,,,,,,,,,,,816.3413672999995,816.3564704000019,816.3564704000019,816.3564704000019,820.6201187000006,,,,820.6316628000022,820.6418242,820.6418242,820.6855991000011,820.6859408000018,820.7020910000028,820.7020910000028,820.7020910000028,820.7853347000018,821.169584700001,,,,,,,,,,,,,,,,,,,,,,up,4.255701599999156,None,space,0.46386100000017905,None,P108,001,2025-02-13_14h32.39.068,posner_endo_new1,2024.2.4,60.061466904363236,2025-02-13 14h32.46.385229 +0000,
cube_r.png,0.1,0.31,valid,32,32,0,up,7.39587549999851,None,space,0.34529750000001513,None,,,,,,,,,0,32,32,32,821.1849080000029,,,,,,,,,,,,,821.1699169000021,821.1849080000029,821.1849080000029,821.1849080000029,828.5951797000016,,,,828.6067327000019,828.6168132000021,828.6168132000021,828.6608514,828.6611955000008,828.6773021000008,828.6773021000008,828.6773021000008,828.7604947,829.0281186000029,,,,,,,,,,,,,,,,,,,,,,up,7.39587549999851,None,space,0.34529750000001513,None,P108,001,2025-02-13_14h32.39.068,posner_endo_new1,2024.2.4,60.061466904363236,2025-02-13 14h32.46.385229 +0000,
cube_r.png,0.1,-0.31,invalid,33,33,0,up,6.49697009999727,None,space,0.2844041999996989,None,,,,,,,,,0,33,33,33,829.0435445000003,,,,,,,,,,,,,829.028424600001,829.0435445000003,829.0435445000003,829.0435445000003,835.5547382000004,,,,835.5662446000024,835.5764985999995,835.5764985999995,835.6202844,835.6206333000009,835.6368141000021,835.6368141000021,835.6368141000021,835.7200406000011,835.9376890000021,,,,,,,,,,,,,,,,,,,,,,up,6.49697009999727,None,space,0.2844041999996989,None,P108,001,2025-02-13_14h32.39.068,posner_endo_new1,2024.2.4,60.061466904363236,2025-02-13 14h32.46.385229 +0000,
cube_r.png,0.1,10,catch,34,34,0,up,4.979402000000846,None,None,,,,,,,,,,,0,34,34,34,835.9530746000019,,,,,,,,,,,,,835.9379859000001,835.9530746000019,835.9530746000019,835.9530746000019,840.9493081,,,,840.9609718000029,840.9707186000014,840.9707186000014,841.0147757000013,841.015118700001,841.0312898000011,841.0312898000011,841.0312898000011,841.1144906000009,844.0289008,,,,843.1291777000006,844.0449067000009,844.0449067000009,844.0449067000009,,,,,,,,,,,,,,,up,4.979402000000846,None,None,,,P108,001,2025-02-13_14h32.39.068,posner_endo_new1,2024.2.4,60.061466904363236,2025-02-13 14h32.46.385229 +0000,
cube_r.png,0.1,0.31,valid,35,35,0,up,6.7752967000014905,None,space,0.3734030999985407,None,,,,,,,,,0,35,35,35,844.0449067000009,,,,,,,,,,,,,844.0291762000015,844.0449067000009,844.0449067000009,844.0449067000009,850.8224119000006,,,,850.834030500002,850.8442233000023,850.8442233000023,850.8880745999995,850.8884190000026,850.9045265999994,850.9045265999994,850.9045265999994,850.9879646000009,851.2885850000021,,,,,,,,,,,,,,,,,,,,,,up,6.7752967000014905,None,space,0.3734030999985407,None,P108,001,2025-02-13_14h32.39.068,posner_endo_new1,2024.2.4,60.061466904363236,2025-02-13 14h32.46.385229 +0000,
cube_r.png,0.1,-0.31,invalid,36,36,0,up,7.38893310000276,None,space,0.39492189999873517,None,,,,,,,,,0,36,36,36,851.3041282000013,,,,,,,,,,,,,851.2888975000023,851.3041282000013,851.3041282000013,851.3041282000013,858.6977540000007,,,,858.7093942000029,858.7195634000018,858.7195634000018,858.7634079000018,858.7637547000013,858.7797578000027,858.7797578000027,858.7797578000027,858.8630784000015,859.180741600001,,,,,,,,,,,,,,,,,,,,,,up,7.38893310000276,None,space,0.39492189999873517,None,P108,001,2025-02-13_14h32.39.068,posner_endo_new1,2024.2.4,60.061466904363236,2025-02-13 14h32.46.385229 +0000,
cube_l.png,0.1,0.31,invalid,37,37,0,up,7.048554099998,None,space,0.31307050000032177,None,,,,,,,,,0,37,37,37,859.1961757000026,,,,,,,,,,,,,859.1810399000024,859.1961757000026,859.1961757000026,859.1961757000026,866.2567664000017,,,,866.2658205000007,866.2755889,866.2755889,866.3222007000004,866.3225512999998,866.3386998999995,866.3386998999995,866.3386998999995,866.4219771000026,866.6564596999997,,,,,,,,,,,,,,,,,,,,,,up,7.048554099998,None,space,0.31307050000032177,None,P108,001,2025-02-13_14h32.39.068,posner_endo_new1,2024.2.4,60.061466904363236,2025-02-13 14h32.46.385229 +0000,
cube_l.png,0.1,0.31,invalid,38,38,0,up,6.8533286999991105,None,space,0.3910059000008914,None,,,,,,,,,0,38,38,38,866.6717061000018,,,,,,,,,,,,,866.6567611000028,866.6717061000018,866.6717061000018,866.6717061000018,873.532663500002,,,,873.5441989999999,873.5543706000026,873.5543706000026,873.5981745999998,873.5985189000021,873.614658800001,873.614658800001,873.614658800001,873.6977669000007,874.0153989999999,,,,,,,,,,,,,,,,,,,,,,up,6.8533286999991105,None,space,0.3910059000008914,None,P108,001,2025-02-13_14h32.39.068,posner_endo_new1,2024.2.4,60.061466904363236,2025-02-13 14h32.46.385229 +0000,
cube_r.png,0.1,0.31,valid,39,39,0,up,6.726010400001542,None,space,0.5537951000005705,None,,,,,,,,,0,39,39,39,874.0308422000016,,,,,,,,,,,,,874.0157012000018,874.0308422000016,874.0308422000016,874.0308422000016,880.7587182000025,,,,880.7703113999996,880.7804219000027,880.7804219000027,880.8241638,880.8245080000015,880.8406780000005,880.8406780000005,880.8406780000005,880.9238632000015,881.4079373999994,,,,,,,,,,,,,,,,,,,,,,up,6.726010400001542,None,space,0.5537951000005705,None,P108,001,2025-02-13_14h32.39.068,posner_endo_new1,2024.2.4,60.061466904363236,2025-02-13 14h32.46.385229 +0000,
cube_l.png,0.1,0.31,invalid,40,40,0,up,6.189024499999505,None,space,0.4127267000003485,None,,,,,,,,,0,40,40,40,881.4232537999997,,,,,,,,,,,,,881.4082355000028,881.4232537999997,881.4232537999997,881.4232537999997,887.6184171999994,,,,887.6300287000013,887.6402071000011,887.6402071000011,887.683735300001,887.6840760000014,887.7002783999997,887.7002783999997,887.7002783999997,887.7835747000026,888.1177702000023,,,,,,,,,,,,,,,,,,,,,,up,6.189024499999505,None,space,0.4127267000003485,None,P108,001,2025-02-13_14h32.39.068,posner_endo_new1,2024.2.4,60.061466904363236,2025-02-13 14h32.46.385229 +0000,
cube_l.png,0.1,10,catch,41,41,0,up,8.727576299999782,None,None,,,,,,,,,,,0,41,41,41,888.1331745000025,,,,,,,,,,,,,888.1180710000008,888.1331745000025,888.1331745000025,888.1331745000025,896.8755008000007,,,,896.8871784000003,896.8972916000021,896.8972916000021,896.9409675000024,896.9413110999994,896.9575003000027,896.9575003000027,896.9575003000027,897.040564400002,899.9551322000007,,,,899.0553681000019,899.9710864000008,899.9710864000008,899.9710864000008,,,,,,,,,,,,,,,up,8.727576299999782,None,None,,,P108,001,2025-02-13_14h32.39.068,posner_endo_new1,2024.2.4,60.061466904363236,2025-02-13 14h32.46.385229 +0000,
cube_l.png,0.1,-0.31,valid,42,42,0,up,1.1452048999999533,None,space,0.4188209999992978,None,,,,,,,,,0,42,42,42,899.9710864000008,,,,,,,,,,,,,899.9554100000023,899.9710864000008,899.9710864000008,899.9710864000008,901.1212274999998,,,,901.1327679000024,901.1429298000003,901.1429298000003,901.1867087000028,901.1870522000027,901.2031817999996,901.2031817999996,901.2031817999996,901.2864231000021,901.6371861000007,,,,,,,,,,,,,,,,,,,,,,up,1.1452048999999533,None,space,0.4188209999992978,None,P108,001,2025-02-13_14h32.39.068,posner_endo_new1,2024.2.4,60.061466904363236,2025-02-13 14h32.46.385229 +0000,
cube_l.png,0.1,10,catch,43,43,0,up,5.559777800001029,None,None,,,,,,,,,,,0,43,43,43,901.6526413000029,,,,,,,,,,,,,901.6374821999998,901.6526413000029,901.6526413000029,901.6526413000029,907.2150097000012,,,,907.2265404000027,907.2367564000015,907.2367564000015,907.2804988999997,907.2808509999995,907.2969202999993,907.2969202999993,907.2969202999993,907.3801263000023,910.2945435000001,,,,909.3948315000016,910.3105089000019,910.3105089000019,910.3105089000019,,,,,,,,,,,,,,,up,5.559777800001029,None,None,,,P108,001,2025-02-13_14h32.39.068,posner_endo_new1,2024.2.4,60.061466904363236,2025-02-13 14h32.46.385229 +0000,
cube_l.png,0.1,0.31,invalid,44,44,0,up,4.310526399996888,None,space,0.44377090000125463,None,,,,,,,,,0,44,44,44,910.3105089000019,,,,,,,,,,,,,910.2948188000009,910.3105089000019,910.3105089000019,910.3105089000019,914.6241044000017,,,,914.6356583000015,914.6459462000021,914.6459462000021,914.6896664000014,914.6900181000019,914.7059264000018,914.7059264000018,914.7059264000018,914.7891539000011,915.1568334000003,,,,,,,,,,,,,,,,,,,,,,up,4.310526399996888,None,space,0.44377090000125463,None,P108,001,2025-02-13_14h32.39.068,posner_endo_new1,2024.2.4,60.061466904363236,2025-02-13 14h32.46.385229 +0000,
cube_l.png,0.1,0.31,invalid,45,45,0,up,8.128202200001397,None,space,0.3559559999994235,None,,,,,,,,,0,45,45,45,915.1721744999995,,,,,,,,,,,,,915.1571312000015,915.1721744999995,915.1721744999995,915.1721744999995,923.3150233000015,,,,923.3242304000014,923.3339126000028,923.3339126000028,923.3807578000014,923.3810021000027,923.3971247000009,923.3971247000009,923.3971247000009,923.4804718000014,923.764317600002,,,,,,,,,,,,,,,,,,,,,,up,8.128202200001397,None,space,0.3559559999994235,None,P108,001,2025-02-13_14h32.39.068,posner_endo_new1,2024.2.4,60.061466904363236,2025-02-13 14h32.46.385229 +0000,
cube_r.png,0.1,0.31,valid,46,46,0,up,12.000817500000267,None,space,0.30392589999974007,None,,,,,,,,,0,46,46,46,923.7797518000007,,,,,,,,,,,,,923.764510500001,923.7797518000007,923.7797518000007,923.7797518000007,935.7853830000022,,,,935.7924079000004,935.8040849999998,935.8040849999998,935.8512942000016,935.8515170999999,935.8674328000016,935.8674328000016,935.8674328000016,935.9511268999995,936.1848157999993,,,,,,,,,,,,,,,,,,,,,,up,12.000817500000267,None,space,0.30392589999974007,None,P108,001,2025-02-13_14h32.39.068,posner_endo_new1,2024.2.4,60.061466904363236,2025-02-13 14h32.46.385229 +0000,
cube_l.png,0.1,-0.31,valid,47,47,0,up,6.219285800001671,None,space,0.39150919999883627,None,,,,,,,,,0,47,47,47,936.2008189000007,,,,,,,,,,,,,936.1849906999996,936.2008189000007,936.2008189000007,936.2008189000007,942.4282488000026,,,,942.434313400001,942.445935900003,942.445935900003,942.4945757000023,942.4947984000028,942.5105844000027,942.5105844000027,942.5105844000027,942.5777042000009,942.9111745000009,,,,,,,,,,,,,,,,,,,,,,up,6.219285800001671,None,space,0.39150919999883627,None,P108,001,2025-02-13_14h32.39.068,posner_endo_new1,2024.2.4,60.061466904363236,2025-02-13 14h32.46.385229 +0000,
cube_r.png,0.1,-0.31,invalid,48,48,0,up,7.861237000000983,None,space,0.4442430000017339,None,,,,,,,,,0,48,48,48,942.9272837000026,,,,,,,,,,,,,942.9113579000004,942.9272837000026,942.9272837000026,942.9272837000026,950.8033088000011,,,,950.8093580000022,950.8209110000025,950.8209110000025,950.8691849000024,950.8694104999995,950.8859035999994,950.8859035999994,950.8859035999994,950.9522271999995,951.3362508999999,,,,,,,,,,,,,,,,,,,,,,up,7.861237000000983,None,space,0.4442430000017339,None,P108,001,2025-02-13_14h32.39.068,posner_endo_new1,2024.2.4,60.061466904363236,2025-02-13 14h32.46.385229 +0000,
cube_r.png,0.1,10,catch,49,49,0,up,6.996467900000425,None,None,,,,,,,,,,,0,49,49,49,951.3520370000006,,,,,,,,,,,,,951.3364276000029,951.3520370000006,951.3520370000006,951.3520370000006,958.3621227000003,,,,958.3681913,958.3797365000028,958.3797365000028,958.4282216000029,958.428450200001,958.4444831000001,958.4444831000001,958.4444831000001,958.5113578000019,961.4418368000006,,,,960.5253871999994,961.4583429000013,961.4583429000013,961.4583429000013,,,,,,,,,,,,,,,up,6.996467900000425,None,None,,,P108,001,2025-02-13_14h32.39.068,posner_endo_new1,2024.2.4,60.061466904363236,2025-02-13 14h32.46.385229 +0000,
cube_l.png,0.1,-0.31,valid,50,50,0,up,2.858744699999079,None,space,0.36513600000034785,None,,,,,,,,,0,50,50,50,961.4583429000013,,,,,,,,,,,,,961.4420006,961.4583429000013,961.4583429000013,961.4583429000013,964.3224348000003,,,,964.3284822000023,964.3400540000002,964.3400540000002,964.3889249000022,964.3891528000022,964.4052960000008,964.4052960000008,964.4052960000008,964.4714437000002,964.7720632000019,,,,,,,,,,,,,,,,,,,,,,up,2.858744699999079,None,space,0.36513600000034785,None,P108,001,2025-02-13_14h32.39.068,posner_endo_new1,2024.2.4,60.061466904363236,2025-02-13 14h32.46.385229 +0000,
cube_l.png,0.1,-0.31,valid,51,51,0,up,6.36103329999969,None,space,0.36219379999965895,None,,,,,,,,,0,51,51,51,964.7881172000016,,,,,,,,,,,,,964.7722451000009,964.7881172000016,964.7881172000016,964.7881172000016,971.1659832000005,,,,971.1720423000006,971.1832678999999,971.1832678999999,971.2318670000022,971.2320978000025,971.2482549000015,971.2482549000015,971.2482549000015,971.3310831000017,971.6154175000011,,,,,,,,,,,,,,,,,,,,,,up,6.36103329999969,None,space,0.36219379999965895,None,P108,001,2025-02-13_14h32.39.068,posner_endo_new1,2024.2.4,60.061466904363236,2025-02-13 14h32.46.385229 +0000,
cube_r.png,0.1,-0.31,invalid,52,52,0,up,6.8939769999997225,None,space,0.40328340000269236,None,,,,,,,,,0,52,52,52,971.6312008999994,,,,,,,,,,,,,971.6155958000018,971.6312008999994,971.6312008999994,971.6312008999994,978.541866800002,,,,978.551715200003,978.5614155000003,978.5614155000003,978.6075784999994,978.6078828999998,978.6240887000022,978.6240887000022,978.6240887000022,978.7074210000028,979.0413611000004,,,,,,,,,,,,,,,,,,,,,,up,6.8939769999997225,None,space,0.40328340000269236,None,P108,001,2025-02-13_14h32.39.068,posner_endo_new1,2024.2.4,60.061466904363236,2025-02-13 14h32.46.385229 +0000,
cube_l.png,0.1,-0.31,valid,53,53,0,up,6.915169399999286,None,space,0.32563500000105705,None,,,,,,,,,0,53,53,53,979.0570312000018,,,,,,,,,,,,,979.0416256000026,979.0570312000018,979.0570312000018,979.0570312000018,985.9845157000018,,,,985.9945728000021,986.0046220000004,986.0046220000004,986.0499668000011,986.0502942000021,986.0664694000006,986.0664694000006,986.0664694000006,986.1497061000009,986.4005247999994,,,,,,,,,,,,,,,,,,,,,,up,6.915169399999286,None,space,0.32563500000105705,None,P108,001,2025-02-13_14h32.39.068,posner_endo_new1,2024.2.4,60.061466904363236,2025-02-13 14h32.46.385229 +0000,
cube_r.png,0.1,10,catch,54,54,0,up,12.485996800001885,None,space,0.3440143000007083,None,,,,,,,,,0,54,54,54,986.4159873999997,,,,,,,,,,,,,986.4007872000002,986.4159873999997,986.4159873999997,986.4159873999997,998.9043720000009,,,,998.9104098999996,998.9220169,998.9220169,998.9700179000029,998.9702472999998,998.9861406000018,998.9861406000018,998.9861406000018,999.0699248000019,999.3368319000001,,,,,,,,,,,,,,,,,,,,,,up,12.485996800001885,None,space,0.3440143000007083,None,P108,001,2025-02-13_14h32.39.068,posner_endo_new1,2024.2.4,60.061466904363236,2025-02-13 14h32.46.385229 +0000,
cube_l.png,0.1,0.31,invalid,55,55,0,up,6.36322139999902,None,space,0.42493499999909545,None,,,,,,,,,0,55,55,55,999.3530857000005,,,,,,,,,,,,,999.3370085999995,999.3530857000005,999.3530857000005,999.3530857000005,1005.7304355000015,,,,1005.7366161999998,1005.7483456000009,1005.7483456000009,1005.7964605000016,1005.7966830000005,1005.8131252000021,1005.8131252000021,1005.8131252000021,1005.8797094000001,1006.2465626000012,,,,,,,,,,,,,,,,,,,,,,up,6.36322139999902,None,space,0.42493499999909545,None,P108,001,2025-02-13_14h32.39.068,posner_endo_new1,2024.2.4,60.061466904363236,2025-02-13 14h32.46.385229 +0000,
cube_l.png,0.1,-0.31,valid,56,56,0,up,6.151015699997515,None,space,0.3966790000013134,None,,,,,,,,,0,56,56,56,1006.2620414000012,,,,,,,,,,,,,1006.2467395000021,1006.2620414000012,1006.2620414000012,1006.2620414000012,1012.4237083000007,,,,1012.4298412999997,1012.4414667000019,1012.4414667000019,1012.4896714999995,1012.4898963000014,1012.5056638000024,1012.5056638000024,1012.5056638000024,1012.5727915999996,1012.9064285000022,,,,,,,,,,,,,,,,,,,,,,up,6.151015699997515,None,space,0.3966790000013134,None,P108,001,2025-02-13_14h32.39.068,posner_endo_new1,2024.2.4,60.061466904363236,2025-02-13 14h32.46.385229 +0000,
cube_r.png,0.1,0.31,valid,57,57,0,up,9.026433900002303,None,space,0.4362552000020514,None,,,,,,,,,0,57,57,57,1012.9224107000009,,,,,,,,,,,,,1012.9066117000002,1012.9224107000009,1012.9224107000009,1012.9224107000009,1021.9637527000014,,,,1021.9698272999995,1021.9814710999999,1021.9814710999999,1022.0299895999997,1022.0302163000015,1022.046519800002,1022.046519800002,1022.046519800002,1022.1130147000003,1022.4963121000001,,,,,,,,,,,,,,,,,,,,,,up,9.026433900002303,None,space,0.4362552000020514,None,P108,001,2025-02-13_14h32.39.068,posner_endo_new1,2024.2.4,60.061466904363236,2025-02-13 14h32.46.385229 +0000,
cube_r.png,0.1,-0.31,invalid,58,58,0,up,7.324700600001961,None,space,0.40960850000192295,None,,,,,,,,,0,58,58,58,1022.5125183000018,,,,,,,,,,,,,1022.496489600002,1022.5125183000018,1022.5125183000018,1022.5125183000018,1029.8411207999998,,,,1029.8643300000003,1029.8765421999997,1029.8765421999997,1029.9051323000022,1029.9055746000013,1029.9214647000008,1029.9214647000008,1029.9214647000008,1030.0046380000022,1030.3392956000025,,,,,,,,,,,,,,,,,,,,,,up,7.324700600001961,None,space,0.40960850000192295,None,P108,001,2025-02-13_14h32.39.068,posner_endo_new1,2024.2.4,60.061466904363236,2025-02-13 14h32.46.385229 +0000,
cube_l.png,0.1,0.31,invalid,59,59,0,up,6.370101900000009,None,space,0.38042660000064643,None,,,,,,,,,0,59,59,59,1030.3542751999994,,,,,,,,,,,,,1030.339700200002,1030.3542751999994,1030.3542751999994,1030.3542751999994,1036.7325655999994,,,,1036.742376000002,1036.7525043000023,1036.7525043000023,1036.7982225000014,1036.798538500003,1036.8147284000006,1036.8147284000006,1036.8147284000006,1036.8979145000012,1037.1987501000003,,,,,,,,,,,,,,,,,,,,,,up,6.370101900000009,None,space,0.38042660000064643,None,P108,001,2025-02-13_14h32.39.068,posner_endo_new1,2024.2.4,60.061466904363236,2025-02-13 14h32.46.385229 +0000,
