cue_img,cue_soa,target_y,trial,thisN,thisTrialN,thisRepN,key_control2.keys,key_control2.rt,key_control2.duration,key_resp.keys,key_resp.rt,key_resp.duration,practice.thisRepN,practice.thisTrialN,practice.thisN,practice.thisIndex,block1.thisRepN,block1.thisTrialN,block1.thisN,block1.thisIndex,block2.thisRepN,block2.thisTrialN,block2.thisN,block2.thisIndex,thisRow.t,notes,instructions.started,instructions_txt.started,key_control.started,instructions.stopped,key_control.keys,key_control.rt,key_control.duration,ready.started,ready_txt.started,ready_txt.stopped,ready.stopped,fix.started,fixation.started,key_control2.started,fixation_cross.started,fix.stopped,practice.key_control2.keys,practice.key_control2.rt,practice.key_control2.duration,cue.started,cube.started,fixation_cross_cue.started,cue.stopped,target.started,fixation_target.started,fixation_cross_target.started,key_resp.started,star.started,target.stopped,practice.key_resp.keys,practice.key_resp.rt,practice.key_resp.duration,star.stopped,fixation_target.stopped,fixation_cross_target.stopped,key_resp.stopped,block1.key_control2.keys,block1.key_control2.rt,block1.key_control2.duration,block1.key_resp.keys,block1.key_resp.rt,block1.key_resp.duration,break_2.started,text.started,key_control3.started,text.stopped,break_2.stopped,key_control3.keys,key_control3.rt,key_control3.duration,block2.key_control2.keys,block2.key_control2.rt,block2.key_control2.duration,block2.key_resp.keys,block2.key_resp.rt,block2.key_resp.duration,participant,session,date,expName,psychopyVersion,frameRate,expStart,
,,,,,,,,,,,,,,,,,,,,,,,,,,,0.007375300003332086,0.020320600000559352,0.020320600000559352,887.6184569000034,up,887.5943552000026,None,,,,,,,,,,,,,,,,,,,,,,,,,,,,,,,,,,,,,,,,,,,,,,,,,,P109,001,2025-02-13_14h53.55.332,posner_endo_new1,2024.2.4,60.00510043351715,2025-02-13 14h54.02.201302 +0000,
,,,,,,,,,,,,,,,,,,,,,,,,,,,,,,,,,,887.6185091000007,887.6307909000025,890.6309208000021,890.6115169000004,,,,,,,,,,,,,,,,,,,,,,,,,,,,,,,,,,,,,,,,,,,,,,P109,001,2025-02-13_14h53.55.332,posner_endo_new1,2024.2.4,60.00510043351715,2025-02-13 14h54.02.201302 +0000,
cube_l.png,0.1,-0.31,valid,0,0,0,up,6.879427600000781,None,space,0.38832389999879524,None,0,0,0,0,,,,,,,,,890.6309208000021,,,,,,,,,,,,,890.6188798000003,890.6309208000021,890.6309208000021,890.6309208000021,897.5215196999998,up,6.879427600000781,None,897.5339730000014,897.5444104000017,897.5444104000017,897.587435100002,897.5877039000006,897.604021500003,897.604021500003,897.604021500003,897.6706508000025,898.0045333000016,space,0.38832389999879524,None,,,,,,,,,,,,,,,,,,,,,,,,,P109,001,2025-02-13_14h53.55.332,posner_endo_new1,2024.2.4,60.00510043351715,2025-02-13 14h54.02.201302 +0000,
cube_l.png,0.1,0.31,invalid,1,1,0,up,5.610542300000816,None,space,0.3774421000016446,None,0,1,1,1,,,,,,,,,898.0202325999999,,,,,,,,,,,,,898.0047335000017,898.0202325999999,898.0202325999999,898.0202325999999,903.632143400002,up,5.610542300000816,None,903.6403206000032,903.6507326000028,903.6507326000028,903.6978002000033,903.6982968000011,903.7142280000007,903.7142280000007,903.7142280000007,903.797463400002,904.0993032000006,space,0.3774421000016446,None,,,,,,,,,,,,,,,,,,,,,,,,,P109,001,2025-02-13_14h53.55.332,posner_endo_new1,2024.2.4,60.00510043351715,2025-02-13 14h54.02.201302 +0000,
cube_r.png,0.1,-0.31,invalid,2,2,0,up,5.804828299998917,None,space,0.44137620000037714,None,0,2,2,2,,,,,,,,,904.113827000001,,,,,,,,,,,,,904.099728600002,904.113827000001,904.113827000001,904.113827000001,909.925892700001,up,5.804828299998917,None,909.9374349000027,909.947711300003,909.947711300003,909.9914806000015,909.9918273000003,910.008111500003,910.008111500003,910.008111500003,910.0913171000029,910.4588552000023,space,0.44137620000037714,None,,,,,,,,,,,,,,,,,,,,,,,,,P109,001,2025-02-13_14h53.55.332,posner_endo_new1,2024.2.4,60.00510043351715,2025-02-13 14h54.02.201302 +0000,
cube_r.png,0.1,10,catch,3,3,0,up,5.548825300000317,None,None,,,0,3,3,3,,,,,,,,,910.4741753000017,,,,,,,,,,,,,910.4591274000013,910.4741753000017,910.4741753000017,910.4741753000017,916.0364961000014,up,5.548825300000317,None,916.0456574000018,916.0554179999999,916.0554179999999,916.1018050000021,916.1020525000022,916.1183946000019,916.1183946000019,916.1183946000019,916.2017864000009,919.1158780000005,None,,,918.2162144000031,919.1320484000025,919.1320484000025,919.1320484000025,,,,,,,,,,,,,,,,,,,,,P109,001,2025-02-13_14h53.55.332,posner_endo_new1,2024.2.4,60.00510043351715,2025-02-13 14h54.02.201302 +0000,
cube_l.png,0.1,-0.31,valid,4,4,0,up,2.7550052000005962,None,space,0.4148325999994995,None,0,4,4,4,,,,,,,,,919.1320484000025,,,,,,,,,,,,,919.1160516000018,919.1320484000025,919.1320484000025,919.1320484000025,921.8965934000007,up,2.7550052000005962,None,921.9040214000015,921.9155081000026,921.9155081000026,921.9626655000029,921.9632265,921.9790410000023,921.9790410000023,921.9790410000023,922.0456491000004,922.3974798000017,space,0.4148325999994995,None,,,,,,,,,,,,,,,,,,,,,,,,,P109,001,2025-02-13_14h53.55.332,posner_endo_new1,2024.2.4,60.00510043351715,2025-02-13 14h54.02.201302 +0000,
cube_l.png,0.1,0.31,invalid,5,5,0,up,6.171642699999211,None,space,0.4299238999992667,None,0,5,5,5,,,,,,,,,922.4119105000027,,,,,,,,,,,,,922.3979325,922.4119105000027,922.4119105000027,922.4119105000027,928.5904339000008,up,6.171642699999211,None,928.6019682000006,928.6122001000003,928.6122001000003,928.6558788000002,928.6562219000007,928.672334400002,928.672334400002,928.672334400002,928.7555551000005,929.1067625000032,space,0.4299238999992667,None,,,,,,,,,,,,,,,,,,,,,,,,,P109,001,2025-02-13_14h53.55.332,posner_endo_new1,2024.2.4,60.00510043351715,2025-02-13 14h54.02.201302 +0000,
cube_r.png,0.1,-0.31,invalid,6,6,0,up,6.028653699999268,None,space,0.45043579999764916,None,0,6,6,6,,,,,,,,,929.121958300002,,,,,,,,,,,,,929.1070471000021,929.121958300002,929.121958300002,929.121958300002,935.1668793999997,up,6.028653699999268,None,935.1784573000004,935.1886971000022,935.1886971000022,935.2324032000033,935.2327540000006,935.2489239000024,935.2489239000024,935.2489239000024,935.3320632000032,935.7162098000008,space,0.45043579999764916,None,,,,,,,,,,,,,,,,,,,,,,,,,P109,001,2025-02-13_14h53.55.332,posner_endo_new1,2024.2.4,60.00510043351715,2025-02-13 14h54.02.201302 +0000,
cube_r.png,0.1,0.31,valid,7,7,0,up,6.834655800001201,None,space,0.37717939999856753,None,0,7,7,7,,,,,,,,,935.731733800003,,,,,,,,,,,,,935.7165023000016,935.731733800003,935.731733800003,935.731733800003,942.5759365000013,up,6.834655800001201,None,942.5874504000021,942.5977911000009,942.5977911000009,942.6415242000003,942.6418643000034,942.6579813000026,942.6579813000026,942.6579813000026,942.7411806000018,943.0420703000018,space,0.37717939999856753,None,,,,,,,,,,,,,,,,,,,,,,,,,P109,001,2025-02-13_14h53.55.332,posner_endo_new1,2024.2.4,60.00510043351715,2025-02-13 14h54.02.201302 +0000,
cube_l.png,0.1,-0.31,valid,8,8,0,up,5.8847107000001415,None,space,0.3427510000001348,None,0,8,8,8,,,,,,,,,943.0576465000013,,,,,,,,,,,,,943.0423563000004,943.0576465000013,943.0576465000013,943.0576465000013,948.9527949000003,up,5.8847107000001415,None,948.9642908000023,948.9746786000032,948.9746786000032,949.0183508000009,949.0186039,949.034794500003,949.034794500003,949.034794500003,949.1180436000031,949.3851826999999,space,0.3427510000001348,None,,,,,,,,,,,,,,,,,,,,,,,,,P109,001,2025-02-13_14h53.55.332,posner_endo_new1,2024.2.4,60.00510043351715,2025-02-13 14h54.02.201302 +0000,
cube_r.png,0.1,-0.31,invalid,9,9,0,up,6.125839099997393,None,space,0.42413119999764604,None,0,9,9,9,,,,,,,,,949.4009578000005,,,,,,,,,,,,,949.3853766000029,949.4009578000005,949.4009578000005,949.4009578000005,955.5294672000018,up,6.125839099997393,None,955.5410547000029,955.5513261000015,955.5513261000015,955.5951177000024,955.5954633000001,955.6114128000008,955.6114128000008,955.6114128000008,955.6946485000008,956.0455040000015,space,0.42413119999764604,None,,,,,,,,,,,,,,,,,,,,,,,,,P109,001,2025-02-13_14h53.55.332,posner_endo_new1,2024.2.4,60.00510043351715,2025-02-13 14h54.02.201302 +0000,
cube_r.png,0.1,0.31,valid,10,10,0,up,6.713587199999893,None,space,0.24369620000288705,None,0,10,10,10,,,,,,,,,956.0609577000032,,,,,,,,,,,,,956.0457936000021,956.0609577000032,956.0609577000032,956.0609577000032,962.7885808999999,up,6.713587199999893,None,962.8001048000006,962.810380400002,962.810380400002,962.8542087000023,962.8545610000001,962.8706807000017,962.8706807000017,962.8706807000017,962.9540280000001,963.121462500003,space,0.24369620000288705,None,,,,,,,,,,,,,,,,,,,,,,,,,P109,001,2025-02-13_14h53.55.332,posner_endo_new1,2024.2.4,60.00510043351715,2025-02-13 14h54.02.201302 +0000,
,,,,,,,,,,,,,,,,,,,,,,,,,,,,,,,,,,963.1216392000024,963.1370191000024,966.1487557,966.1180737000032,,,,,,,,,,,,,,,,,,,,,,,,,,,,,,,,,,,,,,,,,,,,,,P109,001,2025-02-13_14h53.55.332,posner_endo_new1,2024.2.4,60.00510043351715,2025-02-13 14h54.02.201302 +0000,
cube_l.png,0.1,10,catch,0,0,0,up,9.545604200000525,None,space,0.28136519999679876,None,,,,,0,0,0,0,,,,,966.1487557,,,,,,,,,,,,,966.1393439000021,966.1487557,966.1487557,966.1487557,975.7088488000009,,,,975.7204640000018,975.7307606000031,975.7307606000031,975.7743252,975.7746794000013,975.7908656,975.7908656,975.7908656,975.8741797000002,976.0751651999999,,,,,,,,up,9.545604200000525,None,space,0.28136519999679876,None,,,,,,,,,,,,,,,P109,001,2025-02-13_14h53.55.332,posner_endo_new1,2024.2.4,60.00510043351715,2025-02-13 14h54.02.201302 +0000,
cube_l.png,0.1,10,catch,1,1,0,up,7.924650900000415,None,None,,,,,,,0,1,1,1,,,,,976.0905159000031,,,,,,,,,,,,,976.0754642000029,976.0905159000031,976.0905159000031,976.0905159000031,984.0170116000008,,,,984.0259828000017,984.0358591000004,984.0358591000004,984.0822881000022,984.0825357000031,984.0989635000005,984.0989635000005,984.0989635000005,984.1821692000012,987.0962869000032,,,,986.1968284000031,987.1123892000032,987.1123892000032,987.1123892000032,up,7.924650900000415,None,None,,,,,,,,,,,,,,,,,P109,001,2025-02-13_14h53.55.332,posner_endo_new1,2024.2.4,60.00510043351715,2025-02-13 14h54.02.201302 +0000,
cube_l.png,0.1,0.31,invalid,2,2,0,up,4.094869100001233,None,space,0.3464076999989629,None,,,,,0,2,2,2,,,,,987.1123892000032,,,,,,,,,,,,,987.0964717000024,987.1123892000032,987.1123892000032,987.1123892000032,991.2092045000027,,,,991.2166560000005,991.2278823000015,991.2278823000015,991.2750236000029,991.2752729000022,991.2916543000028,991.2916543000028,991.2916543000028,991.375083400002,991.6421244000012,,,,,,,,up,4.094869100001233,None,space,0.3464076999989629,None,,,,,,,,,,,,,,,P109,001,2025-02-13_14h53.55.332,posner_endo_new1,2024.2.4,60.00510043351715,2025-02-13 14h54.02.201302 +0000,
cube_l.png,0.1,0.31,invalid,3,3,0,up,6.3490458999986,None,space,0.34748989999934565,None,,,,,0,3,3,3,,,,,991.657892700001,,,,,,,,,,,,,991.6423271000021,991.657892700001,991.657892700001,991.657892700001,998.0188146,,,,998.0262822000004,998.0376324000026,998.0376324000026,998.0847661000007,998.0850138000023,998.1012797000003,998.1012797000003,998.1012797000003,998.1682763000026,998.4516234000002,,,,,,,,up,6.3490458999986,None,space,0.34748989999934565,None,,,,,,,,,,,,,,,P109,001,2025-02-13_14h53.55.332,posner_endo_new1,2024.2.4,60.00510043351715,2025-02-13 14h54.02.201302 +0000,
cube_l.png,0.1,-0.31,valid,4,4,0,up,6.162871199998335,None,space,0.3969948999983899,None,,,,,0,4,4,4,,,,,998.4676807000033,,,,,,,,,,,,,998.4518419000015,998.4676807000033,998.4676807000033,998.4676807000033,1004.6453423000021,,,,1004.652779400003,1004.6643194000026,1004.6643194000026,1004.7112527999998,1004.7115019000012,1004.7278476000029,1004.7278476000029,1004.7278476000029,1004.7945082000006,1005.1284373000017,,,,,,,,up,6.162871199998335,None,space,0.3969948999983899,None,,,,,,,,,,,,,,,P109,001,2025-02-13_14h53.55.332,posner_endo_new1,2024.2.4,60.00510043351715,2025-02-13 14h54.02.201302 +0000,
cube_r.png,0.1,-0.31,invalid,5,5,0,up,7.239431400001195,None,space,0.3047750999976415,None,,,,,0,5,5,5,,,,,1005.1441326000022,,,,,,,,,,,,,1005.1286311000003,1005.1441326000022,1005.1441326000022,1005.1441326000022,1012.3874304000019,,,,1012.394852100002,1012.4059938000028,1012.4059938000028,1012.4533975000013,1012.4539034000009,1012.4698314000016,1012.4698314000016,1012.4698314000016,1012.5530703000004,1012.7880964000033,,,,,,,,up,7.239431400001195,None,space,0.3047750999976415,None,,,,,,,,,,,,,,,P109,001,2025-02-13_14h53.55.332,posner_endo_new1,2024.2.4,60.00510043351715,2025-02-13 14h54.02.201302 +0000,
cube_r.png,0.1,0.31,valid,6,6,0,up,6.987383200001204,None,space,0.3177514999988489,None,,,,,0,6,6,6,,,,,1012.8027752000016,,,,,,,,,,,,,1012.7885322000002,1012.8027752000016,1012.8027752000016,1012.8027752000016,1019.7969871000023,,,,1019.8079777000021,1019.8181747000017,1019.8181747000017,1019.8627154000023,1019.8630494000026,1019.879086500001,1019.879086500001,1019.879086500001,1019.962309100003,1020.2132728000033,,,,,,,,up,6.987383200001204,None,space,0.3177514999988489,None,,,,,,,,,,,,,,,P109,001,2025-02-13_14h53.55.332,posner_endo_new1,2024.2.4,60.00510043351715,2025-02-13 14h54.02.201302 +0000,
cube_r.png,0.1,-0.31,invalid,7,7,0,up,7.426590800001577,None,space,0.34573380000074394,None,,,,,0,7,7,7,,,,,1020.2288171,,,,,,,,,,,,,1020.2135570000028,1020.2288171,1020.2288171,1020.2288171,1027.6723788000018,,,,1027.6833664000005,1027.6932302000023,1027.6932302000023,1027.7379087000008,1027.738240900002,1027.7543910000022,1027.7543910000022,1027.7543910000022,1027.837605300003,1028.1051561000022,,,,,,,,up,7.426590800001577,None,space,0.34573380000074394,None,,,,,,,,,,,,,,,P109,001,2025-02-13_14h53.55.332,posner_endo_new1,2024.2.4,60.00510043351715,2025-02-13 14h54.02.201302 +0000,
cube_l.png,0.1,-0.31,valid,8,8,0,up,7.73428270000295,None,space,0.37053430000014487,None,,,,,0,8,8,8,,,,,1028.1206023000013,,,,,,,,,,,,,1028.1054296000002,1028.1206023000013,1028.1206023000013,1028.1206023000013,1035.8639004000033,,,,1035.8749295000016,1035.8851055000014,1035.8851055000014,1035.929579300002,1035.9299221,1035.9461169000024,1035.9461169000024,1035.9461169000024,1036.0293259999999,1036.330090200001,,,,,,,,up,7.73428270000295,None,space,0.37053430000014487,None,,,,,,,,,,,,,,,P109,001,2025-02-13_14h53.55.332,posner_endo_new1,2024.2.4,60.00510043351715,2025-02-13 14h54.02.201302 +0000,
cube_r.png,0.1,-0.31,invalid,9,9,0,up,7.028706599998259,None,space,0.41531010000107926,None,,,,,0,9,9,9,,,,,1036.345656900001,,,,,,,,,,,,,1036.3303766999998,1036.345656900001,1036.345656900001,1036.345656900001,1043.3896120999998,,,,1043.4006604000024,1043.410882600001,1043.410882600001,1043.455142400002,1043.4554739000014,1043.471686500001,1043.471686500001,1043.471686500001,1043.5550728000017,1043.8891581000025,,,,,,,,up,7.028706599998259,None,space,0.41531010000107926,None,,,,,,,,,,,,,,,P109,001,2025-02-13_14h53.55.332,posner_endo_new1,2024.2.4,60.00510043351715,2025-02-13 14h54.02.201302 +0000,
cube_l.png,0.1,0.31,invalid,10,10,0,up,8.013877400000638,None,space,0.32833259999824804,None,,,,,0,10,10,10,,,,,1043.904501500001,,,,,,,,,,,,,1043.8894400000027,1043.904501500001,1043.904501500001,1043.904501500001,1051.9308082000025,,,,1051.9417560000002,1051.9519822000002,1051.9519822000002,1051.9964266000025,1051.996772100003,1052.0129887000003,1052.0129887000003,1052.0129887000003,1052.0963149000017,1052.347211700002,,,,,,,,up,8.013877400000638,None,space,0.32833259999824804,None,,,,,,,,,,,,,,,P109,001,2025-02-13_14h53.55.332,posner_endo_new1,2024.2.4,60.00510043351715,2025-02-13 14h54.02.201302 +0000,
cube_r.png,0.1,-0.31,invalid,11,11,0,up,7.067984400000569,None,space,0.38038610000148765,None,,,,,0,11,11,11,,,,,1052.3625739000017,,,,,,,,,,,,,1052.3474885000032,1052.3625739000017,1052.3625739000017,1052.3625739000017,1059.4397986000004,,,,1059.4508722000028,1059.4610769000028,1059.4610769000028,1059.5054019000017,1059.5057381000006,1059.521936000001,1059.521936000001,1059.521936000001,1059.6051436000016,1059.9060486000017,,,,,,,,up,7.067984400000569,None,space,0.38038610000148765,None,,,,,,,,,,,,,,,P109,001,2025-02-13_14h53.55.332,posner_endo_new1,2024.2.4,60.00510043351715,2025-02-13 14h54.02.201302 +0000,
cube_r.png,0.1,0.31,valid,12,12,0,up,7.804919199999858,None,space,0.5037601000003633,None,,,,,0,12,12,12,,,,,1059.9216755000016,,,,,,,,,,,,,1059.9063287000026,1059.9216755000016,1059.9216755000016,1059.9216755000016,1067.7314509000025,,,,1067.7424481000016,1067.752647100002,1067.752647100002,1067.7969966000019,1067.7973251000003,1067.8134752000005,1067.8134752000005,1067.8134752000005,1067.896604900001,1068.3307002000001,,,,,,,,up,7.804919199999858,None,space,0.5037601000003633,None,,,,,,,,,,,,,,,P109,001,2025-02-13_14h53.55.332,posner_endo_new1,2024.2.4,60.00510043351715,2025-02-13 14h54.02.201302 +0000,
cube_l.png,0.1,10,catch,13,13,0,up,6.923865900000237,None,None,,,,,,,0,13,13,13,,,,,1068.346439300003,,,,,,,,,,,,,1068.3309827000012,1068.346439300003,1068.346439300003,1068.346439300003,1075.2736897000032,,,,1075.2837779000001,1075.2934359000028,1075.2934359000028,1075.3390743000018,1075.339310000003,1075.355661700003,1075.355661700003,1075.355661700003,1075.439024000003,1078.353176200002,,,,1077.4536153000008,1078.3692322000024,1078.3692322000024,1078.3692322000024,up,6.923865900000237,None,None,,,,,,,,,,,,,,,,,P109,001,2025-02-13_14h53.55.332,posner_endo_new1,2024.2.4,60.00510043351715,2025-02-13 14h54.02.201302 +0000,
cube_r.png,0.1,-0.31,invalid,14,14,0,up,4.989710099998774,None,space,0.31121730000086245,None,,,,,0,14,14,14,,,,,1078.3692322000024,,,,,,,,,,,,,1078.3533487000022,1078.3692322000024,1078.3692322000024,1078.3692322000024,1083.3650696000004,,,,1083.3720095000026,1083.3838630000027,1083.3838630000027,1083.4310041000026,1083.4312425000026,1083.4474082000015,1083.4474082000015,1083.4474082000015,1083.530713600001,1083.7647582999998,,,,,,,,up,4.989710099998774,None,space,0.31121730000086245,None,,,,,,,,,,,,,,,P109,001,2025-02-13_14h53.55.332,posner_endo_new1,2024.2.4,60.00510043351715,2025-02-13 14h54.02.201302 +0000,
cube_l.png,0.1,-0.31,valid,15,15,0,up,7.09019470000203,None,space,0.35756599999876926,None,,,,,0,15,15,15,,,,,1083.7805051000032,,,,,,,,,,,,,1083.764941100002,1083.7805051000032,1083.7805051000032,1083.7805051000032,1090.874505300002,,,,1090.8848203000016,1090.8944433000033,1090.8944433000033,1090.9399393000022,1090.9401763000023,1090.9565594000014,1090.9565594000014,1090.9565594000014,1091.039717800002,1091.3232681000009,,,,,,,,up,7.09019470000203,None,space,0.35756599999876926,None,,,,,,,,,,,,,,,P109,001,2025-02-13_14h53.55.332,posner_endo_new1,2024.2.4,60.00510043351715,2025-02-13 14h54.02.201302 +0000,
cube_r.png,0.1,10,catch,16,16,0,up,8.547400500003278,None,space,0.25141330000042217,None,,,,,0,16,16,16,,,,,1091.3393993999998,,,,,,,,,,,,,1091.3234585999999,1091.3393993999998,1091.3393993999998,1091.3393993999998,1099.898146800002,,,,1099.905118300001,1099.916649400002,1099.916649400002,1099.9639809,1099.9644914000019,1099.9804280000026,1099.9804280000026,1099.9804280000026,1100.0636199,1100.248545800001,,,,,,,,up,8.547400500003278,None,space,0.25141330000042217,None,,,,,,,,,,,,,,,P109,001,2025-02-13_14h53.55.332,posner_endo_new1,2024.2.4,60.00510043351715,2025-02-13 14h54.02.201302 +0000,
cube_r.png,0.1,10,catch,17,17,0,up,7.847521799998503,None,None,,,,,,,0,17,17,17,,,,,1100.263443900003,,,,,,,,,,,,,1100.248979400003,1100.263443900003,1100.263443900003,1100.263443900003,1108.1234384000018,,,,1108.1342164000016,1108.1437674000008,1108.1437674000008,1108.1889487000008,1108.1891789000001,1108.2055174000016,1108.2055174000016,1108.2055174000016,1108.2888689000029,1111.2028415000023,,,,1110.3033370000012,1111.2190977999999,1111.2190977999999,1111.2190977999999,up,7.847521799998503,None,None,,,,,,,,,,,,,,,,,P109,001,2025-02-13_14h53.55.332,posner_endo_new1,2024.2.4,60.00510043351715,2025-02-13 14h54.02.201302 +0000,
cube_l.png,0.1,0.31,invalid,18,18,0,up,4.452185799997096,None,space,0.42291149999800837,None,,,,,0,18,18,18,,,,,1111.2190977999999,,,,,,,,,,,,,1111.2030172000013,1111.2190977999999,1111.2190977999999,1111.2190977999999,1115.6819314000022,,,,1115.6887137000012,1115.7004859000008,1115.7004859000008,1115.7479583000022,1115.7481948000022,1115.764457100002,1115.764457100002,1115.764457100002,1115.8310720000009,1116.1980449000002,,,,,,,,up,4.452185799997096,None,space,0.42291149999800837,None,,,,,,,,,,,,,,,P109,001,2025-02-13_14h53.55.332,posner_endo_new1,2024.2.4,60.00510043351715,2025-02-13 14h54.02.201302 +0000,
cube_l.png,0.1,10,catch,19,19,0,up,7.697093599999789,None,None,,,,,,,0,19,19,19,,,,,1116.213982600002,,,,,,,,,,,,,1116.198232900002,1116.213982600002,1116.213982600002,1116.213982600002,1123.923571700001,,,,1123.9296179000012,1123.9412591,1123.9412591,1123.9896496000001,1123.9898727,1124.0060138000008,1124.0060138000008,1124.0060138000008,1124.0726852000007,1127.0035750000025,,,,1126.0870281000025,1127.0195213000006,1127.0195213000006,1127.0195213000006,up,7.697093599999789,None,None,,,,,,,,,,,,,,,,,P109,001,2025-02-13_14h53.55.332,posner_endo_new1,2024.2.4,60.00510043351715,2025-02-13 14h54.02.201302 +0000,
cube_l.png,0.1,0.31,invalid,20,20,0,up,3.7400405000007595,None,space,0.3862215000008291,None,,,,,0,20,20,20,,,,,1127.0195213000006,,,,,,,,,,,,,1127.0037346999998,1127.0195213000006,1127.0195213000006,1127.0195213000006,1130.766422300003,,,,1130.7725637000003,1130.784431,1130.784431,1130.8325848000022,1130.8328121000013,1130.8490101000025,1130.8490101000025,1130.8490101000025,1130.9157685000027,1131.2492820000007,,,,,,,,up,3.7400405000007595,None,space,0.3862215000008291,None,,,,,,,,,,,,,,,P109,001,2025-02-13_14h53.55.332,posner_endo_new1,2024.2.4,60.00510043351715,2025-02-13 14h54.02.201302 +0000,
cube_l.png,0.1,-0.31,valid,21,21,0,up,7.597507599999517,None,space,0.37072190000253613,None,,,,,0,21,21,21,,,,,1131.2653793000027,,,,,,,,,,,,,1131.2494552000026,1131.2653793000027,1131.2653793000027,1131.2653793000027,1138.8748240000023,,,,1138.8809417000011,1138.8927433999997,1138.8927433999997,1138.940937700001,1138.9411915000019,1138.9573995000028,1138.9573995000028,1138.9573995000028,1139.0241294000007,1139.3410117000021,,,,,,,,up,7.597507599999517,None,space,0.37072190000253613,None,,,,,,,,,,,,,,,P109,001,2025-02-13_14h53.55.332,posner_endo_new1,2024.2.4,60.00510043351715,2025-02-13 14h54.02.201302 +0000,
cube_r.png,0.1,0.31,valid,22,22,0,up,7.506188999999722,None,space,0.3858385999992606,None,,,,,0,22,22,22,,,,,1139.3570519000023,,,,,,,,,,,,,1139.3411870000018,1139.3570519000023,1139.3570519000023,1139.3570519000023,1146.8678300000029,,,,1146.885076300001,1146.8964717000017,1146.8964717000017,1146.9327564000014,1146.9330453000002,1146.9491303000032,1146.9491303000032,1146.9491303000032,1147.0325340000018,1147.3497874000022,,,,,,,,up,7.506188999999722,None,space,0.3858385999992606,None,,,,,,,,,,,,,,,P109,001,2025-02-13_14h53.55.332,posner_endo_new1,2024.2.4,60.00510043351715,2025-02-13 14h54.02.201302 +0000,
cube_r.png,0.1,-0.31,invalid,23,23,0,up,7.521343700002035,None,space,0.3611297999996168,None,,,,,0,23,23,23,,,,,1147.3654860000024,,,,,,,,,,,,,1147.3500243000017,1147.3654860000024,1147.3654860000024,1147.3654860000024,1154.8924834999998,,,,1154.9041021000012,1154.9143070000027,1154.9143070000027,1154.9578895000013,1154.9582323000031,1154.974410900002,1154.974410900002,1154.974410900002,1155.0576768000028,1155.341921700001,,,,,,,,up,7.521343700002035,None,space,0.3611297999996168,None,,,,,,,,,,,,,,,P109,001,2025-02-13_14h53.55.332,posner_endo_new1,2024.2.4,60.00510043351715,2025-02-13 14h54.02.201302 +0000,
cube_r.png,0.1,0.31,valid,24,24,0,up,7.769524100000126,None,space,0.3497048999997787,None,,,,,0,24,24,24,,,,,1155.3572752,,,,,,,,,,,,,1155.3422088000007,1155.3572752,1155.3572752,1155.3572752,1163.1338517000004,,,,1163.1454841000013,1163.1558210000003,1163.1558210000003,1163.1996067,1163.1999548000022,1163.215953400002,1163.215953400002,1163.215953400002,1163.2993313000006,1163.5669847999998,,,,,,,,up,7.769524100000126,None,space,0.3497048999997787,None,,,,,,,,,,,,,,,P109,001,2025-02-13_14h53.55.332,posner_endo_new1,2024.2.4,60.00510043351715,2025-02-13 14h54.02.201302 +0000,
cube_r.png,0.1,-0.31,invalid,25,25,0,up,7.985222000002977,None,space,0.37786359999881824,None,,,,,0,25,25,25,,,,,1163.5822721000004,,,,,,,,,,,,,1163.5672731000013,1163.5822721000004,1163.5822721000004,1163.5822721000004,1171.575310600001,,,,1171.585013,1171.594673800002,1171.594673800002,1171.6408558000003,1171.6410953000013,1171.657392600002,1171.657392600002,1171.657392600002,1171.7406523000027,1172.0410512000017,,,,,,,,up,7.985222000002977,None,space,0.37786359999881824,None,,,,,,,,,,,,,,,P109,001,2025-02-13_14h53.55.332,posner_endo_new1,2024.2.4,60.00510043351715,2025-02-13 14h54.02.201302 +0000,
cube_l.png,0.1,-0.31,valid,26,26,0,up,7.821745600002032,None,space,0.3928009999981441,None,,,,,0,26,26,26,,,,,1172.0570503000017,,,,,,,,,,,,,1172.0412350000006,1172.0570503000017,1172.0570503000017,1172.0570503000017,1179.8831686000012,,,,1179.890146200003,1179.9016858000032,1179.9016858000032,1179.9490478000007,1179.9492701000017,1179.9654938000022,1179.9654938000022,1179.9654938000022,1180.0488735,1180.3658009000028,,,,,,,,up,7.821745600002032,None,space,0.3928009999981441,None,,,,,,,,,,,,,,,P109,001,2025-02-13_14h53.55.332,posner_endo_new1,2024.2.4,60.00510043351715,2025-02-13 14h54.02.201302 +0000,
cube_r.png,0.1,0.31,valid,27,27,0,up,8.202000899997074,None,space,0.41101609999896027,None,,,,,0,27,27,27,,,,,1180.3817709000032,,,,,,,,,,,,,1180.3659785000018,1180.3817709000032,1180.3817709000032,1180.3817709000032,1188.5906829000014,,,,1188.596776100003,1188.6085031000002,1188.6085031000002,1188.656820600001,1188.6570511999998,1188.6731175000023,1188.6731175000023,1188.6731175000023,1188.7399837000012,1189.0902618,,,,,,,,up,8.202000899997074,None,space,0.41101609999896027,None,,,,,,,,,,,,,,,P109,001,2025-02-13_14h53.55.332,posner_endo_new1,2024.2.4,60.00510043351715,2025-02-13 14h54.02.201302 +0000,
cube_r.png,0.1,10,catch,28,28,0,up,9.092749999999796,None,None,,,,,,,0,28,28,28,,,,,1189.1062734000006,,,,,,,,,,,,,1189.0904314,1189.1062734000006,1189.1062734000006,1189.1062734000006,1198.2143946000033,,,,1198.2204956000023,1198.232342700001,1198.232342700001,1198.2799793000013,1198.2804219000027,1198.2964293000005,1198.2964293000005,1198.2964293000005,1198.3796956000006,1201.2943552000033,,,,1200.394538200002,1201.3103529,1201.3103529,1201.3103529,up,9.092749999999796,None,None,,,,,,,,,,,,,,,,,P109,001,2025-02-13_14h53.55.332,posner_endo_new1,2024.2.4,60.00510043351715,2025-02-13 14h54.02.201302 +0000,
cube_r.png,0.1,0.31,valid,29,29,0,up,6.080532899999525,None,space,0.43857520000165096,None,,,,,0,29,29,29,,,,,1201.3103529,,,,,,,,,,,,,1201.2945906000023,1201.3103529,1201.3103529,1201.3103529,1207.4052572,,,,1207.4150384000022,1207.4251726000002,1207.4251726000002,1207.4709551000014,1207.4712602,1207.4874251,1207.4874251,1207.4874251,1207.5707089000025,1207.9379341000022,,,,,,,,up,6.080532899999525,None,space,0.43857520000165096,None,,,,,,,,,,,,,,,P109,001,2025-02-13_14h53.55.332,posner_endo_new1,2024.2.4,60.00510043351715,2025-02-13 14h54.02.201302 +0000,
cube_r.png,0.1,0.31,valid,30,30,0,up,8.637552999996842,None,space,0.3849034000013489,None,,,,,0,30,30,30,,,,,1207.9536017000028,,,,,,,,,,,,,1207.9381925000016,1207.9536017000028,1207.9536017000028,1207.9536017000028,1216.5959223000027,,,,1216.605700600001,1216.6157939000004,1216.6157939000004,1216.6615652,1216.6618694999997,1216.678093800001,1216.678093800001,1216.678093800001,1216.7613743000002,1217.0787172000018,,,,,,,,up,8.637552999996842,None,space,0.3849034000013489,None,,,,,,,,,,,,,,,P109,001,2025-02-13_14h53.55.332,posner_endo_new1,2024.2.4,60.00510043351715,2025-02-13 14h54.02.201302 +0000,
cube_l.png,0.1,-0.31,valid,31,31,0,up,8.752248100001452,None,space,0.3203706999993301,None,,,,,0,31,31,31,,,,,1217.0943928000015,,,,,,,,,,,,,1217.078970100003,1217.0943928000015,1217.0943928000015,1217.0943928000015,1225.8531389000018,,,,1225.862928100003,1225.873055400003,1225.873055400003,1225.918730700003,1225.9190467000008,1225.935353500001,1225.935353500001,1225.935353500001,1226.018617400001,1226.269159200001,,,,,,,,up,8.752248100001452,None,space,0.3203706999993301,None,,,,,,,,,,,,,,,P109,001,2025-02-13_14h53.55.332,posner_endo_new1,2024.2.4,60.00510043351715,2025-02-13 14h54.02.201302 +0000,
cube_r.png,0.1,0.31,valid,32,32,0,up,8.522469399998954,None,space,0.2974350000004051,None,,,,,0,32,32,32,,,,,1226.2849373000026,,,,,,,,,,,,,1226.2694087000018,1226.2849373000026,1226.2849373000026,1226.2849373000026,1234.8104937000026,,,,1234.8202084000004,1234.8303465000026,1234.8303465000026,1234.8762332000006,1234.8765398000032,1234.8927558000032,1234.8927558000032,1234.8927558000032,1234.976049500001,1235.1934432000016,,,,,,,,up,8.522469399998954,None,space,0.2974350000004051,None,,,,,,,,,,,,,,,P109,001,2025-02-13_14h53.55.332,posner_endo_new1,2024.2.4,60.00510043351715,2025-02-13 14h54.02.201302 +0000,
cube_r.png,0.1,-0.31,invalid,33,33,0,up,7.286631899998611,None,space,0.40676689999963855,None,,,,,0,33,33,33,,,,,1235.2091360000013,,,,,,,,,,,,,1235.1936943,1235.2091360000013,1235.2091360000013,1235.2091360000013,1242.5027973000033,,,,1242.5126487000016,1242.5227212000027,1242.5227212000027,1242.5684521000003,1242.568776,1242.584866600002,1242.584866600002,1242.584866600002,1242.6680968,1243.0021344000015,,,,,,,,up,7.286631899998611,None,space,0.40676689999963855,None,,,,,,,,,,,,,,,P109,001,2025-02-13_14h53.55.332,posner_endo_new1,2024.2.4,60.00510043351715,2025-02-13 14h54.02.201302 +0000,
cube_r.png,0.1,10,catch,34,34,0,up,7.100747299999057,None,None,,,,,,,0,34,34,34,,,,,1243.017882600001,,,,,,,,,,,,,1243.002382300001,1243.017882600001,1243.017882600001,1243.017882600001,1250.128266900003,,,,1250.1380212000004,1250.148199700001,1250.148199700001,1250.194112600002,1250.1944175000026,1250.2104639000027,1250.2104639000027,1250.2104639000027,1250.2936678000005,1253.2081354000002,,,,1252.30832,1253.223946000002,1253.223946000002,1253.223946000002,up,7.100747299999057,None,None,,,,,,,,,,,,,,,,,P109,001,2025-02-13_14h53.55.332,posner_endo_new1,2024.2.4,60.00510043351715,2025-02-13 14h54.02.201302 +0000,
cube_r.png,0.1,0.31,valid,35,35,0,up,4.071683899997879,None,space,0.3680951999995159,None,,,,,0,35,35,35,,,,,1253.223946000002,,,,,,,,,,,,,1253.2083767000004,1253.223946000002,1253.223946000002,1253.223946000002,1257.3043534000026,,,,1257.314123,1257.324379400001,1257.324379400001,1257.3701285000025,1257.3704305000028,1257.3863760000022,1257.3863760000022,1257.3863760000022,1257.4696879000003,1257.7703219000032,,,,,,,,up,4.071683899997879,None,space,0.3680951999995159,None,,,,,,,,,,,,,,,P109,001,2025-02-13_14h53.55.332,posner_endo_new1,2024.2.4,60.00510043351715,2025-02-13 14h54.02.201302 +0000,
cube_r.png,0.1,-0.31,invalid,36,36,0,up,8.021273000002111,None,space,0.39782320000085747,None,,,,,0,36,36,36,,,,,1257.7860768000028,,,,,,,,,,,,,1257.7705759000019,1257.7860768000028,1257.7860768000028,1257.7860768000028,1265.8122591000028,,,,1265.8220765000005,1265.8322829000026,1265.8322829000026,1265.8778974000015,1265.8782028000023,1265.894325600002,1265.894325600002,1265.894325600002,1265.9777121000006,1266.2951040000007,,,,,,,,up,8.021273000002111,None,space,0.39782320000085747,None,,,,,,,,,,,,,,,P109,001,2025-02-13_14h53.55.332,posner_endo_new1,2024.2.4,60.00510043351715,2025-02-13 14h54.02.201302 +0000,
cube_l.png,0.1,0.31,invalid,37,37,0,up,6.512597100001585,None,space,0.3913089999987278,None,,,,,0,37,37,37,,,,,1266.3106920000027,,,,,,,,,,,,,1266.2953559000016,1266.3106920000027,1266.3106920000027,1266.3106920000027,1272.8382921000011,,,,1272.8479946000007,1272.8580417000012,1272.8580417000012,1272.9041096,1272.904418000002,1272.9206621000012,1272.9206621000012,1272.9206621000012,1273.0038950000016,1273.321391100002,,,,,,,,up,6.512597100001585,None,space,0.3913089999987278,None,,,,,,,,,,,,,,,P109,001,2025-02-13_14h53.55.332,posner_endo_new1,2024.2.4,60.00510043351715,2025-02-13 14h54.02.201302 +0000,
cube_l.png,0.1,0.31,invalid,38,38,0,up,6.942244800000481,None,space,0.3589777999986836,None,,,,,0,38,38,38,,,,,1273.3368045000025,,,,,,,,,,,,,1273.3216458000024,1273.3368045000025,1273.3368045000025,1273.3368045000025,1280.2809267000011,,,,1280.2907005000015,1280.300988400002,1280.300988400002,1280.3464402000027,1280.346755100003,1280.363009300003,1280.363009300003,1280.363009300003,1280.4462740000017,1280.7303124000027,,,,,,,,up,6.942244800000481,None,space,0.3589777999986836,None,,,,,,,,,,,,,,,P109,001,2025-02-13_14h53.55.332,posner_endo_new1,2024.2.4,60.00510043351715,2025-02-13 14h54.02.201302 +0000,
cube_r.png,0.1,0.31,valid,39,39,0,up,6.916689099998621,None,space,0.33340299999690615,None,,,,,0,39,39,39,,,,,1280.7460221000001,,,,,,,,,,,,,1280.7305702000012,1280.7460221000001,1280.7460221000001,1280.7460221000001,1287.6731370000016,,,,1287.6826153000002,1287.6922392000015,1287.6922392000015,1287.7388715000016,1287.7390947000022,1287.7555124000028,1287.7555124000028,1287.7555124000028,1287.838754700002,1288.1057207000013,,,,,,,,up,6.916689099998621,None,space,0.33340299999690615,None,,,,,,,,,,,,,,,P109,001,2025-02-13_14h53.55.332,posner_endo_new1,2024.2.4,60.00510043351715,2025-02-13 14h54.02.201302 +0000,
cube_l.png,0.1,0.31,invalid,40,40,0,up,7.09343440000157,None,space,0.3500282999993942,None,,,,,0,40,40,40,,,,,1288.1217460000007,,,,,,,,,,,,,1288.105897700003,1288.1217460000007,1288.1217460000007,1288.1217460000007,1295.2319327000005,,,,1295.2379615000027,1295.2493801000019,1295.2493801000019,1295.2977449999998,1295.2979679000018,1295.3144143999998,1295.3144143999998,1295.3144143999998,1295.3975608,1295.6813519000025,,,,,,,,up,7.09343440000157,None,space,0.3500282999993942,None,,,,,,,,,,,,,,,P109,001,2025-02-13_14h53.55.332,posner_endo_new1,2024.2.4,60.00510043351715,2025-02-13 14h54.02.201302 +0000,
cube_l.png,0.1,10,catch,41,41,0,up,6.9900405000007595,None,None,,,,,,,0,41,41,41,,,,,1295.6972812000022,,,,,,,,,,,,,1295.6815222000005,1295.6972812000022,1295.6972812000022,1295.6972812000022,1302.690959800002,,,,1302.6970212000015,1302.7088484000014,1302.7088484000014,1302.7565734000018,1302.7570089,1302.7730134000012,1302.7730134000012,1302.7730134000012,1302.856271800003,1305.770975800002,,,,1304.8712908000016,1305.7871025000022,1305.7871025000022,1305.7871025000022,up,6.9900405000007595,None,None,,,,,,,,,,,,,,,,,P109,001,2025-02-13_14h53.55.332,posner_endo_new1,2024.2.4,60.00510043351715,2025-02-13 14h54.02.201302 +0000,
cube_l.png,0.1,-0.31,valid,42,42,0,up,4.4197681000005105,None,space,0.4106591000017943,None,,,,,0,42,42,42,,,,,1305.7871025000022,,,,,,,,,,,,,1305.7712201000031,1305.7871025000022,1305.7871025000022,1305.7871025000022,1310.2168420000016,,,,1310.226903400002,1310.237108100002,1310.237108100002,1310.2825919000024,1310.282912300001,1310.299083400001,1310.299083400001,1310.299083400001,1310.3823975000014,1310.7163292000005,,,,,,,,up,4.4197681000005105,None,space,0.4106591000017943,None,,,,,,,,,,,,,,,P109,001,2025-02-13_14h53.55.332,posner_endo_new1,2024.2.4,60.00510043351715,2025-02-13 14h54.02.201302 +0000,
cube_l.png,0.1,10,catch,43,43,0,up,7.058824400002777,None,None,,,,,,,0,43,43,43,,,,,1310.732033700002,,,,,,,,,,,,,1310.7165860000023,1310.732033700002,1310.732033700002,1310.732033700002,1317.7926073000017,,,,1317.8026198000007,1317.812885200001,1317.812885200001,1317.8582521000026,1317.8585553000012,1317.8746412,1317.8746412,1317.8746412,1317.9578574000006,1320.8722097999998,,,,1319.9726594000022,1320.8883078,1320.8883078,1320.8883078,up,7.058824400002777,None,None,,,,,,,,,,,,,,,,,P109,001,2025-02-13_14h53.55.332,posner_endo_new1,2024.2.4,60.00510043351715,2025-02-13 14h54.02.201302 +0000,
cube_l.png,0.1,0.31,invalid,44,44,0,up,5.606844500001898,None,space,0.3316410999977961,None,,,,,0,44,44,44,,,,,1320.8883078,,,,,,,,,,,,,1320.8724494000016,1320.8883078,1320.8883078,1320.8883078,1326.500291700002,,,,1326.5102143000004,1326.5203598000007,1326.5203598000007,1326.5659337000034,1326.5662508000023,1326.5825057000002,1326.5825057000002,1326.5825057000002,1326.6657857999999,1326.916661500003,,,,,,,,up,5.606844500001898,None,space,0.3316410999977961,None,,,,,,,,,,,,,,,P109,001,2025-02-13_14h53.55.332,posner_endo_new1,2024.2.4,60.00510043351715,2025-02-13 14h54.02.201302 +0000,
cube_l.png,0.1,0.31,invalid,45,45,0,up,8.242809399998805,None,space,0.46618080000189366,None,,,,,0,45,45,45,,,,,1326.9320105000006,,,,,,,,,,,,,1326.9169094000026,1326.9320105000006,1326.9320105000006,1326.9320105000006,1335.1914111000006,,,,1335.2012240000004,1335.2111057000002,1335.2111057000002,1335.2569784000007,1335.2572850000033,1335.2734911000007,1335.2734911000007,1335.2734911000007,1335.3567815000024,1335.7409662999999,,,,,,,,up,8.242809399998805,None,space,0.46618080000189366,None,,,,,,,,,,,,,,,P109,001,2025-02-13_14h53.55.332,posner_endo_new1,2024.2.4,60.00510043351715,2025-02-13 14h54.02.201302 +0000,
cube_r.png,0.1,0.31,valid,46,46,0,up,7.378368900001078,None,space,0.4333608000015374,None,,,,,0,46,46,46,,,,,1335.7563586000033,,,,,,,,,,,,,1335.7412146000024,1335.7563586000033,1335.7563586000033,1335.7563586000033,1343.1497497000018,,,,1343.1597045000017,1343.1702203000023,1343.1702203000023,1343.215661600003,1343.2159667000014,1343.232147900002,1343.232147900002,1343.232147900002,1343.3152820000032,1343.6826675000011,,,,,,,,up,7.378368900001078,None,space,0.4333608000015374,None,,,,,,,,,,,,,,,P109,001,2025-02-13_14h53.55.332,posner_endo_new1,2024.2.4,60.00510043351715,2025-02-13 14h54.02.201302 +0000,
cube_l.png,0.1,-0.31,valid,47,47,0,up,8.492413299998589,None,space,0.3399499000006472,None,,,,,0,47,47,47,,,,,1343.6982097,,,,,,,,,,,,,1343.6829152999999,1343.6982097,1343.6982097,1343.6982097,1352.2074009000025,,,,1352.217159900003,1352.2270573000023,1352.2270573000023,1352.2730333,1352.2733364000014,1352.2893777999998,1352.2893777999998,1352.2893777999998,1352.372859500003,1352.6401698000009,,,,,,,,up,8.492413299998589,None,space,0.3399499000006472,None,,,,,,,,,,,,,,,P109,001,2025-02-13_14h53.55.332,posner_endo_new1,2024.2.4,60.00510043351715,2025-02-13 14h54.02.201302 +0000,
cube_r.png,0.1,-0.31,invalid,48,48,0,up,8.095263499999419,None,space,0.3712807999982033,None,,,,,0,48,48,48,,,,,1352.6558513000018,,,,,,,,,,,,,1352.6404211000008,1352.6558513000018,1352.6558513000018,1352.6558513000018,1360.7653143000025,,,,1360.7750639000005,1360.7853313000014,1360.7853313000014,1360.8309184999998,1360.8312224000001,1360.8474679000028,1360.8474679000028,1360.8474679000028,1360.9306533000017,1361.231402100002,,,,,,,,up,8.095263499999419,None,space,0.3712807999982033,None,,,,,,,,,,,,,,,P109,001,2025-02-13_14h53.55.332,posner_endo_new1,2024.2.4,60.00510043351715,2025-02-13 14h54.02.201302 +0000,
cube_r.png,0.1,10,catch,49,49,0,up,7.760061199998745,None,None,,,,,,,0,49,49,49,,,,,1361.2470837,,,,,,,,,,,,,1361.2316506000025,1361.2470837,1361.2470837,1361.2470837,1369.0235094000018,,,,1369.033266800001,1369.0431173000034,1369.0431173000034,1369.089124000002,1369.0894319,1369.105687000003,1369.105687000003,1369.105687000003,1369.1889046000033,1372.1031920000023,,,,1371.2034624000007,1372.1193515000014,1372.1193515000014,1372.1193515000014,up,7.760061199998745,None,None,,,,,,,,,,,,,,,,,P109,001,2025-02-13_14h53.55.332,posner_endo_new1,2024.2.4,60.00510043351715,2025-02-13 14h54.02.201302 +0000,
cube_l.png,0.1,-0.31,valid,50,50,0,up,5.495965599999181,None,space,0.45872980000058305,None,,,,,0,50,50,50,,,,,1372.1193515000014,,,,,,,,,,,,,1372.1034334000033,1372.1193515000014,1372.1193515000014,1372.1193515000014,1377.6312474000006,,,,1377.641036500001,1377.651254100001,1377.651254100001,1377.6970349000003,1377.6973447000018,1377.7135638,1377.7135638,1377.7135638,1377.7967837000033,1378.1808161000008,,,,,,,,up,5.495965599999181,None,space,0.45872980000058305,None,,,,,,,,,,,,,,,P109,001,2025-02-13_14h53.55.332,posner_endo_new1,2024.2.4,60.00510043351715,2025-02-13 14h54.02.201302 +0000,
cube_l.png,0.1,-0.31,valid,51,51,0,up,7.722802599997522,None,space,0.45455539999966277,None,,,,,0,51,51,51,,,,,1378.196440300002,,,,,,,,,,,,,1378.1810640000003,1378.196440300002,1378.196440300002,1378.196440300002,1385.9228976000013,,,,1385.9323777999998,1385.942055200001,1385.942055200001,1385.988467500003,1385.9886888,1386.0051140000032,1386.0051140000032,1386.0051140000032,1386.0883695000011,1386.4718186999999,,,,,,,,up,7.722802599997522,None,space,0.45455539999966277,None,,,,,,,,,,,,,,,P109,001,2025-02-13_14h53.55.332,posner_endo_new1,2024.2.4,60.00510043351715,2025-02-13 14h54.02.201302 +0000,
cube_r.png,0.1,-0.31,invalid,52,52,0,up,8.087115899998025,None,space,0.31935819999853265,None,,,,,0,52,52,52,,,,,1386.487907300001,,,,,,,,,,,,,1386.4720018000007,1386.487907300001,1386.487907300001,1386.487907300001,1394.580521900003,,,,1394.5865006000022,1394.5981064000007,1394.5981064000007,1394.6463921000031,1394.6466166999999,1394.6628266000007,1394.6628266000007,1394.6628266000007,1394.7294574000007,1394.9965204,,,,,,,,up,8.087115899998025,None,space,0.31935819999853265,None,,,,,,,,,,,,,,,P109,001,2025-02-13_14h53.55.332,posner_endo_new1,2024.2.4,60.00510043351715,2025-02-13 14h54.02.201302 +0000,
cube_l.png,0.1,-0.31,valid,53,53,0,up,7.586940799999866,None,space,0.3393849999993108,None,,,,,0,53,53,53,,,,,1395.0123967,,,,,,,,,,,,,1394.9966890000032,1395.0123967,1395.0123967,1395.0123967,1402.6054465000016,,,,1402.6118219000018,1402.624251600002,1402.624251600002,1402.6715122000023,1402.672051200003,1402.6879066000001,1402.6879066000001,1402.6879066000001,1402.7545376000016,1403.039477600003,,,,,,,,up,7.586940799999866,None,space,0.3393849999993108,None,,,,,,,,,,,,,,,P109,001,2025-02-13_14h53.55.332,posner_endo_new1,2024.2.4,60.00510043351715,2025-02-13 14h54.02.201302 +0000,
cube_r.png,0.1,10,catch,54,54,0,up,8.06489639999927,None,None,,,,,,,0,54,54,54,,,,,1403.0541779000014,,,,,,,,,,,,,1403.039963000003,1403.0541779000014,1403.0541779000014,1403.0541779000014,1411.1305616000027,,,,1411.1420711000028,1411.152318200002,1411.152318200002,1411.1960567000024,1411.196399200002,1411.2126609000006,1411.2126609000006,1411.2126609000006,1411.2957919,1414.2103908000026,,,,1413.3105035000008,1414.226150800001,1414.226150800001,1414.226150800001,up,8.06489639999927,None,None,,,,,,,,,,,,,,,,,P109,001,2025-02-13_14h53.55.332,posner_endo_new1,2024.2.4,60.00510043351715,2025-02-13 14h54.02.201302 +0000,
cube_l.png,0.1,0.31,invalid,55,55,0,up,4.708964500001457,None,space,0.41744229999676463,None,,,,,0,55,55,55,,,,,1414.226150800001,,,,,,,,,,,,,1414.210666400002,1414.226150800001,1414.226150800001,1414.226150800001,1418.9394459000032,,,,1418.9509229000032,1418.9612304000002,1418.9612304000002,1419.0048197000033,1419.005169,1419.021342400003,1419.021342400003,1419.021342400003,1419.1045426000019,1419.455485800001,,,,,,,,up,4.708964500001457,None,space,0.41744229999676463,None,,,,,,,,,,,,,,,P109,001,2025-02-13_14h53.55.332,posner_endo_new1,2024.2.4,60.00510043351715,2025-02-13 14h54.02.201302 +0000,
cube_l.png,0.1,-0.31,valid,56,56,0,up,8.776591500001814,None,space,0.37516239999968093,None,,,,,0,56,56,56,,,,,1419.4709522000012,,,,,,,,,,,,,1419.4557748000007,1419.4709522000012,1419.4709522000012,1419.4709522000012,1428.2630127000011,,,,1428.2746315000004,1428.284971000001,1428.284971000001,1428.3287189000002,1428.328970100003,1428.345046100003,1428.345046100003,1428.345046100003,1428.4284180000031,1428.7293110000028,,,,,,,,up,8.776591500001814,None,space,0.37516239999968093,None,,,,,,,,,,,,,,,P109,001,2025-02-13_14h53.55.332,posner_endo_new1,2024.2.4,60.00510043351715,2025-02-13 14h54.02.201302 +0000,
cube_r.png,0.1,0.31,valid,57,57,0,up,7.670921900000394,None,space,0.3266676000021107,None,,,,,0,57,57,57,,,,,1428.744737000001,,,,,,,,,,,,,1428.7295938000025,1428.744737000001,1428.744737000001,1428.744737000001,1436.4208997000023,,,,1436.428753100001,1436.439924000002,1436.439924000002,1436.4867932000016,1436.4870536000017,1436.5033795000018,1436.5033795000018,1436.5033795000018,1436.5700023999998,1436.8373321,,,,,,,,up,7.670921900000394,None,space,0.3266676000021107,None,,,,,,,,,,,,,,,P109,001,2025-02-13_14h53.55.332,posner_endo_new1,2024.2.4,60.00510043351715,2025-02-13 14h54.02.201302 +0000,
cube_r.png,0.1,-0.31,invalid,58,58,0,up,7.890098599997145,None,space,0.36750739999843063,None,,,,,0,58,58,58,,,,,1436.8529647000032,,,,,,,,,,,,,1436.8375411000015,1436.8529647000032,1436.8529647000032,1436.8529647000032,1444.746018400001,,,,1444.7557382000014,1444.7659359999998,1444.7659359999998,1444.8117692000014,1444.8120786,1444.828323400001,1444.828323400001,1444.828323400001,1444.911546700001,1445.2122796000003,,,,,,,,up,7.890098599997145,None,space,0.36750739999843063,None,,,,,,,,,,,,,,,P109,001,2025-02-13_14h53.55.332,posner_endo_new1,2024.2.4,60.00510043351715,2025-02-13 14h54.02.201302 +0000,
cube_l.png,0.1,0.31,invalid,59,59,0,up,7.852527800001553,None,space,0.35148239999762154,None,,,,,0,59,59,59,,,,,1445.227822500001,,,,,,,,,,,,,1445.2125248000011,1445.227822500001,1445.227822500001,1445.227822500001,1453.0873827000032,,,,1453.0970231000028,1453.1073195000026,1453.1073195000026,1453.1531956,1453.1535022000025,1453.169947600003,1453.169947600003,1453.169947600003,1453.2529773000024,1453.5371077000018,,,,,,,,up,7.852527800001553,None,space,0.35148239999762154,None,,,,,,,,,,,,,,,P109,001,2025-02-13_14h53.55.332,posner_endo_new1,2024.2.4,60.00510043351715,2025-02-13 14h54.02.201302 +0000,
,,,,,,,,,,,,,,,,,,,,,,,,,,,,,,,,,,,,,,,,,,,,,,,,,,,,,,,,,,,,,,,,,,,,,1453.5372659000022,1453.5524728000019,1453.5524728000019,1513.557545300002,1522.1334828,space,68.56731560000117,None,,,,,,,P109,001,2025-02-13_14h53.55.332,posner_endo_new1,2024.2.4,60.00510043351715,2025-02-13 14h54.02.201302 +0000,
,,,,,,,,,,,,,,,,,,,,,,,,,,,,,,,,,,1522.1335797000029,1522.1487449000015,1525.163961000002,1525.1298179000005,,,,,,,,,,,,,,,,,,,,,,,,,,,,,,,,,,,,,,,,,,,,,,P109,001,2025-02-13_14h53.55.332,posner_endo_new1,2024.2.4,60.00510043351715,2025-02-13 14h54.02.201302 +0000,
cube_l.png,0.1,10,catch,0,0,0,down,7.755604400001175,None,None,,,,,,,,,,,0,0,0,0,1525.163961000002,,,,,,,,,,,,,1525.154868200003,1525.163961000002,1525.163961000002,1525.163961000002,1532.9224877000015,,,,1532.931204800003,1532.9410640000024,1532.9410640000024,1532.9883300000001,1532.9886159000016,1533.0047842000022,1533.0047842000022,1533.0047842000022,1533.0881777000031,1536.0023480000018,,,,1535.1026126000033,1536.0182492000022,1536.0182492000022,1536.0182492000022,,,,,,,,,,,,,,,down,7.755604400001175,None,None,,,P109,001,2025-02-13_14h53.55.332,posner_endo_new1,2024.2.4,60.00510043351715,2025-02-13 14h54.02.201302 +0000,
cube_l.png,0.1,10,catch,1,1,0,down,4.548787700001412,None,None,,,,,,,,,,,0,1,1,1,1536.0182492000022,,,,,,,,,,,,,1536.0025593999999,1536.0182492000022,1536.0182492000022,1536.0182492000022,1540.5814925000013,,,,1540.5899377000023,1540.6000479000031,1540.6000479000031,1540.647073600001,1540.647571900001,1540.663475100002,1540.663475100002,1540.663475100002,1540.7469569000023,1543.6613883999999,,,,1542.7615994000007,1543.6772173999998,1543.6772173999998,1543.6772173999998,,,,,,,,,,,,,,,down,4.548787700001412,None,None,,,P109,001,2025-02-13_14h53.55.332,posner_endo_new1,2024.2.4,60.00510043351715,2025-02-13 14h54.02.201302 +0000,
cube_l.png,0.1,0.31,invalid,2,2,0,down,6.714771299997665,None,space,0.4109059000002162,None,,,,,,,,,0,2,2,2,1543.6772173999998,,,,,,,,,,,,,1543.6616476000017,1543.6772173999998,1543.6772173999998,1543.6772173999998,1550.404771900001,,,,1550.4159046000022,1550.4262119000014,1550.4262119000014,1550.470484700003,1550.470815800003,1550.4870238000003,1550.4870238000003,1550.4870238000003,1550.5702557000004,1550.9045747000018,,,,,,,,,,,,,,,,,,,,,,down,6.714771299997665,None,space,0.4109059000002162,None,P109,001,2025-02-13_14h53.55.332,posner_endo_new1,2024.2.4,60.00510043351715,2025-02-13 14h54.02.201302 +0000,
cube_l.png,0.1,0.31,invalid,3,3,0,down,7.783494499999506,None,space,0.3520610999985365,None,,,,,,,,,0,3,3,3,1550.9197738000003,,,,,,,,,,,,,1550.904857900001,1550.9197738000003,1550.9197738000003,1550.9197738000003,1558.712968300002,,,,1558.7240756000028,1558.7342653000014,1558.7342653000014,1558.7787257000018,1558.7790587000018,1558.7950552000002,1558.7950552000002,1558.7950552000002,1558.8785825000014,1559.1626443000023,,,,,,,,,,,,,,,,,,,,,,down,7.783494499999506,None,space,0.3520610999985365,None,P109,001,2025-02-13_14h53.55.332,posner_endo_new1,2024.2.4,60.00510043351715,2025-02-13 14h54.02.201302 +0000,
cube_l.png,0.1,-0.31,valid,4,4,0,down,10.054236899999523,None,space,0.46820560000196565,None,,,,,,,,,0,4,4,4,1559.1780326000007,,,,,,,,,,,,,1559.1629246000011,1559.1780326000007,1559.1780326000007,1559.1780326000007,1569.2355868000013,,,,1569.2465917000009,1569.2568656000003,1569.2568656000003,1569.301178200003,1569.3015078000026,1569.3177198000012,1569.3177198000012,1569.3177198000012,1569.4010600000001,1569.801706000002,,,,,,,,,,,,,,,,,,,,,,down,10.054236899999523,None,space,0.46820560000196565,None,P109,001,2025-02-13_14h53.55.332,posner_endo_new1,2024.2.4,60.00510043351715,2025-02-13 14h54.02.201302 +0000,
cube_r.png,0.1,-0.31,invalid,5,5,0,down,8.694240799999534,None,space,0.43567070000062813,None,,,,,,,,,0,5,5,5,1569.8172200000008,,,,,,,,,,,,,1569.8020137000021,1569.8172200000008,1569.8172200000008,1569.8172200000008,1578.526108500002,,,,1578.5350921999998,1578.544948900002,1578.544948900002,1578.5917423000028,1578.5919842000003,1578.6082152000017,1578.6082152000017,1578.6082152000017,1578.6914195000027,1579.0586444,,,,,,,,,,,,,,,,,,,,,,down,8.694240799999534,None,space,0.43567070000062813,None,P109,001,2025-02-13_14h53.55.332,posner_endo_new1,2024.2.4,60.00510043351715,2025-02-13 14h54.02.201302 +0000,
cube_r.png,0.1,0.31,valid,6,6,0,down,9.50923690000127,None,space,0.384526800000458,None,,,,,,,,,0,6,6,6,1579.0744594000025,,,,,,,,,,,,,1579.058832300001,1579.0744594000025,1579.0744594000025,1579.0744594000025,1588.5988014000031,,,,1588.605754100001,1588.6176237,1588.6176237,1588.6647594000024,1588.664983300001,1588.6812757000007,1588.6812757000007,1588.6812757000007,1588.7478891000028,1589.0815143,,,,,,,,,,,,,,,,,,,,,,down,9.50923690000127,None,space,0.384526800000458,None,P109,001,2025-02-13_14h53.55.332,posner_endo_new1,2024.2.4,60.00510043351715,2025-02-13 14h54.02.201302 +0000,
cube_r.png,0.1,-0.31,invalid,7,7,0,down,10.685604000002058,None,space,0.3471734999984619,None,,,,,,,,,0,7,7,7,1589.097544700002,,,,,,,,,,,,,1589.0816878000005,1589.097544700002,1589.097544700002,1589.097544700002,1599.7873851000004,,,,1599.7934131000002,1599.8046940000022,1599.8046940000022,1599.853331800001,1599.8536754000015,1599.8698350000013,1599.8698350000013,1599.8698350000013,1599.936454900002,1600.2209165000022,,,,,,,,,,,,,,,,,,,,,,down,10.685604000002058,None,space,0.3471734999984619,None,P109,001,2025-02-13_14h53.55.332,posner_endo_new1,2024.2.4,60.00510043351715,2025-02-13 14h54.02.201302 +0000,
cube_l.png,0.1,-0.31,valid,8,8,0,down,8.60312089999934,None,space,0.30173350000040955,None,,,,,,,,,0,8,8,8,1600.2362082,,,,,,,,,,,,,1600.2212080999998,1600.2362082,1600.2362082,1600.2362082,1608.8451847000033,,,,1608.856871,1608.8672209000033,1608.8672209000033,1608.9107828000015,1608.9111310000008,1608.9274483000008,1608.9274483000008,1608.9274483000008,1609.0105352000028,1609.2448447000024,,,,,,,,,,,,,,,,,,,,,,down,8.60312089999934,None,space,0.30173350000040955,None,P109,001,2025-02-13_14h53.55.332,posner_endo_new1,2024.2.4,60.00510043351715,2025-02-13 14h54.02.201302 +0000,
cube_r.png,0.1,-0.31,invalid,9,9,0,down,9.570802700000058,None,space,0.41560910000043805,None,,,,,,,,,0,9,9,9,1609.2603449000017,,,,,,,,,,,,,1609.2451421000005,1609.2603449000017,1609.2603449000017,1609.2603449000017,1618.8350832000033,,,,1618.8465976000007,1618.8569499000005,1618.8569499000005,1618.9006761000019,1618.901028100001,1618.917163500002,1618.917163500002,1618.917163500002,1619.0003026000013,1619.3346402000025,,,,,,,,,,,,,,,,,,,,,,down,9.570802700000058,None,space,0.41560910000043805,None,P109,001,2025-02-13_14h53.55.332,posner_endo_new1,2024.2.4,60.00510043351715,2025-02-13 14h54.02.201302 +0000,
cube_l.png,0.1,0.31,invalid,10,10,0,down,9.073418899999524,None,space,0.48008739999932004,None,,,,,,,,,0,10,10,10,1619.3500350000031,,,,,,,,,,,,,1619.3349377000013,1619.3500350000031,1619.3500350000031,1619.3500350000031,1628.4254854000028,,,,1628.4369585000022,1628.4473698000002,1628.4473698000002,1628.4908669000033,1628.4912073000014,1628.5071592000022,1628.5071592000022,1628.5071592000022,1628.5905600000006,1628.9912795000018,,,,,,,,,,,,,,,,,,,,,,down,9.073418899999524,None,space,0.48008739999932004,None,P109,001,2025-02-13_14h53.55.332,posner_endo_new1,2024.2.4,60.00510043351715,2025-02-13 14h54.02.201302 +0000,
cube_r.png,0.1,-0.31,invalid,11,11,0,down,8.416668599998957,None,space,0.3505412000013166,None,,,,,,,,,0,11,11,11,1629.0068247000017,,,,,,,,,,,,,1628.9915801000025,1629.0068247000017,1629.0068247000017,1629.0068247000017,1637.432555200001,,,,1637.444151900003,1637.4545262000029,1637.4545262000029,1637.4982899000024,1637.4986389000005,1637.5147522000007,1637.5147522000007,1637.5147522000007,1637.5981171000021,1637.8822937000004,,,,,,,,,,,,,,,,,,,,,,down,8.416668599998957,None,space,0.3505412000013166,None,P109,001,2025-02-13_14h53.55.332,posner_endo_new1,2024.2.4,60.00510043351715,2025-02-13 14h54.02.201302 +0000,
cube_r.png,0.1,0.31,valid,12,12,0,down,7.733398899999884,None,space,0.3337415999994846,None,,,,,,,,,0,12,12,12,1637.8976920000023,,,,,,,,,,,,,1637.8825877000017,1637.8976920000023,1637.8976920000023,1637.8976920000023,1645.6410039000002,,,,1645.6525763999998,1645.6629643000015,1645.6629643000015,1645.7066453000007,1645.7070021,1645.7230350999998,1645.7230350999998,1645.7230350999998,1645.8062771000004,1646.0738033000016,,,,,,,,,,,,,,,,,,,,,,down,7.733398899999884,None,space,0.3337415999994846,None,P109,001,2025-02-13_14h53.55.332,posner_endo_new1,2024.2.4,60.00510043351715,2025-02-13 14h54.02.201302 +0000,
cube_l.png,0.1,10,catch,13,13,0,down,9.342416499999672,None,None,,,,,,,,,,,0,13,13,13,1646.0893450000003,,,,,,,,,,,,,1646.0740989000005,1646.0893450000003,1646.0893450000003,1646.0893450000003,1655.447557200001,,,,1655.4565742000013,1655.4664690999998,1655.4664690999998,1655.513100600001,1655.513349300003,1655.5296241000033,1655.5296241000033,1655.5296241000033,1655.612758000003,1658.5270823000028,,,,1657.627375,1658.5431515000018,1658.5431515000018,1658.5431515000018,,,,,,,,,,,,,,,down,9.342416499999672,None,None,,,P109,001,2025-02-13_14h53.55.332,posner_endo_new1,2024.2.4,60.00510043351715,2025-02-13 14h54.02.201302 +0000,
cube_r.png,0.1,-0.31,invalid,14,14,0,down,5.832469299999502,None,space,0.4072281999979168,None,,,,,,,,,0,14,14,14,1658.5431515000018,,,,,,,,,,,,,1658.5272725000032,1658.5431515000018,1658.5431515000018,1658.5431515000018,1664.3879860000015,,,,1664.3954338000003,1664.4185247000023,1664.4185247000023,1664.4539345000012,1664.454180300003,1664.4703816,1664.4703816,1664.4703816,1664.5370156999998,1664.8873318000005,,,,,,,,,,,,,,,,,,,,,,down,5.832469299999502,None,space,0.4072281999979168,None,P109,001,2025-02-13_14h53.55.332,posner_endo_new1,2024.2.4,60.00510043351715,2025-02-13 14h54.02.201302 +0000,
cube_l.png,0.1,-0.31,valid,15,15,0,down,6.991871300000639,None,space,0.3861284999984491,None,,,,,,,,,0,15,15,15,1664.903459000001,,,,,,,,,,,,,1664.8875296000006,1664.903459000001,1664.903459000001,1664.903459000001,1671.8970851000013,,,,1671.9044861000002,1671.9158762000006,1671.9158762000006,1671.963003300003,1671.9632532000032,1671.9794784000005,1671.9794784000005,1671.9794784000005,1672.0627654000018,1672.379929900002,,,,,,,,,,,,,,,,,,,,,,down,6.991871300000639,None,space,0.3861284999984491,None,P109,001,2025-02-13_14h53.55.332,posner_endo_new1,2024.2.4,60.00510043351715,2025-02-13 14h54.02.201302 +0000,
cube_r.png,0.1,10,catch,16,16,0,down,8.68390939999881,None,None,,,,,,,,,,,0,16,16,16,1672.3958079000004,,,,,,,,,,,,,1672.3801291000018,1672.3958079000004,1672.3958079000004,1672.3958079000004,1681.0876547000007,,,,1681.0950618000024,1681.1063437000012,1681.1063437000012,1681.1536010000018,1681.1538491000028,1681.1704565,1681.1704565,1681.1704565,1681.2366862000017,1684.1677795000032,,,,1683.251294900001,1684.1836068000011,1684.1836068000011,1684.1836068000011,,,,,,,,,,,,,,,down,8.68390939999881,None,None,,,P109,001,2025-02-13_14h53.55.332,posner_endo_new1,2024.2.4,60.00510043351715,2025-02-13 14h54.02.201302 +0000,
cube_r.png,0.1,10,catch,17,17,0,down,7.521359800000937,None,None,,,,,,,,,,,0,17,17,17,1684.1836068000011,,,,,,,,,,,,,1684.1679638000023,1684.1836068000011,1684.1836068000011,1684.1836068000011,1691.7100255000005,,,,1691.7173941,1691.7286863000008,1691.7286863000008,1691.7759585000022,1691.7764527,1691.7924003000007,1691.7924003000007,1691.7924003000007,1691.8755907000013,1694.7904105000016,,,,1693.890539400003,1694.8061748,1694.8061748,1694.8061748,,,,,,,,,,,,,,,down,7.521359800000937,None,None,,,P109,001,2025-02-13_14h53.55.332,posner_endo_new1,2024.2.4,60.00510043351715,2025-02-13 14h54.02.201302 +0000,
cube_l.png,0.1,0.31,invalid,18,18,0,down,4.922177700002067,None,space,0.386421800001699,None,,,,,,,,,0,18,18,18,1694.8061748,,,,,,,,,,,,,1694.7906813000009,1694.8061748,1694.8061748,1694.8061748,1699.735623800003,,,,1699.7471839000027,1699.757450600002,1699.757450600002,1699.801165500001,1699.8015285000001,1699.8176918999998,1699.8176918999998,1699.8176918999998,1699.9009447000026,1700.2185280000012,,,,,,,,,,,,,,,,,,,,,,down,4.922177700002067,None,space,0.386421800001699,None,P109,001,2025-02-13_14h53.55.332,posner_endo_new1,2024.2.4,60.00510043351715,2025-02-13 14h54.02.201302 +0000,
cube_l.png,0.1,10,catch,19,19,0,down,8.758045599999605,None,None,,,,,,,,,,,0,19,19,19,1700.234003700003,,,,,,,,,,,,,1700.218819900001,1700.234003700003,1700.234003700003,1700.234003700003,1708.9932047000002,,,,1709.0038280000008,1709.0133929000003,1709.0133929000003,1709.0584089000004,1709.0586490000023,1709.0750079999998,1709.0750079999998,1709.0750079999998,1709.1580368000032,1712.0724066000002,,,,1711.1727963000012,1712.088702000001,1712.088702000001,1712.088702000001,,,,,,,,,,,,,,,down,8.758045599999605,None,None,,,P109,001,2025-02-13_14h53.55.332,posner_endo_new1,2024.2.4,60.00510043351715,2025-02-13 14h54.02.201302 +0000,
cube_l.png,0.1,0.31,invalid,20,20,0,down,6.255740900000092,None,space,0.46042730000044685,None,,,,,,,,,0,20,20,20,1712.088702000001,,,,,,,,,,,,,1712.0725802000015,1712.088702000001,1712.088702000001,1712.088702000001,1718.3496158000016,,,,1718.3565745000014,1718.3682352000033,1718.3682352000033,1718.4155127000013,1718.4157520000008,1718.4320864000001,1718.4320864000001,1718.4320864000001,1718.5152718000027,1718.9000313000033,,,,,,,,,,,,,,,,,,,,,,down,6.255740900000092,None,space,0.46042730000044685,None,P109,001,2025-02-13_14h53.55.332,posner_endo_new1,2024.2.4,60.00510043351715,2025-02-13 14h54.02.201302 +0000,
cube_l.png,0.1,-0.31,valid,21,21,0,down,7.765300299997762,None,space,0.31647719999818946,None,,,,,,,,,0,21,21,21,1718.9147027,,,,,,,,,,,,,1718.9004929000002,1718.9147027,1718.9147027,1718.9147027,1726.6914735999999,,,,1726.7030647000029,1726.713238700002,1726.713238700002,1726.7569410000033,1726.7572850000033,1726.7733234000007,1726.7733234000007,1726.7733234000007,1726.8568378000018,1727.0913087000008,,,,,,,,,,,,,,,,,,,,,,down,7.765300299997762,None,space,0.31647719999818946,None,P109,001,2025-02-13_14h53.55.332,posner_endo_new1,2024.2.4,60.00510043351715,2025-02-13 14h54.02.201302 +0000,
cube_r.png,0.1,0.31,valid,22,22,0,down,8.724766600000294,None,space,0.3426073999980872,None,,,,,,,,,0,22,22,22,1727.1065938000029,,,,,,,,,,,,,1727.091599200001,1727.1065938000029,1727.1065938000029,1727.1065938000029,1735.8481742000004,,,,1735.8543574000032,1735.8656263000012,1735.8656263000012,1735.9142769999999,1735.9145014000023,1735.9305228000012,1735.9305228000012,1735.9305228000012,1735.9974808000006,1736.2813556,,,,,,,,,,,,,,,,,,,,,,down,8.724766600000294,None,space,0.3426073999980872,None,P109,001,2025-02-13_14h53.55.332,posner_endo_new1,2024.2.4,60.00510043351715,2025-02-13 14h54.02.201302 +0000,
cube_r.png,0.1,-0.31,invalid,23,23,0,down,7.672033300001203,None,space,0.1644763000003877,None,,,,,,,,,0,23,23,23,1736.2972178000018,,,,,,,,,,,,,1736.2815277000009,1736.2972178000018,1736.2972178000018,1736.2972178000018,1743.9738285000021,,,,1743.9832206000028,1743.9929090000005,1743.9929090000005,1744.0392958000011,1744.039517600002,1744.0559177000032,1744.0559177000032,1744.0559177000032,1744.139147400001,1744.223169300003,,,,,,,,,,,,,,,,,,,,,,down,7.672033300001203,None,space,0.1644763000003877,None,P109,001,2025-02-13_14h53.55.332,posner_endo_new1,2024.2.4,60.00510043351715,2025-02-13 14h54.02.201302 +0000,
cube_r.png,0.1,0.31,valid,24,24,0,down,8.409045599997626,None,space,0.3314691999985371,None,,,,,,,,,0,24,24,24,1744.2389849000028,,,,,,,,,,,,,1744.2233506000011,1744.2389849000028,1744.2389849000028,1744.2389849000028,1752.664464100002,,,,1752.671063400001,1752.6827150000026,1752.6827150000026,1752.7303554999999,1752.7305812000013,1752.7470192,1752.7470192,1752.7470192,1752.8136369000022,1753.0808049000007,,,,,,,,,,,,,,,,,,,,,,down,8.409045599997626,None,space,0.3314691999985371,None,P109,001,2025-02-13_14h53.55.332,posner_endo_new1,2024.2.4,60.00510043351715,2025-02-13 14h54.02.201302 +0000,
cube_r.png,0.1,-0.31,invalid,25,25,0,down,7.20733680000194,None,space,0.39317059999666526,None,,,,,,,,,0,25,25,25,1753.0966294000027,,,,,,,,,,,,,1753.0809786000027,1753.0966294000027,1753.0966294000027,1753.0966294000027,1760.3066604000014,,,,1760.3128438000022,1760.3246278000006,1760.3246278000006,1760.3724894000006,1760.3727124000034,1760.3891589000013,1760.3891589000013,1760.3891589000013,1760.4556619000032,1760.789342600001,,,,,,,,,,,,,,,,,,,,,,down,7.20733680000194,None,space,0.39317059999666526,None,P109,001,2025-02-13_14h53.55.332,posner_endo_new1,2024.2.4,60.00510043351715,2025-02-13 14h54.02.201302 +0000,
cube_l.png,0.1,-0.31,valid,26,26,0,down,8.393951600002765,None,space,0.2702387000026647,None,,,,,,,,,0,26,26,26,1760.8054140000022,,,,,,,,,,,,,1760.7895209000017,1760.8054140000022,1760.8054140000022,1760.8054140000022,1769.2142233000013,,,,1769.2202410999998,1769.2317895000015,1769.2317895000015,1769.2802303000026,1769.2804525000029,1769.2968093000018,1769.2968093000018,1769.2968093000018,1769.3633276,1769.5806066000005,,,,,,,,,,,,,,,,,,,,,,down,8.393951600002765,None,space,0.2702387000026647,None,P109,001,2025-02-13_14h53.55.332,posner_endo_new1,2024.2.4,60.00510043351715,2025-02-13 14h54.02.201302 +0000,
cube_r.png,0.1,0.31,valid,27,27,0,down,8.947270900000149,None,space,0.34137290000217035,None,,,,,,,,,0,27,27,27,1769.5965044000004,,,,,,,,,,,,,1769.580786800001,1769.5965044000004,1769.5965044000004,1769.5965044000004,1778.5549133000022,,,,1778.5646463000012,1778.5747382000009,1778.5747382000009,1778.620706200003,1778.6210180000016,1778.6372131000026,1778.6372131000026,1778.6372131000026,1778.7204162000016,1778.9880736000014,,,,,,,,,,,,,,,,,,,,,,down,8.947270900000149,None,space,0.34137290000217035,None,P109,001,2025-02-13_14h53.55.332,posner_endo_new1,2024.2.4,60.00510043351715,2025-02-13 14h54.02.201302 +0000,
cube_r.png,0.1,10,catch,28,28,0,down,9.004360599999927,None,None,,,,,,,,,,,0,28,28,28,1779.0035829000008,,,,,,,,,,,,,1778.9883378000013,1779.0035829000008,1779.0035829000008,1779.0035829000008,1788.0122126000024,,,,1788.0220683000007,1788.0322302000022,1788.0322302000022,1788.0778024000028,1788.0781098000007,1788.0942959000022,1788.0942959000022,1788.0942959000022,1788.1774968999998,1791.0917473000009,,,,1790.1920633000009,1791.1078429000008,1791.1078429000008,1791.1078429000008,,,,,,,,,,,,,,,down,9.004360599999927,None,None,,,P109,001,2025-02-13_14h53.55.332,posner_endo_new1,2024.2.4,60.00510043351715,2025-02-13 14h54.02.201302 +0000,
cube_r.png,0.1,0.31,valid,29,29,0,down,6.3960277999976825,None,space,0.2855247999978019,None,,,,,,,,,0,29,29,29,1791.1078429000008,,,,,,,,,,,,,1791.0919906000017,1791.1078429000008,1791.1078429000008,1791.1078429000008,1797.5190774000002,,,,1797.529048100001,1797.5391402000023,1797.5391402000023,1797.584621500002,1797.5849315000014,1797.601172300001,1797.601172300001,1797.601172300001,1797.6844738,1797.9017970000023,,,,,,,,,,,,,,,,,,,,,,down,6.3960277999976825,None,space,0.2855247999978019,None,P109,001,2025-02-13_14h53.55.332,posner_endo_new1,2024.2.4,60.00510043351715,2025-02-13 14h54.02.201302 +0000,
cube_r.png,0.1,0.31,valid,30,30,0,down,8.178584999997838,None,space,0.8334539000024961,None,,,,,,,,,0,30,30,30,1797.9175366000018,,,,,,,,,,,,,1797.9020624000004,1797.9175366000018,1797.9175366000018,1797.9175366000018,1806.1101478000019,,,,1806.1199486000005,1806.1300888000005,1806.1300888000005,1806.175699200001,1806.1760080000022,1806.1924205000032,1806.1924205000032,1806.1924205000032,1806.2756737000018,1807.042581900001,,,,,,,,,,,,,,,,,,,,,,down,8.178584999997838,None,space,0.8334539000024961,None,P109,001,2025-02-13_14h53.55.332,posner_endo_new1,2024.2.4,60.00510043351715,2025-02-13 14h54.02.201302 +0000,
cube_l.png,0.1,-0.31,valid,31,31,0,down,8.221520400002191,None,space,0.41502720000062254,None,,,,,,,,,0,31,31,31,1807.0582345000003,,,,,,,,,,,,,1807.0428477000023,1807.0582345000003,1807.0582345000003,1807.0582345000003,1815.2842769000017,,,,1815.2941387000028,1815.3044200000004,1815.3044200000004,1815.3498611000032,1815.3501614000015,1815.3664218000013,1815.3664218000013,1815.3664218000013,1815.4494649000007,1815.7837545000002,,,,,,,,,,,,,,,,,,,,,,down,8.221520400002191,None,space,0.41502720000062254,None,P109,001,2025-02-13_14h53.55.332,posner_endo_new1,2024.2.4,60.00510043351715,2025-02-13 14h54.02.201302 +0000,
cube_r.png,0.1,0.31,valid,32,32,0,down,7.3686218000002555,None,space,0.367329200002132,None,,,,,,,,,0,32,32,32,1815.7992531000018,,,,,,,,,,,,,1815.7840311,1815.7992531000018,1815.7992531000018,1815.7992531000018,1823.1759029000023,,,,1823.1857516000018,1823.1959059,1823.1959059,1823.2418515999998,1823.2421577000023,1823.2582696999998,1823.2582696999998,1823.2582696999998,1823.3415482000019,1823.6424420000003,,,,,,,,,,,,,,,,,,,,,,down,7.3686218000002555,None,space,0.367329200002132,None,P109,001,2025-02-13_14h53.55.332,posner_endo_new1,2024.2.4,60.00510043351715,2025-02-13 14h54.02.201302 +0000,
cube_r.png,0.1,-0.31,invalid,33,33,0,down,8.48613519999708,None,space,0.3816122999996878,None,,,,,,,,,0,33,33,33,1823.6578997000033,,,,,,,,,,,,,1823.6427076,1823.6578997000033,1823.6578997000033,1823.6578997000033,1832.1501803000028,,,,1832.159908200003,1832.1703436000025,1832.1703436000025,1832.2159605000015,1832.216265500003,1832.2324786999998,1832.2324786999998,1832.2324786999998,1832.3157433000015,1832.616504200003,,,,,,,,,,,,,,,,,,,,,,down,8.48613519999708,None,space,0.3816122999996878,None,P109,001,2025-02-13_14h53.55.332,posner_endo_new1,2024.2.4,60.00510043351715,2025-02-13 14h54.02.201302 +0000,
cube_r.png,0.1,10,catch,34,34,0,down,7.823719900003198,None,None,,,,,,,,,,,0,34,34,34,1832.6321027000013,,,,,,,,,,,,,1832.6167576000007,1832.6321027000013,1832.6321027000013,1832.6321027000013,1840.4584263000033,,,,1840.468282400001,1840.4784421000004,1840.4784421000004,1840.5241903000024,1840.524491100001,1840.5406076,1840.5406076,1840.5406076,1840.6237489000014,1843.5382342000012,,,,1842.6385069000025,1843.5542483999998,1843.5542483999998,1843.5542483999998,,,,,,,,,,,,,,,down,7.823719900003198,None,None,,,P109,001,2025-02-13_14h53.55.332,posner_endo_new1,2024.2.4,60.00510043351715,2025-02-13 14h54.02.201302 +0000,
cube_r.png,0.1,0.31,valid,35,35,0,down,6.070934100000159,None,space,0.39370140000028186,None,,,,,,,,,0,35,35,35,1843.5542483999998,,,,,,,,,,,,,1843.538470200001,1843.5542483999998,1843.5542483999998,1843.5542483999998,1849.6322483000004,,,,1849.6419723,1849.6517718000032,1849.6517718000032,1849.6980298000017,1849.6983590000018,1849.7145636000023,1849.7145636000023,1849.7145636000023,1849.7978796000025,1850.115220300002,,,,,,,,,,,,,,,,,,,,,,down,6.070934100000159,None,space,0.39370140000028186,None,P109,001,2025-02-13_14h53.55.332,posner_endo_new1,2024.2.4,60.00510043351715,2025-02-13 14h54.02.201302 +0000,
cube_r.png,0.1,-0.31,invalid,36,36,0,down,9.165640500003065,None,space,0.29641219999757595,None,,,,,,,,,0,36,36,36,1850.1308931000021,,,,,,,,,,,,,1850.115489300002,1850.1308931000021,1850.1308931000021,1850.1308931000021,1859.3056034,,,,1859.315473300001,1859.3256489000014,1859.3256489000014,1859.3714889000003,1859.371798600001,1859.388128300001,1859.388128300001,1859.388128300001,1859.4545682000025,1859.688974800003,,,,,,,,,,,,,,,,,,,,,,down,9.165640500003065,None,space,0.29641219999757595,None,P109,001,2025-02-13_14h53.55.332,posner_endo_new1,2024.2.4,60.00510043351715,2025-02-13 14h54.02.201302 +0000,
cube_l.png,0.1,0.31,invalid,37,37,0,down,7.207608900000196,None,space,0.4751180999992357,None,,,,,,,,,0,37,37,37,1859.704389800001,,,,,,,,,,,,,1859.6892383000013,1859.704389800001,1859.704389800001,1859.704389800001,1866.9148523000003,,,,1866.924664000002,1866.9349316000007,1866.9349316000007,1866.9804245000014,1866.9807269000012,1866.996949700002,1866.996949700002,1866.996949700002,1867.0802868000028,1867.4808114000007,,,,,,,,,,,,,,,,,,,,,,down,7.207608900000196,None,space,0.4751180999992357,None,P109,001,2025-02-13_14h53.55.332,posner_endo_new1,2024.2.4,60.00510043351715,2025-02-13 14h54.02.201302 +0000,
cube_l.png,0.1,0.31,invalid,38,38,0,down,10.231454600001598,None,space,0.18287380000037956,None,,,,,,,,,0,38,38,38,1867.4964480000017,,,,,,,,,,,,,1867.4810720000023,1867.4964480000017,1867.4964480000017,1867.4964480000017,1877.7370667000032,,,,1877.746868000002,1877.7571484,1877.7571484,1877.8027380000021,1877.8030448000027,1877.8192542000033,1877.8192542000033,1877.8192542000033,1877.9025191,1878.0036584000009,,,,,,,,,,,,,,,,,,,,,,down,10.231454600001598,None,space,0.18287380000037956,None,P109,001,2025-02-13_14h53.55.332,posner_endo_new1,2024.2.4,60.00510043351715,2025-02-13 14h54.02.201302 +0000,
cube_r.png,0.1,0.31,valid,39,39,0,down,7.844586700000946,None,space,0.3785289000006742,None,,,,,,,,,0,39,39,39,1878.0189628000007,,,,,,,,,,,,,1878.0039202000007,1878.0189628000007,1878.0189628000007,1878.0189628000007,1885.8786991000015,,,,1885.888652900001,1885.898805500001,1885.898805500001,1885.9443748000012,1885.9446849000014,1885.960839200001,1885.960839200001,1885.960839200001,1886.0441638000011,1886.3448259000033,,,,,,,,,,,,,,,,,,,,,,down,7.844586700000946,None,space,0.3785289000006742,None,P109,001,2025-02-13_14h53.55.332,posner_endo_new1,2024.2.4,60.00510043351715,2025-02-13 14h54.02.201302 +0000,
cube_l.png,0.1,0.31,invalid,40,40,0,down,6.7608843999987585,None,space,0.31514160000006086,None,,,,,,,,,0,40,40,40,1886.3603735000033,,,,,,,,,,,,,1886.3450824000029,1886.3603735000033,1886.3603735000033,1886.3603735000033,1893.1379978000004,,,,1893.1480983000001,1893.1579822000022,1893.1579822000022,1893.2037654000014,1893.2040860000016,1893.2201268999997,1893.2201268999997,1893.2201268999997,1893.303308300001,1893.5375639000013,,,,,,,,,,,,,,,,,,,,,,down,6.7608843999987585,None,space,0.31514160000006086,None,P109,001,2025-02-13_14h53.55.332,posner_endo_new1,2024.2.4,60.00510043351715,2025-02-13 14h54.02.201302 +0000,
cube_l.png,0.1,10,catch,41,41,0,down,7.720041100001254,None,None,,,,,,,,,,,0,41,41,41,1893.5530765000003,,,,,,,,,,,,,1893.5378305000013,1893.5530765000003,1893.5530765000003,1893.5530765000003,1901.2796020000023,,,,1901.2895911000014,1901.299823700003,1901.299823700003,1901.3453492000008,1901.3456659000003,1901.3618098000006,1901.3618098000006,1901.3618098000006,1901.444971500001,1904.3594526000015,,,,1903.4597089000017,1904.3755081000018,1904.3755081000018,1904.3755081000018,,,,,,,,,,,,,,,down,7.720041100001254,None,None,,,P109,001,2025-02-13_14h53.55.332,posner_endo_new1,2024.2.4,60.00510043351715,2025-02-13 14h54.02.201302 +0000,
cube_l.png,0.1,-0.31,valid,42,42,0,down,6.392554000001837,None,space,0.34914719999869703,None,,,,,,,,,0,42,42,42,1904.3755081000018,,,,,,,,,,,,,1904.3597100000006,1904.3755081000018,1904.3755081000018,1904.3755081000018,1910.7700390000027,,,,1910.7800975999999,1910.7903430000006,1910.7903430000006,1910.8356974000017,1910.8360257000022,1910.8521062,1910.8521062,1910.8521062,1910.935486100003,1911.2030015000018,,,,,,,,,,,,,,,,,,,,,,down,6.392554000001837,None,space,0.34914719999869703,None,P109,001,2025-02-13_14h53.55.332,posner_endo_new1,2024.2.4,60.00510043351715,2025-02-13 14h54.02.201302 +0000,
cube_l.png,0.1,10,catch,43,43,0,down,8.125838299998577,None,None,,,,,,,,,,,0,43,43,43,1911.2182955000026,,,,,,,,,,,,,1911.2032677000025,1911.2182955000026,1911.2182955000026,1911.2182955000026,1919.3609443000023,,,,1919.3709186000015,1919.3810199,1919.3810199,1919.426819100001,1919.4271408000022,1919.4434039000007,1919.4434039000007,1919.4434039000007,1919.5099056,1922.4409215000014,,,,1921.5245755000033,1922.4570257000014,1922.4570257000014,1922.4570257000014,,,,,,,,,,,,,,,down,8.125838299998577,None,None,,,P109,001,2025-02-13_14h53.55.332,posner_endo_new1,2024.2.4,60.00510043351715,2025-02-13 14h54.02.201302 +0000,
cube_l.png,0.1,0.31,invalid,44,44,0,down,6.1587030999980925,None,space,0.3871236000013596,None,,,,,,,,,0,44,44,44,1922.4570257000014,,,,,,,,,,,,,1922.4411661000013,1922.4570257000014,1922.4570257000014,1922.4570257000014,1928.6184207000006,,,,1928.6281135000027,1928.6384593000002,1928.6384593000002,1928.684136900003,1928.684442200003,1928.7005088000005,1928.7005088000005,1928.7005088000005,1928.783834400001,1929.1010404000008,,,,,,,,,,,,,,,,,,,,,,down,6.1587030999980925,None,space,0.3871236000013596,None,P109,001,2025-02-13_14h53.55.332,posner_endo_new1,2024.2.4,60.00510043351715,2025-02-13 14h54.02.201302 +0000,
cube_l.png,0.1,0.31,invalid,45,45,0,down,7.579002400001627,None,space,0.39920619999975315,None,,,,,,,,,0,45,45,45,1929.1168771000011,,,,,,,,,,,,,1929.1013055000003,1929.1168771000011,1929.1168771000011,1929.1168771000011,1936.7101555000008,,,,1936.7199927000001,1936.7301322000021,1936.7301322000021,1936.775806900001,1936.776111700001,1936.7923726000008,1936.7923726000008,1936.7923726000008,1936.8754883000001,1937.193148600003,,,,,,,,,,,,,,,,,,,,,,down,7.579002400001627,None,space,0.39920619999975315,None,P109,001,2025-02-13_14h53.55.332,posner_endo_new1,2024.2.4,60.00510043351715,2025-02-13 14h54.02.201302 +0000,
cube_r.png,0.1,0.31,valid,46,46,0,down,7.3521509999991395,None,space,0.8044229000006453,None,,,,,,,,,0,46,46,46,1937.2085490999998,,,,,,,,,,,,,1937.1934019,1937.2085490999998,1937.2085490999998,1937.2085490999998,1944.5687865,,,,1944.5785809000008,1944.5886831000025,1944.5886831000025,1944.6344192000033,1944.6347243000018,1944.6509706000033,1944.6509706000033,1944.6509706000033,1944.7342069000006,1945.4678948,,,,,,,,,,,,,,,,,,,,,,down,7.3521509999991395,None,space,0.8044229000006453,None,P109,001,2025-02-13_14h53.55.332,posner_endo_new1,2024.2.4,60.00510043351715,2025-02-13 14h54.02.201302 +0000,
cube_l.png,0.1,-0.31,valid,47,47,0,down,7.42890289999923,None,space,0.45983710000291467,None,,,,,,,,,0,47,47,47,1945.4833292000003,,,,,,,,,,,,,1945.4681485,1945.4833292000003,1945.4833292000003,1945.4833292000003,1952.926819700002,,,,1952.9366082000015,1952.9467492000003,1952.9467492000003,1952.992662800003,1952.9929763,1953.0091377000026,1953.0091377000026,1953.0091377000026,1953.0922477000022,1953.4763401000018,,,,,,,,,,,,,,,,,,,,,,down,7.42890289999923,None,space,0.45983710000291467,None,P109,001,2025-02-13_14h53.55.332,posner_endo_new1,2024.2.4,60.00510043351715,2025-02-13 14h54.02.201302 +0000,
cube_r.png,0.1,-0.31,invalid,48,48,0,down,8.372059100001934,None,space,0.4000705999969796,None,,,,,,,,,0,48,48,48,1953.4918750000033,,,,,,,,,,,,,1953.4766032000007,1953.4918750000033,1953.4918750000033,1953.4918750000033,1961.8678260000015,,,,1961.8775711000017,1961.8878162,1961.8878162,1961.9334141,1961.933717900003,1961.9499475000011,1961.9499475000011,1961.9499475000011,1962.0331952000015,1962.3670286000015,,,,,,,,,,,,,,,,,,,,,,down,8.372059100001934,None,space,0.4000705999969796,None,P109,001,2025-02-13_14h53.55.332,posner_endo_new1,2024.2.4,60.00510043351715,2025-02-13 14h54.02.201302 +0000,
cube_r.png,0.1,10,catch,49,49,0,down,8.888889699999709,None,None,,,,,,,,,,,0,49,49,49,1962.3828689000002,,,,,,,,,,,,,1962.3672821,1962.3828689000002,1962.3828689000002,1962.3828689000002,1971.2747684000024,,,,1971.2848811000003,1971.2950257000011,1971.2950257000011,1971.3405076000017,1971.3408174000033,1971.3570050000017,1971.3570050000017,1971.3570050000017,1971.4402615,1974.3546370000004,,,,1973.4548614000014,1974.3704836000034,1974.3704836000034,1974.3704836000034,,,,,,,,,,,,,,,down,8.888889699999709,None,None,,,P109,001,2025-02-13_14h53.55.332,posner_endo_new1,2024.2.4,60.00510043351715,2025-02-13 14h54.02.201302 +0000,
cube_l.png,0.1,-0.31,valid,50,50,0,down,5.917835700001888,None,space,0.36716510000042035,None,,,,,,,,,0,50,50,50,1974.3704836000034,,,,,,,,,,,,,1974.3548854,1974.3704836000034,1974.3704836000034,1974.3704836000034,1980.298763900002,,,,1980.3085586000016,1980.3187068000007,1980.3187068000007,1980.3644427,1980.3647472000011,1980.381110800001,1980.381110800001,1980.381110800001,1980.464354300002,1980.7651157,,,,,,,,,,,,,,,,,,,,,,down,5.917835700001888,None,space,0.36716510000042035,None,P109,001,2025-02-13_14h53.55.332,posner_endo_new1,2024.2.4,60.00510043351715,2025-02-13 14h54.02.201302 +0000,
cube_l.png,0.1,-0.31,valid,51,51,0,down,9.035263799996756,None,space,0.24921200000244426,None,,,,,,,,,0,51,51,51,1980.7807648000016,,,,,,,,,,,,,1980.7653748000012,1980.7807648000016,1980.7807648000016,1980.7807648000016,1989.822460700001,,,,1989.8322765000012,1989.8423968000025,1989.8423968000025,1989.8881591000027,1989.888461800001,1989.9046296000015,1989.9046296000015,1989.9046296000015,1989.9879223000025,1990.1556254000025,,,,,,,,,,,,,,,,,,,,,,down,9.035263799996756,None,space,0.24921200000244426,None,P109,001,2025-02-13_14h53.55.332,posner_endo_new1,2024.2.4,60.00510043351715,2025-02-13 14h54.02.201302 +0000,
cube_r.png,0.1,-0.31,invalid,52,52,0,down,8.389744500000234,None,space,0.47205209999810904,None,,,,,,,,,0,52,52,52,1990.171109400002,,,,,,,,,,,,,1990.1558860000005,1990.171109400002,1990.171109400002,1990.171109400002,1998.5637274,,,,1998.5736761000007,1998.5837713,1998.5837713,1998.6292889000033,1998.6295943000005,1998.6456552000018,1998.6456552000018,1998.6456552000018,1998.7291073000015,1999.1295788000025,,,,,,,,,,,,,,,,,,,,,,down,8.389744500000234,None,space,0.47205209999810904,None,P109,001,2025-02-13_14h53.55.332,posner_endo_new1,2024.2.4,60.00510043351715,2025-02-13 14h54.02.201302 +0000,
cube_l.png,0.1,-0.31,valid,53,53,0,down,7.326430300003267,None,space,0.7830633000012313,None,,,,,,,,,0,53,53,53,1999.1453015000006,,,,,,,,,,,,,1999.1298381000015,1999.1453015000006,1999.1453015000006,1999.1453015000006,2006.488650700001,,,,2006.4984315000002,2006.5082929000018,2006.5082929000018,2006.554497600002,2006.5548056000007,2006.5710912000031,2006.5710912000031,2006.5710912000031,2006.6542534,2007.3711411000004,,,,,,,,,,,,,,,,,,,,,,down,7.326430300003267,None,space,0.7830633000012313,None,P109,001,2025-02-13_14h53.55.332,posner_endo_new1,2024.2.4,60.00510043351715,2025-02-13 14h54.02.201302 +0000,
cube_r.png,0.1,10,catch,54,54,0,down,9.813282600000093,None,None,,,,,,,,,,,0,54,54,54,2007.3868814000016,,,,,,,,,,,,,2007.3714063000007,2007.3868814000016,2007.3868814000016,2007.3868814000016,2017.2111982000024,,,,2017.2209920000023,2017.2312287000022,2017.2312287000022,2017.2768641000002,2017.277172500002,2017.2934396000019,2017.2934396000019,2017.2934396000019,2017.3766013000022,2020.2910507000015,,,,2019.3913178000003,2020.3069454000033,2020.3069454000033,2020.3069454000033,,,,,,,,,,,,,,,down,9.813282600000093,None,None,,,P109,001,2025-02-13_14h53.55.332,posner_endo_new1,2024.2.4,60.00510043351715,2025-02-13 14h54.02.201302 +0000,
cube_l.png,0.1,0.31,invalid,55,55,0,down,5.797183999999106,None,space,0.3710494999977527,None,,,,,,,,,0,55,55,55,2020.3069454000033,,,,,,,,,,,,,2020.2912868000021,2020.3069454000033,2020.3069454000033,2020.3069454000033,2026.1187303000006,,,,2026.1285774000025,2026.138788700002,2026.138788700002,2026.1843506000005,2026.1846529000031,2026.2009969000028,2026.2009969000028,2026.2009969000028,2026.2842163000023,2026.584910200003,,,,,,,,,,,,,,,,,,,,,,down,5.797183999999106,None,space,0.3710494999977527,None,P109,001,2025-02-13_14h53.55.332,posner_endo_new1,2024.2.4,60.00510043351715,2025-02-13 14h54.02.201302 +0000,
cube_l.png,0.1,-0.31,valid,56,56,0,down,9.351738400000613,None,space,0.3597577000000456,None,,,,,,,,,0,56,56,56,2026.6005706000033,,,,,,,,,,,,,2026.5851771000016,2026.6005706000033,2026.6005706000033,2026.6005706000033,2035.9583869000016,,,,2035.9681173000026,2035.9777571000013,2035.9777571000013,2036.0244149000027,2036.0246372000001,2036.040892000001,2036.040892000001,2036.040892000001,2036.1073548000022,2036.4079982000003,,,,,,,,,,,,,,,,,,,,,,down,9.351738400000613,None,space,0.3597577000000456,None,P109,001,2025-02-13_14h53.55.332,posner_endo_new1,2024.2.4,60.00510043351715,2025-02-13 14h54.02.201302 +0000,
cube_r.png,0.1,0.31,valid,57,57,0,down,8.5045183000002,None,space,0.6809395999989647,None,,,,,,,,,0,57,57,57,2036.4237925000016,,,,,,,,,,,,,2036.4081729999998,2036.4237925000016,2036.4237925000016,2036.4237925000016,2044.932851900001,,,,2044.942425000001,2044.952060300002,2044.952060300002,2044.9984261999998,2044.9986479,2045.0148862000024,2045.0148862000024,2045.0148862000024,2045.0984143000023,2045.698442300003,,,,,,,,,,,,,,,,,,,,,,down,8.5045183000002,None,space,0.6809395999989647,None,P109,001,2025-02-13_14h53.55.332,posner_endo_new1,2024.2.4,60.00510043351715,2025-02-13 14h54.02.201302 +0000,
cube_r.png,0.1,-0.31,invalid,58,58,0,down,9.645837000000029,None,space,0.24051070000132313,None,,,,,,,,,0,58,58,58,2045.7143488000002,,,,,,,,,,,,,2045.6986264000006,2045.7143488000002,2045.7143488000002,2045.7143488000002,2055.372010500003,,,,2055.3780023,2055.3897593,2055.3897593,2055.4377934000004,2055.4380241,2055.4544964000015,2055.4544964000015,2055.4544964000015,2055.521034900001,2055.7048071000027,,,,,,,,,,,,,,,,,,,,,,down,9.645837000000029,None,space,0.24051070000132313,None,P109,001,2025-02-13_14h53.55.332,posner_endo_new1,2024.2.4,60.00510043351715,2025-02-13 14h54.02.201302 +0000,
cube_l.png,0.1,0.31,invalid,59,59,0,down,9.087367299998732,None,space,0.2699849999989965,None,,,,,,,,,0,59,59,59,2055.7207210000015,,,,,,,,,,,,,2055.7049811000034,2055.7207210000015,2055.7207210000015,2055.7207210000015,2064.8127134000024,,,,2064.824313600002,2064.834616400003,2064.834616400003,2064.8783524000028,2064.878694700001,2064.8948259000026,2064.8948259000026,2064.8948259000026,2064.9780253999998,2065.1788025000023,,,,,,,,,,,,,,,,,,,,,,down,9.087367299998732,None,space,0.2699849999989965,None,P109,001,2025-02-13_14h53.55.332,posner_endo_new1,2024.2.4,60.00510043351715,2025-02-13 14h54.02.201302 +0000,
