cue_img,cue_soa,target_y,trial,thisN,thisTrialN,thisRepN,key_control2.keys,key_control2.rt,key_control2.duration,key_resp.keys,key_resp.rt,key_resp.duration,practice.thisRepN,practice.thisTrialN,practice.thisN,practice.thisIndex,block1.thisRepN,block1.thisTrialN,block1.thisN,block1.thisIndex,block2.thisRepN,block2.thisTrialN,block2.thisN,block2.thisIndex,thisRow.t,notes,instructions.started,instructions_txt.started,key_control.started,instructions.stopped,key_control.keys,key_control.rt,key_control.duration,ready.started,ready_txt.started,ready_txt.stopped,ready.stopped,fix.started,fixation.started,key_control2.started,fixation_cross.started,fix.stopped,practice.key_control2.keys,practice.key_control2.rt,practice.key_control2.duration,cue.started,cube.started,fixation_cross_cue.started,cue.stopped,target.started,fixation_target.started,fixation_cross_target.started,key_resp.started,star.started,target.stopped,practice.key_resp.keys,practice.key_resp.rt,practice.key_resp.duration,star.stopped,fixation_target.stopped,fixation_cross_target.stopped,key_resp.stopped,block1.key_control2.keys,block1.key_control2.rt,block1.key_control2.duration,block1.key_resp.keys,block1.key_resp.rt,block1.key_resp.duration,break_2.started,text.started,key_control3.started,text.stopped,break_2.stopped,key_control3.keys,key_control3.rt,key_control3.duration,block2.key_control2.keys,block2.key_control2.rt,block2.key_control2.duration,block2.key_resp.keys,block2.key_resp.rt,block2.key_resp.duration,participant,session,date,expName,psychopyVersion,frameRate,expStart,
,,,,,,,,,,,,,,,,,,,,,,,,,,,0.007481599999991317,0.02147250000000156,0.02147250000000156,322.3700606,up,322.33661000000006,None,,,,,,,,,,,,,,,,,,,,,,,,,,,,,,,,,,,,,,,,,,,,,,,,,,P110,001,2025-02-14_08h55.25.538,posner_endo_new1,2024.2.4,60.09456480717889,2025-02-14 08h55.33.652453 +0000,
,,,,,,,,,,,,,,,,,,,,,,,,,,,,,,,,,,322.370151,322.38056140000003,325.37716370000004,325.3560924,,,,,,,,,,,,,,,,,,,,,,,,,,,,,,,,,,,,,,,,,,,,,,P110,001,2025-02-14_08h55.25.538,posner_endo_new1,2024.2.4,60.09456480717889,2025-02-14 08h55.33.652453 +0000,
cube_l.png,0.1,-0.31,valid,0,0,0,up,12.300545199999988,None,space,0.5052458000000115,None,0,0,0,0,,,,,,,,,325.37716370000004,,,,,,,,,,,,,325.3655408,325.37716370000004,325.37716370000004,325.37716370000004,337.6939554,up,12.300545199999988,None,337.7072066,337.7172674,337.7172674,337.75964930000004,337.7598813,337.7764054,337.7764054,337.7764054,337.8597415,338.2931833,space,0.5052458000000115,None,,,,,,,,,,,,,,,,,,,,,,,,,P110,001,2025-02-14_08h55.25.538,posner_endo_new1,2024.2.4,60.09456480717889,2025-02-14 08h55.33.652453 +0000,
cube_l.png,0.1,0.31,invalid,1,1,0,up,4.016533100000004,None,space,0.5030489000000102,None,0,1,1,1,,,,,,,,,338.3090982,,,,,,,,,,,,,338.2933458,338.3090982,338.3090982,338.3090982,342.33914250000004,up,4.016533100000004,None,342.3452729,342.3569127,342.3569127,342.40510290000003,342.4053396,342.4216035,342.4216035,342.4216035,342.5048054,342.9387413,space,0.5030489000000102,None,,,,,,,,,,,,,,,,,,,,,,,,,P110,001,2025-02-14_08h55.25.538,posner_endo_new1,2024.2.4,60.09456480717889,2025-02-14 08h55.33.652453 +0000,
cube_r.png,0.1,-0.31,invalid,2,2,0,up,3.1557697000000076,None,space,0.651625700000011,None,0,2,2,2,,,,,,,,,342.9546891,,,,,,,,,,,,,342.9389167,342.9546891,342.9546891,342.9546891,346.1185694,up,3.1557697000000076,None,346.12636280000004,346.1374258,346.1374258,346.184702,346.1849274,346.2010963,346.2010963,346.2010963,346.2678048,346.8678211,space,0.651625700000011,None,,,,,,,,,,,,,,,,,,,,,,,,,P110,001,2025-02-14_08h55.25.538,posner_endo_new1,2024.2.4,60.09456480717889,2025-02-14 08h55.33.652453 +0000,
cube_r.png,0.1,10,catch,3,3,0,up,3.2185111999999663,None,None,,,0,3,3,3,,,,,,,,,346.88370860000003,,,,,,,,,,,,,346.8679917,346.88370860000003,346.88370860000003,346.88370860000003,350.1144042,up,3.2185111999999663,None,350.1203665,350.13185830000003,350.13185830000003,350.1803767,350.18060180000003,350.1969936,350.1969936,350.1969936,350.2636057,353.1943445,None,,,352.27864270000003,353.2106106,353.2106106,353.2106106,,,,,,,,,,,,,,,,,,,,,P110,001,2025-02-14_08h55.25.538,posner_endo_new1,2024.2.4,60.09456480717889,2025-02-14 08h55.33.652453 +0000,
cube_l.png,0.1,-0.31,valid,4,4,0,up,1.3078424000000268,None,space,0.4728044999999952,None,0,4,4,4,,,,,,,,,353.2106106,,,,,,,,,,,,,353.194573,353.2106106,353.2106106,353.2106106,354.5269712,up,1.3078424000000268,None,354.53686300000004,354.5472777,354.5472777,354.59266660000003,354.5929962,354.6092342,354.6092342,354.6092342,354.692451,355.0929724,space,0.4728044999999952,None,,,,,,,,,,,,,,,,,,,,,,,,,P110,001,2025-02-14_08h55.25.538,posner_endo_new1,2024.2.4,60.09456480717889,2025-02-14 08h55.33.652453 +0000,
cube_l.png,0.1,0.31,invalid,5,5,0,up,3.521380399999998,None,space,0.8073277000000303,None,0,5,5,5,,,,,,,,,355.10875,,,,,,,,,,,,,355.0932178,355.10875,355.10875,355.10875,358.6391686,up,3.521380399999998,None,358.6455535,358.6571813,358.6571813,358.7049265,358.7051515,358.7216411,358.7216411,358.7216411,358.7882392,359.5384027,space,0.8073277000000303,None,,,,,,,,,,,,,,,,,,,,,,,,,P110,001,2025-02-14_08h55.25.538,posner_endo_new1,2024.2.4,60.09456480717889,2025-02-14 08h55.33.652453 +0000,
cube_r.png,0.1,-0.31,invalid,6,6,0,up,3.9561383000000205,None,space,0.5993050000000153,None,0,6,6,6,,,,,,,,,359.5541812,,,,,,,,,,,,,359.53858790000004,359.5541812,359.5541812,359.5541812,363.5173206,up,3.9561383000000205,None,363.5236949,363.5355339,363.5355339,363.58347710000004,363.5837028,363.6000442,363.6000442,363.6000442,363.66648430000004,364.2004177,space,0.5993050000000153,None,,,,,,,,,,,,,,,,,,,,,,,,,P110,001,2025-02-14_08h55.25.538,posner_endo_new1,2024.2.4,60.09456480717889,2025-02-14 08h55.33.652453 +0000,
cube_r.png,0.1,0.31,valid,7,7,0,up,5.166430199999979,None,space,0.6977046999999743,None,0,7,7,7,,,,,,,,,364.21610480000004,,,,,,,,,,,,,364.20059860000003,364.21610480000004,364.21610480000004,364.21610480000004,369.3948647,up,5.166430199999979,None,369.403815,369.4142096,369.4142096,369.46070660000004,369.4609965,369.4771389,369.4771389,369.4771389,369.5603671,370.1777313,space,0.6977046999999743,None,,,,,,,,,,,,,,,,,,,,,,,,,P110,001,2025-02-14_08h55.25.538,posner_endo_new1,2024.2.4,60.09456480717889,2025-02-14 08h55.33.652453 +0000,
cube_l.png,0.1,-0.31,valid,8,8,0,up,3.477439699999991,None,space,0.31791110000000344,None,0,8,8,8,,,,,,,,,370.1931094,,,,,,,,,,,,,370.17795720000004,370.1931094,370.1931094,370.1931094,373.6739308,up,3.477439699999991,None,373.6830312,373.6934534,373.6934534,373.7398248,373.7401198,373.7565589,373.7565589,373.7565589,373.8394219,374.0901251,space,0.31791110000000344,None,,,,,,,,,,,,,,,,,,,,,,,,,P110,001,2025-02-14_08h55.25.538,posner_endo_new1,2024.2.4,60.09456480717889,2025-02-14 08h55.33.652453 +0000,
cube_r.png,0.1,-0.31,invalid,9,9,0,up,3.2606539000000225,None,space,0.47931620000002795,None,0,9,9,9,,,,,,,,,374.1058929,,,,,,,,,,,,,374.0903601,374.1058929,374.1058929,374.1058929,377.3703332,up,3.2606539000000225,None,377.37941870000003,377.3898693,377.3898693,377.4360706,377.4363733,377.4527208,377.4527208,377.4527208,377.5353569,377.9366289,space,0.47931620000002795,None,,,,,,,,,,,,,,,,,,,,,,,,,P110,001,2025-02-14_08h55.25.538,posner_endo_new1,2024.2.4,60.09456480717889,2025-02-14 08h55.33.652453 +0000,
cube_r.png,0.1,0.31,valid,10,10,0,up,1.8460618000000295,None,space,0.6294938999999999,None,0,10,10,10,,,,,,,,,377.9516521,,,,,,,,,,,,,377.9368619,377.9516521,377.9516521,377.9516521,379.8009994,up,1.8460618000000295,None,379.8098575,379.8200006,379.8200006,379.86680970000003,379.8670996,379.88314460000004,379.88314460000004,379.88314460000004,379.9660467,380.517072,space,0.6294938999999999,None,,,,,,,,,,,,,,,,,,,,,,,,,P110,001,2025-02-14_08h55.25.538,posner_endo_new1,2024.2.4,60.09456480717889,2025-02-14 08h55.33.652453 +0000,
,,,,,,,,,,,,,,,,,,,,,,,,,,,,,,,,,,380.517215,380.53253390000003,383.5591103,383.51383680000004,,,,,,,,,,,,,,,,,,,,,,,,,,,,,,,,,,,,,,,,,,,,,,P110,001,2025-02-14_08h55.25.538,posner_endo_new1,2024.2.4,60.09456480717889,2025-02-14 08h55.33.652453 +0000,
cube_l.png,0.1,10,catch,0,0,0,up,7.822746999999993,None,None,,,,,,,0,0,0,0,,,,,383.5591103,,,,,,,,,,,,,383.5485292,383.5591103,383.5591103,383.5591103,391.3890464,,,,391.3952636,391.4068932,391.4068932,391.4550752,391.4553168,391.4713146,391.4713146,391.4713146,391.55469980000004,394.4688218,,,,393.5692755,394.4850062,394.4850062,394.4850062,up,7.822746999999993,None,None,,,,,,,,,,,,,,,,,P110,001,2025-02-14_08h55.25.538,posner_endo_new1,2024.2.4,60.09456480717889,2025-02-14 08h55.33.652453 +0000,
cube_l.png,0.1,10,catch,1,1,0,up,0.6646321000000057,None,None,,,,,,,0,1,1,1,,,,,394.4850062,,,,,,,,,,,,,394.4689948,394.4850062,394.4850062,394.4850062,395.1519756,,,,395.1581496,395.1698101,395.1698101,395.217739,395.2179769,395.234297,395.234297,395.234297,395.3175518,398.2320305,,,,397.3321934,398.2479144,398.2479144,398.2479144,up,0.6646321000000057,None,None,,,,,,,,,,,,,,,,,P110,001,2025-02-14_08h55.25.538,posner_endo_new1,2024.2.4,60.09456480717889,2025-02-14 08h55.33.652453 +0000,
cube_l.png,0.1,0.31,invalid,2,2,0,up,0.3256915000000049,None,space,0.4187800999999922,None,,,,,0,2,2,2,,,,,398.2479144,,,,,,,,,,,,,398.2322052,398.2479144,398.2479144,398.2479144,398.5816297,,,,398.5878201,398.5993416,398.5993416,398.64744790000003,398.6476841,398.6641177,398.6641177,398.6641177,398.73070290000004,399.0977318,,,,,,,,up,0.3256915000000049,None,space,0.4187800999999922,None,,,,,,,,,,,,,,,P110,001,2025-02-14_08h55.25.538,posner_endo_new1,2024.2.4,60.09456480717889,2025-02-14 08h55.33.652453 +0000,
cube_l.png,0.1,0.31,invalid,3,3,0,up,2.524314199999992,None,space,0.4207934999999452,None,,,,,0,3,3,3,,,,,399.113696,,,,,,,,,,,,,399.09791870000004,399.113696,399.113696,399.113696,401.6451534,,,,401.65133810000003,401.6628837,401.6628837,401.7111312,401.7113683,401.72753900000004,401.72753900000004,401.72753900000004,401.8107174,402.1612192,,,,,,,,up,2.524314199999992,None,space,0.4207934999999452,None,,,,,,,,,,,,,,,P110,001,2025-02-14_08h55.25.538,posner_endo_new1,2024.2.4,60.09456480717889,2025-02-14 08h55.33.652453 +0000,
cube_l.png,0.1,-0.31,valid,4,4,0,up,4.261215499999992,None,space,0.3703901000000087,None,,,,,0,4,4,4,,,,,402.177256,,,,,,,,,,,,,402.1614004,402.177256,402.177256,402.177256,406.44031490000003,,,,406.4465846,406.4583808,406.4583808,406.50624500000004,406.50648060000003,406.5226746,406.5226746,406.5226746,406.6057823,406.906476,,,,,,,,up,4.261215499999992,None,space,0.3703901000000087,None,,,,,,,,,,,,,,,P110,001,2025-02-14_08h55.25.538,posner_endo_new1,2024.2.4,60.09456480717889,2025-02-14 08h55.33.652453 +0000,
cube_r.png,0.1,-0.31,invalid,5,5,0,up,2.9244731,None,space,0.4773023000000194,None,,,,,0,5,5,5,,,,,406.922344,,,,,,,,,,,,,406.9066558,406.922344,406.922344,406.922344,409.8537147,,,,409.859905,409.87181430000004,409.87181430000004,409.9193521,409.919591,409.935922,409.935922,409.935922,410.0193271,410.4195505,,,,,,,,up,2.9244731,None,space,0.4773023000000194,None,,,,,,,,,,,,,,,P110,001,2025-02-14_08h55.25.538,posner_endo_new1,2024.2.4,60.09456480717889,2025-02-14 08h55.33.652453 +0000,
cube_r.png,0.1,0.31,valid,6,6,0,up,3.5944959999999924,None,space,0.3831413000000339,None,,,,,0,6,6,6,,,,,410.4357024,,,,,,,,,,,,,410.4197348,410.4357024,410.4357024,410.4357024,414.0325423,,,,414.038692,414.0504062,414.0504062,414.0980517,414.098294,414.11495310000004,414.11495310000004,414.11495310000004,414.19805790000004,414.4990172,,,,,,,,up,3.5944959999999924,None,space,0.3831413000000339,None,,,,,,,,,,,,,,,P110,001,2025-02-14_08h55.25.538,posner_endo_new1,2024.2.4,60.09456480717889,2025-02-14 08h55.33.652453 +0000,
cube_r.png,0.1,-0.31,invalid,7,7,0,up,4.740079299999991,None,space,0.3961082999999803,None,,,,,0,7,7,7,,,,,414.51442810000003,,,,,,,,,,,,,414.4992019,414.51442810000003,414.51442810000003,414.51442810000003,419.26077100000003,,,,419.2669722,419.2789349,419.2789349,419.3260756,419.3263135,419.3429178,419.3429178,419.3429178,419.4260823,419.7432782,,,,,,,,up,4.740079299999991,None,space,0.3961082999999803,None,,,,,,,,,,,,,,,P110,001,2025-02-14_08h55.25.538,posner_endo_new1,2024.2.4,60.09456480717889,2025-02-14 08h55.33.652453 +0000,
cube_l.png,0.1,-0.31,valid,8,8,0,up,3.695182999999986,None,space,0.38423219999998537,None,,,,,0,8,8,8,,,,,419.759179,,,,,,,,,,,,,419.7434713,419.759179,419.759179,419.759179,423.4561963,,,,423.46237310000004,423.47400220000003,423.47400220000003,423.5220246,423.5222597,423.5385951,423.5385951,423.5385951,423.6219446,423.93907870000004,,,,,,,,up,3.695182999999986,None,space,0.38423219999998537,None,,,,,,,,,,,,,,,P110,001,2025-02-14_08h55.25.538,posner_endo_new1,2024.2.4,60.09456480717889,2025-02-14 08h55.33.652453 +0000,
cube_r.png,0.1,-0.31,invalid,9,9,0,up,3.4986519999999928,None,space,0.47124739999998155,None,,,,,0,9,9,9,,,,,423.9549208,,,,,,,,,,,,,423.93926,423.9549208,423.9549208,423.9549208,427.4687918,,,,427.47487540000003,427.486458,427.486458,427.5345749,427.5348099,427.551087,427.551087,427.551087,427.6342733,428.0348947,,,,,,,,up,3.4986519999999928,None,space,0.47124739999998155,None,,,,,,,,,,,,,,,P110,001,2025-02-14_08h55.25.538,posner_endo_new1,2024.2.4,60.09456480717889,2025-02-14 08h55.33.652453 +0000,
cube_l.png,0.1,0.31,invalid,10,10,0,up,2.5236728000000426,None,space,0.5488075999999751,None,,,,,0,10,10,10,,,,,428.050594,,,,,,,,,,,,,428.0350757,428.050594,428.050594,428.050594,430.5822552,,,,430.58846570000003,430.5999834,430.5999834,430.6481264,430.6483649,430.66457840000004,430.66457840000004,430.66457840000004,430.74782700000003,431.2151528,,,,,,,,up,2.5236728000000426,None,space,0.5488075999999751,None,,,,,,,,,,,,,,,P110,001,2025-02-14_08h55.25.538,posner_endo_new1,2024.2.4,60.09456480717889,2025-02-14 08h55.33.652453 +0000,
cube_r.png,0.1,-0.31,invalid,11,11,0,up,2.7595479999999952,None,space,0.43369500000000016,None,,,,,0,11,11,11,,,,,431.2301063,,,,,,,,,,,,,431.2153397,431.2301063,431.2301063,431.2301063,433.9953244,,,,434.0014752,434.0132208,434.0132208,434.0613283,434.0615642,434.0779289,434.0779289,434.0779289,434.14448550000003,434.5281557,,,,,,,,up,2.7595479999999952,None,space,0.43369500000000016,None,,,,,,,,,,,,,,,P110,001,2025-02-14_08h55.25.538,posner_endo_new1,2024.2.4,60.09456480717889,2025-02-14 08h55.33.652453 +0000,
cube_r.png,0.1,0.31,valid,12,12,0,up,3.158438399999966,None,space,0.5814200000000369,None,,,,,0,12,12,12,,,,,434.5439937,,,,,,,,,,,,,434.5283427,434.5439937,434.5439937,434.5439937,437.7084231,,,,437.7145783,437.7262883,437.7262883,437.77423070000003,437.7744693,437.79066770000003,437.79066770000003,437.79066770000003,437.8738195,438.37419700000004,,,,,,,,up,3.158438399999966,None,space,0.5814200000000369,None,,,,,,,,,,,,,,,P110,001,2025-02-14_08h55.25.538,posner_endo_new1,2024.2.4,60.09456480717889,2025-02-14 08h55.33.652453 +0000,
cube_l.png,0.1,10,catch,13,13,0,up,2.8399630000000116,None,None,,,,,,,0,13,13,13,,,,,438.39025730000003,,,,,,,,,,,,,438.3743857,438.39025730000003,438.39025730000003,438.39025730000003,441.2375942,,,,441.24380310000004,441.2553784,441.2553784,441.30395680000004,441.30419240000003,441.3204329,441.3204329,441.3204329,441.3872119,444.3176809,,,,443.40164660000005,444.3338397,444.3338397,444.3338397,up,2.8399630000000116,None,None,,,,,,,,,,,,,,,,,P110,001,2025-02-14_08h55.25.538,posner_endo_new1,2024.2.4,60.09456480717889,2025-02-14 08h55.33.652453 +0000,
cube_r.png,0.1,-0.31,invalid,14,14,0,up,0.2081218999999237,None,space,0.437520999999947,None,,,,,0,14,14,14,,,,,444.3338397,,,,,,,,,,,,,444.31785090000005,444.3338397,444.3338397,444.3338397,444.5512619,,,,444.557403,444.56879030000005,444.56879030000005,444.61714900000004,444.6173897,444.6336202,444.6336202,444.6336202,444.7166465,445.0838444,,,,,,,,up,0.2081218999999237,None,space,0.437520999999947,None,,,,,,,,,,,,,,,P110,001,2025-02-14_08h55.25.538,posner_endo_new1,2024.2.4,60.09456480717889,2025-02-14 08h55.33.652453 +0000,
cube_l.png,0.1,-0.31,valid,15,15,0,up,3.090527399999928,None,space,0.5506961000000956,None,,,,,0,15,15,15,,,,,445.09974120000004,,,,,,,,,,,,,445.0840276,445.09974120000004,445.09974120000004,445.09974120000004,448.1976036,,,,448.20368370000006,448.2156404,448.2156404,448.26337880000005,448.2636168,448.28013599999997,448.28013599999997,448.28013599999997,448.36310530000003,448.84688470000003,,,,,,,,up,3.090527399999928,None,space,0.5506961000000956,None,,,,,,,,,,,,,,,P110,001,2025-02-14_08h55.25.538,posner_endo_new1,2024.2.4,60.09456480717889,2025-02-14 08h55.33.652453 +0000,
cube_r.png,0.1,10,catch,16,16,0,up,3.2310493999999608,None,None,,,,,,,0,16,16,16,,,,,448.8626342,,,,,,,,,,,,,448.8470662,448.8626342,448.8626342,448.8626342,452.11019210000006,,,,452.1163275,452.1277136,452.1277136,452.1760207,452.1762616,452.19257130000005,452.19257130000005,452.19257130000005,452.27580050000006,455.19001349999996,,,,454.29052980000006,455.2061136,455.2061136,455.2061136,up,3.2310493999999608,None,None,,,,,,,,,,,,,,,,,P110,001,2025-02-14_08h55.25.538,posner_endo_new1,2024.2.4,60.09456480717889,2025-02-14 08h55.33.652453 +0000,
cube_r.png,0.1,10,catch,17,17,0,up,1.079571699999974,None,None,,,,,,,0,17,17,17,,,,,455.2061136,,,,,,,,,,,,,455.1901811,455.2061136,455.2061136,455.2061136,456.28925879999997,,,,456.29543090000004,456.3069938,456.3069938,456.3551787,456.35541209999997,456.37184090000005,456.37184090000005,456.37184090000005,456.4547732,459.36909620000006,,,,458.46946320000006,459.38523510000005,459.38523510000005,459.38523510000005,up,1.079571699999974,None,None,,,,,,,,,,,,,,,,,P110,001,2025-02-14_08h55.25.538,posner_endo_new1,2024.2.4,60.09456480717889,2025-02-14 08h55.33.652453 +0000,
cube_l.png,0.1,0.31,invalid,18,18,0,up,3.517093599999953,None,space,0.4716991999999891,None,,,,,0,18,18,18,,,,,459.38523510000005,,,,,,,,,,,,,459.36926719999997,459.38523510000005,459.38523510000005,459.38523510000005,462.9160386,,,,462.92220050000003,462.93394820000003,462.93394820000003,462.98167880000005,462.98191440000005,462.9984091,462.9984091,462.9984091,463.0815182,463.4817623,,,,,,,,up,3.517093599999953,None,space,0.4716991999999891,None,,,,,,,,,,,,,,,P110,001,2025-02-14_08h55.25.538,posner_endo_new1,2024.2.4,60.09456480717889,2025-02-14 08h55.33.652453 +0000,
cube_l.png,0.1,10,catch,19,19,0,up,4.844701700000087,None,None,,,,,,,0,19,19,19,,,,,463.49772800000005,,,,,,,,,,,,,463.48195050000004,463.49772800000005,463.49772800000005,463.49772800000005,468.34349729999997,,,,468.34964320000006,468.3612564,468.3612564,468.40931839999996,468.4095582,468.425828,468.425828,468.425828,468.50928250000004,471.4234067,,,,470.52373439999997,471.43957509999996,471.43957509999996,471.43957509999996,up,4.844701700000087,None,None,,,,,,,,,,,,,,,,,P110,001,2025-02-14_08h55.25.538,posner_endo_new1,2024.2.4,60.09456480717889,2025-02-14 08h55.33.652453 +0000,
cube_l.png,0.1,0.31,invalid,20,20,0,up,1.5899864000000434,None,space,0.5692387999999937,None,,,,,0,20,20,20,,,,,471.43957509999996,,,,,,,,,,,,,471.423577,471.43957509999996,471.43957509999996,471.43957509999996,473.03869240000006,,,,473.04474830000004,473.05652069999996,473.05652069999996,473.1046467,473.10488469999996,473.12116460000004,473.12116460000004,473.12116460000004,473.1877664,473.7048516,,,,,,,,up,1.5899864000000434,None,space,0.5692387999999937,None,,,,,,,,,,,,,,,P110,001,2025-02-14_08h55.25.538,posner_endo_new1,2024.2.4,60.09456480717889,2025-02-14 08h55.33.652453 +0000,
cube_l.png,0.1,-0.31,valid,21,21,0,up,4.805492500000014,None,space,0.42496989999995094,None,,,,,0,21,21,21,,,,,473.7204593,,,,,,,,,,,,,473.7050425,473.7204593,473.7204593,473.7204593,478.5330646,,,,478.5391624,478.55074820000004,478.55074820000004,478.5989554,478.59919690000004,478.61545580000006,478.61545580000006,478.61545580000006,478.68202329999997,479.0491495,,,,,,,,up,4.805492500000014,None,space,0.42496989999995094,None,,,,,,,,,,,,,,,P110,001,2025-02-14_08h55.25.538,posner_endo_new1,2024.2.4,60.09456480717889,2025-02-14 08h55.33.652453 +0000,
cube_r.png,0.1,0.31,valid,22,22,0,up,3.268288499999926,None,space,0.5044273000000885,None,,,,,0,22,22,22,,,,,479.065101,,,,,,,,,,,,,479.0493322,479.065101,479.065101,479.065101,482.3458353,,,,482.3519711,482.3636994,482.3636994,482.4119054,482.4121411,482.42801499999996,482.42801499999996,482.42801499999996,482.49489570000003,482.9452039,,,,,,,,up,3.268288499999926,None,space,0.5044273000000885,None,,,,,,,,,,,,,,,P110,001,2025-02-14_08h55.25.538,posner_endo_new1,2024.2.4,60.09456480717889,2025-02-14 08h55.33.652453 +0000,
cube_r.png,0.1,-0.31,invalid,23,23,0,up,3.613176400000043,None,space,0.4528541000000814,None,,,,,0,23,23,23,,,,,482.96101080000005,,,,,,,,,,,,,482.94539580000003,482.96101080000005,482.96101080000005,482.96101080000005,486.57509089999996,,,,486.58124080000005,486.59293750000006,486.59293750000006,486.64074070000004,486.6409761,486.6573026,486.6573026,486.6573026,486.7402522,487.12442680000004,,,,,,,,up,3.613176400000043,None,space,0.4528541000000814,None,,,,,,,,,,,,,,,P110,001,2025-02-14_08h55.25.538,posner_endo_new1,2024.2.4,60.09456480717889,2025-02-14 08h55.33.652453 +0000,
cube_r.png,0.1,0.31,valid,24,24,0,up,4.257167799999934,None,space,0.5172034999999369,None,,,,,0,24,24,24,,,,,487.14029619999997,,,,,,,,,,,,,487.1246079,487.14029619999997,487.14029619999997,487.14029619999997,491.40333050000004,,,,491.40953360000003,491.4211937,491.4211937,491.46916870000007,491.46940860000007,491.4856407,491.4856407,491.4856407,491.56881269999997,492.019224,,,,,,,,up,4.257167799999934,None,space,0.5172034999999369,None,,,,,,,,,,,,,,,P110,001,2025-02-14_08h55.25.538,posner_endo_new1,2024.2.4,60.09456480717889,2025-02-14 08h55.33.652453 +0000,
cube_r.png,0.1,-0.31,invalid,25,25,0,up,3.107328799999891,None,space,0.4264083999999002,None,,,,,0,25,25,25,,,,,492.0350234,,,,,,,,,,,,,492.01940790000003,492.0350234,492.0350234,492.0350234,495.14930960000004,,,,495.15549799999997,495.1671073,495.1671073,495.21526430000006,495.21550320000006,495.23192489999997,495.23192489999997,495.23192489999997,495.31491460000007,495.66541659999996,,,,,,,,up,3.107328799999891,None,space,0.4264083999999002,None,,,,,,,,,,,,,,,P110,001,2025-02-14_08h55.25.538,posner_endo_new1,2024.2.4,60.09456480717889,2025-02-14 08h55.33.652453 +0000,
cube_l.png,0.1,-0.31,valid,26,26,0,up,3.356868200000008,None,space,0.4338058999999248,None,,,,,0,26,26,26,,,,,495.6813118,,,,,,,,,,,,,495.6656051,495.6813118,495.6813118,495.6813118,499.04504510000004,,,,499.0511781,499.06263720000004,499.06263720000004,499.11123180000004,499.11146729999996,499.12782830000003,499.12782830000003,499.12782830000003,499.19417350000003,499.57825120000007,,,,,,,,up,3.356868200000008,None,space,0.4338058999999248,None,,,,,,,,,,,,,,,P110,001,2025-02-14_08h55.25.538,posner_endo_new1,2024.2.4,60.09456480717889,2025-02-14 08h55.33.652453 +0000,
cube_r.png,0.1,0.31,valid,27,27,0,up,3.7076977000000397,None,space,0.4940917999999783,None,,,,,0,27,27,27,,,,,499.5942006,,,,,,,,,,,,,499.5784321,499.5942006,499.5942006,499.5942006,503.3075619,,,,503.3136862,503.32513389999997,503.32513389999997,503.3736686,503.37390500000004,503.39008409999997,503.39008409999997,503.39008409999997,503.47337389999996,503.89038289999996,,,,,,,,up,3.7076977000000397,None,space,0.4940917999999783,None,,,,,,,,,,,,,,,P110,001,2025-02-14_08h55.25.538,posner_endo_new1,2024.2.4,60.09456480717889,2025-02-14 08h55.33.652453 +0000,
cube_r.png,0.1,10,catch,28,28,0,up,2.6840495999999803,None,None,,,,,,,0,28,28,28,,,,,503.9063288,,,,,,,,,,,,,503.89057190000005,503.9063288,503.9063288,503.9063288,506.6044398,,,,506.61731010000005,506.62745870000003,506.62745870000003,506.6698754,506.6702838,506.6863105,506.6863105,506.6863105,506.76954750000004,509.6840519,,,,508.7841475,509.6998866,509.6998866,509.6998866,up,2.6840495999999803,None,None,,,,,,,,,,,,,,,,,P110,001,2025-02-14_08h55.25.538,posner_endo_new1,2024.2.4,60.09456480717889,2025-02-14 08h55.33.652453 +0000,
cube_r.png,0.1,0.31,valid,29,29,0,up,2.3215602000000217,None,space,0.4622659999999996,None,,,,,0,29,29,29,,,,,509.6998866,,,,,,,,,,,,,509.6843688,509.6998866,509.6998866,509.6998866,512.032252,,,,512.0451237,512.055289,512.055289,512.0976228000001,512.0980279,512.1140616,512.1140616,512.1140616,512.1973969000001,512.5818446000001,,,,,,,,up,2.3215602000000217,None,space,0.4622659999999996,None,,,,,,,,,,,,,,,P110,001,2025-02-14_08h55.25.538,posner_endo_new1,2024.2.4,60.09456480717889,2025-02-14 08h55.33.652453 +0000,
cube_r.png,0.1,0.31,valid,30,30,0,up,3.153307199999972,None,space,0.3910306999999875,None,,,,,0,30,30,30,,,,,512.5969792,,,,,,,,,,,,,512.5821847,512.5969792,512.5969792,512.5969792,515.7617734,,,,515.7706944,515.7809885,515.7809885,515.8278198,515.8281203,515.8441588000001,515.8441588000001,515.8441588000001,515.9271621,516.2445148,,,,,,,,up,3.153307199999972,None,space,0.3910306999999875,None,,,,,,,,,,,,,,,P110,001,2025-02-14_08h55.25.538,posner_endo_new1,2024.2.4,60.09456480717889,2025-02-14 08h55.33.652453 +0000,
cube_l.png,0.1,-0.31,valid,31,31,0,up,4.417983199999981,None,space,0.46872129999997014,None,,,,,0,31,31,31,,,,,516.2600546,,,,,,,,,,,,,516.2447592,516.2600546,516.2600546,516.2600546,520.6902796,,,,520.6994297,520.7098857,520.7098857,520.7559289,520.7562268,520.7724186,520.7724186,520.7724186,520.8555719,521.2562828,,,,,,,,up,4.417983199999981,None,space,0.46872129999997014,None,,,,,,,,,,,,,,,P110,001,2025-02-14_08h55.25.538,posner_endo_new1,2024.2.4,60.09456480717889,2025-02-14 08h55.33.652453 +0000,
cube_r.png,0.1,0.31,valid,32,32,0,up,3.245629400000098,None,space,0.5598790999999892,None,,,,,0,32,32,32,,,,,521.2719675,,,,,,,,,,,,,521.2565251,521.2719675,521.2719675,521.2719675,524.5197115,,,,524.5287866,524.5391402,524.5391402,524.5852607,524.5855653,524.6014884,524.6014884,524.6014884,524.6851016,525.1684260000001,,,,,,,,up,3.245629400000098,None,space,0.5598790999999892,None,,,,,,,,,,,,,,,P110,001,2025-02-14_08h55.25.538,posner_endo_new1,2024.2.4,60.09456480717889,2025-02-14 08h55.33.652453 +0000,
cube_r.png,0.1,-0.31,invalid,33,33,0,up,2.4138609000000315,None,space,0.49031349999995655,None,,,,,0,33,33,33,,,,,525.1845148,,,,,,,,,,,,,525.1686684,525.1845148,525.1845148,525.1845148,527.5999641,,,,527.6088321,527.6187652,527.6187652,527.6648757,527.6651194,527.6820108000001,527.6820108000001,527.6820108000001,527.7651438,528.1820938,,,,,,,,up,2.4138609000000315,None,space,0.49031349999995655,None,,,,,,,,,,,,,,,P110,001,2025-02-14_08h55.25.538,posner_endo_new1,2024.2.4,60.09456480717889,2025-02-14 08h55.33.652453 +0000,
cube_r.png,0.1,10,catch,34,34,0,up,2.480443300000047,None,None,,,,,,,0,34,34,34,,,,,528.1979811,,,,,,,,,,,,,528.1822776,528.1979811,528.1979811,528.1979811,530.6797489,,,,530.686134,530.6979782,530.6979782,530.7456262000001,530.7458684000001,530.7620064,530.7620064,530.7620064,530.8451998,533.7595089,,,,532.8598451,533.7755891,533.7755891,533.7755891,up,2.480443300000047,None,None,,,,,,,,,,,,,,,,,P110,001,2025-02-14_08h55.25.538,posner_endo_new1,2024.2.4,60.09456480717889,2025-02-14 08h55.33.652453 +0000,
cube_r.png,0.1,0.31,valid,35,35,0,up,0.9179161999999224,None,space,0.5091989999999669,None,,,,,0,35,35,35,,,,,533.7755891,,,,,,,,,,,,,533.7596758,533.7755891,533.7755891,533.7755891,534.7088449,,,,534.7150671,534.7265946,534.7265946,534.7747049,534.774943,534.7911951,534.7911951,534.7911951,534.8581861,535.3088256,,,,,,,,up,0.9179161999999224,None,space,0.5091989999999669,None,,,,,,,,,,,,,,,P110,001,2025-02-14_08h55.25.538,posner_endo_new1,2024.2.4,60.09456480717889,2025-02-14 08h55.33.652453 +0000,
cube_r.png,0.1,-0.31,invalid,36,36,0,up,2.713643499999989,None,space,0.539968300000055,None,,,,,0,36,36,36,,,,,535.3240334,,,,,,,,,,,,,535.3091314,535.3240334,535.3240334,535.3240334,538.0389114,,,,538.0450653,538.0568082,538.0568082,538.1046712,538.1049177,538.1211216,538.1211216,538.1211216,538.204546,538.6713809,,,,,,,,up,2.713643499999989,None,space,0.539968300000055,None,,,,,,,,,,,,,,,P110,001,2025-02-14_08h55.25.538,posner_endo_new1,2024.2.4,60.09456480717889,2025-02-14 08h55.33.652453 +0000,
cube_l.png,0.1,0.31,invalid,37,37,0,up,4.647004999999922,None,space,0.5241254000000026,None,,,,,0,37,37,37,,,,,538.6872942,,,,,,,,,,,,,538.6715701,538.6872942,538.6872942,538.6872942,543.3500298,,,,543.3562860000001,543.3680264,543.3680264,543.4160133,543.4162498000001,543.4326583,543.4326583,543.4326583,543.4989379,543.9660657000001,,,,,,,,up,4.647004999999922,None,space,0.5241254000000026,None,,,,,,,,,,,,,,,P110,001,2025-02-14_08h55.25.538,posner_endo_new1,2024.2.4,60.09456480717889,2025-02-14 08h55.33.652453 +0000,
cube_l.png,0.1,0.31,invalid,38,38,0,up,2.8965407000000596,None,space,0.4419844000000239,None,,,,,0,38,38,38,,,,,543.9815603,,,,,,,,,,,,,543.9662521,543.9815603,543.9815603,543.9815603,546.8797452,,,,546.8859367,546.8975209,546.8975209,546.9457336,546.9459822,546.9622722,546.9622722,546.9622722,547.0458181,547.4124390000001,,,,,,,,up,2.8965407000000596,None,space,0.4419844000000239,None,,,,,,,,,,,,,,,P110,001,2025-02-14_08h55.25.538,posner_endo_new1,2024.2.4,60.09456480717889,2025-02-14 08h55.33.652453 +0000,
cube_r.png,0.1,0.31,valid,39,39,0,up,3.7214693999999326,None,space,0.48251200000004246,None,,,,,0,39,39,39,,,,,547.4283016,,,,,,,,,,,,,547.4126277,547.4283016,547.4283016,547.4283016,551.1587181,,,,551.1649205,551.1767415,551.1767415,551.2246106,551.2248469,551.2411647,551.2411647,551.2411647,551.3078253,551.7248013,,,,,,,,up,3.7214693999999326,None,space,0.48251200000004246,None,,,,,,,,,,,,,,,P110,001,2025-02-14_08h55.25.538,posner_endo_new1,2024.2.4,60.09456480717889,2025-02-14 08h55.33.652453 +0000,
cube_l.png,0.1,0.31,invalid,40,40,0,up,3.3291831999999886,None,space,0.6947071999999253,None,,,,,0,40,40,40,,,,,551.7405335,,,,,,,,,,,,,551.7249865,551.7405335,551.7405335,551.7405335,555.0720291,,,,555.0834509,555.0936761,555.0936761,555.1368887,555.1372365,555.1537347,555.1537347,555.1537347,555.2371271000001,555.8542408,,,,,,,,up,3.3291831999999886,None,space,0.6947071999999253,None,,,,,,,,,,,,,,,P110,001,2025-02-14_08h55.25.538,posner_endo_new1,2024.2.4,60.09456480717889,2025-02-14 08h55.33.652453 +0000,
cube_l.png,0.1,10,catch,41,41,0,up,4.3836407999999665,None,None,,,,,,,0,41,41,41,,,,,555.8699516,,,,,,,,,,,,,555.8545303,555.8699516,555.8699516,555.8699516,560.2664434,,,,560.27804,560.2885872,560.2885872,560.3318478,560.3321960000001,560.348516,560.348516,560.348516,560.4316913,563.3460288,,,,562.4463388,563.3616189,563.3616189,563.3616189,up,4.3836407999999665,None,None,,,,,,,,,,,,,,,,,P110,001,2025-02-14_08h55.25.538,posner_endo_new1,2024.2.4,60.09456480717889,2025-02-14 08h55.33.652453 +0000,
cube_l.png,0.1,-0.31,valid,42,42,0,up,0.9563875000000053,None,space,0.3969326999999794,None,,,,,0,42,42,42,,,,,563.3616189,,,,,,,,,,,,,563.3463051,563.3616189,563.3616189,563.3616189,564.3289139,,,,564.3407662,564.3510396,564.3510396,564.3943888,564.3946271,564.4109081,564.4109081,564.4109081,564.4943833,564.8116433,,,,,,,,up,0.9563875000000053,None,space,0.3969326999999794,None,,,,,,,,,,,,,,,P110,001,2025-02-14_08h55.25.538,posner_endo_new1,2024.2.4,60.09456480717889,2025-02-14 08h55.33.652453 +0000,
cube_l.png,0.1,10,catch,43,43,0,up,2.9867812999999614,None,None,,,,,,,0,43,43,43,,,,,564.8272665000001,,,,,,,,,,,,,564.8118431,564.8272665000001,564.8272665000001,564.8272665000001,567.8245303,,,,567.8315903,567.8432916,567.8432916,567.890847,567.8910994,567.9073175,567.9073175,567.9073175,567.9740017,570.9050659000001,,,,569.9884896,570.9210541,570.9210541,570.9210541,up,2.9867812999999614,None,None,,,,,,,,,,,,,,,,,P110,001,2025-02-14_08h55.25.538,posner_endo_new1,2024.2.4,60.09456480717889,2025-02-14 08h55.33.652453 +0000,
cube_l.png,0.1,0.31,invalid,44,44,0,up,0.5645586000000549,None,space,0.4001593000000412,None,,,,,0,44,44,44,,,,,570.9210541,,,,,,,,,,,,,570.9052479000001,570.9210541,570.9210541,570.9210541,571.4880858,,,,571.4951581,571.5069165,571.5069165,571.5539638,571.5542168000001,571.5704394,571.5704394,571.5704394,571.6534242,571.9875262,,,,,,,,up,0.5645586000000549,None,space,0.4001593000000412,None,,,,,,,,,,,,,,,P110,001,2025-02-14_08h55.25.538,posner_endo_new1,2024.2.4,60.09456480717889,2025-02-14 08h55.33.652453 +0000,
cube_l.png,0.1,0.31,invalid,45,45,0,up,2.634410600000024,None,space,0.43156169999997473,None,,,,,0,45,45,45,,,,,572.0034211,,,,,,,,,,,,,571.987723,572.0034211,572.0034211,572.0034211,574.651301,,,,574.6584207,574.6701113,574.6701113,574.7172695,574.7175191,574.7336731,574.7336731,574.7336731,574.8004233,575.1675862,,,,,,,,up,2.634410600000024,None,space,0.43156169999997473,None,,,,,,,,,,,,,,,P110,001,2025-02-14_08h55.25.538,posner_endo_new1,2024.2.4,60.09456480717889,2025-02-14 08h55.33.652453 +0000,
cube_r.png,0.1,0.31,valid,46,46,0,up,3.2144435000000158,None,space,0.4049714999999878,None,,,,,0,46,46,46,,,,,575.1832791,,,,,,,,,,,,,575.1677859,575.1832791,575.1832791,575.1832791,578.4145485,,,,578.4217124,578.4444080000001,578.4444080000001,578.4800068,578.480258,578.4964539,578.4964539,578.4964539,578.5798570000001,578.9135606,,,,,,,,up,3.2144435000000158,None,space,0.4049714999999878,None,,,,,,,,,,,,,,,P110,001,2025-02-14_08h55.25.538,posner_endo_new1,2024.2.4,60.09456480717889,2025-02-14 08h55.33.652453 +0000,
cube_l.png,0.1,-0.31,valid,47,47,0,up,3.300748999999996,None,space,0.4038664999999355,None,,,,,0,47,47,47,,,,,578.9295480000001,,,,,,,,,,,,,578.9137678,578.9295480000001,578.9295480000001,578.9295480000001,582.2437015,,,,582.2507265,582.2623517000001,582.2623517000001,582.3093433,582.309581,582.3258619000001,582.3258619000001,582.3258619000001,582.4094932,582.7432039,,,,,,,,up,3.300748999999996,None,space,0.4038664999999355,None,,,,,,,,,,,,,,,P110,001,2025-02-14_08h55.25.538,posner_endo_new1,2024.2.4,60.09456480717889,2025-02-14 08h55.33.652453 +0000,
cube_r.png,0.1,-0.31,invalid,48,48,0,up,4.351106500000014,None,space,0.41693929999996726,None,,,,,0,48,48,48,,,,,582.7590072,,,,,,,,,,,,,582.7433907,582.7590072,582.7590072,582.7590072,587.121788,,,,587.1279066,587.1395063,587.1395063,587.1877677,587.1880051,587.2043054000001,587.2043054000001,587.2043054000001,587.2874043,587.6380107,,,,,,,,up,4.351106500000014,None,space,0.41693929999996726,None,,,,,,,,,,,,,,,P110,001,2025-02-14_08h55.25.538,posner_endo_new1,2024.2.4,60.09456480717889,2025-02-14 08h55.33.652453 +0000,
cube_r.png,0.1,10,catch,49,49,0,up,4.807832299999973,None,None,,,,,,,0,49,49,49,,,,,587.6537965,,,,,,,,,,,,,587.6382024000001,587.6537965,587.6537965,587.6537965,592.4663879,,,,592.4725785,592.4840063,592.4840063,592.5323241,592.5325686,592.5490784,592.5490784,592.5490784,592.6155655,595.5463371,,,,594.6300582,595.5622875,595.5622875,595.5622875,up,4.807832299999973,None,None,,,,,,,,,,,,,,,,,P110,001,2025-02-14_08h55.25.538,posner_endo_new1,2024.2.4,60.09456480717889,2025-02-14 08h55.33.652453 +0000,
cube_l.png,0.1,-0.31,valid,50,50,0,up,0.867004100000031,None,space,0.3023544000000129,None,,,,,0,50,50,50,,,,,595.5622875,,,,,,,,,,,,,595.5465158000001,595.5622875,595.5622875,595.5622875,596.4457861,,,,596.4520072,596.4633353,596.4633353,596.5116262,596.5118626,596.528068,596.528068,596.528068,596.5947562,596.845171,,,,,,,,up,0.867004100000031,None,space,0.3023544000000129,None,,,,,,,,,,,,,,,P110,001,2025-02-14_08h55.25.538,posner_endo_new1,2024.2.4,60.09456480717889,2025-02-14 08h55.33.652453 +0000,
cube_l.png,0.1,-0.31,valid,51,51,0,up,4.280922299999929,None,space,0.4621634999999742,None,,,,,0,51,51,51,,,,,596.8612452,,,,,,,,,,,,,596.8453460000001,596.8612452,596.8612452,596.8612452,601.1572991,,,,601.1633045,601.1748152,601.1748152,601.2233003,601.2235271,601.2400059,601.2400059,601.2400059,601.3064051,601.706824,,,,,,,,up,4.280922299999929,None,space,0.4621634999999742,None,,,,,,,,,,,,,,,P110,001,2025-02-14_08h55.25.538,posner_endo_new1,2024.2.4,60.09456480717889,2025-02-14 08h55.33.652453 +0000,
cube_r.png,0.1,-0.31,invalid,52,52,0,up,3.387780799999973,None,space,0.40356180000003405,None,,,,,0,52,52,52,,,,,601.7224953,,,,,,,,,,,,,601.7070003,601.7224953,601.7224953,601.7224953,605.1199719,,,,605.1259006,605.1374262,605.1374262,605.1860271,605.1862519,605.2025568,605.2025568,605.2025568,605.2690156,605.6196057,,,,,,,,up,3.387780799999973,None,space,0.40356180000003405,None,,,,,,,,,,,,,,,P110,001,2025-02-14_08h55.25.538,posner_endo_new1,2024.2.4,60.09456480717889,2025-02-14 08h55.33.652453 +0000,
cube_l.png,0.1,-0.31,valid,53,53,0,up,3.6101364999999532,None,space,0.45199730000001637,None,,,,,0,53,53,53,,,,,605.6353749,,,,,,,,,,,,,605.6197804,605.6353749,605.6353749,605.6353749,609.2491122,,,,609.2550966,609.2666686,609.2666686,609.3149861,609.3152134000001,609.3316898,609.3316898,609.3316898,609.3981685,609.7986689,,,,,,,,up,3.6101364999999532,None,space,0.45199730000001637,None,,,,,,,,,,,,,,,P110,001,2025-02-14_08h55.25.538,posner_endo_new1,2024.2.4,60.09456480717889,2025-02-14 08h55.33.652453 +0000,
cube_r.png,0.1,10,catch,54,54,0,up,2.5031549999999925,None,None,,,,,,,0,54,54,54,,,,,609.8145006,,,,,,,,,,,,,609.7988418,609.8145006,609.8145006,609.8145006,612.3293719,,,,612.3353379,612.3470616,612.3470616,612.3953045000001,612.395531,612.4117321,612.4117321,612.4117321,612.4949848,615.409215,,,,614.5095814,615.4255155,615.4255155,615.4255155,up,2.5031549999999925,None,None,,,,,,,,,,,,,,,,,P110,001,2025-02-14_08h55.25.538,posner_endo_new1,2024.2.4,60.09456480717889,2025-02-14 08h55.33.652453 +0000,
cube_l.png,0.1,0.31,invalid,55,55,0,up,0.8046864000000369,None,space,0.5257702000000108,None,,,,,0,55,55,55,,,,,615.4255155,,,,,,,,,,,,,615.4093942000001,615.4255155,615.4255155,615.4255155,616.2420015,,,,616.2481746,616.2596546,616.2596546,616.3079935000001,616.3082386,616.3243815,616.3243815,616.3243815,616.3909773,616.8579961,,,,,,,,up,0.8046864000000369,None,space,0.5257702000000108,None,,,,,,,,,,,,,,,P110,001,2025-02-14_08h55.25.538,posner_endo_new1,2024.2.4,60.09456480717889,2025-02-14 08h55.33.652453 +0000,
cube_l.png,0.1,-0.31,valid,56,56,0,up,3.219218299999966,None,space,0.4589635999999473,None,,,,,0,56,56,56,,,,,616.8741068,,,,,,,,,,,,,616.8581809,616.8741068,616.8741068,616.8741068,620.1046584000001,,,,620.110646,620.1220684,620.1220684,620.1706393000001,620.1708639,620.1872482,620.1872482,620.1872482,620.2538584,620.6543011,,,,,,,,up,3.219218299999966,None,space,0.4589635999999473,None,,,,,,,,,,,,,,,P110,001,2025-02-14_08h55.25.538,posner_endo_new1,2024.2.4,60.09456480717889,2025-02-14 08h55.33.652453 +0000,
cube_r.png,0.1,0.31,valid,57,57,0,up,2.9758763999999474,None,space,0.5775868000000628,None,,,,,0,57,57,57,,,,,620.66997,,,,,,,,,,,,,620.6544728,620.66997,620.66997,620.66997,623.6511053,,,,623.6571384,623.6690264,623.6690264,623.7168779,623.7171030000001,623.7336865,623.7336865,623.7336865,623.8001681000001,624.3170177000001,,,,,,,,up,2.9758763999999474,None,space,0.5775868000000628,None,,,,,,,,,,,,,,,P110,001,2025-02-14_08h55.25.538,posner_endo_new1,2024.2.4,60.09456480717889,2025-02-14 08h55.33.652453 +0000,
cube_r.png,0.1,-0.31,invalid,58,58,0,up,3.496564400000011,None,space,0.4198995000000423,None,,,,,0,58,58,58,,,,,624.3327899,,,,,,,,,,,,,624.3171922,624.3327899,624.3327899,624.3327899,627.8315815,,,,627.8379159,627.849255,627.849255,627.8961409,627.8963752,627.9121276,627.9121276,627.9121276,627.9958939,628.346669,,,,,,,,up,3.496564400000011,None,space,0.4198995000000423,None,,,,,,,,,,,,,,,P110,001,2025-02-14_08h55.25.538,posner_endo_new1,2024.2.4,60.09456480717889,2025-02-14 08h55.33.652453 +0000,
cube_l.png,0.1,0.31,invalid,59,59,0,up,3.099752399999943,None,space,0.6302405999999792,None,,,,,0,59,59,59,,,,,628.36246,,,,,,,,,,,,,628.3468535000001,628.36246,628.36246,628.36246,631.4764539,,,,631.4823893,631.4936304,631.4936304,631.5423575,631.5425819,631.5588306,631.5588306,631.5588306,631.6420891,632.1922454,,,,,,,,up,3.099752399999943,None,space,0.6302405999999792,None,,,,,,,,,,,,,,,P110,001,2025-02-14_08h55.25.538,posner_endo_new1,2024.2.4,60.09456480717889,2025-02-14 08h55.33.652453 +0000,
,,,,,,,,,,,,,,,,,,,,,,,,,,,,,,,,,,,,,,,,,,,,,,,,,,,,,,,,,,,,,,,,,,,,,632.1923821,632.2081741000001,632.2081741000001,692.2134195,712.9113202,space,80.69391680000001,None,,,,,,,P110,001,2025-02-14_08h55.25.538,posner_endo_new1,2024.2.4,60.09456480717889,2025-02-14 08h55.33.652453 +0000,
,,,,,,,,,,,,,,,,,,,,,,,,,,,,,,,,,,712.9114920000001,712.9256438,715.9584215,715.9072532,,,,,,,,,,,,,,,,,,,,,,,,,,,,,,,,,,,,,,,,,,,,,,P110,001,2025-02-14_08h55.25.538,posner_endo_new1,2024.2.4,60.09456480717889,2025-02-14 08h55.33.652453 +0000,
cube_l.png,0.1,10,catch,0,0,0,down,4.775716699999975,None,None,,,,,,,,,,,0,0,0,0,715.9584215,,,,,,,,,,,,,715.9497699,715.9584215,715.9584215,715.9584215,720.7352243,,,,720.7453076,720.7557853,720.7557853,720.8007702,720.8010999,720.8176193,720.8176193,720.8176193,720.8842576,723.8151643,,,,722.898593,723.830917,723.830917,723.830917,,,,,,,,,,,,,,,down,4.775716699999975,None,None,,,P110,001,2025-02-14_08h55.25.538,posner_endo_new1,2024.2.4,60.09456480717889,2025-02-14 08h55.33.652453 +0000,
cube_l.png,0.1,10,catch,1,1,0,down,5.67126780000001,None,None,,,,,,,,,,,0,1,1,1,723.830917,,,,,,,,,,,,,723.8154118,723.830917,723.830917,723.830917,729.5096604,,,,729.5196273,729.5298405,729.5298405,729.5750766,729.5753943,729.5919511,729.5919511,729.5919511,729.6750161,732.5895249,,,,731.6896061,732.6055024,732.6055024,732.6055024,,,,,,,,,,,,,,,down,5.67126780000001,None,None,,,P110,001,2025-02-14_08h55.25.538,posner_endo_new1,2024.2.4,60.09456480717889,2025-02-14 08h55.33.652453 +0000,
cube_l.png,0.1,0.31,invalid,2,2,0,down,0.5444340999999895,None,space,0.4869712999999365,None,,,,,,,,,0,2,2,2,732.6055024,,,,,,,,,,,,,732.5897741,732.6055024,732.6055024,732.6055024,733.1560751000001,,,,733.1663714,733.1764895,733.1764895,733.2213013,733.2216214,733.2380997,733.2380997,733.2380997,733.3214198000001,733.738738,,,,,,,,,,,,,,,,,,,,,,down,0.5444340999999895,None,space,0.4869712999999365,None,P110,001,2025-02-14_08h55.25.538,posner_endo_new1,2024.2.4,60.09456480717889,2025-02-14 08h55.33.652453 +0000,
cube_l.png,0.1,0.31,invalid,3,3,0,down,2.3078067999999803,None,space,0.5507115999999996,None,,,,,,,,,0,3,3,3,733.7542945,,,,,,,,,,,,,733.7390049,733.7542945,733.7542945,733.7542945,736.069683,,,,736.0792516,736.0891226,736.0891226,736.1351639000001,736.1354037,736.1517342,736.1517342,736.1517342,736.2352177,736.7188085,,,,,,,,,,,,,,,,,,,,,,down,2.3078067999999803,None,space,0.5507115999999996,None,P110,001,2025-02-14_08h55.25.538,posner_endo_new1,2024.2.4,60.09456480717889,2025-02-14 08h55.33.652453 +0000,
cube_l.png,0.1,-0.31,valid,4,4,0,down,2.806423500000051,None,space,0.6017650000000003,None,,,,,,,,,0,4,4,4,736.7348203,,,,,,,,,,,,,736.7189989,736.7348203,736.7348203,736.7348203,739.5490859,,,,739.5556562,739.5672249,739.5672249,739.6150006,739.6152377,739.631407,739.631407,739.631407,739.6981885,740.2482948,,,,,,,,,,,,,,,,,,,,,,down,2.806423500000051,None,space,0.6017650000000003,None,P110,001,2025-02-14_08h55.25.538,posner_endo_new1,2024.2.4,60.09456480717889,2025-02-14 08h55.33.652453 +0000,
cube_r.png,0.1,-0.31,invalid,5,5,0,down,3.4133674999999357,None,space,0.4194474999999329,None,,,,,,,,,0,5,5,5,740.2639462,,,,,,,,,,,,,740.2484876,740.2639462,740.2639462,740.2639462,743.6783262,,,,743.6848311,743.6963755,743.6963755,743.7440942000001,743.74434,743.7605262,743.7605262,743.7605262,743.8437999,744.1943914,,,,,,,,,,,,,,,,,,,,,,down,3.4133674999999357,None,space,0.4194474999999329,None,P110,001,2025-02-14_08h55.25.538,posner_endo_new1,2024.2.4,60.09456480717889,2025-02-14 08h55.33.652453 +0000,
cube_r.png,0.1,0.31,valid,6,6,0,down,2.8594484000000193,None,space,0.43815299999994295,None,,,,,,,,,0,6,6,6,744.2101678,,,,,,,,,,,,,744.1945771000001,744.2101678,744.2101678,744.2101678,747.0747104,,,,747.0812175,747.0925990000001,747.0925990000001,747.1405108,747.1407594,747.1572233,747.1572233,747.1572233,747.240496,747.6073722,,,,,,,,,,,,,,,,,,,,,,down,2.8594484000000193,None,space,0.43815299999994295,None,P110,001,2025-02-14_08h55.25.538,posner_endo_new1,2024.2.4,60.09456480717889,2025-02-14 08h55.33.652453 +0000,
cube_r.png,0.1,-0.31,invalid,7,7,0,down,2.982754800000066,None,space,0.4758676999999807,None,,,,,,,,,0,7,7,7,747.623471,,,,,,,,,,,,,747.6075633,747.623471,747.623471,747.623471,750.6211265000001,,,,750.6276438,750.639321,750.639321,750.6869866000001,750.6872436,750.7035029,750.7035029,750.7035029,750.7700579,751.1871244,,,,,,,,,,,,,,,,,,,,,,down,2.982754800000066,None,space,0.4758676999999807,None,P110,001,2025-02-14_08h55.25.538,posner_endo_new1,2024.2.4,60.09456480717889,2025-02-14 08h55.33.652453 +0000,
cube_l.png,0.1,-0.31,valid,8,8,0,down,3.4351930999999922,None,space,0.3996951999999965,None,,,,,,,,,0,8,8,8,751.2028093,,,,,,,,,,,,,751.1873208000001,751.2028093,751.2028093,751.2028093,754.650224,,,,754.6567137000001,754.668379,754.668379,754.7162292,754.7164685,754.7328517,754.7328517,754.7328517,754.7995622,755.1335469,,,,,,,,,,,,,,,,,,,,,,down,3.4351930999999922,None,space,0.3996951999999965,None,P110,001,2025-02-14_08h55.25.538,posner_endo_new1,2024.2.4,60.09456480717889,2025-02-14 08h55.33.652453 +0000,
cube_r.png,0.1,-0.31,invalid,9,9,0,down,3.6888872999999194,None,space,0.42793700000004264,None,,,,,,,,,0,9,9,9,755.1490054,,,,,,,,,,,,,755.133729,755.1490054,755.1490054,755.1490054,758.8461676000001,,,,758.8526593,758.8644223,758.8644223,758.9120828,758.9123221,758.9284582,758.9284582,758.9284582,759.0116243,759.3619381,,,,,,,,,,,,,,,,,,,,,,down,3.6888872999999194,None,space,0.42793700000004264,None,P110,001,2025-02-14_08h55.25.538,posner_endo_new1,2024.2.4,60.09456480717889,2025-02-14 08h55.33.652453 +0000,
cube_l.png,0.1,0.31,invalid,10,10,0,down,3.25134259999993,None,space,0.6264331999999513,None,,,,,,,,,0,10,10,10,759.3780390000001,,,,,,,,,,,,,759.3621222,759.3780390000001,759.3780390000001,759.3780390000001,762.6424446,,,,762.6489216,762.6605209,762.6605209,762.7079562,762.708191,762.724654,762.724654,762.724654,762.8078957,763.3578879,,,,,,,,,,,,,,,,,,,,,,down,3.25134259999993,None,space,0.6264331999999513,None,P110,001,2025-02-14_08h55.25.538,posner_endo_new1,2024.2.4,60.09456480717889,2025-02-14 08h55.33.652453 +0000,
cube_r.png,0.1,-0.31,invalid,11,11,0,down,3.168281699999966,None,space,0.40811650000000554,None,,,,,,,,,0,11,11,11,763.3738605,,,,,,,,,,,,,763.3580788,763.3738605,763.3738605,763.3738605,766.5548327,,,,766.5613688,766.5728796,766.5728796,766.6206388,766.6208765,766.6371718,766.6371718,766.6371718,766.7036554,767.0545799,,,,,,,,,,,,,,,,,,,,,,down,3.168281699999966,None,space,0.40811650000000554,None,P110,001,2025-02-14_08h55.25.538,posner_endo_new1,2024.2.4,60.09456480717889,2025-02-14 08h55.33.652453 +0000,
cube_r.png,0.1,0.31,valid,12,12,0,down,2.591940300000033,None,space,0.3682309000000714,None,,,,,,,,,0,12,12,12,767.0700315,,,,,,,,,,,,,767.0547697000001,767.0700315,767.0700315,767.0700315,769.6682174,,,,769.6747146,769.6864125,769.6864125,769.7344944,769.7347409,769.7507626,769.7507626,769.7507626,769.8173341,770.134365,,,,,,,,,,,,,,,,,,,,,,down,2.591940300000033,None,space,0.3682309000000714,None,P110,001,2025-02-14_08h55.25.538,posner_endo_new1,2024.2.4,60.09456480717889,2025-02-14 08h55.33.652453 +0000,
cube_l.png,0.1,10,catch,13,13,0,down,3.4390079999999443,None,None,,,,,,,,,,,0,13,13,13,770.1503336000001,,,,,,,,,,,,,770.1345632,770.1503336000001,770.1503336000001,770.1503336000001,773.5975735000001,,,,773.6038314,773.6155365,773.6155365,773.6633997,773.6636379,773.6800478,773.6800478,773.6800478,773.74667,776.6776944000001,,,,775.7612048,776.6935732000001,776.6935732000001,776.6935732000001,,,,,,,,,,,,,,,down,3.4390079999999443,None,None,,,P110,001,2025-02-14_08h55.25.538,posner_endo_new1,2024.2.4,60.09456480717889,2025-02-14 08h55.33.652453 +0000,
cube_r.png,0.1,-0.31,invalid,14,14,0,down,1.1439406999999164,None,space,0.49843620000001465,None,,,,,,,,,0,14,14,14,776.6935732000001,,,,,,,,,,,,,776.6778683,776.6935732000001,776.6935732000001,776.6935732000001,777.8432225,,,,777.8493352,777.8608322,777.8608322,777.9090295,777.9092695,777.9256685,777.9256685,777.9256685,777.9922986,778.4259542,,,,,,,,,,,,,,,,,,,,,,down,1.1439406999999164,None,space,0.49843620000001465,None,P110,001,2025-02-14_08h55.25.538,posner_endo_new1,2024.2.4,60.09456480717889,2025-02-14 08h55.33.652453 +0000,
cube_l.png,0.1,-0.31,valid,15,15,0,down,2.4925969999999325,None,space,0.4077819000000318,None,,,,,,,,,0,15,15,15,778.4417789,,,,,,,,,,,,,778.4261383,778.4417789,778.4417789,778.4417789,780.9398787,,,,780.9460586,780.9576699,780.9576699,781.0057916000001,781.0060279,781.0224564,781.0224564,781.0224564,781.0891377,781.4395886,,,,,,,,,,,,,,,,,,,,,,down,2.4925969999999325,None,space,0.4077819000000318,None,P110,001,2025-02-14_08h55.25.538,posner_endo_new1,2024.2.4,60.09456480717889,2025-02-14 08h55.33.652453 +0000,
cube_r.png,0.1,10,catch,16,16,0,down,2.901939699999957,None,None,,,,,,,,,,,0,16,16,16,781.4554278,,,,,,,,,,,,,781.4397725,781.4554278,781.4554278,781.4554278,784.3698351,,,,784.3760078,784.3875926000001,784.3875926000001,784.435739,784.4359753,784.4523557,784.4523557,784.4523557,784.5355582,787.4495616,,,,786.5500468,787.4658742,787.4658742,787.4658742,,,,,,,,,,,,,,,down,2.901939699999957,None,None,,,P110,001,2025-02-14_08h55.25.538,posner_endo_new1,2024.2.4,60.09456480717889,2025-02-14 08h55.33.652453 +0000,
cube_r.png,0.1,10,catch,17,17,0,down,0.2993578000000525,None,None,,,,,,,,,,,0,17,17,17,787.4658742,,,,,,,,,,,,,787.4497358,787.4658742,787.4658742,787.4658742,787.7663203,,,,787.7724563,787.7835458,787.7835458,787.8323177,787.832553,787.8487230000001,787.8487230000001,787.8487230000001,787.915397,790.8462246,,,,789.9299757,790.8624672,790.8624672,790.8624672,,,,,,,,,,,,,,,down,0.2993578000000525,None,None,,,P110,001,2025-02-14_08h55.25.538,posner_endo_new1,2024.2.4,60.09456480717889,2025-02-14 08h55.33.652453 +0000,
cube_l.png,0.1,0.31,invalid,18,18,0,down,0.6235980000000154,None,space,0.567142600000011,None,,,,,,,,,0,18,18,18,790.8624672,,,,,,,,,,,,,790.8463972,790.8624672,790.8624672,790.8624672,791.4959729,,,,791.5021711,791.5140286,791.5140286,791.5616417,791.5618812,791.5783346000001,791.5783346000001,791.5783346000001,791.6616971,792.1619307,,,,,,,,,,,,,,,,,,,,,,down,0.6235980000000154,None,space,0.567142600000011,None,P110,001,2025-02-14_08h55.25.538,posner_endo_new1,2024.2.4,60.09456480717889,2025-02-14 08h55.33.652453 +0000,
cube_l.png,0.1,10,catch,19,19,0,down,3.139588900000035,None,None,,,,,,,,,,,0,19,19,19,792.1777504,,,,,,,,,,,,,792.1621199,792.1777504,792.1777504,792.1777504,795.3247895000001,,,,795.3308877000001,795.3424395000001,795.3424395000001,795.391107,795.3913446,795.4079796,795.4079796,795.4079796,795.4743973,798.4051427,,,,797.4889208,798.421281,798.421281,798.421281,,,,,,,,,,,,,,,down,3.139588900000035,None,None,,,P110,001,2025-02-14_08h55.25.538,posner_endo_new1,2024.2.4,60.09456480717889,2025-02-14 08h55.33.652453 +0000,
cube_l.png,0.1,0.31,invalid,20,20,0,down,0.9773181000000477,None,space,0.4632900999999947,None,,,,,,,,,0,20,20,20,798.421281,,,,,,,,,,,,,798.4053173,798.421281,798.421281,798.421281,799.4045503,,,,799.4107791,799.4222632,799.4222632,799.4703907,799.4706257,799.4869534000001,799.4869534000001,799.4869534000001,799.5700563,799.9540439,,,,,,,,,,,,,,,,,,,,,,down,0.9773181000000477,None,space,0.4632900999999947,None,P110,001,2025-02-14_08h55.25.538,posner_endo_new1,2024.2.4,60.09456480717889,2025-02-14 08h55.33.652453 +0000,
cube_l.png,0.1,-0.31,valid,21,21,0,down,3.3402694999999767,None,space,0.4514127999999573,None,,,,,,,,,0,21,21,21,799.9696338,,,,,,,,,,,,,799.9542305,799.9696338,799.9696338,799.9696338,803.3170251,,,,803.3231884,803.334704,803.334704,803.3830183,803.3832563,803.3995581,803.3995581,803.3995581,803.4662232000001,803.8665649,,,,,,,,,,,,,,,,,,,,,,down,3.3402694999999767,None,space,0.4514127999999573,None,P110,001,2025-02-14_08h55.25.538,posner_endo_new1,2024.2.4,60.09456480717889,2025-02-14 08h55.33.652453 +0000,
cube_r.png,0.1,0.31,valid,22,22,0,down,3.2353084999999737,None,space,0.496006399999942,None,,,,,,,,,0,22,22,22,803.8824622,,,,,,,,,,,,,803.8667471,803.8824622,803.8824622,803.8824622,807.1299059,,,,807.1360787,807.1478147,807.1478147,807.1955069,807.1957451000001,807.212447,807.212447,807.212447,807.2789778,807.7129056,,,,,,,,,,,,,,,,,,,,,,down,3.2353084999999737,None,space,0.496006399999942,None,P110,001,2025-02-14_08h55.25.538,posner_endo_new1,2024.2.4,60.09456480717889,2025-02-14 08h55.33.652453 +0000,
cube_r.png,0.1,-0.31,invalid,23,23,0,down,4.029436000000032,None,space,0.43378519999998844,None,,,,,,,,,0,23,23,23,807.7283896,,,,,,,,,,,,,807.7130971,807.7283896,807.7283896,807.7283896,811.7586729,,,,811.7648236,811.7763824,811.7763824,811.824382,811.824625,811.8410212,811.8410212,811.8410212,811.9241519,812.2913776,,,,,,,,,,,,,,,,,,,,,,down,4.029436000000032,None,space,0.43378519999998844,None,P110,001,2025-02-14_08h55.25.538,posner_endo_new1,2024.2.4,60.09456480717889,2025-02-14 08h55.33.652453 +0000,
cube_r.png,0.1,0.31,valid,24,24,0,down,3.9540192000000616,None,space,0.44698559999994814,None,,,,,,,,,0,24,24,24,812.3070723,,,,,,,,,,,,,812.2915643,812.3070723,812.3070723,812.3070723,816.2703136,,,,816.2764299,816.2879780000001,816.2879780000001,816.3364298,816.3366656000001,816.3529662,816.3529662,816.3529662,816.4196965,816.8033873,,,,,,,,,,,,,,,,,,,,,,down,3.9540192000000616,None,space,0.44698559999994814,None,P110,001,2025-02-14_08h55.25.538,posner_endo_new1,2024.2.4,60.09456480717889,2025-02-14 08h55.33.652453 +0000,
cube_r.png,0.1,-0.31,invalid,25,25,0,down,3.6983829999999216,None,space,0.37319480000007843,None,,,,,,,,,0,25,25,25,816.819217,,,,,,,,,,,,,816.8035792000001,816.819217,816.819217,816.819217,820.5329991,,,,820.5392259,820.5506827,820.5506827,820.5988471000001,820.5990868,820.6153242,820.6153242,820.6153242,820.6986027,820.9991382000001,,,,,,,,,,,,,,,,,,,,,,down,3.6983829999999216,None,space,0.37319480000007843,None,P110,001,2025-02-14_08h55.25.538,posner_endo_new1,2024.2.4,60.09456480717889,2025-02-14 08h55.33.652453 +0000,
cube_l.png,0.1,-0.31,valid,26,26,0,down,2.967198499999995,None,space,0.4143627999999353,None,,,,,,,,,0,26,26,26,821.0149442000001,,,,,,,,,,,,,820.9993253,821.0149442000001,821.0149442000001,821.0149442000001,823.9959645,,,,824.0022178,824.0137608,824.0137608,824.0618067,824.0620437,824.0783302,824.0783302,824.0783302,824.1449021,824.4954604,,,,,,,,,,,,,,,,,,,,,,down,2.967198499999995,None,space,0.4143627999999353,None,P110,001,2025-02-14_08h55.25.538,posner_endo_new1,2024.2.4,60.09456480717889,2025-02-14 08h55.33.652453 +0000,
cube_r.png,0.1,0.31,valid,27,27,0,down,3.5659010000000535,None,space,0.5728384000000233,None,,,,,,,,,0,27,27,27,824.5113005000001,,,,,,,,,,,,,824.4956502,824.5113005000001,824.5113005000001,824.5113005000001,828.091732,,,,828.0978635,828.1093391,828.1093391,828.1577805000001,828.1580153,828.1741711,828.1741711,828.1741711,828.2407420000001,828.7576635,,,,,,,,,,,,,,,,,,,,,,down,3.5659010000000535,None,space,0.5728384000000233,None,P110,001,2025-02-14_08h55.25.538,posner_endo_new1,2024.2.4,60.09456480717889,2025-02-14 08h55.33.652453 +0000,
cube_r.png,0.1,10,catch,28,28,0,down,4.264446599999928,None,None,,,,,,,,,,,0,28,28,28,828.7736064000001,,,,,,,,,,,,,828.7578584,828.7736064000001,828.7736064000001,828.7736064000001,833.0528317,,,,833.0589180000001,833.0705087,833.0705087,833.1192424,833.1194808,833.1358233,833.1358233,833.1358233,833.2025787,836.1328633,,,,835.2170076,836.1495586,836.1495586,836.1495586,,,,,,,,,,,,,,,down,4.264446599999928,None,None,,,P110,001,2025-02-14_08h55.25.538,posner_endo_new1,2024.2.4,60.09456480717889,2025-02-14 08h55.33.652453 +0000,
cube_r.png,0.1,0.31,valid,29,29,0,down,0.6002763999999843,None,space,0.4591329999999516,None,,,,,,,,,0,29,29,29,836.1495586,,,,,,,,,,,,,836.1330349,836.1495586,836.1495586,836.1495586,836.7659327,,,,836.7727553,836.7841993000001,836.7841993000001,836.8320923,836.8323271,836.848507,836.848507,836.848507,836.9150384,837.3157972,,,,,,,,,,,,,,,,,,,,,,down,0.6002763999999843,None,space,0.4591329999999516,None,P110,001,2025-02-14_08h55.25.538,posner_endo_new1,2024.2.4,60.09456480717889,2025-02-14 08h55.33.652453 +0000,
cube_r.png,0.1,0.31,valid,30,30,0,down,3.658572099999901,None,space,0.4951365999999098,None,,,,,,,,,0,30,30,30,837.33093,,,,,,,,,,,,,837.3159831,837.33093,837.33093,837.33093,840.9954796000001,,,,841.0019115,841.0137221,841.0137221,841.0612572,841.0614927,841.0775164,841.0775164,841.0775164,841.1608453,841.5781073,,,,,,,,,,,,,,,,,,,,,,down,3.658572099999901,None,space,0.4951365999999098,None,P110,001,2025-02-14_08h55.25.538,posner_endo_new1,2024.2.4,60.09456480717889,2025-02-14 08h55.33.652453 +0000,
cube_l.png,0.1,-0.31,valid,31,31,0,down,3.379732800000056,None,space,0.42162040000005163,None,,,,,,,,,0,31,31,31,841.5937155,,,,,,,,,,,,,841.5782994,841.5937155,841.5937155,841.5937155,844.9744828,,,,844.9807328,844.9921420000001,844.9921420000001,845.0399744,845.0402108000001,845.0568602,845.0568602,845.0568602,845.140116,845.4906802,,,,,,,,,,,,,,,,,,,,,,down,3.379732800000056,None,space,0.42162040000005163,None,P110,001,2025-02-14_08h55.25.538,posner_endo_new1,2024.2.4,60.09456480717889,2025-02-14 08h55.33.652453 +0000,
cube_r.png,0.1,0.31,valid,32,32,0,down,3.0991874000000053,None,space,0.40734679999991386,None,,,,,,,,,0,32,32,32,845.5061044,,,,,,,,,,,,,845.4908766,845.5061044,845.5061044,845.5061044,848.6212392,,,,848.6328114,848.6433281,848.6433281,848.6867319,848.6870845,848.7026762,848.7026762,848.7026762,848.786567,849.120584,,,,,,,,,,,,,,,,,,,,,,down,3.0991874000000053,None,space,0.40734679999991386,None,P110,001,2025-02-14_08h55.25.538,posner_endo_new1,2024.2.4,60.09456480717889,2025-02-14 08h55.33.652453 +0000,
cube_r.png,0.1,-0.31,invalid,33,33,0,down,3.9579120000000785,None,space,0.3253503000000819,None,,,,,,,,,0,33,33,33,849.1358818,,,,,,,,,,,,,849.1208752,849.1358818,849.1358818,849.1358818,853.0999066,,,,853.110372,853.119928,853.119928,853.1649307,853.1651799,853.1818657,853.1818657,853.1818657,853.2650779,853.5158378,,,,,,,,,,,,,,,,,,,,,,down,3.9579120000000785,None,space,0.3253503000000819,None,P110,001,2025-02-14_08h55.25.538,posner_endo_new1,2024.2.4,60.09456480717889,2025-02-14 08h55.33.652453 +0000,
cube_r.png,0.1,10,catch,34,34,0,down,3.38636560000009,None,None,,,,,,,,,,,0,34,34,34,853.531713,,,,,,,,,,,,,853.5160316,853.531713,853.531713,853.531713,856.9288651,,,,856.9359541,856.9477077,856.9477077,856.9946942,856.9949508,857.0113758,857.0113758,857.0113758,857.094567,860.0088189,,,,859.1093206,860.0249433,860.0249433,860.0249433,,,,,,,,,,,,,,,down,3.38636560000009,None,None,,,P110,001,2025-02-14_08h55.25.538,posner_endo_new1,2024.2.4,60.09456480717889,2025-02-14 08h55.33.652453 +0000,
cube_r.png,0.1,0.31,valid,35,35,0,down,1.5651225999999951,None,space,0.4171913999999788,None,,,,,,,,,0,35,35,35,860.0249433,,,,,,,,,,,,,860.0090068000001,860.0249433,860.0249433,860.0249433,861.5910103,,,,861.5980667,861.6096527,861.6096527,861.6566853,861.6569402,861.6732153,861.6732153,861.6732153,861.7565286,862.1065875,,,,,,,,,,,,,,,,,,,,,,down,1.5651225999999951,None,space,0.4171913999999788,None,P110,001,2025-02-14_08h55.25.538,posner_endo_new1,2024.2.4,60.09456480717889,2025-02-14 08h55.33.652453 +0000,
cube_r.png,0.1,-0.31,invalid,36,36,0,down,3.978523600000017,None,space,0.45523819999993975,None,,,,,,,,,0,36,36,36,862.1227044,,,,,,,,,,,,,862.1067952,862.1227044,862.1227044,862.1227044,866.1029952,,,,866.1092007,866.1208768,866.1208768,866.1687146,866.1689614000001,866.1850798,866.1850798,866.1850798,866.2685187,866.6521446,,,,,,,,,,,,,,,,,,,,,,down,3.978523600000017,None,space,0.45523819999993975,None,P110,001,2025-02-14_08h55.25.538,posner_endo_new1,2024.2.4,60.09456480717889,2025-02-14 08h55.33.652453 +0000,
cube_l.png,0.1,0.31,invalid,37,37,0,down,3.5132666000000654,None,space,0.4358113000000685,None,,,,,,,,,0,37,37,37,866.6680068000001,,,,,,,,,,,,,866.6523231,866.6680068000001,866.6680068000001,866.6680068000001,870.1820693,,,,870.1882423,870.1999073000001,870.1999073000001,870.2478293,870.2480668000001,870.2642167,870.2642167,870.2642167,870.3473991,870.7146853,,,,,,,,,,,,,,,,,,,,,,down,3.5132666000000654,None,space,0.4358113000000685,None,P110,001,2025-02-14_08h55.25.538,posner_endo_new1,2024.2.4,60.09456480717889,2025-02-14 08h55.33.652453 +0000,
cube_l.png,0.1,0.31,invalid,38,38,0,down,3.747336500000074,None,space,0.5086995999999999,None,,,,,,,,,0,38,38,38,870.7304739,,,,,,,,,,,,,870.7148807,870.7304739,870.7304739,870.7304739,874.4943065,,,,874.5004421,874.512047,874.512047,874.5600756,874.5603119,874.5766963,874.5766963,874.5766963,874.6598875,875.0939517,,,,,,,,,,,,,,,,,,,,,,down,3.747336500000074,None,space,0.5086995999999999,None,P110,001,2025-02-14_08h55.25.538,posner_endo_new1,2024.2.4,60.09456480717889,2025-02-14 08h55.33.652453 +0000,
cube_r.png,0.1,0.31,valid,39,39,0,down,2.7924125000000686,None,space,0.4085006999999905,None,,,,,,,,,0,39,39,39,875.1092814,,,,,,,,,,,,,875.0941399,875.1092814,875.1092814,875.1092814,877.9076853,,,,877.9205351,877.9307713000001,877.9307713000001,877.9729001000001,877.9733053,877.9893771,877.9893771,877.9893771,878.0726133000001,878.4071074,,,,,,,,,,,,,,,,,,,,,,down,2.7924125000000686,None,space,0.4085006999999905,None,P110,001,2025-02-14_08h55.25.538,posner_endo_new1,2024.2.4,60.09456480717889,2025-02-14 08h55.33.652453 +0000,
cube_l.png,0.1,0.31,invalid,40,40,0,down,3.158962400000064,None,space,0.47503500000004806,None,,,,,,,,,0,40,40,40,878.4222746,,,,,,,,,,,,,878.4074551,878.4222746,878.4222746,878.4222746,881.5872495,,,,881.6000270000001,881.6104383,881.6104383,881.6529564,881.6532285000001,881.6694074000001,881.6694074000001,881.6694074000001,881.7527858,882.153057,,,,,,,,,,,,,,,,,,,,,,down,3.158962400000064,None,space,0.47503500000004806,None,P110,001,2025-02-14_08h55.25.538,posner_endo_new1,2024.2.4,60.09456480717889,2025-02-14 08h55.33.652453 +0000,
cube_l.png,0.1,10,catch,41,41,0,down,3.1726591000000326,None,None,,,,,,,,,,,0,41,41,41,882.1687658,,,,,,,,,,,,,882.1532774,882.1687658,882.1687658,882.1687658,885.3500439000001,,,,885.358022,885.3684757,885.3684757,885.4156247,885.4159118,885.4320875,885.4320875,885.4320875,885.5153561,888.4296088,,,,887.5296598,888.4456603,888.4456603,888.4456603,,,,,,,,,,,,,,,down,3.1726591000000326,None,None,,,P110,001,2025-02-14_08h55.25.538,posner_endo_new1,2024.2.4,60.09456480717889,2025-02-14 08h55.33.652453 +0000,
cube_l.png,0.1,-0.31,valid,42,42,0,down,0.8237616999999773,None,space,0.4971751000000495,None,,,,,,,,,0,42,42,42,888.4456603,,,,,,,,,,,,,888.4298252,888.4456603,888.4456603,888.4456603,889.2792812,,,,889.2871867,889.2979649,889.2979649,889.3451123,889.3453494,889.3610637,889.3610637,889.3610637,889.4448329,889.8620253,,,,,,,,,,,,,,,,,,,,,,down,0.8237616999999773,None,space,0.4971751000000495,None,P110,001,2025-02-14_08h55.25.538,posner_endo_new1,2024.2.4,60.09456480717889,2025-02-14 08h55.33.652453 +0000,
cube_l.png,0.1,10,catch,43,43,0,down,2.5283997000000227,None,None,,,,,,,,,,,0,43,43,43,889.8776527,,,,,,,,,,,,,889.8622111,889.8776527,889.8776527,889.8776527,892.4090488,,,,892.415183,892.4267901000001,892.4267901000001,892.4751659,892.4754008,892.4916454,892.4916454,892.4916454,892.5582778,895.489062,,,,894.5728703,895.5051711,895.5051711,895.5051711,,,,,,,,,,,,,,,down,2.5283997000000227,None,None,,,P110,001,2025-02-14_08h55.25.538,posner_endo_new1,2024.2.4,60.09456480717889,2025-02-14 08h55.33.652453 +0000,
cube_l.png,0.1,0.31,invalid,44,44,0,down,0.8368547999999691,None,space,0.47888269999998556,None,,,,,,,,,0,44,44,44,895.5051711,,,,,,,,,,,,,895.489235,895.5051711,895.5051711,895.5051711,896.3551171,,,,896.3613091,896.3727026,896.3727026,896.4206286,896.4208633000001,896.4376033,896.4376033,896.4376033,896.5042057,896.9209453,,,,,,,,,,,,,,,,,,,,,,down,0.8368547999999691,None,space,0.47888269999998556,None,P110,001,2025-02-14_08h55.25.538,posner_endo_new1,2024.2.4,60.09456480717889,2025-02-14 08h55.33.652453 +0000,
cube_l.png,0.1,0.31,invalid,45,45,0,down,3.0932215999999926,None,space,0.5993571000000202,None,,,,,,,,,0,45,45,45,896.9371453,,,,,,,,,,,,,896.9211321,896.9371453,896.9371453,896.9371453,900.035889,,,,900.0547385,900.0660112,900.0660112,900.1004547,900.1007472,900.117327,900.117327,900.117327,900.2004894,900.7176916,,,,,,,,,,,,,,,,,,,,,,down,3.0932215999999926,None,space,0.5993571000000202,None,P110,001,2025-02-14_08h55.25.538,posner_endo_new1,2024.2.4,60.09456480717889,2025-02-14 08h55.33.652453 +0000,
cube_r.png,0.1,0.31,valid,46,46,0,down,3.6565810999999258,None,space,0.5054088000000547,None,,,,,,,,,0,46,46,46,900.7331495,,,,,,,,,,,,,900.7179238,900.7331495,900.7331495,900.7331495,904.3971864,,,,904.4060894,904.4165377,904.4165377,904.4629630000001,904.4632712,904.4789416,904.4789416,904.4789416,904.5624366,904.9965506,,,,,,,,,,,,,,,,,,,,,,down,3.6565810999999258,None,space,0.5054088000000547,None,P110,001,2025-02-14_08h55.25.538,posner_endo_new1,2024.2.4,60.09456480717889,2025-02-14 08h55.33.652453 +0000,
cube_l.png,0.1,-0.31,valid,47,47,0,down,2.4815602999999555,None,space,0.4753124999999727,None,,,,,,,,,0,47,47,47,905.0119971,,,,,,,,,,,,,904.9967989,905.0119971,905.0119971,905.0119971,907.5105502,,,,907.5194886,907.5296373,907.5296373,907.5763883,907.5766896,907.5930205,907.5930205,907.5930205,907.6757727,908.07671,,,,,,,,,,,,,,,,,,,,,,down,2.4815602999999555,None,space,0.4753124999999727,None,P110,001,2025-02-14_08h55.25.538,posner_endo_new1,2024.2.4,60.09456480717889,2025-02-14 08h55.33.652453 +0000,
cube_r.png,0.1,-0.31,invalid,48,48,0,down,3.881646700000033,None,space,0.47640960000001087,None,,,,,,,,,0,48,48,48,908.0921986,,,,,,,,,,,,,908.0769643,908.0921986,908.0921986,908.0921986,911.9894745,,,,911.9981332,912.0081142,912.0081142,912.0551782,912.0554044,912.0716148,912.0716148,912.0716148,912.1549094000001,912.5550594,,,,,,,,,,,,,,,,,,,,,,down,3.881646700000033,None,space,0.47640960000001087,None,P110,001,2025-02-14_08h55.25.538,posner_endo_new1,2024.2.4,60.09456480717889,2025-02-14 08h55.33.652453 +0000,
cube_r.png,0.1,10,catch,49,49,0,down,3.6424414000000525,None,None,,,,,,,,,,,0,49,49,49,912.5710544,,,,,,,,,,,,,912.5552499,912.5710544,912.5710544,912.5710544,916.2184557,,,,916.2246035000001,916.236613,916.236613,916.2840977,916.2843384,916.3006021,916.3006021,916.3006021,916.3838936,919.2981299,,,,918.3984914,919.3144166,919.3144166,919.3144166,,,,,,,,,,,,,,,down,3.6424414000000525,None,None,,,P110,001,2025-02-14_08h55.25.538,posner_endo_new1,2024.2.4,60.09456480717889,2025-02-14 08h55.33.652453 +0000,
cube_l.png,0.1,-0.31,valid,50,50,0,down,0.6992453999999952,None,space,0.622165500000051,None,,,,,,,,,0,50,50,50,919.3144166,,,,,,,,,,,,,919.298304,919.3144166,919.3144166,919.3144166,920.0144739,,,,920.0206109000001,920.0321331,920.0321331,920.0799817,920.0802187,920.0967129,920.0967129,920.0967129,920.1799718,920.7302563000001,,,,,,,,,,,,,,,,,,,,,,down,0.6992453999999952,None,space,0.622165500000051,None,P110,001,2025-02-14_08h55.25.538,posner_endo_new1,2024.2.4,60.09456480717889,2025-02-14 08h55.33.652453 +0000,
cube_l.png,0.1,-0.31,valid,51,51,0,down,3.2200960000000123,None,space,0.4528395999999475,None,,,,,,,,,0,51,51,51,920.745916,,,,,,,,,,,,,920.7304514,920.745916,920.745916,920.745916,923.9766950000001,,,,923.9827785,923.9942832,923.9942832,924.0428475,924.0430871,924.0593321,924.0593321,924.0593321,924.1424897,924.5264747,,,,,,,,,,,,,,,,,,,,,,down,3.2200960000000123,None,space,0.4528395999999475,None,P110,001,2025-02-14_08h55.25.538,posner_endo_new1,2024.2.4,60.09456480717889,2025-02-14 08h55.33.652453 +0000,
cube_r.png,0.1,-0.31,invalid,52,52,0,down,4.102798099999973,None,space,0.44447920000004615,None,,,,,,,,,0,52,52,52,924.5422498,,,,,,,,,,,,,924.5266673,924.5422498,924.5422498,924.5422498,928.6555311,,,,928.6615922,928.6731585,928.6731585,928.7214699,928.7217072,928.7378618,928.7378618,928.7378618,928.8211118,929.1881256,,,,,,,,,,,,,,,,,,,,,,down,4.102798099999973,None,space,0.44447920000004615,None,P110,001,2025-02-14_08h55.25.538,posner_endo_new1,2024.2.4,60.09456480717889,2025-02-14 08h55.33.652453 +0000,
cube_l.png,0.1,-0.31,valid,53,53,0,down,3.746048299999984,None,space,0.4189435000000685,None,,,,,,,,,0,53,53,53,929.2040394,,,,,,,,,,,,,929.1883109,929.2040394,929.2040394,929.2040394,932.9512990000001,,,,932.9574345,932.968939,932.968939,933.0169616000001,933.0171975000001,933.033526,933.033526,933.033526,933.1166232,933.4670653000001,,,,,,,,,,,,,,,,,,,,,,down,3.746048299999984,None,space,0.4189435000000685,None,P110,001,2025-02-14_08h55.25.538,posner_endo_new1,2024.2.4,60.09456480717889,2025-02-14 08h55.33.652453 +0000,
cube_r.png,0.1,10,catch,54,54,0,down,3.106973299999936,None,None,,,,,,,,,,,0,54,54,54,933.4829998,,,,,,,,,,,,,933.4672576,933.4829998,933.4829998,933.4829998,936.5970267,,,,936.6031043,936.6145889000001,936.6145889000001,936.6631099,936.6633501,936.679697,936.679697,936.679697,936.7465309,939.6771668,,,,938.7609538,939.6933714,939.6933714,939.6933714,,,,,,,,,,,,,,,down,3.106973299999936,None,None,,,P110,001,2025-02-14_08h55.25.538,posner_endo_new1,2024.2.4,60.09456480717889,2025-02-14 08h55.33.652453 +0000,
cube_l.png,0.1,0.31,invalid,55,55,0,down,0.91989389999992,None,space,0.6152736000000232,None,,,,,,,,,0,55,55,55,939.6933714,,,,,,,,,,,,,939.6773402,939.6933714,939.6933714,939.6933714,940.626724,,,,940.6329285,940.6446766,940.6446766,940.6923286,940.6925663000001,940.7089204,940.7089204,940.7089204,940.7921406,941.3260223,,,,,,,,,,,,,,,,,,,,,,down,0.91989389999992,None,space,0.6152736000000232,None,P110,001,2025-02-14_08h55.25.538,posner_endo_new1,2024.2.4,60.09456480717889,2025-02-14 08h55.33.652453 +0000,
cube_l.png,0.1,-0.31,valid,56,56,0,down,2.9046701999999414,None,space,0.48378619999994044,None,,,,,,,,,0,56,56,56,941.3417363,,,,,,,,,,,,,941.3262121,941.3417363,941.3417363,941.3417363,944.2560956,,,,944.2622368,944.2738088,944.2738088,944.321963,944.3221989,944.3386473,944.3386473,944.3386473,944.4048814,944.838789,,,,,,,,,,,,,,,,,,,,,,down,2.9046701999999414,None,space,0.48378619999994044,None,P110,001,2025-02-14_08h55.25.538,posner_endo_new1,2024.2.4,60.09456480717889,2025-02-14 08h55.33.652453 +0000,
cube_r.png,0.1,0.31,valid,57,57,0,down,2.814958499999989,None,space,0.4588483999999653,None,,,,,,,,,0,57,57,57,944.8547614,,,,,,,,,,,,,944.8389852,944.8547614,944.8547614,944.8547614,947.6859702,,,,947.6920923,947.7036817000001,947.7036817000001,947.7518288,947.7520728000001,947.7682677,947.7682677,947.7682677,947.8516701,948.2353679,,,,,,,,,,,,,,,,,,,,,,down,2.814958499999989,None,space,0.4588483999999653,None,P110,001,2025-02-14_08h55.25.538,posner_endo_new1,2024.2.4,60.09456480717889,2025-02-14 08h55.33.652453 +0000,
cube_r.png,0.1,-0.31,invalid,58,58,0,down,2.8982002000000193,None,space,0.3864350999999715,None,,,,,,,,,0,58,58,58,948.2511692,,,,,,,,,,,,,948.2355521000001,948.2511692,948.2511692,948.2511692,951.1657829000001,,,,951.1719159,951.1832022,951.1832022,951.2319174,951.2321631,951.2479039,951.2479039,951.2479039,951.331511,951.6485036,,,,,,,,,,,,,,,,,,,,,,down,2.8982002000000193,None,space,0.3864350999999715,None,P110,001,2025-02-14_08h55.25.538,posner_endo_new1,2024.2.4,60.09456480717889,2025-02-14 08h55.33.652453 +0000,
cube_l.png,0.1,0.31,invalid,59,59,0,down,2.4215524999999616,None,space,0.45377590000009604,None,,,,,,,,,0,59,59,59,951.664358,,,,,,,,,,,,,951.6486974000001,951.664358,951.664358,951.664358,954.0959621000001,,,,954.1020257,954.1136663,954.1136663,954.162003,954.162238,954.1783806,954.1783806,954.1783806,954.2616676,954.6452863000001,,,,,,,,,,,,,,,,,,,,,,down,2.4215524999999616,None,space,0.45377590000009604,None,P110,001,2025-02-14_08h55.25.538,posner_endo_new1,2024.2.4,60.09456480717889,2025-02-14 08h55.33.652453 +0000,
