cue_img,cue_soa,target_y,trial,thisN,thisTrialN,thisRepN,key_control2.keys,key_control2.rt,key_control2.duration,key_resp.keys,key_resp.rt,key_resp.duration,practice.thisRepN,practice.thisTrialN,practice.thisN,practice.thisIndex,block1.thisRepN,block1.thisTrialN,block1.thisN,block1.thisIndex,block2.thisRepN,block2.thisTrialN,block2.thisN,block2.thisIndex,thisRow.t,notes,instructions.started,instructions_txt.started,key_control.started,instructions.stopped,key_control.keys,key_control.rt,key_control.duration,ready.started,ready_txt.started,ready_txt.stopped,ready.stopped,fix.started,fixation.started,key_control2.started,fixation_cross.started,fix.stopped,practice.key_control2.keys,practice.key_control2.rt,practice.key_control2.duration,cue.started,cube.started,fixation_cross_cue.started,cue.stopped,target.started,fixation_target.started,fixation_cross_target.started,key_resp.started,star.started,target.stopped,practice.key_resp.keys,practice.key_resp.rt,practice.key_resp.duration,star.stopped,fixation_target.stopped,fixation_cross_target.stopped,key_resp.stopped,block1.key_control2.keys,block1.key_control2.rt,block1.key_control2.duration,block1.key_resp.keys,block1.key_resp.rt,block1.key_resp.duration,break_2.started,text.started,key_control3.started,text.stopped,break_2.stopped,key_control3.keys,key_control3.rt,key_control3.duration,block2.key_control2.keys,block2.key_control2.rt,block2.key_control2.duration,block2.key_resp.keys,block2.key_resp.rt,block2.key_resp.duration,participant,session,date,expName,psychopyVersion,frameRate,expStart,
,,,,,,,,,,,,,,,,,,,,,,,,,,,0.007451299999956973,0.02816010000060487,0.02816010000060487,1263.9205995000002,up,1263.8852290999994,None,,,,,,,,,,,,,,,,,,,,,,,,,,,,,,,,,,,,,,,,,,,,,,,,,,P111,001,2025-02-14_10h24.21.395,posner_endo_new1,2024.2.4,60.06060114664294,2025-02-14 10h24.35.322989 +0000,
,,,,,,,,,,,,,,,,,,,,,,,,,,,,,,,,,,1263.92065,1263.9362565000001,1266.9363894000007,1266.9170956000007,,,,,,,,,,,,,,,,,,,,,,,,,,,,,,,,,,,,,,,,,,,,,,P111,001,2025-02-14_10h24.21.395,posner_endo_new1,2024.2.4,60.06060114664294,2025-02-14 10h24.35.322989 +0000,
cube_l.png,0.1,-0.31,valid,0,0,0,down,15.961044499999844,None,space,0.6359626000003118,None,0,0,0,0,,,,,,,,,1266.9363894000007,,,,,,,,,,,,,1266.9244189,1266.9363894000007,1266.9363894000007,1266.9363894000007,1282.9011364000007,down,15.961044499999844,None,1282.9112711000007,1282.921703,1282.921703,1282.9670957000008,1282.9673336000005,1282.9835723000006,1282.9835723000006,1282.9835723000006,1283.0665422000002,1283.6337069,space,0.6359626000003118,None,,,,,,,,,,,,,,,,,,,,,,,,,P111,001,2025-02-14_10h24.21.395,posner_endo_new1,2024.2.4,60.06060114664294,2025-02-14 10h24.35.322989 +0000,
cube_l.png,0.1,0.31,invalid,1,1,0,down,5.60905670000011,None,space,0.529810400000315,None,0,1,1,1,,,,,,,,,1283.6495189000007,,,,,,,,,,,,,1283.6338828000007,1283.6495189000007,1283.6495189000007,1283.6495189000007,1289.2613688000001,down,5.60905670000011,None,1289.2682110000005,1289.2801484000001,1289.2801484000001,1289.3272190000007,1289.3274598000007,1289.3437173000002,1289.3437173000002,1289.3437173000002,1289.4268483000005,1289.8771923000004,space,0.529810400000315,None,,,,,,,,,,,,,,,,,,,,,,,,,P111,001,2025-02-14_10h24.21.395,posner_endo_new1,2024.2.4,60.06060114664294,2025-02-14 10h24.35.322989 +0000,
cube_r.png,0.1,-0.31,invalid,2,2,0,down,6.380778900000223,None,space,0.3492092999995293,None,0,2,2,2,,,,,,,,,1289.8930596,,,,,,,,,,,,,1289.8773704000005,1289.8930596,1289.8930596,1289.8930596,1296.287418,down,6.380778900000223,None,1296.2938705000006,1296.3054725000002,1296.3054725000002,1296.3534285000005,1296.3536668000006,1296.3699046000002,1296.3699046000002,1296.3699046000002,1296.4527521,1296.7203634000007,space,0.3492092999995293,None,,,,,,,,,,,,,,,,,,,,,,,,,P111,001,2025-02-14_10h24.21.395,posner_endo_new1,2024.2.4,60.06060114664294,2025-02-14 10h24.35.322989 +0000,
cube_r.png,0.1,10,catch,3,3,0,down,6.3219608999997945,None,None,,,0,3,3,3,,,,,,,,,1296.7360936000005,,,,,,,,,,,,,1296.7205456000002,1296.7360936000005,1296.7360936000005,1296.7360936000005,1303.0638322000004,down,6.3219608999997945,None,1303.0699923000002,1303.0816591000003,1303.0816591000003,1303.1296961000007,1303.1299345000007,1303.1461307,1303.1461307,1303.1461307,1303.2294069,1306.1436170000006,None,,,1305.2441294,1306.1598399000004,1306.1598399000004,1306.1598399000004,,,,,,,,,,,,,,,,,,,,,P111,001,2025-02-14_10h24.21.395,posner_endo_new1,2024.2.4,60.06060114664294,2025-02-14 10h24.35.322989 +0000,
cube_l.png,0.1,-0.31,valid,4,4,0,down,2.5295046000001093,None,space,0.5581193000007261,None,0,4,4,4,,,,,,,,,1306.1598399000004,,,,,,,,,,,,,1306.1437824000004,1306.1598399000004,1306.1598399000004,1306.1598399000004,1308.6916373000004,down,2.5295046000001093,None,1308.6979557000004,1308.7096486,1308.7096486,1308.7573815000005,1308.7576295,1308.7736931,1308.7736931,1308.7736931,1308.8569529000006,1309.3408722000004,space,0.5581193000007261,None,,,,,,,,,,,,,,,,,,,,,,,,,P111,001,2025-02-14_10h24.21.395,posner_endo_new1,2024.2.4,60.06060114664294,2025-02-14 10h24.35.322989 +0000,
cube_l.png,0.1,0.31,invalid,5,5,0,down,6.365244700000403,None,space,0.588672800000495,None,0,5,5,5,,,,,,,,,1309.3564898000004,,,,,,,,,,,,,1309.3410498000003,1309.3564898000004,1309.3564898000004,1309.3564898000004,1315.7341739000003,down,6.365244700000403,None,1315.7404371000002,1315.7520202000005,1315.7520202000005,1315.8000793,1315.8003173000006,1315.8165866,1315.8165866,1315.8165866,1315.8830931000002,1316.4169462,space,0.588672800000495,None,,,,,,,,,,,,,,,,,,,,,,,,,P111,001,2025-02-14_10h24.21.395,posner_endo_new1,2024.2.4,60.06060114664294,2025-02-14 10h24.35.322989 +0000,
cube_r.png,0.1,-0.31,invalid,6,6,0,down,5.84163769999941,None,space,0.4748546000000715,None,0,6,6,6,,,,,,,,,1316.4325144000004,,,,,,,,,,,,,1316.4171206,1316.4325144000004,1316.4325144000004,1316.4325144000004,1322.2773629000003,down,5.84163769999941,None,1322.2835884000006,1322.2951487,1322.2951487,1322.3434666000003,1322.3437087000002,1322.3597762,1322.3597762,1322.3597762,1322.4263125000007,1322.8434425000005,space,0.4748546000000715,None,,,,,,,,,,,,,,,,,,,,,,,,,P111,001,2025-02-14_10h24.21.395,posner_endo_new1,2024.2.4,60.06060114664294,2025-02-14 10h24.35.322989 +0000,
cube_r.png,0.1,0.31,valid,7,7,0,down,4.606775500000367,None,space,0.48022930000024644,None,0,7,7,7,,,,,,,,,1322.8594232000005,,,,,,,,,,,,,1322.8436228,1322.8594232000005,1322.8594232000005,1322.8594232000005,1327.4722030000003,down,4.606775500000367,None,1327.4784306000001,1327.4898932000006,1327.4898932000006,1327.538144,1327.5383893000007,1327.5545115000004,1327.5545115000004,1327.5545115000004,1327.6377506,1328.0383673000006,space,0.48022930000024644,None,,,,,,,,,,,,,,,,,,,,,,,,,P111,001,2025-02-14_10h24.21.395,posner_endo_new1,2024.2.4,60.06060114664294,2025-02-14 10h24.35.322989 +0000,
cube_l.png,0.1,-0.31,valid,8,8,0,down,5.892042499999661,None,space,0.4991788999996061,None,0,8,8,8,,,,,,,,,1328.0540768,,,,,,,,,,,,,1328.0385382000004,1328.0540768,1328.0540768,1328.0540768,1333.9489224,down,5.892042499999661,None,1333.9550557000002,1333.9666012000007,1333.9666012000007,1334.0147328000003,1334.0149757,1334.0312862,1334.0312862,1334.0312862,1334.1145195,1334.5317050000003,space,0.4991788999996061,None,,,,,,,,,,,,,,,,,,,,,,,,,P111,001,2025-02-14_10h24.21.395,posner_endo_new1,2024.2.4,60.06060114664294,2025-02-14 10h24.35.322989 +0000,
cube_r.png,0.1,-0.31,invalid,9,9,0,down,5.677766000000702,None,space,0.6443834000001516,None,0,9,9,9,,,,,,,,,1334.5473918000007,,,,,,,,,,,,,1334.5318786000007,1334.5473918000007,1334.5473918000007,1334.5473918000007,1340.2259713000003,down,5.677766000000702,None,1340.2323507,1340.2438993000005,1340.2438993000005,1340.2916259000003,1340.2918640000007,1340.3082307000004,1340.3082307000004,1340.3082307000004,1340.3914017000006,1340.9583619000005,space,0.6443834000001516,None,,,,,,,,,,,,,,,,,,,,,,,,,P111,001,2025-02-14_10h24.21.395,posner_endo_new1,2024.2.4,60.06060114664294,2025-02-14 10h24.35.322989 +0000,
cube_r.png,0.1,0.31,valid,10,10,0,down,5.435066500000175,None,space,0.374036299999716,None,0,10,10,10,,,,,,,,,1340.9741830000003,,,,,,,,,,,,,1340.9585336999999,1340.9741830000003,1340.9741830000003,1340.9741830000003,1346.4194726000005,down,5.435066500000175,None,1346.4256172000005,1346.4372407,1346.4372407,1346.4853193,1346.4855652000006,1346.5018639,1346.5018639,1346.5018639,1346.5851435000004,1346.8855409000007,space,0.374036299999716,None,,,,,,,,,,,,,,,,,,,,,,,,,P111,001,2025-02-14_10h24.21.395,posner_endo_new1,2024.2.4,60.06060114664294,2025-02-14 10h24.35.322989 +0000,
,,,,,,,,,,,,,,,,,,,,,,,,,,,,,,,,,,1346.8856596000005,1346.9012866000003,1349.901796,1349.8820766,,,,,,,,,,,,,,,,,,,,,,,,,,,,,,,,,,,,,,,,,,,,,,P111,001,2025-02-14_10h24.21.395,posner_endo_new1,2024.2.4,60.06060114664294,2025-02-14 10h24.35.322989 +0000,
cube_l.png,0.1,10,catch,0,0,0,down,14.164288799999667,None,None,,,,,,,0,0,0,0,,,,,1349.901796,,,,,,,,,,,,,1349.8930117,1349.901796,1349.901796,1349.901796,1364.0680622,,,,1364.0744306000006,1364.0860614000003,1364.0860614000003,1364.1339174000004,1364.1341609,1364.1504095999999,1364.1504095999999,1364.1504095999999,1364.2337183,1367.1478758000003,,,,1366.2482496000002,1367.1640549000003,1367.1640549000003,1367.1640549000003,down,14.164288799999667,None,None,,,,,,,,,,,,,,,,,P111,001,2025-02-14_10h24.21.395,posner_endo_new1,2024.2.4,60.06060114664294,2025-02-14 10h24.35.322989 +0000,
cube_l.png,0.1,10,catch,1,1,0,down,3.0772758000002796,None,None,,,,,,,0,1,1,1,,,,,1367.1640549000003,,,,,,,,,,,,,1367.1480474,1367.1640549000003,1367.1640549000003,1367.1640549000003,1370.2450206000003,,,,1370.2513131000005,1370.2629047,1370.2629047,1370.3108612000005,1370.3110990000005,1370.3275522000004,1370.3275522000004,1370.3275522000004,1370.4106322000007,1373.3249848000005,,,,1372.4251813,1373.3409454000002,1373.3409454000002,1373.3409454000002,down,3.0772758000002796,None,None,,,,,,,,,,,,,,,,,P111,001,2025-02-14_10h24.21.395,posner_endo_new1,2024.2.4,60.06060114664294,2025-02-14 10h24.35.322989 +0000,
cube_l.png,0.1,0.31,invalid,2,2,0,down,2.7890761999997267,None,space,0.40912179999941145,None,,,,,0,2,2,2,,,,,1373.3409454000002,,,,,,,,,,,,,1373.3251568000005,1373.3409454000002,1373.3409454000002,1373.3409454000002,1376.1387732000003,,,,1376.1449109000005,1376.1563766,1376.1563766,1376.2047031000002,1376.2049379,1376.2214452000007,1376.2214452000007,1376.2214452000007,1376.2879451,1376.6383779000007,,,,,,,,down,2.7890761999997267,None,space,0.40912179999941145,None,,,,,,,,,,,,,,,P111,001,2025-02-14_10h24.21.395,posner_endo_new1,2024.2.4,60.06060114664294,2025-02-14 10h24.35.322989 +0000,
cube_l.png,0.1,0.31,invalid,3,3,0,down,6.083501200000683,None,space,0.37159969999993336,None,,,,,0,3,3,3,,,,,1376.6541992000002,,,,,,,,,,,,,1376.6385587000004,1376.6541992000002,1376.6541992000002,1376.6541992000002,1382.7488331000004,,,,1382.7549417,1382.7663800999999,1382.7663800999999,1382.8148608000001,1382.8151011,1382.8311637000006,1382.8311637000006,1382.8311637000006,1382.9145865,1383.2150202000003,,,,,,,,down,6.083501200000683,None,space,0.37159969999993336,None,,,,,,,,,,,,,,,P111,001,2025-02-14_10h24.21.395,posner_endo_new1,2024.2.4,60.06060114664294,2025-02-14 10h24.35.322989 +0000,
cube_l.png,0.1,-0.31,valid,4,4,0,down,6.402416699999776,None,space,0.44999039999947854,None,,,,,0,4,4,4,,,,,1383.2309073000006,,,,,,,,,,,,,1383.2152140000007,1383.2309073000006,1383.2309073000006,1383.2309073000006,1389.6415729,,,,1389.6480131000008,1389.6596504,1389.6596504,1389.7076557,1389.7079011000005,1389.7242094000003,1389.7242094000003,1389.7242094000003,1389.7909262000003,1390.1912214000004,,,,,,,,down,6.402416699999776,None,space,0.44999039999947854,None,,,,,,,,,,,,,,,P111,001,2025-02-14_10h24.21.395,posner_endo_new1,2024.2.4,60.06060114664294,2025-02-14 10h24.35.322989 +0000,
cube_r.png,0.1,-0.31,invalid,5,5,0,down,5.939010199999757,None,space,0.37273499999992055,None,,,,,0,5,5,5,,,,,1390.2070502000006,,,,,,,,,,,,,1390.1914031000006,1390.2070502000006,1390.2070502000006,1390.2070502000006,1396.1519824000006,,,,1396.1583137000007,1396.1698884000007,1396.1698884000007,1396.2176759000004,1396.2179171000007,1396.2341258000006,1396.2341258000006,1396.2341258000006,1396.3173690000003,1396.6180047000007,,,,,,,,down,5.939010199999757,None,space,0.37273499999992055,None,,,,,,,,,,,,,,,P111,001,2025-02-14_10h24.21.395,posner_endo_new1,2024.2.4,60.06060114664294,2025-02-14 10h24.35.322989 +0000,
cube_r.png,0.1,0.31,valid,6,6,0,down,5.400106600000072,None,space,0.41629439999996976,None,,,,,0,6,6,6,,,,,1396.6338210000004,,,,,,,,,,,,,1396.6181929000004,1396.6338210000004,1396.6338210000004,1396.6338210000004,1402.0459149000008,,,,1402.0521133000002,1402.0639483000004,1402.0639483000004,1402.1116693000004,1402.1119066,1402.1282792000002,1402.1282792000002,1402.1282792000002,1402.2114577000002,1402.5453817000007,,,,,,,,down,5.400106600000072,None,space,0.41629439999996976,None,,,,,,,,,,,,,,,P111,001,2025-02-14_10h24.21.395,posner_endo_new1,2024.2.4,60.06060114664294,2025-02-14 10h24.35.322989 +0000,
cube_r.png,0.1,-0.31,invalid,7,7,0,down,6.096629399999983,None,space,0.40614779999941675,None,,,,,0,7,7,7,,,,,1402.5614340000002,,,,,,,,,,,,,1402.5455699000004,1402.5614340000002,1402.5614340000002,1402.5614340000002,1408.6723153000003,,,,1408.6784714000005,1408.6900315000003,1408.6900315000003,1408.7381119000001,1408.7383507000004,1408.7548266000003,1408.7548266000003,1408.7548266000003,1408.8380463000003,1409.1717475000005,,,,,,,,down,6.096629399999983,None,space,0.40614779999941675,None,,,,,,,,,,,,,,,P111,001,2025-02-14_10h24.21.395,posner_endo_new1,2024.2.4,60.06060114664294,2025-02-14 10h24.35.322989 +0000,
cube_l.png,0.1,-0.31,valid,8,8,0,down,6.653838300000643,None,space,0.4976269999997385,None,,,,,0,8,8,8,,,,,1409.1876302,,,,,,,,,,,,,1409.1719343000004,1409.1876302,1409.1876302,1409.1876302,1415.8483506000002,,,,1415.8545119,1415.8660713,1415.8660713,1415.9141174000006,1415.9143573000001,1415.930816,1415.930816,1415.930816,1416.0138235000004,1416.4311542000005,,,,,,,,down,6.653838300000643,None,space,0.4976269999997385,None,,,,,,,,,,,,,,,P111,001,2025-02-14_10h24.21.395,posner_endo_new1,2024.2.4,60.06060114664294,2025-02-14 10h24.35.322989 +0000,
cube_r.png,0.1,-0.31,invalid,9,9,0,down,6.40307379999922,None,space,0.4586404000001494,None,,,,,0,9,9,9,,,,,1416.4468332000006,,,,,,,,,,,,,1416.4313358,1416.4468332000006,1416.4468332000006,1416.4468332000006,1422.8577672000001,,,,1422.8639366000007,1422.8756246000003,1422.8756246000003,1422.9235911000005,1422.9238376000003,1422.9402208000001,1422.9402208000001,1422.9402208000001,1423.0232644000007,1423.4072673,,,,,,,,down,6.40307379999922,None,space,0.4586404000001494,None,,,,,,,,,,,,,,,P111,001,2025-02-14_10h24.21.395,posner_endo_new1,2024.2.4,60.06060114664294,2025-02-14 10h24.35.322989 +0000,
cube_l.png,0.1,0.31,invalid,10,10,0,down,5.6588676000001215,None,space,0.4671768999996857,None,,,,,0,10,10,10,,,,,1423.4231427000004,,,,,,,,,,,,,1423.4074512000007,1423.4231427000004,1423.4231427000004,1423.4231427000004,1429.0848249,,,,1429.0909095000006,1429.1023534000005,1429.1023534000005,1429.1505135000007,1429.1507522000002,1429.1671633000005,1429.1671633000005,1429.1671633000005,1429.2503981,1429.6506982,,,,,,,,down,5.6588676000001215,None,space,0.4671768999996857,None,,,,,,,,,,,,,,,P111,001,2025-02-14_10h24.21.395,posner_endo_new1,2024.2.4,60.06060114664294,2025-02-14 10h24.35.322989 +0000,
cube_r.png,0.1,-0.31,invalid,11,11,0,down,6.311601200000041,None,space,0.37814109999999346,None,,,,,0,11,11,11,,,,,1429.6666439,,,,,,,,,,,,,1429.6508791000006,1429.6666439,1429.6666439,1429.6666439,1435.9940880000004,,,,1436.0003755000007,1436.0121384000004,1436.0121384000004,1436.0606455000006,1436.0608921000003,1436.0766546000004,1436.0766546000004,1436.0766546000004,1436.1434497,1436.4605087,,,,,,,,down,6.311601200000041,None,space,0.37814109999999346,None,,,,,,,,,,,,,,,P111,001,2025-02-14_10h24.21.395,posner_endo_new1,2024.2.4,60.06060114664294,2025-02-14 10h24.35.322989 +0000,
cube_r.png,0.1,0.31,valid,12,12,0,down,6.693262099999629,None,space,0.4292041999997309,None,,,,,0,12,12,12,,,,,1436.4764055000005,,,,,,,,,,,,,1436.4606967,1436.4764055000005,1436.4764055000005,1436.4764055000005,1443.1704731,,,,1443.1766383000004,1443.1880997000007,1443.1880997000007,1443.2361313000001,1443.2363765999999,1443.2527484000002,1443.2527484000002,1443.2527484000002,1443.3358911000005,1443.6863515000005,,,,,,,,down,6.693262099999629,None,space,0.4292041999997309,None,,,,,,,,,,,,,,,P111,001,2025-02-14_10h24.21.395,posner_endo_new1,2024.2.4,60.06060114664294,2025-02-14 10h24.35.322989 +0000,
cube_l.png,0.1,10,catch,13,13,0,down,6.475604299999759,None,None,,,,,,,0,13,13,13,,,,,1443.7023879000008,,,,,,,,,,,,,1443.6865484,1443.7023879000008,1443.7023879000008,1443.7023879000008,1450.1798024,,,,1450.1858989000002,1450.1973408000003,1450.1973408000003,1450.2457870000007,1450.2460252,1450.2622791000003,1450.2622791000003,1450.2622791000003,1450.3454644000003,1453.2595608000001,,,,1452.3601945999999,1453.2757824999999,1453.2757824999999,1453.2757824999999,down,6.475604299999759,None,None,,,,,,,,,,,,,,,,,P111,001,2025-02-14_10h24.21.395,posner_endo_new1,2024.2.4,60.06060114664294,2025-02-14 10h24.35.322989 +0000,
cube_r.png,0.1,-0.31,invalid,14,14,0,down,4.693415200000345,None,space,0.5265822999999727,None,,,,,0,14,14,14,,,,,1453.2757824999999,,,,,,,,,,,,,1453.2597306000007,1453.2757824999999,1453.2757824999999,1453.2757824999999,1457.9718355000005,,,,1457.9780172,1457.9894988000005,1457.9894988000005,1458.0378753000005,1458.0381184000007,1458.0540530000007,1458.0540530000007,1458.0540530000007,1458.1374864,1458.5877768999999,,,,,,,,down,4.693415200000345,None,space,0.5265822999999727,None,,,,,,,,,,,,,,,P111,001,2025-02-14_10h24.21.395,posner_endo_new1,2024.2.4,60.06060114664294,2025-02-14 10h24.35.322989 +0000,
cube_l.png,0.1,-0.31,valid,15,15,0,down,4.790245300000606,None,space,0.44619520000014745,None,,,,,0,15,15,15,,,,,1458.6036449000003,,,,,,,,,,,,,1458.5879572000003,1458.6036449000003,1458.6036449000003,1458.6036449000003,1463.3997042,,,,1463.4058891000004,1463.4175161000003,1463.4175161000003,1463.4653697000003,1463.4656078000007,1463.4820457000005,1463.4820457000005,1463.4820457000005,1463.5655057000004,1463.9325533,,,,,,,,down,4.790245300000606,None,space,0.44619520000014745,None,,,,,,,,,,,,,,,P111,001,2025-02-14_10h24.21.395,posner_endo_new1,2024.2.4,60.06060114664294,2025-02-14 10h24.35.322989 +0000,
cube_r.png,0.1,10,catch,16,16,0,down,6.1096128999997745,None,None,,,,,,,0,16,16,16,,,,,1463.9481978000003,,,,,,,,,,,,,1463.9327413,1463.9481978000003,1463.9481978000003,1463.9481978000003,1470.0596100000002,,,,1470.0658054000005,1470.0774916999999,1470.0774916999999,1470.1251342000005,1470.1253750000005,1470.1419372,1470.1419372,1470.1419372,1470.2250276000004,1473.1394761000001,,,,1472.2396998000004,1473.1554065999999,1473.1554065999999,1473.1554065999999,down,6.1096128999997745,None,None,,,,,,,,,,,,,,,,,P111,001,2025-02-14_10h24.21.395,posner_endo_new1,2024.2.4,60.06060114664294,2025-02-14 10h24.35.322989 +0000,
cube_r.png,0.1,10,catch,17,17,0,down,3.0300225000000864,None,None,,,,,,,0,17,17,17,,,,,1473.1554065999999,,,,,,,,,,,,,1473.1396482,1473.1554065999999,1473.1554065999999,1473.1554065999999,1476.1865126000002,,,,1476.1926643000006,1476.2045016000002,1476.2045016000002,1476.2524264000003,1476.2526739000004,1476.268822,1476.268822,1476.268822,1476.3523323,1479.2665435,,,,1478.3666916000002,1479.2824771000005,1479.2824771000005,1479.2824771000005,down,3.0300225000000864,None,None,,,,,,,,,,,,,,,,,P111,001,2025-02-14_10h24.21.395,posner_endo_new1,2024.2.4,60.06060114664294,2025-02-14 10h24.35.322989 +0000,
cube_l.png,0.1,0.31,invalid,18,18,0,down,4.870822500000031,None,space,0.5159071000007316,None,,,,,0,18,18,18,,,,,1479.2824771000005,,,,,,,,,,,,,1479.2667151000005,1479.2824771000005,1479.2824771000005,1479.2824771000005,1484.1615917,,,,1484.1677405,1484.1793450000005,1484.1793450000005,1484.2275718,1484.2278128000007,1484.2440641000003,1484.2440641000003,1484.2440641000003,1484.3106116,1484.7612090000002,,,,,,,,down,4.870822500000031,None,space,0.5159071000007316,None,,,,,,,,,,,,,,,P111,001,2025-02-14_10h24.21.395,posner_endo_new1,2024.2.4,60.06060114664294,2025-02-14 10h24.35.322989 +0000,
cube_l.png,0.1,10,catch,19,19,0,down,6.168777399999271,None,None,,,,,,,0,19,19,19,,,,,1484.7768135000006,,,,,,,,,,,,,1484.761394,1484.7768135000006,1484.7768135000006,1484.7768135000006,1490.9548014000002,,,,1490.9609903,1490.9726557000004,1490.9726557000004,1491.0206736,1491.0209115000007,1491.0371919,1491.0371919,1491.0371919,1491.1204336,1494.0346149000006,,,,1493.1350222,1494.0507032000005,1494.0507032000005,1494.0507032000005,down,6.168777399999271,None,None,,,,,,,,,,,,,,,,,P111,001,2025-02-14_10h24.21.395,posner_endo_new1,2024.2.4,60.06060114664294,2025-02-14 10h24.35.322989 +0000,
cube_l.png,0.1,0.31,invalid,20,20,0,down,3.262464099999306,None,space,0.5005161999997654,None,,,,,0,20,20,20,,,,,1494.0507032000005,,,,,,,,,,,,,1494.0347894000006,1494.0507032000005,1494.0507032000005,1494.0507032000005,1497.3149671,,,,1497.3211882000005,1497.3327172,1497.3327172,1497.3807745000004,1497.3810142000002,1497.3971794,1497.3971794,1497.3971794,1497.4805014000003,1497.9142889000004,,,,,,,,down,3.262464099999306,None,space,0.5005161999997654,None,,,,,,,,,,,,,,,P111,001,2025-02-14_10h24.21.395,posner_endo_new1,2024.2.4,60.06060114664294,2025-02-14 10h24.35.322989 +0000,
cube_l.png,0.1,-0.31,valid,21,21,0,down,5.15943150000021,None,space,0.8284942000000228,None,,,,,0,21,21,21,,,,,1497.9301963000007,,,,,,,,,,,,,1497.9144700000006,1497.9301963000007,1497.9301963000007,1497.9301963000007,1503.0923448000003,,,,1503.0985874000007,1503.1101135,1503.1101135,1503.1581709000002,1503.1584119,1503.1748661000001,1503.1748661000001,1503.1748661000001,1503.2578991,1504.0080909000008,,,,,,,,down,5.15943150000021,None,space,0.8284942000000228,None,,,,,,,,,,,,,,,P111,001,2025-02-14_10h24.21.395,posner_endo_new1,2024.2.4,60.06060114664294,2025-02-14 10h24.35.322989 +0000,
cube_r.png,0.1,0.31,valid,22,22,0,down,4.9460588000001735,None,space,0.3827359000006254,None,,,,,0,22,22,22,,,,,1504.0238477000003,,,,,,,,,,,,,1504.0082886,1504.0238477000003,1504.0238477000003,1504.0238477000003,1508.9862223999999,,,,1508.9922844000002,1509.0037651000002,1509.0037651000002,1509.0522335000005,1509.0524703,1509.0687207,1509.0687207,1509.0687207,1509.1519488000004,1509.4525812000002,,,,,,,,down,4.9460588000001735,None,space,0.3827359000006254,None,,,,,,,,,,,,,,,P111,001,2025-02-14_10h24.21.395,posner_endo_new1,2024.2.4,60.06060114664294,2025-02-14 10h24.35.322989 +0000,
cube_r.png,0.1,-0.31,invalid,23,23,0,down,5.741788899999847,None,space,0.41946379999990313,None,,,,,0,23,23,23,,,,,1509.4682769,,,,,,,,,,,,,1509.4527607,1509.4682769,1509.4682769,1509.4682769,1515.2130978000005,,,,1515.2193580000003,1515.2309567000002,1515.2309567000002,1515.2792736000001,1515.2795257000007,1515.2956156999999,1515.2956156999999,1515.2956156999999,1515.362306,1515.7292905000004,,,,,,,,down,5.741788899999847,None,space,0.41946379999990313,None,,,,,,,,,,,,,,,P111,001,2025-02-14_10h24.21.395,posner_endo_new1,2024.2.4,60.06060114664294,2025-02-14 10h24.35.322989 +0000,
cube_r.png,0.1,0.31,valid,24,24,0,down,6.192487500000425,None,space,0.385702599999604,None,,,,,0,24,24,24,,,,,1515.7451967000006,,,,,,,,,,,,,1515.7294740000007,1515.7451967000006,1515.7451967000006,1515.7451967000006,1521.9393758000006,,,,1521.9455211000004,1521.9570537,1521.9570537,1522.0055886999999,1522.0058276,1522.0221107000007,1522.0221107000007,1522.0221107000007,1522.0887330000005,1522.4224445,,,,,,,,down,6.192487500000425,None,space,0.385702599999604,None,,,,,,,,,,,,,,,P111,001,2025-02-14_10h24.21.395,posner_endo_new1,2024.2.4,60.06060114664294,2025-02-14 10h24.35.322989 +0000,
cube_r.png,0.1,-0.31,invalid,25,25,0,down,6.266631999999845,None,space,0.37065179999990505,None,,,,,0,25,25,25,,,,,1522.4382996000004,,,,,,,,,,,,,1522.422635,1522.4382996000004,1522.4382996000004,1522.4382996000004,1528.7159049000002,,,,1528.7219618,1528.7335407,1528.7335407,1528.7820169000006,1528.7822609000004,1528.7986202000002,1528.7986202000002,1528.7986202000002,1528.8650773,1529.1824463000003,,,,,,,,down,6.266631999999845,None,space,0.37065179999990505,None,,,,,,,,,,,,,,,P111,001,2025-02-14_10h24.21.395,posner_endo_new1,2024.2.4,60.06060114664294,2025-02-14 10h24.35.322989 +0000,
cube_l.png,0.1,-0.31,valid,26,26,0,down,5.9469955999993545,None,space,0.3770032000002175,None,,,,,0,26,26,26,,,,,1529.1980462000001,,,,,,,,,,,,,1529.1826363999999,1529.1980462000001,1529.1980462000001,1529.1980462000001,1535.1596564000001,,,,1535.1658682000007,1535.1773885000002,1535.1773885000002,1535.2253053000004,1535.2255458,1535.2417579000003,1535.2417579000003,1535.2417579000003,1535.3251243000004,1535.6255959999999,,,,,,,,down,5.9469955999993545,None,space,0.3770032000002175,None,,,,,,,,,,,,,,,P111,001,2025-02-14_10h24.21.395,posner_endo_new1,2024.2.4,60.06060114664294,2025-02-14 10h24.35.322989 +0000,
cube_r.png,0.1,0.31,valid,27,27,0,down,5.536673100000371,None,space,0.43523520000053395,None,,,,,0,27,27,27,,,,,1535.6414511000003,,,,,,,,,,,,,1535.6257758000002,1535.6414511000003,1535.6414511000003,1535.6414511000003,1541.1865019000006,,,,1541.1926695000002,1541.2041918000004,1541.2041918000004,1541.2523892,1541.2526275,1541.2689915,1541.2689915,1541.2689915,1541.3355441000003,1541.7193050000005,,,,,,,,down,5.536673100000371,None,space,0.43523520000053395,None,,,,,,,,,,,,,,,P111,001,2025-02-14_10h24.21.395,posner_endo_new1,2024.2.4,60.06060114664294,2025-02-14 10h24.35.322989 +0000,
cube_r.png,0.1,10,catch,28,28,0,down,6.354249100000743,None,None,,,,,,,0,28,28,28,,,,,1541.7352329000005,,,,,,,,,,,,,1541.7194958,1541.7352329000005,1541.7352329000005,1541.7352329000005,1548.0960964000005,,,,1548.1021715000006,1548.1138077000005,1548.1138077000005,1548.1620788999999,1548.1623162000005,1548.1786381000002,1548.1786381000002,1548.1786381000002,1548.2451402000006,1551.1760703,,,,1550.2598798,1551.1921308,1551.1921308,1551.1921308,down,6.354249100000743,None,None,,,,,,,,,,,,,,,,,P111,001,2025-02-14_10h24.21.395,posner_endo_new1,2024.2.4,60.06060114664294,2025-02-14 10h24.35.322989 +0000,
cube_r.png,0.1,0.31,valid,29,29,0,down,3.2571215000007214,None,space,0.4371215999999549,None,,,,,0,29,29,29,,,,,1551.1921308,,,,,,,,,,,,,1551.1762389000005,1551.1921308,1551.1921308,1551.1921308,1554.4560618000005,,,,1554.4621484,1554.4736103000005,1554.4736103000005,1554.5223017000008,1554.52254,1554.5388351000001,1554.5388351000001,1554.5388351000001,1554.6053520000005,1554.9892197,,,,,,,,down,3.2571215000007214,None,space,0.4371215999999549,None,,,,,,,,,,,,,,,P111,001,2025-02-14_10h24.21.395,posner_endo_new1,2024.2.4,60.06060114664294,2025-02-14 10h24.35.322989 +0000,
cube_r.png,0.1,0.31,valid,30,30,0,down,6.50893460000043,None,space,0.3825096000000485,None,,,,,0,30,30,30,,,,,1555.0049748000001,,,,,,,,,,,,,1554.9894231000007,1555.0049748000001,1555.0049748000001,1555.0049748000001,1561.5157181000004,,,,1561.5219640000005,1561.5334119,1561.5334119,1561.5815486000001,1561.5818,1561.5983429000007,1561.5983429000007,1561.5983429000007,1561.6649177,1561.9820783000005,,,,,,,,down,6.50893460000043,None,space,0.3825096000000485,None,,,,,,,,,,,,,,,P111,001,2025-02-14_10h24.21.395,posner_endo_new1,2024.2.4,60.06060114664294,2025-02-14 10h24.35.322989 +0000,
cube_l.png,0.1,-0.31,valid,31,31,0,down,6.06741779999993,None,space,0.41145760000017617,None,,,,,0,31,31,31,,,,,1561.9978471000004,,,,,,,,,,,,,1561.9822651000004,1561.9978471000004,1561.9978471000004,1561.9978471000004,1568.0755428000002,,,,1568.0817679000002,1568.0936222,1568.0936222,1568.1415907,1568.1418302000002,1568.1580665000001,1568.1580665000001,1568.1580665000001,1568.2248362,1568.5752388,,,,,,,,down,6.06741779999993,None,space,0.41145760000017617,None,,,,,,,,,,,,,,,P111,001,2025-02-14_10h24.21.395,posner_endo_new1,2024.2.4,60.06060114664294,2025-02-14 10h24.35.322989 +0000,
cube_r.png,0.1,0.31,valid,32,32,0,down,5.250315600000249,None,space,0.4111972999999125,None,,,,,0,32,32,32,,,,,1568.5909664,,,,,,,,,,,,,1568.5754226,1568.5909664,1568.5909664,1568.5909664,1573.8531519000007,,,,1573.85948,1573.8712321000003,1573.8712321000003,1573.9191111999999,1573.9193467000005,1573.9355894,1573.9355894,1573.9355894,1574.0021284000004,1574.3525693000001,,,,,,,,down,5.250315600000249,None,space,0.4111972999999125,None,,,,,,,,,,,,,,,P111,001,2025-02-14_10h24.21.395,posner_endo_new1,2024.2.4,60.06060114664294,2025-02-14 10h24.35.322989 +0000,
cube_r.png,0.1,-0.31,invalid,33,33,0,down,6.15316939999957,None,space,0.403639000000112,None,,,,,0,33,33,33,,,,,1574.3683354000004,,,,,,,,,,,,,1574.3527525,1574.3683354000004,1574.3683354000004,1574.3683354000004,1580.5296336000001,,,,1580.5357564000005,1580.5473929,1580.5473929,1580.5954574000007,1580.5957031000007,1580.6120275000003,1580.6120275000003,1580.6120275000003,1580.6786818,1581.0291593000002,,,,,,,,down,6.15316939999957,None,space,0.403639000000112,None,,,,,,,,,,,,,,,P111,001,2025-02-14_10h24.21.395,posner_endo_new1,2024.2.4,60.06060114664294,2025-02-14 10h24.35.322989 +0000,
cube_r.png,0.1,10,catch,34,34,0,down,5.660678799999914,None,None,,,,,,,0,34,34,34,,,,,1581.0449155000006,,,,,,,,,,,,,1581.0293451000007,1581.0449155000006,1581.0449155000006,1581.0449155000006,1586.7068042,,,,1586.7129511000003,1586.7244566,1586.7244566,1586.7725230000005,1586.7727570000006,1586.7891754000002,1586.7891754000002,1586.7891754000002,1586.8722998000003,1589.7865150000007,,,,1588.8869674000007,1589.8027115000004,1589.8027115000004,1589.8027115000004,down,5.660678799999914,None,None,,,,,,,,,,,,,,,,,P111,001,2025-02-14_10h24.21.395,posner_endo_new1,2024.2.4,60.06060114664294,2025-02-14 10h24.35.322989 +0000,
cube_r.png,0.1,0.31,valid,35,35,0,down,2.9029319999999643,None,space,0.4778432999992219,None,,,,,0,35,35,35,,,,,1589.8027115000004,,,,,,,,,,,,,1589.7866858000007,1589.8027115000004,1589.8027115000004,1589.8027115000004,1592.7172409000004,,,,1592.7234623000004,1592.7349503000005,1592.7349503000005,1592.7828995,1592.7831459,1592.7996699000005,1592.7996699000005,1592.7996699000005,1592.8828172000003,1593.2833251000002,,,,,,,,down,2.9029319999999643,None,space,0.4778432999992219,None,,,,,,,,,,,,,,,P111,001,2025-02-14_10h24.21.395,posner_endo_new1,2024.2.4,60.06060114664294,2025-02-14 10h24.35.322989 +0000,
cube_r.png,0.1,-0.31,invalid,36,36,0,down,6.5099974000004295,None,space,0.6205510999998296,None,,,,,0,36,36,36,,,,,1593.2991686000005,,,,,,,,,,,,,1593.2835145,1593.2991686000005,1593.2991686000005,1593.2991686000005,1599.8100434000007,,,,1599.8161610000006,1599.8278737,1599.8278737,1599.8757016,1599.8759412,1599.8922300000004,1599.8922300000004,1599.8922300000004,1599.9754897000003,1600.5258647,,,,,,,,down,6.5099974000004295,None,space,0.6205510999998296,None,,,,,,,,,,,,,,,P111,001,2025-02-14_10h24.21.395,posner_endo_new1,2024.2.4,60.06060114664294,2025-02-14 10h24.35.322989 +0000,
cube_l.png,0.1,0.31,invalid,37,37,0,down,5.195755099999587,None,space,0.6079561999995349,None,,,,,0,37,37,37,,,,,1600.5416744000004,,,,,,,,,,,,,1600.5260546,1600.5416744000004,1600.5416744000004,1600.5416744000004,1605.7537999000006,,,,1605.7599674000003,1605.7712908000003,1605.7712908000003,1605.8197283,1605.8199680000007,1605.8363110999999,1605.8363110999999,1605.8363110999999,1605.902779,1606.4529162,,,,,,,,down,5.195755099999587,None,space,0.6079561999995349,None,,,,,,,,,,,,,,,P111,001,2025-02-14_10h24.21.395,posner_endo_new1,2024.2.4,60.06060114664294,2025-02-14 10h24.35.322989 +0000,
cube_l.png,0.1,0.31,invalid,38,38,0,down,5.164676200000031,None,space,0.5754782000003615,None,,,,,0,38,38,38,,,,,1606.4689715000004,,,,,,,,,,,,,1606.4531009000002,1606.4689715000004,1606.4689715000004,1606.4689715000004,1611.6478761000008,,,,1611.6539879000002,1611.6654158000001,1611.6654158000001,1611.7137873000001,1611.7140335000004,1611.7301072999999,1611.7301072999999,1611.7301072999999,1611.8134407000007,1612.3136444000002,,,,,,,,down,5.164676200000031,None,space,0.5754782000003615,None,,,,,,,,,,,,,,,P111,001,2025-02-14_10h24.21.395,posner_endo_new1,2024.2.4,60.06060114664294,2025-02-14 10h24.35.322989 +0000,
cube_r.png,0.1,0.31,valid,39,39,0,down,5.360085799999979,None,space,0.4779453999999532,None,,,,,0,39,39,39,,,,,1612.3295848000007,,,,,,,,,,,,,1612.3138240000007,1612.3295848000007,1612.3295848000007,1612.3295848000007,1617.6918706000006,,,,1617.6979074,1617.709492,1617.709492,1617.7574022,1617.7576464000003,1617.7738749,1617.7738749,1617.7738749,1617.8572356000004,1618.2576831000006,,,,,,,,down,5.360085799999979,None,space,0.4779453999999532,None,,,,,,,,,,,,,,,P111,001,2025-02-14_10h24.21.395,posner_endo_new1,2024.2.4,60.06060114664294,2025-02-14 10h24.35.322989 +0000,
cube_l.png,0.1,0.31,invalid,40,40,0,down,5.728246300000137,None,space,0.5278501000002507,None,,,,,0,40,40,40,,,,,1618.2735608000003,,,,,,,,,,,,,1618.2578776999999,1618.2735608000003,1618.2735608000003,1618.2735608000003,1624.0184234000008,,,,1624.0246691000002,1624.0361343000004,1624.0361343000004,1624.0842877000005,1624.0845272000006,1624.1008385000005,1624.1008385000005,1624.1008385000005,1624.1675562,1624.6344362,,,,,,,,down,5.728246300000137,None,space,0.5278501000002507,None,,,,,,,,,,,,,,,P111,001,2025-02-14_10h24.21.395,posner_endo_new1,2024.2.4,60.06060114664294,2025-02-14 10h24.35.322989 +0000,
cube_l.png,0.1,10,catch,41,41,0,down,4.871505299999626,None,None,,,,,,,0,41,41,41,,,,,1624.6502587000004,,,,,,,,,,,,,1624.6346145000007,1624.6502587000004,1624.6502587000004,1624.6502587000004,1629.5295691000001,,,,1629.5356896000003,1629.5471990000005,1629.5471990000005,1629.5953595,1629.5956016999999,1629.611841,1629.611841,1629.611841,1629.6952828000003,1632.6092575000002,,,,1631.7097272,1632.6255442000001,1632.6255442000001,1632.6255442000001,down,4.871505299999626,None,None,,,,,,,,,,,,,,,,,P111,001,2025-02-14_10h24.21.395,posner_endo_new1,2024.2.4,60.06060114664294,2025-02-14 10h24.35.322989 +0000,
cube_l.png,0.1,-0.31,valid,42,42,0,down,3.511424199999965,None,space,0.4548378999998022,None,,,,,0,42,42,42,,,,,1632.6255442000001,,,,,,,,,,,,,1632.6094258000003,1632.6255442000001,1632.6255442000001,1632.6255442000001,1636.1394668000003,,,,1636.1455892000004,1636.1570861999999,1636.1570861999999,1636.2052466000005,1636.2054854000007,1636.2216141,1636.2216141,1636.2216141,1636.3049733000007,1636.688725,,,,,,,,down,3.511424199999965,None,space,0.4548378999998022,None,,,,,,,,,,,,,,,P111,001,2025-02-14_10h24.21.395,posner_endo_new1,2024.2.4,60.06060114664294,2025-02-14 10h24.35.322989 +0000,
cube_l.png,0.1,10,catch,43,43,0,down,7.241548500000135,None,None,,,,,,,0,43,43,43,,,,,1636.7046575000004,,,,,,,,,,,,,1636.6889128000003,1636.7046575000004,1636.7046575000004,1636.7046575000004,1643.9480503000004,,,,1643.9542417000002,1643.9658874000006,1643.9658874000006,1644.0139306,1644.0141706000004,1644.0304145,1644.0304145,1644.0304145,1644.1136292,1647.0279049,,,,1646.1282142999999,1647.0440687999999,1647.0440687999999,1647.0440687999999,down,7.241548500000135,None,None,,,,,,,,,,,,,,,,,P111,001,2025-02-14_10h24.21.395,posner_endo_new1,2024.2.4,60.06060114664294,2025-02-14 10h24.35.322989 +0000,
cube_l.png,0.1,0.31,invalid,44,44,0,down,2.764950900000258,None,space,0.48494730000038544,None,,,,,0,44,44,44,,,,,1647.0440687999999,,,,,,,,,,,,,1647.02808,1647.0440687999999,1647.0440687999999,1647.0440687999999,1649.8252886999999,,,,1649.8314330000003,1649.8432294000004,1649.8432294000004,1649.8912899000006,1649.8915290000004,1649.9077062000006,1649.9077062000006,1649.9077062000006,1649.9908719000005,1650.4080896000005,,,,,,,,down,2.764950900000258,None,space,0.48494730000038544,None,,,,,,,,,,,,,,,P111,001,2025-02-14_10h24.21.395,posner_endo_new1,2024.2.4,60.06060114664294,2025-02-14 10h24.35.322989 +0000,
cube_l.png,0.1,0.31,invalid,45,45,0,down,5.306382599999779,None,space,0.4477036999996926,None,,,,,0,45,45,45,,,,,1650.4239358000004,,,,,,,,,,,,,1650.4082759000003,1650.4239358000004,1650.4239358000004,1650.4239358000004,1655.7361824,,,,1655.7423676000008,1655.7538965000003,1655.7538965000003,1655.8018352,1655.8020767000007,1655.8183823,1655.8183823,1655.8183823,1655.9015575000003,1656.2687878000006,,,,,,,,down,5.306382599999779,None,space,0.4477036999996926,None,,,,,,,,,,,,,,,P111,001,2025-02-14_10h24.21.395,posner_endo_new1,2024.2.4,60.06060114664294,2025-02-14 10h24.35.322989 +0000,
cube_r.png,0.1,0.31,valid,46,46,0,down,5.924519600000167,None,space,0.43885880000016186,None,,,,,0,46,46,46,,,,,1656.2845192000004,,,,,,,,,,,,,1656.2689917000007,1656.2845192000004,1656.2845192000004,1656.2845192000004,1662.2127674000003,,,,1662.2188972000004,1662.2304918,1662.2304918,1662.2784618000005,1662.2787010000002,1662.2951685000007,1662.2951685000007,1662.2951685000007,1662.3782383000007,1662.7454768000007,,,,,,,,down,5.924519600000167,None,space,0.43885880000016186,None,,,,,,,,,,,,,,,P111,001,2025-02-14_10h24.21.395,posner_endo_new1,2024.2.4,60.06060114664294,2025-02-14 10h24.35.322989 +0000,
cube_l.png,0.1,-0.31,valid,47,47,0,down,5.832464500000242,None,space,0.4256040000000212,None,,,,,0,47,47,47,,,,,1662.7611963,,,,,,,,,,,,,1662.7456636000006,1662.7611963,1662.7611963,1662.7611963,1668.6061339000007,,,,1668.6122877000007,1668.6239085000007,1668.6239085000007,1668.6720657000005,1668.6723124999999,1668.6885146000004,1668.6885146000004,1668.6885146000004,1668.7551385000006,1669.1224380000003,,,,,,,,down,5.832464500000242,None,space,0.4256040000000212,None,,,,,,,,,,,,,,,P111,001,2025-02-14_10h24.21.395,posner_endo_new1,2024.2.4,60.06060114664294,2025-02-14 10h24.35.322989 +0000,
cube_r.png,0.1,-0.31,invalid,48,48,0,down,5.422877100000733,None,space,0.4515114000005269,None,,,,,0,48,48,48,,,,,1669.1380759000003,,,,,,,,,,,,,1669.1226215000006,1669.1380759000003,1669.1380759000003,1669.1380759000003,1674.5666324000003,,,,1674.5728184,1674.5843959000003,1674.5843959000003,1674.6325812000005,1674.6328228000002,1674.649112,1674.649112,1674.649112,1674.7157981999999,1675.1161887000007,,,,,,,,down,5.422877100000733,None,space,0.4515114000005269,None,,,,,,,,,,,,,,,P111,001,2025-02-14_10h24.21.395,posner_endo_new1,2024.2.4,60.06060114664294,2025-02-14 10h24.35.322989 +0000,
cube_r.png,0.1,10,catch,49,49,0,down,4.925411600000189,None,space,0.996086600000126,None,,,,,0,49,49,49,,,,,1675.131942,,,,,,,,,,,,,1675.1163814000001,1675.131942,1675.131942,1675.131942,1680.0614773000007,,,,1680.0678295000007,1680.0796466000002,1680.0796466000002,1680.1268989,1680.1271526,1680.1433594,1680.1433594,1680.1433594,1680.2266794000006,1681.1433336,,,,,,,,down,4.925411600000189,None,space,0.996086600000126,None,,,,,,,,,,,,,,,P111,001,2025-02-14_10h24.21.395,posner_endo_new1,2024.2.4,60.06060114664294,2025-02-14 10h24.35.322989 +0000,
cube_l.png,0.1,-0.31,valid,50,50,0,down,4.5470101000000795,None,space,0.5664960000003703,None,,,,,0,50,50,50,,,,,1681.1591401000005,,,,,,,,,,,,,1681.1435123,1681.1591401000005,1681.1591401000005,1681.1591401000005,1685.7219620000005,,,,1685.7281411000004,1685.7395983000006,1685.7395983000006,1685.7879089000007,1685.7881530000004,1685.8043233000008,1685.8043233000008,1685.8043233000008,1685.8876415000004,1686.3879468000005,,,,,,,,down,4.5470101000000795,None,space,0.5664960000003703,None,,,,,,,,,,,,,,,P111,001,2025-02-14_10h24.21.395,posner_endo_new1,2024.2.4,60.06060114664294,2025-02-14 10h24.35.322989 +0000,
cube_l.png,0.1,-0.31,valid,51,51,0,down,7.021104899999955,None,space,0.7130942000003415,None,,,,,0,51,51,51,,,,,1686.4038854,,,,,,,,,,,,,1686.3881368000002,1686.4038854,1686.4038854,1686.4038854,1693.4305824000003,,,,1693.4366825000006,1693.4480778000006,1693.4480778000006,1693.4966412000003,1693.4968825000005,1693.5131018000002,1693.5131018000002,1693.5131018000002,1693.5795670000007,1694.2299358999999,,,,,,,,down,7.021104899999955,None,space,0.7130942000003415,None,,,,,,,,,,,,,,,P111,001,2025-02-14_10h24.21.395,posner_endo_new1,2024.2.4,60.06060114664294,2025-02-14 10h24.35.322989 +0000,
cube_r.png,0.1,-0.31,invalid,52,52,0,down,6.7714593000000605,None,space,0.5116523000006055,None,,,,,0,52,52,52,,,,,1694.2456896000003,,,,,,,,,,,,,1694.2301285000003,1694.2456896000003,1694.2456896000003,1694.2456896000003,1701.0229142000007,,,,1701.0292070000005,1701.0411165000005,1701.0411165000005,1701.0887672,1701.0890059000003,1701.1054046,1701.1054046,1701.1054046,1701.1716620000007,1701.6223346000006,,,,,,,,down,6.7714593000000605,None,space,0.5116523000006055,None,,,,,,,,,,,,,,,P111,001,2025-02-14_10h24.21.395,posner_endo_new1,2024.2.4,60.06060114664294,2025-02-14 10h24.35.322989 +0000,
cube_l.png,0.1,-0.31,valid,53,53,0,down,6.323108800000227,None,space,0.6069852999999057,None,,,,,0,53,53,53,,,,,1701.6381461,,,,,,,,,,,,,1701.6225166000004,1701.6381461,1701.6381461,1701.6381461,1707.9658985000005,,,,1707.9720489000001,1707.9836583000006,1707.9836583000006,1708.0316739,1708.0319181000004,1708.0482233000002,1708.0482233000002,1708.0482233000002,1708.1314566,1708.6651087999999,,,,,,,,down,6.323108800000227,None,space,0.6069852999999057,None,,,,,,,,,,,,,,,P111,001,2025-02-14_10h24.21.395,posner_endo_new1,2024.2.4,60.06060114664294,2025-02-14 10h24.35.322989 +0000,
cube_r.png,0.1,10,catch,54,54,0,down,6.551911599999585,None,None,,,,,,,0,54,54,54,,,,,1708.6808864000004,,,,,,,,,,,,,1708.6652958000004,1708.6808864000004,1708.6808864000004,1708.6808864000004,1715.2414655000002,,,,1715.2476341000001,1715.2592510000004,1715.2592510000004,1715.3075896,1715.3078391,1715.3239955,1715.3239955,1715.3239955,1715.3907527000001,1718.3216040000007,,,,1717.4052364,1718.3375489,1718.3375489,1718.3375489,down,6.551911599999585,None,None,,,,,,,,,,,,,,,,,P111,001,2025-02-14_10h24.21.395,posner_endo_new1,2024.2.4,60.06060114664294,2025-02-14 10h24.35.322989 +0000,
cube_l.png,0.1,0.31,invalid,55,55,0,down,3.7841840000000957,None,space,0.5098066000000472,None,,,,,0,55,55,55,,,,,1718.3375489,,,,,,,,,,,,,1718.3217823000005,1718.3375489,1718.3375489,1718.3375489,1722.1347420000002,,,,1722.1409811000003,1722.1526417000005,1722.1526417000005,1722.2004513000002,1722.2007015,1722.2170962999999,1722.2170962999999,1722.2170962999999,1722.3004335000005,1722.7338300000001,,,,,,,,down,3.7841840000000957,None,space,0.5098066000000472,None,,,,,,,,,,,,,,,P111,001,2025-02-14_10h24.21.395,posner_endo_new1,2024.2.4,60.06060114664294,2025-02-14 10h24.35.322989 +0000,
cube_l.png,0.1,-0.31,valid,56,56,0,down,5.515295600000172,None,space,0.4758547000001272,None,,,,,0,56,56,56,,,,,1722.7497501000007,,,,,,,,,,,,,1722.7340131,1722.7497501000007,1722.7497501000007,1722.7497501000007,1728.2782871,,,,1728.2844039000001,1728.2959812,1728.2959812,1728.3441303,1728.3443674,1728.3607464000006,1728.3607464000006,1728.3607464000006,1728.4273757,1728.8444751000006,,,,,,,,down,5.515295600000172,None,space,0.4758547000001272,None,,,,,,,,,,,,,,,P111,001,2025-02-14_10h24.21.395,posner_endo_new1,2024.2.4,60.06060114664294,2025-02-14 10h24.35.322989 +0000,
cube_r.png,0.1,0.31,valid,57,57,0,down,4.7418423999997685,None,space,0.47538059999988036,None,,,,,0,57,57,57,,,,,1728.8601485,,,,,,,,,,,,,1728.8446591000002,1728.8601485,1728.8601485,1728.8601485,1733.6062950000005,,,,1733.6124491,1733.6238784000006,1733.6238784000006,1733.672152,1733.6723893000008,1733.6886570000006,1733.6886570000006,1733.6886570000006,1733.7718091000006,1734.1723719000001,,,,,,,,down,4.7418423999997685,None,space,0.47538059999988036,None,,,,,,,,,,,,,,,P111,001,2025-02-14_10h24.21.395,posner_endo_new1,2024.2.4,60.06060114664294,2025-02-14 10h24.35.322989 +0000,
cube_r.png,0.1,-0.31,invalid,58,58,0,down,5.580988700000489,None,space,0.6497038999996221,None,,,,,0,58,58,58,,,,,1734.1881008,,,,,,,,,,,,,1734.1725556000001,1734.1881008,1734.1881008,1734.1881008,1739.7830942,,,,1739.7894751000003,1739.8011178000006,1739.8011178000006,1739.8491680000006,1739.8494064000006,1739.8656325000002,1739.8656325000002,1739.8656325000002,1739.9487407000006,1740.5323753000002,,,,,,,,down,5.580988700000489,None,space,0.6497038999996221,None,,,,,,,,,,,,,,,P111,001,2025-02-14_10h24.21.395,posner_endo_new1,2024.2.4,60.06060114664294,2025-02-14 10h24.35.322989 +0000,
cube_l.png,0.1,0.31,invalid,59,59,0,down,5.461303699999917,None,space,0.5110790999997334,None,,,,,0,59,59,59,,,,,1740.5483097000006,,,,,,,,,,,,,1740.5325552000004,1740.5483097000006,1740.5483097000006,1740.5483097000006,1746.0104132000006,,,,1746.0165579000004,1746.028311,1746.028311,1746.0760122000002,1746.0762537,1746.0926820000004,1746.0926820000004,1746.0926820000004,1746.1757407000005,1746.6095316,,,,,,,,down,5.461303699999917,None,space,0.5110790999997334,None,,,,,,,,,,,,,,,P111,001,2025-02-14_10h24.21.395,posner_endo_new1,2024.2.4,60.06060114664294,2025-02-14 10h24.35.322989 +0000,
,,,,,,,,,,,,,,,,,,,,,,,,,,,,,,,,,,,,,,,,,,,,,,,,,,,,,,,,,,,,,,,,,,,,,1746.6096473000007,1746.6253780000006,1746.6253780000006,1806.6305118,1826.0616469000006,space,79.42378740000004,None,,,,,,,P111,001,2025-02-14_10h24.21.395,posner_endo_new1,2024.2.4,60.06060114664294,2025-02-14 10h24.35.322989 +0000,
,,,,,,,,,,,,,,,,,,,,,,,,,,,,,,,,,,1826.0616997000006,1826.0773560000007,1829.0781774000006,1829.0579490999999,,,,,,,,,,,,,,,,,,,,,,,,,,,,,,,,,,,,,,,,,,,,,,P111,001,2025-02-14_10h24.21.395,posner_endo_new1,2024.2.4,60.06060114664294,2025-02-14 10h24.35.322989 +0000,
cube_l.png,0.1,10,catch,0,0,0,up,5.066480200000115,None,None,,,,,,,,,,,0,0,0,0,1829.0781774000006,,,,,,,,,,,,,1829.0694856,1829.0781774000006,1829.0781774000006,1829.0781774000006,1834.1531073000006,,,,1834.1599831000003,1834.1714964000003,1834.1714964000003,1834.2191543,1834.2193937000002,1834.2356797000002,1834.2356797000002,1834.2356797000002,1834.3023061000004,1837.2331126,,,,1836.3168555000002,1837.2491728000005,1837.2491728000005,1837.2491728000005,,,,,,,,,,,,,,,up,5.066480200000115,None,None,,,P111,001,2025-02-14_10h24.21.395,posner_endo_new1,2024.2.4,60.06060114664294,2025-02-14 10h24.35.322989 +0000,
cube_l.png,0.1,10,catch,1,1,0,up,2.4638810000005833,None,None,,,,,,,,,,,0,1,1,1,1837.2491728000005,,,,,,,,,,,,,1837.2332844000002,1837.2491728000005,1837.2491728000005,1837.2491728000005,1839.7142670000003,,,,1839.7207758000004,1839.7323352000003,1839.7323352000003,1839.7802268000005,1839.7804684000002,1839.7965113999999,1839.7965113999999,1839.7965113999999,1839.8797902000006,1842.7941405000001,,,,1841.8944410000004,1842.8101877,1842.8101877,1842.8101877,,,,,,,,,,,,,,,up,2.4638810000005833,None,None,,,P111,001,2025-02-14_10h24.21.395,posner_endo_new1,2024.2.4,60.06060114664294,2025-02-14 10h24.35.322989 +0000,
cube_l.png,0.1,0.31,invalid,2,2,0,up,1.4785501000005752,None,space,0.5003318999997646,None,,,,,,,,,0,2,2,2,1842.8101877,,,,,,,,,,,,,1842.7943147000005,1842.8101877,1842.8101877,1842.8101877,1844.2927649000003,,,,1844.2995982000002,1844.3113655000006,1844.3113655000006,1844.3587388000005,1844.3589764000008,1844.3753164,1844.3753164,1844.3753164,1844.4418696000002,1844.8922395,,,,,,,,,,,,,,,,,,,,,,up,1.4785501000005752,None,space,0.5003318999997646,None,P111,001,2025-02-14_10h24.21.395,posner_endo_new1,2024.2.4,60.06060114664294,2025-02-14 10h24.35.322989 +0000,
cube_l.png,0.1,0.31,invalid,3,3,0,up,5.564820799999325,None,space,0.4808752999997523,None,,,,,,,,,0,3,3,3,1844.9080459000006,,,,,,,,,,,,,1844.8924209000006,1844.9080459000006,1844.9080459000006,1844.9080459000006,1850.4864548000005,,,,1850.4928326,1850.5042896000004,1850.5042896000004,1850.5524070000001,1850.5526440000003,1850.5691442000007,1850.5691442000007,1850.5691442000007,1850.6522205,1851.0526637000003,,,,,,,,,,,,,,,,,,,,,,up,5.564820799999325,None,space,0.4808752999997523,None,P111,001,2025-02-14_10h24.21.395,posner_endo_new1,2024.2.4,60.06060114664294,2025-02-14 10h24.35.322989 +0000,
cube_l.png,0.1,-0.31,valid,4,4,0,up,4.436441300000297,None,space,0.42317689999981667,None,,,,,,,,,0,4,4,4,1851.0682259000005,,,,,,,,,,,,,1851.0528467000004,1851.0682259000005,1851.0682259000005,1851.0682259000005,1855.5145965000002,,,,1855.5210624000001,1855.5327214,1855.5327214,1855.5804271000006,1855.5806763,1855.5972516000002,1855.5972516000002,1855.5972516000002,1855.6635208000007,1856.0306598000006,,,,,,,,,,,,,,,,,,,,,,up,4.436441300000297,None,space,0.42317689999981667,None,P111,001,2025-02-14_10h24.21.395,posner_endo_new1,2024.2.4,60.06060114664294,2025-02-14 10h24.35.322989 +0000,
cube_r.png,0.1,-0.31,invalid,5,5,0,up,5.554456599999867,None,space,0.4706965000004857,None,,,,,,,,,0,5,5,5,1856.0467488000004,,,,,,,,,,,,,1856.0308505000003,1856.0467488000004,1856.0467488000004,1856.0467488000004,1861.6082706000007,,,,1861.6149152000007,1861.6264679000005,1861.6264679000005,1861.6743032000004,1861.6745382,1861.6909151,1861.6909151,1861.6909151,1861.7573507000006,1862.1744463000005,,,,,,,,,,,,,,,,,,,,,,up,5.554456599999867,None,space,0.4706965000004857,None,P111,001,2025-02-14_10h24.21.395,posner_endo_new1,2024.2.4,60.06060114664294,2025-02-14 10h24.35.322989 +0000,
cube_r.png,0.1,0.31,valid,6,6,0,up,5.3703402999999525,None,space,0.4201978999999483,None,,,,,,,,,0,6,6,6,1862.1904192000002,,,,,,,,,,,,,1862.1746303,1862.1904192000002,1862.1904192000002,1862.1904192000002,1867.5688753000004,,,,1867.5752433000007,1867.5867738000006,1867.5867738000006,1867.634991,1867.6352402000002,1867.6516087,1867.6516087,1867.6516087,1867.7179806000004,1868.0852524000002,,,,,,,,,,,,,,,,,,,,,,up,5.3703402999999525,None,space,0.4201978999999483,None,P111,001,2025-02-14_10h24.21.395,posner_endo_new1,2024.2.4,60.06060114664294,2025-02-14 10h24.35.322989 +0000,
cube_r.png,0.1,-0.31,invalid,7,7,0,up,4.372389899999689,None,space,0.4866489999994883,None,,,,,,,,,0,7,7,7,1868.1010184000006,,,,,,,,,,,,,1868.0854415000003,1868.1010184000006,1868.1010184000006,1868.1010184000006,1872.4805642000001,,,,1872.4868596000006,1872.4983338000002,1872.4983338000002,1872.5464582000004,1872.5466985000003,1872.5633391000001,1872.5633391000001,1872.5633391000001,1872.6294812000006,1873.0635221000002,,,,,,,,,,,,,,,,,,,,,,up,4.372389899999689,None,space,0.4866489999994883,None,P111,001,2025-02-14_10h24.21.395,posner_endo_new1,2024.2.4,60.06060114664294,2025-02-14 10h24.35.322989 +0000,
cube_l.png,0.1,-0.31,valid,8,8,0,up,3.865921900000103,None,space,0.4491464000002452,None,,,,,,,,,0,8,8,8,1873.0791470000004,,,,,,,,,,,,,1873.0637056000005,1873.0791470000004,1873.0791470000004,1873.0791470000004,1876.9593648999999,,,,1876.9657379,1876.9772784000006,1876.9772784000006,1877.0253024000003,1877.0255389000004,1877.0417771000002,1877.0417771000002,1877.0417771000002,1877.1083787000007,1877.4923167000006,,,,,,,,,,,,,,,,,,,,,,up,3.865921900000103,None,space,0.4491464000002452,None,P111,001,2025-02-14_10h24.21.395,posner_endo_new1,2024.2.4,60.06060114664294,2025-02-14 10h24.35.322989 +0000,
cube_r.png,0.1,-0.31,invalid,9,9,0,up,3.749329100000068,None,space,0.4214053000005151,None,,,,,,,,,0,9,9,9,1877.5080963,,,,,,,,,,,,,1877.4924993000004,1877.5080963,1877.5080963,1877.5080963,1881.2715532000002,,,,1881.2780591,1881.2896117999999,1881.2896117999999,1881.3375570000007,1881.3377986000005,1881.3538985000005,1881.3538985000005,1881.3538985000005,1881.4205669000003,1881.7876795000002,,,,,,,,,,,,,,,,,,,,,,up,3.749329100000068,None,space,0.4214053000005151,None,P111,001,2025-02-14_10h24.21.395,posner_endo_new1,2024.2.4,60.06060114664294,2025-02-14 10h24.35.322989 +0000,
cube_l.png,0.1,0.31,invalid,10,10,0,up,3.9739797000002,None,space,0.45857539999997243,None,,,,,,,,,0,10,10,10,1881.8035591000007,,,,,,,,,,,,,1881.7878609,1881.8035591000007,1881.8035591000007,1881.8035591000007,1885.7836160000006,,,,1885.7899425000005,1885.8015338000005,1885.8015338000005,1885.8495894000007,1885.8498282,1885.8661182000005,1885.8661182000005,1885.8661182000005,1885.9325909,1886.3330714000003,,,,,,,,,,,,,,,,,,,,,,up,3.9739797000002,None,space,0.45857539999997243,None,P111,001,2025-02-14_10h24.21.395,posner_endo_new1,2024.2.4,60.06060114664294,2025-02-14 10h24.35.322989 +0000,
cube_r.png,0.1,-0.31,invalid,11,11,0,up,4.508562699999857,None,space,0.4254231000004438,None,,,,,,,,,0,11,11,11,1886.3490469000008,,,,,,,,,,,,,1886.3332606000004,1886.3490469000008,1886.3490469000008,1886.3490469000008,1890.8618260000003,,,,1890.8681708000004,1890.8797411000005,1890.8797411000005,1890.9277190000003,1890.9279581,1890.9443004000004,1890.9443004000004,1890.9443004000004,1891.0107712,1891.3779767000005,,,,,,,,,,,,,,,,,,,,,,up,4.508562699999857,None,space,0.4254231000004438,None,P111,001,2025-02-14_10h24.21.395,posner_endo_new1,2024.2.4,60.06060114664294,2025-02-14 10h24.35.322989 +0000,
cube_r.png,0.1,0.31,valid,12,12,0,up,4.599422299999787,None,space,0.4255745999998908,None,,,,,,,,,0,12,12,12,1891.3938983000007,,,,,,,,,,,,,1891.3781614,1891.3938983000007,1891.3938983000007,1891.3938983000007,1896.0065696000001,,,,1896.0128490000006,1896.0245459000007,1896.0245459000007,1896.0724093,1896.0726497000005,1896.0890139000003,1896.0890139000003,1896.0890139000003,1896.172318,1896.5226907000006,,,,,,,,,,,,,,,,,,,,,,up,4.599422299999787,None,space,0.4255745999998908,None,P111,001,2025-02-14_10h24.21.395,posner_endo_new1,2024.2.4,60.06060114664294,2025-02-14 10h24.35.322989 +0000,
cube_l.png,0.1,10,catch,13,13,0,up,4.382959999999912,None,None,,,,,,,,,,,0,13,13,13,1896.5384710000008,,,,,,,,,,,,,1896.5228725000006,1896.5384710000008,1896.5384710000008,1896.5384710000008,1900.9347005,,,,1900.9410731000007,1900.9525653,1900.9525653,1901.0005959,1901.0008419000005,1901.0172811000002,1901.0172811000002,1901.0172811000002,1901.1004822000004,1904.0146469000001,,,,1903.1152289000001,1904.0309117000006,1904.0309117000006,1904.0309117000006,,,,,,,,,,,,,,,up,4.382959999999912,None,None,,,P111,001,2025-02-14_10h24.21.395,posner_endo_new1,2024.2.4,60.06060114664294,2025-02-14 10h24.35.322989 +0000,
cube_r.png,0.1,-0.31,invalid,14,14,0,up,2.402422299999671,None,space,0.4493185999999696,None,,,,,,,,,0,14,14,14,1904.0309117000006,,,,,,,,,,,,,1904.0148250000002,1904.0309117000006,1904.0309117000006,1904.0309117000006,1906.4459501000001,,,,1906.4521751000002,1906.4637080000002,1906.4637080000002,1906.5118241,1906.5120606,1906.5282856000003,1906.5282856000003,1906.5282856000003,1906.6115299000003,1906.9786570000006,,,,,,,,,,,,,,,,,,,,,,up,2.402422299999671,None,space,0.4493185999999696,None,P111,001,2025-02-14_10h24.21.395,posner_endo_new1,2024.2.4,60.06060114664294,2025-02-14 10h24.35.322989 +0000,
cube_l.png,0.1,-0.31,valid,15,15,0,up,4.42258049999964,None,space,0.408987600000728,None,,,,,,,,,0,15,15,15,1906.9945636000002,,,,,,,,,,,,,1906.9788384000003,1906.9945636000002,1906.9945636000002,1906.9945636000002,1911.4240121000003,,,,1911.4302765000002,1911.4418258000005,1911.4418258000005,1911.4900828,1911.4903179000003,1911.5064909000002,1911.5064909000002,1911.5064909000002,1911.5730396,1911.9236995,,,,,,,,,,,,,,,,,,,,,,up,4.42258049999964,None,space,0.408987600000728,None,P111,001,2025-02-14_10h24.21.395,posner_endo_new1,2024.2.4,60.06060114664294,2025-02-14 10h24.35.322989 +0000,
cube_r.png,0.1,10,catch,16,16,0,up,4.246134100000745,None,None,,,,,,,,,,,0,16,16,16,1911.9394158000005,,,,,,,,,,,,,1911.9238862000002,1911.9394158000005,1911.9394158000005,1911.9394158000005,1916.2024430000001,,,,1916.2086666000005,1916.2200113,1916.2200113,1916.2683167000005,1916.2685529,1916.2848600000007,1916.2848600000007,1916.2848600000007,1916.3515264000007,1919.2823541000007,,,,1918.3661044,1919.2985365000004,1919.2985365000004,1919.2985365000004,,,,,,,,,,,,,,,up,4.246134100000745,None,None,,,P111,001,2025-02-14_10h24.21.395,posner_endo_new1,2024.2.4,60.06060114664294,2025-02-14 10h24.35.322989 +0000,
cube_r.png,0.1,10,catch,17,17,0,up,1.3988179999996646,None,None,,,,,,,,,,,0,17,17,17,1919.2985365000004,,,,,,,,,,,,,1919.2825277000002,1919.2985365000004,1919.2985365000004,1919.2985365000004,1920.6983666000006,,,,1920.7045512000004,1920.7161341,1920.7161341,1920.763814,1920.7640516000001,1920.7803319000004,1920.7803319000004,1920.7803319000004,1920.8635617,1923.7777713000005,,,,1922.8783962000007,1923.7938602000004,1923.7938602000004,1923.7938602000004,,,,,,,,,,,,,,,up,1.3988179999996646,None,None,,,P111,001,2025-02-14_10h24.21.395,posner_endo_new1,2024.2.4,60.06060114664294,2025-02-14 10h24.35.322989 +0000,
cube_l.png,0.1,0.31,invalid,18,18,0,up,1.1592753999993874,None,space,0.503711100000146,None,,,,,,,,,0,18,18,18,1923.7938602000004,,,,,,,,,,,,,1923.7779412,1923.7938602000004,1923.7938602000004,1923.7938602000004,1924.9603367,,,,1924.9666342,1924.9781165000004,1924.9781165000004,1925.0259987,1925.0262417000004,1925.0426084,1925.0426084,1925.0426084,1925.1258950000001,1925.5596957000007,,,,,,,,,,,,,,,,,,,,,,up,1.1592753999993874,None,space,0.503711100000146,None,P111,001,2025-02-14_10h24.21.395,posner_endo_new1,2024.2.4,60.06060114664294,2025-02-14 10h24.35.322989 +0000,
cube_l.png,0.1,10,catch,19,19,0,up,3.673612200000207,None,None,,,,,,,,,,,0,19,19,19,1925.575484,,,,,,,,,,,,,1925.5598748000002,1925.575484,1925.575484,1925.575484,1929.2559638000002,,,,1929.2621425000007,1929.2736811000004,1929.2736811000004,1929.3217161000002,1929.3219604000005,1929.3383833000007,1929.3383833000007,1929.3383833000007,1929.4214261000006,1932.3357167000004,,,,1931.4361889000002,1932.3519266000003,1932.3519266000003,1932.3519266000003,,,,,,,,,,,,,,,up,3.673612200000207,None,None,,,P111,001,2025-02-14_10h24.21.395,posner_endo_new1,2024.2.4,60.06060114664294,2025-02-14 10h24.35.322989 +0000,
cube_l.png,0.1,0.31,invalid,20,20,0,up,2.9693662999998196,None,space,0.4997575000006691,None,,,,,,,,,0,20,20,20,1932.3519266000003,,,,,,,,,,,,,1932.3358864000002,1932.3519266000003,1932.3519266000003,1932.3519266000003,1935.3329777,,,,1935.3391956000005,1935.3507212000004,1935.3507212000004,1935.3990605,1935.3992990000006,1935.4153002000003,1935.4153002000003,1935.4153002000003,1935.4820073,1935.9158701000006,,,,,,,,,,,,,,,,,,,,,,up,2.9693662999998196,None,space,0.4997575000006691,None,P111,001,2025-02-14_10h24.21.395,posner_endo_new1,2024.2.4,60.06060114664294,2025-02-14 10h24.35.322989 +0000,
cube_l.png,0.1,-0.31,valid,21,21,0,up,4.213746500000525,None,space,0.6361317999999301,None,,,,,,,,,0,21,21,21,1935.9311833000002,,,,,,,,,,,,,1935.9160584,1935.9311833000002,1935.9311833000002,1935.9311833000002,1940.1612210000003,,,,1940.1674399000003,1940.1791315,1940.1791315,1940.2272724000004,1940.2275091000001,1940.2437198000007,1940.2437198000007,1940.2437198000007,1940.3103384000005,1940.8939817,,,,,,,,,,,,,,,,,,,,,,up,4.213746500000525,None,space,0.6361317999999301,None,P111,001,2025-02-14_10h24.21.395,posner_endo_new1,2024.2.4,60.06060114664294,2025-02-14 10h24.35.322989 +0000,
cube_r.png,0.1,0.31,valid,22,22,0,up,4.291553200000635,None,space,0.47151840000060474,None,,,,,,,,,0,22,22,22,1940.9097512000008,,,,,,,,,,,,,1940.8941640000003,1940.9097512000008,1940.9097512000008,1940.9097512000008,1945.2061014,,,,1945.2122515,1945.2238581000001,1945.2238581000001,1945.2720639,1945.2722998,1945.2884655000007,1945.2884655000007,1945.2884655000007,1945.3551426000004,1945.7722216000002,,,,,,,,,,,,,,,,,,,,,,up,4.291553200000635,None,space,0.47151840000060474,None,P111,001,2025-02-14_10h24.21.395,posner_endo_new1,2024.2.4,60.06060114664294,2025-02-14 10h24.35.322989 +0000,
cube_r.png,0.1,-0.31,invalid,23,23,0,up,4.812817299999551,None,space,0.5038292000008369,None,,,,,,,,,0,23,23,23,1945.7881883,,,,,,,,,,,,,1945.7724034000003,1945.7881883,1945.7881883,1945.7881883,1950.6172225999999,,,,1950.6233030000003,1950.6347873000004,1950.6347873000004,1950.6832754000006,1950.683521,1950.6996694,1950.6996694,1950.6996694,1950.7829579,1951.2166500000003,,,,,,,,,,,,,,,,,,,,,,up,4.812817299999551,None,space,0.5038292000008369,None,P111,001,2025-02-14_10h24.21.395,posner_endo_new1,2024.2.4,60.06060114664294,2025-02-14 10h24.35.322989 +0000,
cube_r.png,0.1,0.31,valid,24,24,0,up,4.776232500000333,None,space,0.4613779000001159,None,,,,,,,,,0,24,24,24,1951.2324947000006,,,,,,,,,,,,,1951.2168326,1951.2324947000006,1951.2324947000006,1951.2324947000006,1956.0118368000003,,,,1956.0180150000006,1956.0297294000002,1956.0297294000002,1956.07766,1956.0778994000002,1956.0941266,1956.0941266,1956.0941266,1956.1774296000003,1956.5615097,,,,,,,,,,,,,,,,,,,,,,up,4.776232500000333,None,space,0.4613779000001159,None,P111,001,2025-02-14_10h24.21.395,posner_endo_new1,2024.2.4,60.06060114664294,2025-02-14 10h24.35.322989 +0000,
cube_r.png,0.1,-0.31,invalid,25,25,0,up,4.415861700000278,None,space,0.45336909999969066,None,,,,,,,,,0,25,25,25,1956.5769676,,,,,,,,,,,,,1956.5616973000006,1956.5769676,1956.5769676,1956.5769676,1961.0065890000005,,,,1961.0127169000007,1961.0242687,1961.0242687,1961.0726332000004,1961.0728797000002,1961.0893658000005,1961.0893658000005,1961.0893658000005,1961.1558254000001,1961.5560363000004,,,,,,,,,,,,,,,,,,,,,,up,4.415861700000278,None,space,0.45336909999969066,None,P111,001,2025-02-14_10h24.21.395,posner_endo_new1,2024.2.4,60.06060114664294,2025-02-14 10h24.35.322989 +0000,
cube_l.png,0.1,-0.31,valid,26,26,0,up,4.341459300000679,None,space,0.46587820000058855,None,,,,,,,,,0,26,26,26,1961.5719643000002,,,,,,,,,,,,,1961.5562175000005,1961.5719643000002,1961.5719643000002,1961.5719643000002,1965.9182688,,,,1965.9245001,1965.9360825000003,1965.9360825000003,1965.9841274,1965.9843647000007,1966.0007745000003,1966.0007745000003,1966.0007745000003,1966.0839087000004,1966.4678134000005,,,,,,,,,,,,,,,,,,,,,,up,4.341459300000679,None,space,0.46587820000058855,None,P111,001,2025-02-14_10h24.21.395,posner_endo_new1,2024.2.4,60.06060114664294,2025-02-14 10h24.35.322989 +0000,
cube_r.png,0.1,0.31,valid,27,27,0,up,4.374056699999528,None,space,0.47290440000051603,None,,,,,,,,,0,27,27,27,1966.4834625000003,,,,,,,,,,,,,1966.4679948000003,1966.4834625000003,1966.4834625000003,1966.4834625000003,1970.86355,,,,1970.8697831,1970.8814551000005,1970.8814551000005,1970.9292454000006,1970.9294829,1970.9456261000005,1970.9456261000005,1970.9456261000005,1971.0288871000002,1971.4291644000004,,,,,,,,,,,,,,,,,,,,,,up,4.374056699999528,None,space,0.47290440000051603,None,P111,001,2025-02-14_10h24.21.395,posner_endo_new1,2024.2.4,60.06060114664294,2025-02-14 10h24.35.322989 +0000,
cube_r.png,0.1,10,catch,28,28,0,up,3.9875112999998237,None,None,,,,,,,,,,,0,28,28,28,1971.4451876000003,,,,,,,,,,,,,1971.4293537000003,1971.4451876000003,1971.4451876000003,1971.4451876000003,1975.4418432000002,,,,1975.4479503000002,1975.4594278000004,1975.4594278000004,1975.5077035000004,1975.5079404000007,1975.5242819000005,1975.5242819000005,1975.5242819000005,1975.5910286000008,1978.5217595000004,,,,1977.6055801000002,1978.5378341000005,1978.5378341000005,1978.5378341000005,,,,,,,,,,,,,,,up,3.9875112999998237,None,None,,,P111,001,2025-02-14_10h24.21.395,posner_endo_new1,2024.2.4,60.06060114664294,2025-02-14 10h24.35.322989 +0000,
cube_r.png,0.1,0.31,valid,29,29,0,up,1.8472099000000526,None,space,0.5278985000004468,None,,,,,,,,,0,29,29,29,1978.5378341000005,,,,,,,,,,,,,1978.5219371000003,1978.5378341000005,1978.5378341000005,1978.5378341000005,1980.3869384,,,,1980.3931353000007,1980.4046263999999,1980.4046263999999,1980.4528464000005,1980.4530903000004,1980.4692251000006,1980.4692251000006,1980.4692251000006,1980.5523549,1981.0027562000005,,,,,,,,,,,,,,,,,,,,,,up,1.8472099000000526,None,space,0.5278985000004468,None,P111,001,2025-02-14_10h24.21.395,posner_endo_new1,2024.2.4,60.06060114664294,2025-02-14 10h24.35.322989 +0000,
cube_r.png,0.1,0.31,valid,30,30,0,up,4.766823599999952,None,space,0.5054672999995091,None,,,,,,,,,0,30,30,30,1981.0186828000005,,,,,,,,,,,,,1981.0029402,1981.0186828000005,1981.0186828000005,1981.0186828000005,1985.7978707000002,,,,1985.8039844000004,1985.8155388000005,1985.8155388000005,1985.8638011000003,1985.8640470999999,1985.8803157000002,1985.8803157000002,1985.8803157000002,1985.9467109000007,1986.3973556,,,,,,,,,,,,,,,,,,,,,,up,4.766823599999952,None,space,0.5054672999995091,None,P111,001,2025-02-14_10h24.21.395,posner_endo_new1,2024.2.4,60.06060114664294,2025-02-14 10h24.35.322989 +0000,
cube_l.png,0.1,-0.31,valid,31,31,0,up,4.828568900000391,None,space,0.4342159999996511,None,,,,,,,,,0,31,31,31,1986.4131012000007,,,,,,,,,,,,,1986.3975440000004,1986.4131012000007,1986.4131012000007,1986.4131012000007,1991.2424882000005,,,,1991.2485984000004,1991.2600415000006,1991.2600415000006,1991.3080993000003,1991.3083344000006,1991.3248021,1991.3248021,1991.3248021,1991.4080752,1991.7753117000002,,,,,,,,,,,,,,,,,,,,,,up,4.828568900000391,None,space,0.4342159999996511,None,P111,001,2025-02-14_10h24.21.395,posner_endo_new1,2024.2.4,60.06060114664294,2025-02-14 10h24.35.322989 +0000,
cube_r.png,0.1,0.31,valid,32,32,0,up,4.370222199999262,None,space,0.47902870000052644,None,,,,,,,,,0,32,32,32,1991.7908948000004,,,,,,,,,,,,,1991.7755012000007,1991.7908948000004,1991.7908948000004,1991.7908948000004,1996.1705177000003,,,,1996.1766690000004,1996.1881634000001,1996.1881634000001,1996.2366430000002,1996.2368873000005,1996.2530292000001,1996.2530292000001,1996.2530292000001,1996.3196165,1996.7368077,,,,,,,,,,,,,,,,,,,,,,up,4.370222199999262,None,space,0.47902870000052644,None,P111,001,2025-02-14_10h24.21.395,posner_endo_new1,2024.2.4,60.06060114664294,2025-02-14 10h24.35.322989 +0000,
cube_r.png,0.1,-0.31,invalid,33,33,0,up,4.489039699999921,None,space,0.4279373999997915,None,,,,,,,,,0,33,33,33,1996.7524864000006,,,,,,,,,,,,,1996.7369997000005,1996.7524864000006,1996.7524864000006,1996.7524864000006,2001.2487126000005,,,,2001.2548786000007,2001.2663207000005,2001.2663207000005,2001.3148177000003,2001.3150660000001,2001.3311114000007,2001.3311114000007,2001.3311114000007,2001.3977203000004,2001.7650370000001,,,,,,,,,,,,,,,,,,,,,,up,4.489039699999921,None,space,0.4279373999997915,None,P111,001,2025-02-14_10h24.21.395,posner_endo_new1,2024.2.4,60.06060114664294,2025-02-14 10h24.35.322989 +0000,
cube_r.png,0.1,10,catch,34,34,0,up,4.292906299999231,None,None,,,,,,,,,,,0,34,34,34,2001.7806078000003,,,,,,,,,,,,,2001.7652261000003,2001.7806078000003,2001.7806078000003,2001.7806078000003,2006.077198,,,,2006.0832805,2006.0948257,2006.0948257,2006.1430476000005,2006.1432955999999,2006.1596040000004,2006.1596040000004,2006.1596040000004,2006.2427811000007,2009.1570529,,,,2008.2573937000006,2009.1731845000004,2009.1731845000004,2009.1731845000004,,,,,,,,,,,,,,,up,4.292906299999231,None,None,,,P111,001,2025-02-14_10h24.21.395,posner_endo_new1,2024.2.4,60.06060114664294,2025-02-14 10h24.35.322989 +0000,
cube_r.png,0.1,0.31,valid,35,35,0,up,1.8762845999999627,None,space,0.3956484000000273,None,,,,,,,,,0,35,35,35,2009.1731845000004,,,,,,,,,,,,,2009.1572214000007,2009.1731845000004,2009.1731845000004,2009.1731845000004,2011.0551507,,,,2011.0614088000002,2011.0729738,2011.0729738,2011.1212175,2011.1214694,2011.1378588000007,2011.1378588000007,2011.1378588000007,2011.2042461,2011.5382405,,,,,,,,,,,,,,,,,,,,,,up,1.8762845999999627,None,space,0.3956484000000273,None,P111,001,2025-02-14_10h24.21.395,posner_endo_new1,2024.2.4,60.06060114664294,2025-02-14 10h24.35.322989 +0000,
cube_r.png,0.1,-0.31,invalid,36,36,0,up,4.103312899999764,None,space,0.4570059999996374,None,,,,,,,,,0,36,36,36,2011.5540245000002,,,,,,,,,,,,,2011.5384217,2011.5540245000002,2011.5540245000002,2011.5540245000002,2015.6673020000007,,,,2015.6733961,2015.6848946,2015.6848946,2015.7332869000002,2015.7335280000007,2015.7498518000002,2015.7498518000002,2015.7498518000002,2015.8330565000006,2016.216923,,,,,,,,,,,,,,,,,,,,,,up,4.103312899999764,None,space,0.4570059999996374,None,P111,001,2025-02-14_10h24.21.395,posner_endo_new1,2024.2.4,60.06060114664294,2025-02-14 10h24.35.322989 +0000,
cube_l.png,0.1,0.31,invalid,37,37,0,up,3.9124649000004865,None,space,0.5717468000002555,None,,,,,,,,,0,37,37,37,2016.2325116000002,,,,,,,,,,,,,2016.2171117000007,2016.2325116000002,2016.2325116000002,2016.2325116000002,2020.1460351000005,,,,2020.1522523000003,2020.1639639000005,2020.1639639000005,2020.2119313000003,2020.2121677000005,2020.2286312000006,2020.2286312000006,2020.2286312000006,2020.2950690000007,2020.8119753,,,,,,,,,,,,,,,,,,,,,,up,3.9124649000004865,None,space,0.5717468000002555,None,P111,001,2025-02-14_10h24.21.395,posner_endo_new1,2024.2.4,60.06060114664294,2025-02-14 10h24.35.322989 +0000,
cube_l.png,0.1,0.31,invalid,38,38,0,up,4.580848400000832,None,space,0.7897336000005453,None,,,,,,,,,0,38,38,38,2020.8279484000004,,,,,,,,,,,,,2020.812167,2020.8279484000004,2020.8279484000004,2020.8279484000004,2025.4239053000001,,,,2025.4300241,2025.4415021000004,2025.4415021000004,2025.4898387000003,2025.490076,2025.5064711000005,2025.5064711000005,2025.5064711000005,2025.5897890000006,2026.3063872000002,,,,,,,,,,,,,,,,,,,,,,up,4.580848400000832,None,space,0.7897336000005453,None,P111,001,2025-02-14_10h24.21.395,posner_endo_new1,2024.2.4,60.06060114664294,2025-02-14 10h24.35.322989 +0000,
cube_r.png,0.1,0.31,valid,39,39,0,up,5.550418800000443,None,space,0.5337602999998126,None,,,,,,,,,0,39,39,39,2026.3222868000003,,,,,,,,,,,,,2026.3065764000003,2026.3222868000003,2026.3222868000003,2026.3222868000003,2031.8840271,,,,2031.8902133000001,2031.9017117000003,2031.9017117000003,2031.9499821,2031.9502179,2031.9663662000003,2031.9663662000003,2031.9663662000003,2032.0498349,2032.516783,,,,,,,,,,,,,,,,,,,,,,up,5.550418800000443,None,space,0.5337602999998126,None,P111,001,2025-02-14_10h24.21.395,posner_endo_new1,2024.2.4,60.06060114664294,2025-02-14 10h24.35.322989 +0000,
cube_l.png,0.1,0.31,invalid,40,40,0,up,5.220470700000078,None,space,0.4636424000000261,None,,,,,,,,,0,40,40,40,2032.5324467,,,,,,,,,,,,,2032.5169642,2032.5324467,2032.5324467,2032.5324467,2037.7613164000004,,,,2037.7674609000005,2037.7790071,2037.7790071,2037.8272890000007,2037.8275268000007,2037.8437047000007,2037.8437047000007,2037.8437047000007,2037.9103531,2038.3106174000004,,,,,,,,,,,,,,,,,,,,,,up,5.220470700000078,None,space,0.4636424000000261,None,P111,001,2025-02-14_10h24.21.395,posner_endo_new1,2024.2.4,60.06060114664294,2025-02-14 10h24.35.322989 +0000,
cube_l.png,0.1,10,catch,41,41,0,up,4.202120599999944,None,None,,,,,,,,,,,0,41,41,41,2038.3264996000007,,,,,,,,,,,,,2038.3108070000008,2038.3264996000007,2038.3264996000007,2038.3264996000007,2042.5397343000004,,,,2042.5459517,2042.5575436,2042.5575436,2042.60567,2042.6059165000006,2042.6222449000006,2042.6222449000006,2042.6222449000006,2042.7055224000005,2045.6194555000002,,,,2044.7201927000006,2045.6358213000003,2045.6358213000003,2045.6358213000003,,,,,,,,,,,,,,,up,4.202120599999944,None,None,,,P111,001,2025-02-14_10h24.21.395,posner_endo_new1,2024.2.4,60.06060114664294,2025-02-14 10h24.35.322989 +0000,
cube_l.png,0.1,-0.31,valid,42,42,0,up,2.1493800999996893,None,space,0.4054598000002443,None,,,,,,,,,0,42,42,42,2045.6358213000003,,,,,,,,,,,,,2045.6196345000008,2045.6358213000003,2045.6358213000003,2045.6358213000003,2047.8009683999999,,,,2047.8071250000003,2047.8185975000006,2047.8185975000006,2047.8670563000005,2047.8672929000004,2047.8835754000002,2047.8835754000002,2047.8835754000002,2047.9499251000007,2048.3006321000003,,,,,,,,,,,,,,,,,,,,,,up,2.1493800999996893,None,space,0.4054598000002443,None,P111,001,2025-02-14_10h24.21.395,posner_endo_new1,2024.2.4,60.06060114664294,2025-02-14 10h24.35.322989 +0000,
cube_l.png,0.1,10,catch,43,43,0,up,4.605406100000437,None,None,,,,,,,,,,,0,43,43,43,2048.3163389,,,,,,,,,,,,,2048.3008112000007,2048.3163389,2048.3163389,2048.3163389,2052.9291013,,,,2052.9352695000007,2052.9467908000006,2052.9467908000006,2052.9950476000004,2052.9952911,2053.0116971000007,2053.0116971000007,2053.0116971000007,2053.0781576,2056.0089560000006,,,,2055.0927529,2056.0252447000003,2056.0252447000003,2056.0252447000003,,,,,,,,,,,,,,,up,4.605406100000437,None,None,,,P111,001,2025-02-14_10h24.21.395,posner_endo_new1,2024.2.4,60.06060114664294,2025-02-14 10h24.35.322989 +0000,
cube_l.png,0.1,0.31,invalid,44,44,0,up,2.096048399999745,None,space,0.4911822000003667,None,,,,,,,,,0,44,44,44,2056.0252447000003,,,,,,,,,,,,,2056.0091272,2056.0252447000003,2056.0252447000003,2056.0252447000003,2058.1240461000007,,,,2058.1301239000004,2058.1415222000005,2058.1415222000005,2058.1897482000004,2058.1899876000007,2058.2062044000004,2058.2062044000004,2058.2062044000004,2058.2895584000007,2058.7065983,,,,,,,,,,,,,,,,,,,,,,up,2.096048399999745,None,space,0.4911822000003667,None,P111,001,2025-02-14_10h24.21.395,posner_endo_new1,2024.2.4,60.06060114664294,2025-02-14 10h24.35.322989 +0000,
cube_l.png,0.1,0.31,invalid,45,45,0,up,4.4225283999994645,None,space,0.538969399999587,None,,,,,,,,,0,45,45,45,2058.7222868,,,,,,,,,,,,,2058.7067914,2058.7222868,2058.7222868,2058.7222868,2063.1518558000007,,,,2063.1579495000005,2063.1693834000007,2063.1693834000007,2063.2179513,2063.2181876000004,2063.2343741000004,2063.2343741000004,2063.2343741000004,2063.3011276000007,2063.7847413,,,,,,,,,,,,,,,,,,,,,,up,4.4225283999994645,None,space,0.538969399999587,None,P111,001,2025-02-14_10h24.21.395,posner_endo_new1,2024.2.4,60.06060114664294,2025-02-14 10h24.35.322989 +0000,
cube_r.png,0.1,0.31,valid,46,46,0,up,3.720347800000127,None,space,0.7887103000002753,None,,,,,,,,,0,46,46,46,2063.8004777000006,,,,,,,,,,,,,2063.7849232,2063.8004777000006,2063.8004777000006,2063.8004777000006,2067.5306479,,,,2067.5367795,2067.5481175000004,2067.5481175000004,2067.5967805,2067.5970215000007,2067.6131872000005,2067.6131872000005,2067.6131872000005,2067.6798357000007,2068.4133493,,,,,,,,,,,,,,,,,,,,,,up,3.720347800000127,None,space,0.7887103000002753,None,P111,001,2025-02-14_10h24.21.395,posner_endo_new1,2024.2.4,60.06060114664294,2025-02-14 10h24.35.322989 +0000,
cube_l.png,0.1,-0.31,valid,47,47,0,up,5.21221179999975,None,space,0.44568510000044625,None,,,,,,,,,0,47,47,47,2068.4292061000006,,,,,,,,,,,,,2068.413531,2068.4292061000006,2068.4292061000006,2068.4292061000006,2073.6579333,,,,2073.6640958000007,2073.6753194000003,2073.6753194000003,2073.7237985,2073.7240364,2073.7403493,2073.7403493,2073.7403493,2073.8069636,2074.1907813000007,,,,,,,,,,,,,,,,,,,,,,up,5.21221179999975,None,space,0.44568510000044625,None,P111,001,2025-02-14_10h24.21.395,posner_endo_new1,2024.2.4,60.06060114664294,2025-02-14 10h24.35.322989 +0000,
cube_r.png,0.1,-0.31,invalid,48,48,0,up,5.0744432999999844,None,space,0.5404802000002746,None,,,,,,,,,0,48,48,48,2074.2065047000006,,,,,,,,,,,,,2074.1909824000004,2074.2065047000006,2074.2065047000006,2074.2065047000006,2079.2854303000004,,,,2079.2915268000006,2079.3030182,2079.3030182,2079.3514082,2079.3516505000007,2079.3680191000003,2079.3680191000003,2079.3680191000003,2079.4345257000004,2079.9181723,,,,,,,,,,,,,,,,,,,,,,up,5.0744432999999844,None,space,0.5404802000002746,None,P111,001,2025-02-14_10h24.21.395,posner_endo_new1,2024.2.4,60.06060114664294,2025-02-14 10h24.35.322989 +0000,
cube_r.png,0.1,10,catch,49,49,0,up,5.082720000000336,None,None,,,,,,,,,,,0,49,49,49,2079.9341236,,,,,,,,,,,,,2079.9183606000006,2079.9341236,2079.9341236,2079.9341236,2085.0294817000004,,,,2085.0357443000003,2085.0472533,2085.0472533,2085.0955484000006,2085.095795,2085.1120469000007,2085.1120469000007,2085.1120469000007,2085.1787279,2088.10956,,,,2087.1932736,2088.1255862000007,2088.1255862000007,2088.1255862000007,,,,,,,,,,,,,,,up,5.082720000000336,None,None,,,P111,001,2025-02-14_10h24.21.395,posner_endo_new1,2024.2.4,60.06060114664294,2025-02-14 10h24.35.322989 +0000,
cube_l.png,0.1,-0.31,valid,50,50,0,up,1.5633107999992717,None,space,0.444601899999725,None,,,,,,,,,0,50,50,50,2088.1255862000007,,,,,,,,,,,,,2088.1097336000003,2088.1255862000007,2088.1255862000007,2088.1255862000007,2089.6916518000007,,,,2089.6978267000004,2089.7093524,2089.7093524,2089.7574092000004,2089.7576509,2089.7738666000005,2089.7738666000005,2089.7738666000005,2089.8572443000003,2090.2243046000003,,,,,,,,,,,,,,,,,,,,,,up,1.5633107999992717,None,space,0.444601899999725,None,P111,001,2025-02-14_10h24.21.395,posner_endo_new1,2024.2.4,60.06060114664294,2025-02-14 10h24.35.322989 +0000,
cube_l.png,0.1,-0.31,valid,51,51,0,up,4.488355800000136,None,space,0.47403699999995297,None,,,,,,,,,0,51,51,51,2090.2401838000005,,,,,,,,,,,,,2090.2245016000006,2090.2401838000005,2090.2401838000005,2090.2401838000005,2094.7359452,,,,2094.7430686000007,2094.7553783000003,2094.7553783000003,2094.8020694000006,2094.8023049000003,2094.8186848000005,2094.8186848000005,2094.8186848000005,2094.8852095,2095.3023707,,,,,,,,,,,,,,,,,,,,,,up,4.488355800000136,None,space,0.47403699999995297,None,P111,001,2025-02-14_10h24.21.395,posner_endo_new1,2024.2.4,60.06060114664294,2025-02-14 10h24.35.322989 +0000,
cube_r.png,0.1,-0.31,invalid,52,52,0,up,4.2590303000006315,None,space,0.4445853999995961,None,,,,,,,,,0,52,52,52,2095.3181602000004,,,,,,,,,,,,,2095.3025503,2095.3181602000004,2095.3181602000004,2095.3181602000004,2099.5814431,,,,2099.5879128000006,2099.5994597,2099.5994597,2099.6473043000005,2099.6475493000007,2099.6638745,2099.6638745,2099.6638745,2099.7470554,2100.1141864,,,,,,,,,,,,,,,,,,,,,,up,4.2590303000006315,None,space,0.4445853999995961,None,P111,001,2025-02-14_10h24.21.395,posner_endo_new1,2024.2.4,60.06060114664294,2025-02-14 10h24.35.322989 +0000,
cube_l.png,0.1,-0.31,valid,53,53,0,up,4.886754300000575,None,space,0.4576252000006207,None,,,,,,,,,0,53,53,53,2100.1299450000006,,,,,,,,,,,,,2100.1143755000003,2100.1299450000006,2100.1299450000006,2100.1299450000006,2105.0258795,,,,2105.0322106000003,2105.0438380000005,2105.0438380000005,2105.0917319,2105.0919699000005,2105.1082846,2105.1082846,2105.1082846,2105.1748048,2105.5752095000007,,,,,,,,,,,,,,,,,,,,,,up,4.886754300000575,None,space,0.4576252000006207,None,P111,001,2025-02-14_10h24.21.395,posner_endo_new1,2024.2.4,60.06060114664294,2025-02-14 10h24.35.322989 +0000,
cube_r.png,0.1,10,catch,54,54,0,up,4.4261388000004445,None,None,,,,,,,,,,,0,54,54,54,2105.5909679000006,,,,,,,,,,,,,2105.5753949,2105.5909679000006,2105.5909679000006,2105.5909679000006,2110.0206903000008,,,,2110.0270917000007,2110.0384979,2110.0384979,2110.0866391,2110.0868765000005,2110.1032232000007,2110.1032232000007,2110.1032232000007,2110.1696343000003,2113.1007217000006,,,,2112.1843822,2113.1166661000007,2113.1166661000007,2113.1166661000007,,,,,,,,,,,,,,,up,4.4261388000004445,None,None,,,P111,001,2025-02-14_10h24.21.395,posner_endo_new1,2024.2.4,60.06060114664294,2025-02-14 10h24.35.322989 +0000,
cube_l.png,0.1,0.31,invalid,55,55,0,up,1.5560494999999719,None,space,0.44364430000041466,None,,,,,,,,,0,55,55,55,2113.1166661000007,,,,,,,,,,,,,2113.1008931000006,2113.1166661000007,2113.1166661000007,2113.1166661000007,2114.6824715000002,,,,2114.6888009000004,2114.7003718000005,2114.7003718000005,2114.7484835000005,2114.7487293000004,2114.7649126000006,2114.7649126000006,2114.7649126000006,2114.8316846000007,2115.2153468000006,,,,,,,,,,,,,,,,,,,,,,up,1.5560494999999719,None,space,0.44364430000041466,None,P111,001,2025-02-14_10h24.21.395,posner_endo_new1,2024.2.4,60.06060114664294,2025-02-14 10h24.35.322989 +0000,
cube_l.png,0.1,-0.31,valid,56,56,0,up,4.122234700000263,None,space,0.5066148999994766,None,,,,,,,,,0,56,56,56,2115.2312034000006,,,,,,,,,,,,,2115.2155376,2115.2312034000006,2115.2312034000006,2115.2312034000006,2119.3612131,,,,2119.3674384000005,2119.3790826000004,2119.3790826000004,2119.4271546,2119.4273926000005,2119.4436730000007,2119.4436730000007,2119.4436730000007,2119.5268424000005,2119.9606462,,,,,,,,,,,,,,,,,,,,,,up,4.122234700000263,None,space,0.5066148999994766,None,P111,001,2025-02-14_10h24.21.395,posner_endo_new1,2024.2.4,60.06060114664294,2025-02-14 10h24.35.322989 +0000,
cube_r.png,0.1,0.31,valid,57,57,0,up,4.312194699999964,None,space,0.46756209999966813,None,,,,,,,,,0,57,57,57,2119.9763436000003,,,,,,,,,,,,,2119.9608387000007,2119.9763436000003,2119.9763436000003,2119.9763436000003,2124.2895399,,,,2124.2961723000008,2124.3079323,2124.3079323,2124.3553995,2124.3556470000003,2124.3716219000007,2124.3716219000007,2124.3716219000007,2124.4551186,2124.8553789000007,,,,,,,,,,,,,,,,,,,,,,up,4.312194699999964,None,space,0.46756209999966813,None,P111,001,2025-02-14_10h24.21.395,posner_endo_new1,2024.2.4,60.06060114664294,2025-02-14 10h24.35.322989 +0000,
cube_r.png,0.1,-0.31,invalid,58,58,0,up,4.353607600000032,None,space,0.46383499999956257,None,,,,,,,,,0,58,58,58,2124.8714295,,,,,,,,,,,,,2124.8555601000007,2124.8714295,2124.8714295,2124.8714295,2129.2343712,,,,2129.2408048000007,2129.2525005000007,2129.2525005000007,2129.3001755000005,2129.3004211000007,2129.3169011,2129.3169011,2129.3169011,2129.4000274,2129.7838085000003,,,,,,,,,,,,,,,,,,,,,,up,4.353607600000032,None,space,0.46383499999956257,None,P111,001,2025-02-14_10h24.21.395,posner_endo_new1,2024.2.4,60.06060114664294,2025-02-14 10h24.35.322989 +0000,
cube_l.png,0.1,0.31,invalid,59,59,0,up,3.6898048000002746,None,space,0.47038919999977225,None,,,,,,,,,0,59,59,59,2129.7995882000005,,,,,,,,,,,,,2129.7839937,2129.7995882000005,2129.7995882000005,2129.7995882000005,2133.4965285000007,,,,2133.5027718,2133.5144176000003,2133.5144176000003,2133.5627616,2133.5630052000006,2133.5790996000005,2133.5790996000005,2133.5790996000005,2133.645644,2134.0628651000006,,,,,,,,,,,,,,,,,,,,,,up,3.6898048000002746,None,space,0.47038919999977225,None,P111,001,2025-02-14_10h24.21.395,posner_endo_new1,2024.2.4,60.06060114664294,2025-02-14 10h24.35.322989 +0000,
