cue_img,cue_soa,target_y,trial,thisN,thisTrialN,thisRepN,key_control2.keys,key_control2.rt,key_control2.duration,key_resp.keys,key_resp.rt,key_resp.duration,practice.thisRepN,practice.thisTrialN,practice.thisN,practice.thisIndex,block1.thisRepN,block1.thisTrialN,block1.thisN,block1.thisIndex,block2.thisRepN,block2.thisTrialN,block2.thisN,block2.thisIndex,thisRow.t,notes,instructions.started,instructions_txt.started,key_control.started,instructions.stopped,key_control.keys,key_control.rt,key_control.duration,ready.started,ready_txt.started,ready_txt.stopped,ready.stopped,fix.started,fixation.started,key_control2.started,fixation_cross.started,fix.stopped,practice.key_control2.keys,practice.key_control2.rt,practice.key_control2.duration,cue.started,cube.started,fixation_cross_cue.started,cue.stopped,target.started,fixation_target.started,fixation_cross_target.started,key_resp.started,star.started,target.stopped,practice.key_resp.keys,practice.key_resp.rt,practice.key_resp.duration,star.stopped,fixation_target.stopped,fixation_cross_target.stopped,key_resp.stopped,block1.key_control2.keys,block1.key_control2.rt,block1.key_control2.duration,block1.key_resp.keys,block1.key_resp.rt,block1.key_resp.duration,break_2.started,text.started,key_control3.started,text.stopped,break_2.stopped,key_control3.keys,key_control3.rt,key_control3.duration,block2.key_control2.keys,block2.key_control2.rt,block2.key_control2.duration,block2.key_resp.keys,block2.key_resp.rt,block2.key_resp.duration,participant,session,date,expName,psychopyVersion,frameRate,expStart,
,,,,,,,,,,,,,,,,,,,,,,,,,,,0.007308700000066892,0.019577299999582465,0.019577299999582465,622.5976623000006,up,622.5695269000007,None,,,,,,,,,,,,,,,,,,,,,,,,,,,,,,,,,,,,,,,,,,,,,,,,,,P112,001,2025-02-14_11h19.27.215,posner_endo_new1,2024.2.4,60.0993321760901,2025-02-14 11h19.32.925607 +0000,
,,,,,,,,,,,,,,,,,,,,,,,,,,,,,,,,,,622.5977158999995,622.6135692000007,625.6137581999992,625.5941930000008,,,,,,,,,,,,,,,,,,,,,,,,,,,,,,,,,,,,,,,,,,,,,,P112,001,2025-02-14_11h19.27.215,posner_endo_new1,2024.2.4,60.0993321760901,2025-02-14 11h19.32.925607 +0000,
cube_l.png,0.1,-0.31,valid,0,0,0,down,6.751415499998984,None,space,0.4014297000012448,None,0,0,0,0,,,,,,,,,625.6137581999992,,,,,,,,,,,,,625.6014747000008,625.6137581999992,625.6137581999992,625.6137581999992,632.3707754999996,down,6.751415499998984,None,632.3812600000001,632.3916453999991,632.3916453999991,632.4368699999995,632.4370920000001,632.4533353000006,632.4533353000006,632.4533353000006,632.5198435000002,632.8704722999992,space,0.4014297000012448,None,,,,,,,,,,,,,,,,,,,,,,,,,P112,001,2025-02-14_11h19.27.215,posner_endo_new1,2024.2.4,60.0993321760901,2025-02-14 11h19.32.925607 +0000,
cube_l.png,0.1,0.31,invalid,1,1,0,down,5.543089700000564,None,space,0.4491561999984697,None,0,1,1,1,,,,,,,,,632.8863263000003,,,,,,,,,,,,,632.8706378999996,632.8863263000003,632.8863263000003,632.8863263000003,638.4312891999998,down,5.543089700000564,None,638.4376384000007,638.4493898000001,638.4493898000001,638.4974206999996,638.4976664999995,638.5139997000006,638.5139997000006,638.5139997000006,638.5807750000004,638.9644480000006,space,0.4491561999984697,None,,,,,,,,,,,,,,,,,,,,,,,,,P112,001,2025-02-14_11h19.27.215,posner_endo_new1,2024.2.4,60.0993321760901,2025-02-14 11h19.32.925607 +0000,
cube_r.png,0.1,-0.31,invalid,2,2,0,down,1.6489985999996861,None,space,0.42331889999877603,None,0,2,2,2,,,,,,,,,638.9803644000003,,,,,,,,,,,,,638.9646209999992,638.9803644000003,638.9803644000003,638.9803644000003,640.6456116000008,down,1.6489985999996861,None,640.6515933999999,640.6630229999992,640.6630229999992,640.7117987000001,640.7120219999997,640.7281989999992,640.7281989999992,640.7281989999992,640.7948025999995,641.1618008999994,space,0.42331889999877603,None,,,,,,,,,,,,,,,,,,,,,,,,,P112,001,2025-02-14_11h19.27.215,posner_endo_new1,2024.2.4,60.0993321760901,2025-02-14 11h19.32.925607 +0000,
cube_r.png,0.1,10,catch,3,3,0,down,1.5065302999992127,None,None,,,0,3,3,3,,,,,,,,,641.1778431999992,,,,,,,,,,,,,641.1619764000006,641.1778431999992,641.1778431999992,641.1778431999992,642.6935285,down,1.5065302999992127,None,642.6994603000003,642.7111951999996,642.7111951999996,642.7595547000001,642.7597764999991,642.7761771999994,642.7761771999994,642.7761771999994,642.8426643000003,645.7736533000007,None,,,644.8573866000006,645.7898497999995,645.7898497999995,645.7898497999995,,,,,,,,,,,,,,,,,,,,,P112,001,2025-02-14_11h19.27.215,posner_endo_new1,2024.2.4,60.0993321760901,2025-02-14 11h19.32.925607 +0000,
cube_l.png,0.1,-0.31,valid,4,4,0,down,1.2226818000017374,None,space,0.3506414000003133,None,0,4,4,4,,,,,,,,,645.7898497999995,,,,,,,,,,,,,645.7738059000003,645.7898497999995,645.7898497999995,645.7898497999995,647.0227255000009,down,1.2226818000017374,None,647.0286195999997,647.0402106000001,647.0402106000001,647.0886191000009,647.0888402,647.1051076999993,647.1051076999993,647.1051076999993,647.1717609999996,647.4723193999998,space,0.3506414000003133,None,,,,,,,,,,,,,,,,,,,,,,,,,P112,001,2025-02-14_11h19.27.215,posner_endo_new1,2024.2.4,60.0993321760901,2025-02-14 11h19.32.925607 +0000,
cube_l.png,0.1,0.31,invalid,5,5,0,down,1.949150999998892,None,space,0.3599075999991328,None,0,5,5,5,,,,,,,,,647.4880049000003,,,,,,,,,,,,,647.4725008000005,647.4880049000003,647.4880049000003,647.4880049000003,649.4534454999994,down,1.949150999998892,None,649.4593986,649.4710883999996,649.4710883999996,649.5195879000003,649.5198092999999,649.5359234000007,649.5359234000007,649.5359234000007,649.6191058000004,649.9028189,space,0.3599075999991328,None,,,,,,,,,,,,,,,,,,,,,,,,,P112,001,2025-02-14_11h19.27.215,posner_endo_new1,2024.2.4,60.0993321760901,2025-02-14 11h19.32.925607 +0000,
cube_r.png,0.1,-0.31,invalid,6,6,0,down,3.5262741000005917,None,space,0.29124120000051335,None,0,6,6,6,,,,,,,,,649.9188365999998,,,,,,,,,,,,,649.9029905000007,649.9188365999998,649.9188365999998,649.9188365999998,653.4494845000008,down,3.5262741000005917,None,653.4556616000009,653.4674601000006,653.4674601000006,653.5153544999994,653.5155771999998,653.5319959999997,653.5319959999997,653.5319959999997,653.6152103000004,653.8323201000003,space,0.29124120000051335,None,,,,,,,,,,,,,,,,,,,,,,,,,P112,001,2025-02-14_11h19.27.215,posner_endo_new1,2024.2.4,60.0993321760901,2025-02-14 11h19.32.925607 +0000,
cube_r.png,0.1,0.31,valid,7,7,0,down,4.549252099999649,None,space,0.3145673999988503,None,0,7,7,7,,,,,,,,,653.8481484000004,,,,,,,,,,,,,653.8324902000004,653.8481484000004,653.8481484000004,653.8481484000004,658.4110572999998,down,4.549252099999649,None,658.4170140999995,658.4287101999998,658.4287101999998,658.4769622999993,658.4771980999994,658.4934200000007,658.4934200000007,658.4934200000007,658.5600861000003,658.8107392999991,space,0.3145673999988503,None,,,,,,,,,,,,,,,,,,,,,,,,,P112,001,2025-02-14_11h19.27.215,posner_endo_new1,2024.2.4,60.0993321760901,2025-02-14 11h19.32.925607 +0000,
cube_l.png,0.1,-0.31,valid,8,8,0,down,1.8416835000007268,None,space,0.3078504000004614,None,0,8,8,8,,,,,,,,,658.8266545999995,,,,,,,,,,,,,658.8109138,658.8266545999995,658.8266545999995,658.8266545999995,660.6752171000007,down,1.8416835000007268,None,660.6812012999999,660.6928834999999,660.6928834999999,660.7412435999995,660.7414669999998,660.7580364000005,660.7580364000005,660.7580364000005,660.8243586999997,661.0749023999997,space,0.3078504000004614,None,,,,,,,,,,,,,,,,,,,,,,,,,P112,001,2025-02-14_11h19.27.215,posner_endo_new1,2024.2.4,60.0993321760901,2025-02-14 11h19.32.925607 +0000,
cube_r.png,0.1,-0.31,invalid,9,9,0,down,2.689791000000696,None,space,0.24846729999990202,None,0,9,9,9,,,,,,,,,661.0908087999996,,,,,,,,,,,,,661.0750785,661.0908087999996,661.0908087999996,661.0908087999996,663.7888227000003,down,2.689791000000696,None,663.7948030999996,663.8064940000004,663.8064940000004,663.8546275000008,663.8548501999994,663.8713599000002,663.8713599000002,663.8713599000002,663.9378362000007,664.1217221000006,space,0.24846729999990202,None,,,,,,,,,,,,,,,,,,,,,,,,,P112,001,2025-02-14_11h19.27.215,posner_endo_new1,2024.2.4,60.0993321760901,2025-02-14 11h19.32.925607 +0000,
cube_r.png,0.1,0.31,valid,10,10,0,down,2.6115967000005185,None,space,0.23760260000017297,None,0,10,10,10,,,,,,,,,664.1376137999996,,,,,,,,,,,,,664.1218943999993,664.1376137999996,664.1376137999996,664.1376137999996,666.7524025000002,down,2.6115967000005185,None,666.7582598000008,666.7701304999991,666.7701304999991,666.8184309999997,666.8186547000005,666.8349737000008,666.8349737000008,666.8349737000008,666.9015012,667.0853112000004,space,0.23760260000017297,None,,,,,,,,,,,,,,,,,,,,,,,,,P112,001,2025-02-14_11h19.27.215,posner_endo_new1,2024.2.4,60.0993321760901,2025-02-14 11h19.32.925607 +0000,
,,,,,,,,,,,,,,,,,,,,,,,,,,,,,,,,,,667.0854194000003,667.1013856000009,670.1019563000009,670.0819993000005,,,,,,,,,,,,,,,,,,,,,,,,,,,,,,,,,,,,,,,,,,,,,,P112,001,2025-02-14_11h19.27.215,posner_endo_new1,2024.2.4,60.0993321760901,2025-02-14 11h19.32.925607 +0000,
cube_l.png,0.1,10,catch,0,0,0,down,10.318758499999603,None,None,,,,,,,0,0,0,0,,,,,670.1019563000009,,,,,,,,,,,,,670.0930910000006,670.1019563000009,670.1019563000009,670.1019563000009,680.4217105999996,,,,680.4277320000001,680.4393268000003,680.4393268000003,680.4877914000008,680.4880183000005,680.5041574000006,680.5041574000006,680.5041574000006,680.5874970000004,683.5017496,,,,682.6020583999998,683.5178887000002,683.5178887000002,683.5178887000002,down,10.318758499999603,None,None,,,,,,,,,,,,,,,,,P112,001,2025-02-14_11h19.27.215,posner_endo_new1,2024.2.4,60.0993321760901,2025-02-14 11h19.32.925607 +0000,
cube_l.png,0.1,10,catch,1,1,0,down,0.903336199999103,None,None,,,,,,,0,1,1,1,,,,,683.5178887000002,,,,,,,,,,,,,683.5019202000003,683.5178887000002,683.5178887000002,683.5178887000002,684.4342706000007,,,,684.4402420000006,684.4519524000007,684.4519524000007,684.5003799999995,684.5006049999993,684.5167693999992,684.5167693999992,684.5167693999992,684.5836123999998,687.5142336000008,,,,686.5980146000002,687.5302616000008,687.5302616000008,687.5302616000008,down,0.903336199999103,None,None,,,,,,,,,,,,,,,,,P112,001,2025-02-14_11h19.27.215,posner_endo_new1,2024.2.4,60.0993321760901,2025-02-14 11h19.32.925607 +0000,
cube_l.png,0.1,0.31,invalid,2,2,0,down,1.1945371000001614,None,space,0.3788891000003787,None,,,,,0,2,2,2,,,,,687.5302616000008,,,,,,,,,,,,,687.5144061999999,687.5302616000008,687.5302616000008,687.5302616000008,688.7300075000003,,,,688.7359438999993,688.7476422,688.7476422,688.7959432999996,688.7961649999997,688.8124320999996,688.8124320999996,688.8124320999996,688.8789486000005,689.1960096000003,,,,,,,,down,1.1945371000001614,None,space,0.3788891000003787,None,,,,,,,,,,,,,,,P112,001,2025-02-14_11h19.27.215,posner_endo_new1,2024.2.4,60.0993321760901,2025-02-14 11h19.32.925607 +0000,
cube_l.png,0.1,0.31,invalid,3,3,0,down,3.9373880999992252,None,space,0.31301799999891955,None,,,,,0,3,3,3,,,,,689.2119046000007,,,,,,,,,,,,,689.1961812999998,689.2119046000007,689.2119046000007,689.2119046000007,693.1585978000003,,,,693.1644553999995,693.1759891999991,693.1759891999991,693.2246312999996,693.2248529999997,693.2411305000005,693.2411305000005,693.2411305000005,693.3078249999999,693.5583936999992,,,,,,,,down,3.9373880999992252,None,space,0.31301799999891955,None,,,,,,,,,,,,,,,P112,001,2025-02-14_11h19.27.215,posner_endo_new1,2024.2.4,60.0993321760901,2025-02-14 11h19.32.925607 +0000,
cube_l.png,0.1,-0.31,valid,4,4,0,down,3.710383299998284,None,space,0.3492201999997633,None,,,,,0,4,4,4,,,,,693.5741648999992,,,,,,,,,,,,,693.5585795000006,693.5741648999992,693.5741648999992,693.5741648999992,697.2877131999994,,,,697.2936645000009,697.3055050999992,697.3055050999992,697.3537479999995,697.3539695,697.3703514999997,697.3703514999997,697.3703514999997,697.4368579000002,697.7207634999995,,,,,,,,down,3.710383299998284,None,space,0.3492201999997633,None,,,,,,,,,,,,,,,P112,001,2025-02-14_11h19.27.215,posner_endo_new1,2024.2.4,60.0993321760901,2025-02-14 11h19.32.925607 +0000,
cube_r.png,0.1,-0.31,invalid,5,5,0,down,3.500621899998805,None,space,0.2694346999996924,None,,,,,0,5,5,5,,,,,697.7365477000003,,,,,,,,,,,,,697.7209442999992,697.7365477000003,697.7365477000003,697.7365477000003,701.2501162999997,,,,701.2560821000006,701.2676527000003,701.2676527000003,701.3165812000007,701.3168031000005,701.3329584999992,701.3329584999992,701.3329584999992,701.3995116999995,701.6166790999996,,,,,,,,down,3.500621899998805,None,space,0.2694346999996924,None,,,,,,,,,,,,,,,P112,001,2025-02-14_11h19.27.215,posner_endo_new1,2024.2.4,60.0993321760901,2025-02-14 11h19.32.925607 +0000,
cube_r.png,0.1,0.31,valid,6,6,0,down,3.4525153000013233,None,space,0.281429599999683,None,,,,,0,6,6,6,,,,,701.6325582999998,,,,,,,,,,,,,701.6168515999998,701.6325582999998,701.6325582999998,701.6325582999998,705.0963635000007,,,,705.1023301000005,705.1140570999996,705.1140570999996,705.1626988999997,705.1629254,705.1790708000008,705.1790708000008,705.1790708000008,705.2455035999992,705.4627633,,,,,,,,down,3.4525153000013233,None,space,0.281429599999683,None,,,,,,,,,,,,,,,P112,001,2025-02-14_11h19.27.215,posner_endo_new1,2024.2.4,60.0993321760901,2025-02-14 11h19.32.925607 +0000,
cube_r.png,0.1,-0.31,invalid,7,7,0,down,3.3583299000001716,None,space,0.4341128000014578,None,,,,,0,7,7,7,,,,,705.4786676000003,,,,,,,,,,,,,705.4629428999997,705.4786676000003,705.4786676000003,705.4786676000003,708.8427515999992,,,,708.8488634999994,708.8604111000004,708.8604111000004,708.9086640999994,708.9088962999995,708.9249901999992,708.9249901999992,708.9249901999992,708.9916637999995,709.3755906999995,,,,,,,,down,3.3583299000001716,None,space,0.4341128000014578,None,,,,,,,,,,,,,,,P112,001,2025-02-14_11h19.27.215,posner_endo_new1,2024.2.4,60.0993321760901,2025-02-14 11h19.32.925607 +0000,
cube_l.png,0.1,-0.31,valid,8,8,0,down,4.325201300000117,None,space,0.37711120000130904,None,,,,,0,8,8,8,,,,,709.3911988,,,,,,,,,,,,,709.3757734999999,709.3911988,709.3911988,709.3911988,713.7211000999996,,,,713.7272699999994,713.7388855000008,713.7388855000008,713.7869582999992,713.7871930000001,713.8034575000001,713.8034575000001,713.8034575000001,713.8701906999995,714.1872578999992,,,,,,,,down,4.325201300000117,None,space,0.37711120000130904,None,,,,,,,,,,,,,,,P112,001,2025-02-14_11h19.27.215,posner_endo_new1,2024.2.4,60.0993321760901,2025-02-14 11h19.32.925607 +0000,
cube_r.png,0.1,-0.31,invalid,9,9,0,down,2.6338768000005075,None,space,0.3351626999992732,None,,,,,0,9,9,9,,,,,714.2031117000006,,,,,,,,,,,,,714.1874492000006,714.2031117000006,714.2031117000006,714.2031117000006,716.8511287000001,,,,716.8573522999995,716.8691620999998,716.8691620999998,716.9169395000008,716.9171726000004,716.9336237999996,716.9336237999996,716.9336237999996,717.0001221999992,717.2842423999991,,,,,,,,down,2.6338768000005075,None,space,0.3351626999992732,None,,,,,,,,,,,,,,,P112,001,2025-02-14_11h19.27.215,posner_endo_new1,2024.2.4,60.0993321760901,2025-02-14 11h19.32.925607 +0000,
cube_l.png,0.1,0.31,invalid,10,10,0,down,2.8167966999990313,None,space,0.2504662000010285,None,,,,,0,10,10,10,,,,,717.2998982999998,,,,,,,,,,,,,717.2844346000002,717.2998982999998,717.2998982999998,717.2998982999998,720.1310947000002,,,,720.1371751000006,720.1489111999999,720.1489111999999,720.1970368000002,720.1972803999997,720.2136234999998,720.2136234999998,720.2136234999998,720.2801244000002,720.4806179000007,,,,,,,,down,2.8167966999990313,None,space,0.2504662000010285,None,,,,,,,,,,,,,,,P112,001,2025-02-14_11h19.27.215,posner_endo_new1,2024.2.4,60.0993321760901,2025-02-14 11h19.32.925607 +0000,
cube_r.png,0.1,-0.31,invalid,11,11,0,down,2.5958475999996153,None,space,0.31131660000028205,None,,,,,0,11,11,11,,,,,720.4967082999992,,,,,,,,,,,,,720.4808006000003,720.4967082999992,720.4967082999992,720.4967082999992,723.0947144000002,,,,723.1006677999994,723.1125265999999,723.1125265999999,723.1607812000002,723.1610041999993,723.1771678000005,723.1771678000005,723.1771678000005,723.2438223000008,723.4942527999992,,,,,,,,down,2.5958475999996153,None,space,0.31131660000028205,None,,,,,,,,,,,,,,,P112,001,2025-02-14_11h19.27.215,posner_endo_new1,2024.2.4,60.0993321760901,2025-02-14 11h19.32.925607 +0000,
cube_r.png,0.1,0.31,valid,12,12,0,down,3.398614899999302,None,space,0.33060069999919506,None,,,,,0,12,12,12,,,,,723.5100837999998,,,,,,,,,,,,,723.4944264000005,723.5100837999998,723.5100837999998,723.5100837999998,726.9240590999998,,,,726.9300088,726.9414254000003,726.9414254000003,726.9895761999996,726.9897970000002,727.0065367999996,727.0065367999996,727.0065367999996,727.0730552000005,727.3404176000004,,,,,,,,down,3.398614899999302,None,space,0.33060069999919506,None,,,,,,,,,,,,,,,P112,001,2025-02-14_11h19.27.215,posner_endo_new1,2024.2.4,60.0993321760901,2025-02-14 11h19.32.925607 +0000,
cube_l.png,0.1,10,catch,13,13,0,down,3.6406667999999627,None,space,0.29654049999953713,None,,,,,0,13,13,13,,,,,727.3563219000007,,,,,,,,,,,,,727.3406099999993,727.3563219000007,727.3563219000007,727.3563219000007,731.0032752000006,,,,731.0093357000005,731.0211149999996,731.0211149999996,731.0692588999991,731.0694863999997,731.0859156999995,731.0859156999995,731.0859156999995,731.1522490000007,731.3864874999999,,,,,,,,down,3.6406667999999627,None,space,0.29654049999953713,None,,,,,,,,,,,,,,,P112,001,2025-02-14_11h19.27.215,posner_endo_new1,2024.2.4,60.0993321760901,2025-02-14 11h19.32.925607 +0000,
cube_r.png,0.1,-0.31,invalid,14,14,0,down,2.7468882000011945,None,space,0.46214449999934004,None,,,,,0,14,14,14,,,,,731.4020734999995,,,,,,,,,,,,,731.3866767,731.4020734999995,731.4020734999995,731.4020734999995,734.1497345999996,,,,734.1557935000001,734.1675140999996,734.1675140999996,734.2161121999998,734.2163474000008,734.2324879999996,734.2324879999996,734.2324879999996,734.2991720999999,734.6995969,,,,,,,,down,2.7468882000011945,None,space,0.46214449999934004,None,,,,,,,,,,,,,,,P112,001,2025-02-14_11h19.27.215,posner_endo_new1,2024.2.4,60.0993321760901,2025-02-14 11h19.32.925607 +0000,
cube_l.png,0.1,-0.31,valid,15,15,0,down,3.6013922000001912,None,space,0.4351995999986684,None,,,,,0,15,15,15,,,,,734.7152951000007,,,,,,,,,,,,,734.6997799000001,734.7152951000007,734.7152951000007,734.7152951000007,738.3292270000002,,,,738.3353205000003,738.3469989999994,738.3469989999994,738.3950456000002,738.3952836000008,738.4117382999993,738.4117382999993,738.4117382999993,738.4781320000002,738.8619712,,,,,,,,down,3.6013922000001912,None,space,0.4351995999986684,None,,,,,,,,,,,,,,,P112,001,2025-02-14_11h19.27.215,posner_endo_new1,2024.2.4,60.0993321760901,2025-02-14 11h19.32.925607 +0000,
cube_r.png,0.1,10,catch,16,16,0,down,3.095529300000635,None,None,,,,,,,0,16,16,16,,,,,738.8777809000003,,,,,,,,,,,,,738.8621653999999,738.8777809000003,738.8777809000003,738.8777809000003,741.9753543999996,,,,741.9813180000001,741.9930420000001,741.9930420000001,742.0413692999991,742.0415979999998,742.0578991000002,742.0578991000002,742.0578991000002,742.1244817999996,745.0553932999992,,,,744.1390976000002,745.0715096000004,745.0715096000004,745.0715096000004,down,3.095529300000635,None,None,,,,,,,,,,,,,,,,,P112,001,2025-02-14_11h19.27.215,posner_endo_new1,2024.2.4,60.0993321760901,2025-02-14 11h19.32.925607 +0000,
cube_r.png,0.1,10,catch,17,17,0,down,3.021640099999786,None,None,,,,,,,0,17,17,17,,,,,745.0715096000004,,,,,,,,,,,,,745.0555624999997,745.0715096000004,745.0715096000004,745.0715096000004,748.1023399000005,,,,748.1082738000005,748.1202575000007,748.1202575000007,748.1682956000004,748.1685183000009,748.1848757999996,748.1848757999996,748.1848757999996,748.2516274999998,751.1823767000005,,,,750.2660778000009,751.1985213999997,751.1985213999997,751.1985213999997,down,3.021640099999786,None,None,,,,,,,,,,,,,,,,,P112,001,2025-02-14_11h19.27.215,posner_endo_new1,2024.2.4,60.0993321760901,2025-02-14 11h19.32.925607 +0000,
cube_l.png,0.1,0.31,invalid,18,18,0,down,0.30281279999871913,None,space,0.5878976000003604,None,,,,,0,18,18,18,,,,,751.1985213999997,,,,,,,,,,,,,751.1825485000008,751.1985213999997,751.1985213999997,751.1985213999997,751.5155161999992,,,,751.5214422000008,751.5331685000001,751.5331685000001,751.5814613999992,751.5816852999997,751.5982392000005,751.5982392000005,751.5982392000005,751.6647221000003,752.1982351000006,,,,,,,,down,0.30281279999871913,None,space,0.5878976000003604,None,,,,,,,,,,,,,,,P112,001,2025-02-14_11h19.27.215,posner_endo_new1,2024.2.4,60.0993321760901,2025-02-14 11h19.32.925607 +0000,
cube_l.png,0.1,10,catch,19,19,0,down,2.8468033999997715,None,space,0.31990699999914796,None,,,,,0,19,19,19,,,,,752.2141532000005,,,,,,,,,,,,,752.1984214999993,752.2141532000005,752.2141532000005,752.2141532000005,755.0619767000007,,,,755.0680023000004,755.0797629999997,755.0797629999997,755.1281715999994,755.1283999999996,755.1445774000003,755.1445774000003,755.1445774000003,755.2279178000008,755.4781586000008,,,,,,,,down,2.8468033999997715,None,space,0.31990699999914796,None,,,,,,,,,,,,,,,P112,001,2025-02-14_11h19.27.215,posner_endo_new1,2024.2.4,60.0993321760901,2025-02-14 11h19.32.925607 +0000,
cube_l.png,0.1,0.31,invalid,20,20,0,down,2.446665199999188,None,space,0.5797787999999855,None,,,,,0,20,20,20,,,,,755.4940045999992,,,,,,,,,,,,,755.4783324,755.4940045999992,755.4940045999992,755.4940045999992,757.9423293,,,,757.9482291000004,757.9599875000004,757.9599875000004,758.0083247000002,758.0085510999997,758.0249480999992,758.0249480999992,758.0249480999992,758.0915019000004,758.6084654999995,,,,,,,,down,2.446665199999188,None,space,0.5797787999999855,None,,,,,,,,,,,,,,,P112,001,2025-02-14_11h19.27.215,posner_endo_new1,2024.2.4,60.0993321760901,2025-02-14 11h19.32.925607 +0000,
cube_l.png,0.1,-0.31,valid,21,21,0,down,2.228698599999916,None,space,0.49689369999941846,None,,,,,0,21,21,21,,,,,758.6241828999991,,,,,,,,,,,,,758.6086407999992,758.6241828999991,758.6241828999991,758.6241828999991,760.8560565999996,,,,760.8620850999996,760.8739814,760.8739814,760.9218990999998,760.9221276999997,760.9384559999999,760.9384559999999,760.9384559999999,761.0216911000007,761.4388524999995,,,,,,,,down,2.228698599999916,None,space,0.49689369999941846,None,,,,,,,,,,,,,,,P112,001,2025-02-14_11h19.27.215,posner_endo_new1,2024.2.4,60.0993321760901,2025-02-14 11h19.32.925607 +0000,
cube_r.png,0.1,0.31,valid,22,22,0,down,1.886988799999017,None,space,0.4661042000007001,None,,,,,0,22,22,22,,,,,761.4546286000004,,,,,,,,,,,,,761.4390337000004,761.4546286000004,761.4546286000004,761.4546286000004,763.3534369999998,,,,763.3594006999992,763.3708244999998,763.3708244999998,763.4193792999995,763.4196045000008,763.4359476000009,763.4359476000009,763.4359476000009,763.5024861999991,763.9032991000004,,,,,,,,down,1.886988799999017,None,space,0.4661042000007001,None,,,,,,,,,,,,,,,P112,001,2025-02-14_11h19.27.215,posner_endo_new1,2024.2.4,60.0993321760901,2025-02-14 11h19.32.925607 +0000,
cube_r.png,0.1,-0.31,invalid,23,23,0,down,2.566029999999955,None,space,0.40584669999952894,None,,,,,0,23,23,23,,,,,763.9190118999995,,,,,,,,,,,,,763.9034740000006,763.9190118999995,763.9190118999995,763.9190118999995,766.5001393999992,,,,766.5061268999998,766.5175402999994,766.5175402999994,766.5662209999991,766.5664424999995,766.5826878999997,766.5826878999997,766.5826878999997,766.6493413000007,766.9997000000003,,,,,,,,down,2.566029999999955,None,space,0.40584669999952894,None,,,,,,,,,,,,,,,P112,001,2025-02-14_11h19.27.215,posner_endo_new1,2024.2.4,60.0993321760901,2025-02-14 11h19.32.925607 +0000,
cube_r.png,0.1,0.31,valid,24,24,0,down,2.3646219999991445,None,space,0.6646870000004128,None,,,,,0,24,24,24,,,,,767.0156227000007,,,,,,,,,,,,,766.9998703000001,767.0156227000007,767.0156227000007,767.0156227000007,769.3972574,,,,769.4031336000007,769.4143960000001,769.4143960000001,769.4634772000009,769.4636981999993,769.4797758999994,769.4797758999994,769.4797758999994,769.5463548999996,770.1466490999992,,,,,,,,down,2.3646219999991445,None,space,0.6646870000004128,None,,,,,,,,,,,,,,,P112,001,2025-02-14_11h19.27.215,posner_endo_new1,2024.2.4,60.0993321760901,2025-02-14 11h19.32.925607 +0000,
cube_r.png,0.1,-0.31,invalid,25,25,0,down,1.5621887000015704,None,space,0.5616826999994373,None,,,,,0,25,25,25,,,,,770.1624334000007,,,,,,,,,,,,,770.1468425000003,770.1624334000007,770.1624334000007,770.1624334000007,771.7283035,,,,771.7342578000007,771.7460217000007,771.7460217000007,771.7941468000008,771.7943718000006,771.8107287000003,771.8107287000003,771.8107287000003,771.8773572999999,772.3776656999999,,,,,,,,down,1.5621887000015704,None,space,0.5616826999994373,None,,,,,,,,,,,,,,,P112,001,2025-02-14_11h19.27.215,posner_endo_new1,2024.2.4,60.0993321760901,2025-02-14 11h19.32.925607 +0000,
cube_l.png,0.1,-0.31,valid,26,26,0,down,3.2917880000004516,None,space,0.5415225999986433,None,,,,,0,26,26,26,,,,,772.3933526000001,,,,,,,,,,,,,772.3778490999994,772.3933526000001,772.3933526000001,772.3933526000001,775.6907991000007,,,,775.6969107000004,775.7086092999998,775.7086092999998,775.7569205,775.7571566000006,775.7732613999997,775.7732613999997,775.7732613999997,775.8398192000004,776.3237774000008,,,,,,,,down,3.2917880000004516,None,space,0.5415225999986433,None,,,,,,,,,,,,,,,P112,001,2025-02-14_11h19.27.215,posner_endo_new1,2024.2.4,60.0993321760901,2025-02-14 11h19.32.925607 +0000,
cube_r.png,0.1,0.31,valid,27,27,0,down,1.865071700000044,None,space,0.45146199999908276,None,,,,,0,27,27,27,,,,,776.3393159999996,,,,,,,,,,,,,776.3239599999997,776.3393159999996,776.3393159999996,776.3393159999996,778.2052027000009,,,,778.2112873999995,778.2228412999993,778.2228412999993,778.2708132999996,778.2710502999998,778.2876283999994,778.2876283999994,778.2876283999994,778.3707584999993,778.7543984000004,,,,,,,,down,1.865071700000044,None,space,0.45146199999908276,None,,,,,,,,,,,,,,,P112,001,2025-02-14_11h19.27.215,posner_endo_new1,2024.2.4,60.0993321760901,2025-02-14 11h19.32.925607 +0000,
cube_r.png,0.1,10,catch,28,28,0,down,5.8270336000005045,None,None,,,,,,,0,28,28,28,,,,,778.7702382000007,,,,,,,,,,,,,778.7545945000002,778.7702382000007,778.7702382000007,778.7702382000007,784.5982820000008,,,,784.6042405999997,784.6158402000001,784.6158402000001,784.6643738999992,784.6645957000001,784.6810409999998,784.6810409999998,784.6810409999998,784.7474765999996,787.6783863,,,,786.7621725999998,787.6943986000006,787.6943986000006,787.6943986000006,down,5.8270336000005045,None,None,,,,,,,,,,,,,,,,,P112,001,2025-02-14_11h19.27.215,posner_endo_new1,2024.2.4,60.0993321760901,2025-02-14 11h19.32.925607 +0000,
cube_r.png,0.1,0.31,valid,29,29,0,down,0.87899010000001,None,space,0.6276500999993004,None,,,,,0,29,29,29,,,,,787.6943986000006,,,,,,,,,,,,,787.6785557999992,787.6943986000006,787.6943986000006,787.6943986000006,788.5778436,,,,788.5839617000001,788.5954665999998,788.5954665999998,788.6436200999997,788.6438613999999,788.6600937000003,788.6600937000003,788.6600937000003,788.7433724999992,789.2936006,,,,,,,,down,0.87899010000001,None,space,0.6276500999993004,None,,,,,,,,,,,,,,,P112,001,2025-02-14_11h19.27.215,posner_endo_new1,2024.2.4,60.0993321760901,2025-02-14 11h19.32.925607 +0000,
cube_r.png,0.1,0.31,valid,30,30,0,down,1.5198196999990614,None,space,0.43995410000025004,None,,,,,0,30,30,30,,,,,789.3094584999999,,,,,,,,,,,,,789.2937829000002,789.3094584999999,789.3094584999999,789.3094584999999,790.8421670999996,,,,790.8483531999991,790.8603910000002,790.8603910000002,790.9081091000007,790.9083410999992,790.9245461999999,790.9245461999999,790.9245461999999,791.0076470999993,791.3748649000008,,,,,,,,down,1.5198196999990614,None,space,0.43995410000025004,None,,,,,,,,,,,,,,,P112,001,2025-02-14_11h19.27.215,posner_endo_new1,2024.2.4,60.0993321760901,2025-02-14 11h19.32.925607 +0000,
cube_l.png,0.1,-0.31,valid,31,31,0,down,4.086361199999374,None,space,0.3505907999988267,None,,,,,0,31,31,31,,,,,791.3906048999997,,,,,,,,,,,,,791.3750507000004,791.3906048999997,791.3906048999997,791.3906048999997,795.4866507000006,,,,795.4928237999993,795.5045098999999,795.5045098999999,795.5532633000003,795.5535005000002,795.5696681000009,795.5696681000009,795.5696681000009,795.6364935000001,795.9370490000001,,,,,,,,down,4.086361199999374,None,space,0.3505907999988267,None,,,,,,,,,,,,,,,P112,001,2025-02-14_11h19.27.215,posner_endo_new1,2024.2.4,60.0993321760901,2025-02-14 11h19.32.925607 +0000,
cube_r.png,0.1,0.31,valid,32,32,0,down,2.3559440999997605,None,space,0.3421805999987555,None,,,,,0,32,32,32,,,,,795.9527894000003,,,,,,,,,,,,,795.9372378000007,795.9527894000003,795.9527894000003,795.9527894000003,798.3177730999996,,,,798.3237212999993,798.3355776000008,798.3355776000008,798.3835878000009,798.3838154000005,798.4002447999992,798.4002447999992,798.4002447999992,798.4832485000006,798.7509656999991,,,,,,,,down,2.3559440999997605,None,space,0.3421805999987555,None,,,,,,,,,,,,,,,P112,001,2025-02-14_11h19.27.215,posner_endo_new1,2024.2.4,60.0993321760901,2025-02-14 11h19.32.925607 +0000,
cube_r.png,0.1,-0.31,invalid,33,33,0,down,2.6940746000000217,None,space,0.4414926999997988,None,,,,,0,33,33,33,,,,,798.7665715000003,,,,,,,,,,,,,798.7511548999992,798.7665715000003,798.7665715000003,798.7665715000003,801.4646303000009,,,,801.4707586000004,801.4825125999996,801.4825125999996,801.5303342999996,801.5305871,801.5468997000007,801.5468997000007,801.5468997000007,801.6302718000006,801.9971451000001,,,,,,,,down,2.6940746000000217,None,space,0.4414926999997988,None,,,,,,,,,,,,,,,P112,001,2025-02-14_11h19.27.215,posner_endo_new1,2024.2.4,60.0993321760901,2025-02-14 11h19.32.925607 +0000,
cube_r.png,0.1,10,catch,34,34,0,down,2.567156999999497,None,None,,,,,,,0,34,34,34,,,,,802.0132310999998,,,,,,,,,,,,,801.9973384999994,802.0132310999998,802.0132310999998,802.0132310999998,804.5949294999991,,,,804.6036662000006,804.6142259000007,804.6142259000007,804.6604991999993,804.6607827999997,804.6769144999998,804.6769144999998,804.6769144999998,804.7603178999998,807.6748504999996,,,,806.7750562000001,807.6905148000005,807.6905148000005,807.6905148000005,down,2.567156999999497,None,None,,,,,,,,,,,,,,,,,P112,001,2025-02-14_11h19.27.215,posner_endo_new1,2024.2.4,60.0993321760901,2025-02-14 11h19.32.925607 +0000,
cube_r.png,0.1,0.31,valid,35,35,0,down,0.12989240000024438,None,space,0.6086952000005112,None,,,,,0,35,35,35,,,,,807.6905148000005,,,,,,,,,,,,,807.6750759999995,807.6905148000005,807.6905148000005,807.6905148000005,807.8249837000003,,,,807.8337083000006,807.8441297000008,807.8441297000008,807.8908864000005,807.8911745999994,807.9069784999992,807.9069784999992,807.9069784999992,807.9902371999997,808.5241339000004,,,,,,,,down,0.12989240000024438,None,space,0.6086952000005112,None,,,,,,,,,,,,,,,P112,001,2025-02-14_11h19.27.215,posner_endo_new1,2024.2.4,60.0993321760901,2025-02-14 11h19.32.925607 +0000,
cube_r.png,0.1,-0.31,invalid,36,36,0,down,2.8492951999996876,None,space,0.4778873000013846,None,,,,,0,36,36,36,,,,,808.5396153000002,,,,,,,,,,,,,808.5243649999993,808.5396153000002,808.5396153000002,808.5396153000002,811.4045119999992,,,,811.4132850000005,811.4235133000002,811.4235133000002,811.4702577000007,811.4705427999997,811.4868036999997,811.4868036999997,811.4868036999997,811.5699024000005,811.9707944000002,,,,,,,,down,2.8492951999996876,None,space,0.4778873000013846,None,,,,,,,,,,,,,,,P112,001,2025-02-14_11h19.27.215,posner_endo_new1,2024.2.4,60.0993321760901,2025-02-14 11h19.32.925607 +0000,
cube_l.png,0.1,0.31,invalid,37,37,0,down,2.379019600000902,None,space,0.4711248000003252,None,,,,,0,37,37,37,,,,,811.9862181999997,,,,,,,,,,,,,811.9710450000002,811.9862181999997,811.9862181999997,811.9862181999997,814.3682938999991,,,,814.3769892,814.3871302999996,814.3871302999996,814.4341925000008,814.4344796999994,814.4504462999994,814.4504462999994,814.4504462999994,814.5335202000006,814.9342109999998,,,,,,,,down,2.379019600000902,None,space,0.4711248000003252,None,,,,,,,,,,,,,,,P112,001,2025-02-14_11h19.27.215,posner_endo_new1,2024.2.4,60.0993321760901,2025-02-14 11h19.32.925607 +0000,
cube_l.png,0.1,0.31,invalid,38,38,0,down,1.8231101000001217,None,space,0.541155400000207,None,,,,,0,38,38,38,,,,,814.9498531999998,,,,,,,,,,,,,814.9344588999993,814.9498531999998,814.9498531999998,814.9498531999998,816.7822321999993,,,,816.7910152999993,816.8012440999992,816.8012440999992,816.8482657999994,816.8485507000005,816.8645218000001,816.8645218000001,816.8645218000001,816.9478364000006,817.4150869999994,,,,,,,,down,1.8231101000001217,None,space,0.541155400000207,None,,,,,,,,,,,,,,,P112,001,2025-02-14_11h19.27.215,posner_endo_new1,2024.2.4,60.0993321760901,2025-02-14 11h19.32.925607 +0000,
cube_r.png,0.1,0.31,valid,39,39,0,down,2.398120399999243,None,space,0.5229801000004954,None,,,,,0,39,39,39,,,,,817.4307795999994,,,,,,,,,,,,,817.4153188,817.4307795999994,817.4307795999994,817.4307795999994,819.8458876000004,,,,819.8546210000004,819.8645976999996,819.8645976999996,819.9111690000009,819.9114561999995,819.9281747999994,819.9281747999994,819.9281747999994,819.9947372000006,820.4620025000004,,,,,,,,down,2.398120399999243,None,space,0.5229801000004954,None,,,,,,,,,,,,,,,P112,001,2025-02-14_11h19.27.215,posner_endo_new1,2024.2.4,60.0993321760901,2025-02-14 11h19.32.925607 +0000,
cube_l.png,0.1,0.31,invalid,40,40,0,down,4.32781359999899,None,space,0.41812149999896064,None,,,,,0,40,40,40,,,,,820.4774885000006,,,,,,,,,,,,,820.4622510000008,820.4774885000006,820.4774885000006,820.4774885000006,824.8076966000008,,,,824.8164156000003,824.8269865000002,824.8269865000002,824.8732689999997,824.8735527000008,824.8895214999993,824.8895214999993,824.8895214999993,824.9728902000006,825.3235444000002,,,,,,,,down,4.32781359999899,None,space,0.41812149999896064,None,,,,,,,,,,,,,,,P112,001,2025-02-14_11h19.27.215,posner_endo_new1,2024.2.4,60.0993321760901,2025-02-14 11h19.32.925607 +0000,
cube_l.png,0.1,10,catch,41,41,0,down,3.1857970000000932,None,None,,,,,,,0,41,41,41,,,,,825.3394284999995,,,,,,,,,,,,,825.3237826000004,825.3394284999995,825.3394284999995,825.3394284999995,828.5369071999994,,,,828.5457000999995,828.5559076000009,828.5559076000009,828.6027448000004,828.6030339000008,828.6190882999999,828.6190882999999,828.6190882999999,828.7023681999999,831.6166899,,,,830.7172031999999,831.6326375999997,831.6326375999997,831.6326375999997,down,3.1857970000000932,None,None,,,,,,,,,,,,,,,,,P112,001,2025-02-14_11h19.27.215,posner_endo_new1,2024.2.4,60.0993321760901,2025-02-14 11h19.32.925607 +0000,
cube_l.png,0.1,-0.31,valid,42,42,0,down,2.0119085000005725,None,space,0.4395860000004177,None,,,,,0,42,42,42,,,,,831.6326375999997,,,,,,,,,,,,,831.6169203000009,831.6326375999997,831.6326375999997,831.6326375999997,833.6482713000005,,,,833.6569794000006,833.6672780999997,833.6672780999997,833.7139975999999,833.7142875000009,833.7307593999994,833.7307593999994,833.7307593999994,833.7973920000004,834.1811739999994,,,,,,,,down,2.0119085000005725,None,space,0.4395860000004177,None,,,,,,,,,,,,,,,P112,001,2025-02-14_11h19.27.215,posner_endo_new1,2024.2.4,60.0993321760901,2025-02-14 11h19.32.925607 +0000,
cube_l.png,0.1,10,catch,43,43,0,down,4.8960244999998395,None,None,,,,,,,0,43,43,43,,,,,834.1968505999994,,,,,,,,,,,,,834.1814042999995,834.1968505999994,834.1968505999994,834.1968505999994,839.1093954000007,,,,839.1182067000009,839.1281479999998,839.1281479999998,839.1751741999997,839.1754707,839.1917090000006,839.1917090000006,839.1917090000006,839.2584657999996,842.1896345000005,,,,841.2725819999996,842.2051644999992,842.2051644999992,842.2051644999992,down,4.8960244999998395,None,None,,,,,,,,,,,,,,,,,P112,001,2025-02-14_11h19.27.215,posner_endo_new1,2024.2.4,60.0993321760901,2025-02-14 11h19.32.925607 +0000,
cube_l.png,0.1,0.31,invalid,44,44,0,down,1.3360419000000547,None,space,0.41757090000101016,None,,,,,0,44,44,44,,,,,842.2051644999992,,,,,,,,,,,,,842.1900819999992,842.2051644999992,842.2051644999992,842.2051644999992,843.5556909000006,,,,843.5718923999993,843.5842855999999,843.5842855999999,843.6208466999997,843.6211996999991,843.6373051999999,843.6373051999999,843.6373051999999,843.7203817000009,844.0713727000002,,,,,,,,down,1.3360419000000547,None,space,0.41757090000101016,None,,,,,,,,,,,,,,,P112,001,2025-02-14_11h19.27.215,posner_endo_new1,2024.2.4,60.0993321760901,2025-02-14 11h19.32.925607 +0000,
cube_l.png,0.1,0.31,invalid,45,45,0,down,11.278257199999643,None,space,0.5083949999989272,None,,,,,0,45,45,45,,,,,844.0866511000004,,,,,,,,,,,,,844.0716716000006,844.0866511000004,844.0866511000004,844.0866511000004,855.3764114000005,,,,855.3879531000002,855.3983735999991,855.3983735999991,855.4419223999994,855.4422651999994,855.4588098000004,855.4588098000004,855.4588098000004,855.5416573999992,855.9756880000004,,,,,,,,down,11.278257199999643,None,space,0.5083949999989272,None,,,,,,,,,,,,,,,P112,001,2025-02-14_11h19.27.215,posner_endo_new1,2024.2.4,60.0993321760901,2025-02-14 11h19.32.925607 +0000,
cube_r.png,0.1,0.31,valid,46,46,0,down,10.685599799999181,None,space,0.5401598999997077,None,,,,,0,46,46,46,,,,,855.9910712000001,,,,,,,,,,,,,855.9759833000007,855.9910712000001,855.9910712000001,855.9910712000001,866.6817300999992,,,,866.6932813000003,866.7035369999994,866.7035369999994,866.7471600999997,866.7475209999993,866.7633841000006,866.7633841000006,866.7633841000006,866.8468639999992,867.3141758000002,,,,,,,,down,10.685599799999181,None,space,0.5401598999997077,None,,,,,,,,,,,,,,,P112,001,2025-02-14_11h19.27.215,posner_endo_new1,2024.2.4,60.0993321760901,2025-02-14 11h19.32.925607 +0000,
cube_l.png,0.1,-0.31,valid,47,47,0,down,5.107486799999606,None,space,0.42782269999952405,None,,,,,0,47,47,47,,,,,867.3297839000006,,,,,,,,,,,,,867.3144656000004,867.3297839000006,867.3297839000006,867.3297839000006,872.4419075999995,,,,872.4535252999995,872.4641587000006,872.4641587000006,872.5078489000007,872.5081984000008,872.5240974999997,872.5240974999997,872.5240974999997,872.6071014000008,872.9586655000003,,,,,,,,down,5.107486799999606,None,space,0.42782269999952405,None,,,,,,,,,,,,,,,P112,001,2025-02-14_11h19.27.215,posner_endo_new1,2024.2.4,60.0993321760901,2025-02-14 11h19.32.925607 +0000,
cube_r.png,0.1,-0.31,invalid,48,48,0,down,5.231531100000211,None,space,0.39461799999844516,None,,,,,0,48,48,48,,,,,872.9737573999992,,,,,,,,,,,,,872.9589558000007,872.9737573999992,872.9737573999992,872.9737573999992,878.2195104000002,,,,878.2311645999998,878.2414313999998,878.2414313999998,878.2852148999991,878.2854509999997,878.3017562999994,878.3017562999994,878.3017562999994,878.3850304999996,878.7021975999996,,,,,,,,down,5.231531100000211,None,space,0.39461799999844516,None,,,,,,,,,,,,,,,P112,001,2025-02-14_11h19.27.215,posner_endo_new1,2024.2.4,60.0993321760901,2025-02-14 11h19.32.925607 +0000,
cube_r.png,0.1,10,catch,49,49,0,down,5.687079100000119,None,None,,,,,,,0,49,49,49,,,,,878.7179025999994,,,,,,,,,,,,,878.7023831000006,878.7179025999994,878.7179025999994,878.7179025999994,884.4127831999995,,,,884.4196420000007,884.4316887999994,884.4316887999994,884.4788339999996,884.4790725999992,884.4956091999993,884.4956091999993,884.4956091999993,884.5620170999991,887.4928221999999,,,,886.5760334999995,887.5089181999992,887.5089181999992,887.5089181999992,down,5.687079100000119,None,None,,,,,,,,,,,,,,,,,P112,001,2025-02-14_11h19.27.215,posner_endo_new1,2024.2.4,60.0993321760901,2025-02-14 11h19.32.925607 +0000,
cube_l.png,0.1,-0.31,valid,50,50,0,down,0.8642765000004147,None,space,0.439251100000547,None,,,,,0,50,50,50,,,,,887.5089181999992,,,,,,,,,,,,,887.4930065000008,887.5089181999992,887.5089181999992,887.5089181999992,888.3752592000001,,,,888.3822349000002,888.3938429999998,888.3938429999998,888.4414147999996,888.4416514999994,888.4582773999991,888.4582773999991,888.4582773999991,888.5245453999996,888.9084323999996,,,,,,,,down,0.8642765000004147,None,space,0.439251100000547,None,,,,,,,,,,,,,,,P112,001,2025-02-14_11h19.27.215,posner_endo_new1,2024.2.4,60.0993321760901,2025-02-14 11h19.32.925607 +0000,
cube_l.png,0.1,-0.31,valid,51,51,0,down,5.608537799998885,None,space,0.35206970000035653,None,,,,,0,51,51,51,,,,,888.9244866999998,,,,,,,,,,,,,888.9086239999997,888.9244866999998,888.9244866999998,888.9244866999998,894.5358909000006,,,,894.5427388000007,894.55465,894.55465,894.6017721999997,894.6020074999997,894.6184959999991,894.6184959999991,894.6184959999991,894.6848171999991,894.9853657000003,,,,,,,,down,5.608537799998885,None,space,0.35206970000035653,None,,,,,,,,,,,,,,,P112,001,2025-02-14_11h19.27.215,posner_endo_new1,2024.2.4,60.0993321760901,2025-02-14 11h19.32.925607 +0000,
cube_r.png,0.1,-0.31,invalid,52,52,0,down,7.626883599999928,None,space,0.4144359000001714,None,,,,,0,52,52,52,,,,,895.0013739999995,,,,,,,,,,,,,894.9855489999991,895.0013739999995,895.0013739999995,895.0013739999995,902.6440858999995,,,,902.6509306999997,902.6627220999999,902.6627220999999,902.710266,902.7105030999992,902.7267281999993,902.7267281999993,902.7267281999993,902.7933546999993,903.1438732000006,,,,,,,,down,7.626883599999928,None,space,0.4144359000001714,None,,,,,,,,,,,,,,,P112,001,2025-02-14_11h19.27.215,posner_endo_new1,2024.2.4,60.0993321760901,2025-02-14 11h19.32.925607 +0000,
cube_l.png,0.1,-0.31,valid,53,53,0,down,5.253142900000967,None,space,0.42358539999986533,None,,,,,0,53,53,53,,,,,903.1597184000002,,,,,,,,,,,,,903.1440593999996,903.1597184000002,903.1597184000002,903.1597184000002,908.4217069999995,,,,908.4286073000003,908.4405451000002,908.4405451000002,908.4878626999998,908.4881151000009,908.5039835000007,908.5039835000007,908.5039835000007,908.5872856000005,908.9378090999999,,,,,,,,down,5.253142900000967,None,space,0.42358539999986533,None,,,,,,,,,,,,,,,P112,001,2025-02-14_11h19.27.215,posner_endo_new1,2024.2.4,60.0993321760901,2025-02-14 11h19.32.925607 +0000,
cube_r.png,0.1,10,catch,54,54,0,down,2.9636816000002,None,space,0.3051051999991614,None,,,,,0,54,54,54,,,,,908.9535670000005,,,,,,,,,,,,,908.9379933,908.9535670000005,908.9535670000005,908.9535670000005,911.9183933999993,,,,911.9253389000005,911.9370945999999,911.9370945999999,911.9840719999993,911.9843203,912.0006095000008,912.0006095000008,912.0006095000008,912.0833015000007,912.3177218000001,,,,,,,,down,2.9636816000002,None,space,0.3051051999991614,None,,,,,,,,,,,,,,,P112,001,2025-02-14_11h19.27.215,posner_endo_new1,2024.2.4,60.0993321760901,2025-02-14 11h19.32.925607 +0000,
cube_l.png,0.1,0.31,invalid,55,55,0,down,5.1348610000004555,None,space,0.5917444999995496,None,,,,,0,55,55,55,,,,,912.3334828000006,,,,,,,,,,,,,912.3179264999999,912.3334828000006,912.3334828000006,912.3334828000006,917.4791396,,,,917.4860176000002,917.4979390000008,917.4979390000008,917.5448809000009,917.5451173000001,917.5615367999999,917.5615367999999,917.5615367999999,917.6448087999997,918.1617944000009,,,,,,,,down,5.1348610000004555,None,space,0.5917444999995496,None,,,,,,,,,,,,,,,P112,001,2025-02-14_11h19.27.215,posner_endo_new1,2024.2.4,60.0993321760901,2025-02-14 11h19.32.925607 +0000,
cube_l.png,0.1,-0.31,valid,56,56,0,down,3.0996569999988424,None,space,0.342950700000074,None,,,,,0,56,56,56,,,,,918.1775558999998,,,,,,,,,,,,,918.1619831000007,918.1775558999998,918.1775558999998,918.1775558999998,921.2918439000005,,,,921.2988839999998,921.3104698000006,921.3104698000006,921.357677,921.3579241000007,921.3742084999994,921.3742084999994,921.3742084999994,921.4408380000004,921.7250162,,,,,,,,down,3.0996569999988424,None,space,0.342950700000074,None,,,,,,,,,,,,,,,P112,001,2025-02-14_11h19.27.215,posner_endo_new1,2024.2.4,60.0993321760901,2025-02-14 11h19.32.925607 +0000,
cube_r.png,0.1,0.31,valid,57,57,0,down,1.6555047999991075,None,space,0.5348888000007719,None,,,,,0,57,57,57,,,,,921.7408782999992,,,,,,,,,,,,,921.7252134999999,921.7408782999992,921.7408782999992,921.7408782999992,923.4062596999993,,,,923.4131576,923.4252923000004,923.4252923000004,923.4722349999993,923.4724748999997,923.4887897000008,923.4887897000008,923.4887897000008,923.5720473000001,924.0389935999992,,,,,,,,down,1.6555047999991075,None,space,0.5348888000007719,None,,,,,,,,,,,,,,,P112,001,2025-02-14_11h19.27.215,posner_endo_new1,2024.2.4,60.0993321760901,2025-02-14 11h19.32.925607 +0000,
cube_r.png,0.1,-0.31,invalid,58,58,0,down,1.4864792000007583,None,space,0.44923930000004475,None,,,,,0,58,58,58,,,,,924.0544463999995,,,,,,,,,,,,,924.0391884000001,924.0544463999995,924.0544463999995,924.0544463999995,925.5535414000005,,,,925.5603977999999,925.5723149999994,925.5723149999994,925.6200446000003,925.6202778000006,925.6364876999996,925.6364876999996,925.6364876999996,925.7030847000005,926.0868945999991,,,,,,,,down,1.4864792000007583,None,space,0.44923930000004475,None,,,,,,,,,,,,,,,P112,001,2025-02-14_11h19.27.215,posner_endo_new1,2024.2.4,60.0993321760901,2025-02-14 11h19.32.925607 +0000,
cube_l.png,0.1,0.31,invalid,59,59,0,down,2.9658404999991035,None,space,0.5395157000002655,None,,,,,0,59,59,59,,,,,926.1027166999993,,,,,,,,,,,,,926.0870806000003,926.1027166999993,926.1027166999993,926.1027166999993,929.0837859999992,,,,929.0906180000002,929.1027207000006,929.1027207000006,929.1498463000007,929.1500828000007,929.1664925999994,929.1664925999994,929.1664925999994,929.2493823000004,929.7167451999994,,,,,,,,down,2.9658404999991035,None,space,0.5395157000002655,None,,,,,,,,,,,,,,,P112,001,2025-02-14_11h19.27.215,posner_endo_new1,2024.2.4,60.0993321760901,2025-02-14 11h19.32.925607 +0000,
,,,,,,,,,,,,,,,,,,,,,,,,,,,,,,,,,,,,,,,,,,,,,,,,,,,,,,,,,,,,,,,,,,,,,929.7168719000001,929.7323102999999,929.7323102999999,989.7377790999999,991.3035010000003,space,61.56014520000099,None,,,,,,,P112,001,2025-02-14_11h19.27.215,posner_endo_new1,2024.2.4,60.0993321760901,2025-02-14 11h19.32.925607 +0000,
,,,,,,,,,,,,,,,,,,,,,,,,,,,,,,,,,,991.3035576000002,991.3194208000004,994.3225101999997,994.3001752,,,,,,,,,,,,,,,,,,,,,,,,,,,,,,,,,,,,,,,,,,,,,,P112,001,2025-02-14_11h19.27.215,posner_endo_new1,2024.2.4,60.0993321760901,2025-02-14 11h19.32.925607 +0000,
cube_l.png,0.1,10,catch,0,0,0,up,5.962333800000124,None,None,,,,,,,,,,,0,0,0,0,994.3225101999997,,,,,,,,,,,,,994.3134850999995,994.3225101999997,994.3225101999997,994.3225101999997,1000.2941465000004,,,,1000.3001982999995,1000.3118541000003,1000.3118541000003,1000.3601340999994,1000.3603624000007,1000.3766458999999,1000.3766458999999,1000.3766458999999,1000.4434149999997,1003.3740868999994,,,,1002.4581285999993,1003.3901516000005,1003.3901516000005,1003.3901516000005,,,,,,,,,,,,,,,up,5.962333800000124,None,None,,,P112,001,2025-02-14_11h19.27.215,posner_endo_new1,2024.2.4,60.0993321760901,2025-02-14 11h19.32.925607 +0000,
cube_l.png,0.1,10,catch,1,1,0,up,0.21520439999949303,None,None,,,,,,,,,,,0,1,1,1,1003.3901516000005,,,,,,,,,,,,,1003.3742641999997,1003.3901516000005,1003.3901516000005,1003.3901516000005,1003.6074795999994,,,,1003.6136781000005,1003.6252683999992,1003.6252683999992,1003.6733554000002,1003.6735907999991,1003.6899821999996,1003.6899821999996,1003.6899821999996,1003.7563095000005,1006.6872681999994,,,,1005.7711514000002,1006.7035156999991,1006.7035156999991,1006.7035156999991,,,,,,,,,,,,,,,up,0.21520439999949303,None,None,,,P112,001,2025-02-14_11h19.27.215,posner_endo_new1,2024.2.4,60.0993321760901,2025-02-14 11h19.32.925607 +0000,
cube_l.png,0.1,0.31,invalid,2,2,0,up,5.125424399999247,None,space,0.47551230000135547,None,,,,,,,,,0,2,2,2,1006.7035156999991,,,,,,,,,,,,,1006.6874411000008,1006.7035156999991,1006.7035156999991,1006.7035156999991,1011.8322936000004,,,,1011.8382352999997,1011.8498342999992,1011.8498342999992,1011.8980726000009,1011.8983100000005,1011.9147255000007,1011.9147255000007,1011.9147255000007,1011.9980933000006,1012.3984985000006,,,,,,,,,,,,,,,,,,,,,,up,5.125424399999247,None,space,0.47551230000135547,None,P112,001,2025-02-14_11h19.27.215,posner_endo_new1,2024.2.4,60.0993321760901,2025-02-14 11h19.32.925607 +0000,
cube_l.png,0.1,0.31,invalid,3,3,0,up,4.270474200000535,None,space,0.37989659999948344,None,,,,,,,,,0,3,3,3,1012.4142563000005,,,,,,,,,,,,,1012.3986755999995,1012.4142563000005,1012.4142563000005,1012.4142563000005,1016.6939841999992,,,,1016.7000716999992,1016.7118666999995,1016.7118666999995,1016.7600603999999,1016.7602962000001,1016.7767538000007,1016.7767538000007,1016.7767538000007,1016.8431108999994,1017.1603226000007,,,,,,,,,,,,,,,,,,,,,,up,4.270474200000535,None,space,0.37989659999948344,None,P112,001,2025-02-14_11h19.27.215,posner_endo_new1,2024.2.4,60.0993321760901,2025-02-14 11h19.32.925607 +0000,
cube_l.png,0.1,-0.31,valid,4,4,0,up,4.716951499998686,None,space,0.44642170000042825,None,,,,,,,,,0,4,4,4,1017.1760754999996,,,,,,,,,,,,,1017.1605051999995,1017.1760754999996,1017.1760754999996,1017.1760754999996,1021.9053132000008,,,,1021.9113878000007,1021.9229095999999,1021.9229095999999,1021.9713336000004,1021.9715651999995,1021.9879237999994,1021.9879237999994,1021.9879237999994,1022.0544265000008,1022.4382325999995,,,,,,,,,,,,,,,,,,,,,,up,4.716951499998686,None,space,0.44642170000042825,None,P112,001,2025-02-14_11h19.27.215,posner_endo_new1,2024.2.4,60.0993321760901,2025-02-14 11h19.32.925607 +0000,
cube_r.png,0.1,-0.31,invalid,5,5,0,up,4.606488999999783,None,space,0.41996149999977206,None,,,,,,,,,0,5,5,5,1022.4539913999997,,,,,,,,,,,,,1022.4384148999998,1022.4539913999997,1022.4539913999997,1022.4539913999997,1027.0665921,,,,1027.0727181999991,1027.0843994999996,1027.0843994999996,1027.1325622999993,1027.1327972,1027.1493800000007,1027.1493800000007,1027.1493800000007,1027.2158335999993,1027.5829608000004,,,,,,,,,,,,,,,,,,,,,,up,4.606488999999783,None,space,0.41996149999977206,None,P112,001,2025-02-14_11h19.27.215,posner_endo_new1,2024.2.4,60.0993321760901,2025-02-14 11h19.32.925607 +0000,
cube_r.png,0.1,0.31,valid,6,6,0,up,5.318296100000225,None,space,0.48761969999941357,None,,,,,,,,,0,6,6,6,1027.5986426,,,,,,,,,,,,,1027.5831435,1027.5986426,1027.5986426,1027.5986426,1032.9275937000002,,,,1032.9337273,1032.945308799999,1032.945308799999,1032.9934854999992,1032.9937200999993,1033.0098622999994,1033.0098622999994,1033.0098622999994,1033.0932338999992,1033.5101651000004,,,,,,,,,,,,,,,,,,,,,,up,5.318296100000225,None,space,0.48761969999941357,None,P112,001,2025-02-14_11h19.27.215,posner_endo_new1,2024.2.4,60.0993321760901,2025-02-14 11h19.32.925607 +0000,
cube_r.png,0.1,-0.31,invalid,7,7,0,up,4.286704300000565,None,space,0.4034592000007251,None,,,,,,,,,0,7,7,7,1033.5258586,,,,,,,,,,,,,1033.5103555000005,1033.5258586,1033.5258586,1033.5258586,1037.822317,,,,1037.8284659,1037.8401439000008,1037.8401439000008,1037.8883368999996,1037.8885816999991,1037.9048616,1037.9048616,1037.9048616,1037.9883104,1038.3219138999993,,,,,,,,,,,,,,,,,,,,,,up,4.286704300000565,None,space,0.4034592000007251,None,P112,001,2025-02-14_11h19.27.215,posner_endo_new1,2024.2.4,60.0993321760901,2025-02-14 11h19.32.925607 +0000,
cube_l.png,0.1,-0.31,valid,8,8,0,up,3.4590613000000303,None,space,0.3993364999987534,None,,,,,,,,,0,8,8,8,1038.3378935,,,,,,,,,,,,,1038.3220937999995,1038.3378935,1038.3378935,1038.3378935,1041.8016583000008,,,,1041.8076048999992,1041.8192173000007,1041.8192173000007,1041.8675598999998,1041.8677972999994,1041.8840738,1041.8840738,1041.8840738,1041.9506763999998,1042.2844781999993,,,,,,,,,,,,,,,,,,,,,,up,3.4590613000000303,None,space,0.3993364999987534,None,P112,001,2025-02-14_11h19.27.215,posner_endo_new1,2024.2.4,60.0993321760901,2025-02-14 11h19.32.925607 +0000,
cube_r.png,0.1,-0.31,invalid,9,9,0,up,3.9202900000000227,None,space,0.39465670000026876,None,,,,,,,,,0,9,9,9,1042.300393899999,,,,,,,,,,,,,1042.2846599999993,1042.300393899999,1042.300393899999,1042.300393899999,1046.2305686,,,,1046.2367274000007,1046.2486528000009,1046.2486528000009,1046.2965019999992,1046.2967353999993,1046.3128529000005,1046.3128529000005,1046.3128529000005,1046.3794605000003,1046.7134411999996,,,,,,,,,,,,,,,,,,,,,,up,3.9202900000000227,None,space,0.39465670000026876,None,P112,001,2025-02-14_11h19.27.215,posner_endo_new1,2024.2.4,60.0993321760901,2025-02-14 11h19.32.925607 +0000,
cube_l.png,0.1,0.31,invalid,10,10,0,up,4.908050399999411,None,space,0.4442609999987326,None,,,,,,,,,0,10,10,10,1046.7290926000005,,,,,,,,,,,,,1046.7136222000008,1046.7290926000005,1046.7290926000005,1046.7290926000005,1051.6417167,,,,1051.6476387999992,1051.6595209999996,1051.6595209999996,1051.7074262999995,1051.7076622000004,1051.7241441999995,1051.7241441999995,1051.7241441999995,1051.7905804000002,1052.1742312000006,,,,,,,,,,,,,,,,,,,,,,up,4.908050399999411,None,space,0.4442609999987326,None,P112,001,2025-02-14_11h19.27.215,posner_endo_new1,2024.2.4,60.0993321760901,2025-02-14 11h19.32.925607 +0000,
cube_r.png,0.1,-0.31,invalid,11,11,0,up,3.053908500000034,None,space,0.4414632999996684,None,,,,,,,,,0,11,11,11,1052.1903879000001,,,,,,,,,,,,,1052.1744166000008,1052.1903879000001,1052.1903879000001,1052.1903879000001,1055.2545062999998,,,,1055.2606039000002,1055.2722653,1055.2722653,1055.3205491000008,1055.3207863000007,1055.3370352999991,1055.3370352999991,1055.3370352999991,1055.4036698,1055.7873514000003,,,,,,,,,,,,,,,,,,,,,,up,3.053908500000034,None,space,0.4414632999996684,None,P112,001,2025-02-14_11h19.27.215,posner_endo_new1,2024.2.4,60.0993321760901,2025-02-14 11h19.32.925607 +0000,
cube_r.png,0.1,0.31,valid,12,12,0,up,4.225823400000081,None,space,0.3900939999984985,None,,,,,,,,,0,12,12,12,1055.8030280000003,,,,,,,,,,,,,1055.7875607999995,1055.8030280000003,1055.8030280000003,1055.8030280000003,1060.0332350000008,,,,1060.0393913000007,1060.0511354999999,1060.0511354999999,1060.0989541,1060.0991899,1060.1153723000007,1060.1153723000007,1060.1153723000007,1060.1986987,1060.5160051000003,,,,,,,,,,,,,,,,,,,,,,up,4.225823400000081,None,space,0.3900939999984985,None,P112,001,2025-02-14_11h19.27.215,posner_endo_new1,2024.2.4,60.0993321760901,2025-02-14 11h19.32.925607 +0000,
cube_l.png,0.1,10,catch,13,13,0,up,5.944849499999691,None,None,,,,,,,,,,,0,13,13,13,1060.5317264000005,,,,,,,,,,,,,1060.5161898999995,1060.5317264000005,1060.5317264000005,1060.5317264000005,1066.4930387000004,,,,1066.4991852000003,1066.5105607000005,1066.5105607000005,1066.5590618000006,1066.5593067999998,1066.5754928000006,1066.5754928000006,1066.5754928000006,1066.6422708999999,1069.5729716999995,,,,1068.6566803999995,1069.5890903,1069.5890903,1069.5890903,,,,,,,,,,,,,,,up,5.944849499999691,None,None,,,P112,001,2025-02-14_11h19.27.215,posner_endo_new1,2024.2.4,60.0993321760901,2025-02-14 11h19.32.925607 +0000,
cube_r.png,0.1,-0.31,invalid,14,14,0,up,0.5829770000000281,None,space,0.4663631000003079,None,,,,,,,,,0,14,14,14,1069.5890903,,,,,,,,,,,,,1069.5731541999994,1069.5890903,1069.5890903,1069.5890903,1070.1727914000003,,,,1070.1787354000007,1070.1905456000004,1070.1905456000004,1070.2383979999995,1070.2386189999997,1070.2549822,1070.2549822,1070.2549822,1070.3383861999991,1070.7222115999994,,,,,,,,,,,,,,,,,,,,,,up,0.5829770000000281,None,space,0.4663631000003079,None,P112,001,2025-02-14_11h19.27.215,posner_endo_new1,2024.2.4,60.0993321760901,2025-02-14 11h19.32.925607 +0000,
cube_l.png,0.1,-0.31,valid,15,15,0,up,4.554233400000157,None,space,0.4027389000002586,None,,,,,,,,,0,15,15,15,1070.7378852000002,,,,,,,,,,,,,1070.7223947999992,1070.7378852000002,1070.7378852000002,1070.7378852000002,1075.3007266000004,,,,1075.3067186999997,1075.3184261999995,1075.3184261999995,1075.3665934,1075.3668161999994,1075.3833035000007,1075.3833035000007,1075.3833035000007,1075.4499025999994,1075.8000424000002,,,,,,,,,,,,,,,,,,,,,,up,4.554233400000157,None,space,0.4027389000002586,None,P112,001,2025-02-14_11h19.27.215,posner_endo_new1,2024.2.4,60.0993321760901,2025-02-14 11h19.32.925607 +0000,
cube_r.png,0.1,10,catch,16,16,0,up,4.628741000000446,None,None,,,,,,,,,,,0,16,16,16,1075.8159577999995,,,,,,,,,,,,,1075.8002161000004,1075.8159577999995,1075.8159577999995,1075.8159577999995,1080.4454239000006,,,,1080.4513150000002,1080.4632414000007,1080.4632414000007,1080.5113428000004,1080.5115657000006,1080.5280292000007,1080.5280292000007,1080.5280292000007,1080.5944565999998,1083.5253064000008,,,,1082.6091326999995,1083.5414899000007,1083.5414899000007,1083.5414899000007,,,,,,,,,,,,,,,up,4.628741000000446,None,None,,,P112,001,2025-02-14_11h19.27.215,posner_endo_new1,2024.2.4,60.0993321760901,2025-02-14 11h19.32.925607 +0000,
cube_r.png,0.1,10,catch,17,17,0,up,2.2227347000007285,None,None,,,,,,,,,,,0,17,17,17,1083.5414899000007,,,,,,,,,,,,,1083.5254810999995,1083.5414899000007,1083.5414899000007,1083.5414899000007,1085.7734841000001,,,,1085.779633,1085.7914679999994,1085.7914679999994,1085.8392562000008,1085.8394884000008,1085.8557667999994,1085.8557667999994,1085.8557667999994,1085.9389102999994,1088.8534655999993,,,,1087.9534884999994,1088.8694976000006,1088.8694976000006,1088.8694976000006,,,,,,,,,,,,,,,up,2.2227347000007285,None,None,,,P112,001,2025-02-14_11h19.27.215,posner_endo_new1,2024.2.4,60.0993321760901,2025-02-14 11h19.32.925607 +0000,
cube_l.png,0.1,0.31,invalid,18,18,0,up,23.830726199999845,None,space,0.5277780999986135,None,,,,,,,,,0,18,18,18,1088.8694976000006,,,,,,,,,,,,,1088.8536373999996,1088.8694976000006,1088.8694976000006,1088.8694976000006,1112.712505899999,,,,1112.7184796000001,1112.7302691999994,1112.7302691999994,1112.7784026999998,1112.7786336999998,1112.7948825000003,1112.7948825000003,1112.7948825000003,1112.8780662999998,1113.3284353,,,,,,,,,,,,,,,,,,,,,,up,23.830726199999845,None,space,0.5277780999986135,None,P112,001,2025-02-14_11h19.27.215,posner_endo_new1,2024.2.4,60.0993321760901,2025-02-14 11h19.32.925607 +0000,
cube_l.png,0.1,10,catch,19,19,0,up,9.004453300000023,None,None,,,,,,,,,,,0,19,19,19,1113.3444144999994,,,,,,,,,,,,,1113.3286186999994,1113.3444144999994,1113.3444144999994,1113.3444144999994,1122.3526115000004,,,,1122.3587728999992,1122.3705455,1122.3705455,1122.4187015999996,1122.4189365999991,1122.4349927999992,1122.4349927999992,1122.4349927999992,1122.5016257999996,1125.4324283000005,,,,1124.5162077999994,1125.4485067000005,1125.4485067000005,1125.4485067000005,,,,,,,,,,,,,,,up,9.004453300000023,None,None,,,P112,001,2025-02-14_11h19.27.215,posner_endo_new1,2024.2.4,60.0993321760901,2025-02-14 11h19.32.925607 +0000,
cube_l.png,0.1,0.31,invalid,20,20,0,up,0.8916410000001633,None,space,0.4775585000006686,None,,,,,,,,,0,20,20,20,1125.4485067000005,,,,,,,,,,,,,1125.4326063000008,1125.4485067000005,1125.4485067000005,1125.4485067000005,1126.3486420999998,,,,1126.3547815000002,1126.3665056999998,1126.3665056999998,1126.414302699999,1126.4145399999998,1126.4309957999994,1126.4309957999994,1126.4309957999994,1126.5140955999996,1126.914499299999,,,,,,,,,,,,,,,,,,,,,,up,0.8916410000001633,None,space,0.4775585000006686,None,P112,001,2025-02-14_11h19.27.215,posner_endo_new1,2024.2.4,60.0993321760901,2025-02-14 11h19.32.925607 +0000,
cube_l.png,0.1,-0.31,valid,21,21,0,up,7.193843499999275,None,space,0.4204167999996571,None,,,,,,,,,0,21,21,21,1126.9303744000008,,,,,,,,,,,,,1126.9146913000004,1126.9303744000008,1126.9303744000008,1126.9303744000008,1134.1404127999995,,,,1134.1464704999999,1134.1581669000007,1134.1581669000007,1134.2064186999996,1134.2066589000005,1134.2227963999994,1134.2227963999994,1134.2227963999994,1134.2895305000002,1134.6566512999998,,,,,,,,,,,,,,,,,,,,,,up,7.193843499999275,None,space,0.4204167999996571,None,P112,001,2025-02-14_11h19.27.215,posner_endo_new1,2024.2.4,60.0993321760901,2025-02-14 11h19.32.925607 +0000,
cube_r.png,0.1,0.31,valid,22,22,0,up,4.884564500000124,None,space,0.465219600000637,None,,,,,,,,,0,22,22,22,1134.6723590000001,,,,,,,,,,,,,1134.6568336,1134.6723590000001,1134.6723590000001,1134.6723590000001,1139.5681934999993,,,,1139.5743519999996,1139.5861010999997,1139.5861010999997,1139.6341426,1139.6343787000005,1139.6506324000002,1139.6506324000002,1139.6506324000002,1139.7339420000008,1140.1176913,,,,,,,,,,,,,,,,,,,,,,up,4.884564500000124,None,space,0.465219600000637,None,P112,001,2025-02-14_11h19.27.215,posner_endo_new1,2024.2.4,60.0993321760901,2025-02-14 11h19.32.925607 +0000,
cube_r.png,0.1,-0.31,invalid,23,23,0,up,4.206665800000337,None,space,0.441591700000572,None,,,,,,,,,0,23,23,23,1140.1336322000006,,,,,,,,,,,,,1140.1178918999994,1140.1336322000006,1140.1336322000006,1140.1336322000006,1144.3466480000006,,,,1144.3527219999996,1144.3644241000002,1144.3644241000002,1144.4128447000003,1144.4130800999992,1144.4294429000001,1144.4294429000001,1144.4294429000001,1144.4957737999994,1144.8794591000005,,,,,,,,,,,,,,,,,,,,,,up,4.206665800000337,None,space,0.441591700000572,None,P112,001,2025-02-14_11h19.27.215,posner_endo_new1,2024.2.4,60.0993321760901,2025-02-14 11h19.32.925607 +0000,
cube_r.png,0.1,0.31,valid,24,24,0,up,5.132622500001162,None,space,0.39933170000040263,None,,,,,,,,,0,24,24,24,1144.8954166000003,,,,,,,,,,,,,1144.8796461000002,1144.8954166000003,1144.8954166000003,1144.8954166000003,1150.0408640999995,,,,1150.0470485999995,1150.0587505000003,1150.0587505000003,1150.1067748000005,1150.1070201000002,1150.1232445999995,1150.1232445999995,1150.1232445999995,1150.2066470000009,1150.5241661,,,,,,,,,,,,,,,,,,,,,,up,5.132622500001162,None,space,0.39933170000040263,None,P112,001,2025-02-14_11h19.27.215,posner_endo_new1,2024.2.4,60.0993321760901,2025-02-14 11h19.32.925607 +0000,
cube_r.png,0.1,-0.31,invalid,25,25,0,up,4.800317600000199,None,space,0.5824400000001333,None,,,,,,,,,0,25,25,25,1150.5396853999991,,,,,,,,,,,,,1150.5243491,1150.5396853999991,1150.5396853999991,1150.5396853999991,1155.3521770999996,,,,1155.3582915999996,1155.3699613000008,1155.3699613000008,1155.4179184000004,1155.4181527,1155.4345209999992,1155.4345209999992,1155.4345209999992,1155.5177607999995,1156.0181040000007,,,,,,,,,,,,,,,,,,,,,,up,4.800317600000199,None,space,0.5824400000001333,None,P112,001,2025-02-14_11h19.27.215,posner_endo_new1,2024.2.4,60.0993321760901,2025-02-14 11h19.32.925607 +0000,
cube_l.png,0.1,-0.31,valid,26,26,0,up,2.5222114999996847,None,space,0.4214482000006683,None,,,,,,,,,0,26,26,26,1156.0339574999998,,,,,,,,,,,,,1156.0182874999991,1156.0339574999998,1156.0339574999998,1156.0339574999998,1158.5649326999992,,,,1158.5710562000004,1158.5826521,1158.5826521,1158.6313387999999,1158.6315732999992,1158.6478315000004,1158.6478315000004,1158.6478315000004,1158.7144549999994,1159.0815968000006,,,,,,,,,,,,,,,,,,,,,,up,2.5222114999996847,None,space,0.4214482000006683,None,P112,001,2025-02-14_11h19.27.215,posner_endo_new1,2024.2.4,60.0993321760901,2025-02-14 11h19.32.925607 +0000,
cube_r.png,0.1,0.31,valid,27,27,0,up,6.578951800000141,None,space,0.4683743000005052,None,,,,,,,,,0,27,27,27,1159.0974860000006,,,,,,,,,,,,,1159.0817879000006,1159.0974860000006,1159.0974860000006,1159.0974860000006,1165.6915661000003,,,,1165.6976587000008,1165.7095277999997,1165.7095277999997,1165.7575049999996,1165.7577407999997,1165.7741351000004,1165.7741351000004,1165.7741351000004,1165.8570691000004,1166.2576590999997,,,,,,,,,,,,,,,,,,,,,,up,6.578951800000141,None,space,0.4683743000005052,None,P112,001,2025-02-14_11h19.27.215,posner_endo_new1,2024.2.4,60.0993321760901,2025-02-14 11h19.32.925607 +0000,
cube_r.png,0.1,10,catch,28,28,0,up,3.41145300000062,None,None,,,,,,,,,,,0,28,28,28,1166.2734146000003,,,,,,,,,,,,,1166.2578427999997,1166.2734146000003,1166.2734146000003,1166.2734146000003,1169.6874793999996,,,,1169.6937140999999,1169.7055027999995,1169.7055027999995,1169.7532835000002,1169.7535177000009,1169.7697912000003,1169.7697912000003,1169.7697912000003,1169.8532185000004,1172.7672724000004,,,,1171.8676543000001,1172.7834091000004,1172.7834091000004,1172.7834091000004,,,,,,,,,,,,,,,up,3.41145300000062,None,None,,,P112,001,2025-02-14_11h19.27.215,posner_endo_new1,2024.2.4,60.0993321760901,2025-02-14 11h19.32.925607 +0000,
cube_r.png,0.1,0.31,valid,29,29,0,up,2.821345000000292,None,space,0.4903682000003755,None,,,,,,,,,0,29,29,29,1172.7834091000004,,,,,,,,,,,,,1172.7674444999993,1172.7834091000004,1172.7834091000004,1172.7834091000004,1175.6145441999997,,,,1175.6204395999994,1175.6321422,1175.6321422,1175.6805084000007,1175.6807291999994,1175.6971085999994,1175.6971085999994,1175.6971085999994,1175.7637632000005,1176.1972678999991,,,,,,,,,,,,,,,,,,,,,,up,2.821345000000292,None,space,0.4903682000003755,None,P112,001,2025-02-14_11h19.27.215,posner_endo_new1,2024.2.4,60.0993321760901,2025-02-14 11h19.32.925607 +0000,
cube_r.png,0.1,0.31,valid,30,30,0,up,2.334909699999116,None,space,0.44663130000117235,None,,,,,,,,,0,30,30,30,1176.2133250999996,,,,,,,,,,,,,1176.1974522,1176.2133250999996,1176.2133250999996,1176.2133250999996,1178.5614315999992,,,,1178.567390099999,1178.5789021,1178.5789021,1178.6275322000001,1178.6277537000005,1178.6441446999997,1178.6441446999997,1178.6441446999997,1178.7106581999997,1179.0944629000005,,,,,,,,,,,,,,,,,,,,,,up,2.334909699999116,None,space,0.44663130000117235,None,P112,001,2025-02-14_11h19.27.215,posner_endo_new1,2024.2.4,60.0993321760901,2025-02-14 11h19.32.925607 +0000,
cube_l.png,0.1,-0.31,valid,31,31,0,up,5.470591799999966,None,space,0.38027340000007825,None,,,,,,,,,0,31,31,31,1179.1102656999992,,,,,,,,,,,,,1179.0946361999995,1179.1102656999992,1179.1102656999992,1179.1102656999992,1184.5886503000002,,,,1184.5946139000007,1184.6062349999993,1184.6062349999993,1184.6547606999993,1184.6549821999997,1184.6710664000002,1184.6710664000002,1184.6710664000002,1184.7377916999994,1185.0548548000006,,,,,,,,,,,,,,,,,,,,,,up,5.470591799999966,None,space,0.38027340000007825,None,P112,001,2025-02-14_11h19.27.215,posner_endo_new1,2024.2.4,60.0993321760901,2025-02-14 11h19.32.925607 +0000,
cube_r.png,0.1,0.31,valid,32,32,0,up,4.2215372000009665,None,space,0.4113486999995075,None,,,,,,,,,0,32,32,32,1185.0707758999997,,,,,,,,,,,,,1185.0550408,1185.0707758999997,1185.0707758999997,1185.0707758999997,1189.3007374000008,,,,1189.3065877000008,1189.3181767000005,1189.3181767000005,1189.3664353999993,1189.3666574,1189.3830273999993,1189.3830273999993,1189.3830273999993,1189.4664417000004,1189.8002242000002,,,,,,,,,,,,,,,,,,,,,,up,4.2215372000009665,None,space,0.4113486999995075,None,P112,001,2025-02-14_11h19.27.215,posner_endo_new1,2024.2.4,60.0993321760901,2025-02-14 11h19.32.925607 +0000,
cube_r.png,0.1,-0.31,invalid,33,33,0,up,4.796669300001668,None,space,0.4348470000004454,None,,,,,,,,,0,33,33,33,1189.8159539000007,,,,,,,,,,,,,1189.8004091000003,1189.8159539000007,1189.8159539000007,1189.8159539000007,1194.6282842,,,,1194.6341914000004,1194.6456899999994,1194.6456899999994,1194.6944396,1194.6946611999992,1194.7110310000007,1194.7110310000007,1194.7110310000007,1194.7776164000006,1195.1612060000007,,,,,,,,,,,,,,,,,,,,,,up,4.796669300001668,None,space,0.4348470000004454,None,P112,001,2025-02-14_11h19.27.215,posner_endo_new1,2024.2.4,60.0993321760901,2025-02-14 11h19.32.925607 +0000,
cube_r.png,0.1,10,catch,34,34,0,up,5.56336249999913,None,None,,,,,,,,,,,0,34,34,34,1195.1771006,,,,,,,,,,,,,1195.1613806000005,1195.1771006,1195.1771006,1195.1771006,1200.7555878000003,,,,1200.7620088999993,1200.7737918999992,1200.7737918999992,1200.8216453000005,1200.8218780000007,1200.8380426999993,1200.8380426999993,1200.8380426999993,1200.9047284000007,1203.8353974000001,,,,1202.9193237,1203.8515601,1203.8515601,1203.8515601,,,,,,,,,,,,,,,up,5.56336249999913,None,None,,,P112,001,2025-02-14_11h19.27.215,posner_endo_new1,2024.2.4,60.0993321760901,2025-02-14 11h19.32.925607 +0000,
cube_r.png,0.1,0.31,valid,35,35,0,up,1.6403725000000122,None,space,0.4932195999990654,None,,,,,,,,,0,35,35,35,1203.8515601,,,,,,,,,,,,,1203.8355677,1203.8515601,1203.8515601,1203.8515601,1205.5005631000004,,,,1205.5067777999993,1205.5183168000003,1205.5183168000003,1205.5666808999995,1205.5669183999998,1205.5831080000007,1205.5831080000007,1205.5831080000007,1205.6498689,1206.0832539999992,,,,,,,,,,,,,,,,,,,,,,up,1.6403725000000122,None,space,0.4932195999990654,None,P112,001,2025-02-14_11h19.27.215,posner_endo_new1,2024.2.4,60.0993321760901,2025-02-14 11h19.32.925607 +0000,
cube_r.png,0.1,-0.31,invalid,36,36,0,up,4.161315399998784,None,space,0.42208800000116753,None,,,,,,,,,0,36,36,36,1206.0994776999996,,,,,,,,,,,,,1206.0834513999998,1206.0994776999996,1206.0994776999996,1206.0994776999996,1210.2625110000008,,,,1210.2684492999997,1210.2801067,1210.2801067,1210.3284055000004,1210.3286327000005,1210.3448487999995,1210.3448487999995,1210.3448487999995,1210.4279714000004,1210.7785631000006,,,,,,,,,,,,,,,,,,,,,,up,4.161315399998784,None,space,0.42208800000116753,None,P112,001,2025-02-14_11h19.27.215,posner_endo_new1,2024.2.4,60.0993321760901,2025-02-14 11h19.32.925607 +0000,
cube_l.png,0.1,0.31,invalid,37,37,0,up,4.929636999999275,None,space,0.6786974999995437,None,,,,,,,,,0,37,37,37,1210.7943510999994,,,,,,,,,,,,,1210.7787439000003,1210.7943510999994,1210.7943510999994,1210.7943510999994,1215.7398716000007,,,,1215.7458473999995,1215.7571344999997,1215.7571344999997,1215.8061003000003,1215.8063225000005,1215.8227208000008,1215.8227208000008,1215.8227208000008,1215.8892233999995,1216.5063544000004,,,,,,,,,,,,,,,,,,,,,,up,4.929636999999275,None,space,0.6786974999995437,None,P112,001,2025-02-14_11h19.27.215,posner_endo_new1,2024.2.4,60.0993321760901,2025-02-14 11h19.32.925607 +0000,
cube_l.png,0.1,0.31,invalid,38,38,0,up,4.370890199999849,None,space,0.4409421000000293,None,,,,,,,,,0,38,38,38,1216.521912099999,,,,,,,,,,,,,1216.5065400999993,1216.521912099999,1216.521912099999,1216.521912099999,1220.9015080000008,,,,1220.9074610999996,1220.9192758999998,1220.9192758999998,1220.9675922000006,1220.9678170000007,1220.9841156999992,1220.9841156999992,1220.9841156999992,1221.0506394999993,1221.434239099999,,,,,,,,,,,,,,,,,,,,,,up,4.370890199999849,None,space,0.4409421000000293,None,P112,001,2025-02-14_11h19.27.215,posner_endo_new1,2024.2.4,60.0993321760901,2025-02-14 11h19.32.925607 +0000,
cube_r.png,0.1,0.31,valid,39,39,0,up,4.62624440000036,None,space,0.3957862000006571,None,,,,,,,,,0,39,39,39,1221.4501983999999,,,,,,,,,,,,,1221.4344232999993,1221.4501983999999,1221.4501983999999,1221.4501983999999,1226.0795552,,,,1226.0855663000002,1226.0973441999995,1226.0973441999995,1226.1456584999996,1226.1459016999997,1226.1620555000009,1226.1620555000009,1226.1620555000009,1226.2288372999992,1226.5627437999992,,,,,,,,,,,,,,,,,,,,,,up,4.62624440000036,None,space,0.3957862000006571,None,P112,001,2025-02-14_11h19.27.215,posner_endo_new1,2024.2.4,60.0993321760901,2025-02-14 11h19.32.925607 +0000,
cube_l.png,0.1,0.31,invalid,40,40,0,up,4.425845099998696,None,space,0.4097151000005397,None,,,,,,,,,0,40,40,40,1226.5784691000008,,,,,,,,,,,,,1226.5629320999997,1226.5784691000008,1226.5784691000008,1226.5784691000008,1231.0079984999993,,,,1231.0141528000004,1231.0259766,1231.0259766,1231.0738743000002,1231.0741092000007,1231.0904871999992,1231.0904871999992,1231.0904871999992,1231.1736660000006,1231.5075175000002,,,,,,,,,,,,,,,,,,,,,,up,4.425845099998696,None,space,0.4097151000005397,None,P112,001,2025-02-14_11h19.27.215,posner_endo_new1,2024.2.4,60.0993321760901,2025-02-14 11h19.32.925607 +0000,
cube_l.png,0.1,10,catch,41,41,0,up,4.865254599999389,None,None,,,,,,,,,,,0,41,41,41,1231.5234163000005,,,,,,,,,,,,,1231.5077022000005,1231.5234163000005,1231.5234163000005,1231.5234163000005,1236.4025216999999,,,,1236.4086530999994,1236.4201410999995,1236.4201410999995,1236.4682011999994,1236.4684400000006,1236.4849080000004,1236.4849080000004,1236.4849080000004,1236.5681413000002,1239.4824957,,,,1238.5827477999992,1239.4986336000002,1239.4986336000002,1239.4986336000002,,,,,,,,,,,,,,,up,4.865254599999389,None,None,,,P112,001,2025-02-14_11h19.27.215,posner_endo_new1,2024.2.4,60.0993321760901,2025-02-14 11h19.32.925607 +0000,
cube_l.png,0.1,-0.31,valid,42,42,0,up,1.329454499998974,None,space,0.7776593999988108,None,,,,,,,,,0,42,42,42,1239.4986336000002,,,,,,,,,,,,,1239.4826694999992,1239.4986336000002,1239.4986336000002,1239.4986336000002,1240.8311030999994,,,,1240.8373618000005,1240.8493325,1240.8493325,1240.8970430000008,1240.8972814999997,1240.9135903999995,1240.9135903999995,1240.9135903999995,1240.9802648999994,1241.6969021000004,,,,,,,,,,,,,,,,,,,,,,up,1.329454499998974,None,space,0.7776593999988108,None,P112,001,2025-02-14_11h19.27.215,posner_endo_new1,2024.2.4,60.0993321760901,2025-02-14 11h19.32.925607 +0000,
cube_l.png,0.1,10,catch,43,43,0,up,5.411988699999711,None,None,,,,,,,,,,,0,43,43,43,1241.7128348999995,,,,,,,,,,,,,1241.6970841999992,1241.7128348999995,1241.7128348999995,1241.7128348999995,1247.1412082000006,,,,1247.1471992999996,1247.1586915999997,1247.1586915999997,1247.2072984999995,1247.2075213999997,1247.2236083999996,1247.2236083999996,1247.2236083999996,1247.2904178999997,1250.2212452000003,,,,1249.3048722000003,1250.2373798999997,1250.2373798999997,1250.2373798999997,,,,,,,,,,,,,,,up,5.411988699999711,None,None,,,P112,001,2025-02-14_11h19.27.215,posner_endo_new1,2024.2.4,60.0993321760901,2025-02-14 11h19.32.925607 +0000,
cube_l.png,0.1,0.31,invalid,44,44,0,up,1.3270501999995759,None,space,0.5677450000002864,None,,,,,,,,,0,44,44,44,1250.2373798999997,,,,,,,,,,,,,1250.2214179999992,1250.2373798999997,1250.2373798999997,1250.2373798999997,1251.5702065999994,,,,1251.576273999999,1251.5879317,1251.5879317,1251.636142199999,1251.6363808000006,1251.6521586,1251.6521586,1251.6521586,1251.7358669999994,1252.2364101999992,,,,,,,,,,,,,,,,,,,,,,up,1.3270501999995759,None,space,0.5677450000002864,None,P112,001,2025-02-14_11h19.27.215,posner_endo_new1,2024.2.4,60.0993321760901,2025-02-14 11h19.32.925607 +0000,
cube_l.png,0.1,0.31,invalid,45,45,0,up,3.824157400000331,None,space,0.38303049999922223,None,,,,,,,,,0,45,45,45,1252.2523901000004,,,,,,,,,,,,,1252.2366031000001,1252.2523901000004,1252.2523901000004,1252.2523901000004,1256.0823008999996,,,,1256.0884987999998,1256.1004603000001,1256.1004603000001,1256.1481222000002,1256.1483575999991,1256.1646939999991,1256.1646939999991,1256.1646939999991,1256.2315464000003,1256.5485031999997,,,,,,,,,,,,,,,,,,,,,,up,3.824157400000331,None,space,0.38303049999922223,None,P112,001,2025-02-14_11h19.27.215,posner_endo_new1,2024.2.4,60.0993321760901,2025-02-14 11h19.32.925607 +0000,
cube_r.png,0.1,0.31,valid,46,46,0,up,3.784759699999995,None,space,0.4045974999989994,None,,,,,,,,,0,46,46,46,1256.5639910999998,,,,,,,,,,,,,1256.5486858999993,1256.5639910999998,1256.5639910999998,1256.5639910999998,1260.3612156,,,,1260.3673665000006,1260.3791708999997,1260.3791708999997,1260.4271169999993,1260.4273479999993,1260.4436557000008,1260.4436557000008,1260.4436557000008,1260.5103459000002,1260.8606968999993,,,,,,,,,,,,,,,,,,,,,,up,3.784759699999995,None,space,0.4045974999989994,None,P112,001,2025-02-14_11h19.27.215,posner_endo_new1,2024.2.4,60.0993321760901,2025-02-14 11h19.32.925607 +0000,
cube_l.png,0.1,-0.31,valid,47,47,0,up,4.328202400000009,None,space,0.29332630000135396,None,,,,,,,,,0,47,47,47,1260.876526,,,,,,,,,,,,,1260.8608808999998,1260.876526,1260.876526,1260.876526,1265.2064575000004,,,,1265.2125491999996,1265.2242764999992,1265.2242764999992,1265.2722993999996,1265.2725394999998,1265.2886376000006,1265.2886376000006,1265.2886376000006,1265.3719796999994,1265.5889341999991,,,,,,,,,,,,,,,,,,,,,,up,4.328202400000009,None,space,0.29332630000135396,None,P112,001,2025-02-14_11h19.27.215,posner_endo_new1,2024.2.4,60.0993321760901,2025-02-14 11h19.32.925607 +0000,
cube_r.png,0.1,-0.31,invalid,48,48,0,up,5.263650300001245,None,space,0.43211860000155866,None,,,,,,,,,0,48,48,48,1265.6050613000007,,,,,,,,,,,,,1265.5891317999994,1265.6050613000007,1265.6050613000007,1265.6050613000007,1270.8836637999993,,,,1270.8897816999997,1270.9013436999994,1270.9013436999994,1270.9498848000003,1270.9501189000002,1270.9663419000008,1270.9663419000008,1270.9663419000008,1271.0327361,1271.4002234,,,,,,,,,,,,,,,,,,,,,,up,5.263650300001245,None,space,0.43211860000155866,None,P112,001,2025-02-14_11h19.27.215,posner_endo_new1,2024.2.4,60.0993321760901,2025-02-14 11h19.32.925607 +0000,
cube_r.png,0.1,10,catch,49,49,0,up,3.66889490000176,None,None,,,,,,,,,,,0,49,49,49,1271.4157856000002,,,,,,,,,,,,,1271.4004077000009,1271.4157856000002,1271.4157856000002,1271.4157856000002,1275.0961429,,,,1275.1023275999996,1275.1139103999994,1275.1139103999994,1275.1620899000009,1275.1623258,1275.1784478000009,1275.1784478000009,1275.1784478000009,1275.2451082999996,1278.1759550999996,,,,1277.2597477,1278.1921483000006,1278.1921483000006,1278.1921483000006,,,,,,,,,,,,,,,up,3.66889490000176,None,None,,,P112,001,2025-02-14_11h19.27.215,posner_endo_new1,2024.2.4,60.0993321760901,2025-02-14 11h19.32.925607 +0000,
cube_l.png,0.1,-0.31,valid,50,50,0,up,1.7480126999998902,None,space,0.40522430000055465,None,,,,,,,,,0,50,50,50,1278.1921483000006,,,,,,,,,,,,,1278.1761282000007,1278.1921483000006,1278.1921483000006,1278.1921483000006,1279.941387499999,,,,1279.9475230999997,1279.9595310000004,1279.9595310000004,1280.0068910999998,1280.0071284999995,1280.0237727000003,1280.0237727000003,1280.0237727000003,1280.1067624000007,1280.4406978999996,,,,,,,,,,,,,,,,,,,,,,up,1.7480126999998902,None,space,0.40522430000055465,None,P112,001,2025-02-14_11h19.27.215,posner_endo_new1,2024.2.4,60.0993321760901,2025-02-14 11h19.32.925607 +0000,
cube_l.png,0.1,-0.31,valid,51,51,0,up,4.0524366999998165,None,space,0.42689790000076755,None,,,,,,,,,0,51,51,51,1280.4565958000003,,,,,,,,,,,,,1280.4408963999995,1280.4565958000003,1280.4565958000003,1280.4565958000003,1284.5197284000005,,,,1284.5259313000006,1284.5375829999994,1284.5375829999994,1284.5856535000003,1284.5858898000006,1284.6022181999997,1284.6022181999997,1284.6022181999997,1284.6688964999994,1285.0359604999994,,,,,,,,,,,,,,,,,,,,,,up,4.0524366999998165,None,space,0.42689790000076755,None,P112,001,2025-02-14_11h19.27.215,posner_endo_new1,2024.2.4,60.0993321760901,2025-02-14 11h19.32.925607 +0000,
cube_r.png,0.1,-0.31,invalid,52,52,0,up,4.328005199999097,None,space,0.3724541000010504,None,,,,,,,,,0,52,52,52,1285.0519124000002,,,,,,,,,,,,,1285.0361436999992,1285.0519124000002,1285.0519124000002,1285.0519124000002,1289.3815761000005,,,,1289.3877825,1289.3995747000008,1289.3995747000008,1289.4474226999992,1289.4476594999996,1289.4638102999997,1289.4638102999997,1289.4638102999997,1289.5471211000004,1289.8477882999996,,,,,,,,,,,,,,,,,,,,,,up,4.328005199999097,None,space,0.3724541000010504,None,P112,001,2025-02-14_11h19.27.215,posner_endo_new1,2024.2.4,60.0993321760901,2025-02-14 11h19.32.925607 +0000,
cube_l.png,0.1,-0.31,valid,53,53,0,up,4.12505020000026,None,space,0.39926630000081786,None,,,,,,,,,0,53,53,53,1289.8637037000008,,,,,,,,,,,,,1289.8479829999997,1289.8637037000008,1289.8637037000008,1289.8637037000008,1293.9934027,,,,1293.9994846999998,1294.0110974,1294.0110974,1294.0592699000008,1294.0595061999993,1294.0758807999991,1294.0758807999991,1294.0758807999991,1294.1426914999993,1294.4762931000005,,,,,,,,,,,,,,,,,,,,,,up,4.12505020000026,None,space,0.39926630000081786,None,P112,001,2025-02-14_11h19.27.215,posner_endo_new1,2024.2.4,60.0993321760901,2025-02-14 11h19.32.925607 +0000,
cube_r.png,0.1,10,catch,54,54,0,up,4.352262000000337,None,None,,,,,,,,,,,0,54,54,54,1294.4921145999997,,,,,,,,,,,,,1294.4764787999993,1294.4921145999997,1294.4921145999997,1294.4921145999997,1298.8551310000003,,,,1298.8612159999993,1298.8729380999994,1298.8729380999994,1298.9207709999991,1298.9210060000005,1298.9376572,1298.9376572,1298.9376572,1299.0207083999994,1301.9350821000007,,,,1301.0355094999995,1301.9510879000009,1301.9510879000009,1301.9510879000009,,,,,,,,,,,,,,,up,4.352262000000337,None,None,,,P112,001,2025-02-14_11h19.27.215,posner_endo_new1,2024.2.4,60.0993321760901,2025-02-14 11h19.32.925607 +0000,
cube_l.png,0.1,0.31,invalid,55,55,0,up,1.8455801000000065,None,space,0.4576968000001216,None,,,,,,,,,0,55,55,55,1301.9510879000009,,,,,,,,,,,,,1301.9352555000005,1301.9510879000009,1301.9510879000009,1301.9510879000009,1303.8000453999994,,,,1303.8058514000004,1303.8174940000008,1303.8174940000008,1303.8659907,1303.8662113999999,1303.8826573000006,1303.8826573000006,1303.8826573000006,1303.9659264000002,1304.3495889000005,,,,,,,,,,,,,,,,,,,,,,up,1.8455801000000065,None,space,0.4576968000001216,None,P112,001,2025-02-14_11h19.27.215,posner_endo_new1,2024.2.4,60.0993321760901,2025-02-14 11h19.32.925607 +0000,
cube_l.png,0.1,-0.31,valid,56,56,0,up,2.6704737000000023,None,space,0.3663996999985102,None,,,,,,,,,0,56,56,56,1304.3653144,,,,,,,,,,,,,1304.3497824999995,1304.3653144,1304.3653144,1304.3653144,1307.0465217,,,,1307.0524590000005,1307.0639551000004,1307.0639551000004,1307.1127405000007,1307.1129615999998,1307.1291311999994,1307.1291311999994,1307.1291311999994,1307.1956112999997,1307.4962878999995,,,,,,,,,,,,,,,,,,,,,,up,2.6704737000000023,None,space,0.3663996999985102,None,P112,001,2025-02-14_11h19.27.215,posner_endo_new1,2024.2.4,60.0993321760901,2025-02-14 11h19.32.925607 +0000,
cube_r.png,0.1,0.31,valid,57,57,0,up,3.876676599998973,None,space,0.4099205999991682,None,,,,,,,,,0,57,57,57,1307.5119692000007,,,,,,,,,,,,,1307.4964672999995,1307.5119692000007,1307.5119692000007,1307.5119692000007,1311.3923090999997,,,,1311.3984416000003,1311.410051499999,1311.410051499999,1311.4584338999994,1311.4586763999996,1311.4747900999992,1311.4747900999992,1311.4747900999992,1311.5413095999993,1311.8915263,,,,,,,,,,,,,,,,,,,,,,up,3.876676599998973,None,space,0.4099205999991682,None,P112,001,2025-02-14_11h19.27.215,posner_endo_new1,2024.2.4,60.0993321760901,2025-02-14 11h19.32.925607 +0000,
cube_r.png,0.1,-0.31,invalid,58,58,0,up,5.161182600000757,None,space,0.42598369999905117,None,,,,,,,,,0,58,58,58,1311.9074803000003,,,,,,,,,,,,,1311.8917106000008,1311.9074803000003,1311.9074803000003,1311.9074803000003,1317.0698732,,,,1317.0758611,1317.0878584000002,1317.0878584000002,1317.1356739000003,1317.1358987999993,1317.1521457,1317.1521457,1317.1521457,1317.2188246000005,1317.5859469000006,,,,,,,,,,,,,,,,,,,,,,up,5.161182600000757,None,space,0.42598369999905117,None,P112,001,2025-02-14_11h19.27.215,posner_endo_new1,2024.2.4,60.0993321760901,2025-02-14 11h19.32.925607 +0000,
cube_l.png,0.1,0.31,invalid,59,59,0,up,3.11429329999919,None,space,0.4544568999990588,None,,,,,,,,,0,59,59,59,1317.6017126999996,,,,,,,,,,,,,1317.5861208000006,1317.6017126999996,1317.6017126999996,1317.6017126999996,1320.7327394999993,,,,1320.7388563000004,1320.7504258999998,1320.7504258999998,1320.7986892000008,1320.7989244,1320.8153495000006,1320.8153495000006,1320.8153495000006,1320.8983219000002,1321.2823465000001,,,,,,,,,,,,,,,,,,,,,,up,3.11429329999919,None,space,0.4544568999990588,None,P112,001,2025-02-14_11h19.27.215,posner_endo_new1,2024.2.4,60.0993321760901,2025-02-14 11h19.32.925607 +0000,
