cue_img,cue_soa,target_y,trial,thisN,thisTrialN,thisRepN,key_control2.keys,key_control2.rt,key_control2.duration,key_resp.keys,key_resp.rt,key_resp.duration,practice.thisRepN,practice.thisTrialN,practice.thisN,practice.thisIndex,block1.thisRepN,block1.thisTrialN,block1.thisN,block1.thisIndex,block2.thisRepN,block2.thisTrialN,block2.thisN,block2.thisIndex,thisRow.t,notes,instructions.started,instructions_txt.started,key_control.started,instructions.stopped,key_control.keys,key_control.rt,key_control.duration,ready.started,ready_txt.started,ready_txt.stopped,ready.stopped,fix.started,fixation.started,key_control2.started,fixation_cross.started,fix.stopped,practice.key_control2.keys,practice.key_control2.rt,practice.key_control2.duration,cue.started,cue.stopped,target.started,star.started,fixation_target.started,fixation_cross_target.started,key_resp.started,target.stopped,practice.key_resp.keys,practice.key_resp.rt,practice.key_resp.duration,cube.started,fixation_cross_cue.started,star.stopped,fixation_target.stopped,fixation_cross_target.stopped,key_resp.stopped,block1.key_control2.keys,block1.key_control2.rt,block1.key_control2.duration,block1.key_resp.keys,block1.key_resp.rt,block1.key_resp.duration,break_2.started,text.started,key_control3.started,text.stopped,break_2.stopped,key_control3.keys,key_control3.rt,key_control3.duration,block2.key_control2.keys,block2.key_control2.rt,block2.key_control2.duration,block2.key_resp.keys,block2.key_resp.rt,block2.key_resp.duration,participant,session,date,expName,psychopyVersion,frameRate,expStart,
,,,,,,,,,,,,,,,,,,,,,,,,,,,0.0074591999998574465,0.028096399999867572,0.028096399999867572,170.6270892,up,170.59297049999986,None,,,,,,,,,,,,,,,,,,,,,,,,,,,,,,,,,,,,,,,,,,,,,,,,,,P113,001,2025-02-17_12h36.33.043,posner_endo_new1,2024.2.4,60.07593598310949,2025-02-17 12h36.42.324648 +0000,
,,,,,,,,,,,,,,,,,,,,,,,,,,,,,,,,,,170.62713829999984,170.63971489999994,173.6399058999998,173.62061849999986,,,,,,,,,,,,,,,,,,,,,,,,,,,,,,,,,,,,,,,,,,,,,,P113,001,2025-02-17_12h36.33.043,posner_endo_new1,2024.2.4,60.07593598310949,2025-02-17 12h36.42.324648 +0000,
cube_l.png,0.1,-0.31,valid,0,0,0,up,67.74931079999988,None,space,0.4482232999998814,None,0,0,0,0,,,,,,,,,173.6399058999998,,,,,,,,,,,,,173.62790099999984,173.6399058999998,173.6399058999998,173.6399058999998,241.40174249999995,up,67.74931079999988,None,241.5937045999999,241.59389039999996,241.59446949999983,241.60788549999984,241.60788549999984,241.60788549999984,241.60788549999984,242.06796259999987,space,0.4482232999998814,None,,,,,,,,,,,,,,,,,,,,,,,,,,,P113,001,2025-02-17_12h36.33.043,posner_endo_new1,2024.2.4,60.07593598310949,2025-02-17 12h36.42.324648 +0000,
cube_l.png,0.1,0.31,invalid,1,1,0,up,8.59391370000003,None,space,0.40192980000006173,None,0,1,1,1,,,,,,,,,242.0835115,,,,,,,,,,,,,242.0682089999998,242.0835115,242.0835115,242.0835115,250.69384309999987,up,8.59391370000003,None,250.72348769999985,250.75558039999987,250.75592979999988,250.85783349999997,250.7741944999998,250.7741944999998,250.7741944999998,251.19204189999982,space,0.40192980000006173,None,250.73426159999985,250.73426159999985,,,,,,,,,,,,,,,,,,,,,,,,,P113,001,2025-02-17_12h36.33.043,posner_endo_new1,2024.2.4,60.07593598310949,2025-02-17 12h36.42.324648 +0000,
cube_r.png,0.1,-0.31,invalid,2,2,0,up,5.0452596999998605,None,space,0.3113866000001053,None,0,2,2,2,,,,,,,,,251.20759249999992,,,,,,,,,,,,,251.19231379999997,251.20759249999992,251.20759249999992,251.20759249999992,256.270086,up,5.0452596999998605,None,256.2819370999998,256.33569669999997,256.3360049999999,256.43554959999983,256.3522833999998,256.3522833999998,256.3522833999998,256.66962779999994,space,0.3113866000001053,None,256.2917201999999,256.2917201999999,,,,,,,,,,,,,,,,,,,,,,,,,P113,001,2025-02-17_12h36.33.043,posner_endo_new1,2024.2.4,60.07593598310949,2025-02-17 12h36.42.324648 +0000,
cube_r.png,0.1,10,catch,3,3,0,up,6.448518999999806,None,None,,,0,3,3,3,,,,,,,,,256.68527399999994,,,,,,,,,,,,,256.66987129999984,256.68527399999994,256.68527399999994,256.68527399999994,263.1464031999999,up,6.448518999999806,None,263.15679409999984,263.21198519999984,263.2122875,263.31185559999994,263.2285979999999,263.2285979999999,263.2285979999999,266.2262314999998,None,,,263.1669003999998,263.1669003999998,265.3263198999998,266.2421061,266.2421061,266.2421061,,,,,,,,,,,,,,,,,,,,,P113,001,2025-02-17_12h36.33.043,posner_endo_new1,2024.2.4,60.07593598310949,2025-02-17 12h36.42.324648 +0000,
cube_l.png,0.1,-0.31,valid,4,4,0,up,2.724450200000092,None,space,0.3884416000000783,None,0,4,4,4,,,,,,,,,266.2421061,,,,,,,,,,,,,266.2264519999999,266.2421061,266.2421061,266.2421061,268.9736851,up,2.724450200000092,None,268.9835472,269.03940439999997,269.03971349999983,269.13916459999996,269.0560126999999,269.0560126999999,269.0560126999999,269.45652399999994,space,0.3884416000000783,None,268.9935768999999,268.9935768999999,,,,,,,,,,,,,,,,,,,,,,,,,P113,001,2025-02-17_12h36.33.043,posner_endo_new1,2024.2.4,60.07593598310949,2025-02-17 12h36.42.324648 +0000,
cube_l.png,0.1,0.31,invalid,5,5,0,up,5.581519099999923,None,space,0.3859769000000597,None,0,5,5,5,,,,,,,,,269.4721877999998,,,,,,,,,,,,,269.45676189999995,269.4721877999998,269.4721877999998,269.4721877999998,275.0675062999999,up,5.581519099999923,None,275.07730849999984,275.1331771,275.1334795999999,275.23295029999986,275.1496546999999,275.1496546999999,275.1496546999999,275.5504119999998,space,0.3859769000000597,None,275.0875564999999,275.0875564999999,,,,,,,,,,,,,,,,,,,,,,,,,P113,001,2025-02-17_12h36.33.043,posner_endo_new1,2024.2.4,60.07593598310949,2025-02-17 12h36.42.324648 +0000,
cube_r.png,0.1,-0.31,invalid,6,6,0,up,5.815341699999863,None,space,0.3935220999999274,None,0,6,6,6,,,,,,,,,275.56597169999986,,,,,,,,,,,,,275.5506533999999,275.56597169999986,275.56597169999986,275.56597169999986,281.3943308999999,up,5.815341699999863,None,281.4040286999998,281.4600796,281.4603907999999,281.5599313,281.4766080999998,281.4766080999998,281.4766080999998,281.87726469999984,space,0.3935220999999274,None,281.41424159999997,281.41424159999997,,,,,,,,,,,,,,,,,,,,,,,,,P113,001,2025-02-17_12h36.33.043,posner_endo_new1,2024.2.4,60.07593598310949,2025-02-17 12h36.42.324648 +0000,
cube_r.png,0.1,0.31,valid,7,7,0,up,5.601033700000016,None,space,0.31657560000007834,None,0,7,7,7,,,,,,,,,281.89275369999996,,,,,,,,,,,,,281.87750229999983,281.89275369999996,281.89275369999996,281.89275369999996,287.50474569999983,up,5.601033700000016,None,287.51439989999994,287.5705186,287.5708262999999,287.6703086,287.5870619,287.5870619,287.5870619,287.9046977999999,space,0.31657560000007834,None,287.5246617999999,287.5246617999999,,,,,,,,,,,,,,,,,,,,,,,,,P113,001,2025-02-17_12h36.33.043,posner_endo_new1,2024.2.4,60.07593598310949,2025-02-17 12h36.42.324648 +0000,
cube_l.png,0.1,-0.31,valid,8,8,0,up,5.366690299999846,None,space,0.34365010000010443,None,0,8,8,8,,,,,,,,,287.92012249999993,,,,,,,,,,,,,287.9049387,287.92012249999993,287.92012249999993,287.92012249999993,293.29888949999986,up,5.366690299999846,None,293.3085804,293.36461899999995,293.36492699999985,293.46437919999994,293.3810469,293.3810469,293.3810469,293.73180209999987,space,0.34365010000010443,None,293.3187937,293.3187937,,,,,,,,,,,,,,,,,,,,,,,,,P113,001,2025-02-17_12h36.33.043,posner_endo_new1,2024.2.4,60.07593598310949,2025-02-17 12h36.42.324648 +0000,
cube_r.png,0.1,-0.31,invalid,9,9,0,up,6.122052799999892,None,space,0.34348049999994146,None,0,9,9,9,,,,,,,,,293.7474216999999,,,,,,,,,,,,,293.7320402999999,293.7474216999999,293.7474216999999,293.7474216999999,299.8756318999999,up,6.122052799999892,None,299.8854047,299.94130959999984,299.94162459999984,300.0409347,299.9577563999999,299.9577563999999,299.9577563999999,300.30854469999986,space,0.34348049999994146,None,299.8954876999999,299.8954876999999,,,,,,,,,,,,,,,,,,,,,,,,,P113,001,2025-02-17_12h36.33.043,posner_endo_new1,2024.2.4,60.07593598310949,2025-02-17 12h36.42.324648 +0000,
cube_r.png,0.1,0.31,valid,10,10,0,up,4.337517299999945,None,space,0.31070260000001326,None,0,10,10,10,,,,,,,,,300.3240727,,,,,,,,,,,,,300.3087819,300.3240727,300.3240727,300.3240727,304.6706861,up,4.337517299999945,None,304.68029979999983,304.7364081999999,304.73671509999986,304.8360407,304.75284839999995,304.75284839999995,304.75284839999995,305.0702587999999,space,0.31070260000001326,None,304.6905079999999,304.6905079999999,,,,,,,,,,,,,,,,,,,,,,,,,P113,001,2025-02-17_12h36.33.043,posner_endo_new1,2024.2.4,60.07593598310949,2025-02-17 12h36.42.324648 +0000,
,,,,,,,,,,,,,,,,,,,,,,,,,,,,,,,,,,305.0704175999999,305.08581359999994,308.0905594999999,308.0667323,,,,,,,,,,,,,,,,,,,,,,,,,,,,,,,,,,,,,,,,,,,,,,P113,001,2025-02-17_12h36.33.043,posner_endo_new1,2024.2.4,60.07593598310949,2025-02-17 12h36.42.324648 +0000,
cube_l.png,0.1,10,catch,0,0,0,up,7.962428000000045,None,None,,,,,,,0,0,0,0,,,,,308.0905594999999,,,,,,,,,,,,,308.0819976999999,308.0905594999999,308.0905594999999,308.0905594999999,316.0586137999999,,,,316.06463869999993,316.1246985999999,316.12492769999994,316.2077164,316.14116509999985,316.14116509999985,316.14116509999985,319.13847669999996,,,,316.0763047999999,316.0763047999999,318.22223699999995,319.15474419999987,319.15474419999987,319.15474419999987,up,7.962428000000045,None,None,,,,,,,,,,,,,,,,,P113,001,2025-02-17_12h36.33.043,posner_endo_new1,2024.2.4,60.07593598310949,2025-02-17 12h36.42.324648 +0000,
cube_l.png,0.1,10,catch,1,1,0,up,3.659314400000085,None,None,,,,,,,0,1,1,1,,,,,319.15474419999987,,,,,,,,,,,,,319.13863619999984,319.15474419999987,319.15474419999987,319.15474419999987,322.8184561999999,,,,322.8245067999999,322.8844099999999,322.8846363,322.96770949999996,322.9011625999999,322.9011625999999,322.9011625999999,325.8983701999998,,,,322.8361296999999,322.8361296999999,324.9822316,325.9145050999998,325.9145050999998,325.9145050999998,up,3.659314400000085,None,None,,,,,,,,,,,,,,,,,P113,001,2025-02-17_12h36.33.043,posner_endo_new1,2024.2.4,60.07593598310949,2025-02-17 12h36.42.324648 +0000,
cube_l.png,0.1,0.31,invalid,2,2,0,up,3.154611599999953,None,space,0.39080680000006396,None,,,,,0,2,2,2,,,,,325.9145050999998,,,,,,,,,,,,,325.8985298,325.9145050999998,325.9145050999998,325.9145050999998,329.07861189999994,,,,329.0846147999998,329.14468399999987,329.14491109999994,329.2278663999998,329.1610739,329.1610739,329.1610739,329.5616187999999,,,,329.0962364999998,329.0962364999998,,,,,up,3.154611599999953,None,space,0.39080680000006396,None,,,,,,,,,,,,,,,P113,001,2025-02-17_12h36.33.043,posner_endo_new1,2024.2.4,60.07593598310949,2025-02-17 12h36.42.324648 +0000,
cube_l.png,0.1,0.31,invalid,3,3,0,up,6.611837500000092,None,space,0.4558657000000039,None,,,,,0,3,3,3,,,,,329.5774743999998,,,,,,,,,,,,,329.5617915999999,329.5774743999998,329.5774743999998,329.5774743999998,336.2046019999998,,,,336.21064509999997,336.2707608999999,336.270986,336.3538331,336.28750949999994,336.28750949999994,336.28750949999994,336.7541999,,,,336.22217879999994,336.22217879999994,,,,,up,6.611837500000092,None,space,0.4558657000000039,None,,,,,,,,,,,,,,,P113,001,2025-02-17_12h36.33.043,posner_endo_new1,2024.2.4,60.07593598310949,2025-02-17 12h36.42.324648 +0000,
cube_l.png,0.1,-0.31,valid,4,4,0,up,6.0348094999999375,None,space,0.3598540000000412,None,,,,,0,4,4,4,,,,,336.7701989999998,,,,,,,,,,,,,336.75437709999983,336.7701989999998,336.7701989999998,336.7701989999998,342.8145556999998,,,,342.8205446999998,342.8806307,342.88085739999997,342.9635526999998,342.8972543,342.8972543,342.8972543,343.26406129999987,,,,342.8322601,342.8322601,,,,,up,6.0348094999999375,None,space,0.3598540000000412,None,,,,,,,,,,,,,,,P113,001,2025-02-17_12h36.33.043,posner_endo_new1,2024.2.4,60.07593598310949,2025-02-17 12h36.42.324648 +0000,
cube_r.png,0.1,-0.31,invalid,5,5,0,up,5.301206299999876,None,space,0.34993120000012823,None,,,,,0,5,5,5,,,,,343.2801863999998,,,,,,,,,,,,,343.2642361999999,343.2801863999998,343.2801863999998,343.2801863999998,348.5917846,,,,348.5982382999998,348.6576909999999,348.6579092999998,348.7413614999998,348.6742648999998,348.6742648999998,348.6742648999998,349.0249345999998,,,,348.6096562,348.6096562,,,,,up,5.301206299999876,None,space,0.34993120000012823,None,,,,,,,,,,,,,,,P113,001,2025-02-17_12h36.33.043,posner_endo_new1,2024.2.4,60.07593598310949,2025-02-17 12h36.42.324648 +0000,
cube_r.png,0.1,0.31,valid,6,6,0,up,5.613319999999931,None,space,0.363279299999931,None,,,,,0,6,6,6,,,,,349.04056679999985,,,,,,,,,,,,,349.0250965,349.04056679999985,349.04056679999985,349.04056679999985,354.66908409999996,,,,354.67504439999993,354.73523209999985,354.7354587,354.81836899999985,354.7519241,354.7519241,354.7519241,355.1188210999999,,,,354.6866699999998,354.6866699999998,,,,,up,5.613319999999931,None,space,0.363279299999931,None,,,,,,,,,,,,,,,P113,001,2025-02-17_12h36.33.043,posner_endo_new1,2024.2.4,60.07593598310949,2025-02-17 12h36.42.324648 +0000,
cube_r.png,0.1,-0.31,invalid,7,7,0,up,5.926950499999975,None,space,0.35494579999999587,None,,,,,0,7,7,7,,,,,355.1345965999999,,,,,,,,,,,,,355.1189995999998,355.1345965999999,355.1345965999999,355.1345965999999,361.06280649999985,,,,361.06883459999995,361.12871819999987,361.1289426999999,361.2283599,361.1452565999998,361.1452565999998,361.1452565999998,361.5121723999998,,,,361.08039629999985,361.08039629999985,,,,,up,5.926950499999975,None,space,0.35494579999999587,None,,,,,,,,,,,,,,,P113,001,2025-02-17_12h36.33.043,posner_endo_new1,2024.2.4,60.07593598310949,2025-02-17 12h36.42.324648 +0000,
cube_l.png,0.1,-0.31,valid,8,8,0,up,6.237428099999988,None,space,0.33536750000007487,None,,,,,0,8,8,8,,,,,361.5279928,,,,,,,,,,,,,361.51234469999986,361.5279928,361.5279928,361.5279928,367.7723761999998,,,,367.77843239999993,367.83845429999997,367.8386802,367.9215018,367.85505079999984,367.85505079999984,367.85505079999984,368.20533279999995,,,,367.78991959999985,367.78991959999985,,,,,up,6.237428099999988,None,space,0.33536750000007487,None,,,,,,,,,,,,,,,P113,001,2025-02-17_12h36.33.043,posner_endo_new1,2024.2.4,60.07593598310949,2025-02-17 12h36.42.324648 +0000,
cube_r.png,0.1,-0.31,invalid,9,9,0,up,5.0164285999999265,None,space,0.3541557000000921,None,,,,,0,9,9,9,,,,,368.2211775999999,,,,,,,,,,,,,368.2055086999999,368.2211775999999,368.2211775999999,368.2211775999999,373.25029129999984,,,,373.25629779999986,373.31624149999993,373.3164698999999,373.41591689999996,373.3327345,373.3327345,373.3327345,373.6997666999998,,,,373.2678074999999,373.2678074999999,,,,,up,5.0164285999999265,None,space,0.3541557000000921,None,,,,,,,,,,,,,,,P113,001,2025-02-17_12h36.33.043,posner_endo_new1,2024.2.4,60.07593598310949,2025-02-17 12h36.42.324648 +0000,
cube_l.png,0.1,0.31,invalid,10,10,0,up,5.673631600000135,None,space,0.35506329999998343,None,,,,,0,10,10,10,,,,,373.71566729999995,,,,,,,,,,,,,373.69994399999996,373.71566729999995,373.71566729999995,373.71566729999995,379.3939444,,,,379.3999567999999,379.45963069999993,379.4600747999998,379.55930749999993,379.4760985999999,379.4760985999999,379.4760985999999,379.84388079999985,,,,379.4113441999998,379.4113441999998,,,,,up,5.673631600000135,None,space,0.35506329999998343,None,,,,,,,,,,,,,,,P113,001,2025-02-17_12h36.33.043,posner_endo_new1,2024.2.4,60.07593598310949,2025-02-17 12h36.42.324648 +0000,
cube_r.png,0.1,-0.31,invalid,11,11,0,up,5.21827200000007,None,space,0.7653680999999324,None,,,,,0,11,11,11,,,,,379.85903429999985,,,,,,,,,,,,,379.8442565999999,379.85903429999985,379.85903429999985,379.85903429999985,385.08836729999985,,,,385.09714169999984,385.1541301,385.1544171999999,385.25389169999994,385.1707147999998,385.1707147999998,385.1707147999998,385.9375614999999,,,,385.1073087999998,385.1073087999998,,,,,up,5.21827200000007,None,space,0.7653680999999324,None,,,,,,,,,,,,,,,P113,001,2025-02-17_12h36.33.043,posner_endo_new1,2024.2.4,60.07593598310949,2025-02-17 12h36.42.324648 +0000,
cube_r.png,0.1,0.31,valid,12,12,0,up,5.076421100000061,None,space,0.37208979999991243,None,,,,,0,12,12,12,,,,,385.9531542,,,,,,,,,,,,,385.9377929,385.9531542,385.9531542,385.9531542,391.0323116999998,,,,391.0412842999999,391.09800169999994,391.0982812,391.1978859999999,391.1145239,391.1145239,391.1145239,391.49840959999983,,,,391.0513065,391.0513065,,,,,up,5.076421100000061,None,space,0.37208979999991243,None,,,,,,,,,,,,,,,P113,001,2025-02-17_12h36.33.043,posner_endo_new1,2024.2.4,60.07593598310949,2025-02-17 12h36.42.324648 +0000,
cube_l.png,0.1,10,catch,13,13,0,up,5.579285300000038,None,None,,,,,,,0,13,13,13,,,,,391.51420919999987,,,,,,,,,,,,,391.4986526,391.51420919999987,391.51420919999987,391.51420919999987,397.10944789999985,,,,397.11807049999993,397.1751099999999,397.1753343999999,397.2749380999999,397.19165699999985,397.19165699999985,397.19165699999985,400.1890993999998,,,,397.1280099999999,397.1280099999999,399.2896132999999,400.20529809999994,400.20529809999994,400.20529809999994,up,5.579285300000038,None,None,,,,,,,,,,,,,,,,,P113,001,2025-02-17_12h36.33.043,posner_endo_new1,2024.2.4,60.07593598310949,2025-02-17 12h36.42.324648 +0000,
cube_r.png,0.1,-0.31,invalid,14,14,0,up,3.5686394000001656,None,space,0.37814380000008896,None,,,,,0,14,14,14,,,,,400.20529809999994,,,,,,,,,,,,,400.18926079999983,400.20529809999994,400.20529809999994,400.20529809999994,403.7858008999999,,,,403.7918175,403.8514015999999,403.8518333999998,403.93485569999984,403.8678550999998,403.8678550999998,403.8678550999998,404.2521608999998,,,,403.8033158999999,403.8033158999999,,,,,up,3.5686394000001656,None,space,0.37814380000008896,None,,,,,,,,,,,,,,,P113,001,2025-02-17_12h36.33.043,posner_endo_new1,2024.2.4,60.07593598310949,2025-02-17 12h36.42.324648 +0000,
cube_l.png,0.1,-0.31,valid,15,15,0,up,6.178802899999937,None,space,0.33501750000004904,None,,,,,0,15,15,15,,,,,404.2678358999999,,,,,,,,,,,,,404.25241159999996,404.2678358999999,404.2678358999999,404.2678358999999,410.46265989999984,,,,410.47079239999994,410.5281524999998,410.52837609999983,410.62806379999984,410.54466909999996,410.54466909999996,410.54466909999996,410.89517109999997,,,,410.48091699999986,410.48091699999986,,,,,up,6.178802899999937,None,space,0.33501750000004904,None,,,,,,,,,,,,,,,P113,001,2025-02-17_12h36.33.043,posner_endo_new1,2024.2.4,60.07593598310949,2025-02-17 12h36.42.324648 +0000,
cube_r.png,0.1,10,catch,16,16,0,up,5.822357499999953,None,None,,,,,,,0,16,16,16,,,,,410.91086829999995,,,,,,,,,,,,,410.8953492999999,410.91086829999995,410.91086829999995,410.91086829999995,416.7389937999999,,,,416.7454057,416.8051691999999,416.8053923,416.8883486999998,416.8216757,416.8216757,416.8216757,419.8189774,,,,416.75702709999996,416.75702709999996,418.9028424999999,419.8352765999998,419.8352765999998,419.8352765999998,up,5.822357499999953,None,None,,,,,,,,,,,,,,,,,P113,001,2025-02-17_12h36.33.043,posner_endo_new1,2024.2.4,60.07593598310949,2025-02-17 12h36.42.324648 +0000,
cube_r.png,0.1,10,catch,17,17,0,up,2.969803200000115,None,None,,,,,,,0,17,17,17,,,,,419.8352765999998,,,,,,,,,,,,,419.81913729999997,419.8352765999998,419.8352765999998,419.8352765999998,422.8163086999998,,,,422.82269039999983,422.88218269999993,422.8824044999999,422.9652867,422.8987812999999,422.8987812999999,422.8987812999999,425.8961635999999,,,,422.83422759999985,422.83422759999985,424.9799330999999,425.91245189999995,425.91245189999995,425.91245189999995,up,2.969803200000115,None,None,,,,,,,,,,,,,,,,,P113,001,2025-02-17_12h36.33.043,posner_endo_new1,2024.2.4,60.07593598310949,2025-02-17 12h36.42.324648 +0000,
cube_l.png,0.1,0.31,invalid,18,18,0,up,3.420992900000101,None,space,0.39441549999992276,None,,,,,0,18,18,18,,,,,425.91245189999995,,,,,,,,,,,,,425.89632489999985,425.91245189999995,425.91245189999995,425.91245189999995,429.3433774,,,,429.34975959999997,429.408819,429.4090437,429.5087498999999,429.4254434999998,429.4254434999998,429.4254434999998,429.8259711999999,,,,429.3615692999999,429.3615692999999,,,,,up,3.420992900000101,None,space,0.39441549999992276,None,,,,,,,,,,,,,,,P113,001,2025-02-17_12h36.33.043,posner_endo_new1,2024.2.4,60.07593598310949,2025-02-17 12h36.42.324648 +0000,
cube_l.png,0.1,10,catch,19,19,0,up,6.355481400000144,None,None,,,,,,,0,19,19,19,,,,,429.84201499999995,,,,,,,,,,,,,429.8261476,429.84201499999995,429.84201499999995,429.84201499999995,436.20252389999996,,,,436.2089185,436.26846009999986,436.26868979999995,436.3517066999998,436.2851432,436.2851432,436.2851432,439.28238469999997,,,,436.2205435999999,436.2205435999999,438.3663191999999,439.29861359999995,439.29861359999995,439.29861359999995,up,6.355481400000144,None,None,,,,,,,,,,,,,,,,,P113,001,2025-02-17_12h36.33.043,posner_endo_new1,2024.2.4,60.07593598310949,2025-02-17 12h36.42.324648 +0000,
cube_l.png,0.1,0.31,invalid,20,20,0,up,2.5948273000001336,None,space,0.4014288000000761,None,,,,,0,20,20,20,,,,,439.29861359999995,,,,,,,,,,,,,439.2825495999998,439.29861359999995,439.29861359999995,439.29861359999995,441.8966237999998,,,,441.9030310999999,441.9626062,441.9628266999998,442.0458704,441.97932689999993,441.97932689999993,441.97932689999993,442.3962379999998,,,,441.91471879999995,441.91471879999995,,,,,up,2.5948273000001336,None,space,0.4014288000000761,None,,,,,,,,,,,,,,,P113,001,2025-02-17_12h36.33.043,posner_endo_new1,2024.2.4,60.07593598310949,2025-02-17 12h36.42.324648 +0000,
cube_l.png,0.1,-0.31,valid,21,21,0,up,6.32139159999997,None,space,0.38433539999982713,None,,,,,0,21,21,21,,,,,442.41205049999985,,,,,,,,,,,,,442.3964099,442.41205049999985,442.41205049999985,442.41205049999985,448.73958289999996,,,,448.7459958999998,448.8056859999999,448.80619579999984,448.8886921999999,448.8220790999999,448.8220790999999,448.8220790999999,449.22347549999995,,,,448.7570449,448.7570449,,,,,up,6.32139159999997,None,space,0.38433539999982713,None,,,,,,,,,,,,,,,P113,001,2025-02-17_12h36.33.043,posner_endo_new1,2024.2.4,60.07593598310949,2025-02-17 12h36.42.324648 +0000,
cube_r.png,0.1,0.31,valid,22,22,0,up,5.47939139999994,None,space,0.31532990000005157,None,,,,,0,22,22,22,,,,,449.2383344,,,,,,,,,,,,,449.22391879999986,449.2383344,449.2383344,449.2383344,454.73420569999985,,,,454.74562489999994,454.79973829999994,454.8000844999999,454.8994699,454.81620829999997,454.81620829999997,454.81620829999997,455.1339390999999,,,,454.75566189999995,454.75566189999995,,,,,up,5.47939139999994,None,space,0.31532990000005157,None,,,,,,,,,,,,,,,P113,001,2025-02-17_12h36.33.043,posner_endo_new1,2024.2.4,60.07593598310949,2025-02-17 12h36.42.324648 +0000,
cube_r.png,0.1,-0.31,invalid,23,23,0,up,6.072167799999988,None,space,0.38442190000000664,None,,,,,0,23,23,23,,,,,455.1491494999998,,,,,,,,,,,,,455.13422719999994,455.1491494999998,455.1491494999998,455.1491494999998,461.2276093999999,,,,461.23912629999995,461.2930512999999,461.29340249999996,461.39279869999996,461.30961319999983,461.30961319999983,461.30961319999983,461.71044329999995,,,,461.2493709999999,461.2493709999999,,,,,up,6.072167799999988,None,space,0.38442190000000664,None,,,,,,,,,,,,,,,P113,001,2025-02-17_12h36.33.043,posner_endo_new1,2024.2.4,60.07593598310949,2025-02-17 12h36.42.324648 +0000,
cube_r.png,0.1,0.31,valid,24,24,0,up,6.383662399999821,None,space,0.3347291000000041,None,,,,,0,24,24,24,,,,,461.7257368999999,,,,,,,,,,,,,461.71073239999987,461.7257368999999,461.7257368999999,461.7257368999999,468.1204261999999,,,,468.1305831999998,468.18600449999985,468.1862415999999,468.2855390999998,468.2025437,468.2025437,468.2025437,468.55289789999983,,,,468.14023559999987,468.14023559999987,,,,,up,6.383662399999821,None,space,0.3347291000000041,None,,,,,,,,,,,,,,,P113,001,2025-02-17_12h36.33.043,posner_endo_new1,2024.2.4,60.07593598310949,2025-02-17 12h36.42.324648 +0000,
cube_r.png,0.1,-0.31,invalid,25,25,0,up,6.644572600000174,None,space,0.39367970000012065,None,,,,,0,25,25,25,,,,,468.56875879999984,,,,,,,,,,,,,468.55308939999986,468.56875879999984,468.56875879999984,468.56875879999984,475.22926659999985,,,,475.2362088,475.29529319999983,475.2957953,475.3949641999998,475.3116921999999,475.3116921999999,475.3116921999999,475.7131999999997,,,,475.2477796999997,475.2477796999997,,,,,up,6.644572600000174,None,space,0.39367970000012065,None,,,,,,,,,,,,,,,P113,001,2025-02-17_12h36.33.043,posner_endo_new1,2024.2.4,60.07593598310949,2025-02-17 12h36.42.324648 +0000,
cube_l.png,0.1,-0.31,valid,26,26,0,up,6.254748599999857,None,space,0.35672999999997046,None,,,,,0,26,26,26,,,,,475.7279490000001,,,,,,,,,,,,,475.71362899999986,475.7279490000001,475.7279490000001,475.7279490000001,481.98962299999994,,,,482.0010806999999,482.05519090000007,482.0555334999999,482.1548471000001,482.0716830000001,482.0716830000001,482.0716830000001,482.43922269999985,,,,482.01133919999984,482.01133919999984,,,,,up,6.254748599999857,None,space,0.35672999999997046,None,,,,,,,,,,,,,,,P113,001,2025-02-17_12h36.33.043,posner_endo_new1,2024.2.4,60.07593598310949,2025-02-17 12h36.42.324648 +0000,
cube_r.png,0.1,0.31,valid,27,27,0,up,6.662643900000148,None,space,0.3186710999998468,None,,,,,0,27,27,27,,,,,482.4547302000001,,,,,,,,,,,,,482.43951530000004,482.4547302000001,482.4547302000001,482.4547302000001,489.132247,,,,489.14373609999984,489.19784089999985,489.1982014,489.29763649999995,489.2143922999999,489.2143922999999,489.2143922999999,489.5486146999997,,,,489.15406759999996,489.15406759999996,,,,,up,6.662643900000148,None,space,0.3186710999998468,None,,,,,,,,,,,,,,,P113,001,2025-02-17_12h36.33.043,posner_endo_new1,2024.2.4,60.07593598310949,2025-02-17 12h36.42.324648 +0000,
cube_r.png,0.1,10,catch,28,28,0,up,5.649737300000197,None,None,,,,,,,0,28,28,28,,,,,489.56390729999976,,,,,,,,,,,,,489.5489085999998,489.56390729999976,489.56390729999976,489.56390729999976,495.2261134999999,,,,495.2375898,495.2915788,495.29191949999995,495.39131559999987,495.3080995999999,495.3080995999999,495.3080995999999,498.30570880000005,,,,495.2478369999999,495.2478369999999,497.40597339999977,498.32171059999973,498.32171059999973,498.32171059999973,up,5.649737300000197,None,None,,,,,,,,,,,,,,,,,P113,001,2025-02-17_12h36.33.043,posner_endo_new1,2024.2.4,60.07593598310949,2025-02-17 12h36.42.324648 +0000,
cube_r.png,0.1,0.31,valid,29,29,0,up,3.7717892999999094,None,space,0.3559357999997701,None,,,,,0,29,29,29,,,,,498.32171059999973,,,,,,,,,,,,,498.3059752999998,498.32171059999973,498.32171059999973,498.32171059999973,502.1024407,,,,502.1139328999998,502.16789900000003,502.16824039999983,502.26770579999993,502.18439929999977,502.18439929999977,502.18439929999977,502.55192510000006,,,,502.12429999999995,502.12429999999995,,,,,up,3.7717892999999094,None,space,0.3559357999997701,None,,,,,,,,,,,,,,,P113,001,2025-02-17_12h36.33.043,posner_endo_new1,2024.2.4,60.07593598310949,2025-02-17 12h36.42.324648 +0000,
cube_r.png,0.1,0.31,valid,30,30,0,up,6.029858899999908,None,space,0.33788849999973536,None,,,,,0,30,30,30,,,,,502.56755399999975,,,,,,,,,,,,,502.5522120999999,502.56755399999975,502.56755399999975,502.56755399999975,508.61226069999975,,,,508.6237637999998,508.67796569999973,508.6783145999998,508.77778409999974,508.6945115999997,508.6945115999997,508.6945115999997,509.0452758000001,,,,508.63400760000013,508.63400760000013,,,,,up,6.029858899999908,None,space,0.33788849999973536,None,,,,,,,,,,,,,,,P113,001,2025-02-17_12h36.33.043,posner_endo_new1,2024.2.4,60.07593598310949,2025-02-17 12h36.42.324648 +0000,
cube_l.png,0.1,-0.31,valid,31,31,0,up,6.41731720000007,None,space,0.3961991000001035,None,,,,,0,31,31,31,,,,,509.0607765999998,,,,,,,,,,,,,509.0455772999999,509.0607765999998,509.0607765999998,509.0607765999998,515.4887586999998,,,,515.5003578999999,515.5543686999999,515.5547121,515.6542354999997,515.5706968999998,515.5706968999998,515.5706968999998,515.9717363,,,,515.5106455,515.5106455,,,,,up,6.41731720000007,None,space,0.3961991000001035,None,,,,,,,,,,,,,,,P113,001,2025-02-17_12h36.33.043,posner_endo_new1,2024.2.4,60.07593598310949,2025-02-17 12h36.42.324648 +0000,
cube_r.png,0.1,0.31,valid,32,32,0,up,5.795382700000118,None,space,0.3771515999997064,None,,,,,0,32,32,32,,,,,515.9870372,,,,,,,,,,,,,515.9720251999997,515.9870372,515.9870372,515.9870372,521.7988888999998,,,,521.8103625999997,521.8645051999997,521.8648459000001,521.9641723999998,521.8810223,521.8810223,521.8810223,522.2650088999999,,,,521.8203441,521.8203441,,,,,up,5.795382700000118,None,space,0.3771515999997064,None,,,,,,,,,,,,,,,P113,001,2025-02-17_12h36.33.043,posner_endo_new1,2024.2.4,60.07593598310949,2025-02-17 12h36.42.324648 +0000,
cube_r.png,0.1,-0.31,invalid,33,33,0,up,6.2447666000002755,None,space,0.5086516999999731,None,,,,,0,33,33,33,,,,,522.2805488999998,,,,,,,,,,,,,522.2653031,522.2805488999998,522.2805488999998,522.2805488999998,528.5420369999997,,,,528.5512484000001,528.6075860000001,528.6078337999998,528.7074057999998,528.624006,528.624006,528.624006,529.1409690999999,,,,528.5607563999997,528.5607563999997,,,,,up,6.2447666000002755,None,space,0.5086516999999731,None,,,,,,,,,,,,,,,P113,001,2025-02-17_12h36.33.043,posner_endo_new1,2024.2.4,60.07593598310949,2025-02-17 12h36.42.324648 +0000,
cube_r.png,0.1,10,catch,34,34,0,up,5.424970900000062,None,None,,,,,,,0,34,34,34,,,,,529.1568914999998,,,,,,,,,,,,,529.1411468000001,529.1568914999998,529.1568914999998,529.1568914999998,534.5855078999998,,,,534.5915018999999,534.6514715999997,534.6516945999997,534.7510769,534.6679027,534.6679027,534.6679027,537.6653317,,,,534.6031691999997,534.6031691999997,536.7657028999997,537.6815397,537.6815397,537.6815397,up,5.424970900000062,None,None,,,,,,,,,,,,,,,,,P113,001,2025-02-17_12h36.33.043,posner_endo_new1,2024.2.4,60.07593598310949,2025-02-17 12h36.42.324648 +0000,
cube_r.png,0.1,0.31,valid,35,35,0,up,3.2046072999996795,None,space,0.35851110000021436,None,,,,,0,35,35,35,,,,,537.6815397,,,,,,,,,,,,,537.6655013999998,537.6815397,537.6815397,537.6815397,540.8955188999998,,,,540.9015108999997,540.9615327000001,540.9617549999998,541.0447384999998,540.9781330000001,540.9781330000001,540.9781330000001,541.3451663000001,,,,540.9132681000001,540.9132681000001,,,,,up,3.2046072999996795,None,space,0.35851110000021436,None,,,,,,,,,,,,,,,P113,001,2025-02-17_12h36.33.043,posner_endo_new1,2024.2.4,60.07593598310949,2025-02-17 12h36.42.324648 +0000,
cube_r.png,0.1,-0.31,invalid,36,36,0,up,5.653174199999739,None,space,0.34973059999992984,None,,,,,0,36,36,36,,,,,541.361011,,,,,,,,,,,,,541.3453380000001,541.361011,541.361011,541.361011,547.0230213,,,,547.0327666999997,547.0886808,547.0889855,547.1884918000001,547.1052261,547.1052261,547.1052261,547.4561528999998,,,,547.0429071999997,547.0429071999997,,,,,up,5.653174199999739,None,space,0.34973059999992984,None,,,,,,,,,,,,,,,P113,001,2025-02-17_12h36.33.043,posner_endo_new1,2024.2.4,60.07593598310949,2025-02-17 12h36.42.324648 +0000,
cube_l.png,0.1,0.31,invalid,37,37,0,up,7.5909429000003,None,space,0.3731895999999324,None,,,,,0,37,37,37,,,,,547.4714838,,,,,,,,,,,,,547.4564044999997,547.4714838,547.4714838,547.4714838,555.0650111,,,,555.0748171999999,555.1305070999997,555.1308120999997,555.2302480999997,555.1470365999999,555.1470365999999,555.1470365999999,555.5310819000001,,,,555.0849684999998,555.0849684999998,,,,,up,7.5909429000003,None,space,0.3731895999999324,None,,,,,,,,,,,,,,,P113,001,2025-02-17_12h36.33.043,posner_endo_new1,2024.2.4,60.07593598310949,2025-02-17 12h36.42.324648 +0000,
cube_l.png,0.1,0.31,invalid,38,38,0,up,5.155388700000003,None,space,0.32661719999987326,None,,,,,0,38,38,38,,,,,555.546632,,,,,,,,,,,,,555.5313418000001,555.546632,555.546632,555.546632,560.7088217999999,,,,560.7185037999998,560.7747190999999,560.7750341999999,560.8578874,560.7912366999999,560.7912366999999,560.7912366999999,561.125391,,,,560.7286239,560.7286239,,,,,up,5.155388700000003,None,space,0.32661719999987326,None,,,,,,,,,,,,,,,P113,001,2025-02-17_12h36.33.043,posner_endo_new1,2024.2.4,60.07593598310949,2025-02-17 12h36.42.324648 +0000,
cube_r.png,0.1,0.31,valid,39,39,0,up,4.937478699999701,None,space,0.3290428000000247,None,,,,,0,39,39,39,,,,,561.1408652999999,,,,,,,,,,,,,561.1256401,561.1408652999999,561.1408652999999,561.1408652999999,566.0869887999997,,,,566.0966923000001,566.1525572999999,566.1528622999999,566.2524819999999,566.1691158999997,566.1691158999997,566.1691158999997,566.5032182,,,,566.1068455999998,566.1068455999998,,,,,up,4.937478699999701,None,space,0.3290428000000247,None,,,,,,,,,,,,,,,P113,001,2025-02-17_12h36.33.043,posner_endo_new1,2024.2.4,60.07593598310949,2025-02-17 12h36.42.324648 +0000,
cube_l.png,0.1,0.31,invalid,40,40,0,up,5.438978700000007,None,space,0.3179190999999264,None,,,,,0,40,40,40,,,,,566.5187186999997,,,,,,,,,,,,,566.5034692999998,566.5187186999997,566.5187186999997,566.5187186999997,571.9642073999999,,,,571.9738954,572.0300142000001,572.0303162999999,572.1297313,572.0464106999998,572.0464106999998,572.0464106999998,572.3802332,,,,571.9839441999998,571.9839441999998,,,,,up,5.438978700000007,None,space,0.3179190999999264,None,,,,,,,,,,,,,,,P113,001,2025-02-17_12h36.33.043,posner_endo_new1,2024.2.4,60.07593598310949,2025-02-17 12h36.42.324648 +0000,
cube_l.png,0.1,10,catch,41,41,0,up,5.409847200000058,None,None,,,,,,,0,41,41,41,,,,,572.3961653000001,,,,,,,,,,,,,572.3804861999997,572.3961653000001,572.3961653000001,572.3961653000001,577.8084620999998,,,,577.8181614999999,577.8739381,577.8742404999998,577.973653,577.8904689000001,577.8904689000001,577.8904689000001,580.8880184,,,,577.8282607000001,577.8282607000001,579.9883712000001,580.9039437000001,580.9039437000001,580.9039437000001,up,5.409847200000058,None,None,,,,,,,,,,,,,,,,,P113,001,2025-02-17_12h36.33.043,posner_endo_new1,2024.2.4,60.07593598310949,2025-02-17 12h36.42.324648 +0000,
cube_l.png,0.1,-0.31,valid,42,42,0,up,4.118080100000043,None,space,0.38440639999998893,None,,,,,0,42,42,42,,,,,580.9039437000001,,,,,,,,,,,,,580.8882506999998,580.9039437000001,580.9039437000001,580.9039437000001,585.0341180999999,,,,585.0438573000001,585.0999266999997,585.1002312999999,585.1995853999997,585.1164272000001,585.1164272000001,585.1164272000001,585.5170235,,,,585.0540014999997,585.0540014999997,,,,,up,4.118080100000043,None,space,0.38440639999998893,None,,,,,,,,,,,,,,,P113,001,2025-02-17_12h36.33.043,posner_endo_new1,2024.2.4,60.07593598310949,2025-02-17 12h36.42.324648 +0000,
cube_l.png,0.1,10,catch,43,43,0,up,6.384980700000142,None,None,,,,,,,0,43,43,43,,,,,585.5326230999999,,,,,,,,,,,,,585.5172792999997,585.5326230999999,585.5326230999999,585.5326230999999,591.9272422999998,,,,591.9370319999998,591.9928912999999,591.9931985999997,592.0925732999999,592.0092912,592.0092912,592.0092912,595.0069278999999,,,,591.9472006000001,591.9472006000001,594.1073237,595.0230464000001,595.0230464000001,595.0230464000001,up,6.384980700000142,None,None,,,,,,,,,,,,,,,,,P113,001,2025-02-17_12h36.33.043,posner_endo_new1,2024.2.4,60.07593598310949,2025-02-17 12h36.42.324648 +0000,
cube_l.png,0.1,0.31,invalid,44,44,0,up,4.271180700000059,None,space,0.4352026999999907,None,,,,,0,44,44,44,,,,,595.0230464000001,,,,,,,,,,,,,595.0071634000001,595.0230464000001,595.0230464000001,595.0230464000001,599.3029269999997,,,,599.3126063999998,599.3686908999998,599.368993,599.4684963,599.3850816999998,599.3850816999998,599.3850816999998,599.8358075000001,,,,599.3228568999998,599.3228568999998,,,,,up,4.271180700000059,None,space,0.4352026999999907,None,,,,,,,,,,,,,,,P113,001,2025-02-17_12h36.33.043,posner_endo_new1,2024.2.4,60.07593598310949,2025-02-17 12h36.42.324648 +0000,
cube_l.png,0.1,0.31,invalid,45,45,0,up,6.41852659999995,None,space,0.3331564999998591,None,,,,,0,45,45,45,,,,,599.8513098999997,,,,,,,,,,,,,599.8360564,599.8513098999997,599.8513098999997,599.8513098999997,606.2791493,,,,606.2888855000001,606.3448825999999,606.3451872,606.4446236999997,606.3615231999997,606.3615231999997,606.3615231999997,606.6957874,,,,606.2990526999997,606.2990526999997,,,,,up,6.41852659999995,None,space,0.3331564999998591,None,,,,,,,,,,,,,,,P113,001,2025-02-17_12h36.33.043,posner_endo_new1,2024.2.4,60.07593598310949,2025-02-17 12h36.42.324648 +0000,
cube_r.png,0.1,0.31,valid,46,46,0,up,6.118691799999851,None,space,0.3991771000000881,None,,,,,0,46,46,46,,,,,606.7110269999998,,,,,,,,,,,,,606.6960352000001,606.7110269999998,606.7110269999998,606.7110269999998,612.8391289000001,,,,612.8488742999998,612.9048579999999,612.9051605,613.0046030999997,612.9213770000001,612.9213770000001,612.9213770000001,613.3222575,,,,612.8591289000001,612.8591289000001,,,,,up,6.118691799999851,None,space,0.3991771000000881,None,,,,,,,,,,,,,,,P113,001,2025-02-17_12h36.33.043,posner_endo_new1,2024.2.4,60.07593598310949,2025-02-17 12h36.42.324648 +0000,
cube_l.png,0.1,-0.31,valid,47,47,0,up,11.964869800000088,None,space,0.36943239999982325,None,,,,,0,47,47,47,,,,,613.3375987,,,,,,,,,,,,,613.3225109999998,613.3375987,613.3375987,613.3375987,625.3096599,,,,625.3194266999999,625.3753541000001,625.3756687999999,625.4751280999999,625.3919080999999,625.3919080999999,625.3919080999999,625.7759139999998,,,,625.3295886999999,625.3295886999999,,,,,up,11.964869800000088,None,space,0.36943239999982325,None,,,,,,,,,,,,,,,P113,001,2025-02-17_12h36.33.043,posner_endo_new1,2024.2.4,60.07593598310949,2025-02-17 12h36.42.324648 +0000,
cube_r.png,0.1,-0.31,invalid,48,48,0,up,6.134451400000216,None,space,0.3324711999998726,None,,,,,0,48,48,48,,,,,625.7916325000001,,,,,,,,,,,,,625.7761608999999,625.7916325000001,625.7916325000001,625.7916325000001,631.9362004999998,,,,631.9459112,632.0020531999999,632.0023649999998,632.1017375000001,632.0184933,632.0184933,632.0184933,632.3526297999997,,,,631.9560818999998,631.9560818999998,,,,,up,6.134451400000216,None,space,0.3324711999998726,None,,,,,,,,,,,,,,,P113,001,2025-02-17_12h36.33.043,posner_endo_new1,2024.2.4,60.07593598310949,2025-02-17 12h36.42.324648 +0000,
cube_r.png,0.1,10,catch,49,49,0,up,5.7820520000000215,None,None,,,,,,,0,49,49,49,,,,,632.3679867999999,,,,,,,,,,,,,632.3528778999998,632.3679867999999,632.3679867999999,632.3679867999999,638.1633105999999,,,,638.1713569999997,638.2288610999999,638.2290862999998,638.3287927000001,638.2454749999997,638.2454749999997,638.2454749999997,641.2428993999997,,,,638.1816841,638.1816841,640.3436477999999,641.2590126,641.2590126,641.2590126,up,5.7820520000000215,None,None,,,,,,,,,,,,,,,,,P113,001,2025-02-17_12h36.33.043,posner_endo_new1,2024.2.4,60.07593598310949,2025-02-17 12h36.42.324648 +0000,
cube_l.png,0.1,-0.31,valid,50,50,0,up,3.6193570000000364,None,space,0.3323190999999497,None,,,,,0,50,50,50,,,,,641.2590126,,,,,,,,,,,,,641.2430607000001,641.2590126,641.2590126,641.2590126,644.8892216999998,,,,644.8956208,644.9553768000001,644.9556024999997,645.0384564999999,644.9719379999997,644.9719379999997,644.9719379999997,645.3058704,,,,644.9074249999999,644.9074249999999,,,,,up,3.6193570000000364,None,space,0.3323190999999497,None,,,,,,,,,,,,,,,P113,001,2025-02-17_12h36.33.043,posner_endo_new1,2024.2.4,60.07593598310949,2025-02-17 12h36.42.324648 +0000,
cube_l.png,0.1,-0.31,valid,51,51,0,up,5.940999400000237,None,space,0.3671041000002333,None,,,,,0,51,51,51,,,,,645.3214245999998,,,,,,,,,,,,,645.3060402000001,645.3214245999998,645.3214245999998,645.3214245999998,651.2661373000001,,,,651.2721023999998,651.3321659999997,651.3323906999999,651.4154251999998,651.3483455,651.3483455,651.3483455,651.7323108,,,,651.2836804999997,651.2836804999997,,,,,up,5.940999400000237,None,space,0.3671041000002333,None,,,,,,,,,,,,,,,P113,001,2025-02-17_12h36.33.043,posner_endo_new1,2024.2.4,60.07593598310949,2025-02-17 12h36.42.324648 +0000,
cube_r.png,0.1,-0.31,invalid,52,52,0,up,6.913883199999873,None,space,0.3569214999997712,None,,,,,0,52,52,52,,,,,651.7481269999998,,,,,,,,,,,,,651.7324819999999,651.7481269999998,651.7481269999998,651.7481269999998,658.6751125000001,,,,658.681145,658.7413803,658.7416042999998,658.8244587999998,658.7576694999998,658.7576694999998,658.7576694999998,659.1248799,,,,658.6926623999998,658.6926623999998,,,,,up,6.913883199999873,None,space,0.3569214999997712,None,,,,,,,,,,,,,,,P113,001,2025-02-17_12h36.33.043,posner_endo_new1,2024.2.4,60.07593598310949,2025-02-17 12h36.42.324648 +0000,
cube_l.png,0.1,-0.31,valid,53,53,0,up,6.1784490999998525,None,space,0.3461793999999827,None,,,,,0,53,53,53,,,,,659.1407282,,,,,,,,,,,,,659.1250483999997,659.1407282,659.1407282,659.1407282,665.3352314999997,,,,665.3414244999999,665.4010777999997,665.4012982999998,665.5008238999999,665.4176432999998,665.4176432999998,665.4176432999998,665.7682998999999,,,,665.3530364999997,665.3530364999997,,,,,up,6.1784490999998525,None,space,0.3461793999999827,None,,,,,,,,,,,,,,,P113,001,2025-02-17_12h36.33.043,posner_endo_new1,2024.2.4,60.07593598310949,2025-02-17 12h36.42.324648 +0000,
cube_r.png,0.1,10,catch,54,54,0,up,6.278574299999946,None,None,,,,,,,0,54,54,54,,,,,665.7839402999998,,,,,,,,,,,,,665.7684673999997,665.7839402999998,665.7839402999998,665.7839402999998,672.0782654,,,,672.0842297999998,672.144292,672.1445180999999,672.2274177999998,672.160852,672.160852,672.160852,675.1583532,,,,672.0959192,672.0959192,674.2419695999997,675.1743192999998,675.1743192999998,675.1743192999998,up,6.278574299999946,None,None,,,,,,,,,,,,,,,,,P113,001,2025-02-17_12h36.33.043,posner_endo_new1,2024.2.4,60.07593598310949,2025-02-17 12h36.42.324648 +0000,
cube_l.png,0.1,0.31,invalid,55,55,0,up,3.575532899999871,None,space,0.3462829000000056,None,,,,,0,55,55,55,,,,,675.1743192999998,,,,,,,,,,,,,675.1585918999999,675.1743192999998,675.1743192999998,675.1743192999998,678.7553795999997,,,,678.7653409999998,678.8208268999997,678.8211394999998,678.9206833999997,678.8373059999999,678.8373059999999,678.8373059999999,679.1881986999997,,,,678.7755050999999,678.7755050999999,,,,,up,3.575532899999871,None,space,0.3462829000000056,None,,,,,,,,,,,,,,,P113,001,2025-02-17_12h36.33.043,posner_endo_new1,2024.2.4,60.07593598310949,2025-02-17 12h36.42.324648 +0000,
cube_l.png,0.1,-0.31,valid,56,56,0,up,6.434478099999978,None,space,0.40265080000017406,None,,,,,0,56,56,56,,,,,679.2035818999998,,,,,,,,,,,,,679.188443,679.2035818999998,679.2035818999998,679.2035818999998,685.6480750000001,,,,685.6578359,685.7137582,685.7140673999997,685.8135560999999,685.7303699999998,685.7303699999998,685.7303699999998,686.1476099000001,,,,685.6680404999997,685.6680404999997,,,,,up,6.434478099999978,None,space,0.40265080000017406,None,,,,,,,,,,,,,,,P113,001,2025-02-17_12h36.33.043,posner_endo_new1,2024.2.4,60.07593598310949,2025-02-17 12h36.42.324648 +0000,
cube_r.png,0.1,0.31,valid,57,57,0,up,6.2268027000000075,None,space,0.39642579999963345,None,,,,,0,57,57,57,,,,,686.1632568999999,,,,,,,,,,,,,686.1478570999998,686.1632568999999,686.1632568999999,686.1632568999999,692.3913591999999,,,,692.4010723000001,692.4568586,692.4571685999999,692.5566650000001,692.4734494999998,692.4734494999998,692.4734494999998,692.8740014,,,,692.4112783999999,692.4112783999999,,,,,up,6.2268027000000075,None,space,0.39642579999963345,None,,,,,,,,,,,,,,,P113,001,2025-02-17_12h36.33.043,posner_endo_new1,2024.2.4,60.07593598310949,2025-02-17 12h36.42.324648 +0000,
cube_r.png,0.1,-0.31,invalid,58,58,0,up,5.980125399999906,None,space,0.35663260000001173,None,,,,,0,58,58,58,,,,,692.8895674,,,,,,,,,,,,,692.8742487,692.8895674,692.8895674,692.8895674,698.8846358000001,,,,698.8943939000001,698.9502944000001,698.9506038,699.0499992999999,698.9668388,698.9668388,698.9668388,699.3342724999998,,,,698.9045765999999,698.9045765999999,,,,,up,5.980125399999906,None,space,0.35663260000001173,None,,,,,,,,,,,,,,,P113,001,2025-02-17_12h36.33.043,posner_endo_new1,2024.2.4,60.07593598310949,2025-02-17 12h36.42.324648 +0000,
cube_l.png,0.1,0.31,invalid,59,59,0,up,7.280650300000161,None,space,0.3174341999997523,None,,,,,0,59,59,59,,,,,699.3495638999998,,,,,,,,,,,,,699.3345282,699.3495638999998,699.3495638999998,699.3495638999998,706.6432746999999,,,,706.6529842999998,706.7090109999999,706.7093221,706.8087929999997,706.7255986,706.7255986,706.7255986,707.0595991,,,,706.6631358,706.6631358,,,,,up,7.280650300000161,None,space,0.3174341999997523,None,,,,,,,,,,,,,,,P113,001,2025-02-17_12h36.33.043,posner_endo_new1,2024.2.4,60.07593598310949,2025-02-17 12h36.42.324648 +0000,
,,,,,,,,,,,,,,,,,,,,,,,,,,,,,,,,,,,,,,,,,,,,,,,,,,,,,,,,,,,,,,,,,,,,,707.0597573,707.0750687999998,707.0750687999998,767.0803943999999,795.7190188,space,88.64271730000019,None,,,,,,,P113,001,2025-02-17_12h36.33.043,posner_endo_new1,2024.2.4,60.07593598310949,2025-02-17 12h36.42.324648 +0000,
,,,,,,,,,,,,,,,,,,,,,,,,,,,,,,,,,,795.7190947999998,795.7344564999999,798.7408310999999,798.7154983999999,,,,,,,,,,,,,,,,,,,,,,,,,,,,,,,,,,,,,,,,,,,,,,P113,001,2025-02-17_12h36.33.043,posner_endo_new1,2024.2.4,60.07593598310949,2025-02-17 12h36.42.324648 +0000,
cube_l.png,0.1,10,catch,0,0,0,down,28.20942580000019,None,None,,,,,,,,,,,0,0,0,0,798.7408310999999,,,,,,,,,,,,,798.7320918,798.7408310999999,798.7408310999999,798.7408310999999,826.9553302999998,,,,826.9788877999999,827.0189906999999,827.0193458999997,827.1192117999999,827.0354222999999,827.0354222999999,827.0354222999999,830.0333163999999,,,,826.9911167999999,826.9911167999999,829.1333540999999,830.0490844999999,830.0490844999999,830.0490844999999,,,,,,,,,,,,,,,down,28.20942580000019,None,None,,,P113,001,2025-02-17_12h36.33.043,posner_endo_new1,2024.2.4,60.07593598310949,2025-02-17 12h36.42.324648 +0000,
cube_l.png,0.1,10,catch,1,1,0,down,5.693223300000227,None,None,,,,,,,,,,,0,1,1,1,830.0490844999999,,,,,,,,,,,,,830.0336695999999,830.0490844999999,830.0490844999999,830.0490844999999,835.7447674,,,,835.7544754999999,835.8103659999997,835.8106723999999,835.9101956999998,835.826967,835.826967,835.826967,838.8245426999997,,,,835.7646334000001,835.7646334000001,837.9247083999999,838.8404667,838.8404667,838.8404667,,,,,,,,,,,,,,,down,5.693223300000227,None,None,,,P113,001,2025-02-17_12h36.33.043,posner_endo_new1,2024.2.4,60.07593598310949,2025-02-17 12h36.42.324648 +0000,
cube_l.png,0.1,0.31,invalid,2,2,0,down,4.878233799999634,None,space,0.37208160000000134,None,,,,,,,,,0,2,2,2,838.8404667,,,,,,,,,,,,,838.8247778,838.8404667,838.8404667,838.8404667,843.7200054999998,,,,843.7293405999999,843.7855092,843.7857349999999,843.8853300000001,843.8021113,843.8021113,843.8021113,844.1858367999998,,,,843.7389945999998,843.7389945999998,,,,,,,,,,,,,,,,,,,down,4.878233799999634,None,space,0.37208160000000134,None,P113,001,2025-02-17_12h36.33.043,posner_endo_new1,2024.2.4,60.07593598310949,2025-02-17 12h36.42.324648 +0000,
cube_l.png,0.1,0.31,invalid,3,3,0,down,7.060824700000012,None,space,0.40931829999999536,None,,,,,,,,,0,3,3,3,844.2016117999997,,,,,,,,,,,,,844.1860094999997,844.2016117999997,844.2016117999997,844.2016117999997,851.2784031000001,,,,851.2847880999998,851.3447953999998,851.3450205999998,851.4275809999999,851.3610315000001,851.3610315000001,851.3610315000001,851.7780825,,,,851.2963904999997,851.2963904999997,,,,,,,,,,,,,,,,,,,down,7.060824700000012,None,space,0.40931829999999536,None,P113,001,2025-02-17_12h36.33.043,posner_endo_new1,2024.2.4,60.07593598310949,2025-02-17 12h36.42.324648 +0000,
cube_l.png,0.1,-0.31,valid,4,4,0,down,6.084569000000101,None,space,0.35637640000004467,None,,,,,,,,,0,4,4,4,851.7939895999998,,,,,,,,,,,,,851.7782551999999,851.7939895999998,851.7939895999998,851.7939895999998,857.8883357999998,,,,857.8947275,857.9543371999998,857.9545641,858.0374394,857.9709948999998,857.9709948999998,857.9709948999998,858.3378942999998,,,,857.9063544,857.9063544,,,,,,,,,,,,,,,,,,,down,6.084569000000101,None,space,0.35637640000004467,None,P113,001,2025-02-17_12h36.33.043,posner_endo_new1,2024.2.4,60.07593598310949,2025-02-17 12h36.42.324648 +0000,
cube_r.png,0.1,-0.31,invalid,5,5,0,down,7.388213800000358,None,space,0.36995680000018183,None,,,,,,,,,0,5,5,5,858.3539006000001,,,,,,,,,,,,,858.3380695999999,858.3539006000001,858.3539006000001,858.3539006000001,865.7471210999997,,,,865.7532387000001,865.8130901,865.8133144999997,865.8961845999997,865.8295430999997,865.8295430999997,865.8295430999997,866.2135045999999,,,,865.7649455999999,865.7649455999999,,,,,,,,,,,,,,,,,,,down,7.388213800000358,None,space,0.36995680000018183,None,P113,001,2025-02-17_12h36.33.043,posner_endo_new1,2024.2.4,60.07593598310949,2025-02-17 12h36.42.324648 +0000,
cube_r.png,0.1,0.31,valid,6,6,0,down,8.128977500000019,None,space,0.3683376999997563,None,,,,,,,,,0,6,6,6,866.2292201999999,,,,,,,,,,,,,866.2136809999997,866.2292201999999,866.2292201999999,866.2292201999999,874.3715520000001,,,,874.3775359000001,874.4375248000001,874.4377555000001,874.5207,874.4541334,874.4541334,874.4541334,874.8377952999999,,,,874.3892418999999,874.3892418999999,,,,,,,,,,,,,,,,,,,down,8.128977500000019,None,space,0.3683376999997563,None,P113,001,2025-02-17_12h36.33.043,posner_endo_new1,2024.2.4,60.07593598310949,2025-02-17 12h36.42.324648 +0000,
cube_r.png,0.1,-0.31,invalid,7,7,0,down,7.984500799999751,None,space,0.357394000000113,None,,,,,,,,,0,7,7,7,874.853603,,,,,,,,,,,,,874.8379697999999,874.853603,874.853603,874.853603,882.8464381999997,,,,882.8524075999999,882.9122646000001,882.9124882000001,882.9954603000001,882.9288176,882.9288176,882.9288176,883.2958774999997,,,,882.8641414999997,882.8641414999997,,,,,,,,,,,,,,,,,,,down,7.984500799999751,None,space,0.357394000000113,None,P113,001,2025-02-17_12h36.33.043,posner_endo_new1,2024.2.4,60.07593598310949,2025-02-17 12h36.42.324648 +0000,
cube_l.png,0.1,-0.31,valid,8,8,0,down,9.918349500000204,None,space,0.30007100000011633,None,,,,,,,,,0,8,8,8,883.311764,,,,,,,,,,,,,883.2960518999998,883.311764,883.311764,883.311764,893.2356446999997,,,,893.2417459999997,893.3017227999999,893.3019506999999,893.3845723,893.3182090999999,893.3182090999999,893.3182090999999,893.6190032999998,,,,893.2531160999997,893.2531160999997,,,,,,,,,,,,,,,,,,,down,9.918349500000204,None,space,0.30007100000011633,None,P113,001,2025-02-17_12h36.33.043,posner_endo_new1,2024.2.4,60.07593598310949,2025-02-17 12h36.42.324648 +0000,
cube_r.png,0.1,-0.31,invalid,9,9,0,down,9.196287700000084,None,space,0.32747840000001815,None,,,,,,,,,0,9,9,9,893.6345176,,,,,,,,,,,,,893.6191749,893.6345176,893.6345176,893.6345176,902.8432687,,,,902.8532500000001,902.9085316999999,902.9088413,903.0082815999999,902.9251568999998,902.9251568999998,902.9251568999998,903.2590500000001,,,,902.8632896999998,902.8632896999998,,,,,,,,,,,,,,,,,,,down,9.196287700000084,None,space,0.32747840000001815,None,P113,001,2025-02-17_12h36.33.043,posner_endo_new1,2024.2.4,60.07593598310949,2025-02-17 12h36.42.324648 +0000,
cube_l.png,0.1,0.31,invalid,10,10,0,down,7.691374300000007,None,space,0.41379109999979846,None,,,,,,,,,0,10,10,10,903.2746732,,,,,,,,,,,,,903.2593036999997,903.2746732,903.2746732,903.2746732,910.9680104999998,,,,910.9777353999998,911.0336294999997,911.0339331999999,911.133417,911.0501177000001,911.0501177000001,911.0501177000001,911.4674937999998,,,,910.9878564999999,910.9878564999999,,,,,,,,,,,,,,,,,,,down,7.691374300000007,None,space,0.41379109999979846,None,P113,001,2025-02-17_12h36.33.043,posner_endo_new1,2024.2.4,60.07593598310949,2025-02-17 12h36.42.324648 +0000,
cube_r.png,0.1,-0.31,invalid,11,11,0,down,7.267814899999848,None,space,0.5811993999996048,None,,,,,,,,,0,11,11,11,911.4829406999997,,,,,,,,,,,,,911.4677443,911.4829406999997,911.4829406999997,911.4829406999997,918.7598902,,,,918.7697233999997,918.8257893999998,918.826094,918.9253881999998,918.8424448000001,918.8424448000001,918.8424448000001,919.4260243999997,,,,918.7799912,918.7799912,,,,,,,,,,,,,,,,,,,down,7.267814899999848,None,space,0.5811993999996048,None,P113,001,2025-02-17_12h36.33.043,posner_endo_new1,2024.2.4,60.07593598310949,2025-02-17 12h36.42.324648 +0000,
cube_r.png,0.1,0.31,valid,12,12,0,down,7.381175699999858,None,space,0.3284361999999419,None,,,,,,,,,0,12,12,12,919.4415282,,,,,,,,,,,,,919.4262813,919.4415282,919.4415282,919.4415282,926.8350884000001,,,,926.8448771999997,926.9007505,926.9010683000001,927.0005516000001,926.9171701,926.9171701,926.9171701,927.2513567999999,,,,926.8549822,926.8549822,,,,,,,,,,,,,,,,,,,down,7.381175699999858,None,space,0.3284361999999419,None,P113,001,2025-02-17_12h36.33.043,posner_endo_new1,2024.2.4,60.07593598310949,2025-02-17 12h36.42.324648 +0000,
cube_l.png,0.1,10,catch,13,13,0,down,9.116181100000176,None,None,,,,,,,,,,,0,13,13,13,927.2668709,,,,,,,,,,,,,927.2516129999999,927.2668709,927.2668709,927.2668709,936.3919332999999,,,,936.4017049999998,936.4575872,936.4578917999997,936.5574152999998,936.4740741,936.4740741,936.4740741,939.4716679999997,,,,936.4119547999999,936.4119547999999,938.5720434,939.4876927,939.4876927,939.4876927,,,,,,,,,,,,,,,down,9.116181100000176,None,None,,,P113,001,2025-02-17_12h36.33.043,posner_endo_new1,2024.2.4,60.07593598310949,2025-02-17 12h36.42.324648 +0000,
cube_r.png,0.1,-0.31,invalid,14,14,0,down,6.190756599999986,None,space,0.4034601999996994,None,,,,,,,,,0,14,14,14,939.4876927,,,,,,,,,,,,,939.4719105999998,939.4876927,939.4876927,939.4876927,945.6823552999999,,,,945.692012,945.7480968999998,945.7484079000001,945.8477491999997,945.7647280000001,945.7647280000001,945.7647280000001,946.1820306999998,,,,945.7022625,945.7022625,,,,,,,,,,,,,,,,,,,down,6.190756599999986,None,space,0.4034601999996994,None,P113,001,2025-02-17_12h36.33.043,posner_endo_new1,2024.2.4,60.07593598310949,2025-02-17 12h36.42.324648 +0000,
cube_l.png,0.1,-0.31,valid,15,15,0,down,8.002110399999765,None,space,0.34023060000026817,None,,,,,,,,,0,15,15,15,946.1975094999998,,,,,,,,,,,,,946.1822855999999,946.1975094999998,946.1975094999998,946.1975094999998,954.2069846999998,,,,954.2166990000001,954.2727145999997,954.2730195999998,954.3724962000001,954.2891707999997,954.2891707999997,954.2891707999997,954.6398753999997,,,,954.2268593999997,954.2268593999997,,,,,,,,,,,,,,,,,,,down,8.002110399999765,None,space,0.34023060000026817,None,P113,001,2025-02-17_12h36.33.043,posner_endo_new1,2024.2.4,60.07593598310949,2025-02-17 12h36.42.324648 +0000,
cube_r.png,0.1,10,catch,16,16,0,down,6.735492199999953,None,space,0.3878380000001016,None,,,,,,,,,0,16,16,16,954.6554713999999,,,,,,,,,,,,,954.640136,954.6554713999999,954.6554713999999,954.6554713999999,961.3998167,,,,961.40951,961.4653834999999,961.4656869999999,961.5652129999999,961.4818437999998,961.4818437999998,961.4818437999998,961.8825042999997,,,,961.419578,961.419578,,,,,,,,,,,,,,,,,,,down,6.735492199999953,None,space,0.3878380000001016,None,P113,001,2025-02-17_12h36.33.043,posner_endo_new1,2024.2.4,60.07593598310949,2025-02-17 12h36.42.324648 +0000,
cube_r.png,0.1,10,catch,17,17,0,down,7.3569203000001835,None,space,0.3603954000000158,None,,,,,,,,,0,17,17,17,961.8981576000001,,,,,,,,,,,,,961.8827599000001,961.8981576000001,961.8981576000001,961.8981576000001,969.2581888999998,,,,969.2679183999999,969.3239322999998,969.3242467,969.4237942,969.3404691999999,969.3404691999999,969.3404691999999,969.7076361999998,,,,969.2781210999997,969.2781210999997,,,,,,,,,,,,,,,,,,,down,7.3569203000001835,None,space,0.3603954000000158,None,P113,001,2025-02-17_12h36.33.043,posner_endo_new1,2024.2.4,60.07593598310949,2025-02-17 12h36.42.324648 +0000,
cube_l.png,0.1,0.31,invalid,18,18,0,down,8.699290199999723,None,space,0.3752945000001091,None,,,,,,,,,0,18,18,18,969.7235064000001,,,,,,,,,,,,,969.7079002999999,969.7235064000001,969.7235064000001,969.7235064000001,978.4322803,,,,978.4419580999997,978.4979067999998,978.4982218999999,978.5977306,978.5144803999997,978.5144803999997,978.5144803999997,978.8986426000001,,,,978.4521092999998,978.4521092999998,,,,,,,,,,,,,,,,,,,down,8.699290199999723,None,space,0.3752945000001091,None,P113,001,2025-02-17_12h36.33.043,posner_endo_new1,2024.2.4,60.07593598310949,2025-02-17 12h36.42.324648 +0000,
cube_l.png,0.1,10,catch,19,19,0,down,7.748834399999851,None,space,0.37762849999990067,None,,,,,,,,,0,19,19,19,978.9140889999999,,,,,,,,,,,,,978.8988967999999,978.9140889999999,978.9140889999999,978.9140889999999,986.6739953000001,,,,986.6837523999998,986.7395622999998,986.7398715999998,986.8393237,986.7561077999999,986.7561077999999,986.7561077999999,987.1400751000001,,,,986.6939075999999,986.6939075999999,,,,,,,,,,,,,,,,,,,down,7.748834399999851,None,space,0.37762849999990067,None,P113,001,2025-02-17_12h36.33.043,posner_endo_new1,2024.2.4,60.07593598310949,2025-02-17 12h36.42.324648 +0000,
cube_l.png,0.1,0.31,invalid,20,20,0,down,7.5634155000002465,None,space,0.4035263999999188,None,,,,,,,,,0,20,20,20,987.155675,,,,,,,,,,,,,987.1403313999999,987.155675,987.155675,987.155675,994.7323314999999,,,,994.7420809999999,994.7980229,994.7983334,994.8977913999997,994.8145067999999,994.8145067999999,994.8145067999999,995.2318181,,,,994.7523311999998,994.7523311999998,,,,,,,,,,,,,,,,,,,down,7.5634155000002465,None,space,0.4035263999999188,None,P113,001,2025-02-17_12h36.33.043,posner_endo_new1,2024.2.4,60.07593598310949,2025-02-17 12h36.42.324648 +0000,
cube_l.png,0.1,-0.31,valid,21,21,0,down,8.751873400000022,None,space,0.46976660000018455,None,,,,,,,,,0,21,21,21,995.2473433,,,,,,,,,,,,,995.2320731999998,995.2473433,995.2473433,995.2473433,1004.0060892000001,,,,1004.0158026999998,1004.0718686,1004.0721754000001,1004.1716459999998,1004.0882369999999,1004.0882369999999,1004.0882369999999,1004.572169,,,,1004.0264374999997,1004.0264374999997,,,,,,,,,,,,,,,,,,,down,8.751873400000022,None,space,0.46976660000018455,None,P113,001,2025-02-17_12h36.33.043,posner_endo_new1,2024.2.4,60.07593598310949,2025-02-17 12h36.42.324648 +0000,
cube_r.png,0.1,0.31,valid,22,22,0,down,14.2187985999999,None,space,0.35140039999987494,None,,,,,,,,,0,22,22,22,1004.5877866000001,,,,,,,,,,,,,1004.5724218,1004.5877866000001,1004.5877866000001,1004.5877866000001,1018.8078735999998,,,,1018.817595,1018.8734341999998,1018.8737363,1018.9732266000001,1018.8898743,1018.8898743,1018.8898743,1019.2572378,,,,1018.8277754000001,1018.8277754000001,,,,,,,,,,,,,,,,,,,down,14.2187985999999,None,space,0.35140039999987494,None,P113,001,2025-02-17_12h36.33.043,posner_endo_new1,2024.2.4,60.07593598310949,2025-02-17 12h36.42.324648 +0000,
cube_r.png,0.1,-0.31,invalid,23,23,0,down,7.09349979999979,None,space,0.338785899999948,None,,,,,,,,,0,23,23,23,1019.2728686,,,,,,,,,,,,,1019.2574977999998,1019.2728686,1019.2728686,1019.2728686,1026.3831790999998,,,,1026.392984,1026.4489884999998,1026.4492993999997,1026.5487002999998,1026.4656716999998,1026.4656716999998,1026.4656716999998,1026.8162718999997,,,,1026.4027529,1026.4027529,,,,,,,,,,,,,,,,,,,down,7.09349979999979,None,space,0.338785899999948,None,P113,001,2025-02-17_12h36.33.043,posner_endo_new1,2024.2.4,60.07593598310949,2025-02-17 12h36.42.324648 +0000,
cube_r.png,0.1,0.31,valid,24,24,0,down,7.631006300000081,None,space,0.3474111999998968,None,,,,,,,,,0,24,24,24,1026.8318186000001,,,,,,,,,,,,,1026.8165381,1026.8318186000001,1026.8318186000001,1026.8318186000001,1034.4749063,,,,1034.4845897,1034.5406991999998,1034.5410151,1034.6405356999999,1034.5572182,1034.5572182,1034.5572182,1034.9081106999997,,,,1034.4947773,1034.4947773,,,,,,,,,,,,,,,,,,,down,7.631006300000081,None,space,0.3474111999998968,None,P113,001,2025-02-17_12h36.33.043,posner_endo_new1,2024.2.4,60.07593598310949,2025-02-17 12h36.42.324648 +0000,
cube_r.png,0.1,-0.31,invalid,25,25,0,down,7.563767999999982,None,space,0.4916542999999365,None,,,,,,,,,0,25,25,25,1034.9235679999997,,,,,,,,,,,,,1034.9083806999997,1034.9235679999997,1034.9235679999997,1034.9235679999997,1042.5001720999999,,,,1042.5099255,1042.5658521999999,1042.5661553999998,1042.665629,1042.5823329,1042.5823329,1042.5823329,1043.0830096999998,,,,1042.5200384999998,1042.5200384999998,,,,,,,,,,,,,,,,,,,down,7.563767999999982,None,space,0.4916542999999365,None,P113,001,2025-02-17_12h36.33.043,posner_endo_new1,2024.2.4,60.07593598310949,2025-02-17 12h36.42.324648 +0000,
cube_l.png,0.1,-0.31,valid,26,26,0,down,8.227995400000054,None,space,0.3369166000002224,None,,,,,,,,,0,26,26,26,1043.0984383999998,,,,,,,,,,,,,1043.0832612999998,1043.0984383999998,1043.0984383999998,1043.0984383999998,1051.3412611999997,,,,1051.3509196,1051.4068677,1051.4071758,1051.5067239999998,1051.4233544999997,1051.4233544999997,1051.4233544999997,1051.7740412999997,,,,1051.3610924,1051.3610924,,,,,,,,,,,,,,,,,,,down,8.227995400000054,None,space,0.3369166000002224,None,P113,001,2025-02-17_12h36.33.043,posner_endo_new1,2024.2.4,60.07593598310949,2025-02-17 12h36.42.324648 +0000,
cube_r.png,0.1,0.31,valid,27,27,0,down,8.593394999999873,None,space,0.3480968999997458,None,,,,,,,,,0,27,27,27,1051.7896163999999,,,,,,,,,,,,,1051.7743015,1051.7896163999999,1051.7896163999999,1051.7896163999999,1060.3985733999998,,,,1060.4086607999998,1060.4641805,1060.4644853,1060.5639477,1060.4807744,1060.4807744,1060.4807744,1060.8316643999997,,,,1060.4189192,1060.4189192,,,,,,,,,,,,,,,,,,,down,8.593394999999873,None,space,0.3480968999997458,None,P113,001,2025-02-17_12h36.33.043,posner_endo_new1,2024.2.4,60.07593598310949,2025-02-17 12h36.42.324648 +0000,
cube_r.png,0.1,10,catch,28,28,0,down,6.871371400000044,None,None,,,,,,,,,,,0,28,28,28,1060.847021,,,,,,,,,,,,,1060.8319217999997,1060.847021,1060.847021,1060.847021,1067.7243475,,,,1067.7340033,1067.7901004,1067.7904086999997,1067.8898765,1067.8066668000001,1067.8066668000001,1067.8066668000001,1070.8040667999999,,,,1067.7441571,1067.7441571,1069.9044304,1070.8201525,1070.8201525,1070.8201525,,,,,,,,,,,,,,,down,6.871371400000044,None,None,,,P113,001,2025-02-17_12h36.33.043,posner_endo_new1,2024.2.4,60.07593598310949,2025-02-17 12h36.42.324648 +0000,
cube_r.png,0.1,0.31,valid,29,29,0,down,4.866409699999622,None,space,0.3315772000000834,None,,,,,,,,,0,29,29,29,1070.8201525,,,,,,,,,,,,,1070.8043033,1070.8201525,1070.8201525,1070.8201525,1075.6995787,,,,1075.7093059999997,1075.7652539,1075.7655611,1075.8650674,1075.7818536,1075.7818536,1075.7818536,1076.1159758999997,,,,1075.7194801,1075.7194801,,,,,,,,,,,,,,,,,,,down,4.866409699999622,None,space,0.3315772000000834,None,P113,001,2025-02-17_12h36.33.043,posner_endo_new1,2024.2.4,60.07593598310949,2025-02-17 12h36.42.324648 +0000,
cube_r.png,0.1,0.31,valid,30,30,0,down,6.555151800000203,None,space,0.3426070000000436,None,,,,,,,,,0,30,30,30,1076.1314063,,,,,,,,,,,,,1076.1162320999997,1076.1314063,1076.1314063,1076.1314063,1082.6923996,,,,1082.702056,1082.7581679,1082.7584842,1082.8579117,1082.7747866,1082.7747866,1082.7747866,1083.1253041,,,,1082.7122359999998,1082.7122359999998,,,,,,,,,,,,,,,,,,,down,6.555151800000203,None,space,0.3426070000000436,None,P113,001,2025-02-17_12h36.33.043,posner_endo_new1,2024.2.4,60.07593598310949,2025-02-17 12h36.42.324648 +0000,
cube_l.png,0.1,-0.31,valid,31,31,0,down,7.722155500000099,None,space,0.3702827000001889,None,,,,,,,,,0,31,31,31,1083.1409324,,,,,,,,,,,,,1083.1255621999999,1083.1409324,1083.1409324,1083.1409324,1090.8676095,,,,1090.8773115,1090.9330802,1090.9333831999998,1091.0329022,1090.9496012,1090.9496012,1090.9496012,1091.3337146999997,,,,1090.8874028,1090.8874028,,,,,,,,,,,,,,,,,,,down,7.722155500000099,None,space,0.3702827000001889,None,P113,001,2025-02-17_12h36.33.043,posner_endo_new1,2024.2.4,60.07593598310949,2025-02-17 12h36.42.324648 +0000,
cube_r.png,0.1,0.31,valid,32,32,0,down,8.089826299999913,None,space,0.4043746000002102,None,,,,,,,,,0,32,32,32,1091.3490919,,,,,,,,,,,,,1091.333975,1091.3490919,1091.3490919,1091.3490919,1099.4420331000001,,,,1099.4517093,1099.5076807,1099.5080070999998,1099.6074843000001,1099.5242072,1099.5242072,1099.5242072,1099.9414873,,,,1099.4618995,1099.4618995,,,,,,,,,,,,,,,,,,,down,8.089826299999913,None,space,0.4043746000002102,None,P113,001,2025-02-17_12h36.33.043,posner_endo_new1,2024.2.4,60.07593598310949,2025-02-17 12h36.42.324648 +0000,
cube_r.png,0.1,-0.31,invalid,33,33,0,down,8.962163900000178,None,space,0.42722239999966405,None,,,,,,,,,0,33,33,33,1099.9570242,,,,,,,,,,,,,1099.9417527,1099.9570242,1099.9570242,1099.9570242,1108.9321274999998,,,,1108.9417611,1108.9980934999999,1108.9983997999998,1109.0977997999998,1109.0145339,1109.0145339,1109.0145339,1109.4486971000001,,,,1108.9520242999997,1108.9520242999997,,,,,,,,,,,,,,,,,,,down,8.962163900000178,None,space,0.42722239999966405,None,P113,001,2025-02-17_12h36.33.043,posner_endo_new1,2024.2.4,60.07593598310949,2025-02-17 12h36.42.324648 +0000,
cube_r.png,0.1,10,catch,34,34,0,down,8.055077099999835,None,None,,,,,,,,,,,0,34,34,34,1109.4640703999999,,,,,,,,,,,,,1109.4489509,1109.4640703999999,1109.4640703999999,1109.4640703999999,1117.5236372,,,,1117.5334075,1117.5892006999998,1117.5895031999999,1117.6889713,1117.6057802999999,1117.6057802999999,1117.6057802999999,1120.6033276999997,,,,1117.5436114999998,1117.5436114999998,1119.7035490999997,1120.6193733999999,1120.6193733999999,1120.6193733999999,,,,,,,,,,,,,,,down,8.055077099999835,None,None,,,P113,001,2025-02-17_12h36.33.043,posner_endo_new1,2024.2.4,60.07593598310949,2025-02-17 12h36.42.324648 +0000,
cube_r.png,0.1,0.31,valid,35,35,0,down,5.19572590000007,None,space,0.3391135000001668,None,,,,,,,,,0,35,35,35,1120.6193733999999,,,,,,,,,,,,,1120.6035622,1120.6193733999999,1120.6193733999999,1120.6193733999999,1125.8317220999998,,,,1125.8413867999998,1125.8975185999998,1125.8978238,1125.9970525999997,1125.9139286999998,1125.9139286999998,1125.9139286999998,1126.2646335999998,,,,1125.8512321999997,1125.8512321999997,,,,,,,,,,,,,,,,,,,down,5.19572590000007,None,space,0.3391135000001668,None,P113,001,2025-02-17_12h36.33.043,posner_endo_new1,2024.2.4,60.07593598310949,2025-02-17 12h36.42.324648 +0000,
cube_r.png,0.1,-0.31,invalid,36,36,0,down,6.326590799999849,None,space,0.389907900000253,None,,,,,,,,,0,36,36,36,1126.2801786,,,,,,,,,,,,,1126.2648949999998,1126.2801786,1126.2801786,1126.2801786,1132.6078874,,,,1132.6143121,1132.6737447,1132.6739711999999,1132.773522,1132.6902415999998,1132.6902415999998,1132.6902415999998,1133.0905463,,,,1132.6261157999998,1132.6261157999998,,,,,,,,,,,,,,,,,,,down,6.326590799999849,None,space,0.389907900000253,None,P113,001,2025-02-17_12h36.33.043,posner_endo_new1,2024.2.4,60.07593598310949,2025-02-17 12h36.42.324648 +0000,
cube_l.png,0.1,0.31,invalid,37,37,0,down,13.58048110000027,None,space,0.30778779999991457,None,,,,,,,,,0,37,37,37,1133.1064389999997,,,,,,,,,,,,,1133.0907201,1133.1064389999997,1133.1064389999997,1133.1064389999997,1146.6934219,,,,1146.6994768,1146.7593385,1146.7595633,1146.8427195,1146.7758494999998,1146.7758494999998,1146.7758494999998,1147.0931547,,,,1146.7108597000001,1146.7108597000001,,,,,,,,,,,,,,,,,,,down,13.58048110000027,None,space,0.30778779999991457,None,P113,001,2025-02-17_12h36.33.043,posner_endo_new1,2024.2.4,60.07593598310949,2025-02-17 12h36.42.324648 +0000,
cube_l.png,0.1,0.31,invalid,38,38,0,down,8.339007999999922,None,space,0.3394898999999896,None,,,,,,,,,0,38,38,38,1147.1089609,,,,,,,,,,,,,1147.0933286999998,1147.1089609,1147.1089609,1147.1089609,1155.4510258999999,,,,1155.4570976,1155.517046,1155.5175399,1155.6167070000001,1155.5334580999997,1155.5334580999997,1155.5334580999997,1155.8848239999998,,,,1155.4689924,1155.4689924,,,,,,,,,,,,,,,,,,,down,8.339007999999922,None,space,0.3394898999999896,None,P113,001,2025-02-17_12h36.33.043,posner_endo_new1,2024.2.4,60.07593598310949,2025-02-17 12h36.42.324648 +0000,
cube_r.png,0.1,0.31,valid,39,39,0,down,6.235359199999948,None,space,0.3441507000002275,None,,,,,,,,,0,39,39,39,1155.8997454999999,,,,,,,,,,,,,1155.885271,1155.8997454999999,1155.8997454999999,1155.8997454999999,1162.1446852,,,,1162.1556922999998,1162.2102506,1162.2105815,1162.3100329,1162.2267640999999,1162.2267640999999,1162.2267640999999,1162.5776357999998,,,,1162.1659055,1162.1659055,,,,,,,,,,,,,,,,,,,down,6.235359199999948,None,space,0.3441507000002275,None,P113,001,2025-02-17_12h36.33.043,posner_endo_new1,2024.2.4,60.07593598310949,2025-02-17 12h36.42.324648 +0000,
cube_l.png,0.1,0.31,invalid,40,40,0,down,8.246076599999924,None,space,0.41533949999984543,None,,,,,,,,,0,40,40,40,1162.5931637999997,,,,,,,,,,,,,1162.5779177,1162.5931637999997,1162.5931637999997,1162.5931637999997,1170.8525494,,,,1170.8635217,1170.9181447,1170.9184743,1171.0178078999998,1170.9345862999999,1170.9345862999999,1170.9345862999999,1171.3519717999998,,,,1170.8737754999997,1170.8737754999997,,,,,,,,,,,,,,,,,,,down,8.246076599999924,None,space,0.41533949999984543,None,P113,001,2025-02-17_12h36.33.043,posner_endo_new1,2024.2.4,60.07593598310949,2025-02-17 12h36.42.324648 +0000,
cube_l.png,0.1,10,catch,41,41,0,down,9.45512540000027,None,space,0.3644853000000694,None,,,,,,,,,0,41,41,41,1171.3673995999998,,,,,,,,,,,,,1171.3522463,1171.3673995999998,1171.3673995999998,1171.3673995999998,1180.8251446999998,,,,1180.8311507999997,1180.8911690999998,1180.8913929,1180.9909576,1180.9077702999998,1180.9077702999998,1180.9077702999998,1181.2748323,,,,1180.8427828999997,1180.8427828999997,,,,,,,,,,,,,,,,,,,down,9.45512540000027,None,space,0.3644853000000694,None,P113,001,2025-02-17_12h36.33.043,posner_endo_new1,2024.2.4,60.07593598310949,2025-02-17 12h36.42.324648 +0000,
cube_l.png,0.1,-0.31,valid,42,42,0,down,16.619840600000316,None,space,0.34512690000019575,None,,,,,,,,,0,42,42,42,1181.2906460999998,,,,,,,,,,,,,1181.2750118,1181.2906460999998,1181.2906460999998,1181.2906460999998,1197.9242328,,,,1197.9304161,1197.9902624000001,1197.9904954999997,1198.0734923999999,1198.0068258000001,1198.0068258000001,1198.0068258000001,1198.3573234,,,,1197.9420374000001,1197.9420374000001,,,,,,,,,,,,,,,,,,,down,16.619840600000316,None,space,0.34512690000019575,None,P113,001,2025-02-17_12h36.33.043,posner_endo_new1,2024.2.4,60.07593598310949,2025-02-17 12h36.42.324648 +0000,
cube_l.png,0.1,10,catch,43,43,0,down,8.562018099999932,None,None,,,,,,,,,,,0,43,43,43,1198.3731864000001,,,,,,,,,,,,,1198.3574967999998,1198.3731864000001,1198.3731864000001,1198.3731864000001,1206.9484463,,,,1206.9544818999998,1207.0145626999997,1207.0147871999998,1207.0975844,1207.0310989999998,1207.0310989999998,1207.0310989999998,1210.0283867999997,,,,1206.9661299,1206.9661299,1209.1121868,1210.0445857999998,1210.0445857999998,1210.0445857999998,,,,,,,,,,,,,,,down,8.562018099999932,None,None,,,P113,001,2025-02-17_12h36.33.043,posner_endo_new1,2024.2.4,60.07593598310949,2025-02-17 12h36.42.324648 +0000,
cube_l.png,0.1,0.31,invalid,44,44,0,down,12.010440300000027,None,space,0.5114552000000003,None,,,,,,,,,0,44,44,44,1210.0445857999998,,,,,,,,,,,,,1210.0285540999998,1210.0445857999998,1210.0445857999998,1210.0445857999998,1222.0662315999998,,,,1222.0722665999997,1222.1322465999997,1222.1324713,1222.2154572999998,1222.1488826,1222.1488826,1222.1488826,1222.6659773000001,,,,1222.0837646999998,1222.0837646999998,,,,,,,,,,,,,,,,,,,down,12.010440300000027,None,space,0.5114552000000003,None,P113,001,2025-02-17_12h36.33.043,posner_endo_new1,2024.2.4,60.07593598310949,2025-02-17 12h36.42.324648 +0000,
cube_l.png,0.1,0.31,invalid,45,45,0,down,7.413206500000342,None,space,0.37359569999989617,None,,,,,,,,,0,45,45,45,1222.6818266999999,,,,,,,,,,,,,1222.6661583999999,1222.6818266999999,1222.6818266999999,1222.6818266999999,1230.1080450999998,,,,1230.1140753,1230.1741063999998,1230.1743283,1230.2573564999998,1230.1906049,1230.1906049,1230.1906049,1230.5742814,,,,1230.1255081,1230.1255081,,,,,,,,,,,,,,,,,,,down,7.413206500000342,None,space,0.37359569999989617,None,P113,001,2025-02-17_12h36.33.043,posner_endo_new1,2024.2.4,60.07593598310949,2025-02-17 12h36.42.324648 +0000,
cube_r.png,0.1,0.31,valid,46,46,0,down,7.320649300000241,None,space,0.594041500000003,None,,,,,,,,,0,46,46,46,1230.5903000999997,,,,,,,,,,,,,1230.5744558000001,1230.5903000999997,1230.5903000999997,1230.5903000999997,1237.9168214000001,,,,1237.9228042999998,1237.9828727,1237.9830966999998,1238.0660033999998,1237.9993802999998,1237.9993802999998,1237.9993802999998,1238.5994956,,,,1237.9342634999998,1237.9342634999998,,,,,,,,,,,,,,,,,,,down,7.320649300000241,None,space,0.594041500000003,None,P113,001,2025-02-17_12h36.33.043,posner_endo_new1,2024.2.4,60.07593598310949,2025-02-17 12h36.42.324648 +0000,
cube_l.png,0.1,-0.31,valid,47,47,0,down,6.959386300000006,None,space,0.3716549999999188,None,,,,,,,,,0,47,47,47,1238.6154471999998,,,,,,,,,,,,,1238.5996731,1238.6154471999998,1238.6154471999998,1238.6154471999998,1245.5758382,,,,1245.5819032999998,1245.6415527999998,1245.6417772999998,1245.7413419999998,1245.6582671,1245.6582671,1245.6582671,1246.0419174999997,,,,1245.5934911999998,1245.5934911999998,,,,,,,,,,,,,,,,,,,down,6.959386300000006,None,space,0.3716549999999188,None,P113,001,2025-02-17_12h36.33.043,posner_endo_new1,2024.2.4,60.07593598310949,2025-02-17 12h36.42.324648 +0000,
cube_r.png,0.1,-0.31,invalid,48,48,0,down,6.084836800000176,None,space,0.3703233999999611,None,,,,,,,,,0,48,48,48,1246.0577413,,,,,,,,,,,,,1246.0420974999997,1246.0577413,1246.0577413,1246.0577413,1252.1522145,,,,1252.1581661,1252.2182797,1252.2185028,1252.3014346999998,1252.2347126999998,1252.2347126999998,1252.2347126999998,1252.6184939999998,,,,1252.1695983,1252.1695983,,,,,,,,,,,,,,,,,,,down,6.084836800000176,None,space,0.3703233999999611,None,P113,001,2025-02-17_12h36.33.043,posner_endo_new1,2024.2.4,60.07593598310949,2025-02-17 12h36.42.324648 +0000,
cube_r.png,0.1,10,catch,49,49,0,down,7.916480200000024,None,None,,,,,,,,,,,0,49,49,49,1252.6343026,,,,,,,,,,,,,1252.6186702,1252.6343026,1252.6343026,1252.6343026,1260.5605551999997,,,,1260.5665785,1260.6262499999998,1260.626476,1260.7262360999998,1260.6429325999998,1260.6429325999998,1260.6429325999998,1263.6400525,,,,1260.5780955999999,1260.5780955999999,1262.7408575999998,1263.656469,1263.656469,1263.656469,,,,,,,,,,,,,,,down,7.916480200000024,None,None,,,P113,001,2025-02-17_12h36.33.043,posner_endo_new1,2024.2.4,60.07593598310949,2025-02-17 12h36.42.324648 +0000,
cube_l.png,0.1,-0.31,valid,50,50,0,down,4.863178699999935,None,space,0.32954819999986285,None,,,,,,,,,0,50,50,50,1263.656469,,,,,,,,,,,,,1263.6402147999997,1263.656469,1263.656469,1263.656469,1268.5355494,,,,1268.5415514000001,1268.6016113,1268.6018338,1268.6846514,1268.6180270999998,1268.6180270999998,1268.6180270999998,1268.9519578999998,,,,1268.5531086,1268.5531086,,,,,,,,,,,,,,,,,,,down,4.863178699999935,None,space,0.32954819999986285,None,P113,001,2025-02-17_12h36.33.043,posner_endo_new1,2024.2.4,60.07593598310949,2025-02-17 12h36.42.324648 +0000,
cube_l.png,0.1,-0.31,valid,51,51,0,down,8.407041299999946,None,space,0.3837381999996978,None,,,,,,,,,0,51,51,51,1268.9678132,,,,,,,,,,,,,1268.9521360999997,1268.9678132,1268.9678132,1268.9678132,1277.3766459999997,,,,1277.3826012999998,1277.4424283999997,1277.442654,1277.5423081999998,1277.4591553,1277.4591553,1277.4591553,1277.8591940000001,,,,1277.3943657999998,1277.3943657999998,,,,,,,,,,,,,,,,,,,down,8.407041299999946,None,space,0.3837381999996978,None,P113,001,2025-02-17_12h36.33.043,posner_endo_new1,2024.2.4,60.07593598310949,2025-02-17 12h36.42.324648 +0000,
cube_r.png,0.1,-0.31,invalid,52,52,0,down,7.804189599999972,None,space,0.36213649999990594,None,,,,,,,,,0,52,52,52,1277.8752915,,,,,,,,,,,,,1277.8593710999999,1277.8752915,1277.8752915,1277.8752915,1285.6848368,,,,1285.6908619,1285.750727,1285.7509589000001,1285.8338190999998,1285.7672497999997,1285.7672497999997,1285.7672497999997,1286.1343899999997,,,,1285.7024345,1285.7024345,,,,,,,,,,,,,,,,,,,down,7.804189599999972,None,space,0.36213649999990594,None,P113,001,2025-02-17_12h36.33.043,posner_endo_new1,2024.2.4,60.07593598310949,2025-02-17 12h36.42.324648 +0000,
cube_l.png,0.1,-0.31,valid,53,53,0,down,8.136715599999661,None,space,0.3991194000000178,None,,,,,,,,,0,53,53,53,1286.1502295,,,,,,,,,,,,,1286.1345659999997,1286.1502295,1286.1502295,1286.1502295,1294.2926960999998,,,,1294.2986744,1294.3586107,1294.3588479999999,1294.4417502000001,1294.3750848,1294.3750848,1294.3750848,1294.7755991,,,,1294.3100271999997,1294.3100271999997,,,,,,,,,,,,,,,,,,,down,8.136715599999661,None,space,0.3991194000000178,None,P113,001,2025-02-17_12h36.33.043,posner_endo_new1,2024.2.4,60.07593598310949,2025-02-17 12h36.42.324648 +0000,
cube_r.png,0.1,10,catch,54,54,0,down,7.639818800000285,None,None,,,,,,,,,,,0,54,54,54,1294.7913757000001,,,,,,,,,,,,,1294.7757742,1294.7913757000001,1294.7913757000001,1294.7913757000001,1302.4344370999997,,,,1302.4404486999997,1302.5002915999999,1302.5005201999998,1302.6000856,1302.5168497999998,1302.5168497999998,1302.5168497999998,1305.5141205999998,,,,1302.4520448999997,1302.4520448999997,1304.6146595999999,1305.5304249,1305.5304249,1305.5304249,,,,,,,,,,,,,,,down,7.639818800000285,None,None,,,P113,001,2025-02-17_12h36.33.043,posner_endo_new1,2024.2.4,60.07593598310949,2025-02-17 12h36.42.324648 +0000,
cube_l.png,0.1,0.31,invalid,55,55,0,down,5.156812499999887,None,space,0.42030290000002424,None,,,,,,,,,0,55,55,55,1305.5304249,,,,,,,,,,,,,1305.5142796,1305.5304249,1305.5304249,1305.5304249,1310.6925490999997,,,,1310.6986284,1310.7584391999999,1310.7586642,1310.8419331999999,1310.7750476,1310.7750476,1310.7750476,1311.2087314999999,,,,1310.7102955,1310.7102955,,,,,,,,,,,,,,,,,,,down,5.156812499999887,None,space,0.42030290000002424,None,P113,001,2025-02-17_12h36.33.043,posner_endo_new1,2024.2.4,60.07593598310949,2025-02-17 12h36.42.324648 +0000,
cube_l.png,0.1,-0.31,valid,56,56,0,down,8.350589900000159,None,space,0.43143510000027163,None,,,,,,,,,0,56,56,56,1311.2244895999997,,,,,,,,,,,,,1311.2089060999997,1311.2244895999997,1311.2244895999997,1311.2244895999997,1319.5833131999998,,,,1319.5893599,1319.6493535,1319.6495771,1319.732442,1319.6659642,1319.6659642,1319.6659642,1320.0996360999998,,,,1319.6011464999997,1319.6011464999997,,,,,,,,,,,,,,,,,,,down,8.350589900000159,None,space,0.43143510000027163,None,P113,001,2025-02-17_12h36.33.043,posner_endo_new1,2024.2.4,60.07593598310949,2025-02-17 12h36.42.324648 +0000,
cube_r.png,0.1,0.31,valid,57,57,0,down,6.803684400000293,None,space,0.3793846999997186,None,,,,,,,,,0,57,57,57,1320.1154517,,,,,,,,,,,,,1320.0998108,1320.1154517,1320.1154517,1320.1154517,1326.9259855,,,,1326.9319393,1326.9918865999998,1326.9921117999997,1327.0751243999998,1327.0084794999998,1327.0084794999998,1327.0084794999998,1327.3922066999999,,,,1326.9434398999997,1326.9434398999997,,,,,,,,,,,,,,,,,,,down,6.803684400000293,None,space,0.3793846999997186,None,P113,001,2025-02-17_12h36.33.043,posner_endo_new1,2024.2.4,60.07593598310949,2025-02-17 12h36.42.324648 +0000,
cube_r.png,0.1,-0.31,invalid,58,58,0,down,6.614879399999609,None,space,0.3693640999999843,None,,,,,,,,,0,58,58,58,1327.4080227,,,,,,,,,,,,,1327.392382,1327.4080227,1327.4080227,1327.4080227,1334.0352472999998,,,,1334.0413294999998,1334.1012584,1334.101483,1334.1846474999998,1334.117932,1334.117932,1334.117932,1334.5017552,,,,1334.0529553000001,1334.0529553000001,,,,,,,,,,,,,,,,,,,down,6.614879399999609,None,space,0.3693640999999843,None,P113,001,2025-02-17_12h36.33.043,posner_endo_new1,2024.2.4,60.07593598310949,2025-02-17 12h36.42.324648 +0000,
cube_l.png,0.1,0.31,invalid,59,59,0,down,7.761716699999852,None,space,0.33839279999983773,None,,,,,,,,,0,59,59,59,1334.5174864,,,,,,,,,,,,,1334.5019288999997,1334.5174864,1334.5174864,1334.5174864,1342.2935620999997,,,,1342.2996174999998,1342.3595373999997,1342.3597704999997,1342.4426558,1342.3760124,1342.3760124,1342.3760124,1342.7263988999998,,,,1342.3111983999997,1342.3111983999997,,,,,,,,,,,,,,,,,,,down,7.761716699999852,None,space,0.33839279999983773,None,P113,001,2025-02-17_12h36.33.043,posner_endo_new1,2024.2.4,60.07593598310949,2025-02-17 12h36.42.324648 +0000,
