cue_img,cue_soa,target_y,trial,thisN,thisTrialN,thisRepN,key_control2.keys,key_control2.rt,key_control2.duration,key_resp.keys,key_resp.rt,key_resp.duration,practice.thisRepN,practice.thisTrialN,practice.thisN,practice.thisIndex,block1.thisRepN,block1.thisTrialN,block1.thisN,block1.thisIndex,block2.thisRepN,block2.thisTrialN,block2.thisN,block2.thisIndex,thisRow.t,notes,instructions.started,instructions_txt.started,key_control.started,instructions.stopped,key_control.keys,key_control.rt,key_control.duration,ready.started,ready_txt.started,ready_txt.stopped,ready.stopped,fix.started,fixation.started,key_control2.started,fixation_cross.started,fix.stopped,practice.key_control2.keys,practice.key_control2.rt,practice.key_control2.duration,cue.started,cube.started,fixation_cross_cue.started,cue.stopped,target.started,fixation_target.started,fixation_cross_target.started,key_resp.started,star.started,target.stopped,practice.key_resp.keys,practice.key_resp.rt,practice.key_resp.duration,block1.key_control2.keys,block1.key_control2.rt,block1.key_control2.duration,star.stopped,fixation_target.stopped,fixation_cross_target.stopped,key_resp.stopped,block1.key_resp.keys,block1.key_resp.rt,block1.key_resp.duration,break_2.started,text.started,key_control3.started,text.stopped,break_2.stopped,key_control3.keys,key_control3.rt,key_control3.duration,block2.key_control2.keys,block2.key_control2.rt,block2.key_control2.duration,block2.key_resp.keys,block2.key_resp.rt,block2.key_resp.duration,participant,session,date,expName,psychopyVersion,frameRate,expStart,
,,,,,,,,,,,,,,,,,,,,,,,,,,,0.007440699992002919,0.01945620001060888,0.01945620001060888,7.283530599990627,up,7.254969200002961,None,,,,,,,,,,,,,,,,,,,,,,,,,,,,,,,,,,,,,,,,,,,,,,,,,,P114,001,2025-02-19_11h20.09.121,posner_endo_new1,2024.2.4,60.02678395229264,2025-02-19 11h20.16.395551 +0000,
,,,,,,,,,,,,,,,,,,,,,,,,,,,,,,,,,,7.283597500005271,7.295268599991687,10.311495100002503,10.275161800003843,,,,,,,,,,,,,,,,,,,,,,,,,,,,,,,,,,,,,,,,,,,,,,P114,001,2025-02-19_11h20.09.121,posner_endo_new1,2024.2.4,60.02678395229264,2025-02-19 11h20.16.395551 +0000,
cube_l.png,0.1,-0.31,valid,0,0,0,up,13.714841299981344,None,space,0.446193099982338,None,0,0,0,0,,,,,,,,,10.311495100002503,,,,,,,,,,,,,10.294140200014226,10.311495100002503,10.311495100002503,10.311495100002503,24.030145800003083,up,13.714841299981344,None,24.060839100013254,24.07259460000205,24.07259460000205,24.09357299999101,24.093953200004762,24.110172399989096,24.110172399989096,24.110172399989096,24.193265600013547,24.561150099994848,space,0.446193099982338,None,,,,,,,,,,,,,,,,,,,,,,,,,P114,001,2025-02-19_11h20.09.121,posner_endo_new1,2024.2.4,60.02678395229264,2025-02-19 11h20.16.395551 +0000,
cube_l.png,0.1,0.31,invalid,1,1,0,up,4.6104253999947105,None,space,0.3108094000199344,None,0,1,1,1,,,,,,,,,24.576536200009286,,,,,,,,,,,,,24.56136759999208,24.576536200009286,24.576536200009286,24.576536200009286,29.189677999995183,up,4.6104253999947105,None,29.199609800009057,29.20941209999728,29.20941209999728,29.255260100006126,29.255540300015127,29.27212259999942,29.27212259999942,29.27212259999942,29.355090299999574,29.58888399999705,space,0.3108094000199344,None,,,,,,,,,,,,,,,,,,,,,,,,,P114,001,2025-02-19_11h20.09.121,posner_endo_new1,2024.2.4,60.02678395229264,2025-02-19 11h20.16.395551 +0000,
cube_r.png,0.1,-0.31,invalid,2,2,0,up,11.518245599989314,None,space,0.31368859999929555,None,0,2,2,2,,,,,,,,,29.6047927000036,,,,,,,,,,,,,29.589097099989885,29.6047927000036,29.6047927000036,29.6047927000036,41.12729639999452,up,11.518245599989314,None,41.138973299995996,41.14888369999244,41.14888369999244,41.19321920000948,41.19349979999242,41.20953970000846,41.20953970000846,41.20953970000846,41.2928901000123,41.52705480001168,space,0.31368859999929555,None,,,,,,,,,,,,,,,,,,,,,,,,,P114,001,2025-02-19_11h20.09.121,posner_endo_new1,2024.2.4,60.02678395229264,2025-02-19 11h20.16.395551 +0000,
cube_r.png,0.1,10,catch,3,3,0,up,4.332164499995997,None,space,0.325279100012267,None,0,3,3,3,,,,,,,,,41.542601499997545,,,,,,,,,,,,,41.52728169999318,41.542601499997545,41.542601499997545,41.542601499997545,45.88911940000253,up,4.332164499995997,None,45.898474899993744,45.908363599999575,45.908363599999575,45.95484409999335,45.95534360001329,45.97127060001367,45.97127060001367,45.97127060001367,46.05451330001233,46.30627669999376,space,0.325279100012267,None,,,,,,,,,,,,,,,,,,,,,,,,,P114,001,2025-02-19_11h20.09.121,posner_endo_new1,2024.2.4,60.02678395229264,2025-02-19 11h20.16.395551 +0000,
cube_l.png,0.1,-0.31,valid,4,4,0,up,4.969512800016673,None,space,0.303812799975276,None,0,4,4,4,,,,,,,,,46.32094179998967,,,,,,,,,,,,,46.30669170001056,46.32094179998967,46.32094179998967,46.32094179998967,51.300537600007374,up,4.969512800016673,None,51.31239150001784,51.322767100005876,51.322767100005876,51.36615929999971,51.36651009999332,51.38254349998897,51.38254349998897,51.38254349998897,51.465793400013354,51.70011589999194,space,0.303812799975276,None,,,,,,,,,,,,,,,,,,,,,,,,,P114,001,2025-02-19_11h20.09.121,posner_endo_new1,2024.2.4,60.02678395229264,2025-02-19 11h20.16.395551 +0000,
cube_l.png,0.1,0.31,invalid,5,5,0,up,4.991455599985784,None,space,0.33260180000797845,None,0,5,5,5,,,,,,,,,51.71571630000835,,,,,,,,,,,,,51.70039089999045,51.71571630000835,51.71571630000835,51.71571630000835,56.71124239999335,up,4.991455599985784,None,56.71748610000941,56.72850870000548,56.72850870000548,56.777182299993,56.77768719999585,56.79356389999157,56.79356389999157,56.79356389999157,56.876817700016545,57.128643400006695,space,0.33260180000797845,None,,,,,,,,,,,,,,,,,,,,,,,,,P114,001,2025-02-19_11h20.09.121,posner_endo_new1,2024.2.4,60.02678395229264,2025-02-19 11h20.16.395551 +0000,
cube_r.png,0.1,-0.31,invalid,6,6,0,up,6.339966300001834,None,space,0.32870380001259036,None,0,6,6,6,,,,,,,,,57.14320970000699,,,,,,,,,,,,,57.12906400000793,57.14320970000699,57.14320970000699,57.14320970000699,63.48814530001255,up,6.339966300001834,None,63.50068279998959,63.51112889999058,63.51112889999058,63.55359429999953,63.55394000001252,63.57016860001022,63.57016860001022,63.57016860001022,63.653303900005994,63.904332800011616,space,0.32870380001259036,None,,,,,,,,,,,,,,,,,,,,,,,,,P114,001,2025-02-19_11h20.09.121,posner_endo_new1,2024.2.4,60.02678395229264,2025-02-19 11h20.16.395551 +0000,
cube_r.png,0.1,0.31,valid,7,7,0,up,8.10701569999219,None,space,0.31614289997378364,None,0,7,7,7,,,,,,,,,63.91980249999324,,,,,,,,,,,,,63.90460350000649,63.91980249999324,63.91980249999324,63.91980249999324,72.02938260001247,up,8.10701569999219,None,72.04120599999442,72.05149220000021,72.05149220000021,72.09500989998924,72.09535960000358,72.11151270000846,72.11151270000846,72.11151270000846,72.19467150000855,72.42920710000908,space,0.31614289997378364,None,,,,,,,,,,,,,,,,,,,,,,,,,P114,001,2025-02-19_11h20.09.121,posner_endo_new1,2024.2.4,60.02678395229264,2025-02-19 11h20.16.395551 +0000,
cube_l.png,0.1,-0.31,valid,8,8,0,up,5.158635899977526,None,space,0.304781400016509,None,0,8,8,8,,,,,,,,,72.44440130001749,,,,,,,,,,,,,72.42947679999634,72.44440130001749,72.44440130001749,72.44440130001749,77.60724909999408,up,5.158635899977526,None,77.61913050001021,77.62942139999359,77.62942139999359,77.67250220000278,77.67284559999825,77.68908199999714,77.68908199999714,77.68908199999714,77.77231619998929,78.00665140000638,space,0.304781400016509,None,,,,,,,,,,,,,,,,,,,,,,,,,P114,001,2025-02-19_11h20.09.121,posner_endo_new1,2024.2.4,60.02678395229264,2025-02-19 11h20.16.395551 +0000,
cube_r.png,0.1,-0.31,invalid,9,9,0,up,9.364943599997787,None,space,0.3192914000246674,None,0,9,9,9,,,,,,,,,78.02200319999247,,,,,,,,,,,,,78.00692829999025,78.02200319999247,78.02200319999247,78.02200319999247,87.39706220000517,up,9.364943599997787,None,87.4089718000032,87.41944500000682,87.41944500000682,87.46231370000169,87.46257070000865,87.47905280001578,87.47905280001578,87.47905280001578,87.56229370000074,87.8129356999998,space,0.3192914000246674,None,,,,,,,,,,,,,,,,,,,,,,,,,P114,001,2025-02-19_11h20.09.121,posner_endo_new1,2024.2.4,60.02678395229264,2025-02-19 11h20.16.395551 +0000,
cube_r.png,0.1,0.31,valid,10,10,0,up,4.7664740000036545,None,space,0.44676939997589216,None,0,10,10,10,,,,,,,,,87.82847380000749,,,,,,,,,,,,,87.81311930000084,87.82847380000749,87.82847380000749,87.82847380000749,92.60781950000091,up,4.7664740000036545,None,92.61554719999549,92.62677209998947,92.62677209998947,92.67378030001419,92.6740307,92.69045980001101,92.69045980001101,92.69045980001101,92.75695599999744,93.14173460000893,space,0.44676939997589216,None,,,,,,,,,,,,,,,,,,,,,,,,,P114,001,2025-02-19_11h20.09.121,posner_endo_new1,2024.2.4,60.02678395229264,2025-02-19 11h20.16.395551 +0000,
,,,,,,,,,,,,,,,,,,,,,,,,,,,,,,,,,,93.14200130000245,93.15636110000196,96.16848389999359,96.13763650000328,,,,,,,,,,,,,,,,,,,,,,,,,,,,,,,,,,,,,,,,,,,,,,P114,001,2025-02-19_11h20.09.121,posner_endo_new1,2024.2.4,60.02678395229264,2025-02-19 11h20.16.395551 +0000,
cube_l.png,0.1,10,catch,0,0,0,up,22.890369500004454,None,None,,,,,,,0,0,0,0,,,,,96.16848389999359,,,,,,,,,,,,,96.15918700001203,96.16848389999359,96.16848389999359,96.16848389999359,119.0646737999923,,,,119.07673950001481,119.08703870000318,119.08703870000318,119.13018290000036,119.1305321000109,119.14667770001688,119.14667770001688,119.14667770001688,119.22995410001022,122.14423130001524,,,,up,22.890369500004454,None,121.24459479999496,122.16028240000014,122.16028240000014,122.16028240000014,None,,,,,,,,,,,,,,,,,P114,001,2025-02-19_11h20.09.121,posner_endo_new1,2024.2.4,60.02678395229264,2025-02-19 11h20.16.395551 +0000,
cube_l.png,0.1,10,catch,1,1,0,up,1.986959800007753,None,None,,,,,,,0,1,1,1,,,,,122.16028240000014,,,,,,,,,,,,,122.14449480001349,122.16028240000014,122.16028240000014,122.16028240000014,124.15935619999073,,,,124.17115700000431,124.18146799999522,124.18146799999522,124.22500770000624,124.22536010001204,124.24156950000906,124.24156950000906,124.24156950000906,124.32474280000315,127.23906280001393,,,,up,1.986959800007753,None,126.33935460000066,127.25511530000949,127.25511530000949,127.25511530000949,None,,,,,,,,,,,,,,,,,P114,001,2025-02-19_11h20.09.121,posner_endo_new1,2024.2.4,60.02678395229264,2025-02-19 11h20.16.395551 +0000,
cube_l.png,0.1,0.31,invalid,2,2,0,up,3.7321345999953337,None,space,0.42762969998875633,None,,,,,0,2,2,2,,,,,127.25511530000949,,,,,,,,,,,,,127.2393260000099,127.25511530000949,127.25511530000949,127.25511530000949,131.00241300000926,,,,131.01422820001608,131.02442410000367,131.02442410000367,131.06783459999133,131.0681872999994,131.08452470001066,131.08452470001066,131.08452470001066,131.16766040000948,131.51869640001678,,,,up,3.7321345999953337,None,,,,,space,0.42762969998875633,None,,,,,,,,,,,,,,,P114,001,2025-02-19_11h20.09.121,posner_endo_new1,2024.2.4,60.02678395229264,2025-02-19 11h20.16.395551 +0000,
cube_l.png,0.1,0.31,invalid,3,3,0,up,5.58903430000646,None,space,0.37268679999397136,None,,,,,0,3,3,3,,,,,131.5340542999911,,,,,,,,,,,,,131.51898550000624,131.5340542999911,131.5340542999911,131.5340542999911,137.12956050000503,,,,137.14142790000187,137.15173929999582,137.15173929999582,137.1950644000026,137.19541049998952,137.211547599989,137.211547599989,137.211547599989,137.29482400001143,137.59565380000276,,,,up,5.58903430000646,None,,,,,space,0.37268679999397136,None,,,,,,,,,,,,,,,P114,001,2025-02-19_11h20.09.121,posner_endo_new1,2024.2.4,60.02678395229264,2025-02-19 11h20.16.395551 +0000,
cube_l.png,0.1,-0.31,valid,4,4,0,up,4.503980199981015,None,space,0.4006873999896925,None,,,,,0,4,4,4,,,,,137.61121060000733,,,,,,,,,,,,,137.59594950001338,137.61121060000733,137.61121060000733,137.61121060000733,142.12444200000027,,,,142.13395230000606,142.14345890001277,142.14345890001277,142.19004760001553,142.19028710000566,142.2065225999977,142.2065225999977,142.2065225999977,142.28986710001482,142.6234240999911,,,,up,4.503980199981015,None,,,,,space,0.4006873999896925,None,,,,,,,,,,,,,,,P114,001,2025-02-19_11h20.09.121,posner_endo_new1,2024.2.4,60.02678395229264,2025-02-19 11h20.16.395551 +0000,
cube_r.png,0.1,-0.31,invalid,5,5,0,up,3.3710423999873456,None,space,0.35391820000950247,None,,,,,0,5,5,5,,,,,142.63934260001406,,,,,,,,,,,,,142.62360670001362,142.63934260001406,142.63934260001406,142.63934260001406,146.02004619999207,,,,146.02718070000992,146.0389162999927,146.0389162999927,146.08599660001346,146.08622040000046,146.1024485999951,146.1024485999951,146.1024485999951,146.16895280001336,146.4696077000117,,,,up,3.3710423999873456,None,,,,,space,0.35391820000950247,None,,,,,,,,,,,,,,,P114,001,2025-02-19_11h20.09.121,posner_endo_new1,2024.2.4,60.02678395229264,2025-02-19 11h20.16.395551 +0000,
cube_r.png,0.1,0.31,valid,6,6,0,up,5.661534300015774,None,space,0.40550930000608787,None,,,,,0,6,6,6,,,,,146.48543480000808,,,,,,,,,,,,,146.4697761000134,146.48543480000808,146.48543480000808,146.48543480000808,152.16376540000783,,,,152.16993020000518,152.1813206000079,152.1813206000079,152.22959800000535,152.23009530000854,152.24603820001357,152.24603820001357,152.24603820001357,152.32926170001156,152.66412130001117,,,,up,5.661534300015774,None,,,,,space,0.40550930000608787,None,,,,,,,,,,,,,,,P114,001,2025-02-19_11h20.09.121,posner_endo_new1,2024.2.4,60.02678395229264,2025-02-19 11h20.16.395551 +0000,
cube_r.png,0.1,-0.31,invalid,7,7,0,up,5.379718799988041,None,space,0.3908621000009589,None,,,,,0,7,7,7,,,,,152.67892239999492,,,,,,,,,,,,,152.66455370001495,152.67892239999492,152.67892239999492,152.67892239999492,158.0752221000148,,,,158.09293030001572,158.10339329999988,158.10339329999988,158.14027850001003,158.14078380001592,158.15667620001477,158.15667620001477,158.15667620001477,158.23991440000827,158.55836620001355,,,,up,5.379718799988041,None,,,,,space,0.3908621000009589,None,,,,,,,,,,,,,,,P114,001,2025-02-19_11h20.09.121,posner_endo_new1,2024.2.4,60.02678395229264,2025-02-19 11h20.16.395551 +0000,
cube_l.png,0.1,-0.31,valid,8,8,0,up,7.125847200019052,None,space,0.3515058000048157,None,,,,,0,8,8,8,,,,,158.57297890001792,,,,,,,,,,,,,158.5587988999905,158.57297890001792,158.57297890001792,158.57297890001792,165.70094119998976,,,,165.71852990001207,165.72945929999696,165.72945929999696,165.7657959999924,165.7662968999939,165.78222069999902,165.78222069999902,165.78222069999902,165.86547509999946,166.15036130000954,,,,up,7.125847200019052,None,,,,,space,0.3515058000048157,None,,,,,,,,,,,,,,,P114,001,2025-02-19_11h20.09.121,posner_endo_new1,2024.2.4,60.02678395229264,2025-02-19 11h20.16.395551 +0000,
cube_r.png,0.1,-0.31,invalid,9,9,0,up,7.453352399985306,None,space,0.31714849997661076,None,,,,,0,9,9,9,,,,,166.165153000009,,,,,,,,,,,,,166.15079539999715,166.165153000009,166.165153000009,166.165153000009,173.6255441000103,,,,173.63476700001047,173.6444865000085,173.6444865000085,173.69099140001344,173.69124139999622,173.70780480001122,173.70780480001122,173.70780480001122,173.79087170001003,174.0415587000025,,,,up,7.453352399985306,None,,,,,space,0.31714849997661076,None,,,,,,,,,,,,,,,P114,001,2025-02-19_11h20.09.121,posner_endo_new1,2024.2.4,60.02678395229264,2025-02-19 11h20.16.395551 +0000,
cube_l.png,0.1,0.31,invalid,10,10,0,up,5.633780900010606,None,space,0.2748396999959368,None,,,,,0,10,10,10,,,,,174.057129599998,,,,,,,,,,,,,174.04175130001386,174.057129599998,174.057129599998,174.057129599998,179.70231419999618,,,,179.70984070000122,179.72120890000951,179.72120890000951,179.76816690000123,179.76842900001793,179.7847841999901,179.7847841999901,179.7847841999901,179.8513726000092,180.06855850000284,,,,up,5.633780900010606,None,,,,,space,0.2748396999959368,None,,,,,,,,,,,,,,,P114,001,2025-02-19_11h20.09.121,posner_endo_new1,2024.2.4,60.02678395229264,2025-02-19 11h20.16.395551 +0000,
cube_r.png,0.1,-0.31,invalid,11,11,0,up,6.406481400015764,None,space,0.29666579997865483,None,,,,,0,11,11,11,,,,,180.08448720001616,,,,,,,,,,,,,180.0687550000148,180.08448720001616,180.08448720001616,180.08448720001616,186.49552699999185,,,,186.50329880000209,186.51441299999715,186.51441299999715,186.561311700003,186.56157079999684,186.57799320001504,186.57799320001504,186.57799320001504,186.66111000001547,186.87858720001532,,,,up,6.406481400015764,None,,,,,space,0.29666579997865483,None,,,,,,,,,,,,,,,P114,001,2025-02-19_11h20.09.121,posner_endo_new1,2024.2.4,60.02678395229264,2025-02-19 11h20.16.395551 +0000,
cube_r.png,0.1,0.31,valid,12,12,0,up,7.084606400021585,None,space,0.31633130001137033,None,,,,,0,12,12,12,,,,,186.89408590001403,,,,,,,,,,,,,186.87878150001052,186.89408590001403,186.89408590001403,186.89408590001403,193.98771580000175,,,,193.99547920000623,194.00678480000352,194.00678480000352,194.05381390001276,194.05406260001473,194.07017079999787,194.07017079999787,194.07017079999787,194.13682079999126,194.3876128999982,,,,up,7.084606400021585,None,,,,,space,0.31633130001137033,None,,,,,,,,,,,,,,,P114,001,2025-02-19_11h20.09.121,posner_endo_new1,2024.2.4,60.02678395229264,2025-02-19 11h20.16.395551 +0000,
cube_l.png,0.1,10,catch,13,13,0,up,7.728082499990705,None,space,0.25496339998790063,None,,,,,0,13,13,13,,,,,194.40331980001065,,,,,,,,,,,,,194.38780699999188,194.40331980001065,194.40331980001065,194.40331980001065,202.14610810001614,,,,202.15375309999217,202.1649030999979,202.1649030999979,202.21199189999606,202.21224110000185,202.22844840001198,202.22844840001198,202.22844840001198,202.31174830000964,202.49578729999484,,,,up,7.728082499990705,None,,,,,space,0.25496339998790063,None,,,,,,,,,,,,,,,P114,001,2025-02-19_11h20.09.121,posner_endo_new1,2024.2.4,60.02678395229264,2025-02-19 11h20.16.395551 +0000,
cube_r.png,0.1,-0.31,invalid,14,14,0,up,10.915547899989178,None,space,0.38618199998745695,None,,,,,0,14,14,14,,,,,202.51181540000835,,,,,,,,,,,,,202.49598110001534,202.51181540000835,202.51181540000835,202.51181540000835,213.43444820001605,,,,213.44229890001589,213.45338980000815,213.45338980000815,213.50046139999176,213.50071550000575,213.51709259999916,213.51709259999916,213.51709259999916,213.58361989998957,213.91749779999373,,,,up,10.915547899989178,None,,,,,space,0.38618199998745695,None,,,,,,,,,,,,,,,P114,001,2025-02-19_11h20.09.121,posner_endo_new1,2024.2.4,60.02678395229264,2025-02-19 11h20.16.395551 +0000,
cube_l.png,0.1,-0.31,valid,15,15,0,up,6.693377999996301,None,space,0.2970629000046756,None,,,,,0,15,15,15,,,,,213.93316179999965,,,,,,,,,,,,,213.91769200001727,213.93316179999965,213.93316179999965,213.93316179999965,220.6273433000024,,,,220.63483799999813,220.64558080001734,220.64558080001734,220.6930210000137,220.69352800000343,220.70944020000752,220.70944020000752,220.70944020000752,220.79269820000627,221.01093160000164,,,,up,6.693377999996301,None,,,,,space,0.2970629000046756,None,,,,,,,,,,,,,,,P114,001,2025-02-19_11h20.09.121,posner_endo_new1,2024.2.4,60.02678395229264,2025-02-19 11h20.16.395551 +0000,
cube_r.png,0.1,10,catch,16,16,0,up,4.87368299998343,None,space,0.28503749999799766,None,,,,,0,16,16,16,,,,,221.0257421999995,,,,,,,,,,,,,221.01135519999661,221.0257421999995,221.0257421999995,221.0257421999995,225.90561059999163,,,,225.91742270000395,225.92770820000442,225.92770820000442,225.97094339999603,225.97120210001594,225.98745960000088,225.98745960000088,225.98745960000088,226.07080439999118,226.28814910000074,,,,up,4.87368299998343,None,,,,,space,0.28503749999799766,None,,,,,,,,,,,,,,,P114,001,2025-02-19_11h20.09.121,posner_endo_new1,2024.2.4,60.02678395229264,2025-02-19 11h20.16.395551 +0000,
cube_r.png,0.1,10,catch,17,17,0,up,5.706770499993581,None,None,,,,,,,0,17,17,17,,,,,226.3038879999949,,,,,,,,,,,,,226.28833999999915,226.3038879999949,226.3038879999949,226.3038879999949,232.01545390000683,,,,232.0229964000173,232.0343339999963,232.0343339999963,232.0812758000102,232.0815244000114,232.09793530000024,232.09793530000024,232.09793530000024,232.1644443999976,235.09534160001203,,,,up,5.706770499993581,None,234.179234500014,235.11155460000737,235.11155460000737,235.11155460000737,None,,,,,,,,,,,,,,,,,P114,001,2025-02-19_11h20.09.121,posner_endo_new1,2024.2.4,60.02678395229264,2025-02-19 11h20.16.395551 +0000,
cube_l.png,0.1,0.31,invalid,18,18,0,up,6.035125599999446,None,space,0.30645669999648817,None,,,,,0,18,18,18,,,,,235.11155460000737,,,,,,,,,,,,,235.095522299991,235.11155460000737,235.11155460000737,235.11155460000737,241.156333299994,,,,241.16386940001394,241.17508489999454,241.17508489999454,241.22201560001122,241.22226499998942,241.23859369999263,241.23859369999263,241.23859369999263,241.32195290000527,241.55580219998956,,,,up,6.035125599999446,None,,,,,space,0.30645669999648817,None,,,,,,,,,,,,,,,P114,001,2025-02-19_11h20.09.121,posner_endo_new1,2024.2.4,60.02678395229264,2025-02-19 11h20.16.395551 +0000,
cube_l.png,0.1,10,catch,19,19,0,up,6.815570700011449,None,None,,,,,,,0,19,19,19,,,,,241.5714100000041,,,,,,,,,,,,,241.5559942999971,241.5714100000041,241.5714100000041,241.5714100000041,248.39867510000477,,,,248.4063412999967,248.41760750001413,248.41760750001413,248.46461160000763,248.46486040001037,248.48120280000148,248.48120280000148,248.48120280000148,248.54791860000114,251.47849820001284,,,,up,6.815570700011449,None,250.56219100000453,251.49490399999195,251.49490399999195,251.49490399999195,None,,,,,,,,,,,,,,,,,P114,001,2025-02-19_11h20.09.121,posner_endo_new1,2024.2.4,60.02678395229264,2025-02-19 11h20.16.395551 +0000,
cube_l.png,0.1,0.31,invalid,20,20,0,up,4.356661600002553,None,space,0.3802981000044383,None,,,,,0,20,20,20,,,,,251.49490399999195,,,,,,,,,,,,,251.47868080000626,251.49490399999195,251.49490399999195,251.49490399999195,255.85802869999316,,,,255.8655931999965,255.87669269999606,255.87669269999606,255.923787000007,255.92403699998977,255.94018979999237,255.94018979999237,255.94018979999237,256.02340549998917,256.32418210001197,,,,up,4.356661600002553,None,,,,,space,0.3802981000044383,None,,,,,,,,,,,,,,,P114,001,2025-02-19_11h20.09.121,posner_endo_new1,2024.2.4,60.02678395229264,2025-02-19 11h20.16.395551 +0000,
cube_l.png,0.1,-0.31,valid,21,21,0,up,6.480266300000949,None,space,0.49450569998589344,None,,,,,0,21,21,21,,,,,256.339770999999,,,,,,,,,,,,,256.32437770001707,256.339770999999,256.339770999999,256.339770999999,262.83374410000397,,,,262.8412985999894,262.8528631000081,262.8528631000081,262.90003809999325,262.90058400001726,262.9163827000011,262.9163827000011,262.9163827000011,262.98301369999535,263.4180112000031,,,,up,6.480266300000949,None,,,,,space,0.49450569998589344,None,,,,,,,,,,,,,,,P114,001,2025-02-19_11h20.09.121,posner_endo_new1,2024.2.4,60.02678395229264,2025-02-19 11h20.16.395551 +0000,
cube_r.png,0.1,0.31,valid,22,22,0,up,5.770657100016251,None,space,0.252775400003884,None,,,,,0,22,22,22,,,,,263.4325870000175,,,,,,,,,,,,,263.4184974000091,263.4325870000175,263.4325870000175,263.4325870000175,269.2118805999926,,,,269.2311061999935,269.24263890000293,269.24263890000293,269.27684710000176,269.27719870000146,269.29326410000795,269.29326410000795,269.29326410000795,269.37648780000745,269.56098790001124,,,,up,5.770657100016251,None,,,,,space,0.252775400003884,None,,,,,,,,,,,,,,,P114,001,2025-02-19_11h20.09.121,posner_endo_new1,2024.2.4,60.02678395229264,2025-02-19 11h20.16.395551 +0000,
cube_r.png,0.1,-0.31,invalid,23,23,0,up,7.291334299981827,None,space,0.30945970001630485,None,,,,,0,23,23,23,,,,,269.5763636000047,,,,,,,,,,,,,269.5612700000056,269.5763636000047,269.5763636000047,269.5763636000047,276.87089520000154,,,,276.8897588000109,276.90100079998956,276.90100079998956,276.93568749999395,276.93623079999816,276.95215470000403,276.95215470000403,276.95215470000403,277.03534080000827,277.27045219999854,,,,up,7.291334299981827,None,,,,,space,0.30945970001630485,None,,,,,,,,,,,,,,,P114,001,2025-02-19_11h20.09.121,posner_endo_new1,2024.2.4,60.02678395229264,2025-02-19 11h20.16.395551 +0000,
cube_r.png,0.1,0.31,valid,24,24,0,up,7.09424500001478,None,space,0.34148699999786913,None,,,,,0,24,24,24,,,,,277.2851243999903,,,,,,,,,,,,,277.2709235000075,277.2851243999903,277.2851243999903,277.2851243999903,284.396399499994,,,,284.41516020000563,284.4264772000024,284.4264772000024,284.46123079999234,284.4615510000149,284.4777527000115,284.4777527000115,284.4777527000115,284.56099490000634,284.82842649999657,,,,up,7.09424500001478,None,,,,,space,0.34148699999786913,None,,,,,,,,,,,,,,,P114,001,2025-02-19_11h20.09.121,posner_endo_new1,2024.2.4,60.02678395229264,2025-02-19 11h20.16.395551 +0000,
cube_r.png,0.1,-0.31,invalid,25,25,0,up,4.798763900005724,None,space,0.3166407000098843,None,,,,,0,25,25,25,,,,,284.84412739999243,,,,,,,,,,,,,284.8286750999978,284.84412739999243,284.84412739999243,284.84412739999243,289.65762710000854,,,,289.6768427999923,289.68816330001573,289.68816330001573,289.7226134999946,289.723166700016,289.7390386000043,289.7390386000043,289.7390386000043,289.822270500008,290.05768990001525,,,,up,4.798763900005724,None,,,,,space,0.3166407000098843,None,,,,,,,,,,,,,,,P114,001,2025-02-19_11h20.09.121,posner_endo_new1,2024.2.4,60.02678395229264,2025-02-19 11h20.16.395551 +0000,
cube_l.png,0.1,-0.31,valid,26,26,0,up,4.851081300002988,None,space,0.3339501000009477,None,,,,,0,26,26,26,,,,,290.0720004999894,,,,,,,,,,,,,290.058162500005,290.0720004999894,290.0720004999894,290.0720004999894,294.93570070000715,,,,294.95458379999036,294.965958899993,294.965958899993,295.0005530999915,295.0011042999977,295.0169256000081,295.0169256000081,295.0169256000081,295.1002220000082,295.3682908999908,,,,up,4.851081300002988,None,,,,,space,0.3339501000009477,None,,,,,,,,,,,,,,,P114,001,2025-02-19_11h20.09.121,posner_endo_new1,2024.2.4,60.02678395229264,2025-02-19 11h20.16.395551 +0000,
cube_r.png,0.1,0.31,valid,27,27,0,up,5.2598036999988835,None,space,0.3349673999764491,None,,,,,0,27,27,27,,,,,295.3832585999917,,,,,,,,,,,,,295.3687567000161,295.3832585999917,295.3832585999917,295.3832585999917,300.6468055000005,,,,300.66583620000165,300.67719330001273,300.67719330001273,300.7113568999921,300.71170270000584,300.727730100014,300.727730100014,300.727730100014,300.8110444000049,301.0786808000121,,,,up,5.2598036999988835,None,,,,,space,0.3349673999764491,None,,,,,,,,,,,,,,,P114,001,2025-02-19_11h20.09.121,posner_endo_new1,2024.2.4,60.02678395229264,2025-02-19 11h20.16.395551 +0000,
cube_r.png,0.1,10,catch,28,28,0,up,6.82931530001224,None,None,,,,,,,0,28,28,28,,,,,301.0941148000129,,,,,,,,,,,,,301.07896499999333,301.0941148000129,301.0941148000129,301.0941148000129,307.9383713999996,,,,307.9500359999947,307.9603272000095,307.9603272000095,308.00387590000173,308.0042344999965,308.0203646000009,308.0203646000009,308.0203646000009,308.1036519999907,311.0180387000146,,,,up,6.82931530001224,None,310.1182390000031,311.0339632999967,311.0339632999967,311.0339632999967,None,,,,,,,,,,,,,,,,,P114,001,2025-02-19_11h20.09.121,posner_endo_new1,2024.2.4,60.02678395229264,2025-02-19 11h20.16.395551 +0000,
cube_r.png,0.1,0.31,valid,29,29,0,up,1.2010278000088874,None,space,0.32579709999845363,None,,,,,0,29,29,29,,,,,311.0339632999967,,,,,,,,,,,,,311.01830789999804,311.0339632999967,311.0339632999967,311.0339632999967,312.2505469000025,,,,312.26123329999973,312.2712920999911,312.2712920999911,312.3160798000172,312.31631349999225,312.33276930000284,312.33276930000284,312.33276930000284,312.41609730001073,312.66625820001354,,,,up,1.2010278000088874,None,,,,,space,0.32579709999845363,None,,,,,,,,,,,,,,,P114,001,2025-02-19_11h20.09.121,posner_endo_new1,2024.2.4,60.02678395229264,2025-02-19 11h20.16.395551 +0000,
cube_r.png,0.1,0.31,valid,30,30,0,up,4.506328199990094,None,space,0.3624581999902148,None,,,,,0,30,30,30,,,,,312.6823146000097,,,,,,,,,,,,,312.66643390001263,312.6823146000097,312.6823146000097,312.6823146000097,317.19532090000575,,,,317.20216519999667,317.21397640000214,317.21397640000214,317.26115559999016,317.2613813999924,317.2775357000064,317.2775357000064,317.2775357000064,317.3608385999978,317.6445808999997,,,,up,4.506328199990094,None,,,,,space,0.3624581999902148,None,,,,,,,,,,,,,,,P114,001,2025-02-19_11h20.09.121,posner_endo_new1,2024.2.4,60.02678395229264,2025-02-19 11h20.16.395551 +0000,
cube_l.png,0.1,-0.31,valid,31,31,0,up,4.382572800008347,None,space,0.3472996999917086,None,,,,,0,31,31,31,,,,,317.6605378999957,,,,,,,,,,,,,317.64475279999897,317.6605378999957,317.6605378999957,317.6605378999957,322.0567685000133,,,,322.0626746999915,322.07415010000113,322.07415010000113,322.1228211999987,322.1230438000057,322.1394385000167,322.1394385000167,322.1394385000167,322.205898300017,322.48959849998937,,,,up,4.382572800008347,None,,,,,space,0.3472996999917086,None,,,,,,,,,,,,,,,P114,001,2025-02-19_11h20.09.121,posner_endo_new1,2024.2.4,60.02678395229264,2025-02-19 11h20.16.395551 +0000,
cube_r.png,0.1,0.31,valid,32,32,0,up,5.57759050000459,None,space,0.2930697000119835,None,,,,,0,32,32,32,,,,,322.50577849999536,,,,,,,,,,,,,322.48976910000783,322.50577849999536,322.50577849999536,322.50577849999536,328.0841497000074,,,,328.09021460000076,328.10167589999037,328.10167589999037,328.14990930000204,328.1504147000087,328.16633549999096,328.16633549999096,328.16633549999096,328.2495462000079,328.46811829999206,,,,up,5.57759050000459,None,,,,,space,0.2930697000119835,None,,,,,,,,,,,,,,,P114,001,2025-02-19_11h20.09.121,posner_endo_new1,2024.2.4,60.02678395229264,2025-02-19 11h20.16.395551 +0000,
cube_r.png,0.1,-0.31,invalid,33,33,0,up,6.777624299982563,None,space,0.28208030000678264,None,,,,,0,33,33,33,,,,,328.48265930000343,,,,,,,,,,,,,328.4685499999905,328.48265930000343,328.48265930000343,328.48265930000343,335.27736020000884,,,,335.2889251000015,335.2989080999978,335.2989080999978,335.3426973000169,335.3430423999962,335.3591320000123,335.3591320000123,335.3591320000123,335.44235460000345,335.64366719999816,,,,up,6.777624299982563,None,,,,,space,0.28208030000678264,None,,,,,,,,,,,,,,,P114,001,2025-02-19_11h20.09.121,posner_endo_new1,2024.2.4,60.02678395229264,2025-02-19 11h20.16.395551 +0000,
cube_r.png,0.1,10,catch,34,34,0,up,7.112485199992079,None,space,0.32106990000465885,None,,,,,0,34,34,34,,,,,335.65878800000064,,,,,,,,,,,,,335.64396010001656,335.65878800000064,335.65878800000064,335.65878800000064,342.78569809999317,,,,342.7919116000121,342.80392750000465,342.80392750000465,342.85155880000093,342.85178409999935,342.8681673000101,342.8681673000101,342.8681673000101,342.951427699998,343.2019583999936,,,,up,7.112485199992079,None,,,,,space,0.32106990000465885,None,,,,,,,,,,,,,,,P114,001,2025-02-19_11h20.09.121,posner_endo_new1,2024.2.4,60.02678395229264,2025-02-19 11h20.16.395551 +0000,
cube_r.png,0.1,0.31,valid,35,35,0,up,7.681628599995747,None,space,0.41845319999265485,None,,,,,0,35,35,35,,,,,343.2177484999993,,,,,,,,,,,,,343.20212930001435,343.2177484999993,343.2177484999993,343.2177484999993,350.91095590000623,,,,350.92120109999087,350.9314554000157,350.9314554000157,350.9766221999889,350.9769285999937,350.993132100004,350.993132100004,350.993132100004,351.076381699997,351.427159999992,,,,up,7.681628599995747,None,,,,,space,0.41845319999265485,None,,,,,,,,,,,,,,,P114,001,2025-02-19_11h20.09.121,posner_endo_new1,2024.2.4,60.02678395229264,2025-02-19 11h20.16.395551 +0000,
cube_r.png,0.1,-0.31,invalid,36,36,0,up,4.648865700000897,None,space,0.40545409999322146,None,,,,,0,36,36,36,,,,,351.44273030001204,,,,,,,,,,,,,351.42740819999017,351.44273030001204,351.44273030001204,351.44273030001204,356.1058261000144,,,,356.1175734999997,356.12778070001514,356.12778070001514,356.17141149999225,356.1717707999924,356.18781110001146,356.18781110001146,356.18781110001146,356.27144410001347,356.60523400001694,,,,up,4.648865700000897,None,,,,,space,0.40545409999322146,None,,,,,,,,,,,,,,,P114,001,2025-02-19_11h20.09.121,posner_endo_new1,2024.2.4,60.02678395229264,2025-02-19 11h20.16.395551 +0000,
cube_l.png,0.1,0.31,invalid,37,37,0,up,4.295014000002993,None,space,0.31298940000124276,None,,,,,0,37,37,37,,,,,356.62074310000753,,,,,,,,,,,,,356.6055236000102,356.62074310000753,356.62074310000753,356.62074310000753,360.9177687999909,,,,360.9293547999987,360.9397486000089,360.9397486000089,360.983134900016,360.98348100000294,360.9995315000124,360.9995315000124,360.9995315000124,361.082680099993,361.31738880000194,,,,up,4.295014000002993,None,,,,,space,0.31298940000124276,None,,,,,,,,,,,,,,,P114,001,2025-02-19_11h20.09.121,posner_endo_new1,2024.2.4,60.02678395229264,2025-02-19 11h20.16.395551 +0000,
cube_l.png,0.1,0.31,invalid,38,38,0,up,6.118684699991718,None,space,0.3961935999977868,None,,,,,0,38,38,38,,,,,361.33260009999503,,,,,,,,,,,,,361.3176849000156,361.33260009999503,361.33260009999503,361.33260009999503,367.4608938000165,,,,367.4725210000179,367.48276040001656,367.48276040001656,367.52648910001153,367.52683550000074,367.5429344000004,367.5429344000004,367.5429344000004,367.6262657000043,367.94386840000516,,,,up,6.118684699991718,None,,,,,space,0.3961935999977868,None,,,,,,,,,,,,,,,P114,001,2025-02-19_11h20.09.121,posner_endo_new1,2024.2.4,60.02678395229264,2025-02-19 11h20.16.395551 +0000,
cube_r.png,0.1,0.31,valid,39,39,0,up,11.764254299981985,None,space,0.2843408000189811,None,,,,,0,39,39,39,,,,,367.9591303000052,,,,,,,,,,,,,367.94416750001255,367.9591303000052,367.9591303000052,367.9591303000052,379.73168960001203,,,,379.7435092999949,379.75381480000215,379.75381480000215,379.79727589999675,379.7976306999917,379.8137556000147,379.8137556000147,379.8137556000147,379.89694870001404,380.11467050001374,,,,up,11.764254299981985,None,,,,,space,0.2843408000189811,None,,,,,,,,,,,,,,,P114,001,2025-02-19_11h20.09.121,posner_endo_new1,2024.2.4,60.02678395229264,2025-02-19 11h20.16.395551 +0000,
cube_l.png,0.1,0.31,invalid,40,40,0,up,7.041847499989672,None,space,0.3876808000204619,None,,,,,0,40,40,40,,,,,380.13010249999934,,,,,,,,,,,,,380.11496750000515,380.13010249999934,380.13010249999934,380.13010249999934,387.17412189999595,,,,387.1858794,387.1961789999914,387.1961789999914,387.23961280001095,387.23996490001446,387.2561257999914,387.2561257999914,387.2561257999914,387.3393131000048,387.6567955999926,,,,up,7.041847499989672,None,,,,,space,0.3876808000204619,None,,,,,,,,,,,,,,,P114,001,2025-02-19_11h20.09.121,posner_endo_new1,2024.2.4,60.02678395229264,2025-02-19 11h20.16.395551 +0000,
cube_l.png,0.1,10,catch,41,41,0,up,3.6916142999834847,None,None,,,,,,,0,41,41,41,,,,,387.6723004000087,,,,,,,,,,,,,387.65707960000145,387.6723004000087,387.6723004000087,387.6723004000087,391.3700506000023,,,,391.38160700001754,391.3919792000088,391.3919792000088,391.4354009999952,391.4357471000112,391.4517468000122,391.4517468000122,391.4517468000122,391.5350713999942,394.44954249999137,,,,up,3.6916142999834847,None,393.5496664000093,394.4653374000045,394.4653374000045,394.4653374000045,None,,,,,,,,,,,,,,,,,P114,001,2025-02-19_11h20.09.121,posner_endo_new1,2024.2.4,60.02678395229264,2025-02-19 11h20.16.395551 +0000,
cube_l.png,0.1,-0.31,valid,42,42,0,up,1.3698490999813657,None,space,0.46145619999151677,None,,,,,0,42,42,42,,,,,394.4653374000045,,,,,,,,,,,,,394.4498087000102,394.4653374000045,394.4653374000045,394.4653374000045,395.848530999996,,,,395.8603077000007,395.8707287000143,395.8707287000143,395.9141825000115,395.91452990000835,395.9305961999926,395.9305961999926,395.9305961999926,396.0138186000113,396.39811969999573,,,,up,1.3698490999813657,None,,,,,space,0.46145619999151677,None,,,,,,,,,,,,,,,P114,001,2025-02-19_11h20.09.121,posner_endo_new1,2024.2.4,60.02678395229264,2025-02-19 11h20.16.395551 +0000,
cube_l.png,0.1,10,catch,43,43,0,up,3.7823976000072435,None,None,,,,,,,0,43,43,43,,,,,396.4133414000098,,,,,,,,,,,,,396.3984088000143,396.4133414000098,396.4133414000098,396.4133414000098,400.2107127000054,,,,400.2213233000075,400.2309335000173,400.2309335000173,400.27628700001515,400.276526200003,400.29268710000906,400.29268710000906,400.29268710000906,400.37602570001036,403.2902769999928,,,,up,3.7823976000072435,None,402.3907181000104,403.30646660001366,403.30646660001366,403.30646660001366,None,,,,,,,,,,,,,,,,,P114,001,2025-02-19_11h20.09.121,posner_endo_new1,2024.2.4,60.02678395229264,2025-02-19 11h20.16.395551 +0000,
cube_l.png,0.1,0.31,invalid,44,44,0,up,18.688977799989516,None,space,0.4201224999851547,None,,,,,0,44,44,44,,,,,403.30646660001366,,,,,,,,,,,,,403.2904475000105,403.30646660001366,403.30646660001366,403.30646660001366,422.0047821000044,,,,422.01189970000996,422.0235288999975,422.0235288999975,422.07077570000547,422.0709984000132,422.08743310000864,422.08743310000864,422.08743310000864,422.1540040000109,422.52084750001086,,,,up,18.688977799989516,None,,,,,space,0.4201224999851547,None,,,,,,,,,,,,,,,P114,001,2025-02-19_11h20.09.121,posner_endo_new1,2024.2.4,60.02678395229264,2025-02-19 11h20.16.395551 +0000,
cube_l.png,0.1,0.31,invalid,45,45,0,up,8.163051299983636,None,space,0.28533029998652637,None,,,,,0,45,45,45,,,,,422.5367167000077,,,,,,,,,,,,,422.5210145000019,422.5367167000077,422.5367167000077,422.5367167000077,430.71251949999714,,,,430.71864770000684,430.7304923000047,430.7304923000047,430.7783907999983,430.7788901000167,430.79480639999383,430.79480639999383,430.79480639999383,430.87802460000967,431.0963236000098,,,,up,8.163051299983636,None,,,,,space,0.28533029998652637,None,,,,,,,,,,,,,,,P114,001,2025-02-19_11h20.09.121,posner_endo_new1,2024.2.4,60.02678395229264,2025-02-19 11h20.16.395551 +0000,
cube_r.png,0.1,0.31,valid,46,46,0,up,5.932147099985741,None,space,0.39164610000443645,None,,,,,0,46,46,46,,,,,431.11116470000707,,,,,,,,,,,,,431.09674800001085,431.11116470000707,431.11116470000707,431.11116470000707,437.05636990000494,,,,437.06810619999305,437.07829490001313,437.07829490001313,437.1220220999967,437.1223731999926,437.13848680001684,437.13848680001684,437.13848680001684,437.22177979999105,437.5394048000162,,,,up,5.932147099985741,None,,,,,space,0.39164610000443645,None,,,,,,,,,,,,,,,P114,001,2025-02-19_11h20.09.121,posner_endo_new1,2024.2.4,60.02678395229264,2025-02-19 11h20.16.395551 +0000,
cube_l.png,0.1,-0.31,valid,47,47,0,up,5.792369700007839,None,space,0.37905980000505224,None,,,,,0,47,47,47,,,,,437.5546794999973,,,,,,,,,,,,,437.5396857000014,437.5546794999973,437.5546794999973,437.5546794999973,443.34992899998906,,,,443.3616066999966,443.3720047000097,443.3720047000097,443.4155449999962,443.4158948000113,443.4321084000112,443.4321084000112,443.4321084000112,443.5152910000179,443.81621409999207,,,,up,5.792369700007839,None,,,,,space,0.37905980000505224,None,,,,,,,,,,,,,,,P114,001,2025-02-19_11h20.09.121,posner_endo_new1,2024.2.4,60.02678395229264,2025-02-19 11h20.16.395551 +0000,
cube_r.png,0.1,-0.31,invalid,48,48,0,up,7.603882800001884,None,space,0.2554517999815289,None,,,,,0,48,48,48,,,,,443.8315952999983,,,,,,,,,,,,,443.8164978999994,443.8315952999983,443.8315952999983,443.8315952999983,451.4414994000108,,,,451.4489326000039,451.4601743000094,451.4601743000094,451.50724500001525,451.50749360001646,451.52386839999235,451.52386839999235,451.52386839999235,451.6069940000016,451.79121060000034,,,,up,7.603882800001884,None,,,,,space,0.2554517999815289,None,,,,,,,,,,,,,,,P114,001,2025-02-19_11h20.09.121,posner_endo_new1,2024.2.4,60.02678395229264,2025-02-19 11h20.16.395551 +0000,
cube_r.png,0.1,10,catch,49,49,0,up,12.87591929998598,None,space,0.2878004999947734,None,,,,,0,49,49,49,,,,,451.80705160001526,,,,,,,,,,,,,451.7914091999992,451.80705160001526,451.80705160001526,451.80705160001526,464.6945034000091,,,,464.7019879000145,464.7132891000074,464.7132891000074,464.7603732999996,464.76059940000414,464.77692289999686,464.77692289999686,464.77692289999686,464.8602024000138,465.07737199999974,,,,up,12.87591929998598,None,,,,,space,0.2878004999947734,None,,,,,,,,,,,,,,,P114,001,2025-02-19_11h20.09.121,posner_endo_new1,2024.2.4,60.02678395229264,2025-02-19 11h20.16.395551 +0000,
cube_l.png,0.1,-0.31,valid,50,50,0,up,4.478222400008235,None,space,0.34425009999540634,None,,,,,0,50,50,50,,,,,465.0932291999925,,,,,,,,,,,,,465.07754150000983,465.0932291999925,465.0932291999925,465.0932291999925,469.57292860001326,,,,469.5801415000169,469.59158050001133,469.59158050001133,469.63882260001265,469.63936329999706,469.65520999999717,469.65520999999717,469.65520999999717,469.7384275000077,470.0071358999994,,,,up,4.478222400008235,None,,,,,space,0.34425009999540634,None,,,,,,,,,,,,,,,P114,001,2025-02-19_11h20.09.121,posner_endo_new1,2024.2.4,60.02678395229264,2025-02-19 11h20.16.395551 +0000,
cube_l.png,0.1,-0.31,valid,51,51,0,up,6.078615700011142,None,space,0.49813150000409223,None,,,,,0,51,51,51,,,,,470.02147470001364,,,,,,,,,,,,,470.0076039000123,470.02147470001364,470.02147470001364,470.02147470001364,476.11716769999475,,,,476.13647389999824,476.1473074000096,476.1473074000096,476.18213229998946,476.1824761000171,476.1985399000114,476.1985399000114,476.1985399000114,476.2818047000037,476.69929439999396,,,,up,6.078615700011142,None,,,,,space,0.49813150000409223,None,,,,,,,,,,,,,,,P114,001,2025-02-19_11h20.09.121,posner_endo_new1,2024.2.4,60.02678395229264,2025-02-19 11h20.16.395551 +0000,
cube_r.png,0.1,-0.31,invalid,52,52,0,up,6.016821800003527,None,space,0.3800393999845255,None,,,,,0,52,52,52,,,,,476.71474200001103,,,,,,,,,,,,,476.69958700001007,476.71474200001103,476.71474200001103,476.71474200001103,482.74370660001296,,,,482.7628149999946,482.77414530000533,482.77414530000533,482.808709600009,482.80904019999434,482.8251915000146,482.8251915000146,482.8251915000146,482.9084914000123,483.20922360001714,,,,up,6.016821800003527,None,,,,,space,0.3800393999845255,None,,,,,,,,,,,,,,,P114,001,2025-02-19_11h20.09.121,posner_endo_new1,2024.2.4,60.02678395229264,2025-02-19 11h20.16.395551 +0000,
cube_l.png,0.1,-0.31,valid,53,53,0,up,7.491497899987735,None,space,0.3207811999891419,None,,,,,0,53,53,53,,,,,483.22472640001797,,,,,,,,,,,,,483.20949110001675,483.22472640001797,483.22472640001797,483.22472640001797,490.7182873999991,,,,490.7299549000163,490.7402510000102,490.7402510000102,490.7837853000092,490.7841350999952,490.8002897000115,490.8002897000115,490.8002897000115,490.88356059999205,491.1344391000166,,,,up,7.491497899987735,None,,,,,space,0.3207811999891419,None,,,,,,,,,,,,,,,P114,001,2025-02-19_11h20.09.121,posner_endo_new1,2024.2.4,60.02678395229264,2025-02-19 11h20.16.395551 +0000,
cube_r.png,0.1,10,catch,54,54,0,up,5.885234999994282,None,space,0.23776109999744222,None,,,,,0,54,54,54,,,,,491.1498907000059,,,,,,,,,,,,,491.13471869999194,491.1498907000059,491.1498907000059,491.1498907000059,497.0451766999904,,,,497.0568459999922,497.0672348999942,497.0672348999942,497.1107261000143,497.11106900000595,497.12729550001677,497.12729550001677,497.12729550001677,497.2104604000051,497.3781228000007,,,,up,5.885234999994282,None,,,,,space,0.23776109999744222,None,,,,,,,,,,,,,,,P114,001,2025-02-19_11h20.09.121,posner_endo_new1,2024.2.4,60.02678395229264,2025-02-19 11h20.16.395551 +0000,
cube_l.png,0.1,0.31,invalid,55,55,0,up,6.5694980999978725,None,space,0.34641750002629124,None,,,,,0,55,55,55,,,,,497.3936371000018,,,,,,,,,,,,,497.3784164999961,497.3936371000018,497.3936371000018,497.3936371000018,503.9714498000103,,,,503.9831625999941,503.9933934000146,503.9933934000146,504.03702670001076,504.037373500003,504.0534827999945,504.0534827999945,504.0534827999945,504.1366762999969,504.40436559999944,,,,up,6.5694980999978725,None,,,,,space,0.34641750002629124,None,,,,,,,,,,,,,,,P114,001,2025-02-19_11h20.09.121,posner_endo_new1,2024.2.4,60.02678395229264,2025-02-19 11h20.16.395551 +0000,
cube_l.png,0.1,-0.31,valid,56,56,0,up,6.479856899997685,None,space,0.3510510000050999,None,,,,,0,56,56,56,,,,,504.4197371999908,,,,,,,,,,,,,504.40464759999304,504.4197371999908,504.4197371999908,504.4197371999908,510.91433090000646,,,,510.9230053999927,510.93286999998963,510.93286999998963,510.9798535000009,510.9800908000034,510.9966973999981,510.9966973999981,510.9966973999981,511.0795488000149,511.3634352000081,,,,up,6.479856899997685,None,,,,,space,0.3510510000050999,None,,,,,,,,,,,,,,,P114,001,2025-02-19_11h20.09.121,posner_endo_new1,2024.2.4,60.02678395229264,2025-02-19 11h20.16.395551 +0000,
cube_r.png,0.1,0.31,valid,57,57,0,up,7.408129000017652,None,space,0.2799988000188023,None,,,,,0,57,57,57,,,,,511.3794496000046,,,,,,,,,,,,,511.3636162999901,511.3794496000046,511.3794496000046,511.3794496000046,518.7893352000101,,,,518.7963974000013,518.8081913999922,518.8081913999922,518.8550560000003,518.8552954999905,518.8716190000123,518.8716190000123,518.8716190000123,518.9547082000063,519.1554554000031,,,,up,7.408129000017652,None,,,,,space,0.2799988000188023,None,,,,,,,,,,,,,,,P114,001,2025-02-19_11h20.09.121,posner_endo_new1,2024.2.4,60.02678395229264,2025-02-19 11h20.16.395551 +0000,
cube_r.png,0.1,-0.31,invalid,58,58,0,up,6.423935999977402,None,space,0.30742080000345595,None,,,,,0,58,58,58,,,,,519.1714831000136,,,,,,,,,,,,,519.1556379999965,519.1714831000136,519.1714831000136,519.1714831000136,525.5990582999948,,,,525.6060953999986,525.617846100009,525.617846100009,525.6647939000104,525.6652943000081,525.6811731999915,525.6811731999915,525.6811731999915,525.7644572000136,525.9993668000097,,,,up,6.423935999977402,None,,,,,space,0.30742080000345595,None,,,,,,,,,,,,,,,P114,001,2025-02-19_11h20.09.121,posner_endo_new1,2024.2.4,60.02678395229264,2025-02-19 11h20.16.395551 +0000,
cube_l.png,0.1,0.31,invalid,59,59,0,up,6.4450680000009015,None,space,0.3084221000026446,None,,,,,0,59,59,59,,,,,526.0141987999959,,,,,,,,,,,,,525.9997919000161,526.0141987999959,526.0141987999959,526.0141987999959,532.4755720999965,,,,532.4871841999993,532.4971213999961,532.4971213999961,532.5412654000102,532.5416115999979,532.5576289000164,532.5576289000164,532.5576289000164,532.6410672999918,532.875263599999,,,,up,6.4450680000009015,None,,,,,space,0.3084221000026446,None,,,,,,,,,,,,,,,P114,001,2025-02-19_11h20.09.121,posner_endo_new1,2024.2.4,60.02678395229264,2025-02-19 11h20.16.395551 +0000,
,,,,,,,,,,,,,,,,,,,,,,,,,,,,,,,,,,,,,,,,,,,,,,,,,,,,,,,,,,,,,,,,,,,,,532.8754436000017,532.8905891999893,532.8905891999893,592.8959993000026,595.0951141999976,space,62.200806100008776,None,,,,,,,P114,001,2025-02-19_11h20.09.121,posner_endo_new1,2024.2.4,60.02678395229264,2025-02-19 11h20.16.395551 +0000,
,,,,,,,,,,,,,,,,,,,,,,,,,,,,,,,,,,595.095200700016,595.110474599991,598.1172165000171,598.0915361999942,,,,,,,,,,,,,,,,,,,,,,,,,,,,,,,,,,,,,,,,,,,,,,P114,001,2025-02-19_11h20.09.121,posner_endo_new1,2024.2.4,60.02678395229264,2025-02-19 11h20.16.395551 +0000,
cube_l.png,0.1,10,catch,0,0,0,down,4.990874299983261,None,None,,,,,,,,,,,0,0,0,0,598.1172165000171,,,,,,,,,,,,,598.1083452000166,598.1172165000171,598.1172165000171,598.1172165000171,603.1195527999953,,,,603.1257973999891,603.137275200017,603.137275200017,603.1855839999916,603.1858130999899,603.2022537000012,603.2022537000012,603.2022537000012,603.2688087999995,606.1997200000042,,,,,,,605.2834224000107,606.2157181999937,606.2157181999937,606.2157181999937,,,,,,,,,,,,down,4.990874299983261,None,None,,,P114,001,2025-02-19_11h20.09.121,posner_endo_new1,2024.2.4,60.02678395229264,2025-02-19 11h20.16.395551 +0000,
cube_l.png,0.1,10,catch,1,1,0,down,3.164400099980412,None,None,,,,,,,,,,,0,1,1,1,606.2157181999937,,,,,,,,,,,,,606.1999552999914,606.2157181999937,606.2157181999937,606.2157181999937,609.3969530999893,,,,609.4070360999904,609.4168298000004,609.4168298000004,609.4625135000097,609.4628210999945,609.4790945000132,609.4790945000132,609.4790945000132,609.5622490000096,612.4766206000058,,,,,,,611.5769965999934,612.492690300016,612.492690300016,612.492690300016,,,,,,,,,,,,down,3.164400099980412,None,None,,,P114,001,2025-02-19_11h20.09.121,posner_endo_new1,2024.2.4,60.02678395229264,2025-02-19 11h20.16.395551 +0000,
cube_l.png,0.1,0.31,invalid,2,2,0,down,5.295463400019798,None,space,0.5133255000109784,None,,,,,,,,,0,2,2,2,612.492690300016,,,,,,,,,,,,,612.4768560999946,612.492690300016,612.492690300016,612.492690300016,617.8049961999932,,,,617.8149867000175,617.8248028999951,617.8248028999951,617.8706133000087,617.870919900015,617.8871540999971,617.8871540999971,617.8871540999971,617.9703240999952,618.4043956999958,,,,,,,,,,,,,,,,,,,,,,down,5.295463400019798,None,space,0.5133255000109784,None,P114,001,2025-02-19_11h20.09.121,posner_endo_new1,2024.2.4,60.02678395229264,2025-02-19 11h20.16.395551 +0000,
cube_l.png,0.1,0.31,invalid,3,3,0,down,6.328167600004235,None,space,0.44850569998379797,None,,,,,,,,,0,3,3,3,618.4200280999939,,,,,,,,,,,,,618.4046498000098,618.4200280999939,618.4200280999939,618.4200280999939,624.7645550000016,,,,624.7744448000158,624.7845415000047,624.7845415000047,624.8302276000031,624.8305389000161,624.8467084000004,624.8467084000004,624.8467084000004,624.9299717000104,625.2975879000151,,,,,,,,,,,,,,,,,,,,,,down,6.328167600004235,None,space,0.44850569998379797,None,P114,001,2025-02-19_11h20.09.121,posner_endo_new1,2024.2.4,60.02678395229264,2025-02-19 11h20.16.395551 +0000,
cube_l.png,0.1,-0.31,valid,4,4,0,down,8.170524800021667,None,space,0.4000120999990031,None,,,,,,,,,0,4,4,4,625.3127899999963,,,,,,,,,,,,,625.297859400016,625.3127899999963,625.3127899999963,625.3127899999963,633.4888979000098,,,,633.4988887000072,633.5106937999954,633.5106937999954,633.5549778999994,633.5556458999927,633.5713308000122,633.5713308000122,633.5713308000122,633.6379405999905,633.9737259999965,,,,,,,,,,,,,,,,,,,,,,down,8.170524800021667,None,space,0.4000120999990031,None,P114,001,2025-02-19_11h20.09.121,posner_endo_new1,2024.2.4,60.02678395229264,2025-02-19 11h20.16.395551 +0000,
cube_r.png,0.1,-0.31,invalid,5,5,0,down,6.400070200004848,None,space,0.3966752999986056,None,,,,,,,,,0,5,5,5,633.9877930000075,,,,,,,,,,,,,633.9743306000018,633.9877930000075,633.9877930000075,633.9877930000075,640.4000155999966,,,,640.4234253999894,640.4357516000164,640.4357516000164,640.464565000002,640.4652434000163,640.4808979000081,640.4808979000081,640.4808979000081,640.5641892999993,640.883132100018,,,,,,,,,,,,,,,,,,,,,,down,6.400070200004848,None,space,0.3966752999986056,None,P114,001,2025-02-19_11h20.09.121,posner_endo_new1,2024.2.4,60.02678395229264,2025-02-19 11h20.16.395551 +0000,
cube_r.png,0.1,0.31,valid,6,6,0,down,8.066626399988309,None,space,0.2757129000092391,None,,,,,,,,,0,6,6,6,640.8973746999982,,,,,,,,,,,,,640.8837348000088,640.8973746999982,640.8973746999982,640.8973746999982,648.9730897000118,,,,648.982860499993,648.9930281999987,648.9930281999987,649.038796400011,649.0391260000179,649.0553808000113,649.0553808000113,649.0553808000113,649.1385345000017,649.3394243000075,,,,,,,,,,,,,,,,,,,,,,down,8.066626399988309,None,space,0.2757129000092391,None,P114,001,2025-02-19_11h20.09.121,posner_endo_new1,2024.2.4,60.02678395229264,2025-02-19 11h20.16.395551 +0000,
cube_r.png,0.1,-0.31,invalid,7,7,0,down,9.408592600026168,None,space,0.2941937999858055,None,,,,,,,,,0,7,7,7,649.3549564999994,,,,,,,,,,,,,649.3396763000055,649.3549564999994,649.3549564999994,649.3549564999994,658.779727599991,,,,658.7858777999936,658.7969331000058,658.7969331000058,658.8453807999904,658.8458935999952,658.8618033000093,658.8618033000093,658.8618033000093,658.9450643000018,659.1632255000004,,,,,,,,,,,,,,,,,,,,,,down,9.408592600026168,None,space,0.2941937999858055,None,P114,001,2025-02-19_11h20.09.121,posner_endo_new1,2024.2.4,60.02678395229264,2025-02-19 11h20.16.395551 +0000,
cube_l.png,0.1,-0.31,valid,8,8,0,down,7.8251915000146255,None,space,0.3213226000079885,None,,,,,,,,,0,8,8,8,659.1781667000032,,,,,,,,,,,,,659.1636715999921,659.1781667000032,659.1781667000032,659.1781667000032,667.0050658000109,,,,667.0138258000079,667.0236820999999,667.0236820999999,667.0704049000051,667.0706455000036,667.0867930999957,667.0867930999957,667.0867930999957,667.1702584000013,667.4207503999933,,,,,,,,,,,,,,,,,,,,,,down,7.8251915000146255,None,space,0.3213226000079885,None,P114,001,2025-02-19_11h20.09.121,posner_endo_new1,2024.2.4,60.02678395229264,2025-02-19 11h20.16.395551 +0000,
cube_r.png,0.1,-0.31,invalid,9,9,0,down,8.719011800014414,None,space,0.33150540001224726,None,,,,,,,,,0,9,9,9,667.4364833,,,,,,,,,,,,,667.4209357000072,667.4364833,667.4364833,667.4364833,676.1616339999891,,,,676.1687543000153,676.1804288999992,676.1804288999992,676.2278455999913,676.228070400015,676.2441738999914,676.2441738999914,676.2441738999914,676.3107740000123,676.578047499992,,,,,,,,,,,,,,,,,,,,,,down,8.719011800014414,None,space,0.33150540001224726,None,P114,001,2025-02-19_11h20.09.121,posner_endo_new1,2024.2.4,60.02678395229264,2025-02-19 11h20.16.395551 +0000,
cube_l.png,0.1,0.31,invalid,10,10,0,down,9.0588843000005,None,space,0.4485448999912478,None,,,,,,,,,0,10,10,10,676.5939375000016,,,,,,,,,,,,,676.5782212000049,676.5939375000016,676.5939375000016,676.5939375000016,685.6690741000057,,,,685.6806884999969,685.6909173000022,685.6909173000022,685.7346529999922,685.7350015999982,685.7510724000167,685.7510724000167,685.7510724000167,685.8344186999893,686.2019928999944,,,,,,,,,,,,,,,,,,,,,,down,9.0588843000005,None,space,0.4485448999912478,None,P114,001,2025-02-19_11h20.09.121,posner_endo_new1,2024.2.4,60.02678395229264,2025-02-19 11h20.16.395551 +0000,
cube_r.png,0.1,-0.31,invalid,11,11,0,down,6.970312599994941,None,space,0.5412141999986488,None,,,,,,,,,0,11,11,11,686.2173993999895,,,,,,,,,,,,,686.2022935000132,686.2173993999895,686.2173993999895,686.2173993999895,693.1946601000091,,,,693.2035473000142,693.2134487000003,693.2134487000003,693.2601111000113,693.2603614999971,693.2770120000059,693.2770120000059,693.2770120000059,693.3600059000019,693.827090900013,,,,,,,,,,,,,,,,,,,,,,down,6.970312599994941,None,space,0.5412141999986488,None,P114,001,2025-02-19_11h20.09.121,posner_endo_new1,2024.2.4,60.02678395229264,2025-02-19 11h20.16.395551 +0000,
cube_r.png,0.1,0.31,valid,12,12,0,down,10.984899100003531,None,space,0.29426530000637285,None,,,,,,,,,0,12,12,12,693.842871300003,,,,,,,,,,,,,693.8272920000018,693.842871300003,693.842871300003,693.842871300003,704.832521400007,,,,704.842124399991,704.8543773000129,704.8543773000129,704.8981168000028,704.8985507999896,704.9145854999952,704.9145854999952,704.9145854999952,704.9978339000081,705.2159019999963,,,,,,,,,,,,,,,,,,,,,,down,10.984899100003531,None,space,0.29426530000637285,None,P114,001,2025-02-19_11h20.09.121,posner_endo_new1,2024.2.4,60.02678395229264,2025-02-19 11h20.16.395551 +0000,
cube_l.png,0.1,10,catch,13,13,0,down,8.397379399975762,None,space,0.24488780001411214,None,,,,,,,,,0,13,13,13,705.2309154999966,,,,,,,,,,,,,705.216278900014,705.2309154999966,705.2309154999966,705.2309154999966,713.6404111000011,,,,713.6502054000157,713.6603432999982,713.6603432999982,713.7060423000075,713.7063476000039,713.7226519999967,713.7226519999967,713.7226519999967,713.7893202000123,713.9735728999949,,,,,,,,,,,,,,,,,,,,,,down,8.397379399975762,None,space,0.24488780001411214,None,P114,001,2025-02-19_11h20.09.121,posner_endo_new1,2024.2.4,60.02678395229264,2025-02-19 11h20.16.395551 +0000,
cube_r.png,0.1,-0.31,invalid,14,14,0,down,7.7510915999882855,None,space,0.3652132000133861,None,,,,,,,,,0,14,14,14,713.9889784000115,,,,,,,,,,,,,713.9738353000139,713.9889784000115,713.9889784000115,713.9889784000115,721.7486872000154,,,,721.7585173000116,721.7686715000018,721.7686715000018,721.814438500005,721.8147441000037,721.8309329999902,721.8309329999902,721.8309329999902,721.9141971000063,722.198254100018,,,,,,,,,,,,,,,,,,,,,,down,7.7510915999882855,None,space,0.3652132000133861,None,P114,001,2025-02-19_11h20.09.121,posner_endo_new1,2024.2.4,60.02678395229264,2025-02-19 11h20.16.395551 +0000,
cube_l.png,0.1,-0.31,valid,15,15,0,down,9.630119399982505,None,space,0.36242700001457706,None,,,,,,,,,0,15,15,15,722.2138490999932,,,,,,,,,,,,,722.1985054000106,722.2138490999932,722.2138490999932,722.2138490999932,731.8551031000097,,,,731.8650656999962,731.8752421000099,731.8752421000099,731.9207716000092,731.9210796999978,731.9372975000006,731.9372975000006,731.9372975000006,732.0205660999927,732.3046566999983,,,,,,,,,,,,,,,,,,,,,,down,9.630119399982505,None,space,0.36242700001457706,None,P114,001,2025-02-19_11h20.09.121,posner_endo_new1,2024.2.4,60.02678395229264,2025-02-19 11h20.16.395551 +0000,
cube_r.png,0.1,10,catch,16,16,0,down,5.499551399989286,None,space,0.2682959999947343,None,,,,,,,,,0,16,16,16,732.3202588999993,,,,,,,,,,,,,732.3049080999917,732.3202588999993,732.3202588999993,732.3202588999993,737.8323944000003,,,,737.8423083999951,737.8523940000159,737.8523940000159,737.8980351999926,737.8983425000042,737.9145345000143,737.9145345000143,737.9145345000143,737.9977240000153,738.1986801000021,,,,,,,,,,,,,,,,,,,,,,down,5.499551399989286,None,space,0.2682959999947343,None,P114,001,2025-02-19_11h20.09.121,posner_endo_new1,2024.2.4,60.02678395229264,2025-02-19 11h20.16.395551 +0000,
cube_r.png,0.1,10,catch,17,17,0,down,8.190693600015948,None,space,0.3310598999960348,None,,,,,,,,,0,17,17,17,738.2142555000028,,,,,,,,,,,,,738.1989602000103,738.2142555000028,738.2142555000028,738.2142555000028,746.4071029000042,,,,746.4168690000079,746.427056799992,746.427056799992,746.4726720000035,746.4729847999988,746.4891554999922,746.4891554999922,746.4891554999922,746.5723603999941,746.8231937999954,,,,,,,,,,,,,,,,,,,,,,down,8.190693600015948,None,space,0.3310598999960348,None,P114,001,2025-02-19_11h20.09.121,posner_endo_new1,2024.2.4,60.02678395229264,2025-02-19 11h20.16.395551 +0000,
cube_l.png,0.1,0.31,invalid,18,18,0,down,7.9249778000230435,None,space,0.42652219999581575,None,,,,,,,,,0,18,18,18,746.8387549000036,,,,,,,,,,,,,746.8234476000071,746.8387549000036,746.8387549000036,746.8387549000036,754.7650199999916,,,,754.774856700009,754.78504290001,754.78504290001,754.8307115999924,754.8310180999979,754.8472653999925,754.8472653999925,754.8472653999925,754.9304856999952,755.2811459999939,,,,,,,,,,,,,,,,,,,,,,down,7.9249778000230435,None,space,0.42652219999581575,None,P114,001,2025-02-19_11h20.09.121,posner_endo_new1,2024.2.4,60.02678395229264,2025-02-19 11h20.16.395551 +0000,
cube_l.png,0.1,10,catch,19,19,0,down,7.546788599982392,None,space,0.3098146000120323,None,,,,,,,,,0,19,19,19,755.2968220000039,,,,,,,,,,,,,755.2813957000035,755.2968220000039,755.2968220000039,755.2968220000039,762.8566242000088,,,,762.8665643999993,762.8767145000165,762.8767145000165,762.922436599998,762.9227484000148,762.9389415000041,762.9389415000041,762.9389415000041,763.0221787999908,763.2563642000023,,,,,,,,,,,,,,,,,,,,,,down,7.546788599982392,None,space,0.3098146000120323,None,P114,001,2025-02-19_11h20.09.121,posner_endo_new1,2024.2.4,60.02678395229264,2025-02-19 11h20.16.395551 +0000,
cube_l.png,0.1,0.31,invalid,20,20,0,down,8.30776200001128,None,space,0.5188839999900665,None,,,,,,,,,0,20,20,20,763.2719677000132,,,,,,,,,,,,,763.2566275999998,763.2719677000132,763.2719677000132,763.2719677000132,771.5813492000161,,,,771.5905194999941,771.6001412000041,771.6001412000041,771.6470058000123,771.6472420000064,771.6634186000156,771.6634186000156,771.6634186000156,771.7467669000034,772.1969188000076,,,,,,,,,,,,,,,,,,,,,,down,8.30776200001128,None,space,0.5188839999900665,None,P114,001,2025-02-19_11h20.09.121,posner_endo_new1,2024.2.4,60.02678395229264,2025-02-19 11h20.16.395551 +0000,
cube_l.png,0.1,-0.31,valid,21,21,0,down,6.894815700012259,None,space,0.3375782999792136,None,,,,,,,,,0,21,21,21,772.2128746999952,,,,,,,,,,,,,772.197090200003,772.2128746999952,772.2128746999952,772.2128746999952,779.1232127000112,,,,779.1296364000009,779.1412714000035,779.1412714000035,779.1891120999935,779.1896102000028,779.2055276000174,779.2055276000174,779.2055276000174,779.288782299991,779.5565952000034,,,,,,,,,,,,,,,,,,,,,,down,6.894815700012259,None,space,0.3375782999792136,None,P114,001,2025-02-19_11h20.09.121,posner_endo_new1,2024.2.4,60.02678395229264,2025-02-19 11h20.16.395551 +0000,
cube_r.png,0.1,0.31,valid,22,22,0,down,4.344252899987623,None,space,0.5442003000061959,None,,,,,,,,,0,22,22,22,779.5719278000179,,,,,,,,,,,,,779.556886300008,779.5719278000179,779.5719278000179,779.5719278000179,783.918731200014,,,,783.9303980999975,783.9407213999948,783.9407213999948,783.9843863999995,783.9847306000011,784.0008351000142,784.0008351000142,784.0008351000142,784.0839488999918,784.5515544000082,,,,,,,,,,,,,,,,,,,,,,down,4.344252899987623,None,space,0.5442003000061959,None,P114,001,2025-02-19_11h20.09.121,posner_endo_new1,2024.2.4,60.02678395229264,2025-02-19 11h20.16.395551 +0000,
cube_r.png,0.1,-0.31,invalid,23,23,0,down,5.269736300018849,None,space,0.5183881999982987,None,,,,,,,,,0,23,23,23,784.5668302999984,,,,,,,,,,,,,784.5518579999916,784.5668302999984,784.5668302999984,784.5668302999984,789.8460018000042,,,,789.8576381000166,789.8680107000109,789.8680107000109,789.9115043999918,789.9118552000145,789.9281059000059,789.9281059000059,789.9281059000059,790.011338500015,790.4620149999973,,,,,,,,,,,,,,,,,,,,,,down,5.269736300018849,None,space,0.5183881999982987,None,P114,001,2025-02-19_11h20.09.121,posner_endo_new1,2024.2.4,60.02678395229264,2025-02-19 11h20.16.395551 +0000,
cube_r.png,0.1,0.31,valid,24,24,0,down,5.950658599991584,None,space,0.5526731999998447,None,,,,,,,,,0,24,24,24,790.4775051000179,,,,,,,,,,,,,790.462305699999,790.4775051000179,790.4775051000179,790.4775051000179,796.43930920001,,,,796.4510437000135,796.4612855000014,796.4612855000014,796.5048687999952,796.5052255000046,796.521370500006,796.521370500006,796.521370500006,796.6045620999939,797.088631999999,,,,,,,,,,,,,,,,,,,,,,down,5.950658599991584,None,space,0.5526731999998447,None,P114,001,2025-02-19_11h20.09.121,posner_endo_new1,2024.2.4,60.02678395229264,2025-02-19 11h20.16.395551 +0000,
cube_r.png,0.1,-0.31,invalid,25,25,0,down,5.763946699997177,None,space,0.6411744000215549,None,,,,,,,,,0,25,25,25,797.10407880001,,,,,,,,,,,,,797.0889510000125,797.10407880001,797.10407880001,797.10407880001,802.8826244999946,,,,802.8942707999959,802.904821700009,802.904821700009,802.948224599997,802.9485701000085,802.9647710999998,802.9647710999998,802.9647710999998,803.0479990000022,803.6153101999953,,,,,,,,,,,,,,,,,,,,,,down,5.763946699997177,None,space,0.6411744000215549,None,P114,001,2025-02-19_11h20.09.121,posner_endo_new1,2024.2.4,60.02678395229264,2025-02-19 11h20.16.395551 +0000,
cube_l.png,0.1,-0.31,valid,26,26,0,down,10.774227999994764,None,space,0.36822279999614693,None,,,,,,,,,0,26,26,26,803.6307452000037,,,,,,,,,,,,,803.6156081999943,803.6307452000037,803.6307452000037,803.6307452000037,814.4210040000034,,,,814.4315613000072,814.4412140999921,814.4412140999921,814.486489700008,814.4867349000124,814.502937799989,814.502937799989,814.502937799989,814.5860987000051,814.8869277999911,,,,,,,,,,,,,,,,,,,,,,down,10.774227999994764,None,space,0.36822279999614693,None,P114,001,2025-02-19_11h20.09.121,posner_endo_new1,2024.2.4,60.02678395229264,2025-02-19 11h20.16.395551 +0000,
cube_r.png,0.1,0.31,valid,27,27,0,down,5.517537900013849,None,space,0.3097655999881681,None,,,,,,,,,0,27,27,27,814.9025898000109,,,,,,,,,,,,,814.887114800018,814.9025898000109,814.9025898000109,814.9025898000109,820.4309731000103,,,,820.4380489000177,820.4498969000124,820.4498969000124,820.4971029000008,820.4973311999929,820.5134155999986,820.5134155999986,820.5134155999986,820.5800303000142,820.8304913000029,,,,,,,,,,,,,,,,,,,,,,down,5.517537900013849,None,space,0.3097655999881681,None,P114,001,2025-02-19_11h20.09.121,posner_endo_new1,2024.2.4,60.02678395229264,2025-02-19 11h20.16.395551 +0000,
cube_r.png,0.1,10,catch,28,28,0,down,2.5980983000190463,None,None,,,,,,,,,,,0,28,28,28,820.84638979999,,,,,,,,,,,,,820.830664100009,820.84638979999,820.84638979999,820.84638979999,823.4618806999933,,,,823.47916670001,823.4895917999966,823.4895917999966,823.5271273000108,823.5274131000042,823.5437985000026,823.5437985000026,823.5437985000026,823.6264451000025,826.5413629999966,,,,,,,825.6415748000145,826.5572442999983,826.5572442999983,826.5572442999983,,,,,,,,,,,,down,2.5980983000190463,None,None,,,P114,001,2025-02-19_11h20.09.121,posner_endo_new1,2024.2.4,60.02678395229264,2025-02-19 11h20.16.395551 +0000,
cube_r.png,0.1,0.31,valid,29,29,0,down,0.6788553999795113,None,space,1.0585658999916632,None,,,,,,,,,0,29,29,29,826.5572442999983,,,,,,,,,,,,,826.5416420999973,826.5572442999983,826.5572442999983,826.5572442999983,827.2410959000117,,,,827.252630300005,827.2629575000028,827.2629575000028,827.3067393999954,827.3070904999913,827.3232525000058,827.3232525000058,827.3232525000058,827.4063966000103,828.3900657999911,,,,,,,,,,,,,,,,,,,,,,down,0.6788553999795113,None,space,1.0585658999916632,None,P114,001,2025-02-19_11h20.09.121,posner_endo_new1,2024.2.4,60.02678395229264,2025-02-19 11h20.16.395551 +0000,
cube_r.png,0.1,0.31,valid,30,30,0,down,9.102975299989339,None,space,0.25415600000997074,None,,,,,,,,,0,30,30,30,828.4054078999907,,,,,,,,,,,,,828.3903558000166,828.4054078999907,828.4054078999907,828.4054078999907,837.5140930000052,,,,837.5256208000064,837.535907500016,837.535907500016,837.5795425999968,837.5798873000022,837.59602550001,837.59602550001,837.59602550001,837.6791533000069,837.8636621999904,,,,,,,,,,,,,,,,,,,,,,down,9.102975299989339,None,space,0.25415600000997074,None,P114,001,2025-02-19_11h20.09.121,posner_endo_new1,2024.2.4,60.02678395229264,2025-02-19 11h20.16.395551 +0000,
cube_l.png,0.1,-0.31,valid,31,31,0,down,7.260933999990812,None,space,0.30979619998834096,None,,,,,,,,,0,31,31,31,837.8789820999955,,,,,,,,,,,,,837.8639514000097,837.8789820999955,837.8789820999955,837.8789820999955,845.1562364000129,,,,845.1678237000015,845.1780916000134,845.1780916000134,845.2218514000124,845.2222086999973,845.2382762999914,845.2382762999914,845.2382762999914,845.3215262000158,845.5559588000178,,,,,,,,,,,,,,,,,,,,,,down,7.260933999990812,None,space,0.30979619998834096,None,P114,001,2025-02-19_11h20.09.121,posner_endo_new1,2024.2.4,60.02678395229264,2025-02-19 11h20.16.395551 +0000,
cube_r.png,0.1,0.31,valid,32,32,0,down,9.09012690000236,None,space,0.5328862999740522,None,,,,,,,,,0,32,32,32,845.5712085000123,,,,,,,,,,,,,845.5562587000022,845.5712085000123,845.5712085000123,845.5712085000123,854.6631216999958,,,,854.6747941999929,854.6851572000014,854.6851572000014,854.7286736000096,854.7290177000104,854.7451757999952,854.7451757999952,854.7451757999952,854.8284386000014,855.2794902000169,,,,,,,,,,,,,,,,,,,,,,down,9.09012690000236,None,space,0.5328862999740522,None,P114,001,2025-02-19_11h20.09.121,posner_endo_new1,2024.2.4,60.02678395229264,2025-02-19 11h20.16.395551 +0000,
cube_r.png,0.1,-0.31,invalid,33,33,0,down,8.54264480000711,None,space,1.0871097999915946,None,,,,,,,,,0,33,33,33,855.2946748000104,,,,,,,,,,,,,855.2797828000039,855.2946748000104,855.2946748000104,855.2946748000104,863.8537417000043,,,,863.8652654000034,863.875209299993,863.875209299993,863.9193567000038,863.9197041000007,863.9357514000149,863.9357514000149,863.9357514000149,864.0190880000009,865.0359118999913,,,,,,,,,,,,,,,,,,,,,,down,8.54264480000711,None,space,1.0871097999915946,None,P114,001,2025-02-19_11h20.09.121,posner_endo_new1,2024.2.4,60.02678395229264,2025-02-19 11h20.16.395551 +0000,
cube_r.png,0.1,10,catch,34,34,0,down,2.2490070999774616,None,None,,,,,,,,,,,0,34,34,34,865.0512969999982,,,,,,,,,,,,,865.0362101999926,865.0512969999982,865.0512969999982,865.0512969999982,867.3168206000119,,,,867.3285328999918,867.3384668999934,867.3384668999934,867.3824494,867.3827948000107,867.3989369999908,867.3989369999908,867.3989369999908,867.4821929000027,870.3965596999915,,,,,,,869.4968412000162,870.4126764000102,870.4126764000102,870.4126764000102,,,,,,,,,,,,down,2.2490070999774616,None,None,,,P114,001,2025-02-19_11h20.09.121,posner_endo_new1,2024.2.4,60.02678395229264,2025-02-19 11h20.16.395551 +0000,
cube_r.png,0.1,0.31,valid,35,35,0,down,3.591238199995132,None,space,0.3016760000027716,None,,,,,,,,,0,35,35,35,870.4126764000102,,,,,,,,,,,,,870.3968290000048,870.4126764000102,870.4126764000102,870.4126764000102,874.0100860999955,,,,874.0216368999972,874.032025499997,874.032025499997,874.0756454000075,874.0759980000148,874.0920721000002,874.0920721000002,874.0920721000002,874.1752945999906,874.409707999992,,,,,,,,,,,,,,,,,,,,,,down,3.591238199995132,None,space,0.3016760000027716,None,P114,001,2025-02-19_11h20.09.121,posner_endo_new1,2024.2.4,60.02678395229264,2025-02-19 11h20.16.395551 +0000,
cube_r.png,0.1,-0.31,invalid,36,36,0,down,8.554834400012624,None,space,0.37969169998541474,None,,,,,,,,,0,36,36,36,874.4250992000161,,,,,,,,,,,,,874.4100039000041,874.4250992000161,874.4250992000161,874.4250992000161,882.9842637999973,,,,882.9958409999963,883.0061012000078,883.0061012000078,883.0498629999929,883.0502092000097,883.0662579000054,883.0662579000054,883.0662579000054,883.1494789000135,883.4506578000146,,,,,,,,,,,,,,,,,,,,,,down,8.554834400012624,None,space,0.37969169998541474,None,P114,001,2025-02-19_11h20.09.121,posner_endo_new1,2024.2.4,60.02678395229264,2025-02-19 11h20.16.395551 +0000,
cube_l.png,0.1,0.31,invalid,37,37,0,down,7.394595199992182,None,space,0.25097950000781566,None,,,,,,,,,0,37,37,37,883.4658037000045,,,,,,,,,,,,,883.450954400003,883.4658037000045,883.4658037000045,883.4658037000045,890.8764904999989,,,,890.8879980999918,890.8984176999948,890.8984176999948,890.941748000012,890.9420924000151,890.9581864000065,890.9581864000065,890.9581864000065,891.0414091999992,891.2258398999984,,,,,,,,,,,,,,,,,,,,,,down,7.394595199992182,None,space,0.25097950000781566,None,P114,001,2025-02-19_11h20.09.121,posner_endo_new1,2024.2.4,60.02678395229264,2025-02-19 11h20.16.395551 +0000,
cube_l.png,0.1,0.31,invalid,38,38,0,down,8.203009800025029,None,space,0.3373360999976285,None,,,,,,,,,0,38,38,38,891.2413150999928,,,,,,,,,,,,,891.2261306,891.2413150999928,891.2413150999928,891.2413150999928,899.4507436999993,,,,899.462271299999,899.4724481000158,899.4724481000158,899.5163118999917,899.5166665000143,899.5328280999966,899.5328280999966,899.5328280999966,899.6159703000158,899.8835660000041,,,,,,,,,,,,,,,,,,,,,,down,8.203009800025029,None,space,0.3373360999976285,None,P114,001,2025-02-19_11h20.09.121,posner_endo_new1,2024.2.4,60.02678395229264,2025-02-19 11h20.16.395551 +0000,
cube_r.png,0.1,0.31,valid,39,39,0,down,7.000671399990097,None,space,0.2087255000078585,None,,,,,,,,,0,39,39,39,899.898989600013,,,,,,,,,,,,,899.883857000008,899.898989600013,899.898989600013,899.898989600013,906.9096882000158,,,,906.9213005999918,906.9317418000137,906.9317418000137,906.975336500007,906.9756857999892,906.9917681000079,906.9917681000079,906.9917681000079,907.0751219000085,907.2094840999926,,,,,,,,,,,,,,,,,,,,,,down,7.000671399990097,None,space,0.2087255000078585,None,P114,001,2025-02-19_11h20.09.121,posner_endo_new1,2024.2.4,60.02678395229264,2025-02-19 11h20.16.395551 +0000,
cube_l.png,0.1,0.31,invalid,40,40,0,down,4.3955688000132795,None,space,0.35090889999992214,None,,,,,,,,,0,40,40,40,907.2248928000045,,,,,,,,,,,,,907.2097792999994,907.2248928000045,907.2248928000045,907.2248928000045,911.6218108000176,,,,911.6319767000095,911.6416883000056,911.6416883000056,911.6871507999895,911.687388499995,911.7036793000007,911.7036793000007,911.7036793000007,911.7869808000105,912.0708588999987,,,,,,,,,,,,,,,,,,,,,,down,4.3955688000132795,None,space,0.35090889999992214,None,P114,001,2025-02-19_11h20.09.121,posner_endo_new1,2024.2.4,60.02678395229264,2025-02-19 11h20.16.395551 +0000,
cube_l.png,0.1,10,catch,41,41,0,down,2.693466199998511,None,None,,,,,,,,,,,0,41,41,41,912.0867421000148,,,,,,,,,,,,,912.0710454999935,912.0867421000148,912.0867421000148,912.0867421000148,914.7848308999965,,,,914.79175080001,914.8032707000093,914.8032707000093,914.8504842999973,914.8507122000156,914.8671032999991,914.8671032999991,914.8671032999991,914.950409800018,917.8646307000017,,,,,,,916.9650971000083,917.880696200009,917.880696200009,917.880696200009,,,,,,,,,,,,down,2.693466199998511,None,None,,,P114,001,2025-02-19_11h20.09.121,posner_endo_new1,2024.2.4,60.02678395229264,2025-02-19 11h20.16.395551 +0000,
cube_l.png,0.1,-0.31,valid,42,42,0,down,2.619137800007593,None,space,0.30855059999157675,None,,,,,,,,,0,42,42,42,917.880696200009,,,,,,,,,,,,,917.8647915000038,917.880696200009,917.880696200009,917.880696200009,920.5120411000098,,,,920.5180622999906,920.5299774000014,920.5299774000014,920.5780727000092,920.5782982000092,920.5945354000141,920.5945354000141,920.5945354000141,920.6612810000079,920.9118616000051,,,,,,,,,,,,,,,,,,,,,,down,2.619137800007593,None,space,0.30855059999157675,None,P114,001,2025-02-19_11h20.09.121,posner_endo_new1,2024.2.4,60.02678395229264,2025-02-19 11h20.16.395551 +0000,
cube_l.png,0.1,10,catch,43,43,0,down,6.948659099987708,None,None,,,,,,,,,,,0,43,43,43,920.927490800008,,,,,,,,,,,,,920.9120335000043,920.927490800008,920.927490800008,920.927490800008,927.8880910000007,,,,927.897990700003,927.9080604999908,927.9080604999908,927.9538634000055,927.9541792999953,927.9702522000007,927.9702522000007,927.9702522000007,928.0535168999922,930.967842699989,,,,,,,930.0682171999943,930.983940200007,930.983940200007,930.983940200007,,,,,,,,,,,,down,6.948659099987708,None,None,,,P114,001,2025-02-19_11h20.09.121,posner_endo_new1,2024.2.4,60.02678395229264,2025-02-19 11h20.16.395551 +0000,
cube_l.png,0.1,0.31,invalid,44,44,0,down,5.067995999997947,None,space,0.3715976999956183,None,,,,,,,,,0,44,44,44,930.983940200007,,,,,,,,,,,,,930.968080199993,930.983940200007,930.983940200007,930.983940200007,936.0631737000076,,,,936.0732081000169,936.0831993999891,936.0831993999891,936.1289687000099,936.1292745000101,936.1454465000133,936.1454465000133,936.1454465000133,936.2286980999925,936.5295216999948,,,,,,,,,,,,,,,,,,,,,,down,5.067995999997947,None,space,0.3715976999956183,None,P114,001,2025-02-19_11h20.09.121,posner_endo_new1,2024.2.4,60.02678395229264,2025-02-19 11h20.16.395551 +0000,
cube_l.png,0.1,0.31,invalid,45,45,0,down,8.163021900021704,None,space,0.41958769998745993,None,,,,,,,,,0,45,45,45,936.5449100999977,,,,,,,,,,,,,936.5297749000019,936.5449100999977,936.5449100999977,936.5449100999977,944.7209837000119,,,,944.7307522000046,944.7409184999997,944.7409184999997,944.786694200011,944.7870050999918,944.8031647000171,944.8031647000171,944.8031647000171,944.8864782000019,945.2370454999909,,,,,,,,,,,,,,,,,,,,,,down,8.163021900021704,None,space,0.41958769998745993,None,P114,001,2025-02-19_11h20.09.121,posner_endo_new1,2024.2.4,60.02678395229264,2025-02-19 11h20.16.395551 +0000,
cube_r.png,0.1,0.31,valid,46,46,0,down,5.839908699999796,None,space,0.7904121000028681,None,,,,,,,,,0,46,46,46,945.2525588000135,,,,,,,,,,,,,945.2372958000051,945.2525588000135,945.2525588000135,945.2525588000135,951.097754699993,,,,951.1076528000121,951.1177320000133,951.1177320000133,951.1634834000142,951.1637896999891,951.180005000002,951.180005000002,951.180005000002,951.2632356999966,951.9802420999913,,,,,,,,,,,,,,,,,,,,,,down,5.839908699999796,None,space,0.7904121000028681,None,P114,001,2025-02-19_11h20.09.121,posner_endo_new1,2024.2.4,60.02678395229264,2025-02-19 11h20.16.395551 +0000,
cube_l.png,0.1,-0.31,valid,47,47,0,down,8.672207900002832,None,space,0.3844680000038352,None,,,,,,,,,0,47,47,47,951.9957501000026,,,,,,,,,,,,,951.9804966000083,951.9957501000026,951.9957501000026,951.9957501000026,960.6711880000075,,,,960.6772440999921,960.6882617000083,960.6882617000083,960.7369450000115,960.7374453000084,960.7533598000009,960.7533598000009,960.7533598000009,960.836606900004,961.1547785000002,,,,,,,,,,,,,,,,,,,,,,down,8.672207900002832,None,space,0.3844680000038352,None,P114,001,2025-02-19_11h20.09.121,posner_endo_new1,2024.2.4,60.02678395229264,2025-02-19 11h20.16.395551 +0000,
cube_r.png,0.1,-0.31,invalid,48,48,0,down,5.250418600015109,None,space,0.33567510001012124,None,,,,,,,,,0,48,48,48,961.1696386999974,,,,,,,,,,,,,961.1552264000056,961.1696386999974,961.1696386999974,961.1696386999974,966.432595899998,,,,966.4500604000059,966.4609971000173,966.4609971000173,966.4977404999954,966.498250100005,966.5141734000063,966.5141734000063,966.5141734000063,966.5974350000033,966.8655395999958,,,,,,,,,,,,,,,,,,,,,,down,5.250418600015109,None,space,0.33567510001012124,None,P114,001,2025-02-19_11h20.09.121,posner_endo_new1,2024.2.4,60.02678395229264,2025-02-19 11h20.16.395551 +0000,
cube_r.png,0.1,10,catch,49,49,0,down,4.66772110000602,None,None,,,,,,,,,,,0,49,49,49,966.8804314000008,,,,,,,,,,,,,966.8659753999964,966.8804314000008,966.8804314000008,966.8804314000008,971.5606724999961,,,,971.5721750000084,971.582387100003,971.582387100003,971.6259502999892,971.626317199989,971.6424712000007,971.6424712000007,971.6424712000007,971.7257215999998,974.6399829000002,,,,,,,973.7401557000121,974.6560323000012,974.6560323000012,974.6560323000012,,,,,,,,,,,,down,4.66772110000602,None,None,,,P114,001,2025-02-19_11h20.09.121,posner_endo_new1,2024.2.4,60.02678395229264,2025-02-19 11h20.16.395551 +0000,
cube_l.png,0.1,-0.31,valid,50,50,0,down,9.788668599998346,None,space,0.3822687999927439,None,,,,,,,,,0,50,50,50,974.6560323000012,,,,,,,,,,,,,974.6402572999941,974.6560323000012,974.6560323000012,974.6560323000012,984.4473147999961,,,,984.4588809999987,984.469234499993,984.469234499993,984.5127591000055,984.5131054999947,984.5292834000138,984.5292834000138,984.5292834000138,984.6124871000065,984.9136843000015,,,,,,,,,,,,,,,,,,,,,,down,9.788668599998346,None,space,0.3822687999927439,None,P114,001,2025-02-19_11h20.09.121,posner_endo_new1,2024.2.4,60.02678395229264,2025-02-19 11h20.16.395551 +0000,
cube_l.png,0.1,-0.31,valid,51,51,0,down,6.995280500006629,None,space,0.5953108000103384,None,,,,,,,,,0,51,51,51,984.9288132000074,,,,,,,,,,,,,984.9139740999963,984.9288132000074,984.9288132000074,984.9288132000074,991.9395457000064,,,,991.951172000001,991.961446900008,991.961446900008,992.005052499997,992.0053979000077,992.0216305000067,992.0216305000067,992.0216305000067,992.1048827999912,992.6221753999998,,,,,,,,,,,,,,,,,,,,,,down,6.995280500006629,None,space,0.5953108000103384,None,P114,001,2025-02-19_11h20.09.121,posner_endo_new1,2024.2.4,60.02678395229264,2025-02-19 11h20.16.395551 +0000,
cube_r.png,0.1,-0.31,invalid,52,52,0,down,7.278450300014811,None,space,0.3154653999954462,None,,,,,,,,,0,52,52,52,992.6376544999948,,,,,,,,,,,,,992.6224664000038,992.6376544999948,992.6376544999948,992.6376544999948,999.931416700012,,,,999.9430832999933,999.9535745000176,999.9535745000176,999.9969093000109,999.9972589999961,1000.0133742000035,1000.0133742000035,1000.0133742000035,1000.0967426999996,1000.3310360999894,,,,,,,,,,,,,,,,,,,,,,down,7.278450300014811,None,space,0.3154653999954462,None,P114,001,2025-02-19_11h20.09.121,posner_endo_new1,2024.2.4,60.02678395229264,2025-02-19 11h20.16.395551 +0000,
cube_l.png,0.1,-0.31,valid,53,53,0,down,10.273508599988418,None,space,0.35974700000952,None,,,,,,,,,0,53,53,53,1000.3464268000098,,,,,,,,,,,,,1000.3313266999903,1000.3464268000098,1000.3464268000098,1000.3464268000098,1010.6370129999996,,,,1010.6487630000047,1010.6587367999891,1010.6587367999891,1010.7027252000116,1010.7030770000129,1010.719247800007,1010.719247800007,1010.719247800007,1010.8023985000036,1011.0866603000031,,,,,,,,,,,,,,,,,,,,,,down,10.273508599988418,None,space,0.35974700000952,None,P114,001,2025-02-19_11h20.09.121,posner_endo_new1,2024.2.4,60.02678395229264,2025-02-19 11h20.16.395551 +0000,
cube_r.png,0.1,10,catch,54,54,0,down,6.502384699997492,None,None,,,,,,,,,,,0,54,54,54,1011.1021958999918,,,,,,,,,,,,,1011.0869576999976,1011.1021958999918,1011.1021958999918,1011.1021958999918,1017.6133225999947,,,,1017.6225462000002,1017.6323087000055,1017.6323087000055,1017.6787874000147,1017.6790431000118,1017.6953505999991,1017.6953505999991,1017.6953505999991,1017.7788577000028,1020.692849300016,,,,,,,1019.7934023000125,1020.7089751000167,1020.7089751000167,1020.7089751000167,,,,,,,,,,,,down,6.502384699997492,None,None,,,P114,001,2025-02-19_11h20.09.121,posner_endo_new1,2024.2.4,60.02678395229264,2025-02-19 11h20.16.395551 +0000,
cube_l.png,0.1,0.31,invalid,55,55,0,down,7.6636416999972425,None,space,0.4611272999900393,None,,,,,,,,,0,55,55,55,1020.7089751000167,,,,,,,,,,,,,1020.6930231000006,1020.7089751000167,1020.7089751000167,1020.7089751000167,1028.3852237999963,,,,1028.3923158000107,1028.4040136999974,1028.4040136999974,1028.4512331000005,1028.451475800015,1028.4678492000094,1028.4678492000094,1028.4678492000094,1028.5344146999996,1028.9346480999957,,,,,,,,,,,,,,,,,,,,,,down,7.6636416999972425,None,space,0.4611272999900393,None,P114,001,2025-02-19_11h20.09.121,posner_endo_new1,2024.2.4,60.02678395229264,2025-02-19 11h20.16.395551 +0000,
cube_l.png,0.1,-0.31,valid,56,56,0,down,3.437512100004824,None,space,0.382457700005034,None,,,,,,,,,0,56,56,56,1028.9506135999982,,,,,,,,,,,,,1028.934831599996,1028.9506135999982,1028.9506135999982,1028.9506135999982,1032.3980580999923,,,,1032.404993700009,1032.4166950999934,1032.4166950999934,1032.4637572999927,1032.4640008000133,1032.4802880999923,1032.4802880999923,1032.4802880999923,1032.5636986000172,1032.8642506999895,,,,,,,,,,,,,,,,,,,,,,down,3.437512100004824,None,space,0.382457700005034,None,P114,001,2025-02-19_11h20.09.121,posner_endo_new1,2024.2.4,60.02678395229264,2025-02-19 11h20.16.395551 +0000,
cube_r.png,0.1,0.31,valid,57,57,0,down,4.300750299997162,None,space,0.45592279999982566,None,,,,,,,,,0,57,57,57,1032.8797393999994,,,,,,,,,,,,,1032.8644359000027,1032.8797393999994,1032.8797393999994,1032.8797393999994,1037.192890700011,,,,1037.199924399989,1037.2116619000153,1037.2116619000153,1037.2589772999927,1037.2592020000156,1037.2752635999932,1037.2752635999932,1037.2752635999932,1037.341997999989,1037.74217089999,,,,,,,,,,,,,,,,,,,,,,down,4.300750299997162,None,space,0.45592279999982566,None,P114,001,2025-02-19_11h20.09.121,posner_endo_new1,2024.2.4,60.02678395229264,2025-02-19 11h20.16.395551 +0000,
cube_r.png,0.1,-0.31,invalid,58,58,0,down,13.061923600005684,None,space,0.37147579999873415,None,,,,,,,,,0,58,58,58,1037.758239799994,,,,,,,,,,,,,1037.7423465000174,1037.758239799994,1037.758239799994,1037.758239799994,1050.8293978000002,,,,1050.8409990000073,1050.8512568000006,1050.8512568000006,1050.8949462000164,1050.8952975000138,1050.9114025000017,1050.9114025000017,1050.9114025000017,1050.994698800001,1051.295529199997,,,,,,,,,,,,,,,,,,,,,,down,13.061923600005684,None,space,0.37147579999873415,None,P114,001,2025-02-19_11h20.09.121,posner_endo_new1,2024.2.4,60.02678395229264,2025-02-19 11h20.16.395551 +0000,
cube_l.png,0.1,0.31,invalid,59,59,0,down,6.3815287000034004,None,space,0.3436818000045605,None,,,,,,,,,0,59,59,59,1051.3110644000117,,,,,,,,,,,,,1051.2958237999992,1051.3110644000117,1051.3110644000117,1051.3110644000117,1057.7056345000165,,,,1057.717437000014,1057.7276905000035,1057.7276905000035,1057.7715208000154,1057.771878700005,1057.7877725000144,1057.7877725000144,1057.7877725000144,1057.8710770999896,1058.138605300017,,,,,,,,,,,,,,,,,,,,,,down,6.3815287000034004,None,space,0.3436818000045605,None,P114,001,2025-02-19_11h20.09.121,posner_endo_new1,2024.2.4,60.02678395229264,2025-02-19 11h20.16.395551 +0000,
