cue_img,cue_soa,target_y,trial,thisN,thisTrialN,thisRepN,key_control2.keys,key_control2.rt,key_control2.duration,key_resp.keys,key_resp.rt,key_resp.duration,practice.thisRepN,practice.thisTrialN,practice.thisN,practice.thisIndex,block1.thisRepN,block1.thisTrialN,block1.thisN,block1.thisIndex,block2.thisRepN,block2.thisTrialN,block2.thisN,block2.thisIndex,thisRow.t,notes,instructions.started,instructions_txt.started,key_control.started,instructions.stopped,key_control.keys,key_control.rt,key_control.duration,ready.started,ready_txt.started,ready_txt.stopped,ready.stopped,fix.started,fixation.started,key_control2.started,fixation_cross.started,fix.stopped,practice.key_control2.keys,practice.key_control2.rt,practice.key_control2.duration,cue.started,cube.started,fixation_cross_cue.started,cue.stopped,target.started,fixation_target.started,fixation_cross_target.started,key_resp.started,star.started,target.stopped,practice.key_resp.keys,practice.key_resp.rt,practice.key_resp.duration,block1.key_control2.keys,block1.key_control2.rt,block1.key_control2.duration,star.stopped,fixation_target.stopped,fixation_cross_target.stopped,key_resp.stopped,block1.key_resp.keys,block1.key_resp.rt,block1.key_resp.duration,break_2.started,text.started,key_control3.started,text.stopped,break_2.stopped,key_control3.keys,key_control3.rt,key_control3.duration,block2.key_control2.keys,block2.key_control2.rt,block2.key_control2.duration,block2.key_resp.keys,block2.key_resp.rt,block2.key_resp.duration,participant,session,date,expName,psychopyVersion,frameRate,expStart,
,,,,,,,,,,,,,,,,,,,,,,,,,,,0.007807899994077161,0.02760390000184998,0.02760390000184998,50.2028461000009,up,50.16622020001523,None,,,,,,,,,,,,,,,,,,,,,,,,,,,,,,,,,,,,,,,,,,,,,,,,,,P115,001,2025-02-19_12h13.07.979,posner_endo_new1,2024.2.4,60.01377916032545,2025-02-19 12h13.16.970078 +0000,
,,,,,,,,,,,,,,,,,,,,,,,,,,,,,,,,,,50.20296649998636,50.2134398999915,53.2156929000048,53.19120750000002,,,,,,,,,,,,,,,,,,,,,,,,,,,,,,,,,,,,,,,,,,,,,,P115,001,2025-02-19_12h13.07.979,posner_endo_new1,2024.2.4,60.01377916032545,2025-02-19 12h13.16.970078 +0000,
cube_l.png,0.1,-0.31,valid,0,0,0,down,10.426466099976096,None,space,0.40800559998024255,None,0,0,0,0,,,,,,,,,53.2156929000048,,,,,,,,,,,,,53.203815499990014,53.2156929000048,53.2156929000048,53.2156929000048,63.647817599994596,down,10.426466099976096,None,63.66470229998231,63.67574899998726,63.67574899998726,63.713211900001625,63.71353629999794,63.729922800004715,63.729922800004715,63.729922800004715,63.813057699997444,64.14719170000171,space,0.40800559998024255,None,,,,,,,,,,,,,,,,,,,,,,,,,P115,001,2025-02-19_12h13.07.979,posner_endo_new1,2024.2.4,60.01377916032545,2025-02-19 12h13.16.970078 +0000,
cube_l.png,0.1,0.31,invalid,1,1,0,down,2.103116099984618,None,space,0.3901786000060383,None,0,1,1,1,,,,,,,,,64.16280189997633,,,,,,,,,,,,,64.14745560000301,64.16280189997633,64.16280189997633,64.16280189997633,66.27827399998205,down,2.103116099984618,None,66.28975629998604,66.30004689999623,66.30004689999623,66.34397159999935,66.34430070000235,66.36046119997627,66.36046119997627,66.36046119997627,66.44384349999018,66.76126790000126,space,0.3901786000060383,None,,,,,,,,,,,,,,,,,,,,,,,,,P115,001,2025-02-19_12h13.07.979,posner_endo_new1,2024.2.4,60.01377916032545,2025-02-19 12h13.16.970078 +0000,
cube_r.png,0.1,-0.31,invalid,2,2,0,down,6.553256200015312,None,space,0.4009836000041105,None,0,2,2,2,,,,,,,,,66.77671209999244,,,,,,,,,,,,,66.76152869997895,66.77671209999244,66.77671209999244,66.77671209999244,73.33798839998781,down,6.553256200015312,None,73.34944029999315,73.35975469998084,73.35975469998084,73.40338619999238,73.40371289997711,73.41997769998852,73.41997769998852,73.41997769998852,73.50316169997677,73.83733809998375,space,0.4009836000041105,None,,,,,,,,,,,,,,,,,,,,,,,,,P115,001,2025-02-19_12h13.07.979,posner_endo_new1,2024.2.4,60.01377916032545,2025-02-19 12h13.16.970078 +0000,
cube_r.png,0.1,10,catch,3,3,0,down,2.6769715000118595,None,space,0.3531256999995094,None,0,3,3,3,,,,,,,,,73.85283099999651,,,,,,,,,,,,,73.83760400000028,73.85283099999651,73.85283099999651,73.85283099999651,76.53465769998729,down,2.6769715000118595,None,76.54572399999597,76.5559179999982,76.5559179999982,76.60012469999492,76.60045139997965,76.61662570000044,76.61662570000044,76.61662570000044,76.70035070000449,76.98412409998127,space,0.3531256999995094,None,,,,,,,,,,,,,,,,,,,,,,,,,P115,001,2025-02-19_12h13.07.979,posner_endo_new1,2024.2.4,60.01377916032545,2025-02-19 12h13.16.970078 +0000,
cube_l.png,0.1,-0.31,valid,4,4,0,down,4.203034699981799,None,space,0.40200390000245534,None,0,4,4,4,,,,,,,,,76.99949819999165,,,,,,,,,,,,,76.9843819999951,76.99949819999165,76.99949819999165,76.99949819999165,81.21308180000051,down,4.203034699981799,None,81.2248869999894,81.23508630000288,81.23508630000288,81.27878399999463,81.27910829999018,81.29529919999186,81.29529919999186,81.29529919999186,81.37855080000008,81.71260749999783,space,0.40200390000245534,None,,,,,,,,,,,,,,,,,,,,,,,,,P115,001,2025-02-19_12h13.07.979,posner_endo_new1,2024.2.4,60.01377916032545,2025-02-19 12h13.16.970078 +0000,
cube_l.png,0.1,0.31,invalid,5,5,0,down,4.281690400006482,None,space,0.36758620000910014,None,0,5,5,5,,,,,,,,,81.72820699997828,,,,,,,,,,,,,81.71286219998728,81.72820699997828,81.72820699997828,81.72820699997828,86.02495029999409,down,4.281690400006482,None,86.03605500000413,86.04626509998343,86.04626509998343,86.0904294999782,86.09076019999338,86.10698989999946,86.10698989999946,86.10698989999946,86.19020939999609,86.49104269998497,space,0.36758620000910014,None,,,,,,,,,,,,,,,,,,,,,,,,,P115,001,2025-02-19_12h13.07.979,posner_endo_new1,2024.2.4,60.01377916032545,2025-02-19 12h13.16.970078 +0000,
cube_r.png,0.1,-0.31,invalid,6,6,0,down,3.3030793000070844,None,space,0.4124982999928761,None,0,6,6,6,,,,,,,,,86.50651889998699,,,,,,,,,,,,,86.49130870000226,86.50651889998699,86.50651889998699,86.50651889998699,89.82107330000144,down,3.3030793000070844,None,89.83210199998575,89.84228349998011,89.84228349998011,89.88661839999259,89.88694349999423,89.90300279998337,89.90300279998337,89.90300279998337,89.98633729998255,90.32047299999977,space,0.4124982999928761,None,,,,,,,,,,,,,,,,,,,,,,,,,P115,001,2025-02-19_12h13.07.979,posner_endo_new1,2024.2.4,60.01377916032545,2025-02-19 12h13.16.970078 +0000,
cube_r.png,0.1,0.31,valid,7,7,0,down,1.8100621000048704,None,space,0.34998289999202825,None,0,7,7,7,,,,,,,,,90.33591329999035,,,,,,,,,,,,,90.3207293000014,90.33591329999035,90.33591329999035,90.33591329999035,92.15196889999788,down,1.8100621000048704,None,92.16295519997948,92.17316209999262,92.17316209999262,92.21750479997718,92.21783239999786,92.2340428000025,92.2340428000025,92.2340428000025,92.31728170000133,92.58516600000439,space,0.34998289999202825,None,,,,,,,,,,,,,,,,,,,,,,,,,P115,001,2025-02-19_12h13.07.979,posner_endo_new1,2024.2.4,60.01377916032545,2025-02-19 12h13.16.970078 +0000,
cube_l.png,0.1,-0.31,valid,8,8,0,down,1.841327200003434,None,space,0.7026162999973167,None,0,8,8,8,,,,,,,,,92.60035100000096,,,,,,,,,,,,,92.58542359998683,92.60035100000096,92.60035100000096,92.60035100000096,94.44977300000028,down,1.841327200003434,None,94.4607890000043,94.47092209997936,94.47092209997936,94.51530440000352,94.51563629999873,94.53173119999701,94.53173119999701,94.53173119999701,94.61498049998772,95.24880819997634,space,0.7026162999973167,None,,,,,,,,,,,,,,,,,,,,,,,,,P115,001,2025-02-19_12h13.07.979,posner_endo_new1,2024.2.4,60.01377916032545,2025-02-19 12h13.16.970078 +0000,
cube_r.png,0.1,-0.31,invalid,9,9,0,down,6.481984199985163,None,space,0.5111576999770477,None,0,9,9,9,,,,,,,,,95.2643685999792,,,,,,,,,,,,,95.24906689999625,95.2643685999792,95.2643685999792,95.2643685999792,101.75882709998405,down,6.481984199985163,None,101.76789249997819,101.77757179999026,101.77757179999026,101.82445119999466,101.82469519998995,101.84074819998932,101.84074819998932,101.84074819998932,101.92406099999789,102.35789929999737,space,0.5111576999770477,None,,,,,,,,,,,,,,,,,,,,,,,,,P115,001,2025-02-19_12h13.07.979,posner_endo_new1,2024.2.4,60.01377916032545,2025-02-19 12h13.16.970078 +0000,
cube_r.png,0.1,0.31,valid,10,10,0,down,2.756436499999836,None,space,0.36465959998895414,None,0,10,10,10,,,,,,,,,102.3737166999781,,,,,,,,,,,,,102.3580766999803,102.3737166999781,102.3737166999781,102.3737166999781,105.13827129997662,down,2.756436499999836,None,105.14528139997856,105.15720329998294,105.15720329998294,105.20438819998526,105.2046105999907,105.22083509998629,105.22083509998629,105.22083509998629,105.28752260000329,105.58792259998154,space,0.36465959998895414,None,,,,,,,,,,,,,,,,,,,,,,,,,P115,001,2025-02-19_12h13.07.979,posner_endo_new1,2024.2.4,60.01377916032545,2025-02-19 12h13.16.970078 +0000,
,,,,,,,,,,,,,,,,,,,,,,,,,,,,,,,,,,105.58802899997681,105.60367280000355,108.60427449998679,108.58442659999127,,,,,,,,,,,,,,,,,,,,,,,,,,,,,,,,,,,,,,,,,,,,,,P115,001,2025-02-19_12h13.07.979,posner_endo_new1,2024.2.4,60.01377916032545,2025-02-19 12h13.16.970078 +0000,
cube_l.png,0.1,10,catch,0,0,0,down,7.5180422000121325,None,None,,,,,,,0,0,0,0,,,,,108.60427449998679,,,,,,,,,,,,,108.59547839997686,108.60427449998679,108.60427449998679,108.60427449998679,116.1274465000024,,,,116.13766300000134,116.14789880000171,116.14789880000171,116.19300639998983,116.19333439998445,116.20953890000237,116.20953890000237,116.20953890000237,116.2927565999853,119.20708880000166,,,,down,7.5180422000121325,None,118.3074123999977,119.22311489999993,119.22311489999993,119.22311489999993,None,,,,,,,,,,,,,,,,,P115,001,2025-02-19_12h13.07.979,posner_endo_new1,2024.2.4,60.01377916032545,2025-02-19 12h13.16.970078 +0000,
cube_l.png,0.1,10,catch,1,1,0,down,2.5947262000117917,None,None,,,,,,,0,1,1,1,,,,,119.22311489999993,,,,,,,,,,,,,119.20731589998468,119.22311489999993,119.22311489999993,119.22311489999993,121.82160599998315,,,,121.83193570000003,121.8419551999832,121.8419551999832,121.88713079999434,121.88743189998786,121.90372410000418,121.90372410000418,121.90372410000418,121.98695439999574,124.90128629998071,,,,down,2.5947262000117917,None,124.00148849998368,124.91748279999592,124.91748279999592,124.91748279999592,None,,,,,,,,,,,,,,,,,P115,001,2025-02-19_12h13.07.979,posner_endo_new1,2024.2.4,60.01377916032545,2025-02-19 12h13.16.970078 +0000,
cube_l.png,0.1,0.31,invalid,2,2,0,down,0.37243170000147074,None,space,0.3825273000111338,None,,,,,0,2,2,2,,,,,124.91748279999592,,,,,,,,,,,,,124.90151509997668,124.91748279999592,124.91748279999592,124.91748279999592,125.30120319998241,,,,125.31099840000388,125.32110929998453,125.32110929998453,125.36712609999813,125.36742709999089,125.38347410000279,125.38347410000279,125.38347410000279,125.46680789999664,125.7677744999819,,,,down,0.37243170000147074,None,,,,,space,0.3825273000111338,None,,,,,,,,,,,,,,,P115,001,2025-02-19_12h13.07.979,posner_endo_new1,2024.2.4,60.01377916032545,2025-02-19 12h13.16.970078 +0000,
cube_l.png,0.1,0.31,invalid,3,3,0,down,1.6585348999942653,None,space,0.5853060999943409,None,,,,,0,3,3,3,,,,,125.78304609999759,,,,,,,,,,,,,125.76802709998447,125.78304609999759,125.78304609999759,125.78304609999759,127.44916209997609,,,,127.45894509999198,127.46882109998842,127.46882109998842,127.51481809999677,127.51511929999106,127.53131120000035,127.53131120000035,127.53131120000035,127.61450509997667,128.13169469998684,,,,down,1.6585348999942653,None,,,,,space,0.5853060999943409,None,,,,,,,,,,,,,,,P115,001,2025-02-19_12h13.07.979,posner_endo_new1,2024.2.4,60.01377916032545,2025-02-19 12h13.16.970078 +0000,
cube_l.png,0.1,-0.31,valid,4,4,0,down,6.614738300006138,None,space,0.3912645000091288,None,,,,,0,4,4,4,,,,,128.14727769998717,,,,,,,,,,,,,128.1319491000031,128.14727769998717,128.14727769998717,128.14727769998717,134.77485580000211,,,,134.78542309999466,134.7954465999792,134.7954465999792,134.8407427999773,134.8410452999815,134.8571310999978,134.8571310999978,134.8571310999978,134.9404556999798,135.25784159998875,,,,down,6.614738300006138,None,,,,,space,0.3912645000091288,None,,,,,,,,,,,,,,,P115,001,2025-02-19_12h13.07.979,posner_endo_new1,2024.2.4,60.01377916032545,2025-02-19 12h13.16.970078 +0000,
cube_r.png,0.1,-0.31,invalid,5,5,0,down,2.128616100002546,None,space,0.20729890000075102,None,,,,,0,5,5,5,,,,,135.27337690000422,,,,,,,,,,,,,135.2580874999985,135.27337690000422,135.27337690000422,135.27337690000422,137.40564829998766,,,,137.4154743999825,137.42572259998997,137.42572259998997,137.47124220000114,137.47154519998003,137.48775079997722,137.48775079997722,137.48775079997722,137.57100789999822,137.70517879998079,,,,down,2.128616100002546,None,,,,,space,0.20729890000075102,None,,,,,,,,,,,,,,,P115,001,2025-02-19_12h13.07.979,posner_endo_new1,2024.2.4,60.01377916032545,2025-02-19 12h13.16.970078 +0000,
cube_r.png,0.1,0.31,valid,6,6,0,down,4.321127800008981,None,space,0.5581234999990556,None,,,,,0,6,6,6,,,,,137.72091929998714,,,,,,,,,,,,,137.70542569999816,137.72091929998714,137.72091929998714,137.72091929998714,142.05085309999413,,,,142.06067279999843,142.07097239998984,142.07097239998984,142.11651329998858,142.11681669999962,142.13306860000012,142.13306860000012,142.13306860000012,142.2162338999915,142.70030219998443,,,,down,4.321127800008981,None,,,,,space,0.5581234999990556,None,,,,,,,,,,,,,,,P115,001,2025-02-19_12h13.07.979,posner_endo_new1,2024.2.4,60.01377916032545,2025-02-19 12h13.16.970078 +0000,
cube_r.png,0.1,-0.31,invalid,7,7,0,down,1.574434200010728,None,space,0.4398557999811601,None,,,,,0,7,7,7,,,,,142.7157179999922,,,,,,,,,,,,,142.7005498999788,142.7157179999922,142.7157179999922,142.7157179999922,144.2985342000029,,,,144.30657759998576,144.31736259997706,144.31736259997706,144.3642594999983,144.36448180000298,144.3808476999984,144.3808476999984,144.3808476999984,144.46401019999757,144.83096339998883,,,,down,1.574434200010728,None,,,,,space,0.4398557999811601,None,,,,,,,,,,,,,,,P115,001,2025-02-19_12h13.07.979,posner_endo_new1,2024.2.4,60.01377916032545,2025-02-19 12h13.16.970078 +0000,
cube_l.png,0.1,-0.31,valid,8,8,0,down,5.171572499995818,None,space,0.3856841999804601,None,,,,,0,8,8,8,,,,,144.84693589998642,,,,,,,,,,,,,144.83113229999435,144.84693589998642,144.84693589998642,144.84693589998642,150.02567799997632,,,,150.03212930000154,150.04316479997942,150.04316479997942,150.09166239999468,150.09216309999465,150.1080546999874,150.1080546999874,150.1080546999874,150.19134729998768,150.50939009999274,,,,down,5.171572499995818,None,,,,,space,0.3856841999804601,None,,,,,,,,,,,,,,,P115,001,2025-02-19_12h13.07.979,posner_endo_new1,2024.2.4,60.01377916032545,2025-02-19 12h13.16.970078 +0000,
cube_r.png,0.1,-0.31,invalid,9,9,0,down,7.87813460000325,None,space,0.4515209000092,None,,,,,0,9,9,9,,,,,150.52432419999968,,,,,,,,,,,,,150.509822299995,150.52432419999968,150.52432419999968,150.52432419999968,158.41764189998503,,,,158.42942390000098,158.43956729999627,158.43956729999627,158.48319899998023,158.48354469999322,158.49975789999007,158.49975789999007,158.49975789999007,158.582946599985,158.96700959998998,,,,down,7.87813460000325,None,,,,,space,0.4515209000092,None,,,,,,,,,,,,,,,P115,001,2025-02-19_12h13.07.979,posner_endo_new1,2024.2.4,60.01377916032545,2025-02-19 12h13.16.970078 +0000,
cube_l.png,0.1,0.31,invalid,10,10,0,down,1.8916109999991022,None,space,0.4217715000268072,None,,,,,0,10,10,10,,,,,158.98250459998962,,,,,,,,,,,,,158.96729729999788,158.98250459998962,158.98250459998962,158.98250459998962,160.88182999999844,,,,160.8934349999763,160.90372349999961,160.90372349999961,160.94733070000075,160.94768869999098,160.96392409998225,160.96392409998225,160.96392409998225,161.04717209999217,161.3978278999857,,,,down,1.8916109999991022,None,,,,,space,0.4217715000268072,None,,,,,,,,,,,,,,,P115,001,2025-02-19_12h13.07.979,posner_endo_new1,2024.2.4,60.01377916032545,2025-02-19 12h13.16.970078 +0000,
cube_r.png,0.1,-0.31,invalid,11,11,0,down,4.516761399980169,None,space,0.3207219000032637,None,,,,,0,11,11,11,,,,,161.41340190000483,,,,,,,,,,,,,161.3981122999976,161.41340190000483,161.41340190000483,161.41340190000483,165.94322849999298,,,,165.9547510999837,165.96500050000031,165.96500050000031,166.00888789998135,166.00923409999814,166.02529829999548,166.02529829999548,166.02529829999548,166.1086049999867,166.35948409998673,,,,down,4.516761399980169,None,,,,,space,0.3207219000032637,None,,,,,,,,,,,,,,,P115,001,2025-02-19_12h13.07.979,posner_endo_new1,2024.2.4,60.01377916032545,2025-02-19 12h13.16.970078 +0000,
cube_r.png,0.1,0.31,valid,12,12,0,down,2.8271008000010625,None,space,0.3761048000014853,None,,,,,0,12,12,12,,,,,166.3748954999901,,,,,,,,,,,,,166.35976679998566,166.3748954999901,166.3748954999901,166.3748954999901,169.2065994000004,,,,169.2181711999874,169.2284754999855,169.2284754999855,169.2721950999985,169.27253729998483,169.2886407999904,169.2886407999904,169.2886407999904,169.37194219999947,169.67286940000486,,,,down,2.8271008000010625,None,,,,,space,0.3761048000014853,None,,,,,,,,,,,,,,,P115,001,2025-02-19_12h13.07.979,posner_endo_new1,2024.2.4,60.01377916032545,2025-02-19 12h13.16.970078 +0000,
cube_l.png,0.1,10,catch,13,13,0,down,1.545695999986492,None,None,,,,,,,0,13,13,13,,,,,169.68823390000034,,,,,,,,,,,,,169.6731535999861,169.68823390000034,169.68823390000034,169.68823390000034,171.2378494000004,,,,171.24708679999458,171.25678139997763,171.25678139997763,171.3033275999769,171.30356289999327,171.31990089997998,171.31990089997998,171.31990089997998,171.40313669998432,174.31731139999465,,,,down,1.545695999986492,None,173.4177104999835,174.33345769997686,174.33345769997686,174.33345769997686,None,,,,,,,,,,,,,,,,,P115,001,2025-02-19_12h13.07.979,posner_endo_new1,2024.2.4,60.01377916032545,2025-02-19 12h13.16.970078 +0000,
cube_r.png,0.1,-0.31,invalid,14,14,0,down,1.5095048999937717,None,space,0.32659460001741536,None,,,,,0,14,14,14,,,,,174.33345769997686,,,,,,,,,,,,,174.31748119997792,174.33345769997686,174.33345769997686,174.33345769997686,175.84951589998673,,,,175.85651679997682,175.8683250999893,175.8683250999893,175.91532289999304,175.91556289998698,175.9319034999935,175.9319034999935,175.9319034999935,175.99852559997817,176.2652539999981,,,,down,1.5095048999937717,None,,,,,space,0.32659460001741536,None,,,,,,,,,,,,,,,P115,001,2025-02-19_12h13.07.979,posner_endo_new1,2024.2.4,60.01377916032545,2025-02-19 12h13.16.970078 +0000,
cube_l.png,0.1,-0.31,valid,15,15,0,down,2.864681999984896,None,space,0.3933394000050612,None,,,,,0,15,15,15,,,,,176.28173600000446,,,,,,,,,,,,,176.2654402999906,176.28173600000446,176.28173600000446,176.28173600000446,179.16277389999595,,,,179.16974159999518,179.18132149998564,179.18132149998564,179.22870569999213,179.2289279999968,179.24518229998648,179.24518229998648,179.24518229998648,179.3117465999967,179.64532670000335,,,,down,2.864681999984896,None,,,,,space,0.3933394000050612,None,,,,,,,,,,,,,,,P115,001,2025-02-19_12h13.07.979,posner_endo_new1,2024.2.4,60.01377916032545,2025-02-19 12h13.16.970078 +0000,
cube_r.png,0.1,10,catch,16,16,0,down,1.5963173000200186,None,None,,,,,,,0,16,16,16,,,,,179.66151750000427,,,,,,,,,,,,,179.6454967999889,179.66151750000427,179.66151750000427,179.66151750000427,181.26042750000488,,,,181.26641240000026,181.2779915999854,181.2779915999854,181.32659059998696,181.3268143000023,181.34320740000112,181.34320740000112,181.34320740000112,181.4096382999851,184.34170469999663,,,,down,1.5963173000200186,None,183.42440369998803,184.3567871999985,184.3567871999985,184.3567871999985,None,,,,,,,,,,,,,,,,,P115,001,2025-02-19_12h13.07.979,posner_endo_new1,2024.2.4,60.01377916032545,2025-02-19 12h13.16.970078 +0000,
cube_r.png,0.1,10,catch,17,17,0,down,2.789034099987475,None,None,,,,,,,0,17,17,17,,,,,184.3567871999985,,,,,,,,,,,,,184.34224619998713,184.3567871999985,184.3567871999985,184.3567871999985,187.15628739999374,,,,187.17773830000078,187.18821120000212,187.18821120000212,187.2201959999802,187.220625499991,187.23665009997785,187.23665009997785,187.23665009997785,187.31990030000452,190.23462159998599,,,,down,2.789034099987475,None,189.33477679998032,190.2504995999916,190.2504995999916,190.2504995999916,None,,,,,,,,,,,,,,,,,P115,001,2025-02-19_12h13.07.979,posner_endo_new1,2024.2.4,60.01377916032545,2025-02-19 12h13.16.970078 +0000,
cube_l.png,0.1,0.31,invalid,18,18,0,down,1.8312473999976646,None,space,0.37458969998988323,None,,,,,0,18,18,18,,,,,190.2504995999916,,,,,,,,,,,,,190.23485119998804,190.2504995999916,190.2504995999916,190.2504995999916,192.08318009998766,,,,192.0932397999859,192.10340500000166,192.10340500000166,192.14861750000273,192.14892320000217,192.1652484999795,192.1652484999795,192.1652484999795,192.24848889998975,192.5491747999913,,,,down,1.8312473999976646,None,,,,,space,0.37458969998988323,None,,,,,,,,,,,,,,,P115,001,2025-02-19_12h13.07.979,posner_endo_new1,2024.2.4,60.01377916032545,2025-02-19 12h13.16.970078 +0000,
cube_l.png,0.1,10,catch,19,19,0,down,1.6535622000228614,None,None,,,,,,,0,19,19,19,,,,,192.56490619998658,,,,,,,,,,,,,192.54943059998914,192.56490619998658,192.56490619998658,192.56490619998658,194.230819599994,,,,194.24057399999583,194.25057569998899,194.25057569998899,194.29658759999438,194.296889499994,194.31304529999034,194.31304529999034,194.31304529999034,194.39627239998663,197.31065390000003,,,,down,1.6535622000228614,None,196.41097109997645,197.32669279997936,197.32669279997936,197.32669279997936,None,,,,,,,,,,,,,,,,,P115,001,2025-02-19_12h13.07.979,posner_endo_new1,2024.2.4,60.01377916032545,2025-02-19 12h13.16.970078 +0000,
cube_l.png,0.1,0.31,invalid,20,20,0,down,0.5639240999880712,None,space,0.39357939999899827,None,,,,,0,20,20,20,,,,,197.32669279997936,,,,,,,,,,,,,197.3108818999899,197.32669279997936,197.32669279997936,197.32669279997936,197.89396600000327,,,,197.90369680000003,197.913753300003,197.913753300003,197.9594611999928,197.9597690999799,197.9760619000008,197.9760619000008,197.9760619000008,198.0592703000002,198.37666629999876,,,,down,0.5639240999880712,None,,,,,space,0.39357939999899827,None,,,,,,,,,,,,,,,P115,001,2025-02-19_12h13.07.979,posner_endo_new1,2024.2.4,60.01377916032545,2025-02-19 12h13.16.970078 +0000,
cube_l.png,0.1,-0.31,valid,21,21,0,down,1.738281800004188,None,space,0.41678079997655004,None,,,,,0,21,21,21,,,,,198.39223259998835,,,,,,,,,,,,,198.37691319998703,198.39223259998835,198.39223259998835,198.39223259998835,200.1415209999832,,,,200.15120100000058,200.16141269999207,200.16141269999207,200.20717700000387,200.2074930999952,200.22371639998164,200.22371639998164,200.22371639998164,200.30693989997962,200.65745599998627,,,,down,1.738281800004188,None,,,,,space,0.41678079997655004,None,,,,,,,,,,,,,,,P115,001,2025-02-19_12h13.07.979,posner_endo_new1,2024.2.4,60.01377916032545,2025-02-19 12h13.16.970078 +0000,
cube_r.png,0.1,0.31,valid,22,22,0,down,3.984625099983532,None,space,0.4772956999950111,None,,,,,0,22,22,22,,,,,200.67319259999203,,,,,,,,,,,,,200.65771289999248,200.67319259999203,200.67319259999203,200.67319259999203,204.67015530000208,,,,204.67988789998344,204.68988379999064,204.68988379999064,204.73588009999366,204.73618249999708,204.75237370000104,204.75237370000104,204.75237370000104,204.83561270000064,205.23647109998274,,,,down,3.984625099983532,None,,,,,space,0.4772956999950111,None,,,,,,,,,,,,,,,P115,001,2025-02-19_12h13.07.979,posner_endo_new1,2024.2.4,60.01377916032545,2025-02-19 12h13.16.970078 +0000,
cube_r.png,0.1,-0.31,invalid,23,23,0,down,1.7342100999958348,None,space,0.4575199000246357,None,,,,,0,23,23,23,,,,,205.25193820000277,,,,,,,,,,,,,205.23672249997617,205.25193820000277,205.25193820000277,205.25193820000277,207.0011264999921,,,,207.01085469999816,207.0210597999976,207.0210597999976,207.0668367999897,207.06714199998532,207.08340889998362,207.08340889998362,207.08340889998362,207.16652989998693,207.5506189999869,,,,down,1.7342100999958348,None,,,,,space,0.4575199000246357,None,,,,,,,,,,,,,,,P115,001,2025-02-19_12h13.07.979,posner_endo_new1,2024.2.4,60.01377916032545,2025-02-19 12h13.16.970078 +0000,
cube_r.png,0.1,0.31,valid,24,24,0,down,3.012171100010164,None,space,0.42631849998724647,None,,,,,0,24,24,24,,,,,207.56625109998276,,,,,,,,,,,,,207.55086879999726,207.56625109998276,207.56625109998276,207.56625109998276,210.58082949998789,,,,210.59096639999188,210.60106489999453,210.60106489999453,210.64643579997937,210.64673759997822,210.66304250000394,210.66304250000394,210.66304250000394,210.74627789997612,211.09693289999268,,,,down,3.012171100010164,None,,,,,space,0.42631849998724647,None,,,,,,,,,,,,,,,P115,001,2025-02-19_12h13.07.979,posner_endo_new1,2024.2.4,60.01377916032545,2025-02-19 12h13.16.970078 +0000,
cube_r.png,0.1,-0.31,invalid,25,25,0,down,3.9458702000265475,None,space,0.46479110000655055,None,,,,,0,25,25,25,,,,,211.1125901999767,,,,,,,,,,,,,211.0971925999911,211.1125901999767,211.1125901999767,211.1125901999767,215.05949699998018,,,,215.06924799998524,215.0794527999824,215.0794527999824,215.125258199987,215.12556539999787,215.14181999998982,215.14181999998982,215.14181999998982,215.22509329998866,215.60920049998094,,,,down,3.9458702000265475,None,,,,,space,0.46479110000655055,None,,,,,,,,,,,,,,,P115,001,2025-02-19_12h13.07.979,posner_endo_new1,2024.2.4,60.01377916032545,2025-02-19 12h13.16.970078 +0000,
cube_l.png,0.1,-0.31,valid,26,26,0,down,3.9458220999804325,None,space,0.41931990001467057,None,,,,,0,26,26,26,,,,,215.62437370000407,,,,,,,,,,,,,215.60944810000365,215.62437370000407,215.62437370000407,215.62437370000407,219.571803800005,,,,219.58154240000295,219.59157429999323,219.59157429999323,219.63715979998233,219.63746279999032,219.65383769999607,219.65383769999607,219.65383769999607,219.73708289998467,220.08773189998465,,,,down,3.9458220999804325,None,,,,,space,0.41931990001467057,None,,,,,,,,,,,,,,,P115,001,2025-02-19_12h13.07.979,posner_endo_new1,2024.2.4,60.01377916032545,2025-02-19 12h13.16.970078 +0000,
cube_r.png,0.1,0.31,valid,27,27,0,down,1.5634121999901254,None,space,0.425951699988218,None,,,,,0,27,27,27,,,,,220.10337549998076,,,,,,,,,,,,,220.08798290000414,220.10337549998076,220.10337549998076,220.10337549998076,221.66952080000192,,,,221.6792763999838,221.68940039997688,221.68940039997688,221.73524359997828,221.73555859999033,221.75165520000155,221.75165520000155,221.75165520000155,221.83500189997721,222.18578339999658,,,,down,1.5634121999901254,None,,,,,space,0.425951699988218,None,,,,,,,,,,,,,,,P115,001,2025-02-19_12h13.07.979,posner_endo_new1,2024.2.4,60.01377916032545,2025-02-19 12h13.16.970078 +0000,
cube_r.png,0.1,10,catch,28,28,0,down,1.7053293000208214,None,None,,,,,,,0,28,28,28,,,,,222.20125789998565,,,,,,,,,,,,,222.18603630000143,222.20125789998565,222.20125789998565,222.20125789998565,223.91714509998565,,,,223.92685249997885,223.936882399983,223.936882399983,223.98270789999515,223.9830107000016,223.9993663999776,223.9993663999776,223.9993663999776,224.08254929998657,226.99698149997857,,,,down,1.7053293000208214,None,226.09725179997622,227.01298119997955,227.01298119997955,227.01298119997955,None,,,,,,,,,,,,,,,,,P115,001,2025-02-19_12h13.07.979,posner_endo_new1,2024.2.4,60.01377916032545,2025-02-19 12h13.16.970078 +0000,
cube_r.png,0.1,0.31,valid,29,29,0,down,1.3007688999932725,None,space,0.4549463000148535,None,,,,,0,29,29,29,,,,,227.01298119997955,,,,,,,,,,,,,226.99720829998842,227.01298119997955,227.01298119997955,227.01298119997955,228.3293334999762,,,,228.3390142999997,228.34897589997854,228.34897589997854,228.3950124999974,228.3953182999976,228.4115711999766,228.4115711999766,228.4115711999766,228.49482249998255,228.87885079998523,,,,down,1.3007688999932725,None,,,,,space,0.4549463000148535,None,,,,,,,,,,,,,,,P115,001,2025-02-19_12h13.07.979,posner_endo_new1,2024.2.4,60.01377916032545,2025-02-19 12h13.16.970078 +0000,
cube_r.png,0.1,0.31,valid,30,30,0,down,1.7799883999978192,None,space,0.6663449999759905,None,,,,,0,30,30,30,,,,,228.89438489999156,,,,,,,,,,,,,228.8790936000005,228.89438489999156,228.89438489999156,228.89438489999156,230.67703599997913,,,,230.68683550000424,230.6974063999951,230.6974063999951,230.7426477999834,230.74294679999002,230.75910129997646,230.75910129997646,230.75910129997646,230.84243709998555,231.4264847000013,,,,down,1.7799883999978192,None,,,,,space,0.6663449999759905,None,,,,,,,,,,,,,,,P115,001,2025-02-19_12h13.07.979,posner_endo_new1,2024.2.4,60.01377916032545,2025-02-19 12h13.16.970078 +0000,
cube_l.png,0.1,-0.31,valid,31,31,0,down,1.792220500006806,None,space,0.3182098000252154,None,,,,,0,31,31,31,,,,,231.44182659999933,,,,,,,,,,,,,231.42673720000312,231.44182659999933,231.44182659999933,231.44182659999933,233.24104579997947,,,,233.2507670999912,233.2609267999942,233.2609267999942,233.30677639998612,233.30708219998633,233.32305839998298,233.32305839998298,233.32305839998298,233.40645379998023,233.6572113999864,,,,down,1.792220500006806,None,,,,,space,0.3182098000252154,None,,,,,,,,,,,,,,,P115,001,2025-02-19_12h13.07.979,posner_endo_new1,2024.2.4,60.01377916032545,2025-02-19 12h13.16.970078 +0000,
cube_r.png,0.1,0.31,valid,32,32,0,down,3.049174999992829,None,space,0.40314830001443624,None,,,,,0,32,32,32,,,,,233.67287219999707,,,,,,,,,,,,,233.65746009998838,233.67287219999707,233.67287219999707,233.67287219999707,236.7374069999787,,,,236.7471605000028,236.75710889999755,236.75710889999755,236.80300879999413,236.80331069999374,236.8196728999901,236.8196728999901,236.8196728999901,236.90285250000306,237.23695309998584,,,,down,3.049174999992829,None,,,,,space,0.40314830001443624,None,,,,,,,,,,,,,,,P115,001,2025-02-19_12h13.07.979,posner_endo_new1,2024.2.4,60.01377916032545,2025-02-19 12h13.16.970078 +0000,
cube_r.png,0.1,-0.31,invalid,33,33,0,down,3.517516500025522,None,space,0.39943039999343455,None,,,,,0,33,33,33,,,,,237.25260829998297,,,,,,,,,,,,,237.23719909999636,237.25260829998297,237.25260829998297,237.25260829998297,240.78317759998026,,,,240.79290959998616,240.80305610000505,240.80305610000505,240.849028800003,240.849341299996,240.86557169997832,240.86557169997832,240.86557169997832,240.9488238999911,241.26631669999915,,,,down,3.517516500025522,None,,,,,space,0.39943039999343455,None,,,,,,,,,,,,,,,P115,001,2025-02-19_12h13.07.979,posner_endo_new1,2024.2.4,60.01377916032545,2025-02-19 12h13.16.970078 +0000,
cube_r.png,0.1,10,catch,34,34,0,down,4.000072700000601,None,None,,,,,,,0,34,34,34,,,,,241.281725799985,,,,,,,,,,,,,241.2665687999979,241.281725799985,241.281725799985,241.281725799985,245.295355499984,,,,245.30519869999262,245.31540739999036,245.31540739999036,245.3611081999843,245.36141309997765,245.3776441999944,245.3776441999944,245.3776441999944,245.46079809998628,248.37512250000145,,,,down,4.000072700000601,None,247.4753878999909,248.39111460000277,248.39111460000277,248.39111460000277,None,,,,,,,,,,,,,,,,,P115,001,2025-02-19_12h13.07.979,posner_endo_new1,2024.2.4,60.01377916032545,2025-02-19 12h13.16.970078 +0000,
cube_r.png,0.1,0.31,valid,35,35,0,down,2.8512198999815155,None,space,0.641895700013265,None,,,,,0,35,35,35,,,,,248.39111460000277,,,,,,,,,,,,,248.37534959998447,248.39111460000277,248.39111460000277,248.39111460000277,251.2558585999941,,,,251.265645699983,251.27576479999698,251.27576479999698,251.3216935999808,251.32199389999732,251.33812979998766,251.33812979998766,251.33812979998766,251.42122540000128,251.98854729998857,,,,down,2.8512198999815155,None,,,,,space,0.641895700013265,None,,,,,,,,,,,,,,,P115,001,2025-02-19_12h13.07.979,posner_endo_new1,2024.2.4,60.01377916032545,2025-02-19 12h13.16.970078 +0000,
cube_r.png,0.1,-0.31,invalid,36,36,0,down,6.102081699995324,None,space,0.43689260000246577,None,,,,,0,36,36,36,,,,,252.00406399997883,,,,,,,,,,,,,251.9888013000018,252.00406399997883,252.00406399997883,252.00406399997883,258.1155996999878,,,,258.1248501999944,258.13435379997827,258.13435379997827,258.1813039999979,258.1815269999788,258.19802979999804,258.19802979999804,258.19802979999804,258.2812033999944,258.64810469999793,,,,down,6.102081699995324,None,,,,,space,0.43689260000246577,None,,,,,,,,,,,,,,,P115,001,2025-02-19_12h13.07.979,posner_endo_new1,2024.2.4,60.01377916032545,2025-02-19 12h13.16.970078 +0000,
cube_l.png,0.1,0.31,invalid,37,37,0,down,6.586568900005659,None,space,0.3919066000089515,None,,,,,0,37,37,37,,,,,258.664063299977,,,,,,,,,,,,,258.64827769997646,258.664063299977,258.664063299977,258.664063299977,265.25798080000095,,,,265.2644373999792,265.2761238999956,265.2761238999956,265.3239930999989,265.32421469999827,265.3405420999916,265.3405420999916,265.3405420999916,265.40714009999647,265.740865699976,,,,down,6.586568900005659,None,,,,,space,0.3919066000089515,None,,,,,,,,,,,,,,,P115,001,2025-02-19_12h13.07.979,posner_endo_new1,2024.2.4,60.01377916032545,2025-02-19 12h13.16.970078 +0000,
cube_l.png,0.1,0.31,invalid,38,38,0,down,10.125625899992883,None,space,0.40886480000335723,None,,,,,0,38,38,38,,,,,265.7567283999815,,,,,,,,,,,,,265.7410391999874,265.7567283999815,265.7567283999815,265.7567283999815,275.89702939998824,,,,275.90354569998453,275.9153063999838,275.9153063999838,275.96307959998376,275.96359040000243,275.97946579998825,275.97946579998825,275.97946579998825,276.0461124999856,276.39747830000124,,,,down,10.125625899992883,None,,,,,space,0.40886480000335723,None,,,,,,,,,,,,,,,P115,001,2025-02-19_12h13.07.979,posner_endo_new1,2024.2.4,60.01377916032545,2025-02-19 12h13.16.970078 +0000,
cube_r.png,0.1,0.31,valid,39,39,0,down,9.646211500017671,None,space,0.31485319999046624,None,,,,,0,39,39,39,,,,,276.41238759999396,,,,,,,,,,,,,276.39789949997794,276.41238759999396,276.41238759999396,276.41238759999396,286.0705792999943,,,,286.0820865999849,286.0923623999988,286.0923623999988,286.13593829999445,286.13618849997874,286.1525128999783,286.1525128999783,286.1525128999783,286.235866300005,286.4699729999993,,,,down,9.646211500017671,None,,,,,space,0.31485319999046624,None,,,,,,,,,,,,,,,P115,001,2025-02-19_12h13.07.979,posner_endo_new1,2024.2.4,60.01377916032545,2025-02-19 12h13.16.970078 +0000,
cube_l.png,0.1,0.31,invalid,40,40,0,down,4.589858899998944,None,space,0.4296887000091374,None,,,,,0,40,40,40,,,,,286.4857110999874,,,,,,,,,,,,,286.470172500005,286.4857110999874,286.4857110999874,286.4857110999874,291.08182849999866,,,,291.0891617999878,291.1001290999993,291.1001290999993,291.1475270999945,291.14803139999276,291.16394929998205,291.16394929998205,291.16394929998205,291.2472385999863,291.5988150999765,,,,down,4.589858899998944,None,,,,,space,0.4296887000091374,None,,,,,,,,,,,,,,,P115,001,2025-02-19_12h13.07.979,posner_endo_new1,2024.2.4,60.01377916032545,2025-02-19 12h13.16.970078 +0000,
cube_l.png,0.1,10,catch,41,41,0,down,1.9807096000004094,None,None,,,,,,,0,41,41,41,,,,,291.6135207999905,,,,,,,,,,,,,291.59923799999524,291.6135207999905,291.6135207999905,291.6135207999905,293.596810499992,,,,293.61369070000364,293.62406089997967,293.62406089997967,293.6617616000003,293.66211029997794,293.6783014999819,293.6783014999819,293.6783014999819,293.76147409999976,296.67576199999894,,,,down,1.9807096000004094,None,295.7760539999872,296.69190129998606,296.69190129998606,296.69190129998606,None,,,,,,,,,,,,,,,,,P115,001,2025-02-19_12h13.07.979,posner_endo_new1,2024.2.4,60.01377916032545,2025-02-19 12h13.16.970078 +0000,
cube_l.png,0.1,-0.31,valid,42,42,0,down,0.2862996000039857,None,space,0.40413570002419874,None,,,,,0,42,42,42,,,,,296.69190129998606,,,,,,,,,,,,,296.6760319999885,296.69190129998606,296.69190129998606,296.69190129998606,296.99260749999667,,,,297.0040661999956,297.0144104999781,297.0144104999781,297.0582521999895,297.0585957999865,297.07487469998887,297.07487469998887,297.07487469998887,297.1580041999987,297.4922622999875,,,,down,0.2862996000039857,None,,,,,space,0.40413570002419874,None,,,,,,,,,,,,,,,P115,001,2025-02-19_12h13.07.979,posner_endo_new1,2024.2.4,60.01377916032545,2025-02-19 12h13.16.970078 +0000,
cube_l.png,0.1,10,catch,43,43,0,down,3.6865829000016674,None,None,,,,,,,0,43,43,43,,,,,297.50764649998746,,,,,,,,,,,,,297.4925418999919,297.50764649998746,297.50764649998746,297.50764649998746,301.2049468999903,,,,301.21636489999946,301.2266998999985,301.2266998999985,301.27066310000373,301.27100429998245,301.2870924999879,301.2870924999879,301.2870924999879,301.3703486000013,304.2848229999945,,,,down,3.6865829000016674,None,303.3850106000027,304.3007367999817,304.3007367999817,304.3007367999817,None,,,,,,,,,,,,,,,,,P115,001,2025-02-19_12h13.07.979,posner_endo_new1,2024.2.4,60.01377916032545,2025-02-19 12h13.16.970078 +0000,
cube_l.png,0.1,0.31,invalid,44,44,0,down,1.0217624999932013,None,space,0.44736039999406785,None,,,,,0,44,44,44,,,,,304.3007367999817,,,,,,,,,,,,,304.2850848999806,304.3007367999817,304.3007367999817,304.3007367999817,305.3345853999781,,,,305.35173309998936,305.36266869999235,305.36266869999235,305.3996767999779,305.40017829998396,305.416088900005,305.416088900005,305.416088900005,305.49933160000364,305.86738680000417,,,,down,1.0217624999932013,None,,,,,space,0.44736039999406785,None,,,,,,,,,,,,,,,P115,001,2025-02-19_12h13.07.979,posner_endo_new1,2024.2.4,60.01377916032545,2025-02-19 12h13.16.970078 +0000,
cube_l.png,0.1,0.31,invalid,45,45,0,down,2.99218380000093,None,space,0.5846799999999348,None,,,,,0,45,45,45,,,,,305.8822606999893,,,,,,,,,,,,,305.86780939999153,305.8822606999893,305.8822606999893,305.8822606999893,308.88063929998316,,,,308.89208099999814,308.9025344999973,308.9025344999973,308.9461908999947,308.946535199997,308.9626401999849,308.9626401999849,308.9626401999849,309.0458890000009,309.5632968999853,,,,down,2.99218380000093,None,,,,,space,0.5846799999999348,None,,,,,,,,,,,,,,,P115,001,2025-02-19_12h13.07.979,posner_endo_new1,2024.2.4,60.01377916032545,2025-02-19 12h13.16.970078 +0000,
cube_r.png,0.1,0.31,valid,46,46,0,down,3.8393376999883913,None,space,0.4348084000230301,None,,,,,0,46,46,46,,,,,309.57862369998475,,,,,,,,,,,,,309.5635765999905,309.57862369998475,309.57862369998475,309.57862369998475,313.42597879999084,,,,313.4373794999847,313.4476373999787,313.4476373999787,313.49140840000473,313.4917484000034,313.50804079999216,313.50804079999216,313.50804079999216,313.5912780999788,313.9587460999901,,,,down,3.8393376999883913,None,,,,,space,0.4348084000230301,None,,,,,,,,,,,,,,,P115,001,2025-02-19_12h13.07.979,posner_endo_new1,2024.2.4,60.01377916032545,2025-02-19 12h13.16.970078 +0000,
cube_l.png,0.1,-0.31,valid,47,47,0,down,8.90908379998291,None,space,0.4238500999927055,None,,,,,0,47,47,47,,,,,313.9741865999822,,,,,,,,,,,,,313.9590296999959,313.9741865999822,313.9741865999822,313.9741865999822,322.8995367999887,,,,322.91102539998246,322.92135789999156,322.92135789999156,322.96514349998324,322.96548339998117,322.98162119998597,322.98162119998597,322.98162119998597,323.06486980000045,323.41563279999536,,,,down,8.90908379998291,None,,,,,space,0.4238500999927055,None,,,,,,,,,,,,,,,P115,001,2025-02-19_12h13.07.979,posner_endo_new1,2024.2.4,60.01377916032545,2025-02-19 12h13.16.970078 +0000,
cube_r.png,0.1,-0.31,invalid,48,48,0,down,6.514808899984928,None,space,0.4416078999929596,None,,,,,0,48,48,48,,,,,323.4313125000044,,,,,,,,,,,,,323.41591789998347,323.4313125000044,323.4313125000044,323.4313125000044,329.9589698999771,,,,329.9704715999833,329.9807908999792,329.9807908999792,330.02465569999185,330.02499929998885,330.04120849998435,330.04120849998435,330.04120849998435,330.1244289999886,330.491889500001,,,,down,6.514808899984928,None,,,,,space,0.4416078999929596,None,,,,,,,,,,,,,,,P115,001,2025-02-19_12h13.07.979,posner_endo_new1,2024.2.4,60.01377916032545,2025-02-19 12h13.16.970078 +0000,
cube_r.png,0.1,10,catch,49,49,0,down,7.295001299993601,None,None,,,,,,,0,49,49,49,,,,,330.5073205999797,,,,,,,,,,,,,330.4921678999963,330.5073205999797,330.5073205999797,330.5073205999797,337.81774189998396,,,,337.8293243999942,337.8395171999873,337.8395171999873,337.88325059998897,337.8835926000029,337.8996774999832,337.8996774999832,337.8996774999832,337.9830016999913,340.89741249999497,,,,down,7.295001299993601,None,339.9976292999927,340.9133811999927,340.9133811999927,340.9133811999927,None,,,,,,,,,,,,,,,,,P115,001,2025-02-19_12h13.07.979,posner_endo_new1,2024.2.4,60.01377916032545,2025-02-19 12h13.16.970078 +0000,
cube_l.png,0.1,-0.31,valid,50,50,0,down,2.8254067999951076,None,space,0.43951779999770224,None,,,,,0,50,50,50,,,,,340.9133811999927,,,,,,,,,,,,,340.89767229999416,340.9133811999927,340.9133811999927,340.9133811999927,343.7451508999802,,,,343.7566880999948,343.7669188999862,343.7669188999862,343.8104368999775,343.81078499997966,343.827026199986,343.827026199986,343.827026199986,343.91023059998406,344.27796269999817,,,,down,2.8254067999951076,None,,,,,space,0.43951779999770224,None,,,,,,,,,,,,,,,P115,001,2025-02-19_12h13.07.979,posner_endo_new1,2024.2.4,60.01377916032545,2025-02-19 12h13.16.970078 +0000,
cube_l.png,0.1,-0.31,valid,51,51,0,down,3.6051518000022043,None,space,0.8554557000170462,None,,,,,0,51,51,51,,,,,344.29333289997885,,,,,,,,,,,,,344.27824349998264,344.29333289997885,344.29333289997885,344.29333289997885,347.9074224999931,,,,347.9168936999922,347.92662899999414,347.92662899999414,347.97287659998983,347.9731108999986,347.98949269999866,347.98949269999866,347.98949269999866,348.07278580000275,348.85609089999343,,,,down,3.6051518000022043,None,,,,,space,0.8554557000170462,None,,,,,,,,,,,,,,,P115,001,2025-02-19_12h13.07.979,posner_endo_new1,2024.2.4,60.01377916032545,2025-02-19 12h13.16.970078 +0000,
cube_r.png,0.1,-0.31,invalid,52,52,0,down,1.2982592999760527,None,space,0.7729642000049353,None,,,,,0,52,52,52,,,,,348.87196789999143,,,,,,,,,,,,,348.85626989998855,348.87196789999143,348.87196789999143,348.87196789999143,350.17172169999685,,,,350.1786129999964,350.1905557999853,350.1905557999853,350.23716389999026,350.237659299979,350.2536034999939,350.2536034999939,350.2536034999939,350.33686619999935,351.0370930999925,,,,down,1.2982592999760527,None,,,,,space,0.7729642000049353,None,,,,,,,,,,,,,,,P115,001,2025-02-19_12h13.07.979,posner_endo_new1,2024.2.4,60.01377916032545,2025-02-19 12h13.16.970078 +0000,
cube_l.png,0.1,-0.31,valid,53,53,0,down,1.3495026000018697,None,space,0.34205050001037307,None,,,,,0,53,53,53,,,,,351.0530905999767,,,,,,,,,,,,,351.03728279998177,351.0530905999767,351.0530905999767,351.0530905999767,352.41902679999475,,,,352.42632239998784,352.437766499992,352.437766499992,352.48486129997764,352.48511019998114,352.50152399999206,352.50152399999206,352.50152399999206,352.5682874999766,352.8518545999832,,,,down,1.3495026000018697,None,,,,,space,0.34205050001037307,None,,,,,,,,,,,,,,,P115,001,2025-02-19_12h13.07.979,posner_endo_new1,2024.2.4,60.01377916032545,2025-02-19 12h13.16.970078 +0000,
cube_r.png,0.1,10,catch,54,54,0,down,2.5907601000217255,None,None,,,,,,,0,54,54,54,,,,,352.867528999981,,,,,,,,,,,,,352.8520421999856,352.867528999981,352.867528999981,352.867528999981,355.4659834999766,,,,355.4732978999964,355.48476609998033,355.48476609998033,355.531659500004,355.5319050999824,355.5483774000022,355.5483774000022,355.5483774000022,355.6149408999772,358.5460200999805,,,,down,2.5907601000217255,None,357.62949419999495,358.56199200000265,358.56199200000265,358.56199200000265,None,,,,,,,,,,,,,,,,,P115,001,2025-02-19_12h13.07.979,posner_endo_new1,2024.2.4,60.01377916032545,2025-02-19 12h13.16.970078 +0000,
cube_l.png,0.1,0.31,invalid,55,55,0,down,2.1847370000032242,None,space,0.4918007999949623,None,,,,,0,55,55,55,,,,,358.56199200000265,,,,,,,,,,,,,358.54620449998765,358.56199200000265,358.56199200000265,358.56199200000265,360.76051369999186,,,,360.7678799999994,360.7793293999857,360.7793293999857,360.8263858999999,360.82664210000075,360.8429554000031,360.8429554000031,360.8429554000031,360.90949920000276,361.34324149999884,,,,down,2.1847370000032242,None,,,,,space,0.4918007999949623,None,,,,,,,,,,,,,,,P115,001,2025-02-19_12h13.07.979,posner_endo_new1,2024.2.4,60.01377916032545,2025-02-19 12h13.16.970078 +0000,
cube_l.png,0.1,-0.31,valid,56,56,0,down,1.7164531000016723,None,space,0.466242800001055,None,,,,,0,56,56,56,,,,,361.35889799997676,,,,,,,,,,,,,361.34343269999954,361.35889799997676,361.35889799997676,361.35889799997676,363.09134479999193,,,,363.0986820999824,363.1104153999768,363.1104153999768,363.1573612999928,363.15760899998713,363.1740332999907,363.1740332999907,363.1740332999907,363.24054080000496,363.64110690000234,,,,down,1.7164531000016723,None,,,,,space,0.466242800001055,None,,,,,,,,,,,,,,,P115,001,2025-02-19_12h13.07.979,posner_endo_new1,2024.2.4,60.01377916032545,2025-02-19 12h13.16.970078 +0000,
cube_r.png,0.1,0.31,valid,57,57,0,down,1.706173199985642,None,space,0.38201080000726506,None,,,,,0,57,57,57,,,,,363.6566773999948,,,,,,,,,,,,,363.6412982000038,363.6566773999948,363.6566773999948,363.6566773999948,365.3724820999778,,,,365.37980619998416,365.39131899998756,365.39131899998756,365.4384083999903,365.43865689999075,365.455003399984,365.455003399984,365.455003399984,365.52151500000036,365.83871139999246,,,,down,1.706173199985642,None,,,,,space,0.38201080000726506,None,,,,,,,,,,,,,,,P115,001,2025-02-19_12h13.07.979,posner_endo_new1,2024.2.4,60.01377916032545,2025-02-19 12h13.16.970078 +0000,
cube_r.png,0.1,-0.31,invalid,58,58,0,down,1.7805297000159044,None,space,0.5325751999916974,None,,,,,0,58,58,58,,,,,365.8543266999768,,,,,,,,,,,,,365.83890079997946,365.8543266999768,365.8543266999768,365.8543266999768,367.6368941999972,,,,367.644240499998,367.66731689998414,367.66731689998414,367.7027370999858,367.7029818999872,367.7191794999817,367.7191794999817,367.7191794999817,367.80249420000473,368.2530537999992,,,,down,1.7805297000159044,None,,,,,space,0.5325751999916974,None,,,,,,,,,,,,,,,P115,001,2025-02-19_12h13.07.979,posner_endo_new1,2024.2.4,60.01377916032545,2025-02-19 12h13.16.970078 +0000,
cube_l.png,0.1,0.31,invalid,59,59,0,down,1.4461852999811526,None,space,0.46892149999621324,None,,,,,0,59,59,59,,,,,368.2686815999914,,,,,,,,,,,,,368.25324299998465,368.2686815999914,368.2686815999914,368.2686815999914,369.71800599998096,,,,369.72784999999567,369.73996489998535,369.73996489998535,369.7836842999968,369.7841420999903,369.80013950000284,369.80013950000284,369.80013950000284,369.88337509997655,370.28430410000146,,,,down,1.4461852999811526,None,,,,,space,0.46892149999621324,None,,,,,,,,,,,,,,,P115,001,2025-02-19_12h13.07.979,posner_endo_new1,2024.2.4,60.01377916032545,2025-02-19 12h13.16.970078 +0000,
,,,,,,,,,,,,,,,,,,,,,,,,,,,,,,,,,,,,,,,,,,,,,,,,,,,,,,,,,,,,,,,,,,,,,370.2844462999783,370.2999243999948,370.2999243999948,430.3051424000005,490.5111662999843,space,120.19842020000215,None,,,,,,,P115,001,2025-02-19_12h13.07.979,posner_endo_new1,2024.2.4,60.01377916032545,2025-02-19 12h13.16.970078 +0000,
,,,,,,,,,,,,,,,,,,,,,,,,,,,,,,,,,,490.51122649997706,490.52699819998816,493.5301692999783,493.5080282999843,,,,,,,,,,,,,,,,,,,,,,,,,,,,,,,,,,,,,,,,,,,,,,P115,001,2025-02-19_12h13.07.979,posner_endo_new1,2024.2.4,60.01377916032545,2025-02-19 12h13.16.970078 +0000,
cube_l.png,0.1,10,catch,0,0,0,up,3.1681794000032824,None,None,,,,,,,,,,,0,0,0,0,493.5301692999783,,,,,,,,,,,,,493.5212739999988,493.5301692999783,493.5301692999783,493.5301692999783,496.70517790000304,,,,496.7153836999787,496.7249257999938,496.7249257999938,496.7708097999857,496.7710398999916,496.7872583999997,496.7872583999997,496.7872583999997,496.8706787999836,499.78478149999864,,,,,,,498.88538749999134,499.80098030000227,499.80098030000227,499.80098030000227,,,,,,,,,,,,up,3.1681794000032824,None,None,,,P115,001,2025-02-19_12h13.07.979,posner_endo_new1,2024.2.4,60.01377916032545,2025-02-19 12h13.16.970078 +0000,
cube_l.png,0.1,10,catch,1,1,0,up,0.6735510000144131,None,None,,,,,,,,,,,0,1,1,1,499.80098030000227,,,,,,,,,,,,,499.7849411999923,499.80098030000227,499.80098030000227,499.80098030000227,500.48441569998977,,,,500.49100469998666,500.5020761999767,500.5020761999767,500.55029439998907,500.5507970000035,500.5667194999987,500.5667194999987,500.5667194999987,500.6499559999793,503.5646269999852,,,,,,,502.66470299998764,503.5804852999863,503.5804852999863,503.5804852999863,,,,,,,,,,,,up,0.6735510000144131,None,None,,,P115,001,2025-02-19_12h13.07.979,posner_endo_new1,2024.2.4,60.01377916032545,2025-02-19 12h13.16.970078 +0000,
cube_l.png,0.1,0.31,invalid,2,2,0,up,0.10257499999715947,None,space,0.4947043000138365,None,,,,,,,,,0,2,2,2,503.5804852999863,,,,,,,,,,,,,503.5648809999984,503.5804852999863,503.5804852999863,503.5804852999863,503.69837850000476,,,,503.7072533000028,503.7171218000003,503.7171218000003,503.76373360000434,503.76396949999616,503.78043590000016,503.78043590000016,503.78043590000016,503.863597699994,504.28079399999115,,,,,,,,,,,,,,,,,,,,,,up,0.10257499999715947,None,space,0.4947043000138365,None,P115,001,2025-02-19_12h13.07.979,posner_endo_new1,2024.2.4,60.01377916032545,2025-02-19 12h13.16.970078 +0000,
cube_l.png,0.1,0.31,invalid,3,3,0,up,2.649826299981214,None,space,0.4306586000020616,None,,,,,,,,,0,3,3,3,504.2965617000009,,,,,,,,,,,,,504.28098129999125,504.2965617000009,504.2965617000009,504.2965617000009,506.9611353999935,,,,506.9682146999985,506.9800006999867,506.9800006999867,507.02721969998674,507.0274453999882,507.0436012999853,507.0436012999853,507.0436012999853,507.11033369999495,507.47712349999347,,,,,,,,,,,,,,,,,,,,,,up,2.649826299981214,None,space,0.4306586000020616,None,P115,001,2025-02-19_12h13.07.979,posner_endo_new1,2024.2.4,60.01377916032545,2025-02-19 12h13.16.970078 +0000,
cube_l.png,0.1,-0.31,valid,4,4,0,up,6.221351599990157,None,space,0.3889222000143491,None,,,,,,,,,0,4,4,4,507.4931638999842,,,,,,,,,,,,,507.47729559999425,507.4931638999842,507.4931638999842,507.4931638999842,513.7207866999961,,,,513.7273126999789,513.7392144000041,513.7392144000041,513.7868233000045,513.7870471999922,513.8034663999861,513.8034663999861,513.8034663999861,513.870078899985,514.2037492999807,,,,,,,,,,,,,,,,,,,,,,up,6.221351599990157,None,space,0.3889222000143491,None,P115,001,2025-02-19_12h13.07.979,posner_endo_new1,2024.2.4,60.01377916032545,2025-02-19 12h13.16.970078 +0000,
cube_r.png,0.1,-0.31,invalid,5,5,0,up,2.3191779000044335,None,space,0.6043064999976195,None,,,,,,,,,0,5,5,5,514.2196485000022,,,,,,,,,,,,,514.2039212999807,514.2196485000022,514.2196485000022,514.2196485000022,516.5511682999786,,,,516.5572496999812,516.5689220999775,516.5689220999775,516.6172167999903,516.6177086999814,516.633631499979,516.633631499979,516.633631499979,516.7002764999925,517.2514610999788,,,,,,,,,,,,,,,,,,,,,,up,2.3191779000044335,None,space,0.6043064999976195,None,P115,001,2025-02-19_12h13.07.979,posner_endo_new1,2024.2.4,60.01377916032545,2025-02-19 12h13.16.970078 +0000,
cube_r.png,0.1,0.31,valid,6,6,0,up,1.9120066999748815,None,space,0.3488235000113491,None,,,,,,,,,0,6,6,6,517.2663116999902,,,,,,,,,,,,,517.2518948999932,517.2663116999902,517.2663116999902,517.2663116999902,519.1825346999976,,,,519.1941066999862,519.2044328000047,519.2044328000047,519.2478686999821,519.2482198999787,519.2644746000005,519.2644746000005,519.2644746000005,519.3477148999809,519.6154182000028,,,,,,,,,,,,,,,,,,,,,,up,1.9120066999748815,None,space,0.3488235000113491,None,P115,001,2025-02-19_12h13.07.979,posner_endo_new1,2024.2.4,60.01377916032545,2025-02-19 12h13.16.970078 +0000,
cube_r.png,0.1,-0.31,invalid,7,7,0,up,2.292496999987634,None,space,0.24832760001299903,None,,,,,,,,,0,7,7,7,519.630715199979,,,,,,,,,,,,,519.6157068999892,519.630715199979,519.630715199979,519.630715199979,521.9298535999842,,,,521.9413456000038,521.9516786999884,521.9516786999884,521.9952395999862,521.9955816000002,522.0116460999998,522.0116460999998,522.0116460999998,522.094903899997,522.2626105999807,,,,,,,,,,,,,,,,,,,,,,up,2.292496999987634,None,space,0.24832760001299903,None,P115,001,2025-02-19_12h13.07.979,posner_endo_new1,2024.2.4,60.01377916032545,2025-02-19 12h13.16.970078 +0000,
cube_l.png,0.1,-0.31,valid,8,8,0,up,2.3007721999892965,None,space,0.5510218999988865,None,,,,,,,,,0,8,8,8,522.278065999999,,,,,,,,,,,,,522.262903099996,522.278065999999,522.278065999999,522.278065999999,524.5935098999762,,,,524.6050443999993,524.6154223999765,524.6154223999765,524.6590332999767,524.6593716999923,524.6755896999966,524.6755896999966,524.6755896999966,524.7588537999836,525.2429082999879,,,,,,,,,,,,,,,,,,,,,,up,2.3007721999892965,None,space,0.5510218999988865,None,P115,001,2025-02-19_12h13.07.979,posner_endo_new1,2024.2.4,60.01377916032545,2025-02-19 12h13.16.970078 +0000,
cube_r.png,0.1,-0.31,invalid,9,9,0,up,2.056477599981008,None,space,0.4015549000177998,None,,,,,,,,,0,9,9,9,525.2583490999823,,,,,,,,,,,,,525.2432017999818,525.2583490999823,525.2583490999823,525.2583490999823,527.324102899991,,,,527.3355997999897,527.3459383999871,527.3459383999871,527.3897608999978,527.3901073999878,527.4060728999902,527.4060728999902,527.4060728999902,527.4893314999936,527.8234968000033,,,,,,,,,,,,,,,,,,,,,,up,2.056477599981008,None,space,0.4015549000177998,None,P115,001,2025-02-19_12h13.07.979,posner_endo_new1,2024.2.4,60.01377916032545,2025-02-19 12h13.16.970078 +0000,
cube_l.png,0.1,0.31,invalid,10,10,0,up,3.396381600003224,None,space,0.4158791000081692,None,,,,,,,,,0,10,10,10,527.8389667999872,,,,,,,,,,,,,527.823813199997,527.8389667999872,527.8389667999872,527.8389667999872,531.2367755000014,,,,531.2468955999939,531.2565486999811,531.2565486999811,531.3022575999785,531.3024924999918,531.3187885999796,531.3187885999796,531.3187885999796,531.4019849000033,531.7359261999954,,,,,,,,,,,,,,,,,,,,,,up,3.396381600003224,None,space,0.4158791000081692,None,P115,001,2025-02-19_12h13.07.979,posner_endo_new1,2024.2.4,60.01377916032545,2025-02-19 12h13.16.970078 +0000,
cube_r.png,0.1,-0.31,invalid,11,11,0,up,1.9802668999764137,None,space,0.4171119999955408,None,,,,,,,,,0,11,11,11,531.751695199986,,,,,,,,,,,,,531.7361119999841,531.751695199986,531.751695199986,531.751695199986,533.7339818000037,,,,533.740997099987,533.7527846999874,533.7527846999874,533.7999605999794,533.800184199994,533.816229899996,533.816229899996,533.816229899996,533.8993540999945,534.2498813999991,,,,,,,,,,,,,,,,,,,,,,up,1.9802668999764137,None,space,0.4171119999955408,None,P115,001,2025-02-19_12h13.07.979,posner_endo_new1,2024.2.4,60.01377916032545,2025-02-19 12h13.16.970078 +0000,
cube_r.png,0.1,0.31,valid,12,12,0,up,2.2488256999931764,None,space,0.579606999992393,None,,,,,,,,,0,12,12,12,534.265923799976,,,,,,,,,,,,,534.2500524999923,534.265923799976,534.265923799976,534.265923799976,536.5310364000034,,,,536.5370218000025,536.5485099999933,536.5485099999933,536.5968131999834,536.5973320000048,536.6132276999997,536.6132276999997,536.6132276999997,536.6964641999803,537.1975085999875,,,,,,,,,,,,,,,,,,,,,,up,2.2488256999931764,None,space,0.579606999992393,None,P115,001,2025-02-19_12h13.07.979,posner_endo_new1,2024.2.4,60.01377916032545,2025-02-19 12h13.16.970078 +0000,
cube_l.png,0.1,10,catch,13,13,0,up,2.654124699998647,None,None,,,,,,,,,,,0,13,13,13,537.2128965999873,,,,,,,,,,,,,537.1978023999836,537.2128965999873,537.2128965999873,537.2128965999873,539.8778701999981,,,,539.8870451999828,539.8964001999993,539.8964001999993,539.9434247000027,539.943678599986,539.9600191999925,539.9600191999925,539.9600191999925,540.0433753999823,542.9572810999816,,,,,,,542.0578064000001,542.9735862999805,542.9735862999805,542.9735862999805,,,,,,,,,,,,up,2.654124699998647,None,None,,,P115,001,2025-02-19_12h13.07.979,posner_endo_new1,2024.2.4,60.01377916032545,2025-02-19 12h13.16.970078 +0000,
cube_r.png,0.1,-0.31,invalid,14,14,0,up,1.7488420000008773,None,space,0.38406909999321215,None,,,,,,,,,0,14,14,14,542.9735862999805,,,,,,,,,,,,,542.957457499986,542.9735862999805,542.9735862999805,542.9735862999805,544.7392986999766,,,,544.7463024999888,544.7577443999762,544.7577443999762,544.805246599979,544.8054874999798,544.8218115999771,544.8218115999771,544.8218115999771,544.888235099992,545.222060799977,,,,,,,,,,,,,,,,,,,,,,up,1.7488420000008773,None,space,0.38406909999321215,None,P115,001,2025-02-19_12h13.07.979,posner_endo_new1,2024.2.4,60.01377916032545,2025-02-19 12h13.16.970078 +0000,
cube_l.png,0.1,-0.31,valid,15,15,0,up,2.573057300003711,None,space,0.4943492000165861,None,,,,,,,,,0,15,15,15,545.2379600999993,,,,,,,,,,,,,545.2222517999762,545.2379600999993,545.2379600999993,545.2379600999993,547.8196226999862,,,,547.826596400002,547.8382993999985,547.8382993999985,547.8853390000004,547.8855599999952,547.9018153999932,547.9018153999932,547.9018153999932,547.9850297999801,548.4021269999794,,,,,,,,,,,,,,,,,,,,,,up,2.573057300003711,None,space,0.4943492000165861,None,P115,001,2025-02-19_12h13.07.979,posner_endo_new1,2024.2.4,60.01377916032545,2025-02-19 12h13.16.970078 +0000,
cube_r.png,0.1,10,catch,16,16,0,up,2.4971875999763142,None,None,,,,,,,,,,,0,16,16,16,548.4179880000011,,,,,,,,,,,,,548.4023004999908,548.4179880000011,548.4179880000011,548.4179880000011,550.9171944999835,,,,550.9346107000019,550.9456692999811,550.9456692999811,550.9820769999933,550.982569499989,550.9985232999898,550.9985232999898,550.9985232999898,551.0817842999822,553.996670499997,,,,,,,553.0963789999951,554.012141299987,554.012141299987,554.012141299987,,,,,,,,,,,,up,2.4971875999763142,None,None,,,P115,001,2025-02-19_12h13.07.979,posner_endo_new1,2024.2.4,60.01377916032545,2025-02-19 12h13.16.970078 +0000,
cube_r.png,0.1,10,catch,17,17,0,up,0.6626280999917071,None,None,,,,,,,,,,,0,17,17,17,554.012141299987,,,,,,,,,,,,,553.9970773999812,554.012141299987,554.012141299987,554.012141299987,554.6795789999887,,,,554.6911052999785,554.7017549999873,554.7017549999873,554.7450612999965,554.7454031999805,554.7615674999834,554.7615674999834,554.7615674999834,554.8446889999905,557.758828399994,,,,,,,556.859352999978,557.7750989999913,557.7750989999913,557.7750989999913,,,,,,,,,,,,up,0.6626280999917071,None,None,,,P115,001,2025-02-19_12h13.07.979,posner_endo_new1,2024.2.4,60.01377916032545,2025-02-19 12h13.16.970078 +0000,
cube_l.png,0.1,0.31,invalid,18,18,0,up,0.49189030000707135,None,space,0.3815658999956213,None,,,,,,,,,0,18,18,18,557.7750989999913,,,,,,,,,,,,,557.7589944999781,557.7750989999913,557.7750989999913,557.7750989999913,558.2752316999831,,,,558.282481799979,558.294021299982,558.294021299982,558.3414254999952,558.3416483000037,558.357869600004,558.357869600004,558.357869600004,558.4246244999813,558.7415235999797,,,,,,,,,,,,,,,,,,,,,,up,0.49189030000707135,None,space,0.3815658999956213,None,P115,001,2025-02-19_12h13.07.979,posner_endo_new1,2024.2.4,60.01377916032545,2025-02-19 12h13.16.970078 +0000,
cube_l.png,0.1,10,catch,19,19,0,up,3.3895320000010543,None,None,,,,,,,,,,,0,19,19,19,558.7574524999945,,,,,,,,,,,,,558.7416930999898,558.7574524999945,558.7574524999945,558.7574524999945,562.1547738999943,,,,562.1612870999961,562.173183899984,562.173183899984,562.2206574000011,562.220879200002,562.2371447999903,562.2371447999903,562.2371447999903,562.3205731999769,565.2346647999948,,,,,,,564.3352530999982,565.250902699976,565.250902699976,565.250902699976,,,,,,,,,,,,up,3.3895320000010543,None,None,,,P115,001,2025-02-19_12h13.07.979,posner_endo_new1,2024.2.4,60.01377916032545,2025-02-19 12h13.16.970078 +0000,
cube_l.png,0.1,0.31,invalid,20,20,0,up,3.304421700013336,None,space,0.671072400000412,None,,,,,,,,,0,20,20,20,565.250902699976,,,,,,,,,,,,,565.2348265000037,565.250902699976,565.250902699976,565.250902699976,568.5651030000008,,,,568.5740665000048,568.583776799991,568.583776799991,568.6306323999888,568.6309029999829,568.6472272999818,568.6472272999818,568.6472272999818,568.7139856999856,569.3309609999997,,,,,,,,,,,,,,,,,,,,,,up,3.304421700013336,None,space,0.671072400000412,None,P115,001,2025-02-19_12h13.07.979,posner_endo_new1,2024.2.4,60.01377916032545,2025-02-19 12h13.16.970078 +0000,
cube_l.png,0.1,-0.31,valid,21,21,0,up,2.9280878999852575,None,space,1.2371234000020195,None,,,,,,,,,0,21,21,21,569.3465171999997,,,,,,,,,,,,,569.331182599999,569.3465171999997,569.3465171999997,569.3465171999997,572.2776856999844,,,,572.2863176999963,572.296537599992,572.296537599992,572.3436304999923,572.3439046999847,572.3602891000046,572.3602891000046,572.3602891000046,572.4268800999853,573.6098547999864,,,,,,,,,,,,,,,,,,,,,,up,2.9280878999852575,None,space,1.2371234000020195,None,P115,001,2025-02-19_12h13.07.979,posner_endo_new1,2024.2.4,60.01377916032545,2025-02-19 12h13.16.970078 +0000,
cube_r.png,0.1,0.31,valid,22,22,0,up,4.145353800005978,None,space,0.5734227000211831,None,,,,,,,,,0,22,22,22,573.625547899981,,,,,,,,,,,,,573.6100768999895,573.625547899981,573.625547899981,573.625547899981,577.7724072999845,,,,577.7810996999906,577.7912197999831,577.7912197999831,577.8380135000043,577.8382873999944,577.8546465999971,577.8546465999971,577.8546465999971,577.9378545999934,578.4383034999773,,,,,,,,,,,,,,,,,,,,,,up,4.145353800005978,None,space,0.5734227000211831,None,P115,001,2025-02-19_12h13.07.979,posner_endo_new1,2024.2.4,60.01377916032545,2025-02-19 12h13.16.970078 +0000,
cube_r.png,0.1,-0.31,invalid,23,23,0,up,2.9330016000021715,None,space,0.6605706999835093,None,,,,,,,,,0,23,23,23,578.4540223999938,,,,,,,,,,,,,578.438525799982,578.4540223999938,578.4540223999938,578.4540223999938,581.4018915999914,,,,581.4119724000047,581.4219608999847,581.4219608999847,581.4676306000038,581.4679450999829,581.4842738999869,581.4842738999869,581.4842738999869,581.5675131999888,582.1511787999771,,,,,,,,,,,,,,,,,,,,,,up,2.9330016000021715,None,space,0.6605706999835093,None,P115,001,2025-02-19_12h13.07.979,posner_endo_new1,2024.2.4,60.01377916032545,2025-02-19 12h13.16.970078 +0000,
cube_r.png,0.1,0.31,valid,24,24,0,up,3.5242002999875695,None,space,0.8193073000002187,None,,,,,,,,,0,24,24,24,582.1667513999855,,,,,,,,,,,,,582.1514280999836,582.1667513999855,582.1667513999855,582.1667513999855,585.6978013000044,,,,585.7081995999906,585.7181672999868,585.7181672999868,585.7633201999997,585.7636193999788,585.7797636000032,585.7797636000032,585.7797636000032,585.8630452999787,586.613357299997,,,,,,,,,,,,,,,,,,,,,,up,3.5242002999875695,None,space,0.8193073000002187,None,P115,001,2025-02-19_12h13.07.979,posner_endo_new1,2024.2.4,60.01377916032545,2025-02-19 12h13.16.970078 +0000,
cube_r.png,0.1,-0.31,invalid,25,25,0,up,2.7180820999783464,None,space,0.4471647999889683,None,,,,,,,,,0,25,25,25,586.6288883999805,,,,,,,,,,,,,586.6136070999783,586.6288883999805,586.6288883999805,586.6288883999805,589.3604466999823,,,,589.3703631999961,589.3805562999914,589.3805562999914,589.4263162999996,589.426616599987,589.4427299999807,589.4427299999807,589.4427299999807,589.5258694999793,589.893328599981,,,,,,,,,,,,,,,,,,,,,,up,2.7180820999783464,None,space,0.4471647999889683,None,P115,001,2025-02-19_12h13.07.979,posner_endo_new1,2024.2.4,60.01377916032545,2025-02-19 12h13.16.970078 +0000,
cube_l.png,0.1,-0.31,valid,26,26,0,up,3.46314499998698,None,space,0.4206990999809932,None,,,,,,,,,0,26,26,26,589.9086621000024,,,,,,,,,,,,,589.8935780999891,589.9086621000024,589.9086621000024,589.9086621000024,593.3730910999875,,,,593.3829881999991,593.3930684999796,593.3930684999796,593.4387766,593.4390799999819,593.455217699986,593.455217699986,593.455217699986,593.5385528999905,593.8891819999844,,,,,,,,,,,,,,,,,,,,,,up,3.46314499998698,None,space,0.4206990999809932,None,P115,001,2025-02-19_12h13.07.979,posner_endo_new1,2024.2.4,60.01377916032545,2025-02-19 12h13.16.970078 +0000,
cube_r.png,0.1,0.31,valid,27,27,0,up,2.698802600003546,None,space,0.5318633000133559,None,,,,,,,,,0,27,27,27,593.9048192999908,,,,,,,,,,,,,593.8894332999771,593.9048192999908,593.9048192999908,593.9048192999908,596.6197705999948,,,,596.6296943999769,596.6397580000048,596.6397580000048,596.6854315999954,596.6857361999864,596.7019546999945,596.7019546999945,596.7019546999945,596.7852012999938,597.2358806999982,,,,,,,,,,,,,,,,,,,,,,up,2.698802600003546,None,space,0.5318633000133559,None,P115,001,2025-02-19_12h13.07.979,posner_endo_new1,2024.2.4,60.01377916032545,2025-02-19 12h13.16.970078 +0000,
cube_r.png,0.1,10,catch,28,28,0,up,2.4790504000266083,None,space,0.3099662000022363,None,,,,,,,,,0,28,28,28,597.2514019999944,,,,,,,,,,,,,597.2361287999956,597.2514019999944,597.2514019999944,597.2514019999944,599.7333180999849,,,,599.7431287999789,599.7532670999935,599.7532670999935,599.7990504000045,599.7993569999817,599.8155531999946,599.8155531999946,599.8155531999946,599.8986763999856,600.1327937000024,,,,,,,,,,,,,,,,,,,,,,up,2.4790504000266083,None,space,0.3099662000022363,None,P115,001,2025-02-19_12h13.07.979,posner_endo_new1,2024.2.4,60.01377916032545,2025-02-19 12h13.16.970078 +0000,
cube_r.png,0.1,0.31,valid,29,29,0,up,3.0544717999873683,None,space,0.4085625000006985,None,,,,,,,,,0,29,29,29,600.1484762000036,,,,,,,,,,,,,600.1330434999836,600.1484762000036,600.1484762000036,600.1484762000036,603.2129714000039,,,,603.2229344999942,603.2330378000042,603.2330378000042,603.278796700004,603.2791109999816,603.2952546000015,603.2952546000015,603.2952546000015,603.3785373999854,603.7125463999982,,,,,,,,,,,,,,,,,,,,,,up,3.0544717999873683,None,space,0.4085625000006985,None,P115,001,2025-02-19_12h13.07.979,posner_endo_new1,2024.2.4,60.01377916032545,2025-02-19 12h13.16.970078 +0000,
cube_r.png,0.1,0.31,valid,30,30,0,up,2.7943578000122216,None,space,0.4617519000021275,None,,,,,,,,,0,30,30,30,603.7281891999883,,,,,,,,,,,,,603.712810099998,603.7281891999883,603.7281891999883,603.7281891999883,606.5264415999991,,,,606.5366917999927,606.5467416000029,606.5467416000029,606.5919848000049,606.5922846999892,606.6085808999778,606.6085808999778,606.6085808999778,606.6917629999807,607.075870599976,,,,,,,,,,,,,,,,,,,,,,up,2.7943578000122216,None,space,0.4617519000021275,None,P115,001,2025-02-19_12h13.07.979,posner_endo_new1,2024.2.4,60.01377916032545,2025-02-19 12h13.16.970078 +0000,
cube_l.png,0.1,-0.31,valid,31,31,0,up,2.479938900010893,None,space,0.48872630001278594,None,,,,,,,,,0,31,31,31,607.0912528999906,,,,,,,,,,,,,607.0761190000048,607.0912528999906,607.0912528999906,607.0912528999906,609.5733861999761,,,,609.5832060999819,609.5932661999832,609.5932661999832,609.6387957999832,609.6391022999887,609.6553772999905,609.6553772999905,609.6553772999905,609.7385869999998,610.1559283999959,,,,,,,,,,,,,,,,,,,,,,up,2.479938900010893,None,space,0.48872630001278594,None,P115,001,2025-02-19_12h13.07.979,posner_endo_new1,2024.2.4,60.01377916032545,2025-02-19 12h13.16.970078 +0000,
cube_r.png,0.1,0.31,valid,32,32,0,up,2.4309817999892402,None,space,0.23399740000604652,None,,,,,,,,,0,32,32,32,610.1716430999804,,,,,,,,,,,,,610.156189500005,610.1716430999804,610.1716430999804,610.1716430999804,612.6036749999912,,,,612.6137507999956,612.6238529999973,612.6238529999973,612.669149399997,612.6694514999981,612.6856342999963,612.6856342999963,612.6856342999963,612.7689459999965,612.9365063000005,,,,,,,,,,,,,,,,,,,,,,up,2.4309817999892402,None,space,0.23399740000604652,None,P115,001,2025-02-19_12h13.07.979,posner_endo_new1,2024.2.4,60.01377916032545,2025-02-19 12h13.16.970078 +0000,
cube_r.png,0.1,-0.31,invalid,33,33,0,up,3.0669859999907203,None,space,0.4038210999860894,None,,,,,,,,,0,33,33,33,612.9520596999791,,,,,,,,,,,,,612.9367644999875,612.9520596999791,612.9520596999791,612.9520596999791,616.0331920000026,,,,616.0430981999962,616.0532613999967,616.0532613999967,616.0990324000013,616.0993453999981,616.1154461999831,616.1154461999831,616.1154461999831,616.1988943000033,616.5328335999802,,,,,,,,,,,,,,,,,,,,,,up,3.0669859999907203,None,space,0.4038210999860894,None,P115,001,2025-02-19_12h13.07.979,posner_endo_new1,2024.2.4,60.01377916032545,2025-02-19 12h13.16.970078 +0000,
cube_r.png,0.1,10,catch,34,34,0,up,2.886769600008847,None,None,,,,,,,,,,,0,34,34,34,616.5483005999995,,,,,,,,,,,,,616.5330845999997,616.5483005999995,616.5483005999995,616.5483005999995,619.446446899994,,,,619.4563140999817,619.4663329999894,619.4663329999894,619.5121671999805,619.5124727999792,619.5287124000024,619.5287124000024,619.5287124000024,619.6119795999839,622.526216600003,,,,,,,621.6265299999795,622.5421872999868,622.5421872999868,622.5421872999868,,,,,,,,,,,,up,2.886769600008847,None,None,,,P115,001,2025-02-19_12h13.07.979,posner_endo_new1,2024.2.4,60.01377916032545,2025-02-19 12h13.16.970078 +0000,
cube_r.png,0.1,0.31,valid,35,35,0,up,0.29248519998509437,None,space,0.47321919997921214,None,,,,,,,,,0,35,35,35,622.5421872999868,,,,,,,,,,,,,622.526448699995,622.5421872999868,622.5421872999868,622.5421872999868,622.8429873999848,,,,622.8534080999962,622.8634526999958,622.8634526999958,622.908734800003,622.9090464999899,622.9252368999878,622.9252368999878,622.9252368999878,623.0084675999824,623.4089877999795,,,,,,,,,,,,,,,,,,,,,,up,0.29248519998509437,None,space,0.47321919997921214,None,P115,001,2025-02-19_12h13.07.979,posner_endo_new1,2024.2.4,60.01377916032545,2025-02-19 12h13.16.970078 +0000,
cube_r.png,0.1,-0.31,invalid,36,36,0,up,3.770348099991679,None,space,0.42234600000665523,None,,,,,,,,,0,36,36,36,623.4247259999975,,,,,,,,,,,,,623.4092414999905,623.4247259999975,623.4247259999975,623.4247259999975,627.2050615999906,,,,627.2145716999948,627.2242567999929,627.2242567999929,627.2708670999855,627.2710924999847,627.287379699992,627.287379699992,627.287379699992,627.3706775000028,627.7209652999882,,,,,,,,,,,,,,,,,,,,,,up,3.770348099991679,None,space,0.42234600000665523,None,P115,001,2025-02-19_12h13.07.979,posner_endo_new1,2024.2.4,60.01377916032545,2025-02-19 12h13.16.970078 +0000,
cube_l.png,0.1,0.31,invalid,37,37,0,up,2.9616007000149693,None,space,0.4110359000042081,None,,,,,,,,,0,37,37,37,627.7369088999985,,,,,,,,,,,,,627.721154800005,627.7369088999985,627.7369088999985,627.7369088999985,630.7012454999785,,,,630.7077386000019,630.7194726000016,630.7194726000016,630.7672736999812,630.767502200004,630.7839171999949,630.7839171999949,630.7839171999949,630.850601299986,631.2013252000033,,,,,,,,,,,,,,,,,,,,,,up,2.9616007000149693,None,space,0.4110359000042081,None,P115,001,2025-02-19_12h13.07.979,posner_endo_new1,2024.2.4,60.01377916032545,2025-02-19 12h13.16.970078 +0000,
cube_l.png,0.1,0.31,invalid,38,38,0,up,5.273873400001321,None,space,0.3957771999994293,None,,,,,,,,,0,38,38,38,631.2168895999785,,,,,,,,,,,,,631.2014978999796,631.2168895999785,631.2168895999785,631.2168895999785,636.4957756999938,,,,636.5057445999992,636.5159495999978,636.5159495999978,636.5614472999878,636.5617587000015,636.578013499995,636.578013499995,636.578013499995,636.6612503999786,636.9785973999824,,,,,,,,,,,,,,,,,,,,,,up,5.273873400001321,None,space,0.3957771999994293,None,P115,001,2025-02-19_12h13.07.979,posner_endo_new1,2024.2.4,60.01377916032545,2025-02-19 12h13.16.970078 +0000,
cube_r.png,0.1,0.31,valid,39,39,0,up,4.320246700022835,None,space,0.4354223999835085,None,,,,,,,,,0,39,39,39,636.9940945999988,,,,,,,,,,,,,636.9788505999895,636.9940945999988,636.9940945999988,636.9940945999988,641.3240720999893,,,,641.3345027999894,641.344545400003,641.344545400003,641.389829599997,641.3901332999812,641.4062372999906,641.4062372999906,641.4062372999906,641.4895000999968,641.8569242999947,,,,,,,,,,,,,,,,,,,,,,up,4.320246700022835,None,space,0.4354223999835085,None,P115,001,2025-02-19_12h13.07.979,posner_endo_new1,2024.2.4,60.01377916032545,2025-02-19 12h13.16.970078 +0000,
cube_l.png,0.1,0.31,invalid,40,40,0,up,3.786853900004644,None,space,0.41019120000419207,None,,,,,,,,,0,40,40,40,641.872395399987,,,,,,,,,,,,,641.857176599995,641.872395399987,641.872395399987,641.872395399987,645.6697065999906,,,,645.6797890999878,645.6899038999982,645.6899038999982,645.7353509999812,645.7356538999884,645.7518864999874,645.7518864999874,645.7518864999874,645.83511059999,646.1691523999907,,,,,,,,,,,,,,,,,,,,,,up,3.786853900004644,None,space,0.41019120000419207,None,P115,001,2025-02-19_12h13.07.979,posner_endo_new1,2024.2.4,60.01377916032545,2025-02-19 12h13.16.970078 +0000,
cube_l.png,0.1,10,catch,41,41,0,up,3.2742523000051733,None,None,,,,,,,,,,,0,41,41,41,646.184740800003,,,,,,,,,,,,,646.1694026000041,646.184740800003,646.184740800003,646.184740800003,649.4659776999906,,,,649.4760433000047,649.486111199978,649.486111199978,649.531470899994,649.5317837999901,649.5479991000029,649.5479991000029,649.5479991000029,649.6312356999842,652.545553199976,,,,,,,651.6459097999905,652.561540900002,652.561540900002,652.561540900002,,,,,,,,,,,,up,3.2742523000051733,None,None,,,P115,001,2025-02-19_12h13.07.979,posner_endo_new1,2024.2.4,60.01377916032545,2025-02-19 12h13.16.970078 +0000,
cube_l.png,0.1,-0.31,valid,42,42,0,up,3.95360469998559,None,space,0.37561220000497997,None,,,,,,,,,0,42,42,42,652.561540900002,,,,,,,,,,,,,652.5457869999809,652.561540900002,652.561540900002,652.561540900002,656.525087099988,,,,656.5349244999816,656.5451583999966,656.5451583999966,656.5909581999877,656.5912653999985,656.6074583999871,656.6074583999871,656.6074583999871,656.690726300003,656.991414499993,,,,,,,,,,,,,,,,,,,,,,up,3.95360469998559,None,space,0.37561220000497997,None,P115,001,2025-02-19_12h13.07.979,posner_endo_new1,2024.2.4,60.01377916032545,2025-02-19 12h13.16.970078 +0000,
cube_l.png,0.1,10,catch,43,43,0,up,2.8279787999927066,None,None,,,,,,,,,,,0,43,43,43,657.0069288999948,,,,,,,,,,,,,656.9916663999902,657.0069288999948,657.0069288999948,657.0069288999948,659.8384298000019,,,,659.8482443999965,659.8582515000016,659.8582515000016,659.9042116999917,659.9045135999913,659.9206638000032,659.9206638000032,659.9206638000032,660.0038331999967,662.9182822000002,,,,,,,662.0185786999937,662.9344178999891,662.9344178999891,662.9344178999891,,,,,,,,,,,,up,2.8279787999927066,None,None,,,P115,001,2025-02-19_12h13.07.979,posner_endo_new1,2024.2.4,60.01377916032545,2025-02-19 12h13.16.970078 +0000,
cube_l.png,0.1,0.31,invalid,44,44,0,up,1.1964568000112195,None,space,0.42672119999770075,None,,,,,,,,,0,44,44,44,662.9344178999891,,,,,,,,,,,,,662.9185146999953,662.9344178999891,662.9344178999891,662.9344178999891,664.1342301999975,,,,664.1444717999839,664.1545405999932,664.1545405999932,664.20003919999,664.2003407999873,664.2163288999873,664.2163288999873,664.2163288999873,664.2996066999913,664.6501491999952,,,,,,,,,,,,,,,,,,,,,,up,1.1964568000112195,None,space,0.42672119999770075,None,P115,001,2025-02-19_12h13.07.979,posner_endo_new1,2024.2.4,60.01377916032545,2025-02-19 12h13.16.970078 +0000,
cube_l.png,0.1,0.31,invalid,45,45,0,up,3.7447612999822013,None,space,0.5273035999853164,None,,,,,,,,,0,45,45,45,664.6658560999786,,,,,,,,,,,,,664.6503992999787,664.6658560999786,664.6658560999786,664.6658560999786,668.4131036000035,,,,668.4229250999924,668.4332227999985,668.4332227999985,668.4788216000015,668.4791235000012,668.4954338999814,668.4954338999814,668.4954338999814,668.578530800005,669.0291485999769,,,,,,,,,,,,,,,,,,,,,,up,3.7447612999822013,None,space,0.5273035999853164,None,P115,001,2025-02-19_12h13.07.979,posner_endo_new1,2024.2.4,60.01377916032545,2025-02-19 12h13.16.970078 +0000,
cube_r.png,0.1,0.31,valid,46,46,0,up,2.4944742000079714,None,space,0.6415062000160106,None,,,,,,,,,0,46,46,46,669.0448036000016,,,,,,,,,,,,,669.0293990999926,669.0448036000016,669.0448036000016,669.0448036000016,671.5433003999933,,,,671.5530988999817,671.5650983999949,671.5650983999949,671.6092931999883,671.6099581999879,671.6256429999776,671.6256429999776,671.6256429999776,671.7089166999795,672.2773234999913,,,,,,,,,,,,,,,,,,,,,,up,2.4944742000079714,None,space,0.6415062000160106,None,P115,001,2025-02-19_12h13.07.979,posner_endo_new1,2024.2.4,60.01377916032545,2025-02-19 12h13.16.970078 +0000,
cube_l.png,0.1,-0.31,valid,47,47,0,up,2.391419899999164,None,space,0.4282635999843478,None,,,,,,,,,0,47,47,47,672.2917344000016,,,,,,,,,,,,,672.2778943000012,672.2917344000016,672.2917344000016,672.2917344000016,674.6918901999888,,,,674.7153670999978,674.7276816999947,674.7276816999947,674.755454899976,674.7558810999908,674.7719045999984,674.7719045999984,674.7719045999984,674.8551392999943,675.2065209999855,,,,,,,,,,,,,,,,,,,,,,up,2.391419899999164,None,space,0.4282635999843478,None,P115,001,2025-02-19_12h13.07.979,posner_endo_new1,2024.2.4,60.01377916032545,2025-02-19 12h13.16.970078 +0000,
cube_r.png,0.1,-0.31,invalid,48,48,0,up,2.5423004000040237,None,space,0.5071840000164229,None,,,,,,,,,0,48,48,48,675.221443699993,,,,,,,,,,,,,675.2069016000023,675.221443699993,675.221443699993,675.221443699993,677.770314399997,,,,677.7801410999964,677.7902703,677.7902703,677.8356769999955,677.8359804999782,677.8523827999888,677.8523827999888,677.8523827999888,677.9356814999774,678.369538799976,,,,,,,,,,,,,,,,,,,,,,up,2.5423004000040237,None,space,0.5071840000164229,None,P115,001,2025-02-19_12h13.07.979,posner_endo_new1,2024.2.4,60.01377916032545,2025-02-19 12h13.16.970078 +0000,
cube_r.png,0.1,10,catch,49,49,0,up,2.9618821000040043,None,None,,,,,,,,,,,0,49,49,49,678.3852156999928,,,,,,,,,,,,,678.3697907000023,678.3852156999928,678.3852156999928,678.3852156999928,681.3500321999891,,,,681.3600387999904,681.3704155999876,681.3704155999876,681.4156113999779,681.415916900005,681.4319025999866,681.4319025999866,681.4319025999866,681.5153022999875,684.4296723000007,,,,,,,683.5299614999967,684.4454438999819,684.4454438999819,684.4454438999819,,,,,,,,,,,,up,2.9618821000040043,None,None,,,P115,001,2025-02-19_12h13.07.979,posner_endo_new1,2024.2.4,60.01377916032545,2025-02-19 12h13.16.970078 +0000,
cube_l.png,0.1,-0.31,valid,50,50,0,up,0.6694666999974288,None,space,1.01823929999955,None,,,,,,,,,0,50,50,50,684.4454438999819,,,,,,,,,,,,,684.4299035999866,684.4454438999819,684.4454438999819,684.4454438999819,685.1293443999893,,,,685.1391748999886,685.1491298000037,685.1491298000037,685.1950682000024,685.195369699999,685.2116044999857,685.2116044999857,685.2116044999857,685.2947493999964,686.2449324999761,,,,,,,,,,,,,,,,,,,,,,up,0.6694666999974288,None,space,1.01823929999955,None,P115,001,2025-02-19_12h13.07.979,posner_endo_new1,2024.2.4,60.01377916032545,2025-02-19 12h13.16.970078 +0000,
cube_l.png,0.1,-0.31,valid,51,51,0,up,5.0628116999869235,None,space,0.6871722000068985,None,,,,,,,,,0,51,51,51,686.2604460000002,,,,,,,,,,,,,686.2451831999933,686.2604460000002,686.2604460000002,686.2604460000002,691.3396407999971,,,,691.349527399987,691.3595866999822,691.3595866999822,691.4052645000047,691.4055675999844,691.4218955999822,691.4218955999822,691.4218955999822,691.5050736999838,692.1222134999989,,,,,,,,,,,,,,,,,,,,,,up,5.0628116999869235,None,space,0.6871722000068985,None,P115,001,2025-02-19_12h13.07.979,posner_endo_new1,2024.2.4,60.01377916032545,2025-02-19 12h13.16.970078 +0000,
cube_r.png,0.1,-0.31,invalid,52,52,0,up,3.585642399993958,None,space,0.5201789000129793,None,,,,,,,,,0,52,52,52,692.1377649999922,,,,,,,,,,,,,692.122463799984,692.1377649999922,692.1377649999922,692.1377649999922,695.7352008000016,,,,695.7449685999891,695.7551368999993,695.7551368999993,695.800852299988,695.8011626999942,695.8173700000043,695.8173700000043,695.8173700000043,695.9005902999779,696.3512413999997,,,,,,,,,,,,,,,,,,,,,,up,3.585642399993958,None,space,0.5201789000129793,None,P115,001,2025-02-19_12h13.07.979,posner_endo_new1,2024.2.4,60.01377916032545,2025-02-19 12h13.16.970078 +0000,
cube_l.png,0.1,-0.31,valid,53,53,0,up,3.7242113999964204,None,space,0.5594212999858428,None,,,,,,,,,0,53,53,53,696.3668083999946,,,,,,,,,,,,,696.3514979000029,696.3668083999946,696.3668083999946,696.3668083999946,700.0973856999772,,,,700.1072348000016,700.117310200003,700.117310200003,700.163023000001,700.1633254000044,700.1797320999904,700.1797320999904,700.1797320999904,700.2627945999848,700.7468974999792,,,,,,,,,,,,,,,,,,,,,,up,3.7242113999964204,None,space,0.5594212999858428,None,P115,001,2025-02-19_12h13.07.979,posner_endo_new1,2024.2.4,60.01377916032545,2025-02-19 12h13.16.970078 +0000,
cube_r.png,0.1,10,catch,54,54,0,up,3.392204900010256,None,None,,,,,,,,,,,0,54,54,54,700.7623444999917,,,,,,,,,,,,,700.7471505999856,700.7623444999917,700.7623444999917,700.7623444999917,704.1599668999843,,,,704.169767799991,704.1797564000008,704.1797564000008,704.2254942999862,704.2257978999987,704.2421235999791,704.2421235999791,704.2421235999791,704.3252556999796,707.2397104999982,,,,,,,706.3399822999781,707.2557174999965,707.2557174999965,707.2557174999965,,,,,,,,,,,,up,3.392204900010256,None,None,,,P115,001,2025-02-19_12h13.07.979,posner_endo_new1,2024.2.4,60.01377916032545,2025-02-19 12h13.16.970078 +0000,
cube_l.png,0.1,0.31,invalid,55,55,0,up,0.2035801000020001,None,space,0.47748780000256374,None,,,,,,,,,0,55,55,55,707.2557174999965,,,,,,,,,,,,,707.2399405000033,707.2557174999965,707.2557174999965,707.2557174999965,707.4731083999795,,,,707.4830146000022,707.4932731000008,707.4932731000008,707.5389477999997,707.5392579000036,707.5554461999855,707.5554461999855,707.5554461999855,707.638663699996,708.0392692000023,,,,,,,,,,,,,,,,,,,,,,up,0.2035801000020001,None,space,0.47748780000256374,None,P115,001,2025-02-19_12h13.07.979,posner_endo_new1,2024.2.4,60.01377916032545,2025-02-19 12h13.16.970078 +0000,
cube_l.png,0.1,-0.31,valid,56,56,0,up,8.892340799997328,None,space,0.5644027999951504,None,,,,,,,,,0,56,56,56,708.0548746999993,,,,,,,,,,,,,708.0395193999866,708.0548746999993,708.0548746999993,708.0548746999993,716.9634111999767,,,,716.9734331999789,716.9834237000032,716.9834237000032,717.0291743999987,717.0294810999767,717.0457303999865,717.0457303999865,717.0457303999865,717.1289628999948,717.613016999996,,,,,,,,,,,,,,,,,,,,,,up,8.892340799997328,None,space,0.5644027999951504,None,P115,001,2025-02-19_12h13.07.979,posner_endo_new1,2024.2.4,60.01377916032545,2025-02-19 12h13.16.970078 +0000,
cube_r.png,0.1,0.31,valid,57,57,0,up,3.3186415000236593,None,space,0.3992666999984067,None,,,,,,,,,0,57,57,57,717.628457999992,,,,,,,,,,,,,717.6132760999899,717.628457999992,717.628457999992,717.628457999992,720.9594135999796,,,,720.9693098999851,720.9793571000046,720.9793571000046,721.0250280000037,721.0253288999957,721.0416689999984,721.0416689999984,721.0416689999984,721.1248418999894,721.4423603999894,,,,,,,,,,,,,,,,,,,,,,up,3.3186415000236593,None,space,0.3992666999984067,None,P115,001,2025-02-19_12h13.07.979,posner_endo_new1,2024.2.4,60.01377916032545,2025-02-19 12h13.16.970078 +0000,
cube_r.png,0.1,-0.31,invalid,58,58,0,up,5.209836499998346,None,space,0.5053687999898102,None,,,,,,,,,0,58,58,58,721.4578045999806,,,,,,,,,,,,,721.4426182000025,721.4578045999806,721.4578045999806,721.4578045999806,726.6703697999765,,,,726.6802107999974,726.6904570999905,726.6904570999905,726.7357565999846,726.736070199986,726.7524976999848,726.7524976999848,726.7524976999848,726.8356499999936,727.2697039999766,,,,,,,,,,,,,,,,,,,,,,up,5.209836499998346,None,space,0.5053687999898102,None,P115,001,2025-02-19_12h13.07.979,posner_endo_new1,2024.2.4,60.01377916032545,2025-02-19 12h13.16.970078 +0000,
cube_l.png,0.1,0.31,invalid,59,59,0,up,8.317639299988514,None,space,0.9580683999811299,None,,,,,,,,,0,59,59,59,727.2851873000036,,,,,,,,,,,,,727.2699607999821,727.2851873000036,727.2851873000036,727.2851873000036,735.6110704999883,,,,735.6209275999863,735.6310265999928,735.6310265999928,735.6768148999836,735.6771208999853,735.6933050999942,735.6933050999942,735.6933050999942,735.7765561999986,736.6599619000044,,,,,,,,,,,,,,,,,,,,,,up,8.317639299988514,None,space,0.9580683999811299,None,P115,001,2025-02-19_12h13.07.979,posner_endo_new1,2024.2.4,60.01377916032545,2025-02-19 12h13.16.970078 +0000,
