cue_img,cue_soa,target_y,trial,thisN,thisTrialN,thisRepN,key_control2.keys,key_control2.rt,key_control2.duration,key_resp.keys,key_resp.rt,key_resp.duration,practice.thisRepN,practice.thisTrialN,practice.thisN,practice.thisIndex,block1.thisRepN,block1.thisTrialN,block1.thisN,block1.thisIndex,block2.thisRepN,block2.thisTrialN,block2.thisN,block2.thisIndex,thisRow.t,notes,instructions.started,instructions_txt.started,key_control.started,instructions.stopped,key_control.keys,key_control.rt,key_control.duration,ready.started,ready_txt.started,ready_txt.stopped,ready.stopped,fix.started,fixation.started,key_control2.started,fixation_cross.started,fix.stopped,practice.key_control2.keys,practice.key_control2.rt,practice.key_control2.duration,cue.started,cube.started,fixation_cross_cue.started,cue.stopped,target.started,fixation_target.started,fixation_cross_target.started,key_resp.started,star.started,target.stopped,practice.key_resp.keys,practice.key_resp.rt,practice.key_resp.duration,star.stopped,fixation_target.stopped,fixation_cross_target.stopped,key_resp.stopped,block1.key_control2.keys,block1.key_control2.rt,block1.key_control2.duration,block1.key_resp.keys,block1.key_resp.rt,block1.key_resp.duration,break_2.started,text.started,key_control3.started,text.stopped,break_2.stopped,key_control3.keys,key_control3.rt,key_control3.duration,block2.key_control2.keys,block2.key_control2.rt,block2.key_control2.duration,block2.key_resp.keys,block2.key_resp.rt,block2.key_resp.duration,participant,session,date,expName,psychopyVersion,frameRate,expStart,
,,,,,,,,,,,,,,,,,,,,,,,,,,,0.007825600012438372,0.025708300003316253,0.025708300003316253,6.858955200004857,up,6.815399000013713,None,,,,,,,,,,,,,,,,,,,,,,,,,,,,,,,,,,,,,,,,,,,,,,,,,,P116,001,2025-02-19_13h10.02.187,posner_endo_new1,2024.2.4,60.076730003330624,2025-02-19 13h10.10.583814 +0000,
,,,,,,,,,,,,,,,,,,,,,,,,,,,,,,,,,,6.859026499994798,6.870793300011428,9.895838600001298,9.85108510000282,,,,,,,,,,,,,,,,,,,,,,,,,,,,,,,,,,,,,,,,,,,,,,P116,001,2025-02-19_13h10.02.187,posner_endo_new1,2024.2.4,60.076730003330624,2025-02-19 13h10.10.583814 +0000,
cube_l.png,0.1,-0.31,valid,0,0,0,up,7.017033000010997,None,space,0.4971369999984745,None,0,0,0,0,,,,,,,,,9.895838600001298,,,,,,,,,,,,,9.878393699997105,9.895838600001298,9.895838600001298,9.895838600001298,16.926636399992276,up,7.017033000010997,None,16.94723389999126,16.959080900007393,16.959080900007393,16.991867600008845,16.992120800015982,17.008734100003494,17.008734100003494,17.008734100003494,17.092245600011665,17.509235700010322,space,0.4971369999984745,None,,,,,,,,,,,,,,,,,,,,,,,,,P116,001,2025-02-19_13h10.02.187,posner_endo_new1,2024.2.4,60.076730003330624,2025-02-19 13h10.10.583814 +0000,
cube_l.png,0.1,0.31,invalid,1,1,0,down,9.267720000003465,None,space,0.4965024999983143,None,0,1,1,1,,,,,,,,,17.52499340000213,,,,,,,,,,,,,17.509423600014998,17.52499340000213,17.52499340000213,17.52499340000213,26.799571700015804,down,9.267720000003465,None,26.80817490001209,26.81844830000773,26.81844830000773,26.865717900014715,26.86597250000341,26.882021299999906,26.882021299999906,26.882021299999906,26.94884940001066,27.382672800013097,space,0.4965024999983143,None,,,,,,,,,,,,,,,,,,,,,,,,,P116,001,2025-02-19_13h10.02.187,posner_endo_new1,2024.2.4,60.076730003330624,2025-02-19 13h10.10.583814 +0000,
cube_r.png,0.1,-0.31,invalid,2,2,0,down,1.586592000006931,None,space,0.4476390999916475,None,0,2,2,2,,,,,,,,,27.39832569999271,,,,,,,,,,,,,27.382862400001613,27.39832569999271,27.39832569999271,27.39832569999271,28.997603199997684,down,1.586592000006931,None,29.006323100009467,29.016203300008783,29.016203300008783,29.06319230000372,29.06342069999664,29.079389199992875,29.079389199992875,29.079389199992875,29.146700500015868,29.53023299999768,space,0.4476390999916475,None,,,,,,,,,,,,,,,,,,,,,,,,,P116,001,2025-02-19_13h10.02.187,posner_endo_new1,2024.2.4,60.076730003330624,2025-02-19 13h10.10.583814 +0000,
cube_r.png,0.1,10,catch,3,3,0,down,2.1352353999973275,None,None,,,0,3,3,3,,,,,,,,,29.5457008999947,,,,,,,,,,,,,29.530395600013435,29.5457008999947,29.5457008999947,29.5457008999947,31.694207499996992,down,2.1352353999973275,None,31.70104829999036,31.712918500008527,31.712918500008527,31.7605712999939,31.7607995000144,31.7771999000106,31.7771999000106,31.7771999000106,31.84398649999639,34.77470090001589,None,,,33.858366500004195,34.790849700017134,34.790849700017134,34.790849700017134,,,,,,,,,,,,,,,,,,,,,P116,001,2025-02-19_13h10.02.187,posner_endo_new1,2024.2.4,60.076730003330624,2025-02-19 13h10.10.583814 +0000,
cube_l.png,0.1,-0.31,valid,4,4,0,down,1.2834570999839343,None,space,0.43793689997983165,None,0,4,4,4,,,,,,,,,34.790849700017134,,,,,,,,,,,,,34.77486070001032,34.790849700017134,34.790849700017134,34.790849700017134,36.08975070001907,down,1.2834570999839343,None,36.09652340001776,36.10826770000858,36.10826770000858,36.15632720000576,36.156555099994875,36.172966300015105,36.172966300015105,36.172966300015105,36.23924100000295,36.62275790001149,space,0.43793689997983165,None,,,,,,,,,,,,,,,,,,,,,,,,,P116,001,2025-02-19_13h10.02.187,posner_endo_new1,2024.2.4,60.076730003330624,2025-02-19 13h10.10.583814 +0000,
cube_l.png,0.1,0.31,invalid,5,5,0,down,2.4177321000024676,None,space,0.5778405999881215,None,0,5,5,5,,,,,,,,,36.63907800000743,,,,,,,,,,,,,36.622921300004236,36.63907800000743,36.63907800000743,36.63907800000743,39.07039280000026,down,2.4177321000024676,None,39.07674750001752,39.08846150001045,39.08846150001045,39.13656230000197,39.13678980001714,39.15315070000361,39.15315070000361,39.15315070000361,39.23636209999677,39.73648600000888,space,0.5778405999881215,None,,,,,,,,,,,,,,,,,,,,,,,,,P116,001,2025-02-19_13h10.02.187,posner_endo_new1,2024.2.4,60.076730003330624,2025-02-19 13h10.10.583814 +0000,
cube_r.png,0.1,-0.31,invalid,6,6,0,down,2.272901499993168,None,space,0.45060350000858307,None,0,6,6,6,,,,,,,,,39.75255560001824,,,,,,,,,,,,,39.73664909999934,39.75255560001824,39.75255560001824,39.75255560001824,42.03497430001153,down,2.272901499993168,None,42.053217100008624,42.06427830000757,42.06427830000757,42.100100300012855,42.10061459999997,42.116468899999745,42.116468899999745,42.116468899999745,42.19975259999046,42.58435250000912,space,0.45060350000858307,None,,,,,,,,,,,,,,,,,,,,,,,,,P116,001,2025-02-19_13h10.02.187,posner_endo_new1,2024.2.4,60.076730003330624,2025-02-19 13h10.10.583814 +0000,
cube_r.png,0.1,0.31,valid,7,7,0,down,2.8253010000044014,None,space,0.4903094000183046,None,0,7,7,7,,,,,,,,,42.59933749999618,,,,,,,,,,,,,42.58476480000536,42.59933749999618,42.59933749999618,42.59933749999618,45.43108010001015,down,2.8253010000044014,None,45.44339709999622,45.453486200014595,45.453486200014595,45.496596500015585,45.49694380001165,45.51302450001822,45.51302450001822,45.51302450001822,45.59630920001655,46.013862699997844,space,0.4903094000183046,None,,,,,,,,,,,,,,,,,,,,,,,,,P116,001,2025-02-19_13h10.02.187,posner_endo_new1,2024.2.4,60.076730003330624,2025-02-19 13h10.10.583814 +0000,
cube_l.png,0.1,-0.31,valid,8,8,0,down,3.371428599988576,None,space,0.5228036000044085,None,0,8,8,8,,,,,,,,,46.02922359999502,,,,,,,,,,,,,46.014134800003376,46.02922359999502,46.02922359999502,46.02922359999502,49.411607000016375,down,3.371428599988576,None,49.4364682000014,49.44880680000642,49.44880680000642,49.46192269999301,49.46227260000887,49.47545299999183,49.47545299999183,49.47545299999183,49.57562580000376,50.0096060000069,space,0.5228036000044085,None,,,,,,,,,,,,,,,,,,,,,,,,,P116,001,2025-02-19_13h10.02.187,posner_endo_new1,2024.2.4,60.076730003330624,2025-02-19 13h10.10.583814 +0000,
cube_r.png,0.1,-0.31,invalid,9,9,0,down,2.9194498999859206,None,space,0.6214386000065133,None,0,9,9,9,,,,,,,,,50.02511760001653,,,,,,,,,,,,,50.00988140000845,50.02511760001653,50.02511760001653,50.02511760001653,52.95671699999366,down,2.9194498999859206,None,52.96859520001453,52.9787472000171,52.9787472000171,53.02228940001805,53.022644000011496,53.03873790000216,53.03873790000216,53.03873790000216,53.1220486999955,53.67266869999003,space,0.6214386000065133,None,,,,,,,,,,,,,,,,,,,,,,,,,P116,001,2025-02-19_13h10.02.187,posner_endo_new1,2024.2.4,60.076730003330624,2025-02-19 13h10.10.583814 +0000,
cube_r.png,0.1,0.31,valid,10,10,0,down,2.225066399987554,None,space,0.36756829998921603,None,0,10,10,10,,,,,,,,,53.68804070001352,,,,,,,,,,,,,53.67294109999784,53.68804070001352,53.68804070001352,53.68804070001352,55.92046220001066,down,2.225066399987554,None,55.93246240000008,55.942559399991296,55.942559399991296,55.98592480001389,55.98627839999972,56.002361999999266,56.002361999999266,56.002361999999266,56.08599469999899,56.38647570001194,space,0.36756829998921603,None,,,,,,,,,,,,,,,,,,,,,,,,,P116,001,2025-02-19_13h10.02.187,posner_endo_new1,2024.2.4,60.076730003330624,2025-02-19 13h10.10.583814 +0000,
,,,,,,,,,,,,,,,,,,,,,,,,,,,,,,,,,,56.38665649999166,56.401886000006925,59.40658490001806,59.38293710001744,,,,,,,,,,,,,,,,,,,,,,,,,,,,,,,,,,,,,,,,,,,,,,P116,001,2025-02-19_13h10.02.187,posner_endo_new1,2024.2.4,60.076730003330624,2025-02-19 13h10.10.583814 +0000,
cube_l.png,0.1,10,catch,0,0,0,down,4.426442099997075,None,None,,,,,,,0,0,0,0,,,,,59.40658490001806,,,,,,,,,,,,,59.39765269999043,59.40658490001806,59.40658490001806,59.40658490001806,63.84686230000807,,,,63.87169659999199,63.8838870000036,63.8838870000036,63.91087980000884,63.91124139999738,63.92732449999312,63.92732449999312,63.92732449999312,64.0109506000008,66.92517500001122,,,,66.02547120000236,66.94129260000773,66.94129260000773,66.94129260000773,down,4.426442099997075,None,None,,,,,,,,,,,,,,,,,P116,001,2025-02-19_13h10.02.187,posner_endo_new1,2024.2.4,60.076730003330624,2025-02-19 13h10.10.583814 +0000,
cube_l.png,0.1,10,catch,1,1,0,down,1.7241101000108756,None,None,,,,,,,0,1,1,1,,,,,66.94129260000773,,,,,,,,,,,,,66.92544590000762,66.94129260000773,66.94129260000773,66.94129260000773,68.67384410000523,,,,68.68577889999142,68.69592450000346,68.69592450000346,68.7394656999968,68.7398186000064,68.75601740001002,68.75601740001002,68.75601740001002,68.8392756000103,71.75364880001871,,,,70.85384460000205,71.76960410000174,71.76960410000174,71.76960410000174,down,1.7241101000108756,None,None,,,,,,,,,,,,,,,,,P116,001,2025-02-19_13h10.02.187,posner_endo_new1,2024.2.4,60.076730003330624,2025-02-19 13h10.10.583814 +0000,
cube_l.png,0.1,0.31,invalid,2,2,0,down,1.5194617000233848,None,space,0.47612190002109855,None,,,,,0,2,2,2,,,,,71.76960410000174,,,,,,,,,,,,,71.7539245999942,71.76960410000174,71.76960410000174,71.76960410000174,73.30251480001607,,,,73.31448990001809,73.32465190000948,73.32465190000948,73.36807329999283,73.36842210000032,73.38463650000631,73.38463650000631,73.38463650000631,73.46785839999211,73.86874239999452,,,,,,,,down,1.5194617000233848,None,space,0.47612190002109855,None,,,,,,,,,,,,,,,P116,001,2025-02-19_13h10.02.187,posner_endo_new1,2024.2.4,60.076730003330624,2025-02-19 13h10.10.583814 +0000,
cube_l.png,0.1,0.31,invalid,3,3,0,down,1.7087998000206426,None,space,0.5993084000074305,None,,,,,0,3,3,3,,,,,73.88409959999262,,,,,,,,,,,,,73.86903359999997,73.88409959999262,73.88409959999262,73.88409959999262,75.60018500001752,,,,75.61210610001581,75.62224339999375,75.62224339999375,75.6658604000113,75.66621029999806,75.68226030000369,75.68226030000369,75.68226030000369,75.76549029999296,76.28300230001332,,,,,,,,down,1.7087998000206426,None,space,0.5993084000074305,None,,,,,,,,,,,,,,,P116,001,2025-02-19_13h10.02.187,posner_endo_new1,2024.2.4,60.076730003330624,2025-02-19 13h10.10.583814 +0000,
cube_l.png,0.1,-0.31,valid,4,4,0,down,8.479308999987552,None,space,0.680651399976341,None,,,,,0,4,4,4,,,,,76.2982966999989,,,,,,,,,,,,,76.28330139999161,76.2982966999989,76.2982966999989,76.2982966999989,84.79232690000208,,,,84.81700820001424,84.82916769999429,84.82916769999429,84.85607969999546,84.85647800000152,84.87254400001257,84.87254400001257,84.87254400001257,84.95580480000353,85.55660490001901,,,,,,,,down,8.479308999987552,None,space,0.680651399976341,None,,,,,,,,,,,,,,,P116,001,2025-02-19_13h10.02.187,posner_endo_new1,2024.2.4,60.076730003330624,2025-02-19 13h10.10.583814 +0000,
cube_r.png,0.1,-0.31,invalid,5,5,0,down,2.6934858999738935,None,space,0.5695883999869693,None,,,,,0,5,5,5,,,,,85.57184540000162,,,,,,,,,,,,,85.55692920001457,85.57184540000162,85.57184540000162,85.57184540000162,88.27052620000904,,,,88.28374210000038,88.2939302000159,88.2939302000159,88.33586650001234,88.33626519999234,88.35235450000619,88.35235450000619,88.35235450000619,88.43558290001238,88.93639270000858,,,,,,,,down,2.6934858999738935,None,space,0.5695883999869693,None,,,,,,,,,,,,,,,P116,001,2025-02-19_13h10.02.187,posner_endo_new1,2024.2.4,60.076730003330624,2025-02-19 13h10.10.583814 +0000,
cube_r.png,0.1,0.31,valid,6,6,0,down,2.2333917999931145,None,space,0.47218339997925796,None,,,,,0,6,6,6,,,,,88.95171920000575,,,,,,,,,,,,,88.9367184000148,88.95171920000575,88.95171920000575,88.95171920000575,91.2007380000141,,,,91.2139351000078,91.22398370000883,91.22398370000883,91.26619510000455,91.26658799999859,91.28266379999695,91.28266379999695,91.28266379999695,91.36592420001398,91.76691999999457,,,,,,,,down,2.2333917999931145,None,space,0.47218339997925796,None,,,,,,,,,,,,,,,P116,001,2025-02-19_13h10.02.187,posner_endo_new1,2024.2.4,60.076730003330624,2025-02-19 13h10.10.583814 +0000,
cube_r.png,0.1,-0.31,invalid,7,7,0,down,1.923042499984149,None,space,0.64698170000338,None,,,,,0,7,7,7,,,,,91.78214460000163,,,,,,,,,,,,,91.76724909999757,91.78214460000163,91.78214460000163,91.78214460000163,93.71484150001197,,,,93.72795840000617,93.73834830001579,93.73834830001579,93.78061300000991,93.78087849999429,93.79721980000613,93.79721980000613,93.79721980000613,93.8804449000163,94.44732910001767,,,,,,,,down,1.923042499984149,None,space,0.64698170000338,None,,,,,,,,,,,,,,,P116,001,2025-02-19_13h10.02.187,posner_endo_new1,2024.2.4,60.076730003330624,2025-02-19 13h10.10.583814 +0000,
cube_l.png,0.1,-0.31,valid,8,8,0,down,1.5458949000167195,None,space,0.45793720000074245,None,,,,,0,8,8,8,,,,,94.46324270000332,,,,,,,,,,,,,94.4475386000122,94.46324270000332,94.46324270000332,94.46324270000332,96.01230900001246,,,,96.02044200000819,96.03111350000836,96.03111350000836,96.07828270000755,96.07854859999497,96.09490990001359,96.09490990001359,96.09490990001359,96.16146210001898,96.56192110001575,,,,,,,,down,1.5458949000167195,None,space,0.45793720000074245,None,,,,,,,,,,,,,,,P116,001,2025-02-19_13h10.02.187,posner_endo_new1,2024.2.4,60.076730003330624,2025-02-19 13h10.10.583814 +0000,
cube_r.png,0.1,-0.31,invalid,9,9,0,down,2.1752477000118233,None,space,0.42923680000239983,None,,,,,0,9,9,9,,,,,96.57762890000595,,,,,,,,,,,,,96.56213249999564,96.57762890000595,96.57762890000595,96.57762890000595,98.75962910000817,,,,98.76815139999962,98.77843939999002,98.77843939999002,98.82550860001356,98.82577290001791,98.84205669999938,98.84205669999938,98.84205669999938,98.90866750001442,99.2758434000134,,,,,,,,down,2.1752477000118233,None,space,0.42923680000239983,None,,,,,,,,,,,,,,,P116,001,2025-02-19_13h10.02.187,posner_endo_new1,2024.2.4,60.076730003330624,2025-02-19 13h10.10.583814 +0000,
cube_l.png,0.1,0.31,invalid,10,10,0,down,1.8613600000098813,None,space,0.6085575000033714,None,,,,,0,10,10,10,,,,,99.29155960000935,,,,,,,,,,,,,99.27605390001554,99.29155960000935,99.29155960000935,99.29155960000935,101.15724020000198,,,,101.16529619999346,101.1759841000021,101.1759841000021,101.22305890001007,101.22332560000359,101.23963900000672,101.23963900000672,101.23963900000672,101.32282000000123,101.85637839999981,,,,,,,,down,1.8613600000098813,None,space,0.6085575000033714,None,,,,,,,,,,,,,,,P116,001,2025-02-19_13h10.02.187,posner_endo_new1,2024.2.4,60.076730003330624,2025-02-19 13h10.10.583814 +0000,
cube_r.png,0.1,-0.31,invalid,11,11,0,down,1.6335587999783456,None,space,0.34406560001662,None,,,,,0,11,11,11,,,,,101.87213400000473,,,,,,,,,,,,,101.85658700001659,101.87213400000473,101.87213400000473,101.87213400000473,103.52145480000763,,,,103.52948810000089,103.54020760001731,103.54020760001731,103.58737970000948,103.58764569999767,103.60378100001253,103.60378100001253,103.60378100001253,103.68687989999307,103.95449180001742,,,,,,,,down,1.6335587999783456,None,space,0.34406560001662,None,,,,,,,,,,,,,,,P116,001,2025-02-19_13h10.02.187,posner_endo_new1,2024.2.4,60.076730003330624,2025-02-19 13h10.10.583814 +0000,
cube_r.png,0.1,0.31,valid,12,12,0,down,1.6868908999895211,None,space,0.343362600018736,None,,,,,0,12,12,12,,,,,103.9701447999978,,,,,,,,,,,,,103.95470130001195,103.9701447999978,103.9701447999978,103.9701447999978,105.66928880001069,,,,105.67725690000225,105.68798960000277,105.68798960000277,105.7350895999989,105.73535780000384,105.75166740000714,105.75166740000714,105.75166740000714,105.83497110000462,106.10214350000024,,,,,,,,down,1.6868908999895211,None,space,0.343362600018736,None,,,,,,,,,,,,,,,P116,001,2025-02-19_13h10.02.187,posner_endo_new1,2024.2.4,60.076730003330624,2025-02-19 13h10.10.583814 +0000,
cube_l.png,0.1,10,catch,13,13,0,down,1.3150673000200186,None,None,,,,,,,0,13,13,13,,,,,106.11796400000458,,,,,,,,,,,,,106.10235329999705,106.11796400000458,106.11796400000458,106.11796400000458,107.43426629999885,,,,107.44249079999281,107.45278769999277,107.45278769999277,107.49995430000126,107.50021930001094,107.51649259999976,107.51649259999976,107.51649259999976,107.59981069999048,110.51401569999871,,,,109.6145114999963,110.53006079999614,110.53006079999614,110.53006079999614,down,1.3150673000200186,None,None,,,,,,,,,,,,,,,,,P116,001,2025-02-19_13h10.02.187,posner_endo_new1,2024.2.4,60.076730003330624,2025-02-19 13h10.10.583814 +0000,
cube_r.png,0.1,-0.31,invalid,14,14,0,down,1.9426019999955315,None,space,0.3603486000210978,None,,,,,0,14,14,14,,,,,110.53006079999614,,,,,,,,,,,,,110.51421550000669,110.53006079999614,110.53006079999614,110.53006079999614,112.4789282999991,,,,112.48693300000741,112.49762199999532,112.49762199999532,112.54475359999924,112.54501990001881,112.56144200000563,112.56144200000563,112.56144200000563,112.62794910001685,112.9287015000009,,,,,,,,down,1.9426019999955315,None,space,0.3603486000210978,None,,,,,,,,,,,,,,,P116,001,2025-02-19_13h10.02.187,posner_endo_new1,2024.2.4,60.076730003330624,2025-02-19 13h10.10.583814 +0000,
cube_l.png,0.1,-0.31,valid,15,15,0,down,2.52035999999498,None,space,1.2373370999994222,None,,,,,0,15,15,15,,,,,112.94425699999556,,,,,,,,,,,,,112.92891499999678,112.94425699999556,112.94425699999556,112.94425699999556,115.47586360000423,,,,115.48386690000189,115.49469270001282,115.49469270001282,115.54179400001885,115.54205740001635,115.55834780001896,115.55834780001896,115.55834780001896,115.62483889999567,116.80774550000206,,,,,,,,down,2.52035999999498,None,space,1.2373370999994222,None,,,,,,,,,,,,,,,P116,001,2025-02-19_13h10.02.187,posner_endo_new1,2024.2.4,60.076730003330624,2025-02-19 13h10.10.583814 +0000,
cube_r.png,0.1,10,catch,16,16,0,down,2.0415604999870993,None,None,,,,,,,0,16,16,16,,,,,116.82365969999228,,,,,,,,,,,,,116.80795400001807,116.82365969999228,116.82365969999228,116.82365969999228,118.87242560001323,,,,118.88058610001463,118.89121709999745,118.89121709999745,118.93828150001355,118.93854400000419,118.95487129999674,118.95487129999674,118.95487129999674,119.02140660001896,121.95233659999212,,,,121.03607770000235,121.96842449999531,121.96842449999531,121.96842449999531,down,2.0415604999870993,None,None,,,,,,,,,,,,,,,,,P116,001,2025-02-19_13h10.02.187,posner_endo_new1,2024.2.4,60.076730003330624,2025-02-19 13h10.10.583814 +0000,
cube_r.png,0.1,10,catch,17,17,0,down,2.808310699998401,None,None,,,,,,,0,17,17,17,,,,,121.96842449999531,,,,,,,,,,,,,121.95253139999113,121.96842449999531,121.96842449999531,121.96842449999531,124.78302390000317,,,,124.79105240001809,124.80170380001073,124.80170380001073,124.84889359999215,124.8491570999904,124.86543269999675,124.86543269999675,124.86543269999675,124.9319330000144,127.86285340000177,,,,126.946671600017,127.87898380000843,127.87898380000843,127.87898380000843,down,2.808310699998401,None,None,,,,,,,,,,,,,,,,,P116,001,2025-02-19_13h10.02.187,posner_endo_new1,2024.2.4,60.076730003330624,2025-02-19 13h10.10.583814 +0000,
cube_l.png,0.1,0.31,invalid,18,18,0,down,0.866077899991069,None,space,0.5290749999985565,None,,,,,0,18,18,18,,,,,127.87898380000843,,,,,,,,,,,,,127.86304810000001,127.87898380000843,127.87898380000843,127.87898380000843,128.74592590000248,,,,128.7539012999914,128.7645329000079,128.7645329000079,128.81157700001495,128.81184270000085,128.82805139999255,128.82805139999255,128.82805139999255,128.91127179999603,129.3619343000173,,,,,,,,down,0.866077899991069,None,space,0.5290749999985565,None,,,,,,,,,,,,,,,P116,001,2025-02-19_13h10.02.187,posner_endo_new1,2024.2.4,60.076730003330624,2025-02-19 13h10.10.583814 +0000,
cube_l.png,0.1,10,catch,19,19,0,down,2.9673858000023756,None,None,,,,,,,0,19,19,19,,,,,129.3774561000173,,,,,,,,,,,,,129.36215490000905,129.3774561000173,129.3774561000173,129.3774561000173,132.35867449999205,,,,132.3666985000018,132.37738009999157,132.37738009999157,132.4244333000097,132.42469780001557,132.44099699999788,132.44099699999788,132.44099699999788,132.50766160001513,135.4384922000172,,,,134.52232920000097,135.45451139999204,135.45451139999204,135.45451139999204,down,2.9673858000023756,None,None,,,,,,,,,,,,,,,,,P116,001,2025-02-19_13h10.02.187,posner_endo_new1,2024.2.4,60.076730003330624,2025-02-19 13h10.10.583814 +0000,
cube_l.png,0.1,0.31,invalid,20,20,0,down,2.64292809998733,None,space,0.6008716000069398,None,,,,,0,20,20,20,,,,,135.45451139999204,,,,,,,,,,,,,135.43868620001012,135.45451139999204,135.45451139999204,135.45451139999204,138.10286109999288,,,,138.11132990001352,138.12173420001636,138.12173420001636,138.16867650000495,138.16893990000244,138.18524970000726,138.18524970000726,138.18524970000726,138.26845319999848,138.801956100011,,,,,,,,down,2.64292809998733,None,space,0.6008716000069398,None,,,,,,,,,,,,,,,P116,001,2025-02-19_13h10.02.187,posner_endo_new1,2024.2.4,60.076730003330624,2025-02-19 13h10.10.583814 +0000,
cube_l.png,0.1,-0.31,valid,21,21,0,down,1.9433671000006143,None,space,0.5935827000066638,None,,,,,0,21,21,21,,,,,138.8178528000135,,,,,,,,,,,,,138.80216779999319,138.8178528000135,138.8178528000135,138.8178528000135,140.7669545999961,,,,140.77496850001626,140.78548930000397,140.78548930000397,140.83255069999723,140.83281630001147,140.84913429999142,140.84913429999142,140.84913429999142,140.93233650000184,141.44949719999568,,,,,,,,down,1.9433671000006143,None,space,0.5935827000066638,None,,,,,,,,,,,,,,,P116,001,2025-02-19_13h10.02.187,posner_endo_new1,2024.2.4,60.076730003330624,2025-02-19 13h10.10.583814 +0000,
cube_r.png,0.1,0.31,valid,22,22,0,down,3.384483600006206,None,space,0.4317472999973688,None,,,,,0,22,22,22,,,,,141.4651470000099,,,,,,,,,,,,,141.44971410001745,141.4651470000099,141.4651470000099,141.4651470000099,144.86433559999568,,,,144.88597400000435,144.8961239999917,144.8961239999917,144.9280432999949,144.92844099999638,144.94452099999762,144.94452099999762,144.94452099999762,145.02777650000644,145.37887559999945,,,,,,,,down,3.384483600006206,None,space,0.4317472999973688,None,,,,,,,,,,,,,,,P116,001,2025-02-19_13h10.02.187,posner_endo_new1,2024.2.4,60.076730003330624,2025-02-19 13h10.10.583814 +0000,
cube_r.png,0.1,-0.31,invalid,23,23,0,down,1.5515832000237424,None,space,0.4032219999935478,None,,,,,0,23,23,23,,,,,145.3940503000049,,,,,,,,,,,,,145.37920850000228,145.3940503000049,145.3940503000049,145.3940503000049,146.96043279999867,,,,146.9732997000101,146.9834348000004,146.9834348000004,147.0262764999934,147.02656130000832,147.0427747000067,147.0427747000067,147.0427747000067,147.12612930001342,147.45997950001038,,,,,,,,down,1.5515832000237424,None,space,0.4032219999935478,None,,,,,,,,,,,,,,,P116,001,2025-02-19_13h10.02.187,posner_endo_new1,2024.2.4,60.076730003330624,2025-02-19 13h10.10.583814 +0000,
cube_r.png,0.1,0.31,valid,24,24,0,down,1.4780417000001762,None,space,0.5710626999789383,None,,,,,0,24,24,24,,,,,147.4757046000159,,,,,,,,,,,,,147.46020279999357,147.4757046000159,147.4757046000159,147.4757046000159,148.95775910001248,,,,148.96627510001417,148.97706900001504,148.97706900001504,149.0239942999906,149.02427480000188,149.04074299999047,149.04074299999047,149.04074299999047,149.10734459999367,149.62445599999046,,,,,,,,down,1.4780417000001762,None,space,0.5710626999789383,None,,,,,,,,,,,,,,,P116,001,2025-02-19_13h10.02.187,posner_endo_new1,2024.2.4,60.076730003330624,2025-02-19 13h10.10.583814 +0000,
cube_r.png,0.1,-0.31,invalid,25,25,0,down,1.7769855000078678,None,space,0.4785379999957513,None,,,,,0,25,25,25,,,,,149.6400990000111,,,,,,,,,,,,,149.6246892999916,149.6400990000111,149.6400990000111,149.6400990000111,151.42261249999865,,,,151.43113700000686,151.4413210999919,151.4413210999919,151.4884175999905,151.4886986000056,151.5048475000076,151.5048475000076,151.5048475000076,151.58816290000686,151.98875089999638,,,,,,,,down,1.7769855000078678,None,space,0.4785379999957513,None,,,,,,,,,,,,,,,P116,001,2025-02-19_13h10.02.187,posner_endo_new1,2024.2.4,60.076730003330624,2025-02-19 13h10.10.583814 +0000,
cube_l.png,0.1,-0.31,valid,26,26,0,down,1.460503800015431,None,space,0.7934100999846123,None,,,,,0,26,26,26,,,,,152.00427629999467,,,,,,,,,,,,,151.988975699991,152.00427629999467,152.00427629999467,152.00427629999467,153.4705799999938,,,,153.47908630000893,153.48907310000504,153.48907310000504,153.53628709999612,153.5365751000063,153.55272289999994,153.55272289999994,153.55272289999994,153.63604990000022,154.35310750000644,,,,,,,,down,1.460503800015431,None,space,0.7934100999846123,None,,,,,,,,,,,,,,,P116,001,2025-02-19_13h10.02.187,posner_endo_new1,2024.2.4,60.076730003330624,2025-02-19 13h10.10.583814 +0000,
cube_r.png,0.1,0.31,valid,27,27,0,down,2.384774899983313,None,space,0.6705459000077099,None,,,,,0,27,27,27,,,,,154.36865360001684,,,,,,,,,,,,,154.35333109999192,154.36865360001684,154.36865360001684,154.36865360001684,156.76715749999858,,,,156.77581680001458,156.78592980001122,156.78592980001122,156.83302459999686,156.83331280000857,156.8494888000132,156.8494888000132,156.8494888000132,156.91608319999068,157.5328972999996,,,,,,,,down,2.384774899983313,None,space,0.6705459000077099,None,,,,,,,,,,,,,,,P116,001,2025-02-19_13h10.02.187,posner_endo_new1,2024.2.4,60.076730003330624,2025-02-19 13h10.10.583814 +0000,
cube_r.png,0.1,10,catch,28,28,0,down,2.116861999995308,None,None,,,,,,,0,28,28,28,,,,,157.548750499991,,,,,,,,,,,,,157.53312870001537,157.548750499991,157.548750499991,157.548750499991,159.6808119000052,,,,159.68933110000216,159.6994948000065,159.6994948000065,159.74644360001548,159.7467245000007,159.76321740000276,159.76321740000276,159.76321740000276,159.84643140001572,162.76073060001363,,,,161.8611208999937,162.77674030000344,162.77674030000344,162.77674030000344,down,2.116861999995308,None,None,,,,,,,,,,,,,,,,,P116,001,2025-02-19_13h10.02.187,posner_endo_new1,2024.2.4,60.076730003330624,2025-02-19 13h10.10.583814 +0000,
cube_r.png,0.1,0.31,valid,29,29,0,down,2.936728500004392,None,space,0.5769102999765892,None,,,,,0,29,29,29,,,,,162.77674030000344,,,,,,,,,,,,,162.76094239999657,162.77674030000344,162.77674030000344,162.77674030000344,165.7246693999914,,,,165.73336070001824,165.74333070000284,165.74333070000284,165.79045170001336,165.79067730001407,165.80662630000734,165.80662630000734,165.80662630000734,165.89015650001238,166.3902162000013,,,,,,,,down,2.936728500004392,None,space,0.5769102999765892,None,,,,,,,,,,,,,,,P116,001,2025-02-19_13h10.02.187,posner_endo_new1,2024.2.4,60.076730003330624,2025-02-19 13h10.10.583814 +0000,
cube_r.png,0.1,0.31,valid,30,30,0,down,2.370131199975731,None,space,1.0452203000022564,None,,,,,0,30,30,30,,,,,166.4065333000035,,,,,,,,,,,,,166.39038910000818,166.4065333000035,166.4065333000035,166.4065333000035,168.78783760001534,,,,168.79403380001895,168.80575659999158,168.80575659999158,168.85402630001772,168.85425160001614,168.870522000012,168.870522000012,168.870522000012,168.93706530000782,169.92049190000398,,,,,,,,down,2.370131199975731,None,space,1.0452203000022564,None,,,,,,,,,,,,,,,P116,001,2025-02-19_13h10.02.187,posner_endo_new1,2024.2.4,60.076730003330624,2025-02-19 13h10.10.583814 +0000,
cube_l.png,0.1,-0.31,valid,31,31,0,down,1.8173194999981206,None,space,1.0040720000106376,None,,,,,0,31,31,31,,,,,169.93563680001535,,,,,,,,,,,,,169.92083069999353,169.93563680001535,169.93563680001535,169.93563680001535,171.76840600001742,,,,171.78126129999873,171.79131820000475,171.79131820000475,171.8343039000174,171.8345699000056,171.85073599999305,171.85073599999305,171.85073599999305,171.91737310000462,172.86727149999933,,,,,,,,down,1.8173194999981206,None,space,1.0040720000106376,None,,,,,,,,,,,,,,,P116,001,2025-02-19_13h10.02.187,posner_endo_new1,2024.2.4,60.076730003330624,2025-02-19 13h10.10.583814 +0000,
cube_r.png,0.1,0.31,valid,32,32,0,down,1.7900246999925002,None,space,0.4958969999861438,None,,,,,0,32,32,32,,,,,172.88302609999664,,,,,,,,,,,,,172.86748149999767,172.88302609999664,172.88302609999664,172.88302609999664,174.68207000000984,,,,174.69026130001293,174.70086559999618,174.70086559999618,174.74792829999933,174.74819600000046,174.76448879999225,174.76448879999225,174.76448879999225,174.8476451000024,175.2648610000033,,,,,,,,down,1.7900246999925002,None,space,0.4958969999861438,None,,,,,,,,,,,,,,,P116,001,2025-02-19_13h10.02.187,posner_endo_new1,2024.2.4,60.076730003330624,2025-02-19 13h10.10.583814 +0000,
cube_r.png,0.1,-0.31,invalid,33,33,0,down,2.1605844000005163,None,space,0.46832839999115095,None,,,,,0,33,33,33,,,,,175.28058280001278,,,,,,,,,,,,,175.26507230001152,175.28058280001278,175.28058280001278,175.28058280001278,177.44604800001252,,,,177.45401519999723,177.46461369999452,177.46461369999452,177.5117106999969,177.51197759999195,177.52795160000096,177.52795160000096,177.52795160000096,177.61167840001872,178.0121577999962,,,,,,,,down,2.1605844000005163,None,space,0.46832839999115095,None,,,,,,,,,,,,,,,P116,001,2025-02-19_13h10.02.187,posner_endo_new1,2024.2.4,60.076730003330624,2025-02-19 13h10.10.583814 +0000,
cube_r.png,0.1,10,catch,34,34,0,down,3.0610028999799397,None,None,,,,,,,0,34,34,34,,,,,178.02782580000348,,,,,,,,,,,,,178.01237599999877,178.02782580000348,178.02782580000348,178.02782580000348,181.092203600012,,,,181.1001976999978,181.11112069999217,181.11112069999217,181.157967200008,181.15823150001233,181.1746051000082,181.1746051000082,181.1746051000082,181.2411764000135,184.17208399999072,,,,183.25581810000585,184.18819240000448,184.18819240000448,184.18819240000448,down,3.0610028999799397,None,None,,,,,,,,,,,,,,,,,P116,001,2025-02-19_13h10.02.187,posner_endo_new1,2024.2.4,60.076730003330624,2025-02-19 13h10.10.583814 +0000,
cube_r.png,0.1,0.31,valid,35,35,0,down,2.572753399988869,None,space,0.625199900008738,None,,,,,0,35,35,35,,,,,184.18819240000448,,,,,,,,,,,,,184.17228550001164,184.18819240000448,184.18819240000448,184.18819240000448,186.76970500001335,,,,186.7777017999906,186.78848960000323,186.78848960000323,186.83574169999338,186.83601090000593,186.85213420001674,186.85213420001674,186.85213420001674,186.9353148000082,187.48563310000463,,,,,,,,down,2.572753399988869,None,space,0.625199900008738,None,,,,,,,,,,,,,,,P116,001,2025-02-19_13h10.02.187,posner_endo_new1,2024.2.4,60.076730003330624,2025-02-19 13h10.10.583814 +0000,
cube_r.png,0.1,-0.31,invalid,36,36,0,down,1.4274284999992233,None,space,1.3170237999875098,None,,,,,0,36,36,36,,,,,187.50139520000084,,,,,,,,,,,,,187.4858433000045,187.50139520000084,187.50139520000084,187.50139520000084,188.9342266000167,,,,188.94223459999193,188.95299240000895,188.95299240000895,188.99995309999213,189.00021779999952,189.01654909999343,189.01654909999343,189.01654909999343,189.09975100000156,190.3492893000075,,,,,,,,down,1.4274284999992233,None,space,1.3170237999875098,None,,,,,,,,,,,,,,,P116,001,2025-02-19_13h10.02.187,posner_endo_new1,2024.2.4,60.076730003330624,2025-02-19 13h10.10.583814 +0000,
cube_l.png,0.1,0.31,invalid,37,37,0,down,0.981091199995717,None,space,0.574958000011975,None,,,,,0,37,37,37,,,,,190.3652468000073,,,,,,,,,,,,,190.34950219999882,190.3652468000073,190.3652468000073,190.3652468000073,191.34842980001122,,,,191.35638320000726,191.36713580001378,191.36713580001378,191.4142991999979,191.4145703999966,191.43076400001883,191.43076400001883,191.43076400001883,191.51394050000818,192.0144294000056,,,,,,,,down,0.981091199995717,None,space,0.574958000011975,None,,,,,,,,,,,,,,,P116,001,2025-02-19_13h10.02.187,posner_endo_new1,2024.2.4,60.076730003330624,2025-02-19 13h10.10.583814 +0000,
cube_l.png,0.1,0.31,invalid,38,38,0,down,3.9476932999968994,None,space,1.0026722000038717,None,,,,,0,38,38,38,,,,,192.0300869999919,,,,,,,,,,,,,192.01464480001596,192.0300869999919,192.0300869999919,192.0300869999919,195.99353100001463,,,,196.00179440001375,196.0124543000129,196.0124543000129,196.0596702999901,196.05995150000672,196.07600699999603,196.07600699999603,196.07600699999603,196.14257719999296,197.09256750001805,,,,,,,,down,3.9476932999968994,None,space,1.0026722000038717,None,,,,,,,,,,,,,,,P116,001,2025-02-19_13h10.02.187,posner_endo_new1,2024.2.4,60.076730003330624,2025-02-19 13h10.10.583814 +0000,
cube_r.png,0.1,0.31,valid,39,39,0,down,1.9492924000078347,None,space,0.5204348000115715,None,,,,,0,39,39,39,,,,,197.10829890001332,,,,,,,,,,,,,197.09278229999472,197.10829890001332,197.10829890001332,197.10829890001332,199.07382839999627,,,,199.0818705999991,199.0925857000111,199.0925857000111,199.1397610999993,199.14002570000594,199.15633860000526,199.15633860000526,199.15633860000526,199.22281760000624,199.6898688999936,,,,,,,,down,1.9492924000078347,None,space,0.5204348000115715,None,,,,,,,,,,,,,,,P116,001,2025-02-19_13h10.02.187,posner_endo_new1,2024.2.4,60.076730003330624,2025-02-19 13h10.10.583814 +0000,
cube_l.png,0.1,0.31,invalid,40,40,0,down,1.4478603000170551,None,space,0.6506412999879103,None,,,,,0,40,40,40,,,,,199.70568700000877,,,,,,,,,,,,,199.69007780001266,199.70568700000877,199.70568700000877,199.70568700000877,201.1558355000161,,,,201.1624382000009,201.17321890001767,201.17321890001767,201.22103449999122,201.22126130000106,201.23722559999442,201.23722559999442,201.23722559999442,201.320839299995,201.90411150001455,,,,,,,,down,1.4478603000170551,None,space,0.6506412999879103,None,,,,,,,,,,,,,,,P116,001,2025-02-19_13h10.02.187,posner_endo_new1,2024.2.4,60.076730003330624,2025-02-19 13h10.10.583814 +0000,
cube_l.png,0.1,10,catch,41,41,0,down,1.4570706999802496,None,None,,,,,,,0,41,41,41,,,,,201.92002930000308,,,,,,,,,,,,,201.90428250000696,201.92002930000308,201.92002930000308,201.92002930000308,203.38582359999418,,,,203.39239739999175,203.4042495000176,203.4042495000176,203.45170700000017,203.4519364000007,203.46808389999205,203.46808389999205,203.46808389999205,203.53484460001346,206.46599779999815,,,,205.5492429000151,206.48205459999735,206.48205459999735,206.48205459999735,down,1.4570706999802496,None,None,,,,,,,,,,,,,,,,,P116,001,2025-02-19_13h10.02.187,posner_endo_new1,2024.2.4,60.076730003330624,2025-02-19 13h10.10.583814 +0000,
cube_l.png,0.1,-0.31,valid,42,42,0,down,2.0556366000091657,None,space,0.42292720000841655,None,,,,,0,42,42,42,,,,,206.48205459999735,,,,,,,,,,,,,206.46616080001695,206.48205459999735,206.48205459999735,206.48205459999735,208.54729819999193,,,,208.55379239999456,208.56561769999098,208.56561769999098,208.61347080001724,208.61370330001228,208.62958040001104,208.62958040001104,208.62958040001104,208.69656000001123,209.06346150001627,,,,,,,,down,2.0556366000091657,None,space,0.42292720000841655,None,,,,,,,,,,,,,,,P116,001,2025-02-19_13h10.02.187,posner_endo_new1,2024.2.4,60.076730003330624,2025-02-19 13h10.10.583814 +0000,
cube_l.png,0.1,10,catch,43,43,0,down,1.7142623999970965,None,None,,,,,,,0,43,43,43,,,,,209.07938969999668,,,,,,,,,,,,,209.06363680001232,209.07938969999668,209.07938969999668,209.07938969999668,210.79523449999397,,,,210.80163770000217,210.81334769999376,210.81334769999376,210.86089169999468,210.86134229999152,210.87725180000416,210.87725180000416,210.87725180000416,210.96083600001293,213.87503660001676,,,,212.9753519000078,213.89114690001588,213.89114690001588,213.89114690001588,down,1.7142623999970965,None,None,,,,,,,,,,,,,,,,,P116,001,2025-02-19_13h10.02.187,posner_endo_new1,2024.2.4,60.076730003330624,2025-02-19 13h10.10.583814 +0000,
cube_l.png,0.1,0.31,invalid,44,44,0,down,2.143000799987931,None,space,0.5328443000034895,None,,,,,0,44,44,44,,,,,213.89114690001588,,,,,,,,,,,,,213.87527779999073,213.89114690001588,213.89114690001588,213.89114690001588,216.04006230001687,,,,216.05128260000492,216.06128670001635,216.06128670001635,216.1057657999918,216.10608359999605,216.12214710001717,216.12214710001717,216.12214710001717,216.20547879999503,216.65631459999713,,,,,,,,down,2.143000799987931,None,space,0.5328443000034895,None,,,,,,,,,,,,,,,P116,001,2025-02-19_13h10.02.187,posner_endo_new1,2024.2.4,60.076730003330624,2025-02-19 13h10.10.583814 +0000,
cube_l.png,0.1,0.31,invalid,45,45,0,down,2.0339836000057403,None,space,0.4597570000041742,None,,,,,0,45,45,45,,,,,216.67163480000454,,,,,,,,,,,,,216.6565682000073,216.67163480000454,216.67163480000454,216.67163480000454,218.7205202000041,,,,218.73108060000231,218.74107930000173,218.74107930000173,218.7862344000023,218.7865504999936,218.8028032000002,218.8028032000002,218.8028032000002,218.88595490000444,219.27004010000383,,,,,,,,down,2.0339836000057403,None,space,0.4597570000041742,None,,,,,,,,,,,,,,,P116,001,2025-02-19_13h10.02.187,posner_endo_new1,2024.2.4,60.076730003330624,2025-02-19 13h10.10.583814 +0000,
cube_r.png,0.1,0.31,valid,46,46,0,down,1.9391247000021394,None,space,0.5652185999788344,None,,,,,0,46,46,46,,,,,219.2856405999919,,,,,,,,,,,,,219.27029640000546,219.2856405999919,219.2856405999919,219.2856405999919,221.2345895000035,,,,221.24516230000881,221.25512000001618,221.25512000001618,221.30041600001277,221.30073200000334,221.316902999999,221.316902999999,221.316902999999,221.40015719999792,221.8841398000077,,,,,,,,down,1.9391247000021394,None,space,0.5652185999788344,None,,,,,,,,,,,,,,,P116,001,2025-02-19_13h10.02.187,posner_endo_new1,2024.2.4,60.076730003330624,2025-02-19 13h10.10.583814 +0000,
cube_l.png,0.1,-0.31,valid,47,47,0,down,1.4295791000186,None,space,0.537164200010011,None,,,,,0,47,47,47,,,,,221.8996574000048,,,,,,,,,,,,,221.8843909999996,221.8996574000048,221.8996574000048,221.8996574000048,223.33258640000713,,,,223.34369700000389,223.35370199999306,223.35370199999306,223.39822450000793,223.39853500001482,223.41472369999974,223.41472369999974,223.41472369999974,223.49799040000653,223.96524849999696,,,,,,,,down,1.4295791000186,None,space,0.537164200010011,None,,,,,,,,,,,,,,,P116,001,2025-02-19_13h10.02.187,posner_endo_new1,2024.2.4,60.076730003330624,2025-02-19 13h10.10.583814 +0000,
cube_r.png,0.1,-0.31,invalid,48,48,0,down,1.5096091000013985,None,space,0.40131399998790585,None,,,,,0,48,48,48,,,,,223.98084460000973,,,,,,,,,,,,,223.96549890001188,223.98084460000973,223.98084460000973,223.98084460000973,225.4971892000176,,,,225.50813679999555,225.5182141000114,225.5182141000114,225.56265569999232,225.56296660000226,225.5791708000179,225.5791708000179,225.5791708000179,225.66244449999067,225.99647529999493,,,,,,,,down,1.5096091000013985,None,space,0.40131399998790585,None,,,,,,,,,,,,,,,P116,001,2025-02-19_13h10.02.187,posner_endo_new1,2024.2.4,60.076730003330624,2025-02-19 13h10.10.583814 +0000,
cube_r.png,0.1,10,catch,49,49,0,down,1.717339399998309,None,None,,,,,,,0,49,49,49,,,,,226.0120613000181,,,,,,,,,,,,,225.99672560000909,226.0120613000181,226.0120613000181,226.0120613000181,227.74470340000698,,,,227.75566910000634,227.76555999999982,227.76555999999982,227.81037049999577,227.810681700008,227.82693169999402,227.82693169999402,227.82693169999402,227.91010249999817,230.82544740001322,,,,229.9247311000072,230.8407708000159,230.8407708000159,230.8407708000159,down,1.717339399998309,None,None,,,,,,,,,,,,,,,,,P116,001,2025-02-19_13h10.02.187,posner_endo_new1,2024.2.4,60.076730003330624,2025-02-19 13h10.10.583814 +0000,
cube_l.png,0.1,-0.31,valid,50,50,0,down,2.240800200001104,None,space,0.4704466999974102,None,,,,,0,50,50,50,,,,,230.8407708000159,,,,,,,,,,,,,230.826005800016,230.8407708000159,230.8407708000159,230.8407708000159,233.0900582000031,,,,233.10544610000215,233.11612740001874,233.11612740001874,233.15490960000898,233.15519059999497,233.17143210000359,233.17143210000359,233.17143210000359,233.25468380001257,233.65527869999642,,,,,,,,down,2.240800200001104,None,space,0.4704466999974102,None,,,,,,,,,,,,,,,P116,001,2025-02-19_13h10.02.187,posner_endo_new1,2024.2.4,60.076730003330624,2025-02-19 13h10.10.583814 +0000,
cube_l.png,0.1,-0.31,valid,51,51,0,down,2.2259346000209916,None,space,0.4530257000005804,None,,,,,0,51,51,51,,,,,233.67084979999345,,,,,,,,,,,,,233.6555010000011,233.67084979999345,233.67084979999345,233.67084979999345,235.90305220001028,,,,235.912160900014,235.9220687999914,235.9220687999914,235.96877310000127,235.96905380001408,235.98520980001194,235.98520980001194,235.98520980001194,236.0684647000162,236.45250230000238,,,,,,,,down,2.2259346000209916,None,space,0.4530257000005804,None,,,,,,,,,,,,,,,P116,001,2025-02-19_13h10.02.187,posner_endo_new1,2024.2.4,60.076730003330624,2025-02-19 13h10.10.583814 +0000,
cube_r.png,0.1,-0.31,invalid,52,52,0,down,2.901774900004966,None,space,0.4566032000002451,None,,,,,0,52,52,52,,,,,236.46805570001015,,,,,,,,,,,,,236.45272490000934,236.46805570001015,236.46805570001015,236.46805570001015,239.38294630000019,,,,239.39499010000145,239.40511570000672,239.40511570000672,239.4484883999976,239.44884240001556,239.46488889999455,239.46488889999455,239.46488889999455,239.54819289999432,239.9323216000048,,,,,,,,down,2.901774900004966,None,space,0.4566032000002451,None,,,,,,,,,,,,,,,P116,001,2025-02-19_13h10.02.187,posner_endo_new1,2024.2.4,60.076730003330624,2025-02-19 13h10.10.583814 +0000,
cube_l.png,0.1,-0.31,valid,53,53,0,down,1.5179480999941006,None,space,0.3734056000248529,None,,,,,0,53,53,53,,,,,239.9477179000096,,,,,,,,,,,,,239.93261519999942,239.9477179000096,239.9477179000096,239.9477179000096,241.48069810000015,,,,241.48942210001405,241.49934969999595,241.49934969999595,241.5460260999971,241.54627930000424,241.56302329999744,241.56302329999744,241.56302329999744,241.64580120000755,241.94675450000796,,,,,,,,down,1.5179480999941006,None,space,0.3734056000248529,None,,,,,,,,,,,,,,,P116,001,2025-02-19_13h10.02.187,posner_endo_new1,2024.2.4,60.076730003330624,2025-02-19 13h10.10.583814 +0000,
cube_r.png,0.1,10,catch,54,54,0,down,1.7907635000010487,None,None,,,,,,,0,54,54,54,,,,,241.9624155999918,,,,,,,,,,,,,241.94694860000163,241.9624155999918,241.9624155999918,241.9624155999918,243.76142650001566,,,,243.76938810001593,243.78010960001848,243.78010960001848,243.82736990001285,243.82763220000197,243.84375840000575,243.84375840000575,243.84375840000575,243.91045900000609,246.84129969999776,,,,245.9249686000112,246.85752130000037,246.85752130000037,246.85752130000037,down,1.7907635000010487,None,None,,,,,,,,,,,,,,,,,P116,001,2025-02-19_13h10.02.187,posner_endo_new1,2024.2.4,60.076730003330624,2025-02-19 13h10.10.583814 +0000,
cube_l.png,0.1,0.31,invalid,55,55,0,down,1.9753559000091627,None,space,0.4221448999887798,None,,,,,0,55,55,55,,,,,246.85752130000037,,,,,,,,,,,,,246.84149250001065,246.85752130000037,246.85752130000037,246.85752130000037,248.83958550001262,,,,248.84727580001345,248.8583895000047,248.8583895000047,248.90553660001024,248.90578990001814,248.9220522000105,248.9220522000105,248.9220522000105,249.0054087000026,249.3557676000055,,,,,,,,down,1.9753559000091627,None,space,0.4221448999887798,None,,,,,,,,,,,,,,,P116,001,2025-02-19_13h10.02.187,posner_endo_new1,2024.2.4,60.076730003330624,2025-02-19 13h10.10.583814 +0000,
cube_l.png,0.1,-0.31,valid,56,56,0,down,5.629759899980854,None,space,0.550927700009197,None,,,,,0,56,56,56,,,,,249.37162690001423,,,,,,,,,,,,,249.3559719999903,249.37162690001423,249.37162690001423,249.37162690001423,255.01668719999725,,,,255.02476749999914,255.03540839999914,255.03540839999914,255.08298320000176,255.08323530000052,255.09910620001028,255.09910620001028,255.09910620001028,255.1822771000152,255.66589619999286,,,,,,,,down,5.629759899980854,None,space,0.550927700009197,None,,,,,,,,,,,,,,,P116,001,2025-02-19_13h10.02.187,posner_endo_new1,2024.2.4,60.076730003330624,2025-02-19 13h10.10.583814 +0000,
cube_r.png,0.1,0.31,valid,57,57,0,down,2.015565299981972,None,space,0.6413392999966163,None,,,,,0,57,57,57,,,,,255.68189050001092,,,,,,,,,,,,,255.66609489999246,255.68189050001092,255.68189050001092,255.68189050001092,257.71384700000635,,,,257.72155210000346,257.7327772999997,257.7327772999997,257.7797329000023,257.7799920999969,257.79627389999223,257.79627389999223,257.79627389999223,257.86294550000457,258.44630229999893,,,,,,,,down,2.015565299981972,None,space,0.6413392999966163,None,,,,,,,,,,,,,,,P116,001,2025-02-19_13h10.02.187,posner_endo_new1,2024.2.4,60.076730003330624,2025-02-19 13h10.10.583814 +0000,
cube_r.png,0.1,-0.31,invalid,58,58,0,down,1.6593501000024844,None,space,0.6989002999907825,None,,,,,0,58,58,58,,,,,258.462268400006,,,,,,,,,,,,,258.44649629999185,258.462268400006,258.462268400006,258.462268400006,260.1277471999929,,,,260.1357160000189,260.1468240999966,260.1468240999966,260.1939793000056,260.1942304999975,260.2102234000049,260.2102234000049,260.2102234000049,260.27711130000534,260.9107554999937,,,,,,,,down,1.6593501000024844,None,space,0.6989002999907825,None,,,,,,,,,,,,,,,P116,001,2025-02-19_13h10.02.187,posner_endo_new1,2024.2.4,60.076730003330624,2025-02-19 13h10.10.583814 +0000,
cube_l.png,0.1,0.31,invalid,59,59,0,down,1.3789226000080816,None,space,0.5549157000205014,None,,,,,0,59,59,59,,,,,260.9263975000067,,,,,,,,,,,,,260.91094910001266,260.9263975000067,260.9263975000067,260.9263975000067,262.3092031000124,,,,262.31692559999647,262.3279709999915,262.3279709999915,262.3746247999952,262.3748767999932,262.39149189999443,262.39149189999443,262.39149189999443,262.4748024000146,262.95846890000394,,,,,,,,down,1.3789226000080816,None,space,0.5549157000205014,None,,,,,,,,,,,,,,,P116,001,2025-02-19_13h10.02.187,posner_endo_new1,2024.2.4,60.076730003330624,2025-02-19 13h10.10.583814 +0000,
,,,,,,,,,,,,,,,,,,,,,,,,,,,,,,,,,,,,,,,,,,,,,,,,,,,,,,,,,,,,,,,,,,,,,262.9585977999959,262.97435830000904,262.97435830000904,322.97958069999004,362.93949160000193,space,99.96367060000193,None,,,,,,,P116,001,2025-02-19_13h10.02.187,posner_endo_new1,2024.2.4,60.076730003330624,2025-02-19 13h10.10.583814 +0000,
,,,,,,,,,,,,,,,,,,,,,,,,,,,,,,,,,,362.939544199995,362.9555396999931,365.9567925000156,365.9359279999917,,,,,,,,,,,,,,,,,,,,,,,,,,,,,,,,,,,,,,,,,,,,,,P116,001,2025-02-19_13h10.02.187,posner_endo_new1,2024.2.4,60.076730003330624,2025-02-19 13h10.10.583814 +0000,
cube_l.png,0.1,10,catch,0,0,0,up,1.3088926000054926,None,None,,,,,,,,,,,0,0,0,0,365.9567925000156,,,,,,,,,,,,,365.94788749999134,365.9567925000156,365.9567925000156,365.9567925000156,367.26856739999494,,,,367.27489739999874,367.28688359999796,367.28688359999796,367.33472400001483,367.33496400000877,367.3511123000062,367.3511123000062,367.3511123000062,367.41778650000924,370.3484601000091,,,,369.432057900005,370.3647050000145,370.3647050000145,370.3647050000145,,,,,,,,,,,,,,,up,1.3088926000054926,None,None,,,P116,001,2025-02-19_13h10.02.187,posner_endo_new1,2024.2.4,60.076730003330624,2025-02-19 13h10.10.583814 +0000,
cube_l.png,0.1,10,catch,1,1,0,up,2.285162099986337,None,None,,,,,,,,,,,0,1,1,1,370.3647050000145,,,,,,,,,,,,,370.348628000007,370.3647050000145,370.3647050000145,370.3647050000145,372.6628775999998,,,,372.6690690999967,372.6809162000136,372.6809162000136,372.7288344000117,372.7290636000107,372.7457403000153,372.7457403000153,372.7457403000153,372.8122241999954,375.7426078999997,,,,374.82673220001743,375.7589886999922,375.7589886999922,375.7589886999922,,,,,,,,,,,,,,,up,2.285162099986337,None,None,,,P116,001,2025-02-19_13h10.02.187,posner_endo_new1,2024.2.4,60.076730003330624,2025-02-19 13h10.10.583814 +0000,
cube_l.png,0.1,0.31,invalid,2,2,0,up,3.154839800001355,None,space,0.47916230000555515,None,,,,,,,,,0,2,2,2,375.7589886999922,,,,,,,,,,,,,375.742770700017,375.7589886999922,375.7589886999922,375.7589886999922,378.9232500999933,,,,378.9293042999925,378.9409820000001,378.9409820000001,378.9891397000174,378.9893658999936,379.0055434000096,379.0055434000096,379.0055434000096,379.0891047999903,379.4896452999965,,,,,,,,,,,,,,,,,,,,,,up,3.154839800001355,None,space,0.47916230000555515,None,P116,001,2025-02-19_13h10.02.187,posner_endo_new1,2024.2.4,60.076730003330624,2025-02-19 13h10.10.583814 +0000,
cube_l.png,0.1,0.31,invalid,3,3,0,up,4.31992470001569,None,space,0.5070934999966994,None,,,,,,,,,0,3,3,3,379.50527480000164,,,,,,,,,,,,,379.48981800000183,379.50527480000164,379.50527480000164,379.50527480000164,383.8348873000068,,,,383.84089330001734,383.85266299999785,383.85266299999785,383.90101950001554,383.90124810001,383.91744130000006,383.91744130000006,383.91744130000006,383.9836668999924,384.4343874999904,,,,,,,,,,,,,,,,,,,,,,up,4.31992470001569,None,space,0.5070934999966994,None,P116,001,2025-02-19_13h10.02.187,posner_endo_new1,2024.2.4,60.076730003330624,2025-02-19 13h10.10.583814 +0000,
cube_l.png,0.1,-0.31,valid,4,4,0,up,2.1509161999856587,None,space,0.5941030999820214,None,,,,,,,,,0,4,4,4,384.4503404000134,,,,,,,,,,,,,384.4345624000125,384.4503404000134,384.4503404000134,384.4503404000134,386.61543420000817,,,,386.6216122999904,386.6333830000076,386.6333830000076,386.68141900000046,386.681648400001,386.69781350000994,386.69781350000994,386.69781350000994,386.76416570000583,387.2981192000152,,,,,,,,,,,,,,,,,,,,,,up,2.1509161999856587,None,space,0.5941030999820214,None,P116,001,2025-02-19_13h10.02.187,posner_endo_new1,2024.2.4,60.076730003330624,2025-02-19 13h10.10.583814 +0000,
cube_r.png,0.1,-0.31,invalid,5,5,0,up,2.7754546999931335,None,space,0.42276940000010654,None,,,,,,,,,0,5,5,5,387.3139330999984,,,,,,,,,,,,,387.29829269999755,387.3139330999984,387.3139330999984,387.3139330999984,390.09536669999943,,,,390.10144850000506,390.1133397000085,390.1133397000085,390.16126419999637,390.16149220001535,390.17783130001044,390.17783130001044,390.17783130001044,390.26102890001494,390.6113092000014,,,,,,,,,,,,,,,,,,,,,,up,2.7754546999931335,None,space,0.42276940000010654,None,P116,001,2025-02-19_13h10.02.187,posner_endo_new1,2024.2.4,60.076730003330624,2025-02-19 13h10.10.583814 +0000,
cube_r.png,0.1,0.31,valid,6,6,0,up,5.845819999987725,None,space,0.476984499982791,None,,,,,,,,,0,6,6,6,390.6273022000096,,,,,,,,,,,,,390.611487999995,390.6273022000096,390.6273022000096,390.6273022000096,396.48869739999645,,,,396.4948546999949,396.50640899999416,396.50640899999416,396.55455770000117,396.55479090000154,396.5707459000114,396.5707459000114,396.5707459000114,396.6544702000101,397.05464180000126,,,,,,,,,,,,,,,,,,,,,,up,5.845819999987725,None,space,0.476984499982791,None,P116,001,2025-02-19_13h10.02.187,posner_endo_new1,2024.2.4,60.076730003330624,2025-02-19 13h10.10.583814 +0000,
cube_r.png,0.1,-0.31,invalid,7,7,0,up,5.138517400017008,None,space,0.4532691999920644,None,,,,,,,,,0,7,7,7,397.0708630000008,,,,,,,,,,,,,397.0548243999947,397.0708630000008,397.0708630000008,397.0708630000008,402.2184661999927,,,,402.2416801000072,402.2539233000134,402.2539233000134,402.28203770000255,402.282392299996,402.29869940000935,402.29869940000935,402.29869940000935,402.38173140000436,402.7660375999985,,,,,,,,,,,,,,,,,,,,,,up,5.138517400017008,None,space,0.4532691999920644,None,P116,001,2025-02-19_13h10.02.187,posner_endo_new1,2024.2.4,60.076730003330624,2025-02-19 13h10.10.583814 +0000,
cube_l.png,0.1,-0.31,valid,8,8,0,up,3.276695699983975,None,space,0.347098600002937,None,,,,,,,,,0,8,8,8,402.781398799998,,,,,,,,,,,,,402.7663315999962,402.781398799998,402.781398799998,402.781398799998,406.06269990000874,,,,406.0743152000068,406.0846899000171,406.0846899000171,406.128125200019,406.12847460000194,406.14472750001005,406.14472750001005,406.14472750001005,406.2278854000033,406.49551800001063,,,,,,,,,,,,,,,,,,,,,,up,3.276695699983975,None,space,0.347098600002937,None,P116,001,2025-02-19_13h10.02.187,posner_endo_new1,2024.2.4,60.076730003330624,2025-02-19 13h10.10.583814 +0000,
cube_r.png,0.1,-0.31,invalid,9,9,0,up,3.0262147999892477,None,space,0.4943515000049956,None,,,,,,,,,0,9,9,9,406.51090729999123,,,,,,,,,,,,,406.49581570000737,406.51090729999123,406.51090729999123,406.51090729999123,409.54235490001156,,,,409.55390420000185,409.56411770000705,409.56411770000705,409.60804789999384,409.6083953999914,409.6243785000115,409.6243785000115,409.6243785000115,409.7077521000174,410.12511940000695,,,,,,,,,,,,,,,,,,,,,,up,3.0262147999892477,None,space,0.4943515000049956,None,P116,001,2025-02-19_13h10.02.187,posner_endo_new1,2024.2.4,60.076730003330624,2025-02-19 13h10.10.583814 +0000,
cube_l.png,0.1,0.31,invalid,10,10,0,up,3.5726792000059504,None,space,0.6582944999972824,None,,,,,,,,,0,10,10,10,410.14051850000396,,,,,,,,,,,,,410.12541229999624,410.14051850000396,410.14051850000396,410.14051850000396,413.72163849999197,,,,413.7331370000029,413.7432622000051,413.7432622000051,413.7870225000079,413.7873722999939,413.80341550000594,413.80341550000594,413.80341550000594,413.8867247000162,414.4707094000187,,,,,,,,,,,,,,,,,,,,,,up,3.5726792000059504,None,space,0.6582944999972824,None,P116,001,2025-02-19_13h10.02.187,posner_endo_new1,2024.2.4,60.076730003330624,2025-02-19 13h10.10.583814 +0000,
cube_r.png,0.1,-0.31,invalid,11,11,0,up,3.172033399983775,None,space,0.45043969998368993,None,,,,,,,,,0,11,11,11,414.4860752999957,,,,,,,,,,,,,414.47100290001254,414.4860752999957,414.4860752999957,414.4860752999957,417.66726069999277,,,,417.67670300000464,417.686339900014,417.686339900014,417.73299119999865,417.7332330000063,417.74948790000053,417.74948790000053,417.74948790000053,417.832765500003,418.21637110001757,,,,,,,,,,,,,,,,,,,,,,up,3.172033399983775,None,space,0.45043969998368993,None,P116,001,2025-02-19_13h10.02.187,posner_endo_new1,2024.2.4,60.076730003330624,2025-02-19 13h10.10.583814 +0000,
cube_r.png,0.1,0.31,valid,12,12,0,up,3.1536921999941114,None,space,0.36532050001551397,None,,,,,,,,,0,12,12,12,418.2323422000045,,,,,,,,,,,,,418.21655850001844,418.2323422000045,418.2323422000045,418.2323422000045,421.39656749999267,,,,421.40355760001694,421.41527530000894,421.41527530000894,421.46256220000214,421.4628394000174,421.4790786000085,421.4790786000085,421.4790786000085,421.5453838999965,421.8462697000068,,,,,,,,,,,,,,,,,,,,,,up,3.1536921999941114,None,space,0.36532050001551397,None,P116,001,2025-02-19_13h10.02.187,posner_endo_new1,2024.2.4,60.076730003330624,2025-02-19 13h10.10.583814 +0000,
cube_l.png,0.1,10,catch,13,13,0,up,3.6994751000020187,None,None,,,,,,,,,,,0,13,13,13,421.86210490000667,,,,,,,,,,,,,421.8464588999923,421.86210490000667,421.86210490000667,421.86210490000667,425.5755094999913,,,,425.58255809999537,425.59438690001843,425.59438690001843,425.64154519999283,425.6417852000159,425.65816520000226,425.65816520000226,425.65816520000226,425.7247381999914,428.65551410001353,,,,427.73941000000923,428.6717148000025,428.6717148000025,428.6717148000025,,,,,,,,,,,,,,,up,3.6994751000020187,None,None,,,P116,001,2025-02-19_13h10.02.187,posner_endo_new1,2024.2.4,60.076730003330624,2025-02-19 13h10.10.583814 +0000,
cube_r.png,0.1,-0.31,invalid,14,14,0,up,0.6742111000057776,None,space,0.45865860002231784,None,,,,,,,,,0,14,14,14,428.6717148000025,,,,,,,,,,,,,428.6556955999986,428.6717148000025,428.6717148000025,428.6717148000025,429.35528670001077,,,,429.36225940001896,429.3739504000114,429.3739504000114,429.4212923000159,429.4215337999922,429.43760390000534,429.43760390000534,429.43760390000534,429.52068320001126,429.9044758999953,,,,,,,,,,,,,,,,,,,,,,up,0.6742111000057776,None,space,0.45865860002231784,None,P116,001,2025-02-19_13h10.02.187,posner_endo_new1,2024.2.4,60.076730003330624,2025-02-19 13h10.10.583814 +0000,
cube_l.png,0.1,-0.31,valid,15,15,0,up,1.8729567999835126,None,space,0.7730231999885291,None,,,,,,,,,0,15,15,15,429.9204709000187,,,,,,,,,,,,,429.9046634999977,429.9204709000187,429.9204709000187,429.9204709000187,431.80271899999934,,,,431.80972270001075,431.8213908000034,431.8213908000034,431.8687116999936,431.86894030001713,431.88521130001754,431.88521130001754,431.88521130001754,431.9684196000162,432.66845560001093,,,,,,,,,,,,,,,,,,,,,,up,1.8729567999835126,None,space,0.7730231999885291,None,P116,001,2025-02-19_13h10.02.187,posner_endo_new1,2024.2.4,60.076730003330624,2025-02-19 13h10.10.583814 +0000,
cube_r.png,0.1,10,catch,16,16,0,up,2.109432700002799,None,space,0.36632680002367124,None,,,,,,,,,0,16,16,16,432.68443580000894,,,,,,,,,,,,,432.66862840001704,432.68443580000894,432.68443580000894,432.68443580000894,434.7990886000043,,,,434.805185300007,434.8168888000073,434.8168888000073,434.86546090000775,434.86568809999153,434.8815232999914,434.8815232999914,434.8815232999914,434.94884270001785,435.248848200019,,,,,,,,,,,,,,,,,,,,,,up,2.109432700002799,None,space,0.36632680002367124,None,P116,001,2025-02-19_13h10.02.187,posner_endo_new1,2024.2.4,60.076730003330624,2025-02-19 13h10.10.583814 +0000,
cube_r.png,0.1,10,catch,17,17,0,up,3.2011338000011165,None,None,,,,,,,,,,,0,17,17,17,435.26498090001405,,,,,,,,,,,,,435.24902240000665,435.26498090001405,435.26498090001405,435.26498090001405,438.47898459999124,,,,438.48509639999247,438.4967840000172,438.4967840000172,438.545030600013,438.54525729999295,438.56161219999194,438.56161219999194,438.56161219999194,438.6282454000029,441.5589899000188,,,,440.64232810001704,441.5746718000155,441.5746718000155,441.5746718000155,,,,,,,,,,,,,,,up,3.2011338000011165,None,None,,,P116,001,2025-02-19_13h10.02.187,posner_endo_new1,2024.2.4,60.076730003330624,2025-02-19 13h10.10.583814 +0000,
cube_l.png,0.1,0.31,invalid,18,18,0,up,0.43512330000521615,None,space,0.658083100017393,None,,,,,,,,,0,18,18,18,441.5746718000155,,,,,,,,,,,,,441.5591557000007,441.5746718000155,441.5746718000155,441.5746718000155,442.0253127000178,,,,442.0313000000024,442.0430830999976,442.0430830999976,442.09132300000056,442.09155199999805,442.10770039999625,442.10770039999625,442.10770039999625,442.1742230000091,442.7744947000174,,,,,,,,,,,,,,,,,,,,,,up,0.43512330000521615,None,space,0.658083100017393,None,P116,001,2025-02-19_13h10.02.187,posner_endo_new1,2024.2.4,60.076730003330624,2025-02-19 13h10.10.583814 +0000,
cube_l.png,0.1,10,catch,19,19,0,up,2.5386895000119694,None,None,,,,,,,,,,,0,19,19,19,442.7906673999969,,,,,,,,,,,,,442.7746674999944,442.7906673999969,442.7906673999969,442.7906673999969,445.33877770000254,,,,445.3447931999981,445.3564736999979,445.3564736999979,445.4047310000169,445.40495630001533,445.42099179999786,445.42099179999786,445.42099179999786,445.48793500001193,448.41888549999567,,,,447.5021277999913,448.43498270001146,448.43498270001146,448.43498270001146,,,,,,,,,,,,,,,up,2.5386895000119694,None,None,,,P116,001,2025-02-19_13h10.02.187,posner_endo_new1,2024.2.4,60.076730003330624,2025-02-19 13h10.10.583814 +0000,
cube_l.png,0.1,0.31,invalid,20,20,0,up,0.9982068999961484,None,space,0.34803310001734644,None,,,,,,,,,0,20,20,20,448.43498270001146,,,,,,,,,,,,,448.4190489000175,448.43498270001146,448.43498270001146,448.43498270001146,449.4346778000181,,,,449.4406903999916,449.4522810000053,449.4522810000053,449.5001775000128,449.50040560000343,449.5172531999997,449.5172531999997,449.5172531999997,449.6001260000048,449.86754470001324,,,,,,,,,,,,,,,,,,,,,,up,0.9982068999961484,None,space,0.34803310001734644,None,P116,001,2025-02-19_13h10.02.187,posner_endo_new1,2024.2.4,60.076730003330624,2025-02-19 13h10.10.583814 +0000,
cube_l.png,0.1,-0.31,valid,21,21,0,up,3.5658917000109795,None,space,0.4196504999999888,None,,,,,,,,,0,21,21,21,449.8835013000062,,,,,,,,,,,,,449.86772090001614,449.8835013000062,449.8835013000062,449.8835013000062,453.4640308000089,,,,453.46999949999736,453.4817624000134,453.4817624000134,453.52963800000725,453.52986569999484,453.5459606999939,453.5459606999939,453.5459606999939,453.62983210000675,453.97958270000527,,,,,,,,,,,,,,,,,,,,,,up,3.5658917000109795,None,space,0.4196504999999888,None,P116,001,2025-02-19_13h10.02.187,posner_endo_new1,2024.2.4,60.076730003330624,2025-02-19 13h10.10.583814 +0000,
cube_r.png,0.1,0.31,valid,22,22,0,up,2.822687899984885,None,space,0.3943284999986645,None,,,,,,,,,0,22,22,22,453.9953838000074,,,,,,,,,,,,,453.9797581000021,453.9953838000074,453.9953838000074,453.9953838000074,456.8269780999981,,,,456.83298629999626,456.84471229999326,456.84471229999326,456.89300080001703,456.89323000001605,456.909607300011,456.909607300011,456.909607300011,456.9761398000119,457.30967819999205,,,,,,,,,,,,,,,,,,,,,,up,2.822687899984885,None,space,0.3943284999986645,None,P116,001,2025-02-19_13h10.02.187,posner_endo_new1,2024.2.4,60.076730003330624,2025-02-19 13h10.10.583814 +0000,
cube_r.png,0.1,-0.31,invalid,23,23,0,up,1.9074138999858405,None,space,0.3782458000059705,None,,,,,,,,,0,23,23,23,457.32587960001547,,,,,,,,,,,,,457.30985340001644,457.32587960001547,457.32587960001547,457.32587960001547,459.2414201000065,,,,459.24741390001145,459.25910759999533,459.25910759999533,459.3068923999963,459.3071174999932,459.3236839000019,459.3236839000019,459.3236839000019,459.4070355000149,459.7070405000122,,,,,,,,,,,,,,,,,,,,,,up,1.9074138999858405,None,space,0.3782458000059705,None,P116,001,2025-02-19_13h10.02.187,posner_endo_new1,2024.2.4,60.076730003330624,2025-02-19 13h10.10.583814 +0000,
cube_r.png,0.1,0.31,valid,24,24,0,up,1.7984493999974802,None,space,0.4473359999828972,None,,,,,,,,,0,24,24,24,459.7234296000097,,,,,,,,,,,,,459.70721429999685,459.7234296000097,459.7234296000097,459.7234296000097,461.522607299994,,,,461.5286262000154,461.54044529999373,461.54044529999373,461.5884440999944,461.5886717000103,461.6046863000083,461.6046863000083,461.6046863000083,461.6880320000055,462.05500409999513,,,,,,,,,,,,,,,,,,,,,,up,1.7984493999974802,None,space,0.4473359999828972,None,P116,001,2025-02-19_13h10.02.187,posner_endo_new1,2024.2.4,60.076730003330624,2025-02-19 13h10.10.583814 +0000,
cube_r.png,0.1,-0.31,invalid,25,25,0,up,2.2126160000043456,None,space,0.4812182000023313,None,,,,,,,,,0,25,25,25,462.0704359000083,,,,,,,,,,,,,462.05518210001173,462.0704359000083,462.0704359000083,462.0704359000083,464.2858274000173,,,,464.2917784000165,464.30346830000053,464.30346830000053,464.3515446000092,464.3517711000168,464.368590099999,464.368590099999,464.368590099999,464.43528569999035,464.85197610000614,,,,,,,,,,,,,,,,,,,,,,up,2.2126160000043456,None,space,0.4812182000023313,None,P116,001,2025-02-19_13h10.02.187,posner_endo_new1,2024.2.4,60.076730003330624,2025-02-19 13h10.10.583814 +0000,
cube_l.png,0.1,-0.31,valid,26,26,0,up,3.5822374999988824,None,space,0.36521990000619553,None,,,,,,,,,0,26,26,26,464.8681029000145,,,,,,,,,,,,,464.8521513000014,464.8681029000145,464.8681029000145,464.8681029000145,468.4646403999941,,,,468.4706800999993,468.4822886000038,468.4822886000038,468.5312655000016,468.5314927000145,468.547378999996,468.547378999996,468.547378999996,468.61397939999006,468.9143807000073,,,,,,,,,,,,,,,,,,,,,,up,3.5822374999988824,None,space,0.36521990000619553,None,P116,001,2025-02-19_13h10.02.187,posner_endo_new1,2024.2.4,60.076730003330624,2025-02-19 13h10.10.583814 +0000,
cube_r.png,0.1,0.31,valid,27,27,0,up,3.630503899999894,None,space,0.34016359999077395,None,,,,,,,,,0,27,27,27,468.93073520000326,,,,,,,,,,,,,468.91455889999634,468.93073520000326,468.93073520000326,468.93073520000326,472.5777796000184,,,,472.5839219999907,472.59558160000597,472.59558160000597,472.64353370000026,472.6437583999941,472.6597127999994,472.6597127999994,472.6597127999994,472.74337599999853,473.0104385000013,,,,,,,,,,,,,,,,,,,,,,up,3.630503899999894,None,space,0.34016359999077395,None,P116,001,2025-02-19_13h10.02.187,posner_endo_new1,2024.2.4,60.076730003330624,2025-02-19 13h10.10.583814 +0000,
cube_r.png,0.1,10,catch,28,28,0,up,3.303691000008257,None,None,,,,,,,,,,,0,28,28,28,473.02639569999883,,,,,,,,,,,,,473.0106331999996,473.02639569999883,473.02639569999883,473.02639569999883,476.34029739999096,,,,476.34636429999955,476.35796590000973,476.35796590000973,476.40636600001017,476.40659480000613,476.4228801999998,476.4228801999998,476.4228801999998,476.4895317000046,479.4204594999901,,,,478.50410379999084,479.43665250000777,479.43665250000777,479.43665250000777,,,,,,,,,,,,,,,up,3.303691000008257,None,None,,,P116,001,2025-02-19_13h10.02.187,posner_endo_new1,2024.2.4,60.076730003330624,2025-02-19 13h10.10.583814 +0000,
cube_r.png,0.1,0.31,valid,29,29,0,up,0.6048382999724708,None,space,0.36035579998861067,None,,,,,,,,,0,29,29,29,479.43665250000777,,,,,,,,,,,,,479.420629500004,479.43665250000777,479.43665250000777,479.43665250000777,480.05331119999755,,,,480.0592607000144,480.07091390001005,480.07091390001005,480.1189135000168,480.1191466000164,480.1359930000035,480.1359930000035,480.1359930000035,480.2191812999954,480.50258530001156,,,,,,,,,,,,,,,,,,,,,,up,0.6048382999724708,None,space,0.36035579998861067,None,P116,001,2025-02-19_13h10.02.187,posner_endo_new1,2024.2.4,60.076730003330624,2025-02-19 13h10.10.583814 +0000,
cube_r.png,0.1,0.31,valid,30,30,0,up,4.570782599999802,None,space,0.4751358999928925,None,,,,,,,,,0,30,30,30,480.5187519000028,,,,,,,,,,,,,480.5027589999954,480.5187519000028,480.5187519000028,480.5187519000028,485.09821830000146,,,,485.1041943000164,485.1158137000166,485.1158137000166,485.16377420001663,485.1640042999934,485.1808481000189,485.1808481000189,485.1808481000189,485.26348080000025,485.66607470001327,,,,,,,,,,,,,,,,,,,,,,up,4.570782599999802,None,space,0.4751358999928925,None,P116,001,2025-02-19_13h10.02.187,posner_endo_new1,2024.2.4,60.076730003330624,2025-02-19 13h10.10.583814 +0000,
cube_l.png,0.1,-0.31,valid,31,31,0,up,2.0896703999897,None,space,0.4679257000098005,None,,,,,,,,,0,31,31,31,485.6805084999942,,,,,,,,,,,,,485.6666642999917,485.6805084999942,485.6805084999942,485.6805084999942,487.78057180001633,,,,487.8038034999918,487.81597789999796,487.81597789999796,487.8443777000066,487.844768800016,487.8608421999961,487.8608421999961,487.8608421999961,487.94409770000493,488.345043600013,,,,,,,,,,,,,,,,,,,,,,up,2.0896703999897,None,space,0.4679257000098005,None,P116,001,2025-02-19_13h10.02.187,posner_endo_new1,2024.2.4,60.076730003330624,2025-02-19 13h10.10.583814 +0000,
cube_r.png,0.1,0.31,valid,32,32,0,up,5.225299500016263,None,space,0.4328940999985207,None,,,,,,,,,0,32,32,32,488.3603595000168,,,,,,,,,,,,,488.3453828000056,488.3603595000168,488.3603595000168,488.3603595000168,493.5898201999953,,,,493.6026368000021,493.6127036999969,493.6127036999969,493.6551119000069,493.6555038999941,493.67157189999125,493.67157189999125,493.67157189999125,493.7548311999999,494.10599199999706,,,,,,,,,,,,,,,,,,,,,,up,5.225299500016263,None,space,0.4328940999985207,None,P116,001,2025-02-19_13h10.02.187,posner_endo_new1,2024.2.4,60.076730003330624,2025-02-19 13h10.10.583814 +0000,
cube_r.png,0.1,-0.31,invalid,33,33,0,up,3.064290600013919,None,space,0.4576575000246521,None,,,,,,,,,0,33,33,33,494.1211192999908,,,,,,,,,,,,,494.10632419999456,494.1211192999908,494.1211192999908,494.1211192999908,497.2024975999957,,,,497.21523530001286,497.224933599995,497.224933599995,497.2680857999949,497.26848230001633,497.2845884000126,497.2845884000126,497.2845884000126,497.3678101999976,497.7520854000177,,,,,,,,,,,,,,,,,,,,,,up,3.064290600013919,None,space,0.4576575000246521,None,P116,001,2025-02-19_13h10.02.187,posner_endo_new1,2024.2.4,60.076730003330624,2025-02-19 13h10.10.583814 +0000,
cube_r.png,0.1,10,catch,34,34,0,up,2.3779088000010233,None,None,,,,,,,,,,,0,34,34,34,497.76739300001645,,,,,,,,,,,,,497.7524193999998,497.76739300001645,497.76739300001645,497.76739300001645,500.1496954000031,,,,500.1623978000134,500.17245620000176,500.17245620000176,500.2154062000045,500.21567880001385,500.23192859999835,500.23192859999835,500.23192859999835,500.3152051999932,503.22941090000677,,,,502.32988730000216,503.24564579999424,503.24564579999424,503.24564579999424,,,,,,,,,,,,,,,up,2.3779088000010233,None,None,,,P116,001,2025-02-19_13h10.02.187,posner_endo_new1,2024.2.4,60.076730003330624,2025-02-19 13h10.10.583814 +0000,
cube_r.png,0.1,0.31,valid,35,35,0,up,0.2844263000006322,None,space,0.5847094000200741,None,,,,,,,,,0,35,35,35,503.24564579999424,,,,,,,,,,,,,503.22960809999495,503.24564579999424,503.24564579999424,503.24564579999424,503.5462484000018,,,,503.5542795000074,503.5649121000024,503.5649121000024,503.6119692999928,503.61223970001447,503.6284855999984,503.6284855999984,503.6284855999984,503.7117344000144,504.2288280999928,,,,,,,,,,,,,,,,,,,,,,up,0.2844263000006322,None,space,0.5847094000200741,None,P116,001,2025-02-19_13h10.02.187,posner_endo_new1,2024.2.4,60.076730003330624,2025-02-19 13h10.10.583814 +0000,
cube_r.png,0.1,-0.31,invalid,36,36,0,up,1.5666892000008374,None,space,0.48117489999276586,None,,,,,,,,,0,36,36,36,504.2445515000145,,,,,,,,,,,,,504.22906220000004,504.2445515000145,504.2445515000145,504.2445515000145,505.8270957999921,,,,505.83494639999117,505.8459059000015,505.8459059000015,505.89301140001044,505.8932796000154,505.909524000017,505.909524000017,505.909524000017,505.9761256999918,506.39320720001706,,,,,,,,,,,,,,,,,,,,,,up,1.5666892000008374,None,space,0.48117489999276586,None,P116,001,2025-02-19_13h10.02.187,posner_endo_new1,2024.2.4,60.076730003330624,2025-02-19 13h10.10.583814 +0000,
cube_l.png,0.1,0.31,invalid,37,37,0,up,2.184985499974573,None,space,0.37187259999336675,None,,,,,,,,,0,37,37,37,506.4089728000108,,,,,,,,,,,,,506.3934253999905,506.4089728000108,506.4089728000108,506.4089728000108,508.6076418000157,,,,508.6154949000047,508.62628450000193,508.62628450000193,508.6733981000143,508.67365959999734,508.68988819999504,508.68988819999504,508.68988819999504,508.7732029000181,509.07382019999204,,,,,,,,,,,,,,,,,,,,,,up,2.184985499974573,None,space,0.37187259999336675,None,P116,001,2025-02-19_13h10.02.187,posner_endo_new1,2024.2.4,60.076730003330624,2025-02-19 13h10.10.583814 +0000,
cube_l.png,0.1,0.31,invalid,38,38,0,up,3.152361100015696,None,space,1.0875210000085644,None,,,,,,,,,0,38,38,38,509.08959760001744,,,,,,,,,,,,,509.0740327000094,509.08959760001744,509.08959760001744,509.08959760001744,512.2539131999947,,,,512.261737199995,512.2725991999905,512.2725991999905,512.3198370000173,512.3201034000085,512.3362610999902,512.3362610999902,512.3362610999902,512.4194950000092,513.4360363000014,,,,,,,,,,,,,,,,,,,,,,up,3.152361100015696,None,space,1.0875210000085644,None,P116,001,2025-02-19_13h10.02.187,posner_endo_new1,2024.2.4,60.076730003330624,2025-02-19 13h10.10.583814 +0000,
cube_r.png,0.1,0.31,valid,39,39,0,up,3.006359299994074,None,space,0.40446849999716505,None,,,,,,,,,0,39,39,39,513.4517857000174,,,,,,,,,,,,,513.4362474000081,513.4517857000174,513.4517857000174,513.4517857000174,516.466050899995,,,,516.4738917000068,516.48506430001,516.48506430001,516.5321069000056,516.532369099994,516.5485999000084,516.5485999000084,516.5485999000084,516.6152818000119,516.9657709000167,,,,,,,,,,,,,,,,,,,,,,up,3.006359299994074,None,space,0.40446849999716505,None,P116,001,2025-02-19_13h10.02.187,posner_endo_new1,2024.2.4,60.076730003330624,2025-02-19 13h10.10.583814 +0000,
cube_l.png,0.1,0.31,invalid,40,40,0,up,2.323757599981036,None,space,0.6436894999933429,None,,,,,,,,,0,40,40,40,516.9815352000005,,,,,,,,,,,,,516.9659872000047,516.9815352000005,516.9815352000005,516.9815352000005,519.3133801000076,,,,519.3212126000144,519.3320344999956,519.3320344999956,519.3792444000137,519.3795125000179,519.3957396000042,519.3957396000042,519.3957396000042,519.4789639000082,520.0459477000113,,,,,,,,,,,,,,,,,,,,,,up,2.323757599981036,None,space,0.6436894999933429,None,P116,001,2025-02-19_13h10.02.187,posner_endo_new1,2024.2.4,60.076730003330624,2025-02-19 13h10.10.583814 +0000,
cube_l.png,0.1,10,catch,41,41,0,up,2.7957216000068,None,None,,,,,,,,,,,0,41,41,41,520.0617285000044,,,,,,,,,,,,,520.046159199992,520.0617285000044,520.0617285000044,520.0617285000044,522.8597984999942,,,,522.8676749000151,522.8785454000172,522.8785454000172,522.9255313000176,522.925805100007,522.9421640000073,522.9421640000073,522.9421640000073,523.0254133999988,525.9397259000107,,,,525.0399635999929,525.9557163999998,525.9557163999998,525.9557163999998,,,,,,,,,,,,,,,up,2.7957216000068,None,None,,,P116,001,2025-02-19_13h10.02.187,posner_endo_new1,2024.2.4,60.076730003330624,2025-02-19 13h10.10.583814 +0000,
cube_l.png,0.1,-0.31,valid,42,42,0,up,4.102499900007388,None,space,0.49939939999603666,None,,,,,,,,,0,42,42,42,525.9557163999998,,,,,,,,,,,,,525.9399215000158,525.9557163999998,525.9557163999998,525.9557163999998,530.069072000013,,,,530.0769931999967,530.0882133000123,530.0882133000123,530.1348924000049,530.1351573000138,530.1514026999939,530.1514026999939,530.1514026999939,530.2346678000176,530.6518616999965,,,,,,,,,,,,,,,,,,,,,,up,4.102499900007388,None,space,0.49939939999603666,None,P116,001,2025-02-19_13h10.02.187,posner_endo_new1,2024.2.4,60.076730003330624,2025-02-19 13h10.10.583814 +0000,
cube_l.png,0.1,10,catch,43,43,0,up,3.38279020000482,None,None,,,,,,,,,,,0,43,43,43,530.6675627999939,,,,,,,,,,,,,530.652081200009,530.6675627999939,530.6675627999939,530.6675627999939,534.0649227999966,,,,534.0729300999956,534.083781399997,534.083781399997,534.1307588999916,534.1310233999975,534.1473249999981,534.1473249999981,534.1473249999981,534.2305176999944,537.144819100009,,,,536.245253400004,537.1608888999908,537.1608888999908,537.1608888999908,,,,,,,,,,,,,,,up,3.38279020000482,None,None,,,P116,001,2025-02-19_13h10.02.187,posner_endo_new1,2024.2.4,60.076730003330624,2025-02-19 13h10.10.583814 +0000,
cube_l.png,0.1,0.31,invalid,44,44,0,up,0.37661859998479486,None,space,0.5069162000145297,None,,,,,,,,,0,44,44,44,537.1608888999908,,,,,,,,,,,,,537.1450154999911,537.1608888999908,537.1608888999908,537.1608888999908,537.5445732999942,,,,537.5524128999969,537.5634283999971,537.5634283999971,537.6102156999987,537.6104781000176,537.6270819999918,537.6270819999918,537.6270819999918,537.6936437000113,538.1440673000179,,,,,,,,,,,,,,,,,,,,,,up,0.37661859998479486,None,space,0.5069162000145297,None,P116,001,2025-02-19_13h10.02.187,posner_endo_new1,2024.2.4,60.076730003330624,2025-02-19 13h10.10.583814 +0000,
cube_l.png,0.1,0.31,invalid,45,45,0,up,3.2582889999903273,None,space,0.45580039999913424,None,,,,,,,,,0,45,45,45,538.159805800009,,,,,,,,,,,,,538.1442792000016,538.159805800009,538.159805800009,538.159805800009,541.4239887000003,,,,541.4318181000126,541.4428323000029,541.4428323000029,541.4899698999943,541.4902347000025,541.5064104000048,541.5064104000048,541.5064104000048,541.5728588000056,541.9734785000037,,,,,,,,,,,,,,,,,,,,,,up,3.2582889999903273,None,space,0.45580039999913424,None,P116,001,2025-02-19_13h10.02.187,posner_endo_new1,2024.2.4,60.076730003330624,2025-02-19 13h10.10.583814 +0000,
cube_r.png,0.1,0.31,valid,46,46,0,up,3.1082322000002023,None,space,0.4588359000044875,None,,,,,,,,,0,46,46,46,541.9894201999996,,,,,,,,,,,,,541.9736983000184,541.9894201999996,541.9894201999996,541.9894201999996,545.1036503000068,,,,545.1116155000054,545.1224083999987,545.1224083999987,545.1695337000128,545.1698006000079,545.1859588999941,545.1859588999941,545.1859588999941,545.2693553999998,545.6530853000004,,,,,,,,,,,,,,,,,,,,,,up,3.1082322000002023,None,space,0.4588359000044875,None,P116,001,2025-02-19_13h10.02.187,posner_endo_new1,2024.2.4,60.076730003330624,2025-02-19 13h10.10.583814 +0000,
cube_l.png,0.1,-0.31,valid,47,47,0,up,3.9970028000243474,None,space,0.4020318999828305,None,,,,,,,,,0,47,47,47,545.6687155000109,,,,,,,,,,,,,545.6532979999902,545.6687155000109,545.6687155000109,545.6687155000109,549.6824152999907,,,,549.6903359999997,549.7011391000124,549.7011391000124,549.7482249000168,549.7484908000042,549.7646584000031,549.7646584000031,549.7646584000031,549.8478430999967,550.1818062000093,,,,,,,,,,,,,,,,,,,,,,up,3.9970028000243474,None,space,0.4020318999828305,None,P116,001,2025-02-19_13h10.02.187,posner_endo_new1,2024.2.4,60.076730003330624,2025-02-19 13h10.10.583814 +0000,
cube_r.png,0.1,-0.31,invalid,48,48,0,up,3.012142399995355,None,space,0.4459211000066716,None,,,,,,,,,0,48,48,48,550.1976020000002,,,,,,,,,,,,,550.1820248000149,550.1976020000002,550.1976020000002,550.1976020000002,553.2120283000113,,,,553.2199482000142,553.2309108999907,553.2309108999907,553.2779882000177,553.2782522999914,553.2944514999981,553.2944514999981,553.2944514999981,553.3609725999995,553.7447350000148,,,,,,,,,,,,,,,,,,,,,,up,3.012142399995355,None,space,0.4459211000066716,None,P116,001,2025-02-19_13h10.02.187,posner_endo_new1,2024.2.4,60.076730003330624,2025-02-19 13h10.10.583814 +0000,
cube_r.png,0.1,10,catch,49,49,0,up,4.569120400003158,None,None,,,,,,,,,,,0,49,49,49,553.7606465000135,,,,,,,,,,,,,553.744949200016,553.7606465000135,553.7606465000135,553.7606465000135,558.3401465000061,,,,558.3481080000056,558.3589921999956,558.3589921999956,558.406044000003,558.4063083000074,558.4225074000133,558.4225074000133,558.4225074000133,558.5057952000061,561.4200296000054,,,,560.5204061999975,561.4361639000126,561.4361639000126,561.4361639000126,,,,,,,,,,,,,,,up,4.569120400003158,None,None,,,P116,001,2025-02-19_13h10.02.187,posner_endo_new1,2024.2.4,60.076730003330624,2025-02-19 13h10.10.583814 +0000,
cube_l.png,0.1,-0.31,valid,50,50,0,up,3.1812238999991678,None,space,0.4541955000022426,None,,,,,,,,,0,50,50,50,561.4361639000126,,,,,,,,,,,,,561.4202234999975,561.4361639000126,561.4361639000126,561.4361639000126,564.633654300007,,,,564.6416118000052,564.6526038000011,564.6526038000011,564.699499600014,564.6997621000046,564.7161084999971,564.7161084999971,564.7161084999971,564.7826761000033,565.1831701000046,,,,,,,,,,,,,,,,,,,,,,up,3.1812238999991678,None,space,0.4541955000022426,None,P116,001,2025-02-19_13h10.02.187,posner_endo_new1,2024.2.4,60.076730003330624,2025-02-19 13h10.10.583814 +0000,
cube_l.png,0.1,-0.31,valid,51,51,0,up,2.058920699986629,None,space,0.48962399997981265,None,,,,,,,,,0,51,51,51,565.1990131000057,,,,,,,,,,,,,565.1834013999905,565.1990131000057,565.1990131000057,565.1990131000057,567.2644320999971,,,,567.2723372000037,567.2830082,567.2830082,567.3302537999989,567.3305187000078,567.3467844999977,567.3467844999977,567.3467844999977,567.4301345999993,567.8471176000021,,,,,,,,,,,,,,,,,,,,,,up,2.058920699986629,None,space,0.48962399997981265,None,P116,001,2025-02-19_13h10.02.187,posner_endo_new1,2024.2.4,60.076730003330624,2025-02-19 13h10.10.583814 +0000,
cube_r.png,0.1,-0.31,invalid,52,52,0,up,6.5626610000035726,None,space,0.6114850999729242,None,,,,,,,,,0,52,52,52,567.8629617000115,,,,,,,,,,,,,567.8473288000096,567.8629617000115,567.8629617000115,567.8629617000115,574.4404578999965,,,,574.4483894000005,574.4590734000085,574.4590734000085,574.5063007000135,574.5065776999982,574.5227160000068,574.5227160000068,574.5227160000068,574.6061372999975,575.1398359000159,,,,,,,,,,,,,,,,,,,,,,up,6.5626610000035726,None,space,0.6114850999729242,None,P116,001,2025-02-19_13h10.02.187,posner_endo_new1,2024.2.4,60.076730003330624,2025-02-19 13h10.10.583814 +0000,
cube_l.png,0.1,-0.31,valid,53,53,0,up,2.494752400001744,None,space,0.3811485000187531,None,,,,,,,,,0,53,53,53,575.1555757000169,,,,,,,,,,,,,575.1400480000011,575.1555757000169,575.1555757000169,575.1555757000169,577.6537256000156,,,,577.6616339000175,577.6725099000032,577.6725099000032,577.7196136999992,577.719877800002,577.7360896000173,577.7360896000173,577.7360896000173,577.8194365999952,578.1199422999925,,,,,,,,,,,,,,,,,,,,,,up,2.494752400001744,None,space,0.3811485000187531,None,P116,001,2025-02-19_13h10.02.187,posner_endo_new1,2024.2.4,60.076730003330624,2025-02-19 13h10.10.583814 +0000,
cube_r.png,0.1,10,catch,54,54,0,up,3.809786099998746,None,None,,,,,,,,,,,0,54,54,54,578.1356758000038,,,,,,,,,,,,,578.1201579000044,578.1356758000038,578.1356758000038,578.1356758000038,581.94946969999,,,,581.9574750000029,581.9680434000038,581.9680434000038,582.0152628000069,582.0155319999903,582.031687300012,582.031687300012,582.031687300012,582.1150711000082,585.0293976000103,,,,584.1295726000099,585.0452393000014,585.0452393000014,585.0452393000014,,,,,,,,,,,,,,,up,3.809786099998746,None,None,,,P116,001,2025-02-19_13h10.02.187,posner_endo_new1,2024.2.4,60.076730003330624,2025-02-19 13h10.10.583814 +0000,
cube_l.png,0.1,0.31,invalid,55,55,0,up,5.348983200005023,None,space,0.46881769999163225,None,,,,,,,,,0,55,55,55,585.0452393000014,,,,,,,,,,,,,585.0295910999994,585.0452393000014,585.0452393000014,585.0452393000014,590.4073933000036,,,,590.415379300015,590.4261764000112,590.4261764000112,590.4732720000029,590.4735400000063,590.4897084000113,590.4897084000113,590.4897084000113,590.5730591000174,590.9735149999906,,,,,,,,,,,,,,,,,,,,,,up,5.348983200005023,None,space,0.46881769999163225,None,P116,001,2025-02-19_13h10.02.187,posner_endo_new1,2024.2.4,60.076730003330624,2025-02-19 13h10.10.583814 +0000,
cube_l.png,0.1,-0.31,valid,56,56,0,up,3.028141200018581,None,space,0.4345130000147037,None,,,,,,,,,0,56,56,56,590.9893250000023,,,,,,,,,,,,,590.9737272000057,590.9893250000023,590.9893250000023,590.9893250000023,594.0201737000025,,,,594.028105800011,594.0389295000059,594.0389295000059,594.086504100007,594.0867694999906,594.1027382000175,594.1027382000175,594.1027382000175,594.1693856999918,594.5531343999901,,,,,,,,,,,,,,,,,,,,,,up,3.028141200018581,None,space,0.4345130000147037,None,P116,001,2025-02-19_13h10.02.187,posner_endo_new1,2024.2.4,60.076730003330624,2025-02-19 13h10.10.583814 +0000,
cube_r.png,0.1,0.31,valid,57,57,0,up,2.305121900019003,None,space,0.3455604999908246,None,,,,,,,,,0,57,57,57,594.5689778999949,,,,,,,,,,,,,594.5533668000135,594.5689778999949,594.5689778999949,594.5689778999949,596.8840480000072,,,,596.8919554000022,596.9028598000004,596.9028598000004,596.9499746999936,596.9502409000124,596.966416500014,596.966416500014,596.966416500014,597.0497485999949,597.3169703000167,,,,,,,,,,,,,,,,,,,,,,up,2.305121900019003,None,space,0.3455604999908246,None,P116,001,2025-02-19_13h10.02.187,posner_endo_new1,2024.2.4,60.076730003330624,2025-02-19 13h10.10.583814 +0000,
cube_r.png,0.1,-0.31,invalid,58,58,0,up,4.09301620000042,None,space,0.3789354999898933,None,,,,,,,,,0,58,58,58,597.332773400005,,,,,,,,,,,,,597.3171847999911,597.332773400005,597.332773400005,597.332773400005,601.4295825000154,,,,601.437618099997,601.4481962000136,601.4481962000136,601.495220700017,601.4954926999926,601.5117412999971,601.5117412999971,601.5117412999971,601.5951691000082,601.8955910000077,,,,,,,,,,,,,,,,,,,,,,up,4.09301620000042,None,space,0.3789354999898933,None,P116,001,2025-02-19_13h10.02.187,posner_endo_new1,2024.2.4,60.076730003330624,2025-02-19 13h10.10.583814 +0000,
cube_l.png,0.1,0.31,invalid,59,59,0,up,6.002700100012589,None,space,0.4580910000076983,None,,,,,,,,,0,59,59,59,601.9114398999955,,,,,,,,,,,,,601.895806000015,601.9114398999955,601.9114398999955,601.9114398999955,607.9228206000116,,,,607.9307978000143,607.9415071000112,607.9415071000112,607.9885927000141,607.9888563000131,608.005218700011,608.005218700011,608.005218700011,608.0885941000015,608.472321600013,,,,,,,,,,,,,,,,,,,,,,up,6.002700100012589,None,space,0.4580910000076983,None,P116,001,2025-02-19_13h10.02.187,posner_endo_new1,2024.2.4,60.076730003330624,2025-02-19 13h10.10.583814 +0000,
