cue_img,cue_soa,target_y,trial,thisN,thisTrialN,thisRepN,key_control2.keys,key_control2.rt,key_control2.duration,key_resp.keys,key_resp.rt,key_resp.duration,practice.thisRepN,practice.thisTrialN,practice.thisN,practice.thisIndex,block1.thisRepN,block1.thisTrialN,block1.thisN,block1.thisIndex,block2.thisRepN,block2.thisTrialN,block2.thisN,block2.thisIndex,thisRow.t,notes,instructions.started,instructions_txt.started,key_control.started,instructions.stopped,key_control.keys,key_control.rt,key_control.duration,ready.started,ready_txt.started,ready_txt.stopped,ready.stopped,fix.started,fixation.started,key_control2.started,fixation_cross.started,fix.stopped,practice.key_control2.keys,practice.key_control2.rt,practice.key_control2.duration,cue.started,cube.started,fixation_cross_cue.started,cue.stopped,target.started,fixation_target.started,fixation_cross_target.started,key_resp.started,star.started,target.stopped,practice.key_resp.keys,practice.key_resp.rt,practice.key_resp.duration,star.stopped,fixation_target.stopped,fixation_cross_target.stopped,key_resp.stopped,block1.key_control2.keys,block1.key_control2.rt,block1.key_control2.duration,block1.key_resp.keys,block1.key_resp.rt,block1.key_resp.duration,break_2.started,text.started,key_control3.started,text.stopped,break_2.stopped,key_control3.keys,key_control3.rt,key_control3.duration,block2.key_control2.keys,block2.key_control2.rt,block2.key_control2.duration,block2.key_resp.keys,block2.key_resp.rt,block2.key_resp.duration,participant,session,date,expName,psychopyVersion,frameRate,expStart,
,,,,,,,,,,,,,,,,,,,,,,,,,,,0.007488299976103008,0.02855209997505881,0.02855209997505881,572.3807312999852,up,572.3484659000242,None,,,,,,,,,,,,,,,,,,,,,,,,,,,,,,,,,,,,,,,,,,,,,,,,,,P117,001,2025-02-19_13h53.26.343,posner_endo_new1,2024.2.4,60.03691068718884,2025-02-19 13h53.33.805897 +0000,
,,,,,,,,,,,,,,,,,,,,,,,,,,,,,,,,,,572.3807814999891,572.3939303999941,575.3944176999794,575.3745551999891,,,,,,,,,,,,,,,,,,,,,,,,,,,,,,,,,,,,,,,,,,,,,,P117,001,2025-02-19_13h53.26.343,posner_endo_new1,2024.2.4,60.03691068718884,2025-02-19 13h53.33.805897 +0000,
cube_l.png,0.1,-0.31,valid,0,0,0,up,5.957798599993112,None,space,0.47283359998255037,None,0,0,0,0,,,,,,,,,575.3944176999794,,,,,,,,,,,,,575.3818836999999,575.3944176999794,575.3944176999794,575.3944176999794,581.36875959998,up,5.957798599993112,None,581.3789877999807,581.3889182999847,581.3889182999847,581.4347459999844,581.4349766999949,581.4514154999924,581.4514154999924,581.4514154999924,581.5179482999956,581.9348411999817,space,0.47283359998255037,None,,,,,,,,,,,,,,,,,,,,,,,,,P117,001,2025-02-19_13h53.26.343,posner_endo_new1,2024.2.4,60.03691068718884,2025-02-19 13h53.33.805897 +0000,
cube_l.png,0.1,0.31,invalid,1,1,0,up,6.770393100014189,None,space,0.3975686999910977,None,0,1,1,1,,,,,,,,,581.9509077999974,,,,,,,,,,,,,581.9350040999998,581.9509077999974,581.9509077999974,581.9509077999974,588.7283089999983,up,6.770393100014189,None,588.7399964999931,588.7502698999888,588.7502698999888,588.7940080999979,588.7943622999883,588.8104584999965,588.8104584999965,588.8104584999965,588.877061599982,589.2110951999784,space,0.3975686999910977,None,,,,,,,,,,,,,,,,,,,,,,,,,P117,001,2025-02-19_13h53.26.343,posner_endo_new1,2024.2.4,60.03691068718884,2025-02-19 13h53.33.805897 +0000,
cube_r.png,0.1,-0.31,invalid,2,2,0,up,6.773837899992941,None,space,0.44891559999086894,None,0,2,2,2,,,,,,,,,589.2266216999851,,,,,,,,,,,,,589.2113681999908,589.2266216999851,589.2266216999851,589.2266216999851,596.0043786999886,up,6.773837899992941,None,596.0160034,596.0262001999945,596.0262001999945,596.0698236000026,596.070167799975,596.0863316999748,596.0863316999748,596.0863316999748,596.1696472999756,596.5372483999818,space,0.44891559999086894,None,,,,,,,,,,,,,,,,,,,,,,,,,P117,001,2025-02-19_13h53.26.343,posner_endo_new1,2024.2.4,60.03691068718884,2025-02-19 13h53.33.805897 +0000,
cube_r.png,0.1,10,catch,3,3,0,up,7.520108299999265,None,None,,,0,3,3,3,,,,,,,,,596.5525269999926,,,,,,,,,,,,,596.5375264999748,596.5525269999926,596.5525269999926,596.5525269999926,604.079416099994,up,7.520108299999265,None,604.089458100003,604.0993348999764,604.0993348999764,604.1447650999762,604.1450134999759,604.161328599992,604.161328599992,604.161328599992,604.2446493000025,607.1587625999819,None,,,606.2593077999773,607.1749867999752,607.1749867999752,607.1749867999752,,,,,,,,,,,,,,,,,,,,,P117,001,2025-02-19_13h53.26.343,posner_endo_new1,2024.2.4,60.03691068718884,2025-02-19 13h53.33.805897 +0000,
cube_l.png,0.1,-0.31,valid,4,4,0,up,4.209375100006582,None,space,0.48187960000359453,None,0,4,4,4,,,,,,,,,607.1749867999752,,,,,,,,,,,,,607.1589327999973,607.1749867999752,607.1749867999752,607.1749867999752,611.3882459999877,up,4.209375100006582,None,611.3956663999998,611.4069342000003,611.4069342000003,611.4540099999867,611.4542690999806,611.4706174999883,611.4706174999883,611.4706174999883,611.5539030999935,611.9543305999832,space,0.48187960000359453,None,,,,,,,,,,,,,,,,,,,,,,,,,P117,001,2025-02-19_13h53.26.343,posner_endo_new1,2024.2.4,60.03691068718884,2025-02-19 13h53.33.805897 +0000,
cube_l.png,0.1,0.31,invalid,5,5,0,up,6.782852200005436,None,space,0.48013529999298044,None,0,5,5,5,,,,,,,,,611.9700860999874,,,,,,,,,,,,,611.9545179999841,611.9700860999874,611.9700860999874,611.9700860999874,618.7638034999836,up,6.782852200005436,None,618.7711697999912,618.7828760999837,618.7828760999837,618.8299186999793,618.8301752999832,618.8462806000025,618.8462806000025,618.8462806000025,618.913161799981,619.330103299988,space,0.48013529999298044,None,,,,,,,,,,,,,,,,,,,,,,,,,P117,001,2025-02-19_13h53.26.343,posner_endo_new1,2024.2.4,60.03691068718884,2025-02-19 13h53.33.805897 +0000,
cube_r.png,0.1,-0.31,invalid,6,6,0,up,6.0542040999862365,None,space,0.41210460002184846,None,0,6,6,6,,,,,,,,,619.3458996999834,,,,,,,,,,,,,619.3302875999943,619.3458996999834,619.3458996999834,619.3458996999834,625.4071450999763,up,6.0542040999862365,None,625.4145597999741,625.4258530999941,625.4258530999941,625.4730934999825,625.473345299979,625.4894019999774,625.4894019999774,625.4894019999774,625.5727994999907,625.9067310999963,space,0.41210460002184846,None,,,,,,,,,,,,,,,,,,,,,,,,,P117,001,2025-02-19_13h53.26.343,posner_endo_new1,2024.2.4,60.03691068718884,2025-02-19 13h53.33.805897 +0000,
cube_r.png,0.1,0.31,valid,7,7,0,up,4.870601600006921,None,space,0.41018539998913184,None,0,7,7,7,,,,,,,,,625.9225092999986,,,,,,,,,,,,,625.9069214999909,625.9225092999986,625.9225092999986,625.9225092999986,630.8018194999895,up,4.870601600006921,None,630.809112899995,630.8205007999786,630.8205007999786,630.8675572999928,630.8678079999809,630.8840306999919,630.8840306999919,630.8840306999919,630.9672982999764,631.301037199999,space,0.41018539998913184,None,,,,,,,,,,,,,,,,,,,,,,,,,P117,001,2025-02-19_13h53.26.343,posner_endo_new1,2024.2.4,60.03691068718884,2025-02-19 13h53.33.805897 +0000,
cube_l.png,0.1,-0.31,valid,8,8,0,up,6.915710000001127,None,space,0.4593458000163082,None,0,8,8,8,,,,,,,,,631.3169437999895,,,,,,,,,,,,,631.3012226999854,631.3169437999895,631.3169437999895,631.3169437999895,638.2440227999759,up,6.915710000001127,None,638.251388899982,638.2623841000022,638.2623841000022,638.3098706000019,638.3103728999849,638.3262334999745,638.3262334999745,638.3262334999745,638.4095202999888,638.7942271999782,space,0.4593458000163082,None,,,,,,,,,,,,,,,,,,,,,,,,,P117,001,2025-02-19_13h53.26.343,posner_endo_new1,2024.2.4,60.03691068718884,2025-02-19 13h53.33.805897 +0000,
cube_r.png,0.1,-0.31,invalid,9,9,0,up,6.112269200006267,None,space,0.44834249999257736,None,0,9,9,9,,,,,,,,,638.8090768999828,,,,,,,,,,,,,638.7946391000005,638.8090768999828,638.8090768999828,638.8090768999828,644.9375827999902,up,6.112269200006267,None,644.9480429999821,644.9576169999782,644.9576169999782,645.0029281000025,645.003168700001,645.0196815999807,645.0196815999807,645.0196815999807,645.1028665999766,645.4700933999848,space,0.44834249999257736,None,,,,,,,,,,,,,,,,,,,,,,,,,P117,001,2025-02-19_13h53.26.343,posner_endo_new1,2024.2.4,60.03691068718884,2025-02-19 13h53.33.805897 +0000,
cube_r.png,0.1,0.31,valid,10,10,0,up,6.330579800007399,None,space,0.33032499998807907,None,0,10,10,10,,,,,,,,,645.4858633999829,,,,,,,,,,,,,645.470266999997,645.4858633999829,645.4858633999829,645.4858633999829,651.8301631999784,up,6.330579800007399,None,651.8371403999918,651.8490006999928,651.8490006999928,651.8960959999822,651.8963361999777,651.9124960999761,651.9124960999761,651.9124960999761,651.9792229000013,652.2465389999852,space,0.33032499998807907,None,,,,,,,,,,,,,,,,,,,,,,,,,P117,001,2025-02-19_13h53.26.343,posner_endo_new1,2024.2.4,60.03691068718884,2025-02-19 13h53.33.805897 +0000,
,,,,,,,,,,,,,,,,,,,,,,,,,,,,,,,,,,652.2466532999824,652.2621576999954,655.265090699977,655.2430813999963,,,,,,,,,,,,,,,,,,,,,,,,,,,,,,,,,,,,,,,,,,,,,,P117,001,2025-02-19_13h53.26.343,posner_endo_new1,2024.2.4,60.03691068718884,2025-02-19 13h53.33.805897 +0000,
cube_l.png,0.1,10,catch,0,0,0,up,5.327222099993378,None,None,,,,,,,0,0,0,0,,,,,655.265090699977,,,,,,,,,,,,,655.2562316999829,655.265090699977,655.265090699977,655.265090699977,660.6044262999785,,,,660.6104915999749,660.6222976999998,660.6222976999998,660.6704692999774,660.6706981000025,660.6869463999756,660.6869463999756,660.6869463999756,660.7536823999835,663.6845051999844,,,,662.7682112999901,663.7004216999921,663.7004216999921,663.7004216999921,up,5.327222099993378,None,None,,,,,,,,,,,,,,,,,P117,001,2025-02-19_13h53.26.343,posner_endo_new1,2024.2.4,60.03691068718884,2025-02-19 13h53.33.805897 +0000,
cube_l.png,0.1,10,catch,1,1,0,up,5.828843499999493,None,None,,,,,,,0,1,1,1,,,,,663.7004216999921,,,,,,,,,,,,,663.684662899992,663.7004216999921,663.7004216999921,663.7004216999921,669.5451909999829,,,,669.5512021999748,669.5627774999884,669.5627774999884,669.6112662999949,669.6114921999979,669.6279474999756,669.6279474999756,669.6279474999756,669.6945874999801,672.6251641999988,,,,671.7090162999812,672.6415406999877,672.6415406999877,672.6415406999877,up,5.828843499999493,None,None,,,,,,,,,,,,,,,,,P117,001,2025-02-19_13h53.26.343,posner_endo_new1,2024.2.4,60.03691068718884,2025-02-19 13h53.33.805897 +0000,
cube_l.png,0.1,0.31,invalid,2,2,0,up,3.2867721999937203,None,space,0.36218820000067353,None,,,,,0,2,2,2,,,,,672.6415406999877,,,,,,,,,,,,,672.6253211000003,672.6415406999877,672.6415406999877,672.6415406999877,675.9386902999831,,,,675.9446936000022,675.9563452999864,675.9563452999864,676.0047756999847,676.0049998999748,676.0214101999882,676.0214101999882,676.0214101999882,676.0879710000008,676.3884361999808,,,,,,,,up,3.2867721999937203,None,space,0.36218820000067353,None,,,,,,,,,,,,,,,P117,001,2025-02-19_13h53.26.343,posner_endo_new1,2024.2.4,60.03691068718884,2025-02-19 13h53.33.805897 +0000,
cube_l.png,0.1,0.31,invalid,3,3,0,up,6.484541500016348,None,space,0.6312654999783263,None,,,,,0,3,3,3,,,,,676.4041465999908,,,,,,,,,,,,,676.3886083999823,676.4041465999908,676.4041465999908,676.4041465999908,682.8984775999852,,,,682.904469000001,682.9160965999763,682.9160965999763,682.9643324999779,682.964555899991,682.9807257999782,682.9807257999782,682.9807257999782,683.0641737999977,683.6144567999872,,,,,,,,up,6.484541500016348,None,space,0.6312654999783263,None,,,,,,,,,,,,,,,P117,001,2025-02-19_13h53.26.343,posner_endo_new1,2024.2.4,60.03691068718884,2025-02-19 13h53.33.805897 +0000,
cube_l.png,0.1,-0.31,valid,4,4,0,up,4.745991000003414,None,space,0.3779629000055138,None,,,,,0,4,4,4,,,,,683.6302702999965,,,,,,,,,,,,,683.6146335999947,683.6302702999965,683.6302702999965,683.6302702999965,688.392732999986,,,,688.3986576999887,688.4100781999878,688.4100781999878,688.4587392999965,688.4589622999774,688.4751800999802,688.4751800999802,688.4751800999802,688.5418778999883,688.8589605999878,,,,,,,,up,4.745991000003414,None,space,0.3779629000055138,None,,,,,,,,,,,,,,,P117,001,2025-02-19_13h53.26.343,posner_endo_new1,2024.2.4,60.03691068718884,2025-02-19 13h53.33.805897 +0000,
cube_r.png,0.1,-0.31,invalid,5,5,0,up,6.437703600007808,None,space,0.4359563999751117,None,,,,,0,5,5,5,,,,,688.8747640999791,,,,,,,,,,,,,688.8591327999893,688.8747640999791,688.8747640999791,688.8747640999791,695.3191231999954,,,,695.3287674000021,695.3389115000027,695.3389115000027,695.3849785999919,695.3852946999832,695.4014268999745,695.4014268999745,695.4014268999745,695.4848633999936,695.8521736999974,,,,,,,,up,6.437703600007808,None,space,0.4359563999751117,None,,,,,,,,,,,,,,,P117,001,2025-02-19_13h53.26.343,posner_endo_new1,2024.2.4,60.03691068718884,2025-02-19 13h53.33.805897 +0000,
cube_r.png,0.1,0.31,valid,6,6,0,up,4.980800099991029,None,space,0.33463510000729,None,,,,,0,6,6,6,,,,,695.8676505999756,,,,,,,,,,,,,695.8524251999916,695.8676505999756,695.8676505999756,695.8676505999756,700.8639508999768,,,,700.8739286999917,700.8839177999762,700.8839177999762,700.9293852999981,700.9296955999744,700.945925899985,700.945925899985,700.945925899985,701.0290347999835,701.2965215999866,,,,,,,,up,4.980800099991029,None,space,0.33463510000729,None,,,,,,,,,,,,,,,P117,001,2025-02-19_13h53.26.343,posner_endo_new1,2024.2.4,60.03691068718884,2025-02-19 13h53.33.805897 +0000,
cube_r.png,0.1,-0.31,invalid,7,7,0,up,7.608523500006413,None,space,0.3372737000172492,None,,,,,0,7,7,7,,,,,701.3122034999833,,,,,,,,,,,,,701.2967772999837,701.3122034999833,701.3122034999833,701.3122034999833,708.9221058999829,,,,708.9317579999915,708.9419769999804,708.9419769999804,708.9878371999948,708.9881422999897,709.0043141999922,709.0043141999922,709.0043141999922,709.0875511999766,709.3550501999853,,,,,,,,up,7.608523500006413,None,space,0.3372737000172492,None,,,,,,,,,,,,,,,P117,001,2025-02-19_13h53.26.343,posner_endo_new1,2024.2.4,60.03691068718884,2025-02-19 13h53.33.805897 +0000,
cube_l.png,0.1,-0.31,valid,8,8,0,up,3.670604499988258,None,space,0.29561739999917336,None,,,,,0,8,8,8,,,,,709.370600299997,,,,,,,,,,,,,709.3553059999831,709.370600299997,709.370600299997,709.370600299997,713.0511677999748,,,,713.0608425999817,713.0711356999818,713.0711356999818,713.1169145999884,713.1172262999753,713.1334409999836,713.1334409999836,713.1334409999836,713.2166929999948,713.4343551999773,,,,,,,,up,3.670604499988258,None,space,0.29561739999917336,None,,,,,,,,,,,,,,,P117,001,2025-02-19_13h53.26.343,posner_endo_new1,2024.2.4,60.03691068718884,2025-02-19 13h53.33.805897 +0000,
cube_r.png,0.1,-0.31,invalid,9,9,0,up,6.567633900005603,None,space,0.34932810001191683,None,,,,,0,9,9,9,,,,,713.4497077999986,,,,,,,,,,,,,713.4346030000015,713.4497077999986,713.4497077999986,713.4497077999986,720.0274140999827,,,,720.03675259999,720.0463442999753,720.0463442999753,720.093192899978,720.0934210999985,720.1096012999769,720.1096012999769,720.1096012999769,720.1929603999888,720.4598768999858,,,,,,,,up,6.567633900005603,None,space,0.34932810001191683,None,,,,,,,,,,,,,,,P117,001,2025-02-19_13h53.26.343,posner_endo_new1,2024.2.4,60.03691068718884,2025-02-19 13h53.33.805897 +0000,
cube_l.png,0.1,0.31,invalid,10,10,0,up,4.6532183999952395,None,space,0.43641290001687594,None,,,,,0,10,10,10,,,,,720.475953199988,,,,,,,,,,,,,720.4600525999849,720.475953199988,720.475953199988,720.475953199988,725.13841829999,,,,725.1448047999875,725.1564580999839,725.1564580999839,725.2045820999774,725.2048071000027,725.2210025999811,725.2210025999811,725.2210025999811,725.2876073999796,725.6712788000004,,,,,,,,up,4.6532183999952395,None,space,0.43641290001687594,None,,,,,,,,,,,,,,,P117,001,2025-02-19_13h53.26.343,posner_endo_new1,2024.2.4,60.03691068718884,2025-02-19 13h53.33.805897 +0000,
cube_r.png,0.1,-0.31,invalid,11,11,0,up,5.43323289998807,None,space,0.3102937999938149,None,,,,,0,11,11,11,,,,,725.6871718999755,,,,,,,,,,,,,725.671451000002,725.6871718999755,725.6871718999755,725.6871718999755,731.132492899982,,,,731.1385649000003,731.1503076999797,731.1503076999797,731.1983576999919,731.1985821999842,731.2149787999806,731.2149787999806,731.2149787999806,731.2817263999896,731.5318876999954,,,,,,,,up,5.43323289998807,None,space,0.3102937999938149,None,,,,,,,,,,,,,,,P117,001,2025-02-19_13h53.26.343,posner_endo_new1,2024.2.4,60.03691068718884,2025-02-19 13h53.33.805897 +0000,
cube_r.png,0.1,0.31,valid,12,12,0,up,5.821127700008219,None,space,0.323181099985959,None,,,,,0,12,12,12,,,,,731.5478537000017,,,,,,,,,,,,,731.5320572999772,731.5478537000017,731.5478537000017,731.5478537000017,737.3758873999759,,,,737.3820558000007,737.3937544999935,737.3937544999935,737.442120599997,737.4423448999878,737.4585057999939,737.4585057999939,737.4585057999939,737.5250880999956,737.7923278999806,,,,,,,,up,5.821127700008219,None,space,0.323181099985959,None,,,,,,,,,,,,,,,P117,001,2025-02-19_13h53.26.343,posner_endo_new1,2024.2.4,60.03691068718884,2025-02-19 13h53.33.805897 +0000,
cube_l.png,0.1,10,catch,13,13,0,up,6.425122199987527,None,space,0.3735725000151433,None,,,,,0,13,13,13,,,,,737.8081477999804,,,,,,,,,,,,,737.7925010999897,737.8081477999804,737.8081477999804,737.8081477999804,744.2357890999992,,,,744.2417405000015,744.2533552999957,744.2533552999957,744.3016930999875,744.3019182999851,744.318035299977,744.318035299977,744.318035299977,744.3847859999805,744.7019317999948,,,,,,,,up,6.425122199987527,None,space,0.3735725000151433,None,,,,,,,,,,,,,,,P117,001,2025-02-19_13h53.26.343,posner_endo_new1,2024.2.4,60.03691068718884,2025-02-19 13h53.33.805897 +0000,
cube_r.png,0.1,-0.31,invalid,14,14,0,up,6.091660500009311,None,space,0.4869314999959897,None,,,,,0,14,14,14,,,,,744.7177950999758,,,,,,,,,,,,,744.7021020999819,744.7177950999758,744.7177950999758,744.7177950999758,750.8122634999745,,,,750.8182275999861,750.8298568000027,750.8298568000027,750.8783991999808,750.8786257999891,750.894907799986,750.894907799986,750.894907799986,750.9613922999997,751.3949872999801,,,,,,,,up,6.091660500009311,None,space,0.4869314999959897,None,,,,,,,,,,,,,,,P117,001,2025-02-19_13h53.26.343,posner_endo_new1,2024.2.4,60.03691068718884,2025-02-19 13h53.33.805897 +0000,
cube_l.png,0.1,-0.31,valid,15,15,0,up,6.405941500008339,None,space,0.37272159999702126,None,,,,,0,15,15,15,,,,,751.4110169999767,,,,,,,,,,,,,751.3951592999802,751.4110169999767,751.4110169999767,751.4110169999767,757.8219264999789,,,,757.8279104999965,757.8397326999984,757.8397326999984,757.887937499996,757.8881617999868,757.9043238000013,757.9043238000013,757.9043238000013,757.9876652999956,758.2879677999881,,,,,,,,up,6.405941500008339,None,space,0.37272159999702126,None,,,,,,,,,,,,,,,P117,001,2025-02-19_13h53.26.343,posner_endo_new1,2024.2.4,60.03691068718884,2025-02-19 13h53.33.805897 +0000,
cube_r.png,0.1,10,catch,16,16,0,up,5.712839999992866,None,None,,,,,,,0,16,16,16,,,,,758.3039426999749,,,,,,,,,,,,,758.2881419999758,758.3039426999749,758.3039426999749,758.3039426999749,764.0321706999966,,,,764.0382247999951,764.0499456999823,764.0499456999823,764.0981908999966,764.0984238999954,764.1145187999937,764.1145187999937,764.1145187999937,764.1812770999968,767.1120223999897,,,,766.1957487999753,767.1282971999899,767.1282971999899,767.1282971999899,up,5.712839999992866,None,None,,,,,,,,,,,,,,,,,P117,001,2025-02-19_13h53.26.343,posner_endo_new1,2024.2.4,60.03691068718884,2025-02-19 13h53.33.805897 +0000,
cube_r.png,0.1,10,catch,17,17,0,up,3.4569072000158485,None,None,,,,,,,0,17,17,17,,,,,767.1282971999899,,,,,,,,,,,,,767.1121814999788,767.1282971999899,767.1282971999899,767.1282971999899,770.5920322999882,,,,770.5980949999939,770.6099070999771,770.6099070999771,770.6579873999872,770.6584876999841,770.6743583999923,770.6743583999923,770.6743583999923,770.7576411999762,773.6722532999993,,,,772.7724823999743,773.6882867999957,773.6882867999957,773.6882867999957,up,3.4569072000158485,None,None,,,,,,,,,,,,,,,,,P117,001,2025-02-19_13h53.26.343,posner_endo_new1,2024.2.4,60.03691068718884,2025-02-19 13h53.33.805897 +0000,
cube_l.png,0.1,0.31,invalid,18,18,0,up,4.9524523000000045,None,space,0.4203253999876324,None,,,,,0,18,18,18,,,,,773.6882867999957,,,,,,,,,,,,,773.6725191999867,773.6882867999957,773.6882867999957,773.6882867999957,778.6509564000007,,,,778.659902799991,778.669574599975,778.669574599975,778.7165406999993,778.716777900001,778.7330771999841,778.7330771999841,778.7330771999841,778.8162951999984,779.1666144999908,,,,,,,,up,4.9524523000000045,None,space,0.4203253999876324,None,,,,,,,,,,,,,,,P117,001,2025-02-19_13h53.26.343,posner_endo_new1,2024.2.4,60.03691068718884,2025-02-19 13h53.33.805897 +0000,
cube_l.png,0.1,10,catch,19,19,0,up,7.201795100001618,None,None,,,,,,,0,19,19,19,,,,,779.1826869999932,,,,,,,,,,,,,779.166805099987,779.1826869999932,779.1826869999932,779.1826869999932,786.3927122999739,,,,786.3996670999913,786.4114623999922,786.4114623999922,786.4586315999913,786.4588669999794,786.4750941999955,786.4750941999955,786.4750941999955,786.5417857999855,789.472412699979,,,,788.5563194999995,789.4886876999808,789.4886876999808,789.4886876999808,up,7.201795100001618,None,None,,,,,,,,,,,,,,,,,P117,001,2025-02-19_13h53.26.343,posner_endo_new1,2024.2.4,60.03691068718884,2025-02-19 13h53.33.805897 +0000,
cube_l.png,0.1,0.31,invalid,20,20,0,up,3.8161583000037353,None,space,0.47518390000914223,None,,,,,0,20,20,20,,,,,789.4886876999808,,,,,,,,,,,,,789.472586799995,789.4886876999808,789.4886876999808,789.4886876999808,793.3189745999989,,,,793.3259391999745,793.3378719999746,793.3378719999746,793.3848239999788,793.3850627999927,793.4013647999964,793.4013647999964,793.4013647999964,793.4678734999907,793.885067700001,,,,,,,,up,3.8161583000037353,None,space,0.47518390000914223,None,,,,,,,,,,,,,,,P117,001,2025-02-19_13h53.26.343,posner_endo_new1,2024.2.4,60.03691068718884,2025-02-19 13h53.33.805897 +0000,
cube_l.png,0.1,-0.31,valid,21,21,0,up,6.4522324000135995,None,space,0.3716744999983348,None,,,,,0,21,21,21,,,,,793.9008233999775,,,,,,,,,,,,,793.8852504999959,793.9008233999775,793.9008233999775,793.9008233999775,800.3619502999936,,,,800.3688964999747,800.3804650999955,800.3804650999955,800.4276441999828,800.427881999989,800.4442066999909,800.4442066999909,800.4442066999909,800.5274582999991,800.8278881000006,,,,,,,,up,6.4522324000135995,None,space,0.3716744999983348,None,,,,,,,,,,,,,,,P117,001,2025-02-19_13h53.26.343,posner_endo_new1,2024.2.4,60.03691068718884,2025-02-19 13h53.33.805897 +0000,
cube_r.png,0.1,0.31,valid,22,22,0,up,7.158353799983161,None,space,0.5015451999788638,None,,,,,0,22,22,22,,,,,800.843653399992,,,,,,,,,,,,,800.8280649999797,800.843653399992,800.843653399992,800.843653399992,808.0039538999845,,,,808.0100103000004,808.0217219999759,808.0217219999759,808.0698126999778,808.0700452000019,808.0864868999925,808.0864868999925,808.0864868999925,808.169690699986,808.6032408000028,,,,,,,,up,7.158353799983161,None,space,0.5015451999788638,None,,,,,,,,,,,,,,,P117,001,2025-02-19_13h53.26.343,posner_endo_new1,2024.2.4,60.03691068718884,2025-02-19 13h53.33.805897 +0000,
cube_r.png,0.1,-0.31,invalid,23,23,0,up,4.8934155000024475,None,space,0.5188648999901488,None,,,,,0,23,23,23,,,,,808.6190984999994,,,,,,,,,,,,,808.6034107999876,808.6190984999994,808.6190984999994,808.6190984999994,813.5150225999823,,,,813.5210806999821,813.5327707999968,813.5327707999968,813.5808827999863,813.5811078999832,813.5974131999828,813.5974131999828,813.5974131999828,813.6639660999936,814.131089499977,,,,,,,,up,4.8934155000024475,None,space,0.5188648999901488,None,,,,,,,,,,,,,,,P117,001,2025-02-19_13h53.26.343,posner_endo_new1,2024.2.4,60.03691068718884,2025-02-19 13h53.33.805897 +0000,
cube_r.png,0.1,0.31,valid,24,24,0,up,7.429929000005359,None,space,0.4000721999909729,None,,,,,0,24,24,24,,,,,814.1468515000015,,,,,,,,,,,,,814.1312588999863,814.1468515000015,814.1468515000015,814.1468515000015,821.589888699993,,,,821.5959547999955,821.607660699985,821.607660699985,821.6558584999875,821.6563569999998,821.6722585999814,821.6722585999814,821.6722585999814,821.755545299995,822.0740444999828,,,,,,,,up,7.429929000005359,None,space,0.4000721999909729,None,,,,,,,,,,,,,,,P117,001,2025-02-19_13h53.26.343,posner_endo_new1,2024.2.4,60.03691068718884,2025-02-19 13h53.33.805897 +0000,
cube_r.png,0.1,-0.31,invalid,25,25,0,up,8.5439619999961,None,space,0.3974826000048779,None,,,,,0,25,25,25,,,,,822.088511799986,,,,,,,,,,,,,822.074489199993,822.088511799986,822.088511799986,822.088511799986,830.6477939999895,,,,830.6595274999854,830.6699225999764,830.6699225999764,830.7134455999767,830.7137942999834,830.7299932999886,830.7299932999886,830.7299932999886,830.8130895999784,831.130680000002,,,,,,,,up,8.5439619999961,None,space,0.3974826000048779,None,,,,,,,,,,,,,,,P117,001,2025-02-19_13h53.26.343,posner_endo_new1,2024.2.4,60.03691068718884,2025-02-19 13h53.33.805897 +0000,
cube_l.png,0.1,-0.31,valid,26,26,0,up,6.782972499990137,None,space,0.3445879000064451,None,,,,,0,26,26,26,,,,,831.1462530999852,,,,,,,,,,,,,831.1309651999909,831.1462530999852,831.1462530999852,831.1462530999852,837.940403799992,,,,837.9519163999939,837.9623051999952,837.9623051999952,838.0059334999823,838.006284299976,838.0224597999768,838.0224597999768,838.0224597999768,838.105727599992,838.3734400999965,,,,,,,,up,6.782972499990137,None,space,0.3445879000064451,None,,,,,,,,,,,,,,,P117,001,2025-02-19_13h53.26.343,posner_endo_new1,2024.2.4,60.03691068718884,2025-02-19 13h53.33.805897 +0000,
cube_r.png,0.1,0.31,valid,27,27,0,up,6.036390299996128,None,space,0.43904440000187606,None,,,,,0,27,27,27,,,,,838.3887694999867,,,,,,,,,,,,,838.3737277999753,838.3887694999867,838.3887694999867,838.3887694999867,844.4337737000023,,,,844.4452505999943,844.4556962999923,844.4556962999923,844.4995243999874,844.4998793999839,844.5157599999802,844.5157599999802,844.5157599999802,844.5991291999817,844.9665516999958,,,,,,,,up,6.036390299996128,None,space,0.43904440000187606,None,,,,,,,,,,,,,,,P117,001,2025-02-19_13h53.26.343,posner_endo_new1,2024.2.4,60.03691068718884,2025-02-19 13h53.33.805897 +0000,
cube_r.png,0.1,10,catch,28,28,0,up,17.915430499997456,None,None,,,,,,,0,28,28,28,,,,,844.9822248999844,,,,,,,,,,,,,844.9668515999801,844.9822248999844,844.9822248999844,844.9822248999844,862.9148434999806,,,,862.9264199000027,862.9365240999905,862.9365240999905,862.9803823999828,862.9807355999947,862.9970445999934,862.9970445999934,862.9970445999934,863.0802478999831,865.9945761999988,,,,865.0948320000025,866.0105360999878,866.0105360999878,866.0105360999878,up,17.915430499997456,None,None,,,,,,,,,,,,,,,,,P117,001,2025-02-19_13h53.26.343,posner_endo_new1,2024.2.4,60.03691068718884,2025-02-19 13h53.33.805897 +0000,
cube_r.png,0.1,0.31,valid,29,29,0,up,4.959022299997741,None,space,0.4458837000129279,None,,,,,0,29,29,29,,,,,866.0105360999878,,,,,,,,,,,,,865.9948428999924,866.0105360999878,866.0105360999878,866.0105360999878,870.9734682999842,,,,870.9849515999958,870.9952180999971,870.9952180999971,871.0389258999785,871.0392712999892,871.0554611999833,871.0554611999833,871.0554611999833,871.138778499997,871.5063104000001,,,,,,,,up,4.959022299997741,None,space,0.4458837000129279,None,,,,,,,,,,,,,,,P117,001,2025-02-19_13h53.26.343,posner_endo_new1,2024.2.4,60.03691068718884,2025-02-19 13h53.33.805897 +0000,
cube_r.png,0.1,0.31,valid,30,30,0,up,5.966921399987768,None,space,0.4235839000029955,None,,,,,0,30,30,30,,,,,871.5215749999916,,,,,,,,,,,,,871.5065986999834,871.5215749999916,871.5215749999916,871.5215749999916,877.4999825999839,,,,877.5092196999758,877.5190035999985,877.5190035999985,877.5653910999827,877.5656305000011,877.5820217999863,877.5820217999863,877.5820217999863,877.6652810999949,878.0158047000004,,,,,,,,up,5.966921399987768,None,space,0.4235839000029955,None,,,,,,,,,,,,,,,P117,001,2025-02-19_13h53.26.343,posner_endo_new1,2024.2.4,60.03691068718884,2025-02-19 13h53.33.805897 +0000,
cube_l.png,0.1,-0.31,valid,31,31,0,up,6.99433020001743,None,space,0.3653288000205066,None,,,,,0,31,31,31,,,,,878.0317639999848,,,,,,,,,,,,,878.0159923000028,878.0317639999848,878.0317639999848,878.0317639999848,885.0420192999882,,,,885.0490361999837,885.0606641999912,885.0606641999912,885.1078159000026,885.1080447999993,885.1243623999762,885.1243623999762,885.1243623999762,885.2074267999851,885.4915389999805,,,,,,,,up,6.99433020001743,None,space,0.3653288000205066,None,,,,,,,,,,,,,,,P117,001,2025-02-19_13h53.26.343,posner_endo_new1,2024.2.4,60.03691068718884,2025-02-19 13h53.33.805897 +0000,
cube_r.png,0.1,0.31,valid,32,32,0,up,7.317862800002331,None,space,0.4035165999957826,None,,,,,0,32,32,32,,,,,885.5073020999844,,,,,,,,,,,,,885.4917123999912,885.5073020999844,885.5073020999844,885.5073020999844,892.8343095000018,,,,892.8458067000029,892.856212499988,892.856212499988,892.8999102999805,892.9002612999757,892.9163854999933,892.9163854999933,892.9163854999933,892.999711499986,893.3338947999873,,,,,,,,up,7.317862800002331,None,space,0.4035165999957826,None,,,,,,,,,,,,,,,P117,001,2025-02-19_13h53.26.343,posner_endo_new1,2024.2.4,60.03691068718884,2025-02-19 13h53.33.805897 +0000,
cube_r.png,0.1,-0.31,invalid,33,33,0,up,12.251505099993665,None,space,0.47696969998651184,None,,,,,0,33,33,33,,,,,893.3492805999995,,,,,,,,,,,,,893.334185899992,893.3492805999995,893.3492805999995,893.3492805999995,905.6046831999847,,,,905.616283899988,905.6265804999857,905.6265804999857,905.6701530999853,905.6705138999969,905.6865964999888,905.6865964999888,905.6865964999888,905.7699818999972,906.1705333999998,,,,,,,,up,12.251505099993665,None,space,0.47696969998651184,None,,,,,,,,,,,,,,,P117,001,2025-02-19_13h53.26.343,posner_endo_new1,2024.2.4,60.03691068718884,2025-02-19 13h53.33.805897 +0000,
cube_r.png,0.1,10,catch,34,34,0,up,5.183021100005135,None,None,,,,,,,0,34,34,34,,,,,906.1861689999932,,,,,,,,,,,,,906.1708251999808,906.1861689999932,906.1861689999932,906.1861689999932,911.3819635999971,,,,911.3934705999854,911.4037210999813,911.4037210999813,911.447570999997,911.4479144999932,911.4640500999813,911.4640500999813,911.4640500999813,911.5474136999983,914.4617262999818,,,,913.5619650000008,914.4778694999986,914.4778694999986,914.4778694999986,up,5.183021100005135,None,None,,,,,,,,,,,,,,,,,P117,001,2025-02-19_13h53.26.343,posner_endo_new1,2024.2.4,60.03691068718884,2025-02-19 13h53.33.805897 +0000,
cube_r.png,0.1,0.31,valid,35,35,0,up,4.0277843000076246,None,space,0.5181251000030898,None,,,,,0,35,35,35,,,,,914.4778694999986,,,,,,,,,,,,,914.4619927000022,914.4778694999986,914.4778694999986,914.4778694999986,918.5083254999772,,,,918.5187077999872,918.5283606000012,918.5283606000012,918.573501899984,918.5737370999996,918.5900794999907,918.5900794999907,918.5900794999907,918.6734508999798,919.123657899996,,,,,,,,up,4.0277843000076246,None,space,0.5181251000030898,None,,,,,,,,,,,,,,,P117,001,2025-02-19_13h53.26.343,posner_endo_new1,2024.2.4,60.03691068718884,2025-02-19 13h53.33.805897 +0000,
cube_r.png,0.1,-0.31,invalid,36,36,0,up,6.989291800011415,None,space,0.38291680000838824,None,,,,,0,36,36,36,,,,,919.1395846999949,,,,,,,,,,,,,919.1238481999899,919.1395846999949,919.1395846999949,919.1395846999949,926.1331992999767,,,,926.1401270999922,926.151950200001,926.151950200001,926.199226799974,926.1994676999748,926.2152675999969,926.2152675999969,926.2152675999969,926.2989214999834,926.599533599976,,,,,,,,up,6.989291800011415,None,space,0.38291680000838824,None,,,,,,,,,,,,,,,P117,001,2025-02-19_13h53.26.343,posner_endo_new1,2024.2.4,60.03691068718884,2025-02-19 13h53.33.805897 +0000,
cube_l.png,0.1,0.31,invalid,37,37,0,up,7.242225599999074,None,space,0.5053650000190828,None,,,,,0,37,37,37,,,,,926.6151905999868,,,,,,,,,,,,,926.5997186999884,926.6151905999868,926.6151905999868,926.6151905999868,933.8588463999913,,,,933.8657647999935,933.8773201000004,933.8773201000004,933.9245630999794,933.924800799985,933.9411227999954,933.9411227999954,933.9411227999954,934.024420599977,934.458064299979,,,,,,,,up,7.242225599999074,None,space,0.5053650000190828,None,,,,,,,,,,,,,,,P117,001,2025-02-19_13h53.26.343,posner_endo_new1,2024.2.4,60.03691068718884,2025-02-19 13h53.33.805897 +0000,
cube_l.png,0.1,0.31,invalid,38,38,0,up,4.4637453999894205,None,space,0.3954292999987956,None,,,,,0,38,38,38,,,,,934.4738814999873,,,,,,,,,,,,,934.4582539999974,934.4738814999873,934.4738814999873,934.4738814999873,938.953371599986,,,,938.9602809999778,938.9721202999935,938.9721202999935,939.0193736999936,939.0196119999746,939.0358314999903,939.0358314999903,939.0358314999903,939.1025875999767,939.4365187999792,,,,,,,,up,4.4637453999894205,None,space,0.3954292999987956,None,,,,,,,,,,,,,,,P117,001,2025-02-19_13h53.26.343,posner_endo_new1,2024.2.4,60.03691068718884,2025-02-19 13h53.33.805897 +0000,
cube_r.png,0.1,0.31,valid,39,39,0,up,6.444443400017917,None,space,0.32682580000255257,None,,,,,0,39,39,39,,,,,939.4522394999804,,,,,,,,,,,,,939.4367027999833,939.4522394999804,939.4522394999804,939.4522394999804,945.9130229000002,,,,945.9200446999748,945.9318558999803,945.9318558999803,945.9790288999793,945.9792517999886,945.9955980999803,945.9955980999803,945.9955980999803,946.0620284999895,946.3291858999874,,,,,,,,up,6.444443400017917,None,space,0.32682580000255257,None,,,,,,,,,,,,,,,P117,001,2025-02-19_13h53.26.343,posner_endo_new1,2024.2.4,60.03691068718884,2025-02-19 13h53.33.805897 +0000,
cube_l.png,0.1,0.31,invalid,40,40,0,up,8.879752300010296,None,space,0.3546284000040032,None,,,,,0,40,40,40,,,,,946.3450797999976,,,,,,,,,,,,,946.3293611999834,946.3450797999976,946.3450797999976,946.3450797999976,955.2367302999774,,,,955.2428023999964,955.2546541999909,955.2546541999909,955.3026945999882,955.3029182000028,955.3194392999867,955.3194392999867,955.3194392999867,955.3859429000004,955.6862646999944,,,,,,,,up,8.879752300010296,None,space,0.3546284000040032,None,,,,,,,,,,,,,,,P117,001,2025-02-19_13h53.26.343,posner_endo_new1,2024.2.4,60.03691068718884,2025-02-19 13h53.33.805897 +0000,
cube_l.png,0.1,10,catch,41,41,0,up,2.4193887999863364,None,None,,,,,,,0,41,41,41,,,,,955.7021577999985,,,,,,,,,,,,,955.6864323999907,955.7021577999985,955.7021577999985,955.7021577999985,958.1337568000017,,,,958.1397559999896,958.1515360999911,958.1515360999911,958.1999511999893,958.2001761999854,958.2164123999828,958.2164123999828,958.2164123999828,958.2829397000023,961.2137827999832,,,,960.2974898999964,961.229867099988,961.229867099988,961.229867099988,up,2.4193887999863364,None,None,,,,,,,,,,,,,,,,,P117,001,2025-02-19_13h53.26.343,posner_endo_new1,2024.2.4,60.03691068718884,2025-02-19 13h53.33.805897 +0000,
cube_l.png,0.1,-0.31,valid,42,42,0,up,0.1947949999885168,None,space,0.35386319999815896,None,,,,,0,42,42,42,,,,,961.229867099988,,,,,,,,,,,,,961.2139413999976,961.229867099988,961.229867099988,961.229867099988,961.4305315999954,,,,961.4365743999952,961.4484850000008,961.4484850000008,961.4965661999886,961.4967888999963,961.5130110999744,961.5130110999744,961.5130110999744,961.5794762999867,961.880007300002,,,,,,,,up,0.1947949999885168,None,space,0.35386319999815896,None,,,,,,,,,,,,,,,P117,001,2025-02-19_13h53.26.343,posner_endo_new1,2024.2.4,60.03691068718884,2025-02-19 13h53.33.805897 +0000,
cube_l.png,0.1,10,catch,43,43,0,up,5.14541709999321,None,None,,,,,,,0,43,43,43,,,,,961.8959111000004,,,,,,,,,,,,,961.880178899999,961.8959111000004,961.8959111000004,961.8959111000004,967.0580437999743,,,,967.0641204999993,967.0756611999823,967.0756611999823,967.1239951999742,967.1242211999779,967.1406144999783,967.1406144999783,967.1406144999783,967.2071348999743,970.1379414999974,,,,969.221862299979,970.1542649999901,970.1542649999901,970.1542649999901,up,5.14541709999321,None,None,,,,,,,,,,,,,,,,,P117,001,2025-02-19_13h53.26.343,posner_endo_new1,2024.2.4,60.03691068718884,2025-02-19 13h53.33.805897 +0000,
cube_l.png,0.1,0.31,invalid,44,44,0,up,0.2949543999857269,None,space,0.40178190000006,None,,,,,0,44,44,44,,,,,970.1542649999901,,,,,,,,,,,,,970.1381011999911,970.1542649999901,970.1542649999901,970.1542649999901,970.4545516999788,,,,970.460525100003,970.4722117999918,970.4722117999918,970.5204871000024,970.5207103999855,970.5370754999749,970.5370754999749,970.5370754999749,970.6036993000016,970.9540387000015,,,,,,,,up,0.2949543999857269,None,space,0.40178190000006,None,,,,,,,,,,,,,,,P117,001,2025-02-19_13h53.26.343,posner_endo_new1,2024.2.4,60.03691068718884,2025-02-19 13h53.33.805897 +0000,
cube_l.png,0.1,0.31,invalid,45,45,0,up,5.006680199992843,None,space,0.39295310000306927,None,,,,,0,45,45,45,,,,,970.9700978999899,,,,,,,,,,,,,970.9542131999915,970.9700978999899,970.9700978999899,970.9700978999899,975.9823314999812,,,,975.9882779999753,975.9999573999958,975.9999573999958,976.0482260999852,976.0484517999867,976.0649902999867,976.0649902999867,976.0649902999867,976.1312917999749,976.4651931999833,,,,,,,,up,5.006680199992843,None,space,0.39295310000306927,None,,,,,,,,,,,,,,,P117,001,2025-02-19_13h53.26.343,posner_endo_new1,2024.2.4,60.03691068718884,2025-02-19 13h53.33.805897 +0000,
cube_r.png,0.1,0.31,valid,46,46,0,up,5.760170600027777,None,space,0.33340870001120493,None,,,,,0,46,46,46,,,,,976.4810156000021,,,,,,,,,,,,,976.4653624999919,976.4810156000021,976.4810156000021,976.4810156000021,982.2428498999798,,,,982.2487811999745,982.2607772999909,982.2607772999909,982.3085062000027,982.3087296999875,982.325139099994,982.325139099994,982.325139099994,982.4083520999993,982.6752689999994,,,,,,,,up,5.760170600027777,None,space,0.33340870001120493,None,,,,,,,,,,,,,,,P117,001,2025-02-19_13h53.26.343,posner_endo_new1,2024.2.4,60.03691068718884,2025-02-19 13h53.33.805897 +0000,
cube_l.png,0.1,-0.31,valid,47,47,0,up,5.75046020001173,None,space,0.3510179999866523,None,,,,,0,47,47,47,,,,,982.6912793999945,,,,,,,,,,,,,982.6754375000019,982.6912793999945,982.6912793999945,982.6912793999945,988.4528160999762,,,,988.4589988999942,988.4707264999743,988.4707264999743,988.5188452999864,988.5190712999902,988.5353048999968,988.5353048999968,988.5353048999968,988.6018296999973,988.9023452999827,,,,,,,,up,5.75046020001173,None,space,0.3510179999866523,None,,,,,,,,,,,,,,,P117,001,2025-02-19_13h53.26.343,posner_endo_new1,2024.2.4,60.03691068718884,2025-02-19 13h53.33.805897 +0000,
cube_r.png,0.1,-0.31,invalid,48,48,0,up,7.21064600002137,None,space,0.3291148000280373,None,,,,,0,48,48,48,,,,,988.9182179999771,,,,,,,,,,,,,988.9025130999798,988.9182179999771,988.9182179999771,988.9182179999771,996.1454265999782,,,,996.1569596999907,996.1669340999797,996.1669340999797,996.2110608999792,996.2114062999899,996.2275624999893,996.2275624999893,996.2275624999893,996.3106476999819,996.5617550000024,,,,,,,,up,7.21064600002137,None,space,0.3291148000280373,None,,,,,,,,,,,,,,,P117,001,2025-02-19_13h53.26.343,posner_endo_new1,2024.2.4,60.03691068718884,2025-02-19 13h53.33.805897 +0000,
cube_r.png,0.1,10,catch,49,49,0,up,6.737024600006407,None,None,,,,,,,0,49,49,49,,,,,996.5771393999748,,,,,,,,,,,,,996.5620367999945,996.5771393999748,996.5771393999748,996.5771393999748,1003.3215198999969,,,,1003.3302058999834,1003.3400958999991,1003.3400958999991,1003.3869535999838,1003.3872023999866,1003.403410799976,1003.403410799976,1003.403410799976,1003.4868018999987,1006.4010269999853,,,,1005.5013798,1006.4169730999856,1006.4169730999856,1006.4169730999856,up,6.737024600006407,None,None,,,,,,,,,,,,,,,,,P117,001,2025-02-19_13h53.26.343,posner_endo_new1,2024.2.4,60.03691068718884,2025-02-19 13h53.33.805897 +0000,
cube_l.png,0.1,-0.31,valid,50,50,0,up,10.88791739998851,None,space,0.38817990000825375,None,,,,,0,50,50,50,,,,,1006.4169730999856,,,,,,,,,,,,,1006.4012074999919,1006.4169730999856,1006.4169730999856,1006.4169730999856,1017.3068151999905,,,,1017.3142263999907,1017.3255819999904,1017.3255819999904,1017.3728216000018,1017.3730701000022,1017.3891501999751,1017.3891501999751,1017.3891501999751,1017.4725200999819,1017.789656399982,,,,,,,,up,10.88791739998851,None,space,0.38817990000825375,None,,,,,,,,,,,,,,,P117,001,2025-02-19_13h53.26.343,posner_endo_new1,2024.2.4,60.03691068718884,2025-02-19 13h53.33.805897 +0000,
cube_l.png,0.1,-0.31,valid,51,51,0,up,4.828376500023296,None,space,0.3976224999933038,None,,,,,0,51,51,51,,,,,1017.8053032999742,,,,,,,,,,,,,1017.7898497999995,1017.8053032999742,1017.8053032999742,1017.8053032999742,1022.6346093000029,,,,1022.6420539999963,1022.6534734999877,1022.6534734999877,1022.7006373999757,1022.7008932000026,1022.7170641999983,1022.7170641999983,1022.7170641999983,1022.7836441999825,1023.1174354999966,,,,,,,,up,4.828376500023296,None,space,0.3976224999933038,None,,,,,,,,,,,,,,,P117,001,2025-02-19_13h53.26.343,posner_endo_new1,2024.2.4,60.03691068718884,2025-02-19 13h53.33.805897 +0000,
cube_r.png,0.1,-0.31,invalid,52,52,0,up,6.4677922000119,None,space,0.3605401999957394,None,,,,,0,52,52,52,,,,,1023.1333080999902,,,,,,,,,,,,,1023.1176329999871,1023.1333080999902,1023.1333080999902,1023.1333080999902,1029.611834499985,,,,1029.6309782999742,1029.6427378999942,1029.6427378999942,1029.6768440000014,1029.6771344000008,1029.6932788999984,1029.6932788999984,1029.6932788999984,1029.7764733999793,1030.0614485999977,,,,,,,,up,6.4677922000119,None,space,0.3605401999957394,None,,,,,,,,,,,,,,,P117,001,2025-02-19_13h53.26.343,posner_endo_new1,2024.2.4,60.03691068718884,2025-02-19 13h53.33.805897 +0000,
cube_l.png,0.1,-0.31,valid,53,53,0,up,5.805223100003786,None,space,0.34884610000881366,None,,,,,0,53,53,53,,,,,1030.076137999975,,,,,,,,,,,,,1030.061918499996,1030.076137999975,1030.076137999975,1030.076137999975,1035.888375999988,,,,1035.8999555999762,1035.910331799998,1035.910331799998,1035.9538010999968,1035.9541484999936,1035.9702672999993,1035.9702672999993,1035.9702672999993,1036.05354969998,1036.3211757999961,,,,,,,,up,5.805223100003786,None,space,0.34884610000881366,None,,,,,,,,,,,,,,,P117,001,2025-02-19_13h53.26.343,posner_endo_new1,2024.2.4,60.03691068718884,2025-02-19 13h53.33.805897 +0000,
cube_r.png,0.1,10,catch,54,54,0,up,10.337779399997089,None,None,,,,,,,0,54,54,54,,,,,1036.3366131999937,,,,,,,,,,,,,1036.321489199996,1036.3366131999937,1036.3366131999937,1036.3366131999937,1046.676910499984,,,,1046.6840060999966,1046.695442999975,1046.695442999975,1046.7425956999941,1046.742820799991,1046.7593482999946,1046.7593482999946,1046.7593482999946,1046.8425232000009,1049.756717399985,,,,1048.8571000999946,1049.772710499994,1049.772710499994,1049.772710499994,up,10.337779399997089,None,None,,,,,,,,,,,,,,,,,P117,001,2025-02-19_13h53.26.343,posner_endo_new1,2024.2.4,60.03691068718884,2025-02-19 13h53.33.805897 +0000,
cube_l.png,0.1,0.31,invalid,55,55,0,up,1.156822099990677,None,space,0.3819882000098005,None,,,,,0,55,55,55,,,,,1049.772710499994,,,,,,,,,,,,,1049.756880699977,1049.772710499994,1049.772710499994,1049.772710499994,1050.9390703999961,,,,1050.9451071999792,1050.9567995999823,1050.9567995999823,1051.005003999977,1051.0052386999887,1051.0214680999925,1051.0214680999925,1051.0214680999925,1051.0881882999965,1051.405295799981,,,,,,,,up,1.156822099990677,None,space,0.3819882000098005,None,,,,,,,,,,,,,,,P117,001,2025-02-19_13h53.26.343,posner_endo_new1,2024.2.4,60.03691068718884,2025-02-19 13h53.33.805897 +0000,
cube_l.png,0.1,-0.31,valid,56,56,0,up,2.9800338999775704,None,space,0.38825280001037754,None,,,,,0,56,56,56,,,,,1051.4210299999977,,,,,,,,,,,,,1051.4054671999766,1051.4210299999977,1051.4210299999977,1051.4210299999977,1054.4025581000024,,,,1054.4125327999936,1054.42275529998,1054.42275529998,1054.4681445999886,1054.4684536999848,1054.4847046999785,1054.4847046999785,1054.4847046999785,1054.5678925999964,1054.8853546999744,,,,,,,,up,2.9800338999775704,None,space,0.38825280001037754,None,,,,,,,,,,,,,,,P117,001,2025-02-19_13h53.26.343,posner_endo_new1,2024.2.4,60.03691068718884,2025-02-19 13h53.33.805897 +0000,
cube_r.png,0.1,0.31,valid,57,57,0,up,4.508598100015661,None,space,0.41948370001045987,None,,,,,0,57,57,57,,,,,1054.900937999977,,,,,,,,,,,,,1054.8856021999964,1054.900937999977,1054.900937999977,1054.900937999977,1059.4136559999897,,,,1059.4201439000026,1059.4319022999844,1059.4319022999844,1059.4796804999933,1059.4799088999862,1059.4961762999883,1059.4961762999883,1059.4961762999883,1059.5628304999846,1059.929778299993,,,,,,,,up,4.508598100015661,None,space,0.41948370001045987,None,,,,,,,,,,,,,,,P117,001,2025-02-19_13h53.26.343,posner_endo_new1,2024.2.4,60.03691068718884,2025-02-19 13h53.33.805897 +0000,
cube_r.png,0.1,-0.31,invalid,58,58,0,up,2.735028199997032,None,space,0.5557106000196654,None,,,,,0,58,58,58,,,,,1059.9458449999802,,,,,,,,,,,,,1059.9299497999891,1059.9458449999802,1059.9458449999802,1059.9458449999802,1062.6936456999974,,,,1062.6996555999795,1062.711141799984,1062.711141799984,1062.7596769999946,1062.7599000999762,1062.7762147999892,1062.7762147999892,1062.7762147999892,1062.8427071999758,1063.3427892999898,,,,,,,,up,2.735028199997032,None,space,0.5557106000196654,None,,,,,,,,,,,,,,,P117,001,2025-02-19_13h53.26.343,posner_endo_new1,2024.2.4,60.03691068718884,2025-02-19 13h53.33.805897 +0000,
cube_l.png,0.1,0.31,invalid,59,59,0,up,1.9786374999966938,None,space,0.4028966999903787,None,,,,,0,59,59,59,,,,,1063.3589763999917,,,,,,,,,,,,,1063.3429563999816,1063.3589763999917,1063.3589763999917,1063.3589763999917,1065.3414579999808,,,,1065.3529896999826,1065.3636326999986,1065.3636326999986,1065.4069882999756,1065.4073308999941,1065.4234936999856,1065.4234936999856,1065.4234936999856,1065.506764299993,1065.8408805999788,,,,,,,,up,1.9786374999966938,None,space,0.4028966999903787,None,,,,,,,,,,,,,,,P117,001,2025-02-19_13h53.26.343,posner_endo_new1,2024.2.4,60.03691068718884,2025-02-19 13h53.33.805897 +0000,
,,,,,,,,,,,,,,,,,,,,,,,,,,,,,,,,,,,,,,,,,,,,,,,,,,,,,,,,,,,,,,,,,,,,,1065.8410585999954,1065.8562890999892,1065.8562890999892,1125.8612279999943,1127.9770735999919,space,62.10510339998291,None,,,,,,,P117,001,2025-02-19_13h53.26.343,posner_endo_new1,2024.2.4,60.03691068718884,2025-02-19 13h53.33.805897 +0000,
,,,,,,,,,,,,,,,,,,,,,,,,,,,,,,,,,,1127.9771658999962,1127.9923640999768,1131.007984899974,1130.973456399981,,,,,,,,,,,,,,,,,,,,,,,,,,,,,,,,,,,,,,,,,,,,,,P117,001,2025-02-19_13h53.26.343,posner_endo_new1,2024.2.4,60.03691068718884,2025-02-19 13h53.33.805897 +0000,
cube_l.png,0.1,10,catch,0,0,0,down,20.313980600010836,None,None,,,,,,,,,,,0,0,0,0,1131.007984899974,,,,,,,,,,,,,1130.9989009999845,1131.007984899974,1131.007984899974,1131.007984899974,1151.3365673999942,,,,1151.3499402999878,1151.360051399999,1151.360051399999,1151.4019993999973,1151.402398599981,1151.4184876999934,1151.4184876999934,1151.4184876999934,1151.5017111999914,1154.4161987999978,,,,1153.516332499974,1154.432061200001,1154.432061200001,1154.432061200001,,,,,,,,,,,,,,,down,20.313980600010836,None,None,,,P117,001,2025-02-19_13h53.26.343,posner_endo_new1,2024.2.4,60.03691068718884,2025-02-19 13h53.33.805897 +0000,
cube_l.png,0.1,10,catch,1,1,0,down,6.369540499988943,None,None,,,,,,,,,,,0,1,1,1,1154.432061200001,,,,,,,,,,,,,1154.4165185999882,1154.432061200001,1154.432061200001,1154.432061200001,1160.810189699987,,,,1160.8231539999833,1160.8331936999748,1160.8331936999748,1160.875672299997,1160.876057299989,1160.892148599989,1160.892148599989,1160.892148599989,1160.9753746999777,1163.8898897999898,,,,1162.9899850999936,1163.9057141999947,1163.9057141999947,1163.9057141999947,,,,,,,,,,,,,,,down,6.369540499988943,None,None,,,P117,001,2025-02-19_13h53.26.343,posner_endo_new1,2024.2.4,60.03691068718884,2025-02-19 13h53.33.805897 +0000,
cube_l.png,0.1,0.31,invalid,2,2,0,down,5.703660800005309,None,space,0.3867796999984421,None,,,,,,,,,0,2,2,2,1163.9057141999947,,,,,,,,,,,,,1163.890202999988,1163.9057141999947,1163.9057141999947,1163.9057141999947,1169.6178142999997,,,,1169.6308172999998,1169.6408429000003,1169.6408429000003,1169.6837444999837,1169.6840084999858,1169.7003592999827,1169.7003592999827,1169.7003592999827,1169.7830495999951,1170.1006724999752,,,,,,,,,,,,,,,,,,,,,,down,5.703660800005309,None,space,0.3867796999984421,None,P117,001,2025-02-19_13h53.26.343,posner_endo_new1,2024.2.4,60.03691068718884,2025-02-19 13h53.33.805897 +0000,
cube_l.png,0.1,0.31,invalid,3,3,0,down,9.181253399990965,None,space,0.4558913999935612,None,,,,,,,,,0,3,3,3,1170.1160195999837,,,,,,,,,,,,,1170.1010021999828,1170.1160195999837,1170.1160195999837,1170.1160195999837,1179.3079483999754,,,,1179.3208634999755,1179.3309629999858,1179.3309629999858,1179.3738749999902,1179.3741413999815,1179.3902312999999,1179.3902312999999,1179.3902312999999,1179.4731291999924,1179.857524299994,,,,,,,,,,,,,,,,,,,,,,down,9.181253399990965,None,space,0.4558913999935612,None,P117,001,2025-02-19_13h53.26.343,posner_endo_new1,2024.2.4,60.03691068718884,2025-02-19 13h53.33.805897 +0000,
cube_l.png,0.1,-0.31,valid,4,4,0,down,5.568190499994671,None,space,0.34900820002076216,None,,,,,,,,,0,4,4,4,1179.8727425999823,,,,,,,,,,,,,1179.8578540000017,1179.8727425999823,1179.8727425999823,1179.8727425999823,1185.4517130999884,,,,1185.4603822999925,1185.4704222999862,1185.4704222999862,1185.5175963999936,1185.5178757999965,1185.5340081999893,1185.5340081999893,1185.5340081999893,1185.600785799994,1185.8848157999746,,,,,,,,,,,,,,,,,,,,,,down,5.568190499994671,None,space,0.34900820002076216,None,P117,001,2025-02-19_13h53.26.343,posner_endo_new1,2024.2.4,60.03691068718884,2025-02-19 13h53.33.805897 +0000,
cube_r.png,0.1,-0.31,invalid,5,5,0,down,5.70974349998869,None,space,0.46773649999522604,None,,,,,,,,,0,5,5,5,1185.9004048999923,,,,,,,,,,,,,1185.8850442999974,1185.9004048999923,1185.9004048999923,1185.9004048999923,1191.6122993000026,,,,1191.620826599974,1191.6309433999995,1191.6309433999995,1191.6779320999922,1191.678209399979,1191.694542399986,1191.694542399986,1191.694542399986,1191.7776055999857,1192.1782655999996,,,,,,,,,,,,,,,,,,,,,,down,5.70974349998869,None,space,0.46773649999522604,None,P117,001,2025-02-19_13h53.26.343,posner_endo_new1,2024.2.4,60.03691068718884,2025-02-19 13h53.33.805897 +0000,
cube_r.png,0.1,0.31,valid,6,6,0,down,7.4076778999879025,None,space,0.364199000003282,None,,,,,,,,,0,6,6,6,1192.1940046999953,,,,,,,,,,,,,1192.1784912000003,1192.1940046999953,1192.1940046999953,1192.1940046999953,1199.6040384999942,,,,1199.6127271000005,1199.6228535999835,1199.6228535999835,1199.669768199994,1199.6700544999912,1199.686349399999,1199.686349399999,1199.686349399999,1199.7695104999875,1200.053453200002,,,,,,,,,,,,,,,,,,,,,,down,7.4076778999879025,None,space,0.364199000003282,None,P117,001,2025-02-19_13h53.26.343,posner_endo_new1,2024.2.4,60.03691068718884,2025-02-19 13h53.33.805897 +0000,
cube_r.png,0.1,-0.31,invalid,7,7,0,down,6.235966699983692,None,space,0.3599613000114914,None,,,,,,,,,0,7,7,7,1200.0692009999766,,,,,,,,,,,,,1200.0536776999943,1200.0692009999766,1200.0692009999766,1200.0692009999766,1206.313788599975,,,,1206.3223494999984,1206.3325327999773,1206.3325327999773,1206.3795856999932,1206.3798624999763,1206.3959668999887,1206.3959668999887,1206.3959668999887,1206.4793753999984,1206.7631768999854,,,,,,,,,,,,,,,,,,,,,,down,6.235966699983692,None,space,0.3599613000114914,None,P117,001,2025-02-19_13h53.26.343,posner_endo_new1,2024.2.4,60.03691068718884,2025-02-19 13h53.33.805897 +0000,
cube_l.png,0.1,-0.31,valid,8,8,0,down,6.854616199998418,None,space,0.4147361000068486,None,,,,,,,,,0,8,8,8,1206.7790340999782,,,,,,,,,,,,,1206.7634013999777,1206.7790340999782,1206.7790340999782,1206.7790340999782,1213.6396532999934,,,,1213.6481909999857,1213.6583406999998,1213.6583406999998,1213.7054135999933,1213.7056948999816,1213.7219734999817,1213.7219734999817,1213.7219734999817,1213.8052396999847,1214.1390347999986,,,,,,,,,,,,,,,,,,,,,,down,6.854616199998418,None,space,0.4147361000068486,None,P117,001,2025-02-19_13h53.26.343,posner_endo_new1,2024.2.4,60.03691068718884,2025-02-19 13h53.33.805897 +0000,
cube_r.png,0.1,-0.31,invalid,9,9,0,down,5.59857989999,None,space,0.38792489998741075,None,,,,,,,,,0,9,9,9,1214.1547450999788,,,,,,,,,,,,,1214.139258899988,1214.1547450999788,1214.1547450999788,1214.1547450999788,1219.7666886999796,,,,1219.7752236999804,1219.7874063999916,1219.7874063999916,1219.8328315999825,1219.8334937999898,1219.8492169999809,1219.8492169999809,1219.8492169999809,1219.915818599984,1220.2510454999865,,,,,,,,,,,,,,,,,,,,,,down,5.59857989999,None,space,0.38792489998741075,None,P117,001,2025-02-19_13h53.26.343,posner_endo_new1,2024.2.4,60.03691068718884,2025-02-19 13h53.33.805897 +0000,
cube_l.png,0.1,0.31,invalid,10,10,0,down,5.3680932999996,None,space,0.38902579998830333,None,,,,,,,,,0,10,10,10,1220.2655489999743,,,,,,,,,,,,,1220.251626799989,1220.2655489999743,1220.2655489999743,1220.2655489999743,1225.6439980999858,,,,1225.6536994999915,1225.664023499994,1225.664023499994,1225.709811799985,1225.7101164999767,1225.726380899985,1225.726380899985,1225.726380899985,1225.8096141999995,1226.1270500999817,,,,,,,,,,,,,,,,,,,,,,down,5.3680932999996,None,space,0.38902579998830333,None,P117,001,2025-02-19_13h53.26.343,posner_endo_new1,2024.2.4,60.03691068718884,2025-02-19 13h53.33.805897 +0000,
cube_r.png,0.1,-0.31,invalid,11,11,0,down,6.482443000015337,None,space,0.42154219999792986,None,,,,,,,,,0,11,11,11,1226.1427866999875,,,,,,,,,,,,,1226.1273020999797,1226.1427866999875,1226.1427866999875,1226.1427866999875,1232.6371041999955,,,,1232.6466629999923,1232.6563144999964,1232.6563144999964,1232.702598599979,1232.7028229999996,1232.7192028999852,1232.7192028999852,1232.7192028999852,1232.8025140999816,1233.1529165999964,,,,,,,,,,,,,,,,,,,,,,down,6.482443000015337,None,space,0.42154219999792986,None,P117,001,2025-02-19_13h53.26.343,posner_endo_new1,2024.2.4,60.03691068718884,2025-02-19 13h53.33.805897 +0000,
cube_r.png,0.1,0.31,valid,12,12,0,down,9.264784600003622,None,space,0.36131200002273545,None,,,,,,,,,0,12,12,12,1233.1687871999748,,,,,,,,,,,,,1233.1530879999918,1233.1687871999748,1233.1687871999748,1233.1687871999748,1242.4433149999822,,,,1242.4497409999894,1242.4613928999752,1242.4613928999752,1242.5094037999806,1242.5096282000013,1242.5259046999854,1242.5259046999854,1242.5259046999854,1242.5924030999886,1242.8928851999808,,,,,,,,,,,,,,,,,,,,,,down,9.264784600003622,None,space,0.36131200002273545,None,P117,001,2025-02-19_13h53.26.343,posner_endo_new1,2024.2.4,60.03691068718884,2025-02-19 13h53.33.805897 +0000,
cube_l.png,0.1,10,catch,13,13,0,down,6.916467300005024,None,None,,,,,,,,,,,0,13,13,13,1242.9087801999995,,,,,,,,,,,,,1242.893056299974,1242.9087801999995,1242.9087801999995,1242.9087801999995,1249.8357342999952,,,,1249.8417934999743,1249.8534306999936,1249.8534306999936,1249.9017580999935,1249.9019825999858,1249.9184366999834,1249.9184366999834,1249.9184366999834,1249.9849246999947,1252.9160878999974,,,,1251.9993072999932,1252.9319068999903,1252.9319068999903,1252.9319068999903,,,,,,,,,,,,,,,down,6.916467300005024,None,None,,,P117,001,2025-02-19_13h53.26.343,posner_endo_new1,2024.2.4,60.03691068718884,2025-02-19 13h53.33.805897 +0000,
cube_r.png,0.1,-0.31,invalid,14,14,0,down,4.6132082999974955,None,space,0.3492299999925308,None,,,,,,,,,0,14,14,14,1252.9319068999903,,,,,,,,,,,,,1252.9163703999948,1252.9319068999903,1252.9319068999903,1252.9319068999903,1257.5617514999758,,,,1257.5733624999993,1257.5832471999747,1257.5832471999747,1257.6273898999789,1257.6277352999896,1257.6437572999857,1257.6437572999857,1257.6437572999857,1257.72722109998,1257.9948145999806,,,,,,,,,,,,,,,,,,,,,,down,4.6132082999974955,None,space,0.3492299999925308,None,P117,001,2025-02-19_13h53.26.343,posner_endo_new1,2024.2.4,60.03691068718884,2025-02-19 13h53.33.805897 +0000,
cube_l.png,0.1,-0.31,valid,15,15,0,down,11.814918799995212,None,space,0.4171533999906387,None,,,,,,,,,0,15,15,15,1258.0102152999898,,,,,,,,,,,,,1257.9951089999813,1258.0102152999898,1258.0102152999898,1258.0102152999898,1269.832603799994,,,,1269.844197999977,1269.8546023999806,1269.8546023999806,1269.8979833999765,1269.898327199975,1269.914673899999,1269.914673899999,1269.914673899999,1269.997821899975,1270.3486770000018,,,,,,,,,,,,,,,,,,,,,,down,11.814918799995212,None,space,0.4171533999906387,None,P117,001,2025-02-19_13h53.26.343,posner_endo_new1,2024.2.4,60.03691068718884,2025-02-19 13h53.33.805897 +0000,
cube_r.png,0.1,10,catch,16,16,0,down,6.997099800006254,None,None,,,,,,,,,,,0,16,16,16,1270.3642793999752,,,,,,,,,,,,,1270.3489684999804,1270.3642793999752,1270.3642793999752,1270.3642793999752,1277.3747076999862,,,,1277.3863473999954,1277.396636999998,1277.396636999998,1277.4403837999853,1277.4407343999774,1277.4568694999907,1277.4568694999907,1277.4568694999907,1277.540162899997,1280.454641999997,,,,1279.5547719000024,1280.4705654999998,1280.4705654999998,1280.4705654999998,,,,,,,,,,,,,,,down,6.997099800006254,None,None,,,P117,001,2025-02-19_13h53.26.343,posner_endo_new1,2024.2.4,60.03691068718884,2025-02-19 13h53.33.805897 +0000,
cube_r.png,0.1,10,catch,17,17,0,down,6.883448100008536,None,None,,,,,,,,,,,0,17,17,17,1280.4705654999998,,,,,,,,,,,,,1280.4549145999772,1280.4705654999998,1280.4705654999998,1280.4705654999998,1287.3649283999985,,,,1287.3764649999794,1287.3866813999775,1287.3866813999775,1287.4301394999784,1287.4304846999876,1287.4466468999744,1287.4466468999744,1287.4466468999744,1287.529710199975,1290.4443217999942,,,,1289.5445973000024,1290.4601783999824,1290.4601783999824,1290.4601783999824,,,,,,,,,,,,,,,down,6.883448100008536,None,None,,,P117,001,2025-02-19_13h53.26.343,posner_endo_new1,2024.2.4,60.03691068718884,2025-02-19 13h53.33.805897 +0000,
cube_l.png,0.1,0.31,invalid,18,18,0,down,9.373723400000017,None,space,0.4455436999851372,None,,,,,,,,,0,18,18,18,1290.4601783999824,,,,,,,,,,,,,1290.4445969999942,1290.4601783999824,1290.4601783999824,1290.4601783999824,1299.835374999995,,,,1299.8470596999978,1299.857445599977,1299.857445599977,1299.9007192999998,1299.9010704999964,1299.9172740999784,1299.9172740999784,1299.9172740999784,1300.0005189999938,1300.368111399992,,,,,,,,,,,,,,,,,,,,,,down,9.373723400000017,None,space,0.4455436999851372,None,P117,001,2025-02-19_13h53.26.343,posner_endo_new1,2024.2.4,60.03691068718884,2025-02-19 13h53.33.805897 +0000,
cube_l.png,0.1,10,catch,19,19,0,down,3.314631300017936,None,None,,,,,,,,,,,0,19,19,19,1300.3834216999821,,,,,,,,,,,,,1300.3683995000029,1300.3834216999821,1300.3834216999821,1300.3834216999821,1303.7145871999965,,,,1303.7261306,1303.7361259999743,1303.7361259999743,1303.7801310999785,1303.7804770999937,1303.7966547999822,1303.7966547999822,1303.7966547999822,1303.8798018999805,1306.7943123999867,,,,1305.8945345999964,1306.810200399981,1306.810200399981,1306.810200399981,,,,,,,,,,,,,,,down,3.314631300017936,None,None,,,P117,001,2025-02-19_13h53.26.343,posner_endo_new1,2024.2.4,60.03691068718884,2025-02-19 13h53.33.805897 +0000,
cube_l.png,0.1,0.31,invalid,20,20,0,down,0.6240205999929458,None,space,0.4849685999797657,None,,,,,,,,,0,20,20,20,1306.810200399981,,,,,,,,,,,,,1306.7945993999892,1306.810200399981,1306.810200399981,1306.810200399981,1307.4441628999775,,,,1307.4557412999857,1307.4661409999826,1307.4661409999826,1307.5096238999977,1307.5099690999778,1307.526170899975,1307.526170899975,1307.526170899975,1307.6094556000025,1308.0268688999931,,,,,,,,,,,,,,,,,,,,,,down,0.6240205999929458,None,space,0.4849685999797657,None,P117,001,2025-02-19_13h53.26.343,posner_endo_new1,2024.2.4,60.03691068718884,2025-02-19 13h53.33.805897 +0000,
cube_l.png,0.1,-0.31,valid,21,21,0,down,7.543055599991931,None,space,0.514692600001581,None,,,,,,,,,0,21,21,21,1308.042376999976,,,,,,,,,,,,,1308.0271654999815,1308.042376999976,1308.042376999976,1308.042376999976,1315.6022034999914,,,,1315.6137991999858,1315.6237043,1315.6237043,1315.6680841999769,1315.6684370999865,1315.684518199996,1315.684518199996,1315.684518199996,1315.767682399979,1316.201879899978,,,,,,,,,,,,,,,,,,,,,,down,7.543055599991931,None,space,0.514692600001581,None,P117,001,2025-02-19_13h53.26.343,posner_endo_new1,2024.2.4,60.03691068718884,2025-02-19 13h53.33.805897 +0000,
cube_r.png,0.1,0.31,valid,22,22,0,down,6.912483299995074,None,space,0.36177419999148697,None,,,,,,,,,0,22,22,22,1316.2174067999877,,,,,,,,,,,,,1316.2021761999931,1316.2174067999877,1316.2174067999877,1316.2174067999877,1323.1448184999754,,,,1323.1564118999813,1323.166748299991,1323.166748299991,1323.2103097999934,1323.210654399998,1323.2268100999936,1323.2268100999936,1323.2268100999936,1323.310048799991,1323.5943726999976,,,,,,,,,,,,,,,,,,,,,,down,6.912483299995074,None,space,0.36177419999148697,None,P117,001,2025-02-19_13h53.26.343,posner_endo_new1,2024.2.4,60.03691068718884,2025-02-19 13h53.33.805897 +0000,
cube_r.png,0.1,-0.31,invalid,23,23,0,down,7.456234299985226,None,space,0.3777447000029497,None,,,,,,,,,0,23,23,23,1323.6098340999743,,,,,,,,,,,,,1323.594669299986,1323.6098340999743,1323.6098340999743,1323.6098340999743,1331.0698680999922,,,,1331.079018199991,1331.0888287999842,1331.0888287999842,1331.135460199992,1331.1356966999883,1331.1520581999794,1331.1520581999794,1331.1520581999794,1331.2353726000001,1331.5358957999852,,,,,,,,,,,,,,,,,,,,,,down,7.456234299985226,None,space,0.3777447000029497,None,P117,001,2025-02-19_13h53.26.343,posner_endo_new1,2024.2.4,60.03691068718884,2025-02-19 13h53.33.805897 +0000,
cube_r.png,0.1,0.31,valid,24,24,0,down,7.491565900010755,None,space,0.41003769999952056,None,,,,,,,,,0,24,24,24,1331.5516056999913,,,,,,,,,,,,,1331.536086899985,1331.5516056999913,1331.5516056999913,1331.5516056999913,1339.0448191999749,,,,1339.0517801999813,1339.0634666999977,1339.0634666999977,1339.1106180999777,1339.1108594999823,1339.1272142999806,1339.1272142999806,1339.1272142999806,1339.210504799994,1339.544144399988,,,,,,,,,,,,,,,,,,,,,,down,7.491565900010755,None,space,0.41003769999952056,None,P117,001,2025-02-19_13h53.26.343,posner_endo_new1,2024.2.4,60.03691068718884,2025-02-19 13h53.33.805897 +0000,
cube_r.png,0.1,-0.31,invalid,25,25,0,down,7.938155499985442,None,space,0.3980246999999508,None,,,,,,,,,0,25,25,25,1339.5600276999758,,,,,,,,,,,,,1339.5443343999796,1339.5600276999758,1339.5600276999758,1339.5600276999758,1347.5035519999801,,,,1347.5209004999779,1347.531922299997,1347.531922299997,1347.5685760999913,1347.5690816999995,1347.5850078999938,1347.5850078999938,1347.5850078999938,1347.6682386999892,1347.9861022999976,,,,,,,,,,,,,,,,,,,,,,down,7.938155499985442,None,space,0.3980246999999508,None,P117,001,2025-02-19_13h53.26.343,posner_endo_new1,2024.2.4,60.03691068718884,2025-02-19 13h53.33.805897 +0000,
cube_l.png,0.1,-0.31,valid,26,26,0,down,8.304271300003165,None,space,0.41336810000939295,None,,,,,,,,,0,26,26,26,1348.0014911999751,,,,,,,,,,,,,1347.9863921999931,1348.0014911999751,1348.0014911999751,1348.0014911999751,1356.3107717999956,,,,1356.3224269999773,1356.332783299993,1356.332783299993,1356.375789099984,1356.376142299996,1356.392284499976,1356.392284499976,1356.392284499976,1356.476309699996,1356.809951000003,,,,,,,,,,,,,,,,,,,,,,down,8.304271300003165,None,space,0.41336810000939295,None,P117,001,2025-02-19_13h53.26.343,posner_endo_new1,2024.2.4,60.03691068718884,2025-02-19 13h53.33.805897 +0000,
cube_r.png,0.1,0.31,valid,27,27,0,down,7.50454979998176,None,space,0.6053438000089955,None,,,,,,,,,0,27,27,27,1356.8258357000013,,,,,,,,,,,,,1356.8101257999951,1356.8258357000013,1356.8258357000013,1356.8258357000013,1364.335456300003,,,,1364.3418514999794,1364.353436699981,1364.353436699981,1364.4015332999988,1364.401759899978,1364.4180848999822,1364.4180848999822,1364.4180848999822,1364.4845939999796,1365.0347631999757,,,,,,,,,,,,,,,,,,,,,,down,7.50454979998176,None,space,0.6053438000089955,None,P117,001,2025-02-19_13h53.26.343,posner_endo_new1,2024.2.4,60.03691068718884,2025-02-19 13h53.33.805897 +0000,
cube_r.png,0.1,10,catch,28,28,0,down,9.5507294999843,None,None,,,,,,,,,,,0,28,28,28,1365.0506634999765,,,,,,,,,,,,,1365.0349366999872,1365.0506634999765,1365.0506634999765,1365.0506634999765,1374.6086921999813,,,,1374.6202398999885,1374.6305644999957,1374.6305644999957,1374.6742766999814,1374.6746228999982,1374.6909167999984,1374.6909167999984,1374.6909167999984,1374.7740665999881,1377.688505899976,,,,1376.7887235999806,1377.7044585999975,1377.7044585999975,1377.7044585999975,,,,,,,,,,,,,,,down,9.5507294999843,None,None,,,P117,001,2025-02-19_13h53.26.343,posner_endo_new1,2024.2.4,60.03691068718884,2025-02-19 13h53.33.805897 +0000,
cube_r.png,0.1,0.31,valid,29,29,0,down,6.329299700009869,None,space,0.40555769999627955,None,,,,,,,,,0,29,29,29,1377.7044585999975,,,,,,,,,,,,,1377.6887813999783,1377.7044585999975,1377.7044585999975,1377.7044585999975,1384.0491921999783,,,,1384.0591888999916,1384.0690220999822,1384.0690220999822,1384.1145674999862,1384.1148115999822,1384.1311884000024,1384.1311884000024,1384.1311884000024,1384.2144848000025,1384.5482181999832,,,,,,,,,,,,,,,,,,,,,,down,6.329299700009869,None,space,0.40555769999627955,None,P117,001,2025-02-19_13h53.26.343,posner_endo_new1,2024.2.4,60.03691068718884,2025-02-19 13h53.33.805897 +0000,
cube_r.png,0.1,0.31,valid,30,30,0,down,8.877331999974558,None,space,0.37931400001980364,None,,,,,,,,,0,30,30,30,1384.5640429999912,,,,,,,,,,,,,1384.5484139999899,1384.5640429999912,1384.5640429999912,1384.5640429999912,1393.45576729998,,,,1393.4627629999886,1393.4744097999937,1393.4744097999937,1393.5216171999928,1393.5221236999787,1393.5380634999892,1393.5380634999892,1393.5380634999892,1393.6212807999982,1393.9231110999826,,,,,,,,,,,,,,,,,,,,,,down,8.877331999974558,None,space,0.37931400001980364,None,P117,001,2025-02-19_13h53.26.343,posner_endo_new1,2024.2.4,60.03691068718884,2025-02-19 13h53.33.805897 +0000,
cube_l.png,0.1,-0.31,valid,31,31,0,down,7.744376199989347,None,space,0.39896359998965636,None,,,,,,,,,0,31,31,31,1393.9376430999837,,,,,,,,,,,,,1393.9235512999876,1393.9376430999837,1393.9376430999837,1393.9376430999837,1401.6978269999963,,,,1401.7093833999825,1401.719615799986,1401.719615799986,1401.763439799979,1401.7637884999858,1401.779785599996,1401.779785599996,1401.779785599996,1401.8634216999926,1402.1806791999843,,,,,,,,,,,,,,,,,,,,,,down,7.744376199989347,None,space,0.39896359998965636,None,P117,001,2025-02-19_13h53.26.343,posner_endo_new1,2024.2.4,60.03691068718884,2025-02-19 13h53.33.805897 +0000,
cube_r.png,0.1,0.31,valid,32,32,0,down,9.182299700012663,None,space,0.38230309999198653,None,,,,,,,,,0,32,32,32,1402.1961334999942,,,,,,,,,,,,,1402.1809779999894,1402.1961334999942,1402.1961334999942,1402.1961334999942,1411.3878779999795,,,,1411.399419399997,1411.4097417999874,1411.4097417999874,1411.4535644999996,1411.4539102999843,1411.4699852999765,1411.4699852999765,1411.4699852999765,1411.553132000001,1411.8543024999963,,,,,,,,,,,,,,,,,,,,,,down,9.182299700012663,None,space,0.38230309999198653,None,P117,001,2025-02-19_13h53.26.343,posner_endo_new1,2024.2.4,60.03691068718884,2025-02-19 13h53.33.805897 +0000,
cube_r.png,0.1,-0.31,invalid,33,33,0,down,6.556762100022752,None,space,0.502844799979357,None,,,,,,,,,0,33,33,33,1411.8695357999823,,,,,,,,,,,,,1411.8546042999951,1411.8695357999823,1411.8695357999823,1411.8695357999823,1418.4309118999809,,,,1418.4399261999934,1418.4498673999915,1418.4498673999915,1418.4962475999782,1418.4965002999816,1418.512718199985,1418.512718199985,1418.512718199985,1418.5958978999988,1419.0296800999786,,,,,,,,,,,,,,,,,,,,,,down,6.556762100022752,None,space,0.502844799979357,None,P117,001,2025-02-19_13h53.26.343,posner_endo_new1,2024.2.4,60.03691068718884,2025-02-19 13h53.33.805897 +0000,
cube_r.png,0.1,10,catch,34,34,0,down,13.332792900007917,None,None,,,,,,,,,,,0,34,34,34,1419.0455062999972,,,,,,,,,,,,,1419.0298774999974,1419.0455062999972,1419.0455062999972,1419.0455062999972,1432.3827143999806,,,,1432.3901758999855,1432.401493799989,1432.401493799989,1432.4485438999836,1432.44879949998,1432.4650520999858,1432.4650520999858,1432.4650520999858,1432.5484099999885,1435.462586699985,,,,1434.5630447999865,1435.4787284999911,1435.4787284999911,1435.4787284999911,,,,,,,,,,,,,,,down,13.332792900007917,None,None,,,P117,001,2025-02-19_13h53.26.343,posner_endo_new1,2024.2.4,60.03691068718884,2025-02-19 13h53.33.805897 +0000,
cube_r.png,0.1,0.31,valid,35,35,0,down,3.7155589000030886,None,space,0.377744099998381,None,,,,,,,,,0,35,35,35,1435.4787284999911,,,,,,,,,,,,,1435.4627695999807,1435.4787284999911,1435.4787284999911,1435.4787284999911,1439.2090764000022,,,,1439.2164848999819,1439.227917799988,1439.227917799988,1439.2748515999992,1439.2751095999847,1439.291466499999,1439.291466499999,1439.291466499999,1439.3581515999977,1439.6753626999853,,,,,,,,,,,,,,,,,,,,,,down,3.7155589000030886,None,space,0.377744099998381,None,P117,001,2025-02-19_13h53.26.343,posner_endo_new1,2024.2.4,60.03691068718884,2025-02-19 13h53.33.805897 +0000,
cube_r.png,0.1,-0.31,invalid,36,36,0,down,8.838610800012248,None,space,0.4276536999968812,None,,,,,,,,,0,36,36,36,1439.691117099981,,,,,,,,,,,,,1439.6755645999801,1439.691117099981,1439.691117099981,1439.691117099981,1448.532917399978,,,,1448.5403121999989,1448.5516014999885,1448.5516014999885,1448.5987179999938,1448.5989689999842,1448.6152487999934,1448.6152487999934,1448.6152487999934,1448.6819466000015,1449.0491467999818,,,,,,,,,,,,,,,,,,,,,,down,8.838610800012248,None,space,0.4276536999968812,None,P117,001,2025-02-19_13h53.26.343,posner_endo_new1,2024.2.4,60.03691068718884,2025-02-19 13h53.33.805897 +0000,
cube_l.png,0.1,0.31,invalid,37,37,0,down,8.753539900004398,None,space,0.4304415000078734,None,,,,,,,,,0,37,37,37,1449.064812800003,,,,,,,,,,,,,1449.0493453999807,1449.064812800003,1449.064812800003,1449.064812800003,1457.8234517999808,,,,1457.830911899975,1457.8421932999918,1457.8421932999918,1457.8893471999909,1457.8898882999783,1457.9057196999784,1457.9057196999784,1457.9057196999784,1457.9890016999852,1458.3405152999912,,,,,,,,,,,,,,,,,,,,,,down,8.753539900004398,None,space,0.4304415000078734,None,P117,001,2025-02-19_13h53.26.343,posner_endo_new1,2024.2.4,60.03691068718884,2025-02-19 13h53.33.805897 +0000,
cube_l.png,0.1,0.31,invalid,38,38,0,down,6.551214099978097,None,space,0.4346611000073608,None,,,,,,,,,0,38,38,38,1458.3552818999742,,,,,,,,,,,,,1458.3409873999772,1458.3552818999742,1458.3552818999742,1458.3552818999742,1464.917116800003,,,,1464.9359262999787,1464.9473002000013,1464.9473002000013,1464.9820704000012,1464.9826234999928,1464.9984954999818,1464.9984954999818,1464.9984954999818,1465.0817332000006,1465.4499325999932,,,,,,,,,,,,,,,,,,,,,,down,6.551214099978097,None,space,0.4346611000073608,None,P117,001,2025-02-19_13h53.26.343,posner_endo_new1,2024.2.4,60.03691068718884,2025-02-19 13h53.33.805897 +0000,
cube_r.png,0.1,0.31,valid,39,39,0,down,8.113008799991803,None,space,0.37937480001710355,None,,,,,,,,,0,39,39,39,1465.4646833000006,,,,,,,,,,,,,1465.450430500001,1465.4646833000006,1465.4646833000006,1465.4646833000006,1473.5908421999775,,,,1473.601931799989,1473.6123151999782,1473.6123151999782,1473.6565780999954,1473.6569082999777,1473.6730643999763,1473.6730643999763,1473.6730643999763,1473.7563337000029,1474.057310299977,,,,,,,,,,,,,,,,,,,,,,down,8.113008799991803,None,space,0.37937480001710355,None,P117,001,2025-02-19_13h53.26.343,posner_endo_new1,2024.2.4,60.03691068718884,2025-02-19 13h53.33.805897 +0000,
cube_l.png,0.1,0.31,invalid,40,40,0,down,8.992829199996777,None,space,0.4276034999929834,None,,,,,,,,,0,40,40,40,1474.072740499978,,,,,,,,,,,,,1474.0575968999765,1474.072740499978,1474.072740499978,1474.072740499978,1483.081278699974,,,,1483.0901830999937,1483.1001551999943,1483.1001551999943,1483.1469012000016,1483.1471507999813,1483.1634785999777,1483.1634785999777,1483.1634785999777,1483.2465649999795,1483.5971916999843,,,,,,,,,,,,,,,,,,,,,,down,8.992829199996777,None,space,0.4276034999929834,None,P117,001,2025-02-19_13h53.26.343,posner_endo_new1,2024.2.4,60.03691068718884,2025-02-19 13h53.33.805897 +0000,
cube_l.png,0.1,10,catch,41,41,0,down,8.861285599996336,None,None,,,,,,,,,,,0,41,41,41,1483.612919199979,,,,,,,,,,,,,1483.5973899999808,1483.612919199979,1483.612919199979,1483.612919199979,1492.4879114999785,,,,1492.4953832000028,1492.5067591999832,1492.5067591999832,1492.5538940999832,1492.5541514999932,1492.5703019999783,1492.5703019999783,1492.5703019999783,1492.636975899979,1495.5677258999785,,,,1494.6516940000001,1495.5840396999847,1495.5840396999847,1495.5840396999847,,,,,,,,,,,,,,,down,8.861285599996336,None,None,,,P117,001,2025-02-19_13h53.26.343,posner_endo_new1,2024.2.4,60.03691068718884,2025-02-19 13h53.33.805897 +0000,
cube_l.png,0.1,-0.31,valid,42,42,0,down,6.034303599997656,None,space,0.422982599993702,None,,,,,,,,,0,42,42,42,1495.5840396999847,,,,,,,,,,,,,1495.5679162000015,1495.5840396999847,1495.5840396999847,1495.5840396999847,1501.6285796999873,,,,1501.6360094999836,1501.6473920999852,1501.6473920999852,1501.694481499988,1501.6947340999905,1501.7110568999778,1501.7110568999778,1501.7110568999778,1501.7776594999887,1502.1447235999804,,,,,,,,,,,,,,,,,,,,,,down,6.034303599997656,None,space,0.422982599993702,None,P117,001,2025-02-19_13h53.26.343,posner_endo_new1,2024.2.4,60.03691068718884,2025-02-19 13h53.33.805897 +0000,
cube_l.png,0.1,10,catch,43,43,0,down,7.689562999992631,None,None,,,,,,,,,,,0,43,43,43,1502.1605341999966,,,,,,,,,,,,,1502.1449256999767,1502.1605341999966,1502.1605341999966,1502.1605341999966,1509.8536955000018,,,,1509.8610624999856,1509.872404099995,1509.872404099995,1509.9194541999896,1509.9197056999838,1509.9359708999982,1509.9359708999982,1509.9359708999982,1510.0191104999976,1512.9333148000005,,,,1512.0338144999987,1512.9495680999826,1512.9495680999826,1512.9495680999826,,,,,,,,,,,,,,,down,7.689562999992631,None,None,,,P117,001,2025-02-19_13h53.26.343,posner_endo_new1,2024.2.4,60.03691068718884,2025-02-19 13h53.33.805897 +0000,
cube_l.png,0.1,0.31,invalid,44,44,0,down,4.180095099989558,None,space,0.7023232000065036,None,,,,,,,,,0,44,44,44,1512.9495680999826,,,,,,,,,,,,,1512.9335028999776,1512.9495680999826,1512.9495680999826,1512.9495680999826,1517.1462380999874,,,,1517.1537469999748,1517.1648699999787,1517.1648699999787,1517.2119409999868,1517.2124391999969,1517.22834099998,1517.22834099998,1517.22834099998,1517.3116188999848,1517.9460515999817,,,,,,,,,,,,,,,,,,,,,,down,4.180095099989558,None,space,0.7023232000065036,None,P117,001,2025-02-19_13h53.26.343,posner_endo_new1,2024.2.4,60.03691068718884,2025-02-19 13h53.33.805897 +0000,
cube_l.png,0.1,0.31,invalid,45,45,0,down,4.2897256999858655,None,space,0.5714726999867707,None,,,,,,,,,0,45,45,45,1517.96093869998,,,,,,,,,,,,,1517.946504499996,1517.96093869998,1517.96093869998,1517.96093869998,1522.258073199977,,,,1522.2686557999987,1522.2783327999932,1522.2783327999932,1522.3233491999854,1522.3235983999912,1522.339803699986,1522.339803699986,1522.339803699986,1522.4231984999788,1522.9235184999998,,,,,,,,,,,,,,,,,,,,,,down,4.2897256999858655,None,space,0.5714726999867707,None,P117,001,2025-02-19_13h53.26.343,posner_endo_new1,2024.2.4,60.03691068718884,2025-02-19 13h53.33.805897 +0000,
cube_r.png,0.1,0.31,valid,46,46,0,down,8.614896899991436,None,space,0.34558750002179295,None,,,,,,,,,0,46,46,46,1522.9392750999832,,,,,,,,,,,,,1522.9237166999956,1522.9392750999832,1522.9392750999832,1522.9392750999832,1531.5646837999811,,,,1531.5720970999973,1531.5834963999805,1531.5834963999805,1531.630626099999,1531.6308719999797,1531.6470748999855,1531.6470748999855,1531.6470748999855,1531.7302481999795,1531.997791599977,,,,,,,,,,,,,,,,,,,,,,down,8.614896899991436,None,space,0.34558750002179295,None,P117,001,2025-02-19_13h53.26.343,posner_endo_new1,2024.2.4,60.03691068718884,2025-02-19 13h53.33.805897 +0000,
cube_l.png,0.1,-0.31,valid,47,47,0,down,7.148427300009644,None,space,0.4368733000010252,None,,,,,,,,,0,47,47,47,1532.0135589999845,,,,,,,,,,,,,1531.9979897000012,1532.0135589999845,1532.0135589999845,1532.0135589999845,1539.1736297999742,,,,1539.1810736999905,1539.1924594999873,1539.1924594999873,1539.2395504000015,1539.2397990999743,1539.256093599979,1539.256093599979,1539.256093599979,1539.3393472000025,1539.7064578999998,,,,,,,,,,,,,,,,,,,,,,down,7.148427300009644,None,space,0.4368733000010252,None,P117,001,2025-02-19_13h53.26.343,posner_endo_new1,2024.2.4,60.03691068718884,2025-02-19 13h53.33.805897 +0000,
cube_r.png,0.1,-0.31,invalid,48,48,0,down,4.047275199991418,None,space,0.43668490002164617,None,,,,,,,,,0,48,48,48,1539.7223493999918,,,,,,,,,,,,,1539.706665399979,1539.7223493999918,1539.7223493999918,1539.7223493999918,1543.7855788999877,,,,1543.7929056999856,1543.8043563999818,1543.8043563999818,1543.851399999985,1543.851904399984,1543.8678085999854,1543.8678085999854,1543.8678085999854,1543.9510621999798,1544.319036299974,,,,,,,,,,,,,,,,,,,,,,down,4.047275199991418,None,space,0.43668490002164617,None,P117,001,2025-02-19_13h53.26.343,posner_endo_new1,2024.2.4,60.03691068718884,2025-02-19 13h53.33.805897 +0000,
cube_r.png,0.1,10,catch,49,49,0,down,3.0282258999941405,None,None,,,,,,,,,,,0,49,49,49,1544.3339776999783,,,,,,,,,,,,,1544.3194741999905,1544.3339776999783,1544.3339776999783,1544.3339776999783,1547.36572479998,,,,1547.3772036999871,1547.3874457999773,1547.3874457999773,1547.4312747999793,1547.4316211999976,1547.4477468999976,1547.4477468999976,1547.4477468999976,1547.5310445999785,1550.4452122999937,,,,1549.545549499977,1550.461347799981,1550.461347799981,1550.461347799981,,,,,,,,,,,,,,,down,3.0282258999941405,None,None,,,P117,001,2025-02-19_13h53.26.343,posner_endo_new1,2024.2.4,60.03691068718884,2025-02-19 13h53.33.805897 +0000,
cube_l.png,0.1,-0.31,valid,50,50,0,down,0.6049914000032004,None,space,0.4264133000106085,None,,,,,,,,,0,50,50,50,1550.461347799981,,,,,,,,,,,,,1550.4454826999863,1550.461347799981,1550.461347799981,1550.461347799981,1551.0785349999787,,,,1551.090090999991,1551.1003263999883,1551.1003263999883,1551.1440947999945,1551.1444435000012,1551.1606282999855,1551.1606282999855,1551.1606282999855,1551.2438973999815,1551.5947103999788,,,,,,,,,,,,,,,,,,,,,,down,0.6049914000032004,None,space,0.4264133000106085,None,P117,001,2025-02-19_13h53.26.343,posner_endo_new1,2024.2.4,60.03691068718884,2025-02-19 13h53.33.805897 +0000,
cube_l.png,0.1,-0.31,valid,51,51,0,down,2.2398731999855954,None,space,0.4348438000015449,None,,,,,,,,,0,51,51,51,1551.610260699992,,,,,,,,,,,,,1551.59501249998,1551.610260699992,1551.610260699992,1551.610260699992,1553.859061700001,,,,1553.8705526999838,1553.8808131999976,1553.8808131999976,1553.924671899993,1553.925022099982,1553.9411323999811,1553.9411323999811,1553.9411323999811,1554.024373399996,1554.3917793,,,,,,,,,,,,,,,,,,,,,,down,2.2398731999855954,None,space,0.4348438000015449,None,P117,001,2025-02-19_13h53.26.343,posner_endo_new1,2024.2.4,60.03691068718884,2025-02-19 13h53.33.805897 +0000,
cube_r.png,0.1,-0.31,invalid,52,52,0,down,2.0665699999954086,None,space,0.43656629999168217,None,,,,,,,,,0,52,52,52,1554.4072598999774,,,,,,,,,,,,,1554.3920739000023,1554.4072598999774,1554.4072598999774,1554.4072598999774,1556.489656699996,,,,1556.4995251999935,1556.5093379000027,1556.5093379000027,1556.5550615999964,1556.5553168999904,1556.5717623999808,1556.5717623999808,1556.5717623999808,1556.6550407999894,1557.0219616999966,,,,,,,,,,,,,,,,,,,,,,down,2.0665699999954086,None,space,0.43656629999168217,None,P117,001,2025-02-19_13h53.26.343,posner_endo_new1,2024.2.4,60.03691068718884,2025-02-19 13h53.33.805897 +0000,
cube_l.png,0.1,-0.31,valid,53,53,0,down,1.907698299997719,None,space,0.3633451000205241,None,,,,,,,,,0,53,53,53,1557.0379197000002,,,,,,,,,,,,,1557.0221613999747,1557.0379197000002,1557.0379197000002,1557.0379197000002,1558.9533650999947,,,,1558.960675899987,1558.9721845999884,1558.9721845999884,1559.019291399978,1559.0195404999831,1559.035908299993,1559.035908299993,1559.035908299993,1559.1023732999747,1559.4029923999915,,,,,,,,,,,,,,,,,,,,,,down,1.907698299997719,None,space,0.3633451000205241,None,P117,001,2025-02-19_13h53.26.343,posner_endo_new1,2024.2.4,60.03691068718884,2025-02-19 13h53.33.805897 +0000,
cube_r.png,0.1,10,catch,54,54,0,down,2.582880900008604,None,None,,,,,,,,,,,0,54,54,54,1559.4187773999874,,,,,,,,,,,,,1559.403189499979,1559.4187773999874,1559.4187773999874,1559.4187773999874,1562.0168304999825,,,,1562.0241239999887,1562.0358328000002,1562.0358328000002,1562.082778299984,1562.083028299996,1562.0993050999823,1562.0993050999823,1562.0993050999823,1562.1659854999743,1565.0968128999812,,,,1564.1804715999751,1565.1129325999937,1565.1129325999937,1565.1129325999937,,,,,,,,,,,,,,,down,2.582880900008604,None,None,,,P117,001,2025-02-19_13h53.26.343,posner_endo_new1,2024.2.4,60.03691068718884,2025-02-19 13h53.33.805897 +0000,
cube_l.png,0.1,0.31,invalid,55,55,0,down,2.4731073000002652,None,space,0.4460702999786008,None,,,,,,,,,0,55,55,55,1565.1129325999937,,,,,,,,,,,,,1565.096995400003,1565.1129325999937,1565.1129325999937,1565.1129325999937,1567.594584299979,,,,1567.6019639000006,1567.613365999976,1567.613365999976,1567.660531899979,1567.6610681999882,1567.6769350999966,1567.6769350999966,1567.6769350999966,1567.76017959998,1568.1283126999915,,,,,,,,,,,,,,,,,,,,,,down,2.4731073000002652,None,space,0.4460702999786008,None,P117,001,2025-02-19_13h53.26.343,posner_endo_new1,2024.2.4,60.03691068718884,2025-02-19 13h53.33.805897 +0000,
cube_l.png,0.1,-0.31,valid,56,56,0,down,2.6106234999897424,None,space,0.5789450999873225,None,,,,,,,,,0,56,56,56,1568.1431344999874,,,,,,,,,,,,,1568.128787099995,1568.1431344999874,1568.1431344999874,1568.1431344999874,1570.758443699975,,,,1570.7700006999949,1570.7802939999965,1570.7802939999965,1570.823998399981,1570.8243414000026,1570.8403791000019,1570.8403791000019,1570.8403791000019,1570.9237888999924,1571.4244002999912,,,,,,,,,,,,,,,,,,,,,,down,2.6106234999897424,None,space,0.5789450999873225,None,P117,001,2025-02-19_13h53.26.343,posner_endo_new1,2024.2.4,60.03691068718884,2025-02-19 13h53.33.805897 +0000,
cube_r.png,0.1,0.31,valid,57,57,0,down,1.3618598000030033,None,space,0.4009202000161167,None,,,,,,,,,0,57,57,57,1571.439938399999,,,,,,,,,,,,,1571.4246903999883,1571.439938399999,1571.439938399999,1571.439938399999,1572.8064022999897,,,,1572.8179238000012,1572.8282160999952,1572.8282160999952,1572.8719529999944,1572.8722988999798,1572.8884537999984,1572.8884537999984,1572.8884537999984,1572.9717683999916,1573.3058307000028,,,,,,,,,,,,,,,,,,,,,,down,1.3618598000030033,None,space,0.4009202000161167,None,P117,001,2025-02-19_13h53.26.343,posner_endo_new1,2024.2.4,60.03691068718884,2025-02-19 13h53.33.805897 +0000,
cube_r.png,0.1,-0.31,invalid,58,58,0,down,2.2092218000034336,None,space,0.3506342000036966,None,,,,,,,,,0,58,58,58,1573.3211382000009,,,,,,,,,,,,,1573.3061224999838,1573.3211382000009,1573.3211382000009,1573.3211382000009,1575.5370409000025,,,,1575.5476283000025,1575.5572582999885,1575.5572582999885,1575.6022640999872,1575.6025088999886,1575.6188898999826,1575.6188898999826,1575.6188898999826,1575.702156799991,1575.9860201999836,,,,,,,,,,,,,,,,,,,,,,down,2.2092218000034336,None,space,0.3506342000036966,None,P117,001,2025-02-19_13h53.26.343,posner_endo_new1,2024.2.4,60.03691068718884,2025-02-19 13h53.33.805897 +0000,
cube_l.png,0.1,0.31,invalid,59,59,0,down,1.680077099998016,None,space,0.4103705000015907,None,,,,,,,,,0,59,59,59,1576.0017051999748,,,,,,,,,,,,,1575.9862076999852,1576.0017051999748,1576.0017051999748,1576.0017051999748,1577.6843289999815,,,,1577.691243499983,1577.7028366999875,1577.7028366999875,1577.7501867999963,1577.7504296999832,1577.766835699993,1577.766835699993,1577.766835699993,1577.849920299981,1578.183868299995,,,,,,,,,,,,,,,,,,,,,,down,1.680077099998016,None,space,0.4103705000015907,None,P117,001,2025-02-19_13h53.26.343,posner_endo_new1,2024.2.4,60.03691068718884,2025-02-19 13h53.33.805897 +0000,
