cue_img,cue_soa,target_y,trial,thisN,thisTrialN,thisRepN,key_control2.keys,key_control2.rt,key_control2.duration,key_resp.keys,key_resp.rt,key_resp.duration,practice.thisRepN,practice.thisTrialN,practice.thisN,practice.thisIndex,block1.thisRepN,block1.thisTrialN,block1.thisN,block1.thisIndex,block2.thisRepN,block2.thisTrialN,block2.thisN,block2.thisIndex,thisRow.t,notes,instructions.started,instructions_txt.started,key_control.started,instructions.stopped,key_control.keys,key_control.rt,key_control.duration,ready.started,ready_txt.started,ready_txt.stopped,ready.stopped,fix.started,fixation.started,key_control2.started,fixation_cross.started,fix.stopped,practice.key_control2.keys,practice.key_control2.rt,practice.key_control2.duration,cue.started,cube.started,fixation_cross_cue.started,cue.stopped,target.started,fixation_target.started,fixation_cross_target.started,key_resp.started,star.started,target.stopped,practice.key_resp.keys,practice.key_resp.rt,practice.key_resp.duration,star.stopped,fixation_target.stopped,fixation_cross_target.stopped,key_resp.stopped,block1.key_control2.keys,block1.key_control2.rt,block1.key_control2.duration,block1.key_resp.keys,block1.key_resp.rt,block1.key_resp.duration,break_2.started,text.started,key_control3.started,text.stopped,break_2.stopped,key_control3.keys,key_control3.rt,key_control3.duration,block2.key_control2.keys,block2.key_control2.rt,block2.key_control2.duration,block2.key_resp.keys,block2.key_resp.rt,block2.key_resp.duration,participant,session,date,expName,psychopyVersion,frameRate,expStart,
,,,,,,,,,,,,,,,,,,,,,,,,,,,0.007783699984429404,0.020381899987114593,0.020381899987114593,782.7720289999852,up,782.7471556999953,None,,,,,,,,,,,,,,,,,,,,,,,,,,,,,,,,,,,,,,,,,,,,,,,,,,P118,001,2025-02-20_10h48.33.681,posner_endo_new1,2024.2.4,60.016336452400154,2025-02-20 10h48.42.339149 +0000,
,,,,,,,,,,,,,,,,,,,,,,,,,,,,,,,,,,782.7720847000019,782.7881315999839,785.7883737999946,785.7685737999855,,,,,,,,,,,,,,,,,,,,,,,,,,,,,,,,,,,,,,,,,,,,,,P118,001,2025-02-20_10h48.33.681,posner_endo_new1,2024.2.4,60.016336452400154,2025-02-20 10h48.42.339149 +0000,
cube_l.png,0.1,-0.31,valid,0,0,0,up,9.675935199978994,None,space,0.304042700008722,None,0,0,0,0,,,,,,,,,785.7883737999946,,,,,,,,,,,,,785.7758170999878,785.7883737999946,785.7883737999946,785.7883737999946,795.4775017999928,up,9.675935199978994,None,795.5144260000088,795.5263221999921,795.5263221999921,795.5413754000037,795.541768199997,795.5579944000056,795.5579944000056,795.5579944000056,795.6410366999917,795.8754945999826,space,0.304042700008722,None,,,,,,,,,,,,,,,,,,,,,,,,,P118,001,2025-02-20_10h48.33.681,posner_endo_new1,2024.2.4,60.016336452400154,2025-02-20 10h48.42.339149 +0000,
cube_l.png,0.1,0.31,invalid,1,1,0,up,7.646394600014901,None,space,0.569243700010702,None,0,1,1,1,,,,,,,,,795.8908070999896,,,,,,,,,,,,,795.8758014999912,795.8908070999896,795.8908070999896,795.8908070999896,803.5510500000091,up,7.646394600014901,None,803.5591377000092,803.5696214000054,803.5696214000054,803.6164041000011,803.6167887999909,803.6328779000032,803.6328779000032,803.6328779000032,803.7161207000026,804.2169666999835,space,0.569243700010702,None,,,,,,,,,,,,,,,,,,,,,,,,,P118,001,2025-02-20_10h48.33.681,posner_endo_new1,2024.2.4,60.016336452400154,2025-02-20 10h48.42.339149 +0000,
cube_r.png,0.1,-0.31,invalid,2,2,0,up,4.943167799996445,None,space,0.3486858999822289,None,0,2,2,2,,,,,,,,,804.2322661000071,,,,,,,,,,,,,804.2172805999871,804.2322661000071,804.2322661000071,804.2322661000071,809.1785356999899,up,4.943167799996445,None,809.1873915999895,809.1973543000058,809.1973543000058,809.244486599986,809.244769699988,809.2610339999956,809.2610339999956,809.2610339999956,809.344116799999,809.6115038999997,space,0.3486858999822289,None,,,,,,,,,,,,,,,,,,,,,,,,,P118,001,2025-02-20_10h48.33.681,posner_endo_new1,2024.2.4,60.016336452400154,2025-02-20 10h48.42.339149 +0000,
cube_r.png,0.1,10,catch,3,3,0,up,4.7721764000016265,None,None,,,0,3,3,3,,,,,,,,,809.6271608000097,,,,,,,,,,,,,809.6117130999919,809.6271608000097,809.6271608000097,809.6271608000097,814.4082508999854,up,4.7721764000016265,None,814.431192899996,814.4432639000006,814.4432639000006,814.4719877000025,814.4723001999955,814.4884124000091,814.4884124000091,814.4884124000091,814.5720797000104,817.4863669000042,None,,,816.5866306000098,817.5024133999832,817.5024133999832,817.5024133999832,,,,,,,,,,,,,,,,,,,,,P118,001,2025-02-20_10h48.33.681,posner_endo_new1,2024.2.4,60.016336452400154,2025-02-20 10h48.42.339149 +0000,
cube_l.png,0.1,-0.31,valid,4,4,0,up,3.784999700001208,None,space,0.354495700012194,None,0,4,4,4,,,,,,,,,817.5024133999832,,,,,,,,,,,,,817.486594099988,817.5024133999832,817.5024133999832,817.5024133999832,821.2995736000012,up,3.784999700001208,None,821.3092459999898,821.3193743999873,821.3193743999873,821.3653514999896,821.3656704000023,821.381879499997,821.381879499997,821.381879499997,821.4650626000075,821.7491829000064,space,0.354495700012194,None,,,,,,,,,,,,,,,,,,,,,,,,,P118,001,2025-02-20_10h48.33.681,posner_endo_new1,2024.2.4,60.016336452400154,2025-02-20 10h48.42.339149 +0000,
cube_l.png,0.1,0.31,invalid,5,5,0,up,6.402778399991803,None,space,0.4274017999996431,None,0,5,5,5,,,,,,,,,821.7647117000015,,,,,,,,,,,,,821.7494219999935,821.7647117000015,821.7647117000015,821.7647117000015,828.1752431000059,up,6.402778399991803,None,828.1813547000056,828.1928558000072,828.1928558000072,828.2418318999989,828.2420600999903,828.2579841999977,828.2579841999977,828.2579841999977,828.324629699986,828.6916237999976,space,0.4274017999996431,None,,,,,,,,,,,,,,,,,,,,,,,,,P118,001,2025-02-20_10h48.33.681,posner_endo_new1,2024.2.4,60.016336452400154,2025-02-20 10h48.42.339149 +0000,
cube_r.png,0.1,-0.31,invalid,6,6,0,up,5.244289100024616,None,space,0.3635533999768086,None,0,6,6,6,,,,,,,,,828.7077901999874,,,,,,,,,,,,,828.691786099982,828.7077901999874,828.7077901999874,828.7077901999874,833.9528047000058,up,5.244289100024616,None,833.9590354000102,833.9706256999925,833.9706256999925,834.0190318000095,834.0192547999904,834.0356422000041,834.0356422000041,834.0356422000041,834.1188562999887,834.40294,space,0.3635533999768086,None,,,,,,,,,,,,,,,,,,,,,,,,,P118,001,2025-02-20_10h48.33.681,posner_endo_new1,2024.2.4,60.016336452400154,2025-02-20 10h48.42.339149 +0000,
cube_r.png,0.1,0.31,valid,7,7,0,up,5.580609299999196,None,space,0.2943823999958113,None,0,7,7,7,,,,,,,,,834.4187499000109,,,,,,,,,,,,,834.4031082000001,834.4187499000109,834.4187499000109,834.4187499000109,840.0134358000068,up,5.580609299999196,None,840.019406300009,840.0310242999985,840.0310242999985,840.079507699993,840.0797357999836,840.0959738999954,840.0959738999954,840.0959738999954,840.1622537999938,840.3964512000093,space,0.2943823999958113,None,,,,,,,,,,,,,,,,,,,,,,,,,P118,001,2025-02-20_10h48.33.681,posner_endo_new1,2024.2.4,60.016336452400154,2025-02-20 10h48.42.339149 +0000,
cube_l.png,0.1,-0.31,valid,8,8,0,up,5.18711080000503,None,space,0.2539669999969192,None,0,8,8,8,,,,,,,,,840.4124759999977,,,,,,,,,,,,,840.3966154000082,840.4124759999977,840.4124759999977,840.4124759999977,845.6078344999987,up,5.18711080000503,None,845.6138800999906,845.625607199996,845.625607199996,845.6733009000018,845.6735243999865,845.6904763999919,845.6904763999919,845.6904763999919,845.7564624999941,845.957387100003,space,0.2539669999969192,None,,,,,,,,,,,,,,,,,,,,,,,,,P118,001,2025-02-20_10h48.33.681,posner_endo_new1,2024.2.4,60.016336452400154,2025-02-20 10h48.42.339149 +0000,
cube_r.png,0.1,-0.31,invalid,9,9,0,up,5.418406700016931,None,space,0.21110960000078194,None,0,9,9,9,,,,,,,,,845.9733322999964,,,,,,,,,,,,,845.9575498999911,845.9733322999964,845.9733322999964,845.9733322999964,851.4036699999997,up,5.418406700016931,None,851.4256938000035,851.4358622999862,851.4358622999862,851.4677818999917,851.4681258999917,851.4844169999997,851.4844169999997,851.4844169999997,851.5674867999915,851.7019699999946,space,0.21110960000078194,None,,,,,,,,,,,,,,,,,,,,,,,,,P118,001,2025-02-20_10h48.33.681,posner_endo_new1,2024.2.4,60.016336452400154,2025-02-20 10h48.42.339149 +0000,
cube_r.png,0.1,0.31,valid,10,10,0,up,5.746145799988881,None,space,0.2868344000016805,None,0,10,10,10,,,,,,,,,851.7173300999857,,,,,,,,,,,,,851.7022432000085,851.7173300999857,851.7173300999857,851.7173300999857,857.4793968999875,up,5.746145799988881,None,857.4888865000103,857.4984616999864,857.4984616999864,857.5449534000072,857.5452051000029,857.5615401999967,857.5615401999967,857.5615401999967,857.644655799988,857.8620444999833,space,0.2868344000016805,None,,,,,,,,,,,,,,,,,,,,,,,,,P118,001,2025-02-20_10h48.33.681,posner_endo_new1,2024.2.4,60.016336452400154,2025-02-20 10h48.42.339149 +0000,
,,,,,,,,,,,,,,,,,,,,,,,,,,,,,,,,,,857.8621607999958,857.8777483000013,860.8800891999854,860.8585788999917,,,,,,,,,,,,,,,,,,,,,,,,,,,,,,,,,,,,,,,,,,,,,,P118,001,2025-02-20_10h48.33.681,posner_endo_new1,2024.2.4,60.016336452400154,2025-02-20 10h48.42.339149 +0000,
cube_l.png,0.1,10,catch,0,0,0,up,5.095645500026876,None,space,0.25750589999370277,None,,,,,0,0,0,0,,,,,860.8800891999854,,,,,,,,,,,,,860.8713296999922,860.8800891999854,860.8800891999854,860.8800891999854,865.986982500006,,,,865.9929938999994,866.0046134000004,866.0046134000004,866.0525748000073,866.052798299992,866.0694164999877,866.0694164999877,866.0694164999877,866.1361889999826,866.3368209000037,,,,,,,,up,5.095645500026876,None,space,0.25750589999370277,None,,,,,,,,,,,,,,,P118,001,2025-02-20_10h48.33.681,posner_endo_new1,2024.2.4,60.016336452400154,2025-02-20 10h48.42.339149 +0000,
cube_l.png,0.1,10,catch,1,1,0,up,5.422737299988512,None,None,,,,,,,0,1,1,1,,,,,866.3525346000097,,,,,,,,,,,,,866.3369917999953,866.3525346000097,866.3525346000097,866.3525346000097,871.7809756000061,,,,871.7870166999928,871.7988439000037,871.7988439000037,871.8471044999897,871.8473325000086,871.8636858999962,871.8636858999962,871.8636858999962,871.9301563999907,874.8606944000057,,,,873.9443260999979,874.8772879999888,874.8772879999888,874.8772879999888,up,5.422737299988512,None,None,,,,,,,,,,,,,,,,,P118,001,2025-02-20_10h48.33.681,posner_endo_new1,2024.2.4,60.016336452400154,2025-02-20 10h48.42.339149 +0000,
cube_l.png,0.1,0.31,invalid,2,2,0,up,3.066497799998615,None,space,0.4660182000079658,None,,,,,0,2,2,2,,,,,874.8772879999888,,,,,,,,,,,,,874.8608539999987,874.8772879999888,874.8772879999888,874.8772879999888,877.9580194999871,,,,877.9640755,877.9758051999961,877.9758051999961,878.0242321999976,878.0244556999824,878.0407010999916,878.0407010999916,878.0407010999916,878.10733910001,878.5075310000102,,,,,,,,up,3.066497799998615,None,space,0.4660182000079658,None,,,,,,,,,,,,,,,P118,001,2025-02-20_10h48.33.681,posner_endo_new1,2024.2.4,60.016336452400154,2025-02-20 10h48.42.339149 +0000,
cube_l.png,0.1,0.31,invalid,3,3,0,up,5.7483083000115585,None,space,0.32226929999887943,None,,,,,0,3,3,3,,,,,878.523375299992,,,,,,,,,,,,,878.5077171000012,878.523375299992,878.523375299992,878.523375299992,884.284851400007,,,,884.2908565000107,884.3026436000073,884.3026436000073,884.3511698000075,884.351393799996,884.3676062999875,884.3676062999875,884.3676062999875,884.4503197000013,884.7013522000052,,,,,,,,up,5.7483083000115585,None,space,0.32226929999887943,None,,,,,,,,,,,,,,,P118,001,2025-02-20_10h48.33.681,posner_endo_new1,2024.2.4,60.016336452400154,2025-02-20 10h48.42.339149 +0000,
cube_l.png,0.1,-0.31,valid,4,4,0,up,5.546283600007882,None,space,0.30793539999285713,None,,,,,0,4,4,4,,,,,884.7171423000109,,,,,,,,,,,,,884.7015301999927,884.7171423000109,884.7171423000109,884.7171423000109,890.2786879999912,,,,890.284744500008,890.296413300006,890.296413300006,890.3448939000082,890.3451193000074,890.3614784000092,890.3614784000092,890.3614784000092,890.4279620999878,890.678358300007,,,,,,,,up,5.546283600007882,None,space,0.30793539999285713,None,,,,,,,,,,,,,,,P118,001,2025-02-20_10h48.33.681,posner_endo_new1,2024.2.4,60.016336452400154,2025-02-20 10h48.42.339149 +0000,
cube_r.png,0.1,-0.31,invalid,5,5,0,up,5.3688693000003695,None,space,0.34515410001040436,None,,,,,0,5,5,5,,,,,890.6944426999835,,,,,,,,,,,,,890.6785319999908,890.6944426999835,890.6944426999835,890.6944426999835,896.0729790999903,,,,896.0789415999898,896.090592099994,896.090592099994,896.1385248999868,896.1387513999944,896.1549178999849,896.1549178999849,896.1549178999849,896.2220577999833,896.5055834999948,,,,,,,,up,5.3688693000003695,None,space,0.34515410001040436,None,,,,,,,,,,,,,,,P118,001,2025-02-20_10h48.33.681,posner_endo_new1,2024.2.4,60.016336452400154,2025-02-20 10h48.42.339149 +0000,
cube_r.png,0.1,0.31,valid,6,6,0,up,6.286458999995375,None,space,0.5689787000010256,None,,,,,0,6,6,6,,,,,896.5217906000034,,,,,,,,,,,,,896.5057538999827,896.5217906000034,896.5217906000034,896.5217906000034,902.8160024000099,,,,902.8220614999882,902.8337460999901,902.8337460999901,902.88191679999,902.8821401000023,902.8986312999914,902.8986312999914,902.8986312999914,902.9650892000063,903.4821549000044,,,,,,,,up,6.286458999995375,None,space,0.5689787000010256,None,,,,,,,,,,,,,,,P118,001,2025-02-20_10h48.33.681,posner_endo_new1,2024.2.4,60.016336452400154,2025-02-20 10h48.42.339149 +0000,
cube_r.png,0.1,-0.31,invalid,7,7,0,up,6.389528800005792,None,space,0.3822296000143979,None,,,,,0,7,7,7,,,,,903.497959100001,,,,,,,,,,,,,903.4823260999983,903.497959100001,903.497959100001,903.497959100001,909.8922678999952,,,,909.898306099989,909.9100529999996,909.9100529999996,909.958390499989,909.9586157999875,909.9746654999908,909.9746654999908,909.9746654999908,910.0413784999982,910.3585043000057,,,,,,,,up,6.389528800005792,None,space,0.3822296000143979,None,,,,,,,,,,,,,,,P118,001,2025-02-20_10h48.33.681,posner_endo_new1,2024.2.4,60.016336452400154,2025-02-20 10h48.42.339149 +0000,
cube_l.png,0.1,-0.31,valid,8,8,0,up,6.697464700002456,None,space,0.29692329998943023,None,,,,,0,8,8,8,,,,,910.3744028999936,,,,,,,,,,,,,910.358674099989,910.3744028999936,910.3744028999936,910.3744028999936,917.0845604999922,,,,917.0906090000062,917.1022410999867,917.1022410999867,917.1508518999908,917.151083100005,917.1672821000102,917.1672821000102,917.1672821000102,917.2337804999843,917.4674221999885,,,,,,,,up,6.697464700002456,None,space,0.29692329998943023,None,,,,,,,,,,,,,,,P118,001,2025-02-20_10h48.33.681,posner_endo_new1,2024.2.4,60.016336452400154,2025-02-20 10h48.42.339149 +0000,
cube_r.png,0.1,-0.31,invalid,9,9,0,up,6.171637299994472,None,space,0.28933990001678467,None,,,,,0,9,9,9,,,,,917.4838573999878,,,,,,,,,,,,,917.4675946999923,917.4838573999878,917.4838573999878,917.4838573999878,923.6613134999934,,,,923.6673963000067,923.6790983999963,923.6790983999963,923.7273121000035,923.7275365999958,923.7436690999893,923.7436690999893,923.7436690999893,923.8106974999828,924.0443096999952,,,,,,,,up,6.171637299994472,None,space,0.28933990001678467,None,,,,,,,,,,,,,,,P118,001,2025-02-20_10h48.33.681,posner_endo_new1,2024.2.4,60.016336452400154,2025-02-20 10h48.42.339149 +0000,
cube_l.png,0.1,0.31,invalid,10,10,0,up,6.62781669999822,None,space,0.3714754000247922,None,,,,,0,10,10,10,,,,,924.0603207999957,,,,,,,,,,,,,924.0444810999907,924.0603207999957,924.0603207999957,924.0603207999957,930.7043346999853,,,,930.7103902999952,930.7222376999853,930.7222376999853,930.7697401999903,930.7699717000069,930.7869232000085,930.7869232000085,930.7869232000085,930.8533220000099,931.1706647000101,,,,,,,,up,6.62781669999822,None,space,0.3714754000247922,None,,,,,,,,,,,,,,,P118,001,2025-02-20_10h48.33.681,posner_endo_new1,2024.2.4,60.016336452400154,2025-02-20 10h48.42.339149 +0000,
cube_r.png,0.1,-0.31,invalid,11,11,0,up,6.693473399995128,None,space,0.29515739998896606,None,,,,,0,11,11,11,,,,,931.1862920999993,,,,,,,,,,,,,931.170837099984,931.1862920999993,931.1862920999993,931.1862920999993,937.8966930999886,,,,937.9027480999939,937.914139600005,937.914139600005,937.9630206000002,937.9632488999923,937.9789631000021,937.9789631000021,937.9789631000021,938.0461061999958,938.2794138999889,,,,,,,,up,6.693473399995128,None,space,0.29515739998896606,None,,,,,,,,,,,,,,,P118,001,2025-02-20_10h48.33.681,posner_endo_new1,2024.2.4,60.016336452400154,2025-02-20 10h48.42.339149 +0000,
cube_r.png,0.1,0.31,valid,12,12,0,up,6.200371300015831,None,space,0.3111320000025444,None,,,,,0,12,12,12,,,,,938.2952898000076,,,,,,,,,,,,,938.2795828999951,938.2952898000076,938.2952898000076,938.2952898000076,944.5067558999872,,,,944.5128303999954,944.5244848000002,944.5244848000002,944.5728065999865,944.5730345000047,944.5892510999984,944.5892510999984,944.5892510999984,944.6554562000092,944.9061858000059,,,,,,,,up,6.200371300015831,None,space,0.3111320000025444,None,,,,,,,,,,,,,,,P118,001,2025-02-20_10h48.33.681,posner_endo_new1,2024.2.4,60.016336452400154,2025-02-20 10h48.42.339149 +0000,
cube_l.png,0.1,10,catch,13,13,0,up,5.565600400004769,None,space,0.36180630000308156,None,,,,,0,13,13,13,,,,,944.9222698000085,,,,,,,,,,,,,944.9063583000097,944.9222698000085,944.9222698000085,944.9222698000085,950.5006824999873,,,,950.5066133000073,950.518302099983,950.518302099983,950.5666905999824,950.5669135999924,950.5832348999975,950.5832348999975,950.5832348999975,950.6664040999894,950.950016399991,,,,,,,,up,5.565600400004769,None,space,0.36180630000308156,None,,,,,,,,,,,,,,,P118,001,2025-02-20_10h48.33.681,posner_endo_new1,2024.2.4,60.016336452400154,2025-02-20 10h48.42.339149 +0000,
cube_r.png,0.1,-0.31,invalid,14,14,0,up,6.49824760001502,None,space,0.3697783999959938,None,,,,,0,14,14,14,,,,,950.9661010999989,,,,,,,,,,,,,950.9501885999925,950.9661010999989,950.9661010999989,950.9661010999989,957.476940099994,,,,957.482981499983,957.4946664999879,957.4946664999879,957.5424223000009,957.5426457999856,957.5595341000007,957.5595341000007,957.5595341000007,957.6260835999856,957.9428811999969,,,,,,,,up,6.49824760001502,None,space,0.3697783999959938,None,,,,,,,,,,,,,,,P118,001,2025-02-20_10h48.33.681,posner_endo_new1,2024.2.4,60.016336452400154,2025-02-20 10h48.42.339149 +0000,
cube_l.png,0.1,-0.31,valid,15,15,0,up,6.568972700013546,None,space,0.3517351000045892,None,,,,,0,15,15,15,,,,,957.959008899983,,,,,,,,,,,,,957.9430534999992,957.959008899983,957.959008899983,957.959008899983,964.5363408999983,,,,964.5425354999898,964.5541950000043,964.5541950000043,964.6020729999873,964.6022965000011,964.6188617000007,964.6188617000007,964.6188617000007,964.6852894999902,964.9859647999983,,,,,,,,up,6.568972700013546,None,space,0.3517351000045892,None,,,,,,,,,,,,,,,P118,001,2025-02-20_10h48.33.681,posner_endo_new1,2024.2.4,60.016336452400154,2025-02-20 10h48.42.339149 +0000,
cube_r.png,0.1,10,catch,16,16,0,up,5.022973600018304,None,None,,,,,,,0,16,16,16,,,,,965.0017356000026,,,,,,,,,,,,,964.9861346000107,965.0017356000026,965.0017356000026,965.0017356000026,970.0308436999912,,,,970.0369198999833,970.0486455000064,970.0486455000064,970.0966241999995,970.0968545000069,970.1129720000026,970.1129720000026,970.1129720000026,970.1965754999837,973.1101579999959,,,,972.2110648000089,973.1270083999843,973.1270083999843,973.1270083999843,up,5.022973600018304,None,None,,,,,,,,,,,,,,,,,P118,001,2025-02-20_10h48.33.681,posner_endo_new1,2024.2.4,60.016336452400154,2025-02-20 10h48.42.339149 +0000,
cube_r.png,0.1,10,catch,17,17,0,up,5.3849889999837615,None,None,,,,,,,0,17,17,17,,,,,973.1270083999843,,,,,,,,,,,,,973.1103198000055,973.1270083999843,973.1270083999843,973.1270083999843,978.5220814000058,,,,978.5281289999839,978.5398903999885,978.5398903999885,978.588260199991,978.5884879000077,978.6042306000018,978.6042306000018,978.6042306000018,978.6711653000093,981.6022173000092,,,,980.6859036000096,981.6182319000072,981.6182319000072,981.6182319000072,up,5.3849889999837615,None,None,,,,,,,,,,,,,,,,,P118,001,2025-02-20_10h48.33.681,posner_endo_new1,2024.2.4,60.016336452400154,2025-02-20 10h48.42.339149 +0000,
cube_l.png,0.1,0.31,invalid,18,18,0,up,3.8133280999900308,None,space,0.3913695999945048,None,,,,,0,18,18,18,,,,,981.6182319000072,,,,,,,,,,,,,981.6023935999838,981.6182319000072,981.6182319000072,981.6182319000072,985.448516000004,,,,985.4545607999898,985.4661008999974,985.4661008999974,985.5142654000083,985.5144868000061,985.5309474999958,985.5309474999958,985.5309474999958,985.597259800008,985.9311233999906,,,,,,,,up,3.8133280999900308,None,space,0.3913695999945048,None,,,,,,,,,,,,,,,P118,001,2025-02-20_10h48.33.681,posner_endo_new1,2024.2.4,60.016336452400154,2025-02-20 10h48.42.339149 +0000,
cube_l.png,0.1,10,catch,19,19,0,up,6.165420300007099,None,None,,,,,,,0,19,19,19,,,,,985.9471090000006,,,,,,,,,,,,,985.9312982999836,985.9471090000006,985.9471090000006,985.9471090000006,992.1248932000017,,,,992.1309082999942,992.1425805999897,992.1425805999897,992.1903033999843,992.1905269999988,992.2068800999841,992.2068800999841,992.2068800999841,992.2904569999955,995.2046952999954,,,,994.3048937999993,995.2209742999985,995.2209742999985,995.2209742999985,up,6.165420300007099,None,None,,,,,,,,,,,,,,,,,P118,001,2025-02-20_10h48.33.681,posner_endo_new1,2024.2.4,60.016336452400154,2025-02-20 10h48.42.339149 +0000,
cube_l.png,0.1,0.31,invalid,20,20,0,up,3.4426594999968074,None,space,0.3684808999823872,None,,,,,0,20,20,20,,,,,995.2209742999985,,,,,,,,,,,,,995.2048559999967,995.2209742999985,995.2209742999985,995.2209742999985,998.6681914000073,,,,998.6741995000048,998.6857126000104,998.6857126000104,998.7343046999886,998.7345293999824,998.7507828999951,998.7507828999951,998.7507828999951,998.8171722999832,999.1342939999886,,,,,,,,up,3.4426594999968074,None,space,0.3684808999823872,None,,,,,,,,,,,,,,,P118,001,2025-02-20_10h48.33.681,posner_endo_new1,2024.2.4,60.016336452400154,2025-02-20 10h48.42.339149 +0000,
cube_l.png,0.1,-0.31,valid,21,21,0,up,6.001539799995953,None,space,0.4401734000130091,None,,,,,0,21,21,21,,,,,999.1502816999855,,,,,,,,,,,,,999.1344693999854,999.1502816999855,999.1502816999855,999.1502816999855,1005.1615578999917,,,,1005.1675920999842,1005.1791611000081,1005.1791611000081,1005.2273588000098,1005.2275913000049,1005.2435117999848,1005.2435117999848,1005.2435117999848,1005.3106782000104,1005.6942830999906,,,,,,,,up,6.001539799995953,None,space,0.4401734000130091,None,,,,,,,,,,,,,,,P118,001,2025-02-20_10h48.33.681,posner_endo_new1,2024.2.4,60.016336452400154,2025-02-20 10h48.42.339149 +0000,
cube_r.png,0.1,0.31,valid,22,22,0,up,6.305581499997061,None,space,0.3422738000226673,None,,,,,0,22,22,22,,,,,1005.7101104999892,,,,,,,,,,,,,1005.6944622999872,1005.7101104999892,1005.7101104999892,1005.7101104999892,1012.0213663000031,,,,1012.027331499994,1012.0389289000013,1012.0389289000013,1012.087019700004,1012.0872442999971,1012.103761300008,1012.103761300008,1012.103761300008,1012.1869045000058,1012.4541603999969,,,,,,,,up,6.305581499997061,None,space,0.3422738000226673,None,,,,,,,,,,,,,,,P118,001,2025-02-20_10h48.33.681,posner_endo_new1,2024.2.4,60.016336452400154,2025-02-20 10h48.42.339149 +0000,
cube_r.png,0.1,-0.31,invalid,23,23,0,up,6.554654600011418,None,space,0.3736007999978028,None,,,,,0,23,23,23,,,,,1012.4698786000081,,,,,,,,,,,,,1012.4543338000076,1012.4698786000081,1012.4698786000081,1012.4698786000081,1019.0306504000037,,,,1019.03673230001,1019.0485148000007,1019.0485148000007,1019.0961812000023,1019.0964059999969,1019.1130757000064,1019.1130757000064,1019.1130757000064,1019.1963829000015,1019.4969790999894,,,,,,,,up,6.554654600011418,None,space,0.3736007999978028,None,,,,,,,,,,,,,,,P118,001,2025-02-20_10h48.33.681,posner_endo_new1,2024.2.4,60.016336452400154,2025-02-20 10h48.42.339149 +0000,
cube_r.png,0.1,0.31,valid,24,24,0,up,6.167312699981267,None,space,0.3116669000010006,None,,,,,0,24,24,24,,,,,1019.5127186999889,,,,,,,,,,,,,1019.4971502999833,1019.5127186999889,1019.5127186999889,1019.5127186999889,1025.6905752999883,,,,1025.6966014000063,1025.708327500004,1025.708327500004,1025.7562303000013,1025.7564543999906,1025.77304130001,1025.77304130001,1025.77304130001,1025.8561178999953,1026.0902476999909,,,,,,,,up,6.167312699981267,None,space,0.3116669000010006,None,,,,,,,,,,,,,,,P118,001,2025-02-20_10h48.33.681,posner_endo_new1,2024.2.4,60.016336452400154,2025-02-20 10h48.42.339149 +0000,
cube_r.png,0.1,-0.31,invalid,25,25,0,up,6.006228300015209,None,space,0.36806649999925867,None,,,,,0,25,25,25,,,,,1026.1060312000045,,,,,,,,,,,,,1026.0904252000037,1026.1060312000045,1026.1060312000045,1026.1060312000045,1032.117524900008,,,,1032.1236258999852,1032.1353959999979,1032.1353959999979,1032.183040200005,1032.183263599989,1032.1998021999898,1032.1998021999898,1032.1998021999898,1032.2831639999931,1032.5834908999968,,,,,,,,up,6.006228300015209,None,space,0.36806649999925867,None,,,,,,,,,,,,,,,P118,001,2025-02-20_10h48.33.681,posner_endo_new1,2024.2.4,60.016336452400154,2025-02-20 10h48.42.339149 +0000,
cube_l.png,0.1,-0.31,valid,26,26,0,up,7.216504999989411,None,space,0.28470959997503087,None,,,,,0,26,26,26,,,,,1032.5992147999932,,,,,,,,,,,,,1032.5836629999976,1032.5992147999932,1032.5992147999932,1032.5992147999932,1039.8258603999857,,,,1039.831912499998,1039.8435481000051,1039.8435481000051,1039.8918913000089,1039.8921109999937,1039.908550799999,1039.908550799999,1039.908550799999,1039.9752505999932,1040.2091053999902,,,,,,,,up,7.216504999989411,None,space,0.28470959997503087,None,,,,,,,,,,,,,,,P118,001,2025-02-20_10h48.33.681,posner_endo_new1,2024.2.4,60.016336452400154,2025-02-20 10h48.42.339149 +0000,
cube_r.png,0.1,0.31,valid,27,27,0,up,6.711092800018378,None,space,0.30770390000543557,None,,,,,0,27,27,27,,,,,1040.2248343999963,,,,,,,,,,,,,1040.2092783999979,1040.2248343999963,1040.2248343999963,1040.2248343999963,1046.95184970001,,,,1046.9579174999963,1046.969505199988,1046.969505199988,1047.0175623999967,1047.0177856000082,1047.0342336999893,1047.0342336999893,1047.0342336999893,1047.1012297999987,1047.3519412000023,,,,,,,,up,6.711092800018378,None,space,0.30770390000543557,None,,,,,,,,,,,,,,,P118,001,2025-02-20_10h48.33.681,posner_endo_new1,2024.2.4,60.016336452400154,2025-02-20 10h48.42.339149 +0000,
cube_r.png,0.1,10,catch,28,28,0,up,6.008310100005474,None,space,0.4218014999933075,None,,,,,0,28,28,28,,,,,1047.3677049000107,,,,,,,,,,,,,1047.352117900009,1047.3677049000107,1047.3677049000107,1047.3677049000107,1053.3788488999999,,,,1053.3848007000051,1053.3965043000062,1053.3965043000062,1053.4449101999926,1053.4451510999934,1053.4613746999821,1053.4613746999821,1053.4613746999821,1053.5281685999944,1053.8948402999958,,,,,,,,up,6.008310100005474,None,space,0.4218014999933075,None,,,,,,,,,,,,,,,P118,001,2025-02-20_10h48.33.681,posner_endo_new1,2024.2.4,60.016336452400154,2025-02-20 10h48.42.339149 +0000,
cube_r.png,0.1,0.31,valid,29,29,0,up,5.609308699989924,None,space,0.327703000017209,None,,,,,0,29,29,29,,,,,1053.9109843999904,,,,,,,,,,,,,1053.8950123999966,1053.9109843999904,1053.9109843999904,1053.9109843999904,1059.5221298999968,,,,1059.528138499998,1059.539683799987,1059.539683799987,1059.5886253000062,1059.5888494999963,1059.605137000006,1059.605137000006,1059.605137000006,1059.6715059999842,1059.9387960000022,,,,,,,,up,5.609308699989924,None,space,0.327703000017209,None,,,,,,,,,,,,,,,P118,001,2025-02-20_10h48.33.681,posner_endo_new1,2024.2.4,60.016336452400154,2025-02-20 10h48.42.339149 +0000,
cube_r.png,0.1,0.31,valid,30,30,0,up,5.901583899976686,None,space,0.3418161000008695,None,,,,,0,30,30,30,,,,,1059.954785799986,,,,,,,,,,,,,1059.9389726000081,1059.954785799986,1059.954785799986,1059.954785799986,1065.8660913000058,,,,1065.8720284999872,1065.8835744000098,1065.8835744000098,1065.9318513000035,1065.9320730000036,1065.9486670999904,1065.9486670999904,1065.9486670999904,1066.0154108999996,1066.2989857000066,,,,,,,,up,5.901583899976686,None,space,0.3418161000008695,None,,,,,,,,,,,,,,,P118,001,2025-02-20_10h48.33.681,posner_endo_new1,2024.2.4,60.016336452400154,2025-02-20 10h48.42.339149 +0000,
cube_l.png,0.1,-0.31,valid,31,31,0,up,6.245139599981485,None,space,0.33009999999194406,None,,,,,0,31,31,31,,,,,1066.3149256999895,,,,,,,,,,,,,1066.2991593999905,1066.3149256999895,1066.3149256999895,1066.3149256999895,1072.5775055999984,,,,1072.6004167000065,1072.6120162000007,1072.6120162000007,1072.6415684999956,1072.641956300009,1072.6580440000107,1072.6580440000107,1072.6580440000107,1072.7412832999835,1072.9925676999846,,,,,,,,up,6.245139599981485,None,space,0.33009999999194406,None,,,,,,,,,,,,,,,P118,001,2025-02-20_10h48.33.681,posner_endo_new1,2024.2.4,60.016336452400154,2025-02-20 10h48.42.339149 +0000,
cube_r.png,0.1,0.31,valid,32,32,0,up,5.560433899983764,None,space,0.3169241999858059,None,,,,,0,32,32,32,,,,,1073.0076923999877,,,,,,,,,,,,,1072.9928946,1073.0076923999877,1073.0076923999877,1073.0076923999877,1078.5701505999896,,,,1078.5827833999938,1078.5928500999871,1078.5928500999871,1078.6354506000062,1078.6358372000104,1078.6519319000072,1078.6519319000072,1078.6519319000072,1078.7351748000074,1078.9861660999886,,,,,,,,up,5.560433899983764,None,space,0.3169241999858059,None,,,,,,,,,,,,,,,P118,001,2025-02-20_10h48.33.681,posner_endo_new1,2024.2.4,60.016336452400154,2025-02-20 10h48.42.339149 +0000,
cube_r.png,0.1,-0.31,invalid,33,33,0,up,6.2230744999833405,None,space,0.38766549999127164,None,,,,,0,33,33,33,,,,,1079.0015523000038,,,,,,,,,,,,,1078.9864952999924,1079.0015523000038,1079.0015523000038,1079.0015523000038,1085.230069799989,,,,1085.242778099986,1085.252818399982,1085.252818399982,1085.2953070999938,1085.2956995999848,1085.311768399988,1085.311768399988,1085.311768399988,1085.3950351999956,1085.7127717999974,,,,,,,,up,6.2230744999833405,None,space,0.38766549999127164,None,,,,,,,,,,,,,,,P118,001,2025-02-20_10h48.33.681,posner_endo_new1,2024.2.4,60.016336452400154,2025-02-20 10h48.42.339149 +0000,
cube_r.png,0.1,10,catch,34,34,0,up,11.392251199984457,None,None,,,,,,,0,34,34,34,,,,,1085.7280268000031,,,,,,,,,,,,,1085.7131058000086,1085.7280268000031,1085.7280268000031,1085.7280268000031,1097.1343407999957,,,,1097.142859399988,1097.1530823000066,1097.1530823000066,1097.2001816999982,1097.2004603999958,1097.2167657999962,1097.2167657999962,1097.2167657999962,1097.3000016000005,1100.2141839000105,,,,1099.3145807999827,1100.23027130001,1100.23027130001,1100.23027130001,up,11.392251199984457,None,None,,,,,,,,,,,,,,,,,P118,001,2025-02-20_10h48.33.681,posner_endo_new1,2024.2.4,60.016336452400154,2025-02-20 10h48.42.339149 +0000,
cube_r.png,0.1,0.31,valid,35,35,0,up,3.138397000002442,None,space,0.3843345000059344,None,,,,,0,35,35,35,,,,,1100.23027130001,,,,,,,,,,,,,1100.2143444000103,1100.23027130001,1100.23027130001,1100.23027130001,1103.37950119999,,,,1103.402831799991,1103.4200861999998,1103.4200861999998,1103.4435875999916,1103.4439572999836,1103.4664372999978,1103.4664372999978,1103.4664372999978,1103.5286588000017,1103.8609383000003,,,,,,,,up,3.138397000002442,None,space,0.3843345000059344,None,,,,,,,,,,,,,,,P118,001,2025-02-20_10h48.33.681,posner_endo_new1,2024.2.4,60.016336452400154,2025-02-20 10h48.42.339149 +0000,
cube_r.png,0.1,-0.31,invalid,36,36,0,up,6.10816750000231,None,space,0.35866930001066066,None,,,,,0,36,36,36,,,,,1103.8765158999886,,,,,,,,,,,,,1103.8612242999952,1103.8765158999886,1103.8765158999886,1103.8765158999886,1109.9880242999934,,,,1109.9977788999968,1110.0074647000001,1110.0074647000001,1110.053597399994,1110.0538349999988,1110.0702173000027,1110.0702173000027,1110.0702173000027,1110.1535995999875,1110.4373572999903,,,,,,,,up,6.10816750000231,None,space,0.35866930001066066,None,,,,,,,,,,,,,,,P118,001,2025-02-20_10h48.33.681,posner_endo_new1,2024.2.4,60.016336452400154,2025-02-20 10h48.42.339149 +0000,
cube_l.png,0.1,0.31,invalid,37,37,0,up,6.795681800023885,None,space,0.40268769999966025,None,,,,,0,37,37,37,,,,,1110.4530113000073,,,,,,,,,,,,,1110.4375491999963,1110.4530113000073,1110.4530113000073,1110.4530113000073,1117.2635881000024,,,,1117.2705417000107,1117.2824620000029,1117.2824620000029,1117.3298427999835,1117.3300798999844,1117.3460546999995,1117.3460546999995,1117.3460546999995,1117.412748600007,1117.7632222000102,,,,,,,,up,6.795681800023885,None,space,0.40268769999966025,None,,,,,,,,,,,,,,,P118,001,2025-02-20_10h48.33.681,posner_endo_new1,2024.2.4,60.016336452400154,2025-02-20 10h48.42.339149 +0000,
cube_l.png,0.1,0.31,invalid,38,38,0,up,5.492684700002428,None,space,0.3551951000117697,None,,,,,0,38,38,38,,,,,1117.7791474999976,,,,,,,,,,,,,1117.763411699998,1117.7791474999976,1117.7791474999976,1117.7791474999976,1123.2742862000014,,,,1123.2811992999923,1123.292969800008,1123.292969800008,1123.3402465999825,1123.3404867000063,1123.3568019999948,1123.3568019999948,1123.3568019999948,1123.4229161999829,1123.7237523999938,,,,,,,,up,5.492684700002428,None,space,0.3551951000117697,None,,,,,,,,,,,,,,,P118,001,2025-02-20_10h48.33.681,posner_endo_new1,2024.2.4,60.016336452400154,2025-02-20 10h48.42.339149 +0000,
cube_r.png,0.1,0.31,valid,39,39,0,up,5.1889678000006825,None,space,0.35690499999327585,None,,,,,0,39,39,39,,,,,1123.7395989999932,,,,,,,,,,,,,1123.7239373000048,1123.7395989999932,1123.7395989999932,1123.7395989999932,1128.9346783999936,,,,1128.9416213000077,1128.953422199993,1128.953422199993,1129.0011354000017,1129.0013838000013,1129.017491400009,1129.017491400009,1129.017491400009,1129.083835700003,1129.3844692999846,,,,,,,,up,5.1889678000006825,None,space,0.35690499999327585,None,,,,,,,,,,,,,,,P118,001,2025-02-20_10h48.33.681,posner_endo_new1,2024.2.4,60.016336452400154,2025-02-20 10h48.42.339149 +0000,
cube_l.png,0.1,0.31,invalid,40,40,0,up,6.712296200013952,None,space,0.32865000001038425,None,,,,,0,40,40,40,,,,,1129.4001672999875,,,,,,,,,,,,,1129.384659000003,1129.4001672999875,1129.4001672999875,1129.4001672999875,1136.1277375000063,,,,1136.1346841999912,1136.1463934000058,1136.1463934000058,1136.1935168000055,1136.1937553999887,1136.210265600006,1136.210265600006,1136.210265600006,1136.2769056999823,1136.5441658000054,,,,,,,,up,6.712296200013952,None,space,0.32865000001038425,None,,,,,,,,,,,,,,,P118,001,2025-02-20_10h48.33.681,posner_endo_new1,2024.2.4,60.016336452400154,2025-02-20 10h48.42.339149 +0000,
cube_l.png,0.1,10,catch,41,41,0,up,6.120368400006555,None,space,0.39691149999271147,None,,,,,0,41,41,41,,,,,1136.5598664999998,,,,,,,,,,,,,1136.544348800002,1136.5598664999998,1136.5598664999998,1136.5598664999998,1142.687696899986,,,,1142.6945787000004,1142.7064576999983,1142.7064576999983,1142.7536236000014,1142.7538586999872,1142.7701175999828,1142.7701175999828,1142.7701175999828,1142.8535169000097,1143.170810999989,,,,,,,,up,6.120368400006555,None,space,0.39691149999271147,None,,,,,,,,,,,,,,,P118,001,2025-02-20_10h48.33.681,posner_endo_new1,2024.2.4,60.016336452400154,2025-02-20 10h48.42.339149 +0000,
cube_l.png,0.1,-0.31,valid,42,42,0,up,5.0775767999875825,None,space,0.5008228999795392,None,,,,,0,42,42,42,,,,,1143.18655079999,,,,,,,,,,,,,1143.1709962000023,1143.18655079999,1143.18655079999,1143.18655079999,1148.2653831999924,,,,1148.2723057999974,1148.2840877999843,1148.2840877999843,1148.3312850999937,1148.3315243999823,1148.3478537999908,1148.3478537999908,1148.3478537999908,1148.4143141999957,1148.8646138999902,,,,,,,,up,5.0775767999875825,None,space,0.5008228999795392,None,,,,,,,,,,,,,,,P118,001,2025-02-20_10h48.33.681,posner_endo_new1,2024.2.4,60.016336452400154,2025-02-20 10h48.42.339149 +0000,
cube_l.png,0.1,10,catch,43,43,0,up,6.319290999992518,None,None,,,,,,,0,43,43,43,,,,,1148.8806608000014,,,,,,,,,,,,,1148.8648071000061,1148.8806608000014,1148.8806608000014,1148.8806608000014,1155.2082194999966,,,,1155.2151094999863,1155.2268635999935,1155.2268635999935,1155.2739554999862,1155.2741891999904,1155.2906737999874,1155.2906737999874,1155.2906737999874,1155.3739901999943,1158.288206600002,,,,1157.3885818999843,1158.3043391999963,1158.3043391999963,1158.3043391999963,up,6.319290999992518,None,None,,,,,,,,,,,,,,,,,P118,001,2025-02-20_10h48.33.681,posner_endo_new1,2024.2.4,60.016336452400154,2025-02-20 10h48.42.339149 +0000,
cube_l.png,0.1,0.31,invalid,44,44,0,up,2.9685449000098743,None,space,0.39587249999749474,None,,,,,0,44,44,44,,,,,1158.3043391999963,,,,,,,,,,,,,1158.2883792000066,1158.3043391999963,1158.3043391999963,1158.3043391999963,1161.2853073999868,,,,1161.2922366999846,1161.30403259999,1161.30403259999,1161.3508273999905,1161.351052299986,1161.3673190999834,1161.3673190999834,1161.3673190999834,1161.4510319999827,1161.7683255999873,,,,,,,,up,2.9685449000098743,None,space,0.39587249999749474,None,,,,,,,,,,,,,,,P118,001,2025-02-20_10h48.33.681,posner_endo_new1,2024.2.4,60.016336452400154,2025-02-20 10h48.42.339149 +0000,
cube_l.png,0.1,0.31,invalid,45,45,0,up,5.46384469998884,None,space,0.35509779999847524,None,,,,,0,45,45,45,,,,,1161.7842415999912,,,,,,,,,,,,,1161.7684945999936,1161.7842415999912,1161.7842415999912,1161.7842415999912,1167.2621236999985,,,,1167.2682591000048,1167.2798466999957,1167.2798466999957,1167.328892999998,1167.3291194000049,1167.3452672999993,1167.3452672999993,1167.3452672999993,1167.411752999993,1167.7117934999987,,,,,,,,up,5.46384469998884,None,space,0.35509779999847524,None,,,,,,,,,,,,,,,P118,001,2025-02-20_10h48.33.681,posner_endo_new1,2024.2.4,60.016336452400154,2025-02-20 10h48.42.339149 +0000,
cube_r.png,0.1,0.31,valid,46,46,0,up,5.24062260001665,None,space,0.3504460000258405,None,,,,,0,46,46,46,,,,,1167.7275536000088,,,,,,,,,,,,,1167.7119660000026,1167.7275536000088,1167.7275536000088,1167.7275536000088,1172.9759206000017,,,,1172.9975888000045,1173.008081500011,1173.008081500011,1173.0391319000046,1173.0395665999968,1173.0555703999999,1173.0555703999999,1173.0555703999999,1173.1388139000046,1173.4230398999935,,,,,,,,up,5.24062260001665,None,space,0.3504460000258405,None,,,,,,,,,,,,,,,P118,001,2025-02-20_10h48.33.681,posner_endo_new1,2024.2.4,60.016336452400154,2025-02-20 10h48.42.339149 +0000,
cube_l.png,0.1,-0.31,valid,47,47,0,up,6.305029600014677,None,space,0.358278599975165,None,,,,,0,47,47,47,,,,,1173.4387919,,,,,,,,,,,,,1173.4232899000053,1173.4387919,1173.4387919,1173.4387919,1179.7501374999993,,,,1179.7598318000091,1179.7699187999824,1179.7699187999824,1179.815787200001,1179.8160950999882,1179.8324816999957,1179.8324816999957,1179.8324816999957,1179.9156030000013,1180.199596499995,,,,,,,,up,6.305029600014677,None,space,0.358278599975165,None,,,,,,,,,,,,,,,P118,001,2025-02-20_10h48.33.681,posner_endo_new1,2024.2.4,60.016336452400154,2025-02-20 10h48.42.339149 +0000,
cube_r.png,0.1,-0.31,invalid,48,48,0,up,6.128907300007995,None,space,0.43107650001184084,None,,,,,0,48,48,48,,,,,1180.2153061999998,,,,,,,,,,,,,1180.1998523999937,1180.2153061999998,1180.2153061999998,1180.2153061999998,1186.359997499996,,,,1186.369635799987,1186.3796656999912,1186.3796656999912,1186.4254201999865,1186.4257253999822,1186.4421904000046,1186.4421904000046,1186.4421904000046,1186.5253313999856,1186.876057699992,,,,,,,,up,6.128907300007995,None,space,0.43107650001184084,None,,,,,,,,,,,,,,,P118,001,2025-02-20_10h48.33.681,posner_endo_new1,2024.2.4,60.016336452400154,2025-02-20 10h48.42.339149 +0000,
cube_r.png,0.1,10,catch,49,49,0,up,5.900559200003045,None,None,,,,,,,0,49,49,49,,,,,1186.8917418000055,,,,,,,,,,,,,1186.8763155000051,1186.8917418000055,1186.8917418000055,1186.8917418000055,1192.8033564999932,,,,1192.813034699997,1192.823118100001,1192.823118100001,1192.8691174999985,1192.8694266999955,1192.8855888999824,1192.8855888999824,1192.8855888999824,1192.9688852000108,1195.8831292999967,,,,1194.9835501000052,1195.8991487000021,1195.8991487000021,1195.8991487000021,up,5.900559200003045,None,None,,,,,,,,,,,,,,,,,P118,001,2025-02-20_10h48.33.681,posner_endo_new1,2024.2.4,60.016336452400154,2025-02-20 10h48.42.339149 +0000,
cube_l.png,0.1,-0.31,valid,50,50,0,up,3.2449286000046413,None,space,0.37930870000855066,None,,,,,0,50,50,50,,,,,1195.8991487000021,,,,,,,,,,,,,1195.883359600004,1195.8991487000021,1195.8991487000021,1195.8991487000021,1199.1469692999963,,,,1199.156410399999,1199.1659148999897,1199.1659148999897,1199.2123950000096,1199.212621899991,1199.2291311000008,1199.2291311000008,1199.2291311000008,1199.3124479000107,1199.6124512999959,,,,,,,,up,3.2449286000046413,None,space,0.37930870000855066,None,,,,,,,,,,,,,,,P118,001,2025-02-20_10h48.33.681,posner_endo_new1,2024.2.4,60.016336452400154,2025-02-20 10h48.42.339149 +0000,
cube_l.png,0.1,-0.31,valid,51,51,0,up,5.651643299992429,None,space,0.4403005999920424,None,,,,,0,51,51,51,,,,,1199.6286032999924,,,,,,,,,,,,,1199.6126202000014,1199.6286032999924,1199.6286032999924,1199.6286032999924,1205.2904533999972,,,,1205.2968378000078,1205.3085288000002,1205.3085288000002,1205.355999099993,1205.3562220000022,1205.3727545999864,1205.3727545999864,1205.3727545999864,1205.4393788999878,1205.8229558999883,,,,,,,,up,5.651643299992429,None,space,0.4403005999920424,None,,,,,,,,,,,,,,,P118,001,2025-02-20_10h48.33.681,posner_endo_new1,2024.2.4,60.016336452400154,2025-02-20 10h48.42.339149 +0000,
cube_r.png,0.1,-0.31,invalid,52,52,0,up,6.641521200013813,None,space,0.382503499975428,None,,,,,0,52,52,52,,,,,1205.839133100002,,,,,,,,,,,,,1205.8231313999859,1205.839133100002,1205.839133100002,1205.839133100002,1212.4829911999987,,,,1212.4890524999937,1212.5005371999869,1212.5005371999869,1212.5489841999952,1212.5492089999898,1212.5656904999923,1212.5656904999923,1212.5656904999923,1212.632298499986,1212.9494042999868,,,,,,,,up,6.641521200013813,None,space,0.382503499975428,None,,,,,,,,,,,,,,,P118,001,2025-02-20_10h48.33.681,posner_endo_new1,2024.2.4,60.016336452400154,2025-02-20 10h48.42.339149 +0000,
cube_l.png,0.1,-0.31,valid,53,53,0,up,5.507783900015056,None,space,0.5343252000166103,None,,,,,0,53,53,53,,,,,1212.965230300004,,,,,,,,,,,,,1212.9495729999908,1212.965230300004,1212.965230300004,1212.965230300004,1218.478234899987,,,,1218.4968405999825,1218.5083772999933,1218.5083772999933,1218.5429276000068,1218.5432740999968,1218.559217300004,1218.559217300004,1218.559217300004,1218.6425608999853,1219.109930799983,,,,,,,,up,5.507783900015056,None,space,0.5343252000166103,None,,,,,,,,,,,,,,,P118,001,2025-02-20_10h48.33.681,posner_endo_new1,2024.2.4,60.016336452400154,2025-02-20 10h48.42.339149 +0000,
cube_r.png,0.1,10,catch,54,54,0,up,12.843110599991633,None,None,,,,,,,0,54,54,54,,,,,1219.125336600002,,,,,,,,,,,,,1219.110215099994,1219.125336600002,1219.125336600002,1219.125336600002,1231.9800856999937,,,,1231.9917738999939,1232.0019672999915,1232.0019672999915,1232.0456684000092,1232.046018299996,1232.062155599997,1232.062155599997,1232.062155599997,1232.145390699996,1235.059889600001,,,,1234.1599449999921,1235.0757224999834,1235.0757224999834,1235.0757224999834,up,12.843110599991633,None,None,,,,,,,,,,,,,,,,,P118,001,2025-02-20_10h48.33.681,posner_endo_new1,2024.2.4,60.016336452400154,2025-02-20 10h48.42.339149 +0000,
cube_l.png,0.1,0.31,invalid,55,55,0,up,5.052386199997272,None,space,0.4461935999861453,None,,,,,0,55,55,55,,,,,1235.0757224999834,,,,,,,,,,,,,1235.0601654000056,1235.0757224999834,1235.0757224999834,1235.0757224999834,1240.1384806999995,,,,1240.1499945999822,1240.1601990000054,1240.1601990000054,1240.2041401999886,1240.2044872999832,1240.2206475999847,1240.2206475999847,1240.2206475999847,1240.303744200006,1240.6712804999843,,,,,,,,up,5.052386199997272,None,space,0.4461935999861453,None,,,,,,,,,,,,,,,P118,001,2025-02-20_10h48.33.681,posner_endo_new1,2024.2.4,60.016336452400154,2025-02-20 10h48.42.339149 +0000,
cube_l.png,0.1,-0.31,valid,56,56,0,up,5.562069900013739,None,space,0.4008265000011306,None,,,,,0,56,56,56,,,,,1240.6866830000072,,,,,,,,,,,,,1240.6715664000076,1240.6866830000072,1240.6866830000072,1240.6866830000072,1246.2655291999981,,,,1246.2770305000013,1246.2867627000087,1246.2867627000087,1246.3315199000062,1246.331881399994,1246.347768799984,1246.347768799984,1246.347768799984,1246.4307970000082,1246.7650708,,,,,,,,up,5.562069900013739,None,space,0.4008265000011306,None,,,,,,,,,,,,,,,P118,001,2025-02-20_10h48.33.681,posner_endo_new1,2024.2.4,60.016336452400154,2025-02-20 10h48.42.339149 +0000,
cube_r.png,0.1,0.31,valid,57,57,0,up,4.611540099984268,None,space,0.5318750999867916,None,,,,,0,57,57,57,,,,,1246.780486500007,,,,,,,,,,,,,1246.7653545000067,1246.780486500007,1246.780486500007,1246.780486500007,1251.3937565000087,,,,1251.4052731999836,1251.415398299985,1251.415398299985,1251.4591674999974,1251.459515399998,1251.4757617999858,1251.4757617999858,1251.4757617999858,1251.5589436999871,1252.0096993999905,,,,,,,,up,4.611540099984268,None,space,0.5318750999867916,None,,,,,,,,,,,,,,,P118,001,2025-02-20_10h48.33.681,posner_endo_new1,2024.2.4,60.016336452400154,2025-02-20 10h48.42.339149 +0000,
cube_r.png,0.1,-0.31,invalid,58,58,0,up,13.5431764999812,None,space,0.4037624000047799,None,,,,,0,58,58,58,,,,,1252.0251280000084,,,,,,,,,,,,,1252.0099907999975,1252.0251280000084,1252.0251280000084,1252.0251280000084,1265.5790954999975,,,,1265.590716799983,1265.6008691999887,1265.6008691999887,1265.6447097999917,1265.6450545999978,1265.6612692000053,1265.6612692000053,1265.6612692000053,1265.7443226999894,1266.0785859999887,,,,,,,,up,13.5431764999812,None,space,0.4037624000047799,None,,,,,,,,,,,,,,,P118,001,2025-02-20_10h48.33.681,posner_endo_new1,2024.2.4,60.016336452400154,2025-02-20 10h48.42.339149 +0000,
cube_l.png,0.1,0.31,invalid,59,59,0,up,6.3623244000191335,None,space,0.35411059999023564,None,,,,,0,59,59,59,,,,,1266.0940685000096,,,,,,,,,,,,,1266.07886899999,1266.0940685000096,1266.0940685000096,1266.0940685000096,1272.4720375000034,,,,1272.4805351999821,1272.4906072999875,1272.4906072999875,1272.5374825999897,1272.5378331000102,1272.5541490000032,1272.5541490000032,1272.5541490000032,1272.637316200009,1272.9216115000017,,,,,,,,up,6.3623244000191335,None,space,0.35411059999023564,None,,,,,,,,,,,,,,,P118,001,2025-02-20_10h48.33.681,posner_endo_new1,2024.2.4,60.016336452400154,2025-02-20 10h48.42.339149 +0000,
,,,,,,,,,,,,,,,,,,,,,,,,,,,,,,,,,,,,,,,,,,,,,,,,,,,,,,,,,,,,,,,,,,,,,1272.9217939999944,1272.9372248,1272.9372248,1332.942370899982,1335.424392899993,space,62.47153330000583,None,,,,,,,P118,001,2025-02-20_10h48.33.681,posner_endo_new1,2024.2.4,60.016336452400154,2025-02-20 10h48.42.339149 +0000,
,,,,,,,,,,,,,,,,,,,,,,,,,,,,,,,,,,1335.4244827000075,1335.439793700003,1338.440715500008,1338.420590099995,,,,,,,,,,,,,,,,,,,,,,,,,,,,,,,,,,,,,,,,,,,,,,P118,001,2025-02-20_10h48.33.681,posner_endo_new1,2024.2.4,60.016336452400154,2025-02-20 10h48.42.339149 +0000,
cube_l.png,0.1,10,catch,0,0,0,down,8.903557600016939,None,None,,,,,,,,,,,0,0,0,0,1338.440715500008,,,,,,,,,,,,,1338.4320498000016,1338.440715500008,1338.440715500008,1338.440715500008,1347.3463427000097,,,,1347.3651532999938,1347.3763107999985,1347.3763107999985,1347.411181100004,1347.4116913999896,1347.4275917999912,1347.4275917999912,1347.4275917999912,1347.5108478000038,1350.4251921999967,,,,1349.5254442000005,1350.4409252000041,1350.4409252000041,1350.4409252000041,,,,,,,,,,,,,,,down,8.903557600016939,None,None,,,P118,001,2025-02-20_10h48.33.681,posner_endo_new1,2024.2.4,60.016336452400154,2025-02-20 10h48.42.339149 +0000,
cube_l.png,0.1,10,catch,1,1,0,down,3.687393100000918,None,None,,,,,,,,,,,0,1,1,1,1350.4409252000041,,,,,,,,,,,,,1350.4253576000046,1350.4409252000041,1350.4409252000041,1350.4409252000041,1354.1382431999955,,,,1354.1453880000045,1354.157150199986,1354.157150199986,1354.2037027000042,1354.2039289000095,1354.2204540999955,1354.2204540999955,1354.2204540999955,1354.2871490000107,1357.2183616999828,,,,1356.3021987999964,1357.23447570001,1357.23447570001,1357.23447570001,,,,,,,,,,,,,,,down,3.687393100000918,None,None,,,P118,001,2025-02-20_10h48.33.681,posner_endo_new1,2024.2.4,60.016336452400154,2025-02-20 10h48.42.339149 +0000,
cube_l.png,0.1,0.31,invalid,2,2,0,down,4.222591600002488,None,space,0.4626007000042591,None,,,,,,,,,0,2,2,2,1357.23447570001,,,,,,,,,,,,,1357.2185245,1357.23447570001,1357.23447570001,1357.23447570001,1361.4642730999913,,,,1361.4712370999914,1361.4831192999845,1361.4831192999845,1361.5298753000097,1361.5301031999988,1361.5467139999964,1361.5467139999964,1361.5467139999964,1361.6298895000073,1362.0138498999877,,,,,,,,,,,,,,,,,,,,,,down,4.222591600002488,None,space,0.4626007000042591,None,P118,001,2025-02-20_10h48.33.681,posner_endo_new1,2024.2.4,60.016336452400154,2025-02-20 10h48.42.339149 +0000,
cube_l.png,0.1,0.31,invalid,3,3,0,down,7.042786399979377,None,space,0.3756097999867052,None,,,,,,,,,0,3,3,3,1362.0296314999869,,,,,,,,,,,,,1362.0140255999868,1362.0296314999869,1362.0296314999869,1362.0296314999869,1369.0732256000047,,,,1369.0799750000006,1369.091890199983,1369.091890199983,1369.139046700002,1369.1392722000019,1369.1550517999858,1369.1550517999858,1369.1550517999858,1369.2387918999884,1369.5392835999955,,,,,,,,,,,,,,,,,,,,,,down,7.042786399979377,None,space,0.3756097999867052,None,P118,001,2025-02-20_10h48.33.681,posner_endo_new1,2024.2.4,60.016336452400154,2025-02-20 10h48.42.339149 +0000,
cube_l.png,0.1,-0.31,valid,4,4,0,down,6.525942999986,None,space,0.40444990000105463,None,,,,,,,,,0,4,4,4,1369.555109799985,,,,,,,,,,,,,1369.5394592999946,1369.555109799985,1369.555109799985,1369.555109799985,1376.0826779000054,,,,1376.0888608999958,1376.1007332000008,1376.1007332000008,1376.1485496000096,1376.148774900008,1376.1651764999842,1376.1651764999842,1376.1651764999842,1376.2481812000042,1376.5820349999995,,,,,,,,,,,,,,,,,,,,,,down,6.525942999986,None,space,0.40444990000105463,None,P118,001,2025-02-20_10h48.33.681,posner_endo_new1,2024.2.4,60.016336452400154,2025-02-20 10h48.42.339149 +0000,
cube_r.png,0.1,-0.31,invalid,5,5,0,down,6.666858000011416,None,space,0.40150000000721775,None,,,,,,,,,0,5,5,5,1376.598081700009,,,,,,,,,,,,,1376.5822098999924,1376.598081700009,1376.598081700009,1376.598081700009,1383.2751785999862,,,,1383.2813534000015,1383.2930125999846,1383.2930125999846,1383.3406875999935,1383.3409109000058,1383.3577944999852,1383.3577944999852,1383.3577944999852,1383.4411454999936,1383.7746822999907,,,,,,,,,,,,,,,,,,,,,,down,6.666858000011416,None,space,0.40150000000721775,None,P118,001,2025-02-20_10h48.33.681,posner_endo_new1,2024.2.4,60.016336452400154,2025-02-20 10h48.42.339149 +0000,
cube_r.png,0.1,0.31,valid,6,6,0,down,8.59473050001543,None,space,0.2911735000088811,None,,,,,,,,,0,6,6,6,1383.7901645000093,,,,,,,,,,,,,1383.774855399999,1383.7901645000093,1383.7901645000093,1383.7901645000093,1392.3992367000028,,,,1392.4055387999979,1392.4173103999929,1392.4173103999929,1392.465255099989,1392.4654804999882,1392.4813398999977,1392.4813398999977,1392.4813398999977,1392.5645562999998,1392.782310199982,,,,,,,,,,,,,,,,,,,,,,down,8.59473050001543,None,space,0.2911735000088811,None,P118,001,2025-02-20_10h48.33.681,posner_endo_new1,2024.2.4,60.016336452400154,2025-02-20 10h48.42.339149 +0000,
cube_r.png,0.1,-0.31,invalid,7,7,0,down,7.394700199976796,None,space,0.3765463999880012,None,,,,,,,,,0,7,7,7,1392.7981781999988,,,,,,,,,,,,,1392.7824840999965,1392.7981781999988,1392.7981781999988,1392.7981781999988,1400.2079160999856,,,,1400.2140914000047,1400.225958199997,1400.225958199997,1400.2734510999871,1400.2736830000067,1400.2904286999837,1400.2904286999837,1400.2904286999837,1400.3569536999858,1400.674177799985,,,,,,,,,,,,,,,,,,,,,,down,7.394700199976796,None,space,0.3765463999880012,None,P118,001,2025-02-20_10h48.33.681,posner_endo_new1,2024.2.4,60.016336452400154,2025-02-20 10h48.42.339149 +0000,
cube_l.png,0.1,-0.31,valid,8,8,0,down,8.13433349999832,None,space,0.3399327999795787,None,,,,,,,,,0,8,8,8,1400.6900211999891,,,,,,,,,,,,,1400.6743511999957,1400.6900211999891,1400.6900211999891,1400.6900211999891,1408.8326469000021,,,,1408.838931300008,1408.8508344999864,1408.8508344999864,1408.8984822999919,1408.898712299997,1408.9149038000032,1408.9149038000032,1408.9149038000032,1408.9981736000045,1409.2651691999927,,,,,,,,,,,,,,,,,,,,,,down,8.13433349999832,None,space,0.3399327999795787,None,P118,001,2025-02-20_10h48.33.681,posner_endo_new1,2024.2.4,60.016336452400154,2025-02-20 10h48.42.339149 +0000,
cube_r.png,0.1,-0.31,invalid,9,9,0,down,7.3279694999800995,None,space,0.4368630000099074,None,,,,,,,,,0,9,9,9,1409.281065099989,,,,,,,,,,,,,1409.2653479999863,1409.281065099989,1409.281065099989,1409.281065099989,1416.6244892000104,,,,1416.6306850999827,1416.642321899999,1416.642321899999,1416.6900115000026,1416.6902444000007,1416.707144199987,1416.707144199987,1416.707144199987,1416.773701099999,1417.1574136999843,,,,,,,,,,,,,,,,,,,,,,down,7.3279694999800995,None,space,0.4368630000099074,None,P118,001,2025-02-20_10h48.33.681,posner_endo_new1,2024.2.4,60.016336452400154,2025-02-20 10h48.42.339149 +0000,
cube_l.png,0.1,0.31,invalid,10,10,0,down,7.219510099996114,None,space,0.2461135000048671,None,,,,,,,,,0,10,10,10,1417.1732035999885,,,,,,,,,,,,,1417.1575863999897,1417.1732035999885,1417.1732035999885,1417.1732035999885,1424.3995595999877,,,,1424.405926300009,1424.4177408999822,1424.4177408999822,1424.465787299996,1424.4660091999976,1424.4822841999994,1424.4822841999994,1424.4822841999994,1424.5656581000076,1424.7331394999928,,,,,,,,,,,,,,,,,,,,,,down,7.219510099996114,None,space,0.2461135000048671,None,P118,001,2025-02-20_10h48.33.681,posner_endo_new1,2024.2.4,60.016336452400154,2025-02-20 10h48.42.339149 +0000,
cube_r.png,0.1,-0.31,invalid,11,11,0,down,6.3639867000165395,None,space,0.340943299990613,None,,,,,,,,,0,11,11,11,1424.7483732999826,,,,,,,,,,,,,1424.733312299999,1424.7483732999826,1424.7483732999826,1424.7483732999826,1431.1261945999868,,,,1431.132390099985,1431.144121099991,1431.144121099991,1431.1917606999923,1431.191982199991,1431.2088443000102,1431.2088443000102,1431.2088443000102,1431.275379300001,1431.559096299985,,,,,,,,,,,,,,,,,,,,,,down,6.3639867000165395,None,space,0.340943299990613,None,P118,001,2025-02-20_10h48.33.681,posner_endo_new1,2024.2.4,60.016336452400154,2025-02-20 10h48.42.339149 +0000,
cube_r.png,0.1,0.31,valid,12,12,0,down,11.625207100005355,None,space,0.3992032000096515,None,,,,,,,,,0,12,12,12,1431.5752860000066,,,,,,,,,,,,,1431.559270800004,1431.5752860000066,1431.5752860000066,1431.5752860000066,1443.2139304000011,,,,1443.2200906999933,1443.231742999982,1443.231742999982,1443.2797979000024,1443.2800224999955,1443.2965171000105,1443.2965171000105,1443.2965171000105,1443.362736399984,1443.6967217999918,,,,,,,,,,,,,,,,,,,,,,down,11.625207100005355,None,space,0.3992032000096515,None,P118,001,2025-02-20_10h48.33.681,posner_endo_new1,2024.2.4,60.016336452400154,2025-02-20 10h48.42.339149 +0000,
cube_l.png,0.1,10,catch,13,13,0,down,5.089545199996792,None,None,,,,,,,,,,,0,13,13,13,1443.712668399996,,,,,,,,,,,,,1443.6968943999964,1443.712668399996,1443.712668399996,1443.712668399996,1448.8083859999897,,,,1448.8145512999909,1448.8267302000022,1448.8267302000022,1448.8742374999856,1448.8744682999968,1448.8908801999933,1448.8908801999933,1448.8908801999933,1448.9740622999961,1451.8881170999957,,,,1450.9885927999858,1451.9043765999959,1451.9043765999959,1451.9043765999959,,,,,,,,,,,,,,,down,5.089545199996792,None,None,,,P118,001,2025-02-20_10h48.33.681,posner_endo_new1,2024.2.4,60.016336452400154,2025-02-20 10h48.42.339149 +0000,
cube_r.png,0.1,-0.31,invalid,14,14,0,down,3.8248228000011295,None,space,0.29432690000976436,None,,,,,,,,,0,14,14,14,1451.9043765999959,,,,,,,,,,,,,1451.8882877999858,1451.9043765999959,1451.9043765999959,1451.9043765999959,1455.7340783999825,,,,1455.7402774000075,1455.751905799989,1455.751905799989,1455.800405099988,1455.8006286000018,1455.8172212000063,1455.8172212000063,1455.8172212000063,1455.8836677999934,1456.117502100009,,,,,,,,,,,,,,,,,,,,,,down,3.8248228000011295,None,space,0.29432690000976436,None,P118,001,2025-02-20_10h48.33.681,posner_endo_new1,2024.2.4,60.016336452400154,2025-02-20 10h48.42.339149 +0000,
cube_l.png,0.1,-0.31,valid,15,15,0,down,7.843148199986899,None,space,0.3448562999838032,None,,,,,,,,,0,15,15,15,1456.1337080000085,,,,,,,,,,,,,1456.1176749999868,1456.1337080000085,1456.1337080000085,1456.1337080000085,1463.9929038999835,,,,1464.005567699991,1464.0155821999942,1464.0155821999942,1464.0583643999998,1464.0587551000062,1464.0748459000024,1464.0748459000024,1464.0748459000024,1464.1580709999835,1464.4260250999941,,,,,,,,,,,,,,,,,,,,,,down,7.843148199986899,None,space,0.3448562999838032,None,P118,001,2025-02-20_10h48.33.681,posner_endo_new1,2024.2.4,60.016336452400154,2025-02-20 10h48.42.339149 +0000,
cube_r.png,0.1,10,catch,16,16,0,down,7.575398499990115,None,None,,,,,,,,,,,0,16,16,16,1464.4411177999864,,,,,,,,,,,,,1464.4263516000065,1464.4411177999864,1464.4411177999864,1464.4411177999864,1472.0181616999907,,,,1472.0308094999928,1472.0408582999953,1472.0408582999953,1472.0834854999848,1472.083873399999,1472.0999644999974,1472.0999644999974,1472.0999644999974,1472.1832129000104,1475.097849199985,,,,1474.1981991000066,1475.1138714999834,1475.1138714999834,1475.1138714999834,,,,,,,,,,,,,,,down,7.575398499990115,None,None,,,P118,001,2025-02-20_10h48.33.681,posner_endo_new1,2024.2.4,60.016336452400154,2025-02-20 10h48.42.339149 +0000,
cube_r.png,0.1,10,catch,17,17,0,down,4.359412899997551,None,None,,,,,,,,,,,0,17,17,17,1475.1138714999834,,,,,,,,,,,,,1475.0980643999937,1475.1138714999834,1475.1138714999834,1475.1138714999834,1479.4774372999964,,,,1479.4860093999887,1479.4960037999845,1479.4960037999845,1479.5430683000013,1479.5433438000036,1479.5593970000045,1479.5593970000045,1479.5593970000045,1479.642769500002,1482.5568962999969,,,,1481.6573439000058,1482.5729786999873,1482.5729786999873,1482.5729786999873,,,,,,,,,,,,,,,down,4.359412899997551,None,None,,,P118,001,2025-02-20_10h48.33.681,posner_endo_new1,2024.2.4,60.016336452400154,2025-02-20 10h48.42.339149 +0000,
cube_l.png,0.1,0.31,invalid,18,18,0,down,6.027715900010662,None,space,0.4410961999965366,None,,,,,,,,,0,18,18,18,1482.5729786999873,,,,,,,,,,,,,1482.5571066999983,1482.5729786999873,1482.5729786999873,1482.5729786999873,1488.6029853000073,,,,1488.625327799993,1488.63565869999,1488.63565869999,1488.6668414000014,1488.667185600003,1488.6833460000053,1488.6833460000053,1488.6833460000053,1488.7665727999993,1489.1340843999933,,,,,,,,,,,,,,,,,,,,,,down,6.027715900010662,None,space,0.4410961999965366,None,P118,001,2025-02-20_10h48.33.681,posner_endo_new1,2024.2.4,60.016336452400154,2025-02-20 10h48.42.339149 +0000,
cube_l.png,0.1,10,catch,19,19,0,down,7.859680499997921,None,None,,,,,,,,,,,0,19,19,19,1489.149489000003,,,,,,,,,,,,,1489.1343733000103,1489.149489000003,1489.149489000003,1489.149489000003,1497.0259692000109,,,,1497.0374670999881,1497.0472313000064,1497.0472313000064,1497.0915172999958,1497.0918630000087,1497.108056099998,1497.108056099998,1497.108056099998,1497.1912441999884,1500.105697699997,,,,1499.2059708999877,1500.1216416000098,1500.1216416000098,1500.1216416000098,,,,,,,,,,,,,,,down,7.859680499997921,None,None,,,P118,001,2025-02-20_10h48.33.681,posner_endo_new1,2024.2.4,60.016336452400154,2025-02-20 10h48.42.339149 +0000,
cube_l.png,0.1,0.31,invalid,20,20,0,down,4.0387931000150274,None,space,0.33046850000391714,None,,,,,,,,,0,20,20,20,1500.1216416000098,,,,,,,,,,,,,1500.1059686999943,1500.1216416000098,1500.1216416000098,1500.1216416000098,1504.168793799996,,,,1504.180368100002,1504.1904006999976,1504.1904006999976,1504.2342922000098,1504.2346405999851,1504.2507565999986,1504.2507565999986,1504.2507565999986,1504.3341010999866,1504.585221299989,,,,,,,,,,,,,,,,,,,,,,down,4.0387931000150274,None,space,0.33046850000391714,None,P118,001,2025-02-20_10h48.33.681,posner_endo_new1,2024.2.4,60.016336452400154,2025-02-20 10h48.42.339149 +0000,
cube_l.png,0.1,-0.31,valid,21,21,0,down,7.1683359000016935,None,space,0.41761099998257123,None,,,,,,,,,0,21,21,21,1504.6002988999826,,,,,,,,,,,,,1504.5855388999917,1504.6002988999826,1504.6002988999826,1504.6002988999826,1511.777665200003,,,,1511.788074000011,1511.7978256999922,1511.7978256999922,1511.8433505999856,1511.8436013000028,1511.8597394000099,1511.8597394000099,1511.8597394000099,1511.9429748999828,1512.293468799995,,,,,,,,,,,,,,,,,,,,,,down,7.1683359000016935,None,space,0.41761099998257123,None,P118,001,2025-02-20_10h48.33.681,posner_endo_new1,2024.2.4,60.016336452400154,2025-02-20 10h48.42.339149 +0000,
cube_r.png,0.1,0.31,valid,22,22,0,down,6.372045199997956,None,space,0.4196223999897484,None,,,,,,,,,0,22,22,22,1512.3090364999953,,,,,,,,,,,,,1512.2936676999961,1512.3090364999953,1512.3090364999953,1512.3090364999953,1518.6869630999863,,,,1518.6943384000042,1518.7058628000086,1518.7058628000086,1518.7529732999974,1518.7532219999994,1518.7693840999855,1518.7693840999855,1518.7693840999855,1518.8527451999835,1519.203055399994,,,,,,,,,,,,,,,,,,,,,,down,6.372045199997956,None,space,0.4196223999897484,None,P118,001,2025-02-20_10h48.33.681,posner_endo_new1,2024.2.4,60.016336452400154,2025-02-20 10h48.42.339149 +0000,
cube_r.png,0.1,-0.31,invalid,23,23,0,down,6.829988099983893,None,space,0.4119936999923084,None,,,,,,,,,0,23,23,23,1519.2186243000033,,,,,,,,,,,,,1519.2032525000104,1519.2186243000033,1519.2186243000033,1519.2186243000033,1526.0627662999905,,,,1526.0701422999846,1526.0816441999923,1526.0816441999923,1526.1287499000027,1526.1289994999825,1526.1449047999922,1526.1449047999922,1526.1449047999922,1526.2284168000042,1526.5621331000002,,,,,,,,,,,,,,,,,,,,,,down,6.829988099983893,None,space,0.4119936999923084,None,P118,001,2025-02-20_10h48.33.681,posner_endo_new1,2024.2.4,60.016336452400154,2025-02-20 10h48.42.339149 +0000,
cube_r.png,0.1,0.31,valid,24,24,0,down,6.742792500008363,None,space,0.3728601000038907,None,,,,,,,,,0,24,24,24,1526.5778440999857,,,,,,,,,,,,,1526.5623294000106,1526.5778440999857,1526.5778440999857,1526.5778440999857,1533.3232182000065,,,,1533.3419145999942,1533.353272599983,1533.353272599983,1533.3877508000005,1533.388062699989,1533.4043908999884,1533.4043908999884,1533.4043908999884,1533.487536200002,1533.7883651999873,,,,,,,,,,,,,,,,,,,,,,down,6.742792500008363,None,space,0.3728601000038907,None,P118,001,2025-02-20_10h48.33.681,posner_endo_new1,2024.2.4,60.016336452400154,2025-02-20 10h48.42.339149 +0000,
cube_r.png,0.1,-0.31,invalid,25,25,0,down,5.829199500003597,None,space,0.4181044999859296,None,,,,,,,,,0,25,25,25,1533.80394350001,,,,,,,,,,,,,1533.788621099986,1533.80394350001,1533.80394350001,1533.80394350001,1539.648940199986,,,,1539.658678000007,1539.6687332000001,1539.6687332000001,1539.7147049999912,1539.7150301999936,1539.7312653999834,1539.7312653999834,1539.7312653999834,1539.8144700999837,1540.1652070999844,,,,,,,,,,,,,,,,,,,,,,down,5.829199500003597,None,space,0.4181044999859296,None,P118,001,2025-02-20_10h48.33.681,posner_endo_new1,2024.2.4,60.016336452400154,2025-02-20 10h48.42.339149 +0000,
cube_l.png,0.1,-0.31,valid,26,26,0,down,7.164514500007499,None,space,0.35788319999119267,None,,,,,,,,,0,26,26,26,1540.1808942999924,,,,,,,,,,,,,1540.1654839999974,1540.1808942999924,1540.1808942999924,1540.1808942999924,1547.3577726999938,,,,1547.3669394000026,1547.3765779999958,1547.3765779999958,1547.4236177999992,1547.4238410000107,1547.4396063000022,1547.4396063000022,1547.4396063000022,1547.5232401000103,1547.8070573000005,,,,,,,,,,,,,,,,,,,,,,down,7.164514500007499,None,space,0.35788319999119267,None,P118,001,2025-02-20_10h48.33.681,posner_endo_new1,2024.2.4,60.016336452400154,2025-02-20 10h48.42.339149 +0000,
cube_r.png,0.1,0.31,valid,27,27,0,down,5.2342537000076845,None,space,0.33603299999958836,None,,,,,,,,,0,27,27,27,1547.8225888999877,,,,,,,,,,,,,1547.8072318999912,1547.8225888999877,1547.8225888999877,1547.8225888999877,1553.068301399995,,,,1553.0747681999928,1553.086465100001,1553.086465100001,1553.1343085999833,1553.1345325000002,1553.1509985000012,1553.1509985000012,1553.1509985000012,1553.217543799983,1553.5011726999946,,,,,,,,,,,,,,,,,,,,,,down,5.2342537000076845,None,space,0.33603299999958836,None,P118,001,2025-02-20_10h48.33.681,posner_endo_new1,2024.2.4,60.016336452400154,2025-02-20 10h48.42.339149 +0000,
cube_r.png,0.1,10,catch,28,28,0,down,5.4116383000218775,None,None,,,,,,,,,,,0,28,28,28,1553.5172694000066,,,,,,,,,,,,,1553.501346200006,1553.5172694000066,1553.5172694000066,1553.5172694000066,1558.9452642999822,,,,1558.9512811999884,1558.9627712999936,1558.9627712999936,1559.0118662999885,1559.012095699989,1559.028232199984,1559.028232199984,1559.028232199984,1559.094473300007,1562.0255054000008,,,,1561.1095457999909,1562.041303999984,1562.041303999984,1562.041303999984,,,,,,,,,,,,,,,down,5.4116383000218775,None,None,,,P118,001,2025-02-20_10h48.33.681,posner_endo_new1,2024.2.4,60.016336452400154,2025-02-20 10h48.42.339149 +0000,
cube_r.png,0.1,0.31,valid,29,29,0,down,2.279467999993358,None,space,0.4135829000151716,None,,,,,,,,,0,29,29,29,1562.041303999984,,,,,,,,,,,,,1562.0256721999904,1562.041303999984,1562.041303999984,1562.041303999984,1564.3235166000086,,,,1564.329594699986,1564.3413231000013,1564.3413231000013,1564.3897017999843,1564.3899320999917,1564.4060618999938,1564.4060618999938,1564.4060618999938,1564.4893894999987,1564.8227066999825,,,,,,,,,,,,,,,,,,,,,,down,2.279467999993358,None,space,0.4135829000151716,None,P118,001,2025-02-20_10h48.33.681,posner_endo_new1,2024.2.4,60.016336452400154,2025-02-20 10h48.42.339149 +0000,
cube_r.png,0.1,0.31,valid,30,30,0,down,5.9464580999920145,None,space,0.37285919999703765,None,,,,,,,,,0,30,30,30,1564.8389181999955,,,,,,,,,,,,,1564.822881,1564.8389181999955,1564.8389181999955,1564.8389181999955,1570.7998213999963,,,,1570.8058076000016,1570.8174919000012,1570.8174919000012,1570.8663567999902,1570.8665895999875,1570.882729600009,1570.882729600009,1570.882729600009,1570.9495333000086,1571.2665327999857,,,,,,,,,,,,,,,,,,,,,,down,5.9464580999920145,None,space,0.37285919999703765,None,P118,001,2025-02-20_10h48.33.681,posner_endo_new1,2024.2.4,60.016336452400154,2025-02-20 10h48.42.339149 +0000,
cube_l.png,0.1,-0.31,valid,31,31,0,down,5.750658199976897,None,space,0.5900923000008333,None,,,,,,,,,0,31,31,31,1571.2825089999824,,,,,,,,,,,,,1571.266706800001,1571.2825089999824,1571.2825089999824,1571.2825089999824,1577.0439543999964,,,,1577.0499705999973,1577.0615153000108,1577.0615153000108,1577.1093623999914,1577.1095876999898,1577.1264241999888,1577.1264241999888,1577.1264241999888,1577.1930628999835,1577.7264084999915,,,,,,,,,,,,,,,,,,,,,,down,5.750658199976897,None,space,0.5900923000008333,None,P118,001,2025-02-20_10h48.33.681,posner_endo_new1,2024.2.4,60.016336452400154,2025-02-20 10h48.42.339149 +0000,
cube_r.png,0.1,0.31,valid,32,32,0,down,6.17088310001418,None,space,0.3649444000038784,None,,,,,,,,,0,32,32,32,1577.7423984000052,,,,,,,,,,,,,1577.726585299999,1577.7423984000052,1577.7423984000052,1577.7423984000052,1583.9202216999838,,,,1583.9264519999851,1583.9382735999825,1583.9382735999825,1583.9862445000035,1583.986475099984,1584.0026772999845,1584.0026772999845,1584.0026772999845,1584.0692395000078,1584.3699610999902,,,,,,,,,,,,,,,,,,,,,,down,6.17088310001418,None,space,0.3649444000038784,None,P118,001,2025-02-20_10h48.33.681,posner_endo_new1,2024.2.4,60.016336452400154,2025-02-20 10h48.42.339149 +0000,
cube_r.png,0.1,-0.31,invalid,33,33,0,down,4.679459600010887,None,space,0.4833385999954771,None,,,,,,,,,0,33,33,33,1584.3856500999827,,,,,,,,,,,,,1584.3701370999916,1584.3856500999827,1584.3856500999827,1584.3856500999827,1589.0814980999858,,,,1589.0876074999978,1589.0994321999897,1589.0994321999897,1589.1475655999966,1589.1477906999935,1589.1636480999878,1589.1636480999878,1589.1636480999878,1589.2306601000018,1589.6641999999993,,,,,,,,,,,,,,,,,,,,,,down,4.679459600010887,None,space,0.4833385999954771,None,P118,001,2025-02-20_10h48.33.681,posner_endo_new1,2024.2.4,60.016336452400154,2025-02-20 10h48.42.339149 +0000,
cube_r.png,0.1,10,catch,34,34,0,down,5.200057600013679,None,None,,,,,,,,,,,0,34,34,34,1589.6803988000029,,,,,,,,,,,,,1589.6643789999944,1589.6803988000029,1589.6803988000029,1589.6803988000029,1594.892309399991,,,,1594.8982759999926,1594.910098399996,1594.910098399996,1594.957923799986,1594.9581487999822,1594.974874699983,1594.974874699983,1594.974874699983,1595.058120200003,1597.97223449999,,,,1597.0726609999838,1597.988491600001,1597.988491600001,1597.988491600001,,,,,,,,,,,,,,,down,5.200057600013679,None,None,,,P118,001,2025-02-20_10h48.33.681,posner_endo_new1,2024.2.4,60.016336452400154,2025-02-20 10h48.42.339149 +0000,
cube_r.png,0.1,0.31,valid,35,35,0,down,6.6123277000151575,None,space,0.32854600000428036,None,,,,,,,,,0,35,35,35,1597.988491600001,,,,,,,,,,,,,1597.9723955999943,1597.988491600001,1597.988491600001,1597.988491600001,1604.6158804000006,,,,1604.6220019999892,1604.6337816999876,1604.6337816999876,1604.6818346999935,1604.6820670999878,1604.6978452999901,1604.6978452999901,1604.6978452999901,1604.7647730000026,1605.031725000008,,,,,,,,,,,,,,,,,,,,,,down,6.6123277000151575,None,space,0.32854600000428036,None,P118,001,2025-02-20_10h48.33.681,posner_endo_new1,2024.2.4,60.016336452400154,2025-02-20 10h48.42.339149 +0000,
cube_r.png,0.1,-0.31,invalid,36,36,0,down,6.009480000007898,None,space,0.43233589999726973,None,,,,,,,,,0,36,36,36,1605.047487200005,,,,,,,,,,,,,1605.0318991999957,1605.047487200005,1605.047487200005,1605.047487200005,1611.0592030999833,,,,1611.0652088999923,1611.0769633000018,1611.0769633000018,1611.125172400003,1611.1254037999897,1611.1417449,1611.1417449,1611.1417449,1611.208320100006,1611.5756810999883,,,,,,,,,,,,,,,,,,,,,,down,6.009480000007898,None,space,0.43233589999726973,None,P118,001,2025-02-20_10h48.33.681,posner_endo_new1,2024.2.4,60.016336452400154,2025-02-20 10h48.42.339149 +0000,
cube_l.png,0.1,0.31,invalid,37,37,0,down,5.449496499990346,None,space,0.37629899999592453,None,,,,,,,,,0,37,37,37,1611.5912813000032,,,,,,,,,,,,,1611.5758542999974,1611.5912813000032,1611.5912813000032,1611.5912813000032,1617.0548125999921,,,,1617.0777727999957,1617.0898524000077,1617.0898524000077,1617.118644000002,1617.119027000008,1617.1351282999967,1617.1351282999967,1617.1351282999967,1617.2183802000072,1617.5194951999874,,,,,,,,,,,,,,,,,,,,,,down,5.449496499990346,None,space,0.37629899999592453,None,P118,001,2025-02-20_10h48.33.681,posner_endo_new1,2024.2.4,60.016336452400154,2025-02-20 10h48.42.339149 +0000,
cube_l.png,0.1,0.31,invalid,38,38,0,down,4.62645579999662,None,space,0.3281021000002511,None,,,,,,,,,0,38,38,38,1617.5347187999869,,,,,,,,,,,,,1617.5198237999866,1617.5347187999869,1617.5347187999869,1617.5347187999869,1622.164682600007,,,,1622.1773082999862,1622.1876526999986,1622.1876526999986,1622.2306494000077,1622.2309250999824,1622.2470178999938,1622.2470178999938,1622.2470178999938,1622.3137156000012,1622.5810001000063,,,,,,,,,,,,,,,,,,,,,,down,4.62645579999662,None,space,0.3281021000002511,None,P118,001,2025-02-20_10h48.33.681,posner_endo_new1,2024.2.4,60.016336452400154,2025-02-20 10h48.42.339149 +0000,
cube_r.png,0.1,0.31,valid,39,39,0,down,5.509128999983659,None,space,0.30267360000289045,None,,,,,,,,,0,39,39,39,1622.5962916999997,,,,,,,,,,,,,1622.5812311999907,1622.5962916999997,1622.5962916999997,1622.5962916999997,1628.1085665999854,,,,1628.1170277000056,1628.1273523999844,1628.1273523999844,1628.1743831000058,1628.1746591999836,1628.1909429999941,1628.1909429999941,1628.1909429999941,1628.2575408999983,1628.5082243999932,,,,,,,,,,,,,,,,,,,,,,down,5.509128999983659,None,space,0.30267360000289045,None,P118,001,2025-02-20_10h48.33.681,posner_endo_new1,2024.2.4,60.016336452400154,2025-02-20 10h48.42.339149 +0000,
cube_l.png,0.1,0.31,invalid,40,40,0,down,5.149437100015348,None,space,0.3452578000142239,None,,,,,,,,,0,40,40,40,1628.5239474999835,,,,,,,,,,,,,1628.5084519000084,1628.5239474999835,1628.5239474999835,1628.5239474999835,1633.6861797999882,,,,1633.6946545999963,1633.704970199993,1633.704970199993,1633.7520236999844,1633.752299499989,1633.7686414000054,1633.7686414000054,1633.7686414000054,1633.851791699999,1634.1191345999832,,,,,,,,,,,,,,,,,,,,,,down,5.149437100015348,None,space,0.3452578000142239,None,P118,001,2025-02-20_10h48.33.681,posner_endo_new1,2024.2.4,60.016336452400154,2025-02-20 10h48.42.339149 +0000,
cube_l.png,0.1,10,catch,41,41,0,down,6.146132399997441,None,None,,,,,,,,,,,0,41,41,41,1634.1349255999958,,,,,,,,,,,,,1634.1193615999946,1634.1349255999958,1634.1349255999958,1634.1349255999958,1640.2960240000102,,,,1640.3045028999913,1640.3146238999907,1640.3146238999907,1640.3620382999943,1640.3623156000103,1640.3784270999895,1640.3784270999895,1640.3784270999895,1640.4450924999837,1643.3759690999868,,,,1642.4597388999828,1643.3919760999852,1643.3919760999852,1643.3919760999852,,,,,,,,,,,,,,,down,6.146132399997441,None,None,,,P118,001,2025-02-20_10h48.33.681,posner_endo_new1,2024.2.4,60.016336452400154,2025-02-20 10h48.42.339149 +0000,
cube_l.png,0.1,-0.31,valid,42,42,0,down,6.681008100014878,None,space,0.45129629998700693,None,,,,,,,,,0,42,42,42,1643.3919760999852,,,,,,,,,,,,,1643.3761808999989,1643.3919760999852,1643.3919760999852,1643.3919760999852,1650.08640629999,,,,1650.094857499993,1650.1049123999837,1650.1049123999837,1650.1520394999825,1650.1523211000022,1650.1684640999883,1650.1684640999883,1650.1684640999883,1650.251757799997,1650.6355571000022,,,,,,,,,,,,,,,,,,,,,,down,6.681008100014878,None,space,0.45129629998700693,None,P118,001,2025-02-20_10h48.33.681,posner_endo_new1,2024.2.4,60.016336452400154,2025-02-20 10h48.42.339149 +0000,
cube_l.png,0.1,10,catch,43,43,0,down,4.525690099981148,None,None,,,,,,,,,,,0,43,43,43,1650.6513159000024,,,,,,,,,,,,,1650.6357874000096,1650.6513159000024,1650.6513159000024,1650.6513159000024,1655.1810106000048,,,,1655.189404500008,1655.199632999982,1655.199632999982,1655.2467709000048,1655.2470514999877,1655.263222300011,1655.263222300011,1655.263222300011,1655.3466065000102,1658.2606961999845,,,,1657.361148099997,1658.2768733999983,1658.2768733999983,1658.2768733999983,,,,,,,,,,,,,,,down,4.525690099981148,None,None,,,P118,001,2025-02-20_10h48.33.681,posner_endo_new1,2024.2.4,60.016336452400154,2025-02-20 10h48.42.339149 +0000,
cube_l.png,0.1,0.31,invalid,44,44,0,down,3.7806241999787744,None,space,0.36760890000732616,None,,,,,,,,,0,44,44,44,1658.2768733999983,,,,,,,,,,,,,1658.2609054000059,1658.2768733999983,1658.2768733999983,1658.2768733999983,1662.0738507999922,,,,1662.082292200008,1662.0925286999845,1662.0925286999845,1662.139698199986,1662.1399765000097,1662.1562871999922,1662.1562871999922,1662.1562871999922,1662.239491299988,1662.5402032999846,,,,,,,,,,,,,,,,,,,,,,down,3.7806241999787744,None,space,0.36760890000732616,None,P118,001,2025-02-20_10h48.33.681,posner_endo_new1,2024.2.4,60.016336452400154,2025-02-20 10h48.42.339149 +0000,
cube_l.png,0.1,0.31,invalid,45,45,0,down,7.620821300020907,None,space,0.3797317999997176,None,,,,,,,,,0,45,45,45,1662.5558667999867,,,,,,,,,,,,,1662.540437299991,1662.5558667999867,1662.5558667999867,1662.5558667999867,1670.1816849999886,,,,1670.1878152999852,1670.199516099994,1670.199516099994,1670.2477102999983,1670.2479348999914,1670.2646859000088,1670.2646859000088,1670.2646859000088,1670.3310001000063,1670.648464400001,,,,,,,,,,,,,,,,,,,,,,down,7.620821300020907,None,space,0.3797317999997176,None,P118,001,2025-02-20_10h48.33.681,posner_endo_new1,2024.2.4,60.016336452400154,2025-02-20 10h48.42.339149 +0000,
cube_r.png,0.1,0.31,valid,46,46,0,down,2.6482351000013296,None,space,0.4051729000057094,None,,,,,,,,,0,46,46,46,1670.6643531000009,,,,,,,,,,,,,1670.6486422999878,1670.6643531000009,1670.6643531000009,1670.6643531000009,1673.3290395000076,,,,1673.3350280000013,1673.3467201000021,1673.3467201000021,1673.394426199986,1673.3946530999965,1673.4115993999876,1673.4115993999876,1673.4115993999876,1673.494465099997,1673.8289091000042,,,,,,,,,,,,,,,,,,,,,,down,2.6482351000013296,None,space,0.4051729000057094,None,P118,001,2025-02-20_10h48.33.681,posner_endo_new1,2024.2.4,60.016336452400154,2025-02-20 10h48.42.339149 +0000,
cube_l.png,0.1,-0.31,valid,47,47,0,down,5.324417600000743,None,space,0.3776235999830533,None,,,,,,,,,0,47,47,47,1673.8442492999893,,,,,,,,,,,,,1673.8290936999838,1673.8442492999893,1673.8442492999893,1673.8442492999893,1679.1730086999887,,,,1679.1789367999882,1679.190554700006,1679.190554700006,1679.2389093000093,1679.2391346000077,1679.2549923000042,1679.2549923000042,1679.2549923000042,1679.3385861999996,1679.6386737999856,,,,,,,,,,,,,,,,,,,,,,down,5.324417600000743,None,space,0.3776235999830533,None,P118,001,2025-02-20_10h48.33.681,posner_endo_new1,2024.2.4,60.016336452400154,2025-02-20 10h48.42.339149 +0000,
cube_r.png,0.1,-0.31,invalid,48,48,0,down,2.618336999992607,None,space,0.3756238000059966,None,,,,,,,,,0,48,48,48,1679.6548909999838,,,,,,,,,,,,,1679.6388540999906,1679.6548909999838,1679.6548909999838,1679.6548909999838,1682.2862057999882,,,,1682.2922158000001,1682.3036031000083,1682.3036031000083,1682.3522276000003,1682.3524548999849,1682.3692016999994,1682.3692016999994,1682.3692016999994,1682.435657599999,1682.7525289999903,,,,,,,,,,,,,,,,,,,,,,down,2.618336999992607,None,space,0.3756238000059966,None,P118,001,2025-02-20_10h48.33.681,posner_endo_new1,2024.2.4,60.016336452400154,2025-02-20 10h48.42.339149 +0000,
cube_r.png,0.1,10,catch,49,49,0,down,2.3367177000036463,None,None,,,,,,,,,,,0,49,49,49,1682.7684842000017,,,,,,,,,,,,,1682.752701999998,1682.7684842000017,1682.7684842000017,1682.7684842000017,1685.1168245000008,,,,1685.1228163999913,1685.1345303999842,1685.1345303999842,1685.1831153999956,1685.183338200004,1685.1988891999936,1685.1988891999936,1685.1988891999936,1685.2827149000077,1688.1978311999992,,,,1687.2973641999997,1688.21313009999,1688.21313009999,1688.21313009999,,,,,,,,,,,,,,,down,2.3367177000036463,None,None,,,P118,001,2025-02-20_10h48.33.681,posner_endo_new1,2024.2.4,60.016336452400154,2025-02-20 10h48.42.339149 +0000,
cube_l.png,0.1,-0.31,valid,50,50,0,down,3.1960663000063505,None,space,0.4285735999874305,None,,,,,,,,,0,50,50,50,1688.21313009999,,,,,,,,,,,,,1688.1983744000026,1688.21313009999,1688.21313009999,1688.21313009999,1691.4123693000001,,,,1691.4355021000083,1691.447772399988,1691.447772399988,1691.4760315000021,1691.4764184000087,1691.4924922999926,1691.4924922999926,1691.4924922999926,1691.5757285,1691.9267943000013,,,,,,,,,,,,,,,,,,,,,,down,3.1960663000063505,None,space,0.4285735999874305,None,P118,001,2025-02-20_10h48.33.681,posner_endo_new1,2024.2.4,60.016336452400154,2025-02-20 10h48.42.339149 +0000,
cube_l.png,0.1,-0.31,valid,51,51,0,down,6.242736699990928,None,space,0.4046041999827139,None,,,,,,,,,0,51,51,51,1691.9420211999968,,,,,,,,,,,,,1691.9271394000098,1691.9420211999968,1691.9420211999968,1691.9420211999968,1698.1872564000078,,,,1698.2001982000074,1698.210216699983,1698.210216699983,1698.2524378999951,1698.2528291000053,1698.2689121000003,1698.2689121000003,1698.2689121000003,1698.35216390001,1698.6864694999822,,,,,,,,,,,,,,,,,,,,,,down,6.242736699990928,None,space,0.4046041999827139,None,P118,001,2025-02-20_10h48.33.681,posner_endo_new1,2024.2.4,60.016336452400154,2025-02-20 10h48.42.339149 +0000,
cube_r.png,0.1,-0.31,invalid,52,52,0,down,6.387493699992774,None,space,0.48136010000598617,None,,,,,,,,,0,52,52,52,1698.7017978999938,,,,,,,,,,,,,1698.686804500001,1698.7017978999938,1698.7017978999938,1698.7017978999938,1705.0965748000017,,,,1705.1049712999957,1705.115411100007,1705.115411100007,1705.1623102999874,1705.1625870999997,1705.1789816000091,1705.1789816000091,1705.1789816000091,1705.2622456999961,1705.6645635000023,,,,,,,,,,,,,,,,,,,,,,down,6.387493699992774,None,space,0.48136010000598617,None,P118,001,2025-02-20_10h48.33.681,posner_endo_new1,2024.2.4,60.016336452400154,2025-02-20 10h48.42.339149 +0000,
cube_l.png,0.1,-0.31,valid,53,53,0,down,6.402493999979924,None,space,0.34981210000114515,None,,,,,,,,,0,53,53,53,1705.6788030999887,,,,,,,,,,,,,1705.6651708999998,1705.6788030999887,1705.6788030999887,1705.6788030999887,1712.0911857000028,,,,1712.1142656999873,1712.1264407999988,1712.1264407999988,1712.1548983000102,1712.1553292000026,1712.1713751000061,1712.1713751000061,1712.1713751000061,1712.2546213000023,1712.522569199995,,,,,,,,,,,,,,,,,,,,,,down,6.402493999979924,None,space,0.34981210000114515,None,P118,001,2025-02-20_10h48.33.681,posner_endo_new1,2024.2.4,60.016336452400154,2025-02-20 10h48.42.339149 +0000,
cube_r.png,0.1,10,catch,54,54,0,down,4.487638999999035,None,None,,,,,,,,,,,0,54,54,54,1712.5376580999873,,,,,,,,,,,,,1712.5229084999883,1712.5376580999873,1712.5376580999873,1712.5376580999873,1717.036292600009,,,,1717.0593642999884,1717.0715346999932,1717.0715346999932,1717.0998447999882,1717.1002355999954,1717.1163202000025,1717.1163202000025,1717.1163202000025,1717.1995637000073,1720.1140537000028,,,,1719.2141751000017,1720.1298937000101,1720.1298937000101,1720.1298937000101,,,,,,,,,,,,,,,down,4.487638999999035,None,None,,,P118,001,2025-02-20_10h48.33.681,posner_endo_new1,2024.2.4,60.016336452400154,2025-02-20 10h48.42.339149 +0000,
cube_l.png,0.1,0.31,invalid,55,55,0,down,3.0711360000132117,None,space,0.41149620001669973,None,,,,,,,,,0,55,55,55,1720.1298937000101,,,,,,,,,,,,,1720.1143613999884,1720.1298937000101,1720.1298937000101,1720.1298937000101,1723.2114527999947,,,,1723.2242874999938,1723.2343435999937,1723.2343435999937,1723.2768571999914,1723.2772467999894,1723.2933335999842,1723.2933335999842,1723.2933335999842,1723.3765868000046,1723.711028699996,,,,,,,,,,,,,,,,,,,,,,down,3.0711360000132117,None,space,0.41149620001669973,None,P118,001,2025-02-20_10h48.33.681,posner_endo_new1,2024.2.4,60.016336452400154,2025-02-20 10h48.42.339149 +0000,
cube_l.png,0.1,-0.31,valid,56,56,0,down,5.514630899997428,None,space,0.42339939999510534,None,,,,,,,,,0,56,56,56,1723.72623629999,,,,,,,,,,,,,1723.711356099986,1723.72623629999,1723.72623629999,1723.72623629999,1729.2552433999954,,,,1729.2679044999823,1729.2779318999965,1729.2779318999965,1729.3209908999852,1729.3212523999973,1729.3375760999916,1729.3375760999916,1729.3375760999916,1729.4208278000006,1729.77138369999,,,,,,,,,,,,,,,,,,,,,,down,5.514630899997428,None,space,0.42339939999510534,None,P118,001,2025-02-20_10h48.33.681,posner_endo_new1,2024.2.4,60.016336452400154,2025-02-20 10h48.42.339149 +0000,
cube_r.png,0.1,0.31,valid,57,57,0,down,2.926528199983295,None,space,0.45096789998933673,None,,,,,,,,,0,57,57,57,1729.787149699987,,,,,,,,,,,,,1729.7716014999896,1729.787149699987,1729.787149699987,1729.787149699987,1732.7182884000067,,,,1732.7260857000074,1732.7370047000004,1732.7370047000004,1732.7842275000003,1732.7844885000086,1732.8006819000002,1732.8006819000002,1732.8006819000002,1732.8839872000099,1733.2678706999868,,,,,,,,,,,,,,,,,,,,,,down,2.926528199983295,None,space,0.45096789998933673,None,P118,001,2025-02-20_10h48.33.681,posner_endo_new1,2024.2.4,60.016336452400154,2025-02-20 10h48.42.339149 +0000,
cube_r.png,0.1,-0.31,invalid,58,58,0,down,5.55744269999559,None,space,0.3624910000071395,None,,,,,,,,,0,58,58,58,1733.2835791999823,,,,,,,,,,,,,1733.268080299982,1733.2835791999823,1733.2835791999823,1733.2835791999823,1738.8455547000049,,,,1738.8534825000097,1738.8641960000095,1738.8641960000095,1738.9113193000085,1738.91157940001,1738.9277582000068,1738.9277582000068,1738.9277582000068,1739.011127100006,1739.2951086999965,,,,,,,,,,,,,,,,,,,,,,down,5.55744269999559,None,space,0.3624910000071395,None,P118,001,2025-02-20_10h48.33.681,posner_endo_new1,2024.2.4,60.016336452400154,2025-02-20 10h48.42.339149 +0000,
cube_l.png,0.1,0.31,invalid,59,59,0,down,4.947542400012026,None,space,0.3568758000037633,None,,,,,,,,,0,59,59,59,1739.31079280001,,,,,,,,,,,,,1739.295322799997,1739.31079280001,1739.31079280001,1739.31079280001,1744.273124200001,,,,1744.280976399983,1744.291862699989,1744.291862699989,1744.3392011999968,1744.3394739000069,1744.3556000000099,1744.3556000000099,1744.3556000000099,1744.4222129999835,1744.7227387999883,,,,,,,,,,,,,,,,,,,,,,down,4.947542400012026,None,space,0.3568758000037633,None,P118,001,2025-02-20_10h48.33.681,posner_endo_new1,2024.2.4,60.016336452400154,2025-02-20 10h48.42.339149 +0000,
