cue_img,cue_soa,target_y,trial,thisN,thisTrialN,thisRepN,key_control2.keys,key_control2.rt,key_control2.duration,key_resp.keys,key_resp.rt,key_resp.duration,practice.thisRepN,practice.thisTrialN,practice.thisN,practice.thisIndex,block1.thisRepN,block1.thisTrialN,block1.thisN,block1.thisIndex,block2.thisRepN,block2.thisTrialN,block2.thisN,block2.thisIndex,thisRow.t,notes,instructions.started,instructions_txt.started,key_control.started,instructions.stopped,key_control.keys,key_control.rt,key_control.duration,ready.started,ready_txt.started,ready_txt.stopped,ready.stopped,fix.started,fixation.started,key_control2.started,fixation_cross.started,fix.stopped,practice.key_control2.keys,practice.key_control2.rt,practice.key_control2.duration,cue.started,cube.started,fixation_cross_cue.started,cue.stopped,target.started,fixation_target.started,fixation_cross_target.started,key_resp.started,star.started,target.stopped,practice.key_resp.keys,practice.key_resp.rt,practice.key_resp.duration,star.stopped,fixation_target.stopped,fixation_cross_target.stopped,key_resp.stopped,block1.key_control2.keys,block1.key_control2.rt,block1.key_control2.duration,block1.key_resp.keys,block1.key_resp.rt,block1.key_resp.duration,break_2.started,text.started,key_control3.started,text.stopped,break_2.stopped,key_control3.keys,key_control3.rt,key_control3.duration,block2.key_control2.keys,block2.key_control2.rt,block2.key_control2.duration,block2.key_resp.keys,block2.key_resp.rt,block2.key_resp.duration,cube.stopped,fixation_cross_cue.stopped,participant,session,date,expName,psychopyVersion,frameRate,expStart,
,,,,,,,,,,,,,,,,,,,,,,,,,,,0.007639900024514645,0.02860369998961687,0.02860369998961687,534.1744694000226,up,534.1304743000073,None,,,,,,,,,,,,,,,,,,,,,,,,,,,,,,,,,,,,,,,,,,,,,,,,,,,,P119,001,2025-02-20_13h49.54.472,posner_endo_new1,2024.2.4,60.01684073496687,2025-02-20 13h50.01.740720 +0000,
,,,,,,,,,,,,,,,,,,,,,,,,,,,,,,,,,,534.1745518000098,534.186277700006,537.2068387999898,537.1672298000194,,,,,,,,,,,,,,,,,,,,,,,,,,,,,,,,,,,,,,,,,,,,,,,,P119,001,2025-02-20_13h49.54.472,posner_endo_new1,2024.2.4,60.01684073496687,2025-02-20 13h50.01.740720 +0000,
cube_l.png,0.1,-0.31,valid,0,0,0,down,9.21695119998185,None,space,0.953267999982927,None,0,0,0,0,,,,,,,,,537.2068387999898,,,,,,,,,,,,,537.1940828000079,537.2068387999898,537.2068387999898,537.2068387999898,546.4261065000319,down,9.21695119998185,None,546.4656224999926,546.4763356000185,546.4763356000185,546.4765474000014,546.4768637000234,546.4892820999958,546.4892820999958,546.4892820999958,546.5895476000151,547.4579195000115,space,0.953267999982927,None,,,,,,,,,,,,,,,,,,,,,,,,,,,P119,001,2025-02-20_13h49.54.472,posner_endo_new1,2024.2.4,60.01684073496687,2025-02-20 13h50.01.740720 +0000,
cube_l.png,0.1,0.31,invalid,1,1,0,down,2.4952099000220187,None,space,0.7760548000223935,None,0,1,1,1,,,,,,,,,547.4722089000279,,,,,,,,,,,,,547.458479700028,547.4722089000279,547.4722089000279,547.4722089000279,549.9720128999907,down,2.4952099000220187,None,549.9962823999813,550.0083441000315,550.0083441000315,550.0357604000019,550.0361493999953,550.0522367000231,550.0522367000231,550.0522367000231,550.1354686000268,550.8377980000223,space,0.7760548000223935,None,,,,,,,,,,,,,,,,,,,,,,,,,,,P119,001,2025-02-20_13h49.54.472,posner_endo_new1,2024.2.4,60.01684073496687,2025-02-20 13h50.01.740720 +0000,
cube_r.png,0.1,-0.31,invalid,2,2,0,down,2.6110229000332765,None,space,0.6875810000346974,None,0,2,2,2,,,,,,,,,550.8521885999944,,,,,,,,,,,,,550.8383591999882,550.8521885999944,550.8521885999944,550.8521885999944,553.4686222000164,down,2.6110229000332765,None,553.4920873999945,553.5045335000032,553.5045335000032,553.5323208000045,553.5327582000173,553.5487886000192,553.5487886000192,553.5487886000192,553.6320108000073,554.2496437000227,space,0.6875810000346974,None,,,,,,,,,,,,,,,,,,,,,,,,,,,P119,001,2025-02-20_13h49.54.472,posner_endo_new1,2024.2.4,60.01684073496687,2025-02-20 13h50.01.740720 +0000,
cube_r.png,0.1,10,catch,3,3,0,down,2.894145699974615,None,None,,,0,3,3,3,,,,,,,,,554.2646986999898,,,,,,,,,,,,,554.2500024000183,554.2646986999898,554.2646986999898,554.2646986999898,557.1633898,down,2.894145699974615,None,557.1778388000093,557.1882163999835,557.1882163999835,557.2285357000073,557.2289725000155,557.2449917999911,557.2449917999911,557.2449917999911,557.3282611999894,560.2428632000228,None,,,559.3431281000376,560.258895899984,560.258895899984,560.258895899984,,,,,,,,,,,,,,,,,,,,,,,P119,001,2025-02-20_13h49.54.472,posner_endo_new1,2024.2.4,60.01684073496687,2025-02-20 13h50.01.740720 +0000,
cube_l.png,0.1,-0.31,valid,4,4,0,down,0.7487143999896944,None,space,0.5239877999993041,None,0,4,4,4,,,,,,,,,560.258895899984,,,,,,,,,,,,,560.2430838000146,560.258895899984,560.258895899984,560.258895899984,561.0092103999923,down,0.7487143999896944,None,561.0188857000321,561.0290486000013,561.0290486000013,561.0749050999875,561.0752183999866,561.0913204000099,561.0913204000099,561.0913204000099,561.1746361000114,561.6252531000064,space,0.5239877999993041,None,,,,,,,,,,,,,,,,,,,,,,,,,,,P119,001,2025-02-20_13h49.54.472,posner_endo_new1,2024.2.4,60.01684073496687,2025-02-20 13h50.01.740720 +0000,
cube_l.png,0.1,0.31,invalid,5,5,0,down,3.326673499948811,None,space,0.4567759999772534,None,0,5,5,5,,,,,,,,,561.6408306999947,,,,,,,,,,,,,561.6254918000195,561.6408306999947,561.6408306999947,561.6408306999947,564.9720376000041,down,3.326673499948811,None,564.981794500025,564.9918183999835,564.9918183999835,565.0374613000313,565.0377668000292,565.0540471000131,565.0540471000131,565.0540471000131,565.1371970000328,565.5212576999911,space,0.4567759999772534,None,,,,,,,,,,,,,,,,,,,,,,,,,,,P119,001,2025-02-20_13h49.54.472,posner_endo_new1,2024.2.4,60.01684073496687,2025-02-20 13h50.01.740720 +0000,
cube_r.png,0.1,-0.31,invalid,6,6,0,down,3.638603699975647,None,space,0.8219716000021435,None,0,6,6,6,,,,,,,,,565.5368347000331,,,,,,,,,,,,,565.5215009999811,565.5368347000331,565.5368347000331,565.5368347000331,569.1840903999982,down,3.638603699975647,None,569.1937695000088,569.2041116000037,569.2041116000037,569.249733500008,569.2500358999823,569.2662555000279,569.2662555000279,569.2662555000279,569.3496783000301,570.0998246999807,space,0.8219716000021435,None,,,,,,,,,,,,,,,,,,,,,,,,,,,P119,001,2025-02-20_13h49.54.472,posner_endo_new1,2024.2.4,60.01684073496687,2025-02-20 13h50.01.740720 +0000,
cube_r.png,0.1,0.31,valid,7,7,0,down,2.068005999957677,None,space,0.5987216000212356,None,0,7,7,7,,,,,,,,,570.1154663999914,,,,,,,,,,,,,570.1000672000227,570.1154663999914,570.1154663999914,570.1154663999914,572.1976762000122,down,2.068005999957677,None,572.2074747000006,572.2176956000039,572.2176956000039,572.2634485000162,572.263750699989,572.2799485999858,572.2799485999858,572.2799485999858,572.3632788999821,572.8804845000268,space,0.5987216000212356,None,,,,,,,,,,,,,,,,,,,,,,,,,,,P119,001,2025-02-20_13h49.54.472,posner_endo_new1,2024.2.4,60.01684073496687,2025-02-20 13h50.01.740720 +0000,
cube_l.png,0.1,-0.31,valid,8,8,0,down,3.8793895000126213,None,space,0.45495419995859265,None,0,8,8,8,,,,,,,,,572.8960342000355,,,,,,,,,,,,,572.8807253999985,572.8960342000355,572.8960342000355,572.8960342000355,576.7765331999981,down,3.8793895000126213,None,576.7862807000056,576.7964171000058,576.7964171000058,576.8421183000319,576.8424229000229,576.8586817000178,576.8586817000178,576.8586817000178,576.9418331999914,577.3256715000025,space,0.45495419995859265,None,,,,,,,,,,,,,,,,,,,,,,,,,,,P119,001,2025-02-20_13h49.54.472,posner_endo_new1,2024.2.4,60.01684073496687,2025-02-20 13h50.01.740720 +0000,
cube_r.png,0.1,-0.31,invalid,9,9,0,down,2.9937197000253946,None,space,0.5915127000189386,None,0,9,9,9,,,,,,,,,577.3413902000175,,,,,,,,,,,,,577.3259089000057,577.3413902000175,577.3413902000175,577.3413902000175,580.339538900007,down,2.9937197000253946,None,580.3492578000296,580.359373299987,580.359373299987,580.4050447000191,580.4053484000033,580.4216159000061,580.4216159000061,580.4216159000061,580.5049158000038,581.02210870001,space,0.5915127000189386,None,,,,,,,,,,,,,,,,,,,,,,,,,,,P119,001,2025-02-20_13h49.54.472,posner_endo_new1,2024.2.4,60.01684073496687,2025-02-20 13h50.01.740720 +0000,
cube_r.png,0.1,0.31,valid,10,10,0,down,3.9312598999822512,None,space,0.5012684999965131,None,0,10,10,10,,,,,,,,,581.0376910000341,,,,,,,,,,,,,581.0223456000094,581.0376910000341,581.0376910000341,581.0376910000341,584.9848845000379,down,3.9312598999822512,None,584.994540899992,585.0048057999811,585.0048057999811,585.0504084000131,585.0507103999844,585.0669157000375,585.0669157000375,585.0669157000375,585.1502034000005,585.5841308999807,space,0.5012684999965131,None,,,,,,,,,,,,,,,,,,,,,,,,,,,P119,001,2025-02-20_13h49.54.472,posner_endo_new1,2024.2.4,60.01684073496687,2025-02-20 13h50.01.740720 +0000,
,,,,,,,,,,,,,,,,,,,,,,,,,,,,,,,,,,585.5842872000067,585.5996786000323,588.6100456999848,588.5805486000027,,,,,,,,,,,,,,,,,,,,,,,,,,,,,,,,,,,,,,,,,,,,,,,,P119,001,2025-02-20_13h49.54.472,posner_endo_new1,2024.2.4,60.01684073496687,2025-02-20 13h50.01.740720 +0000,
cube_l.png,0.1,10,catch,0,0,0,down,11.174520100001246,None,None,,,,,,,0,0,0,0,,,,,588.6100456999848,,,,,,,,,,,,,588.5988628999912,588.6100456999848,588.6100456999848,588.6100456999848,599.786361400038,,,,599.7962509000208,599.8063302999944,599.8063302999944,599.8519769000122,599.8522890000022,599.8683551999857,599.8683551999857,599.8683551999857,599.9516783999861,602.8659601000254,,,,601.9664042000077,602.8819912000326,602.8819912000326,602.8819912000326,down,11.174520100001246,None,None,,,,,,,,,,,,,,,,,,,P119,001,2025-02-20_13h49.54.472,posner_endo_new1,2024.2.4,60.01684073496687,2025-02-20 13h50.01.740720 +0000,
cube_l.png,0.1,10,catch,1,1,0,down,1.9407546000438742,None,None,,,,,,,0,1,1,1,,,,,602.8819912000326,,,,,,,,,,,,,602.8661987000378,602.8819912000326,602.8819912000326,602.8819912000326,604.8312938000308,,,,604.8411646999884,604.8513098999974,604.8513098999974,604.896673100011,604.8969844999956,604.91330200003,604.91330200003,604.91330200003,604.9965474000201,607.9108340000384,,,,607.0110110000242,607.9272662000149,607.9272662000149,607.9272662000149,down,1.9407546000438742,None,None,,,,,,,,,,,,,,,,,,,P119,001,2025-02-20_13h49.54.472,posner_endo_new1,2024.2.4,60.01684073496687,2025-02-20 13h50.01.740720 +0000,
cube_l.png,0.1,0.31,invalid,2,2,0,down,0.7116659000166692,None,space,0.5071264000143856,None,,,,,0,2,2,2,,,,,607.9272662000149,,,,,,,,,,,,,607.9110721999896,607.9272662000149,607.9272662000149,607.9272662000149,608.6440376000246,,,,608.6534302000073,608.6630742999841,608.6630742999841,608.7095564000192,608.7097796000307,608.7260351000004,608.7260351000004,608.7260351000004,608.8093694000272,609.2428547000163,,,,,,,,down,0.7116659000166692,None,space,0.5071264000143856,None,,,,,,,,,,,,,,,,,P119,001,2025-02-20_13h49.54.472,posner_endo_new1,2024.2.4,60.01684073496687,2025-02-20 13h50.01.740720 +0000,
cube_l.png,0.1,0.31,invalid,3,3,0,down,3.6524626000318676,None,space,0.45733830000972375,None,,,,,0,3,3,3,,,,,609.258908400021,,,,,,,,,,,,,609.2430280999979,609.258908400021,609.258908400021,609.258908400021,612.9224533999804,,,,612.9286407000036,612.9403422999894,612.9403422999894,612.9885099999956,612.9887334000086,613.0049142999924,613.0049142999924,613.0049142999924,613.071609799983,613.4719463000074,,,,,,,,down,3.6524626000318676,None,space,0.45733830000972375,None,,,,,,,,,,,,,,,,,P119,001,2025-02-20_13h49.54.472,posner_endo_new1,2024.2.4,60.01684073496687,2025-02-20 13h50.01.740720 +0000,
cube_l.png,0.1,-0.31,valid,4,4,0,down,3.887084699992556,None,space,0.43065729999216273,None,,,,,0,4,4,4,,,,,613.4877456999966,,,,,,,,,,,,,613.4721238000202,613.4877456999966,613.4877456999966,613.4877456999966,617.384896899981,,,,617.3946918000001,617.4048153000185,617.4048153000185,617.4506150000379,617.4509217999876,617.466992600006,617.466992600006,617.466992600006,617.5503883000347,617.9009696000139,,,,,,,,down,3.887084699992556,None,space,0.43065729999216273,None,,,,,,,,,,,,,,,,,P119,001,2025-02-20_13h49.54.472,posner_endo_new1,2024.2.4,60.01684073496687,2025-02-20 13h50.01.740720 +0000,
cube_r.png,0.1,-0.31,invalid,5,5,0,down,3.8905205000191927,None,space,0.4880464000161737,None,,,,,0,5,5,5,,,,,617.916718500026,,,,,,,,,,,,,617.9012193999952,617.916718500026,617.916718500026,617.916718500026,621.8138127999846,,,,621.8233872000128,621.8330599000328,621.8330599000328,621.8793787999894,621.8796020000009,621.8959934000159,621.8959934000159,621.8959934000159,621.9792211999884,622.3960522999987,,,,,,,,down,3.8905205000191927,None,space,0.4880464000161737,None,,,,,,,,,,,,,,,,,P119,001,2025-02-20_13h49.54.472,posner_endo_new1,2024.2.4,60.01684073496687,2025-02-20 13h50.01.740720 +0000,
cube_r.png,0.1,0.31,valid,6,6,0,down,3.9956628000363708,None,space,0.41857789998175576,None,,,,,0,6,6,6,,,,,622.4120243000216,,,,,,,,,,,,,622.3962237000233,622.4120243000216,622.4120243000216,622.4120243000216,626.4087719999952,,,,626.4148466000333,626.426973499998,626.426973499998,626.4746852000244,626.4749066000222,626.491260299983,626.491260299983,626.491260299983,626.5747398000094,626.9247692000354,,,,,,,,down,3.9956628000363708,None,space,0.41857789998175576,None,,,,,,,,,,,,,,,,,P119,001,2025-02-20_13h49.54.472,posner_endo_new1,2024.2.4,60.01684073496687,2025-02-20 13h50.01.740720 +0000,
cube_r.png,0.1,-0.31,invalid,7,7,0,down,3.5469810000504367,None,space,0.4997798000113107,None,,,,,0,7,7,7,,,,,626.9406981000211,,,,,,,,,,,,,626.9249406000017,626.9406981000211,626.9406981000211,626.9406981000211,630.5044845000375,,,,630.5105586000136,630.5220638000173,630.5220638000173,630.5704701000359,630.5709753999836,630.5869092000066,630.5869092000066,630.5869092000066,630.670160699985,631.0885709000286,,,,,,,,down,3.5469810000504367,None,space,0.4997798000113107,None,,,,,,,,,,,,,,,,,P119,001,2025-02-20_13h49.54.472,posner_endo_new1,2024.2.4,60.01684073496687,2025-02-20 13h50.01.740720 +0000,
cube_l.png,0.1,-0.31,valid,8,8,0,down,3.4964166000136174,None,space,0.30922719999216497,None,,,,,0,8,8,8,,,,,631.1029931000085,,,,,,,,,,,,,631.0890293000266,631.1029931000085,631.1029931000085,631.1029931000085,634.6008697000216,,,,634.6125107000116,634.6228354999912,634.6228354999912,634.6664592000307,634.6668033000315,634.6828846000135,634.6828846000135,634.6828846000135,634.7661234000116,635.0004246000317,,,,,,,,down,3.4964166000136174,None,space,0.30922719999216497,None,,,,,,,,,,,,,,,,,P119,001,2025-02-20_13h49.54.472,posner_endo_new1,2024.2.4,60.01684073496687,2025-02-20 13h50.01.740720 +0000,
cube_r.png,0.1,-0.31,invalid,9,9,0,down,3.9115431000245735,None,space,0.3953499000053853,None,,,,,0,9,9,9,,,,,635.0158613999956,,,,,,,,,,,,,635.0007124000113,635.0158613999956,635.0158613999956,635.0158613999956,638.9302202999825,,,,638.9417732000002,638.9520562000107,638.9520562000107,638.9953381000087,638.9956810000003,639.0117833000259,639.0117833000259,639.0117833000259,639.0950074000284,639.4126241999911,,,,,,,,down,3.9115431000245735,None,space,0.3953499000053853,None,,,,,,,,,,,,,,,,,P119,001,2025-02-20_13h49.54.472,posner_endo_new1,2024.2.4,60.01684073496687,2025-02-20 13h50.01.740720 +0000,
cube_l.png,0.1,0.31,invalid,10,10,0,down,3.898985299980268,None,space,0.4376769000082277,None,,,,,0,10,10,10,,,,,639.428258400003,,,,,,,,,,,,,639.4129121000296,639.428258400003,639.428258400003,639.428258400003,643.3415791000007,,,,643.3490307999891,643.3604868000257,643.3604868000257,643.4075075000292,643.4077678000322,643.4240370999905,643.4240370999905,643.4240370999905,643.5071740000276,643.8744364000158,,,,,,,,down,3.898985299980268,None,space,0.4376769000082277,None,,,,,,,,,,,,,,,,,P119,001,2025-02-20_13h49.54.472,posner_endo_new1,2024.2.4,60.01684073496687,2025-02-20 13h50.01.740720 +0000,
cube_r.png,0.1,-0.31,invalid,11,11,0,down,3.1497591999941505,None,space,0.4504538999754004,None,,,,,0,11,11,11,,,,,643.890100300021,,,,,,,,,,,,,643.8746321999934,643.890100300021,643.890100300021,643.890100300021,647.0542433999944,,,,647.0605826000101,647.0721345000202,647.0721345000202,647.1203168000211,647.1205419999897,647.1368597000255,647.1368597000255,647.1368597000255,647.2033920999966,647.6036434000125,,,,,,,,down,3.1497591999941505,None,space,0.4504538999754004,None,,,,,,,,,,,,,,,,,P119,001,2025-02-20_13h49.54.472,posner_endo_new1,2024.2.4,60.01684073496687,2025-02-20 13h50.01.740720 +0000,
cube_r.png,0.1,0.31,valid,12,12,0,down,3.388264400011394,None,space,0.42054469999857247,None,,,,,0,12,12,12,,,,,647.6197153999819,,,,,,,,,,,,,647.6038150999811,647.6197153999819,647.6197153999819,647.6197153999819,651.0170147999888,,,,651.0267817000276,651.0368760999991,651.0368760999991,651.0829119000118,651.083223499998,651.0994982999982,651.0994982999982,651.0994982999982,651.1827096000197,651.5333264000365,,,,,,,,down,3.388264400011394,None,space,0.42054469999857247,None,,,,,,,,,,,,,,,,,P119,001,2025-02-20_13h49.54.472,posner_endo_new1,2024.2.4,60.01684073496687,2025-02-20 13h50.01.740720 +0000,
cube_l.png,0.1,10,catch,13,13,0,down,3.4347814000211656,None,space,0.3440337000065483,None,,,,,0,13,13,13,,,,,651.5489272000268,,,,,,,,,,,,,651.533574000001,651.5489272000268,651.5489272000268,651.5489272000268,654.9965410000295,,,,655.0047769999946,655.0150069000083,655.0150069000083,655.062387700018,655.0626125999843,655.0786506999866,655.0786506999866,655.0786506999866,655.1621032999828,655.4290141999954,,,,,,,,down,3.4347814000211656,None,space,0.3440337000065483,None,,,,,,,,,,,,,,,,,P119,001,2025-02-20_13h49.54.472,posner_endo_new1,2024.2.4,60.01684073496687,2025-02-20 13h50.01.740720 +0000,
cube_r.png,0.1,-0.31,invalid,14,14,0,down,3.2345112999901175,None,space,0.6679064999916591,None,,,,,0,14,14,14,,,,,655.4449272000347,,,,,,,,,,,,,655.4291875000345,655.4449272000347,655.4449272000347,655.4449272000347,658.6922551000025,,,,658.6987164000166,658.7104212000268,658.7104212000268,658.758520500036,658.7587452000007,658.774838900019,658.774838900019,658.774838900019,658.8415283000213,659.4583455999964,,,,,,,,down,3.2345112999901175,None,space,0.6679064999916591,None,,,,,,,,,,,,,,,,,P119,001,2025-02-20_13h49.54.472,posner_endo_new1,2024.2.4,60.01684073496687,2025-02-20 13h50.01.740720 +0000,
cube_l.png,0.1,-0.31,valid,15,15,0,down,3.045276399992872,None,space,0.3949012999655679,None,,,,,0,15,15,15,,,,,659.4742320000078,,,,,,,,,,,,,659.4585159000126,659.4742320000078,659.4742320000078,659.4742320000078,662.5223499999847,,,,662.5341018000036,662.5445594000048,662.5445594000048,662.587868600036,662.5882098000147,662.6043575000367,662.6043575000367,662.6043575000367,662.6877010000171,663.0050738999853,,,,,,,,down,3.045276399992872,None,space,0.3949012999655679,None,,,,,,,,,,,,,,,,,P119,001,2025-02-20_13h49.54.472,posner_endo_new1,2024.2.4,60.01684073496687,2025-02-20 13h50.01.740720 +0000,
cube_r.png,0.1,10,catch,16,16,0,down,3.0351826999685727,None,None,,,,,,,0,16,16,16,,,,,663.0205621999921,,,,,,,,,,,,,663.0053673000075,663.0205621999921,663.0205621999921,663.0205621999921,666.0687081000069,,,,666.0802715999889,666.0905600999831,666.0905600999831,666.1342386000324,666.1345812000218,666.1507089000079,666.1507089000079,666.1507089000079,666.2339508000296,669.148331400007,,,,668.2486669000355,669.1642867000191,669.1642867000191,669.1642867000191,down,3.0351826999685727,None,None,,,,,,,,,,,,,,,,,,,P119,001,2025-02-20_13h49.54.472,posner_endo_new1,2024.2.4,60.01684073496687,2025-02-20 13h50.01.740720 +0000,
cube_r.png,0.1,10,catch,17,17,0,down,0.8271746999816969,None,None,,,,,,,0,17,17,17,,,,,669.1642867000191,,,,,,,,,,,,,669.148597899999,669.1642867000191,669.1642867000191,669.1642867000191,669.9979892999982,,,,670.0065364000038,670.0166417,670.0166417,670.0636044000275,670.0638304000022,670.0801252000383,670.0801252000383,670.0801252000383,670.1634593000053,673.0774441999965,,,,672.177969500015,673.093702299986,673.093702299986,673.093702299986,down,0.8271746999816969,None,None,,,,,,,,,,,,,,,,,,,P119,001,2025-02-20_13h49.54.472,posner_endo_new1,2024.2.4,60.01684073496687,2025-02-20 13h50.01.740720 +0000,
cube_l.png,0.1,0.31,invalid,18,18,0,down,0.522144099988509,None,space,0.47348490002332255,None,,,,,0,18,18,18,,,,,673.093702299986,,,,,,,,,,,,,673.077604399994,673.093702299986,673.093702299986,673.093702299986,673.6271381999832,,,,673.6331689000363,673.6448684000061,673.6448684000061,673.6933116000146,673.693533600017,673.709760400001,673.709760400001,673.709760400001,673.7760393000208,674.1931001000339,,,,,,,,down,0.522144099988509,None,space,0.47348490002332255,None,,,,,,,,,,,,,,,,,P119,001,2025-02-20_13h49.54.472,posner_endo_new1,2024.2.4,60.01684073496687,2025-02-20 13h50.01.740720 +0000,
cube_l.png,0.1,10,catch,19,19,0,down,2.7423804000136442,None,None,,,,,,,0,19,19,19,,,,,674.209038400033,,,,,,,,,,,,,674.193271600001,674.209038400033,674.209038400033,674.209038400033,676.9571456999984,,,,676.9687323999824,676.9808530000155,676.9808530000155,677.0234724000329,677.024128900026,677.0398588000098,677.0398588000098,677.0398588000098,677.106427700026,680.0382591999951,,,,679.1210384999868,680.0533973000129,680.0533973000129,680.0533973000129,down,2.7423804000136442,None,None,,,,,,,,,,,,,,,,,,,P119,001,2025-02-20_13h49.54.472,posner_endo_new1,2024.2.4,60.01684073496687,2025-02-20 13h50.01.740720 +0000,
cube_l.png,0.1,0.31,invalid,20,20,0,down,0.35390950000146404,None,space,0.48873809998622164,None,,,,,0,20,20,20,,,,,680.0533973000129,,,,,,,,,,,,,680.0388148000347,680.0533973000129,680.0533973000129,680.0533973000129,680.4221525000175,,,,680.4439935000264,680.4540654000011,680.4540654000011,680.4859673000174,680.4863634000067,680.5023919999949,680.5023919999949,680.5023919999949,680.5855595000321,681.0049101000186,,,,,,,,down,0.35390950000146404,None,space,0.48873809998622164,None,,,,,,,,,,,,,,,,,P119,001,2025-02-20_13h49.54.472,posner_endo_new1,2024.2.4,60.01684073496687,2025-02-20 13h50.01.740720 +0000,
cube_l.png,0.1,-0.31,valid,21,21,0,down,3.620603099989239,None,space,0.45315149996895343,None,,,,,0,21,21,21,,,,,681.0193015999976,,,,,,,,,,,,,681.0055095999851,681.0193015999976,681.0193015999976,681.0193015999976,684.6512586000026,,,,684.6735708999913,684.6840036000358,684.6840036000358,684.7152316999855,684.7155868000118,684.7316281999811,684.7316281999811,684.7316281999811,684.8149991999962,685.1988210999989,,,,,,,,down,3.620603099989239,None,space,0.45315149996895343,None,,,,,,,,,,,,,,,,,P119,001,2025-02-20_13h49.54.472,posner_endo_new1,2024.2.4,60.01684073496687,2025-02-20 13h50.01.740720 +0000,
cube_r.png,0.1,0.31,valid,22,22,0,down,3.168954099994153,None,space,0.4713297999696806,None,,,,,0,22,22,22,,,,,685.2141446000314,,,,,,,,,,,,,685.1991546000354,685.2141446000314,685.2141446000314,685.2141446000314,688.3952764000278,,,,688.402673500008,688.4144896999933,688.4144896999933,688.4613304000231,688.4618257000111,688.4777343000169,688.4777343000169,688.4777343000169,688.5443711000262,688.9624807999935,,,,,,,,down,3.168954099994153,None,space,0.4713297999696806,None,,,,,,,,,,,,,,,,,P119,001,2025-02-20_13h49.54.472,posner_endo_new1,2024.2.4,60.01684073496687,2025-02-20 13h50.01.740720 +0000,
cube_r.png,0.1,-0.31,invalid,23,23,0,down,3.678456499997992,None,space,0.4422890999703668,None,,,,,0,23,23,23,,,,,688.9772088000318,,,,,,,,,,,,,688.9629133000271,688.9772088000318,688.9772088000318,688.9772088000318,692.6583428999875,,,,692.6699784999946,692.6803389000124,692.6803389000124,692.7237797999987,692.7241257000132,692.7402328000171,692.7402328000171,692.7402328000171,692.8234168000054,693.1909642000101,,,,,,,,down,3.678456499997992,None,space,0.4422890999703668,None,,,,,,,,,,,,,,,,,P119,001,2025-02-20_13h49.54.472,posner_endo_new1,2024.2.4,60.01684073496687,2025-02-20 13h50.01.740720 +0000,
cube_r.png,0.1,0.31,valid,24,24,0,down,3.353474000003189,None,space,0.6178322000196204,None,,,,,0,24,24,24,,,,,693.2063763000187,,,,,,,,,,,,,693.1912547000102,693.2063763000187,693.2063763000187,693.2063763000187,696.5710293999873,,,,696.5826241000323,696.5929261000128,696.5929261000128,696.6364144000108,696.6367624999839,696.652888200013,696.652888200013,696.652888200013,696.7361716000014,697.2868211999885,,,,,,,,down,3.353474000003189,None,space,0.6178322000196204,None,,,,,,,,,,,,,,,,,P119,001,2025-02-20_13h49.54.472,posner_endo_new1,2024.2.4,60.01684073496687,2025-02-20 13h50.01.740720 +0000,
cube_r.png,0.1,-0.31,invalid,25,25,0,down,3.6336271000327542,None,space,0.5807635000091977,None,,,,,0,25,25,25,,,,,697.3022372000269,,,,,,,,,,,,,697.287117400032,697.3022372000269,697.3022372000269,697.3022372000269,700.949669499998,,,,700.9613028999884,700.9716311999946,700.9716311999946,701.0153241000371,701.0156646000105,701.031710500014,701.031710500014,701.031710500014,701.1150451999856,701.615831800038,,,,,,,,down,3.6336271000327542,None,space,0.5807635000091977,None,,,,,,,,,,,,,,,,,P119,001,2025-02-20_13h49.54.472,posner_endo_new1,2024.2.4,60.01684073496687,2025-02-20 13h50.01.740720 +0000,
cube_l.png,0.1,-0.31,valid,26,26,0,down,2.920250799972564,None,space,0.42041839996818453,None,,,,,0,26,26,26,,,,,701.6311552000116,,,,,,,,,,,,,701.6161210000282,701.6311552000116,701.6311552000116,701.6311552000116,704.5627231000108,,,,704.5742955000023,704.5845771000022,704.5845771000022,704.6282860999927,704.6286318000057,704.644673999981,704.644673999981,704.644673999981,704.7280170000158,705.0788614000194,,,,,,,,down,2.920250799972564,None,space,0.42041839996818453,None,,,,,,,,,,,,,,,,,P119,001,2025-02-20_13h49.54.472,posner_endo_new1,2024.2.4,60.01684073496687,2025-02-20 13h50.01.740720 +0000,
cube_r.png,0.1,0.31,valid,27,27,0,down,3.225205700029619,None,space,0.40977460000431165,None,,,,,0,27,27,27,,,,,705.0941991999862,,,,,,,,,,,,,705.0791539000347,705.0941991999862,705.0941991999862,705.0941991999862,708.3255920000374,,,,708.3371174000204,708.34756319999,708.34756319999,708.3910624000127,708.391418299987,708.4075504000066,708.4075504000066,708.4075504000066,708.4908113999991,708.825180099986,,,,,,,,down,3.225205700029619,None,space,0.40977460000431165,None,,,,,,,,,,,,,,,,,P119,001,2025-02-20_13h49.54.472,posner_endo_new1,2024.2.4,60.01684073496687,2025-02-20 13h50.01.740720 +0000,
cube_r.png,0.1,10,catch,28,28,0,down,3.318515599996317,None,None,,,,,,,0,28,28,28,,,,,708.8404463999905,,,,,,,,,,,,,708.8254727000021,708.8404463999905,708.8404463999905,708.8404463999905,712.1715204000357,,,,712.183140899986,712.1935016000061,712.1935016000061,712.2372565999976,712.2375985999824,712.2535459999926,712.2535459999926,712.2535459999926,712.3369752999861,715.251241400023,,,,714.351472600014,715.2671989999944,715.2671989999944,715.2671989999944,down,3.318515599996317,None,None,,,,,,,,,,,,,,,,,,,P119,001,2025-02-20_13h49.54.472,posner_endo_new1,2024.2.4,60.01684073496687,2025-02-20 13h50.01.740720 +0000,
cube_r.png,0.1,0.31,valid,29,29,0,down,0.02789560001110658,None,space,0.5458448000135832,None,,,,,0,29,29,29,,,,,715.2671989999944,,,,,,,,,,,,,715.251510000031,715.2671989999944,715.2671989999944,715.2671989999944,715.3017662999919,,,,715.3134284000262,715.3237074000062,715.3237074000062,715.3672910000314,715.367633100017,715.3838042999851,715.3838042999851,715.3838042999851,715.4670250000199,715.9344927000348,,,,,,,,down,0.02789560001110658,None,space,0.5458448000135832,None,,,,,,,,,,,,,,,,,P119,001,2025-02-20_13h49.54.472,posner_endo_new1,2024.2.4,60.01684073496687,2025-02-20 13h50.01.740720 +0000,
cube_r.png,0.1,0.31,valid,30,30,0,down,3.2177433000179008,None,space,0.48213530000066385,None,,,,,0,30,30,30,,,,,715.9499137999956,,,,,,,,,,,,,715.9347870000056,715.9499137999956,715.9499137999956,715.9499137999956,719.1809964000131,,,,719.1926595999976,719.2028728000005,719.2028728000005,719.246598800004,719.2469421999995,719.2631811000174,719.2631811000174,719.2631811000174,719.3463912000298,719.7471760000335,,,,,,,,down,3.2177433000179008,None,space,0.48213530000066385,None,,,,,,,,,,,,,,,,,P119,001,2025-02-20_13h49.54.472,posner_endo_new1,2024.2.4,60.01684073496687,2025-02-20 13h50.01.740720 +0000,
cube_l.png,0.1,-0.31,valid,31,31,0,down,3.0289323999895714,None,space,0.3627978000440635,None,,,,,0,31,31,31,,,,,719.7626605000114,,,,,,,,,,,,,719.7474786000093,719.7626605000114,719.7626605000114,719.7626605000114,722.7942263000295,,,,722.8045680000214,722.8142687000218,722.8142687000218,722.8596014000359,722.8598361000186,722.876106199983,722.876106199983,722.876106199983,722.9591634999961,723.2432501000003,,,,,,,,down,3.0289323999895714,None,space,0.3627978000440635,None,,,,,,,,,,,,,,,,,P119,001,2025-02-20_13h49.54.472,posner_endo_new1,2024.2.4,60.01684073496687,2025-02-20 13h50.01.740720 +0000,
cube_r.png,0.1,0.31,valid,32,32,0,down,3.1649158999789506,None,space,0.3920059999800287,None,,,,,0,32,32,32,,,,,723.2590247000335,,,,,,,,,,,,,723.2434349000105,723.2590247000335,723.2590247000335,723.2590247000335,726.4409869000083,,,,726.4597514999914,726.470470500004,726.470470500004,726.5056399999885,726.5059438000317,726.522373099986,726.522373099986,726.522373099986,726.6055852000136,726.9240327000152,,,,,,,,down,3.1649158999789506,None,space,0.3920059999800287,None,,,,,,,,,,,,,,,,,P119,001,2025-02-20_13h49.54.472,posner_endo_new1,2024.2.4,60.01684073496687,2025-02-20 13h50.01.740720 +0000,
cube_r.png,0.1,-0.31,invalid,33,33,0,down,3.1735630000475794,None,space,0.39416830003028736,None,,,,,0,33,33,33,,,,,726.9385342000169,,,,,,,,,,,,,726.924515700026,726.9385342000169,726.9385342000169,726.9385342000169,730.1207157000317,,,,730.1395490000141,730.1510032000369,730.1510032000369,730.1854199999943,730.1857368000201,730.2019834000384,730.2019834000384,730.2019834000384,730.2851291000261,730.6027231999906,,,,,,,,down,3.1735630000475794,None,space,0.39416830003028736,None,,,,,,,,,,,,,,,,,P119,001,2025-02-20_13h49.54.472,posner_endo_new1,2024.2.4,60.01684073496687,2025-02-20 13h50.01.740720 +0000,
cube_r.png,0.1,10,catch,34,34,0,down,3.2133331000222825,None,None,,,,,,,0,34,34,34,,,,,730.6181598000112,,,,,,,,,,,,,730.6029778000084,730.6181598000112,730.6181598000112,730.6181598000112,733.8337978000054,,,,733.8526946000056,733.8641012000153,733.8641012000153,733.8983868000214,733.8987299000146,733.9147414999898,733.9147414999898,733.9147414999898,733.998056899989,736.9128469999996,,,,736.0126432999969,736.928389800014,736.928389800014,736.928389800014,down,3.2133331000222825,None,None,,,,,,,,,,,,,,,,,,,P119,001,2025-02-20_13h49.54.472,posner_endo_new1,2024.2.4,60.01684073496687,2025-02-20 13h50.01.740720 +0000,
cube_r.png,0.1,0.31,valid,35,35,0,down,0.84721229999559,None,space,0.4884602999663912,None,,,,,0,35,35,35,,,,,736.928389800014,,,,,,,,,,,,,736.9132836000063,736.928389800014,736.928389800014,736.928389800014,737.7795752999955,,,,737.7985367000219,737.8100973999826,737.8100973999826,737.8442415000172,737.8445308000082,737.8608623000327,737.8608623000327,737.8608623000327,737.9440710000345,738.3610206000158,,,,,,,,down,0.84721229999559,None,space,0.4884602999663912,None,,,,,,,,,,,,,,,,,P119,001,2025-02-20_13h49.54.472,posner_endo_new1,2024.2.4,60.01684073496687,2025-02-20 13h50.01.740720 +0000,
cube_r.png,0.1,-0.31,invalid,36,36,0,down,3.0865715999971144,None,space,0.44839849998243153,None,,,,,0,36,36,36,,,,,738.3769920000341,,,,,,,,,,,,,738.3612648000126,738.3769920000341,738.3769920000341,738.3769920000341,741.4751016999944,,,,741.4866022000206,741.4968744000071,741.4968744000071,741.5405298999976,741.5408824000042,741.5570578000043,741.5570578000043,741.5570578000043,741.6403072000248,742.0078666000045,,,,,,,,down,3.0865715999971144,None,space,0.44839849998243153,None,,,,,,,,,,,,,,,,,P119,001,2025-02-20_13h49.54.472,posner_endo_new1,2024.2.4,60.01684073496687,2025-02-20 13h50.01.740720 +0000,
cube_l.png,0.1,0.31,invalid,37,37,0,down,3.0885123999905773,None,space,0.49725700000999495,None,,,,,0,37,37,37,,,,,742.02328329999,,,,,,,,,,,,,742.0081647000043,742.02328329999,742.02328329999,742.02328329999,745.1211680999841,,,,745.132772699988,745.1432611999917,745.1432611999917,745.1867620000266,745.187106700032,745.2033126000315,745.2033126000315,745.2033126000315,745.2865330000059,745.7042772999848,,,,,,,,down,3.0885123999905773,None,space,0.49725700000999495,None,,,,,,,,,,,,,,,,,P119,001,2025-02-20_13h49.54.472,posner_endo_new1,2024.2.4,60.01684073496687,2025-02-20 13h50.01.740720 +0000,
cube_l.png,0.1,0.31,invalid,38,38,0,down,3.6079128000419587,None,space,0.38966759998584166,None,,,,,0,38,38,38,,,,,745.7194521999918,,,,,,,,,,,,,745.7045726000215,745.7194521999918,745.7194521999918,745.7194521999918,749.3337494999869,,,,749.3453928999952,749.3556270999834,749.3556270999834,749.3991887000157,749.3995443999884,749.4156394000165,749.4156394000165,749.4156394000165,749.4989507999853,749.8164079000126,,,,,,,,down,3.6079128000419587,None,space,0.38966759998584166,None,,,,,,,,,,,,,,,,,P119,001,2025-02-20_13h49.54.472,posner_endo_new1,2024.2.4,60.01684073496687,2025-02-20 13h50.01.740720 +0000,
cube_r.png,0.1,0.31,valid,39,39,0,down,3.9433062999742106,None,space,0.601561599993147,None,,,,,0,39,39,39,,,,,749.8319306999911,,,,,,,,,,,,,749.8166947999853,749.8319306999911,749.8319306999911,749.8319306999911,753.7792498000199,,,,753.7909319000319,753.8013454999891,753.8013454999891,753.8444484000211,753.8446959999856,753.8612097000005,753.8612097000005,753.8612097000005,753.9442703999812,754.4779561000178,,,,,,,,down,3.9433062999742106,None,space,0.601561599993147,None,,,,,,,,,,,,,,,,,P119,001,2025-02-20_13h49.54.472,posner_endo_new1,2024.2.4,60.01684073496687,2025-02-20 13h50.01.740720 +0000,
cube_l.png,0.1,0.31,invalid,40,40,0,down,2.8816305000218563,None,space,0.6087874000077136,None,,,,,0,40,40,40,,,,,754.4939174000174,,,,,,,,,,,,,754.4781553000212,754.4939174000174,754.4939174000174,754.4939174000174,757.3916822000174,,,,757.3990670000203,757.410549400025,757.410549400025,757.4576041999971,757.4578520000214,757.473931799992,757.473931799992,757.473931799992,757.5572043000138,758.0911110999878,,,,,,,,down,2.8816305000218563,None,space,0.6087874000077136,None,,,,,,,,,,,,,,,,,P119,001,2025-02-20_13h49.54.472,posner_endo_new1,2024.2.4,60.01684073496687,2025-02-20 13h50.01.740720 +0000,
cube_l.png,0.1,10,catch,41,41,0,down,3.3970251999562606,None,None,,,,,,,0,41,41,41,,,,,758.1067588999867,,,,,,,,,,,,,758.0913016999839,758.1067588999867,758.1067588999867,758.1067588999867,761.5207222999888,,,,761.5280727000209,761.5396268999903,761.5396268999903,761.5865489999996,761.5867964000208,761.6032039999845,761.6032039999845,761.6032039999845,761.6697873999947,764.6003156999941,,,,763.6843956999946,764.6165690000053,764.6165690000053,764.6165690000053,down,3.3970251999562606,None,None,,,,,,,,,,,,,,,,,,,P119,001,2025-02-20_13h49.54.472,posner_endo_new1,2024.2.4,60.01684073496687,2025-02-20 13h50.01.740720 +0000,
cube_l.png,0.1,-0.31,valid,42,42,0,down,0.6704676999943331,None,space,0.4530464000417851,None,,,,,0,42,42,42,,,,,764.6165690000053,,,,,,,,,,,,,764.6004990999936,764.6165690000053,764.6165690000053,764.6165690000053,765.3001131000347,,,,765.3075166000053,765.3190718999831,765.3190718999831,765.3661444000318,765.3663926000008,765.3826414000359,765.3826414000359,765.3826414000359,765.4493341000052,765.8494925000123,,,,,,,,down,0.6704676999943331,None,space,0.4530464000417851,None,,,,,,,,,,,,,,,,,P119,001,2025-02-20_13h49.54.472,posner_endo_new1,2024.2.4,60.01684073496687,2025-02-20 13h50.01.740720 +0000,
cube_l.png,0.1,10,catch,43,43,0,down,3.605735299992375,None,None,,,,,,,0,43,43,43,,,,,765.8655212000012,,,,,,,,,,,,,765.8496929000248,765.8655212000012,765.8655212000012,765.8655212000012,769.479415800015,,,,769.4869084000238,769.4981611000258,769.4981611000258,769.5450774999917,769.5453268000274,769.5618300000206,769.5618300000206,769.5618300000206,769.6449537000153,772.5591968999943,,,,771.6595040999819,772.5753444000147,772.5753444000147,772.5753444000147,down,3.605735299992375,None,None,,,,,,,,,,,,,,,,,,,P119,001,2025-02-20_13h49.54.472,posner_endo_new1,2024.2.4,60.01684073496687,2025-02-20 13h50.01.740720 +0000,
cube_l.png,0.1,0.31,invalid,44,44,0,down,0.7367041999823414,None,space,0.5282522999914363,None,,,,,0,44,44,44,,,,,772.5753444000147,,,,,,,,,,,,,772.5593779000337,772.5753444000147,772.5753444000147,772.5753444000147,773.3253406999866,,,,773.3327393000363,773.3441964000231,773.3441964000231,773.3913565999828,773.3916053000139,773.407691200031,773.407691200031,773.407691200031,773.4909635999938,773.9416056000046,,,,,,,,down,0.7367041999823414,None,space,0.5282522999914363,None,,,,,,,,,,,,,,,,,P119,001,2025-02-20_13h49.54.472,posner_endo_new1,2024.2.4,60.01684073496687,2025-02-20 13h50.01.740720 +0000,
cube_l.png,0.1,0.31,invalid,45,45,0,down,3.5542494999826886,None,space,0.5286758000147529,None,,,,,0,45,45,45,,,,,773.9570074999938,,,,,,,,,,,,,773.9418005000334,773.9570074999938,773.9570074999938,773.9570074999938,777.5210216999985,,,,777.5283837000025,777.5399304000312,777.5399304000312,777.5868823000346,777.5871306000045,777.6034651999944,777.6034651999944,777.6034651999944,777.686710799986,778.1373819999862,,,,,,,,down,3.5542494999826886,None,space,0.5286758000147529,None,,,,,,,,,,,,,,,,,P119,001,2025-02-20_13h49.54.472,posner_endo_new1,2024.2.4,60.01684073496687,2025-02-20 13h50.01.740720 +0000,
cube_r.png,0.1,0.31,valid,46,46,0,down,3.766217599972151,None,space,0.4748387999716215,None,,,,,0,46,46,46,,,,,778.152992599993,,,,,,,,,,,,,778.1375799999805,778.152992599993,778.152992599993,778.152992599993,781.9342751000077,,,,781.9530584000167,781.9646544000134,781.9646544000134,781.9991494999849,781.99943299999,782.0157139000366,782.0157139000366,782.0157139000366,782.0990737000247,782.4994465000345,,,,,,,,down,3.766217599972151,None,space,0.4748387999716215,None,,,,,,,,,,,,,,,,,P119,001,2025-02-20_13h49.54.472,posner_endo_new1,2024.2.4,60.01684073496687,2025-02-20 13h50.01.740720 +0000,
cube_l.png,0.1,-0.31,valid,47,47,0,down,3.763985200028401,None,space,0.44011359999421984,None,,,,,0,47,47,47,,,,,782.5152341999928,,,,,,,,,,,,,782.4996757000335,782.5152341999928,782.5152341999928,782.5152341999928,786.2958465000265,,,,786.3073888000217,786.3173621000024,786.3173621000024,786.3613314999966,786.3616824999917,786.3779041999951,786.3779041999951,786.3779041999951,786.4611045999918,786.8287090000231,,,,,,,,down,3.763985200028401,None,space,0.44011359999421984,None,,,,,,,,,,,,,,,,,P119,001,2025-02-20_13h49.54.472,posner_endo_new1,2024.2.4,60.01684073496687,2025-02-20 13h50.01.740720 +0000,
cube_r.png,0.1,-0.31,invalid,48,48,0,down,4.507076399982907,None,space,0.48454879998462275,None,,,,,0,48,48,48,,,,,786.8441949000116,,,,,,,,,,,,,786.8289958999958,786.8441949000116,786.8441949000116,786.8441949000116,791.3574541999842,,,,791.3690258000279,791.3793842000305,791.3793842000305,791.422874699987,791.4232248000335,791.4393786999863,791.4393786999863,791.4393786999863,791.5226994000259,791.9400575000327,,,,,,,,down,4.507076399982907,None,space,0.48454879998462275,None,,,,,,,,,,,,,,,,,P119,001,2025-02-20_13h49.54.472,posner_endo_new1,2024.2.4,60.01684073496687,2025-02-20 13h50.01.740720 +0000,
cube_r.png,0.1,10,catch,49,49,0,down,3.300453199946787,None,None,,,,,,,0,49,49,49,,,,,791.9555367000285,,,,,,,,,,,,,791.9403504999937,791.9555367000285,791.9555367000285,791.9555367000285,795.2700287000043,,,,795.2816232999903,795.2919782000245,795.2919782000245,795.3355349000194,795.3358865000191,795.3521074000164,795.3521074000164,795.3521074000164,795.4353598000016,798.3497056000051,,,,797.4499233000097,798.3657795999898,798.3657795999898,798.3657795999898,down,3.300453199946787,None,None,,,,,,,,,,,,,,,,,,,P119,001,2025-02-20_13h49.54.472,posner_endo_new1,2024.2.4,60.01684073496687,2025-02-20 13h50.01.740720 +0000,
cube_l.png,0.1,-0.31,valid,50,50,0,down,0.7699859000276774,None,space,0.46128599997609854,None,,,,,0,50,50,50,,,,,798.3657795999898,,,,,,,,,,,,,798.3499743000139,798.3657795999898,798.3657795999898,798.3657795999898,799.1493874000153,,,,799.1610458000214,799.1713284000289,799.1713284000289,799.2149332999834,799.2152753000264,799.2314063000376,799.2314063000376,799.2314063000376,799.3146882000146,799.6990687000216,,,,,,,,down,0.7699859000276774,None,space,0.46128599997609854,None,,,,,,,,,,,,,,,,,P119,001,2025-02-20_13h49.54.472,posner_endo_new1,2024.2.4,60.01684073496687,2025-02-20 13h50.01.740720 +0000,
cube_l.png,0.1,-0.31,valid,51,51,0,down,3.453639299958013,None,space,0.44116839999333024,None,,,,,0,51,51,51,,,,,799.7143112000194,,,,,,,,,,,,,799.6993524000281,799.7143112000194,799.7143112000194,799.7143112000194,803.1784863999928,,,,803.1901254000259,803.2004336999962,803.2004336999962,803.244080799981,803.2444251999841,803.2606494000065,803.2606494000065,803.2606494000065,803.3438699999824,803.7113738000044,,,,,,,,down,3.453639299958013,None,space,0.44116839999333024,None,,,,,,,,,,,,,,,,,P119,001,2025-02-20_13h49.54.472,posner_endo_new1,2024.2.4,60.01684073496687,2025-02-20 13h50.01.740720 +0000,
cube_r.png,0.1,-0.31,invalid,52,52,0,down,3.561374799988698,None,space,0.41785369999706745,None,,,,,0,52,52,52,,,,,803.726879600028,,,,,,,,,,,,,803.7116676000296,803.726879600028,803.726879600028,803.726879600028,807.2911829000222,,,,807.3028309000074,807.3131452000234,807.3131452000234,807.3566395000089,807.3569853000226,807.3730939000379,807.3730939000379,807.3730939000379,807.4563817000017,807.807352999982,,,,,,,,down,3.561374799988698,None,space,0.41785369999706745,None,,,,,,,,,,,,,,,,,P119,001,2025-02-20_13h49.54.472,posner_endo_new1,2024.2.4,60.01684073496687,2025-02-20 13h50.01.740720 +0000,
cube_l.png,0.1,-0.31,valid,53,53,0,down,2.377202700008638,None,space,0.5701503999880515,None,,,,,0,53,53,53,,,,,807.8227326000342,,,,,,,,,,,,,807.807635300036,807.8227326000342,807.8227326000342,807.8227326000342,810.2047345000319,,,,810.2163123000064,810.2266706000082,810.2266706000082,810.2704344000085,810.2707768999971,810.2869296999997,810.2869296999997,810.2869296999997,810.3701083000051,810.870734600001,,,,,,,,down,2.377202700008638,None,space,0.5701503999880515,None,,,,,,,,,,,,,,,,,P119,001,2025-02-20_13h49.54.472,posner_endo_new1,2024.2.4,60.01684073496687,2025-02-20 13h50.01.740720 +0000,
cube_r.png,0.1,10,catch,54,54,0,down,3.074780900031328,None,None,,,,,,,0,54,54,54,,,,,810.886242299981,,,,,,,,,,,,,810.8710204000236,810.886242299981,810.886242299981,810.886242299981,813.9677330999984,,,,813.9767567000235,813.9866246000165,813.9866246000165,814.0330607999931,814.0333132999949,814.0495830000145,814.0495830000145,814.0495830000145,814.1329262999934,817.0469840000151,,,,816.1475698000286,817.0633993000374,817.0633993000374,817.0633993000374,down,3.074780900031328,None,None,,,,,,,,,,,,,,,,,,,P119,001,2025-02-20_13h49.54.472,posner_endo_new1,2024.2.4,60.01684073496687,2025-02-20 13h50.01.740720 +0000,
cube_l.png,0.1,0.31,invalid,55,55,0,down,0.3921238000039011,None,space,0.5027683000080287,None,,,,,0,55,55,55,,,,,817.0633993000374,,,,,,,,,,,,,817.0471757000196,817.0633993000374,817.0633993000374,817.0633993000374,817.4636777000269,,,,817.4710669000051,817.4824973000214,817.4824973000214,817.529735499993,817.5299970000051,817.5462090999936,817.5462090999936,817.5462090999936,817.6293140000198,818.0629636000376,,,,,,,,down,0.3921238000039011,None,space,0.5027683000080287,None,,,,,,,,,,,,,,,,,P119,001,2025-02-20_13h49.54.472,posner_endo_new1,2024.2.4,60.01684073496687,2025-02-20 13h50.01.740720 +0000,
cube_l.png,0.1,-0.31,valid,56,56,0,down,3.0004292000085115,None,space,0.4665386999840848,None,,,,,0,56,56,56,,,,,818.0788099000347,,,,,,,,,,,,,818.0631577000022,818.0788099000347,818.0788099000347,818.0788099000347,821.0932799000293,,,,821.1006417000317,821.1122581000091,821.1122581000091,821.1591019000043,821.159611399984,821.1755354999914,821.1755354999914,821.1755354999914,821.2588127999916,821.6439390000305,,,,,,,,down,3.0004292000085115,None,space,0.4665386999840848,None,,,,,,,,,,,,,,,,,P119,001,2025-02-20_13h49.54.472,posner_endo_new1,2024.2.4,60.01684073496687,2025-02-20 13h50.01.740720 +0000,
cube_r.png,0.1,0.31,valid,57,57,0,down,3.6456844999920577,None,space,0.45281520002754405,None,,,,,0,57,57,57,,,,,821.658356000029,,,,,,,,,,,,,821.6443690999877,821.658356000029,821.658356000029,821.658356000029,825.3060857999953,,,,825.3158238999895,825.3254477999872,825.3254477999872,825.3715420000372,825.3717688000179,825.3881499000126,825.3881499000126,825.3881499000126,825.4712700000382,825.8548403999885,,,,,,,,down,3.6456844999920577,None,space,0.45281520002754405,None,,,,,,,,,,,,,,,,,P119,001,2025-02-20_13h49.54.472,posner_endo_new1,2024.2.4,60.01684073496687,2025-02-20 13h50.01.740720 +0000,
cube_r.png,0.1,-0.31,invalid,58,58,0,down,3.5605152000207454,None,space,0.6765829999931157,None,,,,,0,58,58,58,,,,,825.8706931000343,,,,,,,,,,,,,825.8550122000161,825.8706931000343,825.8706931000343,825.8706931000343,829.4347445000312,,,,829.4407769999816,829.452460200002,829.452460200002,829.5005920000258,829.5010886000236,829.5170235999976,829.5170235999976,829.5170235999976,829.6002546999953,830.2014552000328,,,,,,,,down,3.5605152000207454,None,space,0.6765829999931157,None,,,,,,,,,,,,,,,,,P119,001,2025-02-20_13h49.54.472,posner_endo_new1,2024.2.4,60.01684073496687,2025-02-20 13h50.01.740720 +0000,
cube_l.png,0.1,0.31,invalid,59,59,0,down,2.7914851999958046,None,space,0.5346057999995537,None,,,,,0,59,59,59,,,,,830.2162833000184,,,,,,,,,,,,,830.201877399988,830.2162833000184,830.2162833000184,830.2162833000184,833.0153035999974,,,,833.0324981000158,833.0434442000114,833.0434442000114,833.0802684000228,833.0807714000111,833.0966617999948,833.0966617999948,833.0966617999948,833.1798770999885,833.6478724000044,,,,,,,,down,2.7914851999958046,None,space,0.5346057999995537,None,,,,,,,,,,,,,,,,,P119,001,2025-02-20_13h49.54.472,posner_endo_new1,2024.2.4,60.01684073496687,2025-02-20 13h50.01.740720 +0000,
,,,,,,,,,,,,,,,,,,,,,,,,,,,,,,,,,,,,,,,,,,,,,,,,,,,,,,,,,,,,,,,,,,,,,833.648137799988,833.662760599982,833.662760599982,893.668267400004,902.4273093999946,space,68.75321979995351,None,,,,,,,,,P119,001,2025-02-20_13h49.54.472,posner_endo_new1,2024.2.4,60.01684073496687,2025-02-20 13h50.01.740720 +0000,
,,,,,,,,,,,,,,,,,,,,,,,,,,,,,,,,,,902.4273998999852,902.4426382000092,905.453254299995,905.4236563000013,,,,,,,,,,,,,,,,,,,,,,,,,,,,,,,,,,,,,,,,,,,,,,,,P119,001,2025-02-20_13h49.54.472,posner_endo_new1,2024.2.4,60.01684073496687,2025-02-20 13h50.01.740720 +0000,
cube_l.png,0.1,10,catch,0,0,0,up,2.1227929000160657,None,None,,,,,,,,,,,0,0,0,0,905.453254299995,,,,,,,,,,,,,905.4442308000289,905.453254299995,905.453254299995,905.453254299995,907.5886917000171,,,,907.6005660000374,907.6109680000227,907.6109680000227,907.6540971000213,907.6543489000178,907.670697900001,907.670697900001,907.670697900001,907.7537440999877,910.6680543000111,,,,909.7685184000293,910.6841923000175,910.6841923000175,910.6841923000175,,,,,,,,,,,,,,,up,2.1227929000160657,None,None,,,,,P119,001,2025-02-20_13h49.54.472,posner_endo_new1,2024.2.4,60.01684073496687,2025-02-20 13h50.01.740720 +0000,
cube_l.png,0.1,10,catch,1,1,0,up,0.5075797999743372,None,None,,,,,,,,,,,0,1,1,1,910.6841923000175,,,,,,,,,,,,,910.6682406000327,910.6841923000175,910.6841923000175,910.6841923000175,911.2011188000324,,,,911.2085062999977,911.2200184999965,911.2200184999965,911.2671306999982,911.2673828999978,911.2836375000188,911.2836375000188,911.2836375000188,911.3501940999995,914.2810417999863,,,,913.3647690000362,914.2971774000325,914.2971774000325,914.2971774000325,,,,,,,,,,,,,,,up,0.5075797999743372,None,None,,,,,P119,001,2025-02-20_13h49.54.472,posner_endo_new1,2024.2.4,60.01684073496687,2025-02-20 13h50.01.740720 +0000,
cube_l.png,0.1,0.31,invalid,2,2,0,up,0.7502158000133932,None,space,0.5045544000458904,None,,,,,,,,,0,2,2,2,914.2971774000325,,,,,,,,,,,,,914.2812300000223,914.2971774000325,914.2971774000325,914.2971774000325,915.0640163000207,,,,915.0714735999936,915.0827516000136,915.0827516000136,915.1297846999951,915.1300334000262,915.1463089000317,915.1463089000317,915.1463089000317,915.2295755000087,915.6632961999858,,,,,,,,,,,,,,,,,,,,,,up,0.7502158000133932,None,space,0.5045544000458904,None,,,P119,001,2025-02-20_13h49.54.472,posner_endo_new1,2024.2.4,60.01684073496687,2025-02-20 13h50.01.740720 +0000,
cube_l.png,0.1,0.31,invalid,3,3,0,up,3.208175699983258,None,space,0.47361250000540167,None,,,,,,,,,0,3,3,3,915.6792033000384,,,,,,,,,,,,,915.6634942000383,915.6792033000384,915.6792033000384,915.6792033000384,918.8935021000216,,,,918.900846900011,918.9121354999952,918.9121354999952,918.9592107000062,918.9594563000137,918.975656900031,918.975656900031,918.975656900031,919.0590108000324,919.4592787000001,,,,,,,,,,,,,,,,,,,,,,up,3.208175699983258,None,space,0.47361250000540167,None,,,P119,001,2025-02-20_13h49.54.472,posner_endo_new1,2024.2.4,60.01684073496687,2025-02-20 13h50.01.740720 +0000,
cube_l.png,0.1,-0.31,valid,4,4,0,up,2.500935300020501,None,space,0.4657870000228286,None,,,,,,,,,0,4,4,4,919.4752587000257,,,,,,,,,,,,,919.4594759999891,919.4752587000257,919.4752587000257,919.4752587000257,921.9900628000032,,,,921.9973783000023,922.0091423999984,922.0091423999984,922.0562290999806,922.0564788000192,922.0724716000259,922.0724716000259,922.0724716000259,922.1392586000147,922.5397692000261,,,,,,,,,,,,,,,,,,,,,,up,2.500935300020501,None,space,0.4657870000228286,None,,,P119,001,2025-02-20_13h49.54.472,posner_endo_new1,2024.2.4,60.01684073496687,2025-02-20 13h50.01.740720 +0000,
cube_r.png,0.1,-0.31,invalid,5,5,0,up,3.004186300036963,None,space,0.5139094000332989,None,,,,,,,,,0,5,5,5,922.5553469000151,,,,,,,,,,,,,922.5399668000173,922.5553469000151,922.5553469000151,922.5553469000151,925.5699352000374,,,,925.5773920000065,925.5886473000282,925.5886473000282,925.6356914000353,925.635938899999,925.6522331000306,925.6522331000306,925.6522331000306,925.7356256000348,926.1693709000247,,,,,,,,,,,,,,,,,,,,,,up,3.004186300036963,None,space,0.5139094000332989,None,,,P119,001,2025-02-20_13h49.54.472,posner_endo_new1,2024.2.4,60.01684073496687,2025-02-20 13h50.01.740720 +0000,
cube_r.png,0.1,0.31,valid,6,6,0,up,3.3191299000172876,None,space,0.48441099998308346,None,,,,,,,,,0,6,6,6,926.1851950000273,,,,,,,,,,,,,926.1695673000067,926.1851950000273,926.1851950000273,926.1851950000273,929.5158449999872,,,,929.5232016000082,929.5346359999967,929.5346359999967,929.5818073999835,929.5823690000107,929.5982234000112,929.5982234000112,929.5982234000112,929.6814760999987,930.0995935000246,,,,,,,,,,,,,,,,,,,,,,up,3.3191299000172876,None,space,0.48441099998308346,None,,,P119,001,2025-02-20_13h49.54.472,posner_endo_new1,2024.2.4,60.01684073496687,2025-02-20 13h50.01.740720 +0000,
cube_r.png,0.1,-0.31,invalid,7,7,0,up,3.005371900042519,None,space,0.4645007000071928,None,,,,,,,,,0,7,7,7,930.1143498999882,,,,,,,,,,,,,930.1000683000311,930.1143498999882,930.1143498999882,930.1143498999882,933.1297494000173,,,,933.1483555000159,933.159890800016,933.159890800016,933.1947301999899,933.1950350999832,933.2112550000311,933.2112550000311,933.2112550000311,933.294425900036,933.6785537999822,,,,,,,,,,,,,,,,,,,,,,up,3.005371900042519,None,space,0.4645007000071928,None,,,P119,001,2025-02-20_13h49.54.472,posner_endo_new1,2024.2.4,60.01684073496687,2025-02-20 13h50.01.740720 +0000,
cube_l.png,0.1,-0.31,valid,8,8,0,up,2.7942391999531537,None,space,0.42364339996129274,None,,,,,,,,,0,8,8,8,933.6940599000081,,,,,,,,,,,,,933.6788106000167,933.6940599000081,933.6940599000081,933.6940599000081,936.4923640000052,,,,936.5039459000109,936.5143872000044,936.5143872000044,936.5579314000206,936.5582805000013,936.5744442000287,936.5744442000287,936.5744442000287,936.6576975000207,937.008608300006,,,,,,,,,,,,,,,,,,,,,,up,2.7942391999531537,None,space,0.42364339996129274,None,,,P119,001,2025-02-20_13h49.54.472,posner_endo_new1,2024.2.4,60.01684073496687,2025-02-20 13h50.01.740720 +0000,
cube_r.png,0.1,-0.31,invalid,9,9,0,up,2.952054199995473,None,space,0.5870890999794938,None,,,,,,,,,0,9,9,9,937.0240345000057,,,,,,,,,,,,,937.0088981000008,937.0240345000057,937.0240345000057,937.0240345000057,939.9888127000304,,,,940.000321200001,940.0106083999854,940.0106083999854,940.0543438000022,940.0546899000183,940.0709498000215,940.0709498000215,940.0709498000215,940.1541530999821,940.671665300033,,,,,,,,,,,,,,,,,,,,,,up,2.952054199995473,None,space,0.5870890999794938,None,,,P119,001,2025-02-20_13h49.54.472,posner_endo_new1,2024.2.4,60.01684073496687,2025-02-20 13h50.01.740720 +0000,
cube_l.png,0.1,0.31,invalid,10,10,0,up,3.2891021000104956,None,space,0.48718579998239875,None,,,,,,,,,0,10,10,10,940.6870684000314,,,,,,,,,,,,,940.6719588999986,940.6870684000314,940.6870684000314,940.6870684000314,943.9848188000033,,,,943.9952486000257,944.0048855000059,944.0048855000059,944.050193300005,944.050430000003,944.0667822000105,944.0667822000105,944.0667822000105,944.1499289000058,944.5673392000026,,,,,,,,,,,,,,,,,,,,,,up,3.2891021000104956,None,space,0.48718579998239875,None,,,P119,001,2025-02-20_13h49.54.472,posner_endo_new1,2024.2.4,60.01684073496687,2025-02-20 13h50.01.740720 +0000,
cube_r.png,0.1,-0.31,invalid,11,11,0,up,3.3446780999656767,None,space,0.47851290000835434,None,,,,,,,,,0,11,11,11,944.5830223000376,,,,,,,,,,,,,944.5675237000105,944.5830223000376,944.5830223000376,944.5830223000376,947.9305090000271,,,,947.9374536999967,947.9490241000312,947.9490241000312,947.9962524999864,947.9964924000087,948.0128966000048,948.0128966000048,948.0128966000048,948.0959946000366,948.4964908999973,,,,,,,,,,,,,,,,,,,,,,up,3.3446780999656767,None,space,0.47851290000835434,None,,,P119,001,2025-02-20_13h49.54.472,posner_endo_new1,2024.2.4,60.01684073496687,2025-02-20 13h50.01.740720 +0000,
cube_r.png,0.1,0.31,valid,12,12,0,up,3.4873742000199854,None,space,0.4075859999866225,None,,,,,,,,,0,12,12,12,948.5124266000348,,,,,,,,,,,,,948.4966757000075,948.5124266000348,948.5124266000348,948.5124266000348,952.0099813999841,,,,952.0215387000353,952.0318457999965,952.0318457999965,952.0754447000218,952.0758051000303,952.0919889000361,952.0919889000361,952.0919889000361,952.1751525999862,952.5093572000042,,,,,,,,,,,,,,,,,,,,,,up,3.4873742000199854,None,space,0.4075859999866225,None,,,P119,001,2025-02-20_13h49.54.472,posner_endo_new1,2024.2.4,60.01684073496687,2025-02-20 13h50.01.740720 +0000,
cube_l.png,0.1,10,catch,13,13,0,up,2.9787503000115976,None,None,,,,,,,,,,,0,13,13,13,952.5248049999936,,,,,,,,,,,,,952.509653199988,952.5248049999936,952.5248049999936,952.5248049999936,955.5063974999939,,,,955.5156291000312,955.525438599987,955.525438599987,955.5719139000284,955.5721529999864,955.5882866000175,955.5882866000175,955.5882866000175,955.6716347000329,958.5863312000292,,,,957.6862669999828,958.601903999981,958.601903999981,958.601903999981,,,,,,,,,,,,,,,up,2.9787503000115976,None,None,,,,,P119,001,2025-02-20_13h49.54.472,posner_endo_new1,2024.2.4,60.01684073496687,2025-02-20 13h50.01.740720 +0000,
cube_r.png,0.1,-0.31,invalid,14,14,0,up,0.40623570000752807,None,space,0.43754479999188334,None,,,,,,,,,0,14,14,14,958.601903999981,,,,,,,,,,,,,958.5867885000189,958.601903999981,958.601903999981,958.601903999981,959.0199992000125,,,,959.0387038000044,959.0500456999871,959.0500456999871,959.0849361,959.0852429000079,959.101483699982,959.101483699982,959.101483699982,959.1847111000097,959.5520345999976,,,,,,,,,,,,,,,,,,,,,,up,0.40623570000752807,None,space,0.43754479999188334,None,,,P119,001,2025-02-20_13h49.54.472,posner_endo_new1,2024.2.4,60.01684073496687,2025-02-20 13h50.01.740720 +0000,
cube_l.png,0.1,-0.31,valid,15,15,0,up,3.2564349999884143,None,space,0.5767412999994121,None,,,,,,,,,0,15,15,15,959.5676088000182,,,,,,,,,,,,,959.552285599988,959.5676088000182,959.5676088000182,959.5676088000182,962.8322332000243,,,,962.8437966000056,962.8541959000286,962.8541959000286,962.8977035999997,962.8980510000256,962.9142587999813,962.9142587999813,962.9142587999813,962.9975119000301,963.4981903000153,,,,,,,,,,,,,,,,,,,,,,up,3.2564349999884143,None,space,0.5767412999994121,None,,,P119,001,2025-02-20_13h49.54.472,posner_endo_new1,2024.2.4,60.01684073496687,2025-02-20 13h50.01.740720 +0000,
cube_r.png,0.1,10,catch,16,16,0,up,2.9103648999589495,None,None,,,,,,,,,,,0,16,16,16,963.5136393000139,,,,,,,,,,,,,963.4984762000386,963.5136393000139,963.5136393000139,963.5136393000139,966.4288571000216,,,,966.437462300004,966.4472860000096,966.4472860000096,966.493966399983,966.4942183000385,966.5105901000206,966.5105901000206,966.5105901000206,966.5939174999949,969.5079711999861,,,,968.6084245000384,969.524167000025,969.524167000025,969.524167000025,,,,,,,,,,,,,,,up,2.9103648999589495,None,None,,,,,P119,001,2025-02-20_13h49.54.472,posner_endo_new1,2024.2.4,60.01684073496687,2025-02-20 13h50.01.740720 +0000,
cube_r.png,0.1,10,catch,17,17,0,up,0.5713948999764398,None,None,,,,,,,,,,,0,17,17,17,969.524167000025,,,,,,,,,,,,,969.5081558999955,969.524167000025,969.524167000025,969.524167000025,970.1075050000218,,,,970.1148947000038,970.12656840001,970.12656840001,970.1736780999927,970.1739253000123,970.1899933000095,970.1899933000095,970.1899933000095,970.2566605000175,973.1876341000316,,,,972.2710700000171,973.2035632000188,973.2035632000188,973.2035632000188,,,,,,,,,,,,,,,up,0.5713948999764398,None,None,,,,,P119,001,2025-02-20_13h49.54.472,posner_endo_new1,2024.2.4,60.01684073496687,2025-02-20 13h50.01.740720 +0000,
cube_l.png,0.1,0.31,invalid,18,18,0,up,0.9483654999639839,None,space,0.46956900000805035,None,,,,,,,,,0,18,18,18,973.2035632000188,,,,,,,,,,,,,973.187817100028,973.2035632000188,973.2035632000188,973.2035632000188,974.1536736999988,,,,974.1610873999889,974.1722680000239,974.1722680000239,974.219266500033,974.2195154000074,974.2359664000105,974.2359664000105,974.2359664000105,974.3192281000083,974.7196607000078,,,,,,,,,,,,,,,,,,,,,,up,0.9483654999639839,None,space,0.46956900000805035,None,,,P119,001,2025-02-20_13h49.54.472,posner_endo_new1,2024.2.4,60.01684073496687,2025-02-20 13h50.01.740720 +0000,
cube_l.png,0.1,10,catch,19,19,0,up,3.0564187999698333,None,None,,,,,,,,,,,0,19,19,19,974.7354673999944,,,,,,,,,,,,,974.7198595000082,974.7354673999944,974.7354673999944,974.7354673999944,977.7996996000293,,,,977.8071061000228,977.8186834999942,977.8186834999942,977.8655508999946,977.8657971000066,977.8822897000355,977.8822897000355,977.8822897000355,977.9488117999863,980.8796614999883,,,,979.9633329000208,980.8957467,980.8957467,980.8957467,,,,,,,,,,,,,,,up,3.0564187999698333,None,None,,,,,P119,001,2025-02-20_13h49.54.472,posner_endo_new1,2024.2.4,60.01684073496687,2025-02-20 13h50.01.740720 +0000,
cube_l.png,0.1,0.31,invalid,20,20,0,up,9.112385399988852,None,space,0.5844714000122622,None,,,,,,,,,0,20,20,20,980.8957467,,,,,,,,,,,,,980.8798450999893,980.8957467,980.8957467,980.8957467,990.0206993999891,,,,990.028167499986,990.039501900028,990.039501900028,990.0864509000094,990.0866972000222,990.1031363999937,990.1031363999937,990.1031363999937,990.186363100016,990.7032656000229,,,,,,,,,,,,,,,,,,,,,,up,9.112385399988852,None,space,0.5844714000122622,None,,,P119,001,2025-02-20_13h49.54.472,posner_endo_new1,2024.2.4,60.01684073496687,2025-02-20 13h50.01.740720 +0000,
cube_l.png,0.1,-0.31,valid,21,21,0,up,3.46530670003267,None,space,0.4914285999839194,None,,,,,,,,,0,21,21,21,990.7189889000147,,,,,,,,,,,,,990.7034836999956,990.7189889000147,990.7189889000147,990.7189889000147,994.1998285999871,,,,994.2071993999998,994.2181352000334,994.2181352000334,994.2655844999827,994.2660838000011,994.281974499987,994.281974499987,994.281974499987,994.3652226999984,994.783239100012,,,,,,,,,,,,,,,,,,,,,,up,3.46530670003267,None,space,0.4914285999839194,None,,,P119,001,2025-02-20_13h49.54.472,posner_endo_new1,2024.2.4,60.01684073496687,2025-02-20 13h50.01.740720 +0000,
cube_r.png,0.1,0.31,valid,22,22,0,up,2.9296663000131957,None,space,0.48287589999381453,None,,,,,,,,,0,22,22,22,994.7981103000348,,,,,,,,,,,,,994.783674300008,994.7981103000348,994.7981103000348,994.7981103000348,997.7304082000046,,,,997.7475507000345,997.7591585000046,997.7591585000046,997.7953602999914,997.7956438999972,997.8118660000036,997.8118660000036,997.8118660000036,997.8951401000377,998.2957961999928,,,,,,,,,,,,,,,,,,,,,,up,2.9296663000131957,None,space,0.48287589999381453,None,,,P119,001,2025-02-20_13h49.54.472,posner_endo_new1,2024.2.4,60.01684073496687,2025-02-20 13h50.01.740720 +0000,
cube_r.png,0.1,-0.31,invalid,23,23,0,up,3.312837600009516,None,space,0.46472470002481714,None,,,,,,,,,0,23,23,23,998.3114829999977,,,,,,,,,,,,,998.2960304000298,998.3114829999977,998.3114829999977,998.3114829999977,1001.6264201999875,,,,1001.6438622000278,1001.6551122000092,1001.6551122000092,1001.6913412000285,1001.6916544000269,1001.707838500035,1001.707838500035,1001.707838500035,1001.7911021999898,1002.1752381999977,,,,,,,,,,,,,,,,,,,,,,up,3.312837600009516,None,space,0.46472470002481714,None,,,P119,001,2025-02-20_13h49.54.472,posner_endo_new1,2024.2.4,60.01684073496687,2025-02-20 13h50.01.740720 +0000,
cube_r.png,0.1,0.31,valid,24,24,0,up,2.7612311000120826,None,space,0.4550831000087783,None,,,,,,,,,0,24,24,24,1002.1907447000267,,,,,,,,,,,,,1002.1754954000353,1002.1907447000267,1002.1907447000267,1002.1907447000267,1004.9558178000152,,,,1004.9655376999872,1004.9756991000031,1004.9756991000031,1005.0212333000381,1005.0215389000368,1005.03780250001,1005.03780250001,1005.03780250001,1005.1210247999988,1005.504790200037,,,,,,,,,,,,,,,,,,,,,,up,2.7612311000120826,None,space,0.4550831000087783,None,,,P119,001,2025-02-20_13h49.54.472,posner_endo_new1,2024.2.4,60.01684073496687,2025-02-20 13h50.01.740720 +0000,
cube_r.png,0.1,-0.31,invalid,25,25,0,up,2.983357299992349,None,space,0.41491719998884946,None,,,,,,,,,0,25,25,25,1005.5206319999998,,,,,,,,,,,,,1005.5050490000285,1005.5206319999998,1005.5206319999998,1005.5206319999998,1008.518628299993,,,,1008.5283677999978,1008.5384866999811,1008.5384866999811,1008.5843177000061,1008.5846208999865,1008.6009290000075,1008.6009290000075,1008.6009290000075,1008.6841058999998,1009.0182815000298,,,,,,,,,,,,,,,,,,,,,,up,2.983357299992349,None,space,0.41491719998884946,None,,,P119,001,2025-02-20_13h49.54.472,posner_endo_new1,2024.2.4,60.01684073496687,2025-02-20 13h50.01.740720 +0000,
cube_l.png,0.1,-0.31,valid,26,26,0,up,3.2548722000210546,None,space,0.418309600034263,None,,,,,,,,,0,26,26,26,1009.0336886000005,,,,,,,,,,,,,1009.0185336000286,1009.0336886000005,1009.0336886000005,1009.0336886000005,1012.2981694000191,,,,1012.3079048999934,1012.3182383000385,1012.3182383000385,1012.3637749000336,1012.3640804000315,1012.3802880999865,1012.3802880999865,1012.3802880999865,1012.4635275999899,1012.8142109999899,,,,,,,,,,,,,,,,,,,,,,up,3.2548722000210546,None,space,0.418309600034263,None,,,P119,001,2025-02-20_13h49.54.472,posner_endo_new1,2024.2.4,60.01684073496687,2025-02-20 13h50.01.740720 +0000,
cube_r.png,0.1,0.31,valid,27,27,0,up,3.169755199982319,None,space,0.42150080000283197,None,,,,,,,,,0,27,27,27,1012.829859599995,,,,,,,,,,,,,1012.8144651000039,1012.829859599995,1012.829859599995,1012.829859599995,1016.0110256000189,,,,1016.0209595999913,1016.0309964999906,1016.0309964999906,1016.0766769000329,1016.0769818000263,1016.0931702000089,1016.0931702000089,1016.0931702000089,1016.1765633000177,1016.5270905999932,,,,,,,,,,,,,,,,,,,,,,up,3.169755199982319,None,space,0.42150080000283197,None,,,P119,001,2025-02-20_13h49.54.472,posner_endo_new1,2024.2.4,60.01684073496687,2025-02-20 13h50.01.740720 +0000,
cube_r.png,0.1,10,catch,28,28,0,up,3.3298022999661043,None,None,,,,,,,,,,,0,28,28,28,1016.5425650000107,,,,,,,,,,,,,1016.5273412999813,1016.5425650000107,1016.5425650000107,1016.5425650000107,1019.8738064999925,,,,1019.8835317000048,1019.8936232000124,1019.8936232000124,1019.9393861999852,1019.9396880000131,1019.9559002000024,1019.9559002000024,1019.9559002000024,1020.0391702000052,1022.9535520999925,,,,1022.0537473000004,1022.9694471000112,1022.9694471000112,1022.9694471000112,,,,,,,,,,,,,,,up,3.3298022999661043,None,None,,,,,P119,001,2025-02-20_13h49.54.472,posner_endo_new1,2024.2.4,60.01684073496687,2025-02-20 13h50.01.740720 +0000,
cube_r.png,0.1,0.31,valid,29,29,0,up,2.0548183000064455,None,space,0.43925679998937994,None,,,,,,,,,0,29,29,29,1022.9694471000112,,,,,,,,,,,,,1022.9538059000042,1022.9694471000112,1022.9694471000112,1022.9694471000112,1025.0351011999883,,,,1025.0450228999835,1025.055175299989,1025.055175299989,1025.100777500018,1025.1010926000308,1025.117316799995,1025.117316799995,1025.117316799995,1025.2005350000109,1025.5679029999883,,,,,,,,,,,,,,,,,,,,,,up,2.0548183000064455,None,space,0.43925679998937994,None,,,P119,001,2025-02-20_13h49.54.472,posner_endo_new1,2024.2.4,60.01684073496687,2025-02-20 13h50.01.740720 +0000,
cube_r.png,0.1,0.31,valid,30,30,0,up,3.1927277999930084,None,space,0.6148944000015035,None,,,,,,,,,0,30,30,30,1025.5834785000188,,,,,,,,,,,,,1025.568156399997,1025.5834785000188,1025.5834785000188,1025.5834785000188,1028.7813606000273,,,,1028.7911187999998,1028.8012578000198,1028.8012578000198,1028.846956000023,1028.8472637000377,1028.8634863999905,1028.8634863999905,1028.8634863999905,1028.9467250999878,1029.4806963999872,,,,,,,,,,,,,,,,,,,,,,up,3.1927277999930084,None,space,0.6148944000015035,None,,,P119,001,2025-02-20_13h49.54.472,posner_endo_new1,2024.2.4,60.01684073496687,2025-02-20 13h50.01.740720 +0000,
cube_l.png,0.1,-0.31,valid,31,31,0,up,3.711920999980066,None,space,0.4831055999966338,None,,,,,,,,,0,31,31,31,1029.4962284000358,,,,,,,,,,,,,1029.4809498999966,1029.4962284000358,1029.4962284000358,1029.4962284000358,1033.2103018999915,,,,1033.2201472999877,1033.2302469999995,1033.2302469999995,1033.275816600013,1033.276118000038,1033.2922337999917,1033.2922337999917,1033.2922337999917,1033.3755867999862,1033.7763717999915,,,,,,,,,,,,,,,,,,,,,,up,3.711920999980066,None,space,0.4831055999966338,None,,,P119,001,2025-02-20_13h49.54.472,posner_endo_new1,2024.2.4,60.01684073496687,2025-02-20 13h50.01.740720 +0000,
cube_r.png,0.1,0.31,valid,32,32,0,up,3.1678273000288755,None,space,0.6493599999812432,None,,,,,,,,,0,32,32,32,1033.7918311000103,,,,,,,,,,,,,1033.7766302000382,1033.7918311000103,1033.7918311000103,1033.7918311000103,1036.9729427000275,,,,1036.9827370999847,1036.992855700024,1036.992855700024,1037.0386179999914,1037.0389223000384,1037.0551806000294,1037.0551806000294,1037.0551806000294,1037.138393500005,1037.7056653000182,,,,,,,,,,,,,,,,,,,,,,up,3.1678273000288755,None,space,0.6493599999812432,None,,,P119,001,2025-02-20_13h49.54.472,posner_endo_new1,2024.2.4,60.01684073496687,2025-02-20 13h50.01.740720 +0000,
cube_r.png,0.1,-0.31,invalid,33,33,0,up,3.6153513999888673,None,space,0.46150410000700504,None,,,,,,,,,0,33,33,33,1037.7210996000213,,,,,,,,,,,,,1037.7059202999808,1037.7210996000213,1037.7210996000213,1037.7210996000213,1041.3517743999837,,,,1041.361624400015,1041.371680799988,1041.371680799988,1041.417395700002,1041.417699499987,1041.434012999991,1041.434012999991,1041.434012999991,1041.5171402000124,1041.901372399996,,,,,,,,,,,,,,,,,,,,,,up,3.6153513999888673,None,space,0.46150410000700504,None,,,P119,001,2025-02-20_13h49.54.472,posner_endo_new1,2024.2.4,60.01684073496687,2025-02-20 13h50.01.740720 +0000,
cube_r.png,0.1,10,catch,34,34,0,up,3.2032848999951966,None,None,,,,,,,,,,,0,34,34,34,1041.9168187000323,,,,,,,,,,,,,1041.9016281000222,1041.9168187000323,1041.9168187000323,1041.9168187000323,1045.1310708000092,,,,1045.140792899998,1045.151137400011,1045.151137400011,1045.1969453000347,1045.1972620000015,1045.2134222000022,1045.2134222000022,1045.2134222000022,1045.296719200036,1048.211120299995,,,,1047.3112659000326,1048.2270124999923,1048.2270124999923,1048.2270124999923,,,,,,,,,,,,,,,up,3.2032848999951966,None,None,,,,,P119,001,2025-02-20_13h49.54.472,posner_endo_new1,2024.2.4,60.01684073496687,2025-02-20 13h50.01.740720 +0000,
cube_r.png,0.1,0.31,valid,35,35,0,up,0.6931486999965273,None,space,0.5307620000094175,None,,,,,,,,,0,35,35,35,1048.2270124999923,,,,,,,,,,,,,1048.2113561999868,1048.2270124999923,1048.2270124999923,1048.2270124999923,1048.9274296000367,,,,1048.9372836999828,1048.947409800021,1048.947409800021,1048.9931548000313,1048.993468300032,1049.0095925999922,1049.0095925999922,1049.0095925999922,1049.0927527000313,1049.5433035999886,,,,,,,,,,,,,,,,,,,,,,up,0.6931486999965273,None,space,0.5307620000094175,None,,,P119,001,2025-02-20_13h49.54.472,posner_endo_new1,2024.2.4,60.01684073496687,2025-02-20 13h50.01.740720 +0000,
cube_r.png,0.1,-0.31,invalid,36,36,0,up,3.777142700040713,None,space,0.5044410000555217,None,,,,,,,,,0,36,36,36,1049.5590398000204,,,,,,,,,,,,,1049.5435568999965,1049.5590398000204,1049.5590398000204,1049.5590398000204,1053.3395481000189,,,,1053.3492847000016,1053.3593963999883,1053.3593963999883,1053.4051803000038,1053.4054834999843,1053.421764800034,1053.421764800034,1053.421764800034,1053.5050062999944,1053.938889299985,,,,,,,,,,,,,,,,,,,,,,up,3.777142700040713,None,space,0.5044410000555217,None,,,P119,001,2025-02-20_13h49.54.472,posner_endo_new1,2024.2.4,60.01684073496687,2025-02-20 13h50.01.740720 +0000,
cube_l.png,0.1,0.31,invalid,37,37,0,up,2.8300742999999784,None,space,0.5140114999958314,None,,,,,,,,,0,37,37,37,1053.9542855999898,,,,,,,,,,,,,1053.9391448000097,1053.9542855999898,1053.9542855999898,1053.9542855999898,1056.7860632000375,,,,1056.7957840000163,1056.8059722000035,1056.8059722000035,1056.8517429000349,1056.8520467000199,1056.868200100027,1056.868200100027,1056.868200100027,1056.9513496999862,1057.3853901000111,,,,,,,,,,,,,,,,,,,,,,up,2.8300742999999784,None,space,0.5140114999958314,None,,,P119,001,2025-02-20_13h49.54.472,posner_endo_new1,2024.2.4,60.01684073496687,2025-02-20 13h50.01.740720 +0000,
cube_l.png,0.1,0.31,invalid,38,38,0,up,3.0312542999745347,None,space,0.3940033999970183,None,,,,,,,,,0,38,38,38,1057.4009883999825,,,,,,,,,,,,,1057.3856431000168,1057.4009883999825,1057.4009883999825,1057.4009883999825,1060.4489562999806,,,,1060.4587279999978,1060.4686632000376,1060.4686632000376,1060.5150242000236,1060.515684699989,1060.5313716999954,1060.5313716999954,1060.5313716999954,1060.61458210001,1060.9337463999982,,,,,,,,,,,,,,,,,,,,,,up,3.0312542999745347,None,space,0.3940033999970183,None,,,P119,001,2025-02-20_13h49.54.472,posner_endo_new1,2024.2.4,60.01684073496687,2025-02-20 13h50.01.740720 +0000,
cube_r.png,0.1,0.31,valid,39,39,0,up,3.25198309996631,None,space,0.5539705999544822,None,,,,,,,,,0,39,39,39,1060.9478687000228,,,,,,,,,,,,,1060.934345900023,1060.9478687000228,1060.9478687000228,1060.9478687000228,1064.213456700032,,,,1064.2350927999942,1064.2455524000106,1064.2455524000106,1064.2772047999897,1064.2776356000104,1064.293653700035,1064.293653700035,1064.293653700035,1064.3768903000164,1064.8612246999983,,,,,,,,,,,,,,,,,,,,,,up,3.25198309996631,None,space,0.5539705999544822,None,,,P119,001,2025-02-20_13h49.54.472,posner_endo_new1,2024.2.4,60.01684073496687,2025-02-20 13h50.01.740720 +0000,
cube_l.png,0.1,0.31,invalid,40,40,0,up,3.1794005999690853,None,space,0.4765402000048198,None,,,,,,,,,0,40,40,40,1064.8763738999842,,,,,,,,,,,,,1064.8616296999971,1064.8763738999842,1064.8763738999842,1064.8763738999842,1068.0579211000004,,,,1068.0677434999961,1068.077916899987,1068.077916899987,1068.1235242999974,1068.1238344000303,1068.1400112999836,1068.1400112999836,1068.1400112999836,1068.2232663999894,1068.623882099986,,,,,,,,,,,,,,,,,,,,,,up,3.1794005999690853,None,space,0.4765402000048198,None,,,P119,001,2025-02-20_13h49.54.472,posner_endo_new1,2024.2.4,60.01684073496687,2025-02-20 13h50.01.740720 +0000,
cube_l.png,0.1,10,catch,41,41,0,up,3.144354799995199,None,None,,,,,,,,,,,0,41,41,41,1068.6394809000194,,,,,,,,,,,,,1068.6241339999833,1068.6394809000194,1068.6394809000194,1068.6394809000194,1071.7874459000304,,,,1071.7972355000093,1071.8072207000223,1071.8072207000223,1071.8530540000065,1071.8533711000346,1071.8695649000001,1071.8695649000001,1071.8695649000001,1071.952766100003,1074.867092200031,,,,1073.9672632000293,1074.8830784999882,1074.8830784999882,1074.8830784999882,,,,,,,,,,,,,,,up,3.144354799995199,None,None,,,,,P119,001,2025-02-20_13h49.54.472,posner_endo_new1,2024.2.4,60.01684073496687,2025-02-20 13h50.01.740720 +0000,
cube_l.png,0.1,-0.31,valid,42,42,0,up,1.5014433999895118,None,space,0.4437628999585286,None,,,,,,,,,0,42,42,42,1074.8830784999882,,,,,,,,,,,,,1074.8673300000373,1074.8830784999882,1074.8830784999882,1074.8830784999882,1076.3992865000037,,,,1076.4090870000073,1076.4193772000144,1076.4193772000144,1076.4649934000336,1076.4652985000284,1076.4815424000262,1076.4815424000262,1076.4815424000262,1076.5648320000037,1076.9320843000314,,,,,,,,,,,,,,,,,,,,,,up,1.5014433999895118,None,space,0.4437628999585286,None,,,P119,001,2025-02-20_13h49.54.472,posner_endo_new1,2024.2.4,60.01684073496687,2025-02-20 13h50.01.740720 +0000,
cube_l.png,0.1,10,catch,43,43,0,up,3.4845766000216827,None,None,,,,,,,,,,,0,43,43,43,1076.9476090000244,,,,,,,,,,,,,1076.9323401000001,1076.9476090000244,1076.9476090000244,1076.9476090000244,1080.4452232000185,,,,1080.4549108000356,1080.4651728000026,1080.4651728000026,1080.510856000008,1080.5111656000372,1080.5273797999835,1080.5273797999835,1080.5273797999835,1080.6106421999866,1083.52495370002,,,,1082.6252590999939,1083.5410505000036,1083.5410505000036,1083.5410505000036,,,,,,,,,,,,,,,up,3.4845766000216827,None,None,,,,,P119,001,2025-02-20_13h49.54.472,posner_endo_new1,2024.2.4,60.01684073496687,2025-02-20 13h50.01.740720 +0000,
cube_l.png,0.1,0.31,invalid,44,44,0,up,0.6603844999917783,None,space,0.5260415999800898,None,,,,,,,,,0,44,44,44,1083.5410505000036,,,,,,,,,,,,,1083.525194499991,1083.5410505000036,1083.5410505000036,1083.5410505000036,1084.2081447000382,,,,1084.2179346000194,1084.2278699000017,1084.2278699000017,1084.2736414999817,1084.2739459000295,1084.2901614999864,1084.2901614999864,1084.2901614999864,1084.3732885000063,1084.8241135000135,,,,,,,,,,,,,,,,,,,,,,up,0.6603844999917783,None,space,0.5260415999800898,None,,,P119,001,2025-02-20_13h49.54.472,posner_endo_new1,2024.2.4,60.01684073496687,2025-02-20 13h50.01.740720 +0000,
cube_l.png,0.1,0.31,invalid,45,45,0,up,3.47388669999782,None,space,0.5236466999631375,None,,,,,,,,,0,45,45,45,1084.8396615000092,,,,,,,,,,,,,1084.8243703999906,1084.8396615000092,1084.8396615000092,1084.8396615000092,1088.3204428000026,,,,1088.330246300029,1088.340444200032,1088.340444200032,1088.3861687000026,1088.3864783000317,1088.4027434000163,1088.4027434000163,1088.4027434000163,1088.4859079000307,1088.9364782000193,,,,,,,,,,,,,,,,,,,,,,up,3.47388669999782,None,space,0.5236466999631375,None,,,P119,001,2025-02-20_13h49.54.472,posner_endo_new1,2024.2.4,60.01684073496687,2025-02-20 13h50.01.740720 +0000,
cube_r.png,0.1,0.31,valid,46,46,0,up,3.088382099987939,None,space,0.48730460001388565,None,,,,,,,,,0,46,46,46,1088.9520962000242,,,,,,,,,,,,,1088.9367288000067,1088.9520962000242,1088.9520962000242,1088.9520962000242,1092.049872100004,,,,1092.0596427000128,1092.069709000003,1092.069709000003,1092.1156598000089,1092.1159657000098,1092.1322433000314,1092.1322433000314,1092.1322433000314,1092.2153669000254,1092.6326428999892,,,,,,,,,,,,,,,,,,,,,,up,3.088382099987939,None,space,0.48730460001388565,None,,,P119,001,2025-02-20_13h49.54.472,posner_endo_new1,2024.2.4,60.01684073496687,2025-02-20 13h50.01.740720 +0000,
cube_l.png,0.1,-0.31,valid,47,47,0,up,3.4476257000351325,None,space,0.41073310002684593,None,,,,,,,,,0,47,47,47,1092.6483230000013,,,,,,,,,,,,,1092.632894099981,1092.6483230000013,1092.6483230000013,1092.6483230000013,1096.1125647000154,,,,1096.122338999994,1096.1322004999965,1096.1322004999965,1096.1780979000032,1096.1784015999874,1096.1947080999962,1096.1947080999962,1096.1947080999962,1096.2779861000017,1096.6121089000371,,,,,,,,,,,,,,,,,,,,,,up,3.4476257000351325,None,space,0.41073310002684593,None,,,P119,001,2025-02-20_13h49.54.472,posner_endo_new1,2024.2.4,60.01684073496687,2025-02-20 13h50.01.740720 +0000,
cube_r.png,0.1,-0.31,invalid,48,48,0,up,3.268398799991701,None,space,0.581295299984049,None,,,,,,,,,0,48,48,48,1096.6276070000022,,,,,,,,,,,,,1096.6123722000048,1096.6276070000022,1096.6276070000022,1096.6276070000022,1099.908687499992,,,,1099.9185017999844,1099.9289092000108,1099.9289092000108,1099.9743833999964,1099.9746939000324,1099.9907839000225,1099.9907839000225,1099.9907839000225,1100.074143100006,1100.5747961000307,,,,,,,,,,,,,,,,,,,,,,up,3.268398799991701,None,space,0.581295299984049,None,,,P119,001,2025-02-20_13h49.54.472,posner_endo_new1,2024.2.4,60.01684073496687,2025-02-20 13h50.01.740720 +0000,
cube_r.png,0.1,10,catch,49,49,0,up,3.2016637000488117,None,None,,,,,,,,,,,0,49,49,49,1100.5902206000173,,,,,,,,,,,,,1100.575049999985,1100.5902206000173,1100.5902206000173,1100.5902206000173,1103.8045642999932,,,,1103.8143754000193,1103.8245505000232,1103.8245505000232,1103.8703520999989,1103.8706568999914,1103.8867639999953,1103.8867639999953,1103.8867639999953,1103.9701051000156,1106.8843321999884,,,,1105.9847053000121,1106.9003094999935,1106.9003094999935,1106.9003094999935,,,,,,,,,,,,,,,up,3.2016637000488117,None,None,,,,,P119,001,2025-02-20_13h49.54.472,posner_endo_new1,2024.2.4,60.01684073496687,2025-02-20 13h50.01.740720 +0000,
cube_l.png,0.1,-0.31,valid,50,50,0,up,0.8195286000263877,None,space,0.46066959999734536,None,,,,,,,,,0,50,50,50,1106.9003094999935,,,,,,,,,,,,,1106.8845751000335,1106.9003094999935,1106.9003094999935,1106.9003094999935,1107.7337526000338,,,,1107.7433928999817,1107.7536383999977,1107.7536383999977,1107.7997140000225,1107.8000227999873,1107.8162019000156,1107.8162019000156,1107.8162019000156,1107.8995092000114,1108.2833502999856,,,,,,,,,,,,,,,,,,,,,,up,0.8195286000263877,None,space,0.46066959999734536,None,,,P119,001,2025-02-20_13h49.54.472,posner_endo_new1,2024.2.4,60.01684073496687,2025-02-20 13h50.01.740720 +0000,
cube_l.png,0.1,-0.31,valid,51,51,0,up,3.8614563000155613,None,space,0.5117452000267804,None,,,,,,,,,0,51,51,51,1108.2989703000057,,,,,,,,,,,,,1108.2836129000061,1108.2989703000057,1108.2989703000057,1108.2989703000057,1112.1627156999893,,,,1112.1724378000363,1112.181997000007,1112.181997000007,1112.2283415999846,1112.2285659000045,1112.2449418000178,1112.2449418000178,1112.2449418000178,1112.3281434000237,1112.7621385999955,,,,,,,,,,,,,,,,,,,,,,up,3.8614563000155613,None,space,0.5117452000267804,None,,,P119,001,2025-02-20_13h49.54.472,posner_endo_new1,2024.2.4,60.01684073496687,2025-02-20 13h50.01.740720 +0000,
cube_r.png,0.1,-0.31,invalid,52,52,0,up,3.18191070004832,None,space,0.5312617999734357,None,,,,,,,,,0,52,52,52,1112.7778297000332,,,,,,,,,,,,,1112.762310900027,1112.7778297000332,1112.7778297000332,1112.7778297000332,1115.9753316999995,,,,1115.9812618999858,1115.9928889999865,1115.9928889999865,1116.0411658000085,1116.0413947000052,1116.0577064999961,1116.0577064999961,1116.0577064999961,1116.1244781999849,1116.591511000006,,,,,,,,,,,,,,,,,,,,,,up,3.18191070004832,None,space,0.5312617999734357,None,,,P119,001,2025-02-20_13h49.54.472,posner_endo_new1,2024.2.4,60.01684073496687,2025-02-20 13h50.01.740720 +0000,
cube_l.png,0.1,-0.31,valid,53,53,0,up,3.5855260000098497,None,space,0.43032069999026135,None,,,,,,,,,0,53,53,53,1116.6070771000232,,,,,,,,,,,,,1116.591684599989,1116.6070771000232,1116.6070771000232,1116.6070771000232,1120.2042527000303,,,,1120.210238300031,1120.2212532000267,1120.2212532000267,1120.2702087000362,1120.2707327000098,1120.2866249000072,1120.2866249000072,1120.2866249000072,1120.3698495000135,1120.7213688000338,,,,,,,,,,,,,,,,,,,,,,up,3.5855260000098497,None,space,0.43032069999026135,None,,,P119,001,2025-02-20_13h49.54.472,posner_endo_new1,2024.2.4,60.01684073496687,2025-02-20 13h50.01.740720 +0000,
cube_r.png,0.1,10,catch,54,54,0,up,3.495819700008724,None,None,,,,,,,,,,,0,54,54,54,1120.736145999981,,,,,,,,,,,,,1120.721808400005,1120.736145999981,1120.736145999981,1120.736145999981,1124.2344988000114,,,,1124.251732200035,1124.2626942000352,1124.2626942000352,1124.2994334999821,1124.2997214000206,1124.3160816000309,1124.3160816000309,1124.3160816000309,1124.3991929999902,1127.3135620999965,,,,1126.4138964000158,1127.3296599999885,1127.3296599999885,1127.3296599999885,,,,,,,,,,,,,,,up,3.495819700008724,None,None,,,,,P119,001,2025-02-20_13h49.54.472,posner_endo_new1,2024.2.4,60.01684073496687,2025-02-20 13h50.01.740720 +0000,
cube_l.png,0.1,0.31,invalid,55,55,0,up,6.7743396000005305,None,space,0.4625667000073008,None,,,,,,,,,0,55,55,55,1127.3296599999885,,,,,,,,,,,,,1127.313820899988,1127.3296599999885,1127.3296599999885,1127.3296599999885,1134.1070638999809,,,,1134.118179699988,1134.128321300028,1134.128321300028,1134.1726782000042,1134.1730119999847,1134.1891790000373,1134.1891790000373,1134.1891790000373,1134.2725035999902,1134.6568405000144,,,,,,,,,,,,,,,,,,,,,,up,6.7743396000005305,None,space,0.4625667000073008,None,,,P119,001,2025-02-20_13h49.54.472,posner_endo_new1,2024.2.4,60.01684073496687,2025-02-20 13h50.01.740720 +0000,
cube_l.png,0.1,-0.31,valid,56,56,0,up,3.7843019000138156,None,space,0.4321868999977596,None,,,,,,,,,0,56,56,56,1134.6720855000312,,,,,,,,,,,,,1134.6571170000243,1134.6720855000312,1134.6720855000312,1134.6720855000312,1138.4682383000036,,,,1138.4742671999848,1138.4853462000028,1138.4853462000028,1138.5183781000087,1138.5185898999916,1138.5348946999875,1138.5348946999875,1138.5348946999875,1138.618141199986,1138.9686787999817,,,,,,,,,,,,,,,,,,,,,,up,3.7843019000138156,None,space,0.4321868999977596,None,1138.5348946999875,1138.5348946999875,P119,001,2025-02-20_13h49.54.472,posner_endo_new1,2024.2.4,60.01684073496687,2025-02-20 13h50.01.740720 +0000,
cube_r.png,0.1,0.31,valid,57,57,0,up,2.855918599991128,None,space,0.43300670001190156,None,,,,,,,,,0,57,57,57,1138.9843111000373,,,,,,,,,,,,,1138.9688558999915,1138.9843111000373,1138.9843111000373,1138.9843111000373,1141.8486492999946,,,,1141.8546916000196,1141.8662765999907,1141.8662765999907,1141.9146351999952,1141.9148577000014,1141.9312426000251,1141.9312426000251,1141.9312426000251,1141.9980206000037,1142.3652523999917,,,,,,,,,,,,,,,,,,,,,,up,2.855918599991128,None,space,0.43300670001190156,None,,,P119,001,2025-02-20_13h49.54.472,posner_endo_new1,2024.2.4,60.01684073496687,2025-02-20 13h50.01.740720 +0000,
cube_r.png,0.1,-0.31,invalid,58,58,0,up,3.298860900045838,None,space,0.507714000006672,None,,,,,,,,,0,58,58,58,1142.3809214000357,,,,,,,,,,,,,1142.3654234000132,1142.3809214000357,1142.3809214000357,1142.3809214000357,1145.6948144999915,,,,1145.700876899995,1145.7126021999866,1145.7126021999866,1145.760882200033,1145.7613857000251,1145.777255300025,1145.777255300025,1145.777255300025,1145.8438373000245,1146.2952969000326,,,,,,,,,,,,,,,,,,,,,,up,3.298860900045838,None,space,0.507714000006672,None,,,P119,001,2025-02-20_13h49.54.472,posner_endo_new1,2024.2.4,60.01684073496687,2025-02-20 13h50.01.740720 +0000,
cube_l.png,0.1,0.31,invalid,59,59,0,up,3.6497881000395864,None,space,0.45536770002217963,None,,,,,,,,,0,59,59,59,1146.310025600018,,,,,,,,,,,,,1146.2957288000034,1146.310025600018,1146.310025600018,1146.310025600018,1149.974679499981,,,,1149.9921607000288,1150.003176600032,1150.003176600032,1150.0398110999959,1150.0400953000062,1150.0563791000168,1150.0563791000168,1150.0563791000168,1150.1394534999854,1150.5242326000007,,,,,,,,,,,,,,,,,,,,,,up,3.6497881000395864,None,space,0.45536770002217963,None,,,P119,001,2025-02-20_13h49.54.472,posner_endo_new1,2024.2.4,60.01684073496687,2025-02-20 13h50.01.740720 +0000,
