cue_img,cue_soa,target_y,trial,thisN,thisTrialN,thisRepN,key_control2.keys,key_control2.rt,key_control2.duration,key_resp.keys,key_resp.rt,key_resp.duration,practice.thisRepN,practice.thisTrialN,practice.thisN,practice.thisIndex,block1.thisRepN,block1.thisTrialN,block1.thisN,block1.thisIndex,block2.thisRepN,block2.thisTrialN,block2.thisN,block2.thisIndex,thisRow.t,notes,instructions.started,instructions_txt.started,key_control.started,instructions.stopped,key_control.keys,key_control.rt,key_control.duration,ready.started,ready_txt.started,ready_txt.stopped,ready.stopped,fix.started,fixation.started,key_control2.started,fixation_cross.started,fix.stopped,practice.key_control2.keys,practice.key_control2.rt,practice.key_control2.duration,cue.started,cube.started,fixation_cross_cue.started,cue.stopped,target.started,fixation_target.started,fixation_cross_target.started,key_resp.started,star.started,target.stopped,practice.key_resp.keys,practice.key_resp.rt,practice.key_resp.duration,star.stopped,fixation_target.stopped,fixation_cross_target.stopped,key_resp.stopped,block1.key_control2.keys,block1.key_control2.rt,block1.key_control2.duration,block1.key_resp.keys,block1.key_resp.rt,block1.key_resp.duration,break_2.started,text.started,key_control3.started,text.stopped,break_2.stopped,key_control3.keys,key_control3.rt,key_control3.duration,block2.key_control2.keys,block2.key_control2.rt,block2.key_control2.duration,block2.key_resp.keys,block2.key_resp.rt,block2.key_resp.duration,participant,session,date,expName,psychopyVersion,frameRate,expStart,
,,,,,,,,,,,,,,,,,,,,,,,,,,,0.007399699999950826,0.021742900018580258,0.021742900018580258,66411.8120792,up,66411.7844156,None,,,,,,,,,,,,,,,,,,,,,,,,,,,,,,,,,,,,,,,,,,,,,,,,,,P120,001,2025-02-20_14h34.06.929,posner_endo_new1,2024.2.4,60.19342556198414,2025-02-20 14h34.13.806296 +0000,
,,,,,,,,,,,,,,,,,,,,,,,,,,,,,,,,,,66411.8121325,66411.82480459998,66415.00806889997,66414.80554849998,,,,,,,,,,,,,,,,,,,,,,,,,,,,,,,,,,,,,,,,,,,,,,P120,001,2025-02-20_14h34.06.929,posner_endo_new1,2024.2.4,60.19342556198414,2025-02-20 14h34.13.806296 +0000,
cube_l.png,0.1,-0.31,valid,0,0,0,down,5.822238799999468,None,space,0.4571912999963388,None,0,0,0,0,,,,,,,,,66415.00806889997,,,,,,,,,,,,,66414.96930140001,66415.00806889997,66415.00806889997,66415.00806889997,66420.83498089999,down,5.822238799999468,None,66420.86725750001,66420.87841310003,66420.87841310003,66420.89846679999,66420.89882459998,66420.92160860001,66420.92160860001,66420.92160860001,66420.9987226,66421.38286950003,space,0.4571912999963388,None,,,,,,,,,,,,,,,,,,,,,,,,,P120,001,2025-02-20_14h34.06.929,posner_endo_new1,2024.2.4,60.19342556198414,2025-02-20 14h34.13.806296 +0000,
cube_l.png,0.1,0.31,invalid,1,1,0,down,5.511608800035901,None,space,0.2456149000208825,None,0,1,1,1,,,,,,,,,66421.39842069999,,,,,,,,,,,,,66421.38314579998,66421.39842069999,66421.39842069999,66421.39842069999,66426.9268596,down,5.511608800035901,None,66426.93703550001,66426.94686800003,66426.94686800003,66426.99276689999,66426.99308699998,66427.0093648,66427.0093648,66427.0093648,66427.0758616,66427.26016589999,space,0.2456149000208825,None,,,,,,,,,,,,,,,,,,,,,,,,,P120,001,2025-02-20_14h34.06.929,posner_endo_new1,2024.2.4,60.19342556198414,2025-02-20 14h34.13.806296 +0000,
cube_r.png,0.1,-0.31,invalid,2,2,0,down,6.658896999957506,None,space,0.5248481999733485,None,0,2,2,2,,,,,,,,,66427.2757301,,,,,,,,,,,,,66427.26040879998,66427.2757301,66427.2757301,66427.2757301,66433.9367277,down,6.658896999957506,None,66433.9485459,66433.95864030003,66433.95864030003,66434.00235060003,66434.00267289998,66434.01864979998,66434.01864979998,66434.01864979998,66434.10201710003,66434.5526086,space,0.5248481999733485,None,,,,,,,,,,,,,,,,,,,,,,,,,P120,001,2025-02-20_14h34.06.929,posner_endo_new1,2024.2.4,60.19342556198414,2025-02-20 14h34.13.806296 +0000,
cube_r.png,0.1,10,catch,3,3,0,down,3.5903163000475615,None,None,,,0,3,3,3,,,,,,,,,66434.5682401,,,,,,,,,,,,,66434.5528531,66434.5682401,66434.5682401,66434.5682401,66438.16552620003,down,3.5903163000475615,None,66438.17526390002,66438.18550249998,66438.18550249998,66438.2313473,66438.2316612,66438.24784690002,66438.24784690002,66438.24784690002,66438.33106420003,66441.24536870001,None,,,66440.34564259998,66441.2612519,66441.2612519,66441.2612519,,,,,,,,,,,,,,,,,,,,,P120,001,2025-02-20_14h34.06.929,posner_endo_new1,2024.2.4,60.19342556198414,2025-02-20 14h34.13.806296 +0000,
cube_l.png,0.1,-0.31,valid,4,4,0,down,2.4884673999622464,None,space,0.4603925999836065,None,0,4,4,4,,,,,,,,,66441.2612519,,,,,,,,,,,,,66441.2455963,66441.2612519,66441.2612519,66441.2612519,66443.7597389,down,2.4884673999622464,None,66443.7694008,66443.77970110002,66443.77970110002,66443.82562179997,66443.82594409998,66443.84207229997,66443.84207229997,66443.84207229997,66443.92528550001,66444.3093425,space,0.4603925999836065,None,,,,,,,,,,,,,,,,,,,,,,,,,P120,001,2025-02-20_14h34.06.929,posner_endo_new1,2024.2.4,60.19342556198414,2025-02-20 14h34.13.806296 +0000,
cube_l.png,0.1,0.31,invalid,5,5,0,down,1.889454599993769,None,space,0.7799857000354677,None,0,5,5,5,,,,,,,,,66444.32426159998,,,,,,,,,,,,,66444.30958479998,66444.32426159998,66444.32426159998,66444.32426159998,66446.22408820002,down,1.889454599993769,None,66446.23558520002,66446.2458033,66446.2458033,66446.28976730001,66446.29011549999,66446.30624429998,66446.30624429998,66446.30624429998,66446.3895013,66447.09008180001,space,0.7799857000354677,None,,,,,,,,,,,,,,,,,,,,,,,,,P120,001,2025-02-20_14h34.06.929,posner_endo_new1,2024.2.4,60.19342556198414,2025-02-20 14h34.13.806296 +0000,
cube_r.png,0.1,-0.31,invalid,6,6,0,down,1.3002534999977797,None,space,0.6602482000016607,None,0,6,6,6,,,,,,,,,66447.10547150002,,,,,,,,,,,,,66447.09035820002,66447.10547150002,66447.10547150002,66447.10547150002,66448.4220666,down,1.3002534999977797,None,66448.43356829998,66448.44380860002,66448.44380860002,66448.48745840002,66448.48781999998,66448.50403389998,66448.50403389998,66448.50403389998,66448.58727140003,66449.17122299998,space,0.6602482000016607,None,,,,,,,,,,,,,,,,,,,,,,,,,P120,001,2025-02-20_14h34.06.929,posner_endo_new1,2024.2.4,60.19342556198414,2025-02-20 14h34.13.806296 +0000,
cube_r.png,0.1,0.31,valid,7,7,0,down,1.3471307000145316,None,space,0.5068047000095248,None,0,7,7,7,,,,,,,,,66449.186582,,,,,,,,,,,,,66449.17150429997,66449.186582,66449.186582,66449.186582,66450.5364718,down,1.3471307000145316,None,66450.54788829997,66450.55819419998,66450.55819419998,66450.60208799999,66450.60244500003,66450.61852060002,66450.61852060002,66450.61852060002,66450.70178339997,66451.13580500003,space,0.5068047000095248,None,,,,,,,,,,,,,,,,,,,,,,,,,P120,001,2025-02-20_14h34.06.929,posner_endo_new1,2024.2.4,60.19342556198414,2025-02-20 14h34.13.806296 +0000,
cube_l.png,0.1,-0.31,valid,8,8,0,down,1.6943740000133403,None,space,0.5948334999848157,None,0,8,8,8,,,,,,,,,66451.15130849998,,,,,,,,,,,,,66451.13608010003,66451.15130849998,66451.15130849998,66451.15130849998,66452.85099200002,down,1.6943740000133403,None,66452.86248080002,66452.8727685,66452.8727685,66452.916401,66452.91676420002,66452.93280840002,66452.93280840002,66452.93280840002,66453.01602699998,66453.53353020002,space,0.5948334999848157,None,,,,,,,,,,,,,,,,,,,,,,,,,P120,001,2025-02-20_14h34.06.929,posner_endo_new1,2024.2.4,60.19342556198414,2025-02-20 14h34.13.806296 +0000,
cube_r.png,0.1,-0.31,invalid,9,9,0,down,1.56873259996064,None,space,0.6317096999846399,None,0,9,9,9,,,,,,,,,66453.5489701,,,,,,,,,,,,,66453.5338041,66453.5489701,66453.5489701,66453.5489701,66455.13173740002,down,1.56873259996064,None,66455.1431405,66455.15340830002,66455.15340830002,66455.19734999997,66455.19770670001,66455.21376780001,66455.21376780001,66455.21376780001,66455.29712409998,66455.84769750002,space,0.6317096999846399,None,,,,,,,,,,,,,,,,,,,,,,,,,P120,001,2025-02-20_14h34.06.929,posner_endo_new1,2024.2.4,60.19342556198414,2025-02-20 14h34.13.806296 +0000,
cube_r.png,0.1,0.31,valid,10,10,0,down,3.3188726999796927,None,space,0.5073334000189789,None,0,10,10,10,,,,,,,,,66455.86337410001,,,,,,,,,,,,,66455.84796779999,66455.86337410001,66455.86337410001,66455.86337410001,66459.19389360002,down,3.3188726999796927,None,66459.20118979999,66459.21270819998,66459.21270819998,66459.25970210001,66459.2599538,66459.27629750001,66459.27629750001,66459.27629750001,66459.35974560003,66459.79323080002,space,0.5073334000189789,None,,,,,,,,,,,,,,,,,,,,,,,,,P120,001,2025-02-20_14h34.06.929,posner_endo_new1,2024.2.4,60.19342556198414,2025-02-20 14h34.13.806296 +0000,
,,,,,,,,,,,,,,,,,,,,,,,,,,,,,,,,,,66459.79335260001,66459.8090372,66462.81393559999,66462.7896204,,,,,,,,,,,,,,,,,,,,,,,,,,,,,,,,,,,,,,,,,,,,,,P120,001,2025-02-20_14h34.06.929,posner_endo_new1,2024.2.4,60.19342556198414,2025-02-20 14h34.13.806296 +0000,
cube_l.png,0.1,10,catch,0,0,0,down,9.688312899961602,None,None,,,,,,,0,0,0,0,,,,,66462.81393559999,,,,,,,,,,,,,66462.80487310002,66462.81393559999,66462.81393559999,66462.81393559999,66472.51354790002,,,,66472.51961010002,66472.5315166,66472.5315166,66472.57946490002,66472.57969819999,66472.59586350003,66472.59586350003,66472.59586350003,66472.67927650001,66475.59341889998,,,,66474.6937373,66475.60970029997,66475.60970029997,66475.60970029997,down,9.688312899961602,None,None,,,,,,,,,,,,,,,,,P120,001,2025-02-20_14h34.06.929,posner_endo_new1,2024.2.4,60.19342556198414,2025-02-20 14h34.13.806296 +0000,
cube_l.png,0.1,10,catch,1,1,0,down,4.819850900035817,None,None,,,,,,,0,1,1,1,,,,,66475.60970029997,,,,,,,,,,,,,66475.59357899998,66475.60970029997,66475.60970029997,66475.60970029997,66480.4386311,,,,66480.44470639998,66480.45652449998,66480.45652449998,66480.50472590001,66480.50495739997,66480.52117830003,66480.52117830003,66480.52117830003,66480.58782010002,66483.51873910002,,,,66482.60243610002,66483.53482519998,66483.53482519998,66483.53482519998,down,4.819850900035817,None,None,,,,,,,,,,,,,,,,,P120,001,2025-02-20_14h34.06.929,posner_endo_new1,2024.2.4,60.19342556198414,2025-02-20 14h34.13.806296 +0000,
cube_l.png,0.1,0.31,invalid,2,2,0,down,1.622899200010579,None,space,0.5443261000327766,None,,,,,0,2,2,2,,,,,66483.53482519998,,,,,,,,,,,,,66483.51889820001,66483.53482519998,66483.53482519998,66483.53482519998,66485.1671657,,,,66485.17315649998,66485.18484900001,66485.18484900001,66485.23325639998,66485.23348420003,66485.24966879998,66485.24966879998,66485.24966879998,66485.31640120002,66485.79990809999,,,,,,,,down,1.622899200010579,None,space,0.5443261000327766,None,,,,,,,,,,,,,,,P120,001,2025-02-20_14h34.06.929,posner_endo_new1,2024.2.4,60.19342556198414,2025-02-20 14h34.13.806296 +0000,
cube_l.png,0.1,0.31,invalid,3,3,0,down,2.4626663999515586,None,space,0.45986780000384897,None,,,,,0,3,3,3,,,,,66485.8158108,,,,,,,,,,,,,66485.80008299998,66485.8158108,66485.8158108,66485.8158108,66488.28070970002,,,,66488.28671820002,66488.29847139999,66488.29847139999,66488.34661509999,66488.34684439999,66488.3632116,66488.3632116,66488.3632116,66488.4297106,66488.83008019999,,,,,,,,down,2.4626663999515586,None,space,0.45986780000384897,None,,,,,,,,,,,,,,,P120,001,2025-02-20_14h34.06.929,posner_endo_new1,2024.2.4,60.19342556198414,2025-02-20 14h34.13.806296 +0000,
cube_l.png,0.1,-0.31,valid,4,4,0,down,1.7202168000512756,None,space,0.4788999000447802,None,,,,,0,4,4,4,,,,,66488.84608360002,,,,,,,,,,,,,66488.83026199997,66488.84608360002,66488.84608360002,66488.84608360002,66490.57835740002,,,,66490.58429839998,66490.59592619998,66490.59592619998,66490.64437200001,66490.6446004,66490.66097879998,66490.66097879998,66490.66097879998,66490.7275172,66491.14458720002,,,,,,,,down,1.7202168000512756,None,space,0.4788999000447802,None,,,,,,,,,,,,,,,P120,001,2025-02-20_14h34.06.929,posner_endo_new1,2024.2.4,60.19342556198414,2025-02-20 14h34.13.806296 +0000,
cube_r.png,0.1,-0.31,invalid,5,5,0,down,2.4293874999857508,None,space,0.5008807000122033,None,,,,,0,5,5,5,,,,,66491.1604849,,,,,,,,,,,,,66491.14475939999,66491.1604849,66491.1604849,66491.1604849,66493.59196639998,,,,66493.5978559,66493.60948320001,66493.60948320001,66493.65800489997,66493.65823569999,66493.6744506,66493.6744506,66493.6744506,66493.74109069997,66494.19120340003,,,,,,,,down,2.4293874999857508,None,space,0.5008807000122033,None,,,,,,,,,,,,,,,P120,001,2025-02-20_14h34.06.929,posner_endo_new1,2024.2.4,60.19342556198414,2025-02-20 14h34.13.806296 +0000,
cube_r.png,0.1,0.31,valid,6,6,0,down,2.0873351999907754,None,space,0.3932838999899104,None,,,,,0,6,6,6,,,,,66494.20715929999,,,,,,,,,,,,,66494.19137419999,66494.20715929999,66494.20715929999,66494.20715929999,66496.30569940002,,,,66496.31171390001,66496.3234077,66496.3234077,66496.37168889999,66496.37191599997,66496.38832909998,66496.38832909998,66496.38832909998,66496.45508540003,66496.78858990001,,,,,,,,down,2.0873351999907754,None,space,0.3932838999899104,None,,,,,,,,,,,,,,,P120,001,2025-02-20_14h34.06.929,posner_endo_new1,2024.2.4,60.19342556198414,2025-02-20 14h34.13.806296 +0000,
cube_r.png,0.1,-0.31,invalid,7,7,0,down,2.017690600012429,None,space,0.4612589000025764,None,,,,,0,7,7,7,,,,,66496.80467600003,,,,,,,,,,,,,66496.78876939998,66496.80467600003,66496.80467600003,66496.80467600003,66498.83658860001,,,,66498.8425872,66498.85420190002,66498.85420190002,66498.90261649998,66498.90284619998,66498.91915059998,66498.91915059998,66498.91915059998,66498.98569409997,66499.38609290001,,,,,,,,down,2.017690600012429,None,space,0.4612589000025764,None,,,,,,,,,,,,,,,P120,001,2025-02-20_14h34.06.929,posner_endo_new1,2024.2.4,60.19342556198414,2025-02-20 14h34.13.806296 +0000,
cube_l.png,0.1,-0.31,valid,8,8,0,down,2.2521217000321485,None,space,0.42051609995542094,None,,,,,0,8,8,8,,,,,66499.40188750002,,,,,,,,,,,,,66499.3862668,66499.40188750002,66499.40188750002,66499.40188750002,66501.66696170002,,,,66501.6729444,66501.68473019998,66501.68473019998,66501.73306140001,66501.73328769999,66501.74958910001,66501.74958910001,66501.74958910001,66501.8160165,66502.18327420001,,,,,,,,down,2.2521217000321485,None,space,0.42051609995542094,None,,,,,,,,,,,,,,,P120,001,2025-02-20_14h34.06.929,posner_endo_new1,2024.2.4,60.19342556198414,2025-02-20 14h34.13.806296 +0000,
cube_r.png,0.1,-0.31,invalid,9,9,0,down,2.863020199991297,None,space,0.4739097999990918,None,,,,,0,9,9,9,,,,,66502.19905459997,,,,,,,,,,,,,66502.18344579998,66502.19905459997,66502.19905459997,66502.19905459997,66505.06400760001,,,,66505.07373200002,66505.084026,66505.084026,66505.1296331,66505.1299467,66505.14603250002,66505.14603250002,66505.14603250002,66505.22940020001,66505.63000100001,,,,,,,,down,2.863020199991297,None,space,0.4739097999990918,None,,,,,,,,,,,,,,,P120,001,2025-02-20_14h34.06.929,posner_endo_new1,2024.2.4,60.19342556198414,2025-02-20 14h34.13.806296 +0000,
cube_l.png,0.1,0.31,invalid,10,10,0,down,2.7524320000084117,None,space,0.559958900033962,None,,,,,0,10,10,10,,,,,66505.64559019997,,,,,,,,,,,,,66505.63025789999,66505.64559019997,66505.64559019997,66505.64559019997,66508.4104626,,,,66508.42020340002,66508.4306816,66508.4306816,66508.47611639998,66508.4764318,66508.4927076,66508.4927076,66508.4927076,66508.57590280002,66509.05984960002,,,,,,,,down,2.7524320000084117,None,space,0.559958900033962,None,,,,,,,,,,,,,,,P120,001,2025-02-20_14h34.06.929,posner_endo_new1,2024.2.4,60.19342556198414,2025-02-20 14h34.13.806296 +0000,
cube_r.png,0.1,-0.31,invalid,11,11,0,down,2.034513099992182,None,space,0.4141914999927394,None,,,,,0,11,11,11,,,,,66509.07547530002,,,,,,,,,,,,,66509.0600992,66509.07547530002,66509.07547530002,66509.07547530002,66511.12436309998,,,,66511.13413979998,66511.14432690002,66511.14432690002,66511.18998159998,66511.19029390003,66511.20664440002,66511.20664440002,66511.20664440002,66511.28976959997,66511.62384329998,,,,,,,,down,2.034513099992182,None,space,0.4141914999927394,None,,,,,,,,,,,,,,,P120,001,2025-02-20_14h34.06.929,posner_endo_new1,2024.2.4,60.19342556198414,2025-02-20 14h34.13.806296 +0000,
cube_r.png,0.1,0.31,valid,12,12,0,down,2.438677500002086,None,space,0.32992589997593313,None,,,,,0,12,12,12,,,,,66511.63954130001,,,,,,,,,,,,,66511.62409390003,66511.63954130001,66511.63954130001,66511.63954130001,66514.08804920001,,,,66514.0977487,66514.10794399999,66514.10794399999,66514.15380199999,66514.15411589999,66514.17017970001,66514.17017970001,66514.17017970001,66514.25354329997,66514.50435559999,,,,,,,,down,2.438677500002086,None,space,0.32992589997593313,None,,,,,,,,,,,,,,,P120,001,2025-02-20_14h34.06.929,posner_endo_new1,2024.2.4,60.19342556198414,2025-02-20 14h34.13.806296 +0000,
cube_l.png,0.1,10,catch,13,13,0,down,2.96735940000508,None,None,,,,,,,0,13,13,13,,,,,66514.519883,,,,,,,,,,,,,66514.5046243,66514.519883,66514.519883,66514.519883,66517.5011842,,,,66517.51094190002,66517.521136,66517.521136,66517.56686680001,66517.56718369998,66517.58347980003,66517.58347980003,66517.58347980003,66517.6666917,66520.58098099998,,,,66519.68121040001,66520.59703100001,66520.59703100001,66520.59703100001,down,2.96735940000508,None,None,,,,,,,,,,,,,,,,,P120,001,2025-02-20_14h34.06.929,posner_endo_new1,2024.2.4,60.19342556198414,2025-02-20 14h34.13.806296 +0000,
cube_r.png,0.1,-0.31,invalid,14,14,0,down,0.6101314999978058,None,space,0.4937130000325851,None,,,,,0,14,14,14,,,,,66520.59703100001,,,,,,,,,,,,,66520.58122509997,66520.59703100001,66520.59703100001,66520.59703100001,66521.21403159999,,,,66521.22370189999,66521.23390290001,66521.23390290001,66521.2797664,66521.28008360002,66521.2961643,66521.2961643,66521.2961643,66521.37952780002,66521.79672480002,,,,,,,,down,0.6101314999978058,None,space,0.4937130000325851,None,,,,,,,,,,,,,,,P120,001,2025-02-20_14h34.06.929,posner_endo_new1,2024.2.4,60.19342556198414,2025-02-20 14h34.13.806296 +0000,
cube_l.png,0.1,-0.31,valid,15,15,0,down,2.049746899981983,None,space,0.41202459996566176,None,,,,,0,15,15,15,,,,,66521.81249510002,,,,,,,,,,,,,66521.79698059999,66521.81249510002,66521.81249510002,66521.81249510002,66523.87805639999,,,,66523.88773040002,66523.8977118,66523.8977118,66523.9437911,66523.94410040003,66523.96023219998,66523.96023219998,66523.96023219998,66524.0435882,66524.37757150002,,,,,,,,down,2.049746899981983,None,space,0.41202459996566176,None,,,,,,,,,,,,,,,P120,001,2025-02-20_14h34.06.929,posner_endo_new1,2024.2.4,60.19342556198414,2025-02-20 14h34.13.806296 +0000,
cube_r.png,0.1,10,catch,16,16,0,down,5.453036999970209,None,None,,,,,,,0,16,16,16,,,,,66524.39311910002,,,,,,,,,,,,,66524.3778277,66524.39311910002,66524.39311910002,66524.39311910002,66529.85528020002,,,,66529.86513400002,66529.87543309998,66529.87543309998,66529.9209738,66529.92128860002,66529.9374546,66529.9374546,66529.9374546,66530.0206705,66532.93511989998,,,,66532.03529249999,66532.95097820001,66532.95097820001,66532.95097820001,down,5.453036999970209,None,None,,,,,,,,,,,,,,,,,P120,001,2025-02-20_14h34.06.929,posner_endo_new1,2024.2.4,60.19342556198414,2025-02-20 14h34.13.806296 +0000,
cube_r.png,0.1,10,catch,17,17,0,down,0.5827755000209436,None,None,,,,,,,0,17,17,17,,,,,66532.95097820001,,,,,,,,,,,,,66532.93536170002,66532.95097820001,66532.95097820001,66532.95097820001,66533.53479,,,,66533.54455240001,66533.55453570001,66533.55453570001,66533.60057790001,66533.60089350003,66533.61703070003,66533.61703070003,66533.61703070003,66533.70033109997,66536.6147329,,,,66535.71490060003,66536.63070049998,66536.63070049998,66536.63070049998,down,0.5827755000209436,None,None,,,,,,,,,,,,,,,,,P120,001,2025-02-20_14h34.06.929,posner_endo_new1,2024.2.4,60.19342556198414,2025-02-20 14h34.13.806296 +0000,
cube_l.png,0.1,0.31,invalid,18,18,0,down,0.3438586000120267,None,space,0.51388909999514,None,,,,,0,18,18,18,,,,,66536.63070049998,,,,,,,,,,,,,66536.61496749998,66536.63070049998,66536.63070049998,66536.63070049998,66536.98123610002,,,,66536.98948009999,66536.99986520002,66536.99986520002,66537.04688370001,66537.0471121,66537.06344390003,66537.06344390003,66537.06344390003,66537.146642,66537.58040879999,,,,,,,,down,0.3438586000120267,None,space,0.51388909999514,None,,,,,,,,,,,,,,,P120,001,2025-02-20_14h34.06.929,posner_endo_new1,2024.2.4,60.19342556198414,2025-02-20 14h34.13.806296 +0000,
cube_l.png,0.1,10,catch,19,19,0,down,2.2259991000173613,None,None,,,,,,,0,19,19,19,,,,,66537.59617889998,,,,,,,,,,,,,66537.5805868,66537.59617889998,66537.59617889998,66537.59617889998,66539.82798230002,,,,66539.83440569998,66539.84623109997,66539.84623109997,66539.89385669999,66539.89408539998,66539.91050519998,66539.91050519998,66539.91050519998,66539.9771593,66542.90798939997,,,,66541.99179559998,66542.9241835,66542.9241835,66542.9241835,down,2.2259991000173613,None,None,,,,,,,,,,,,,,,,,P120,001,2025-02-20_14h34.06.929,posner_endo_new1,2024.2.4,60.19342556198414,2025-02-20 14h34.13.806296 +0000,
cube_l.png,0.1,0.31,invalid,20,20,0,down,0.06641099997796118,None,space,0.5040600999491289,None,,,,,0,20,20,20,,,,,66542.9241835,,,,,,,,,,,,,66542.90814979997,66542.9241835,66542.9241835,66542.9241835,66542.99151999998,,,,66542.99801410001,66543.00973250001,66543.00973250001,66543.05754519999,66543.05777319998,66543.07405980001,66543.07405980001,66543.07405980001,66543.15726409998,66543.59080429998,,,,,,,,down,0.06641099997796118,None,space,0.5040600999491289,None,,,,,,,,,,,,,,,P120,001,2025-02-20_14h34.06.929,posner_endo_new1,2024.2.4,60.19342556198414,2025-02-20 14h34.13.806296 +0000,
cube_l.png,0.1,-0.31,valid,21,21,0,down,2.0230938000022434,None,space,0.46275209996383637,None,,,,,0,21,21,21,,,,,66543.60679619998,,,,,,,,,,,,,66543.59097630001,66543.60679619998,66543.60679619998,66543.60679619998,66545.63866220001,,,,66545.6446693,66545.65634320001,66545.65634320001,66545.70472380001,66545.7049513,66545.72133660002,66545.72133660002,66545.72133660002,66545.78785770002,66546.1883632,,,,,,,,down,2.0230938000022434,None,space,0.46275209996383637,None,,,,,,,,,,,,,,,P120,001,2025-02-20_14h34.06.929,posner_endo_new1,2024.2.4,60.19342556198414,2025-02-20 14h34.13.806296 +0000,
cube_r.png,0.1,0.31,valid,22,22,0,down,3.354047400003765,None,space,0.43888289999449626,None,,,,,0,22,22,22,,,,,66546.20413249999,,,,,,,,,,,,,66546.18854429998,66546.20413249999,66546.20413249999,66546.20413249999,66549.56802050001,,,,66549.57404949999,66549.5857547,66549.5857547,66549.63409220002,66549.63432379998,66549.65055379999,66549.65055379999,66549.65055379999,66549.71709619998,66550.10083760001,,,,,,,,down,3.354047400003765,None,space,0.43888289999449626,None,,,,,,,,,,,,,,,P120,001,2025-02-20_14h34.06.929,posner_endo_new1,2024.2.4,60.19342556198414,2025-02-20 14h34.13.806296 +0000,
cube_r.png,0.1,-0.31,invalid,23,23,0,down,2.0252504000090994,None,space,0.4938241999479942,None,,,,,0,23,23,23,,,,,66550.11677740002,,,,,,,,,,,,,66550.10101350001,66550.11677740002,66550.11677740002,66550.11677740002,66552.14878390002,,,,66552.15472699999,66552.1664405,66552.1664405,66552.21486339998,66552.21509319998,66552.23145750002,66552.23145750002,66552.23145750002,66552.29784730001,66552.73164369998,,,,,,,,down,2.0252504000090994,None,space,0.4938241999479942,None,,,,,,,,,,,,,,,P120,001,2025-02-20_14h34.06.929,posner_endo_new1,2024.2.4,60.19342556198414,2025-02-20 14h34.13.806296 +0000,
cube_r.png,0.1,0.31,valid,24,24,0,down,2.3068626999738626,None,space,0.4147528000175953,None,,,,,0,24,24,24,,,,,66552.7474242,,,,,,,,,,,,,66552.73181580001,66552.7474242,66552.7474242,66552.7474242,66555.06243220001,,,,66555.06837350002,66555.0801361,66555.0801361,66555.12855590001,66555.128784,66555.14494899998,66555.14494899998,66555.14494899998,66555.21175179997,66555.56189840002,,,,,,,,down,2.3068626999738626,None,space,0.4147528000175953,None,,,,,,,,,,,,,,,P120,001,2025-02-20_14h34.06.929,posner_endo_new1,2024.2.4,60.19342556198414,2025-02-20 14h34.13.806296 +0000,
cube_r.png,0.1,-0.31,invalid,25,25,0,down,2.788068199995905,None,space,0.41160489997128025,None,,,,,0,25,25,25,,,,,66555.5778808,,,,,,,,,,,,,66555.56207859999,66555.5778808,66555.5778808,66555.5778808,66558.37576899998,,,,66558.38179349998,66558.3933853,66558.3933853,66558.44171089999,66558.44194029999,66558.45825869997,66558.45825869997,66558.45825869997,66558.52496240003,66558.87522569997,,,,,,,,down,2.788068199995905,None,space,0.41160489997128025,None,,,,,,,,,,,,,,,P120,001,2025-02-20_14h34.06.929,posner_endo_new1,2024.2.4,60.19342556198414,2025-02-20 14h34.13.806296 +0000,
cube_l.png,0.1,-0.31,valid,26,26,0,down,2.3473739000037313,None,space,0.43734060000861064,None,,,,,0,26,26,26,,,,,66558.89121819998,,,,,,,,,,,,,66558.8753972,66558.89121819998,66558.89121819998,66558.89121819998,66561.239512,,,,66561.2455288,66561.25725849997,66561.25725849997,66561.30535649997,66561.30558500002,66561.32205670001,66561.32205670001,66561.32205670001,66561.38855809998,66561.77233170002,,,,,,,,down,2.3473739000037313,None,space,0.43734060000861064,None,,,,,,,,,,,,,,,P120,001,2025-02-20_14h34.06.929,posner_endo_new1,2024.2.4,60.19342556198414,2025-02-20 14h34.13.806296 +0000,
cube_r.png,0.1,0.31,valid,27,27,0,down,2.2257859999663197,None,space,0.4051653999486007,None,,,,,0,27,27,27,,,,,66561.78812430002,,,,,,,,,,,,,66561.77250640001,66561.78812430002,66561.78812430002,66561.78812430002,66564.01994010003,,,,66564.02604590001,66564.03786619997,66564.03786619997,66564.08598510001,66564.08621410001,66564.10250590002,66564.10250590002,66564.10250590002,66564.16908840003,66564.51956520003,,,,,,,,down,2.2257859999663197,None,space,0.4051653999486007,None,,,,,,,,,,,,,,,P120,001,2025-02-20_14h34.06.929,posner_endo_new1,2024.2.4,60.19342556198414,2025-02-20 14h34.13.806296 +0000,
cube_r.png,0.1,10,catch,28,28,0,down,2.4707774000125937,None,None,,,,,,,0,28,28,28,,,,,66564.53553970001,,,,,,,,,,,,,66564.51974030002,66564.53553970001,66564.53553970001,66564.53553970001,66567.016994,,,,66567.0230622,66567.03484789998,66567.03484789998,66567.08278200001,66567.08301,66567.099484,66567.099484,66567.099484,66567.16601729998,66570.09696519998,,,,66569.18074390001,66570.11304159998,66570.11304159998,66570.11304159998,down,2.4707774000125937,None,None,,,,,,,,,,,,,,,,,P120,001,2025-02-20_14h34.06.929,posner_endo_new1,2024.2.4,60.19342556198414,2025-02-20 14h34.13.806296 +0000,
cube_r.png,0.1,0.31,valid,29,29,0,down,0.9095660999882966,None,space,0.39304879994597286,None,,,,,0,29,29,29,,,,,66570.11304159998,,,,,,,,,,,,,66570.09712649998,66570.11304159998,66570.11304159998,66570.11304159998,66571.02941329998,,,,66571.03542839998,66571.0471433,66571.0471433,66571.09551329998,66571.0957457,66571.11197760003,66571.11197760003,66571.11197760003,66571.17871020001,66571.51224080002,,,,,,,,down,0.9095660999882966,None,space,0.39304879994597286,None,,,,,,,,,,,,,,,P120,001,2025-02-20_14h34.06.929,posner_endo_new1,2024.2.4,60.19342556198414,2025-02-20 14h34.13.806296 +0000,
cube_r.png,0.1,0.31,valid,30,30,0,down,6.189854500000365,None,space,0.6012875000014901,None,,,,,0,30,30,30,,,,,66571.5282987,,,,,,,,,,,,,66571.51241229998,66571.5282987,66571.5282987,66571.5282987,66577.72271300002,,,,66577.7287714,66577.74033120001,66577.74033120001,66577.78867610003,66577.78890330001,66577.80526739999,66577.80526739999,66577.80526739999,66577.87181049999,66578.42190140003,,,,,,,,down,6.189854500000365,None,space,0.6012875000014901,None,,,,,,,,,,,,,,,P120,001,2025-02-20_14h34.06.929,posner_endo_new1,2024.2.4,60.19342556198414,2025-02-20 14h34.13.806296 +0000,
cube_l.png,0.1,-0.31,valid,31,31,0,down,2.647932199994102,None,space,0.5469584999955259,None,,,,,0,31,31,31,,,,,66578.43785549997,,,,,,,,,,,,,66578.42207839998,66578.43785549997,66578.43785549997,66578.43785549997,66581.10265349998,,,,66581.1086945,66581.11981070001,66581.11981070001,66581.16849469999,66581.16900489997,66581.1849168,66581.1849168,66581.1849168,66581.26816049998,66581.73626510001,,,,,,,,down,2.647932199994102,None,space,0.5469584999955259,None,,,,,,,,,,,,,,,P120,001,2025-02-20_14h34.06.929,posner_endo_new1,2024.2.4,60.19342556198414,2025-02-20 14h34.13.806296 +0000,
cube_r.png,0.1,0.31,valid,32,32,0,down,5.3987557999789715,None,space,0.460709200007841,None,,,,,0,32,32,32,,,,,66581.75098200003,,,,,,,,,,,,,66581.73669679998,66581.75098200003,66581.75098200003,66581.75098200003,66587.16352330003,,,,66587.17504130001,66587.18535669998,66587.18535669998,66587.22881990002,66587.22907320003,66587.24525450001,66587.24525450001,66587.24525450001,66587.32861540001,66587.71256379999,,,,,,,,down,5.3987557999789715,None,space,0.460709200007841,None,,,,,,,,,,,,,,,P120,001,2025-02-20_14h34.06.929,posner_endo_new1,2024.2.4,60.19342556198414,2025-02-20 14h34.13.806296 +0000,
cube_r.png,0.1,-0.31,invalid,33,33,0,down,2.6298158999998122,None,space,0.45036129996879026,None,,,,,0,33,33,33,,,,,66587.72826549999,,,,,,,,,,,,,66587.71276020003,66587.72826549999,66587.72826549999,66587.72826549999,66590.35999049997,,,,66590.3673165,66590.3786003,66590.3786003,66590.42554079997,66590.42580159998,66590.4422015,66590.4422015,66590.4422015,66590.5256009,66590.9093621,,,,,,,,down,2.6298158999998122,None,space,0.45036129996879026,None,,,,,,,,,,,,,,,P120,001,2025-02-20_14h34.06.929,posner_endo_new1,2024.2.4,60.19342556198414,2025-02-20 14h34.13.806296 +0000,
cube_r.png,0.1,10,catch,34,34,0,down,1.8335303000058047,None,None,,,,,,,0,34,34,34,,,,,66590.92507,,,,,,,,,,,,,66590.9095605,66590.92507,66590.92507,66590.92507,66592.77420069999,,,,66592.7814952,66592.7928544,66592.7928544,66592.83994099998,66592.84019840002,66592.85643089999,66592.85643089999,66592.85643089999,66592.93958359997,66595.85374290001,,,,66594.9542873,66595.86992039997,66595.86992039997,66595.86992039997,down,1.8335303000058047,None,None,,,,,,,,,,,,,,,,,P120,001,2025-02-20_14h34.06.929,posner_endo_new1,2024.2.4,60.19342556198414,2025-02-20 14h34.13.806296 +0000,
cube_r.png,0.1,0.31,valid,35,35,0,down,0.11221290001412854,None,space,0.39006060000974685,None,,,,,0,35,35,35,,,,,66595.86992039997,,,,,,,,,,,,,66595.8539253,66595.86992039997,66595.86992039997,66595.86992039997,66595.98735830002,,,,66595.9946567,66596.00610509998,66596.00610509998,66596.05341270001,66596.05398319999,66596.06979829998,66596.06979829998,66596.06979829998,66596.15308279998,66596.47150639998,,,,,,,,down,0.11221290001412854,None,space,0.39006060000974685,None,,,,,,,,,,,,,,,P120,001,2025-02-20_14h34.06.929,posner_endo_new1,2024.2.4,60.19342556198414,2025-02-20 14h34.13.806296 +0000,
cube_r.png,0.1,-0.31,invalid,36,36,0,down,3.0318275000317954,None,space,0.43988849996821955,None,,,,,0,36,36,36,,,,,66596.48603670002,,,,,,,,,,,,,66596.4719917,66596.48603670002,66596.48603670002,66596.48603670002,66599.5348278,,,,66599.55349830003,66599.56436730002,66599.56436730002,66599.59974630002,66599.6000565,66599.61635999999,66599.61635999999,66599.61635999999,66599.69940420002,66600.06688350003,,,,,,,,down,3.0318275000317954,None,space,0.43988849996821955,None,,,,,,,,,,,,,,,P120,001,2025-02-20_14h34.06.929,posner_endo_new1,2024.2.4,60.19342556198414,2025-02-20 14h34.13.806296 +0000,
cube_l.png,0.1,0.31,invalid,37,37,0,down,1.6755683000083081,None,space,0.41637260001152754,None,,,,,0,37,37,37,,,,,66600.0825438,,,,,,,,,,,,,66600.06713639997,66600.0825438,66600.0825438,66600.0825438,66601.76506940002,,,,66601.77467200003,66601.784988,66601.784988,66601.83084339998,66601.83115869999,66601.84743730002,66601.84743730002,66601.84743730002,66601.93065180001,66602.26484249998,,,,,,,,down,1.6755683000083081,None,space,0.41637260001152754,None,,,,,,,,,,,,,,,P120,001,2025-02-20_14h34.06.929,posner_endo_new1,2024.2.4,60.19342556198414,2025-02-20 14h34.13.806296 +0000,
cube_l.png,0.1,0.31,invalid,38,38,0,down,2.110005899972748,None,space,0.45990449999226257,None,,,,,0,38,38,38,,,,,66602.28019919997,,,,,,,,,,,,,66602.26509900001,66602.28019919997,66602.28019919997,66602.28019919997,66604.39585550001,,,,66604.40549989999,66604.41572789999,66604.41572789999,66604.46135140001,66604.4616705,66604.47797910002,66604.47797910002,66604.47797910002,66604.5611309,66604.94520900003,,,,,,,,down,2.110005899972748,None,space,0.45990449999226257,None,,,,,,,,,,,,,,,P120,001,2025-02-20_14h34.06.929,posner_endo_new1,2024.2.4,60.19342556198414,2025-02-20 14h34.13.806296 +0000,
cube_r.png,0.1,0.31,valid,39,39,0,down,2.62953659996856,None,space,0.3825760000036098,None,,,,,0,39,39,39,,,,,66604.96077050001,,,,,,,,,,,,,66604.94545970001,66604.96077050001,66604.96077050001,66604.96077050001,66607.59247719997,,,,66607.60207849997,66607.61235030001,66607.61235030001,66607.65816629998,66607.65848390001,66607.67473239999,66607.67473239999,66607.67473239999,66607.75800099998,66608.0588148,,,,,,,,down,2.62953659996856,None,space,0.3825760000036098,None,,,,,,,,,,,,,,,P120,001,2025-02-20_14h34.06.929,posner_endo_new1,2024.2.4,60.19342556198414,2025-02-20 14h34.13.806296 +0000,
cube_l.png,0.1,0.31,invalid,40,40,0,down,2.611849299981259,None,space,0.42727689997991547,None,,,,,0,40,40,40,,,,,66608.07423570001,,,,,,,,,,,,,66608.05906549998,66608.07423570001,66608.07423570001,66608.07423570001,66610.690092,,,,66610.70873160003,66610.72004799999,66610.72004799999,66610.75511249999,66610.75546309998,66610.7714885,66610.7714885,66610.7714885,66610.85484789999,66611.2055704,,,,,,,,down,2.611849299981259,None,space,0.42727689997991547,None,,,,,,,,,,,,,,,P120,001,2025-02-20_14h34.06.929,posner_endo_new1,2024.2.4,60.19342556198414,2025-02-20 14h34.13.806296 +0000,
cube_l.png,0.1,10,catch,41,41,0,down,2.729653599963058,None,None,,,,,,,0,41,41,41,,,,,66611.22116940003,,,,,,,,,,,,,66611.20586039999,66611.22116940003,66611.22116940003,66611.22116940003,66613.95299339999,,,,66613.96445889998,66613.97482609999,66613.97482609999,66614.0182857,66614.01853960002,66614.0348513,66614.0348513,66614.0348513,66614.11807259999,66617.03235459997,,,,66616.13271719997,66617.04845070001,66617.04845070001,66617.04845070001,down,2.729653599963058,None,None,,,,,,,,,,,,,,,,,P120,001,2025-02-20_14h34.06.929,posner_endo_new1,2024.2.4,60.19342556198414,2025-02-20 14h34.13.806296 +0000,
cube_l.png,0.1,-0.31,valid,42,42,0,down,0.1190490999724716,None,space,0.4555648000095971,None,,,,,0,42,42,42,,,,,66617.04845070001,,,,,,,,,,,,,66617.03253879998,66617.04845070001,66617.04845070001,66617.04845070001,66617.18247280002,,,,66617.18979879998,66617.2012668,66617.2012668,66617.24833199999,66617.2485851,66617.2647386,66617.2647386,66617.2647386,66617.3480989,66617.73195659998,,,,,,,,down,0.1190490999724716,None,space,0.4555648000095971,None,,,,,,,,,,,,,,,P120,001,2025-02-20_14h34.06.929,posner_endo_new1,2024.2.4,60.19342556198414,2025-02-20 14h34.13.806296 +0000,
cube_l.png,0.1,10,catch,43,43,0,down,2.706779000000097,None,None,,,,,,,0,43,43,43,,,,,66617.74760150001,,,,,,,,,,,,,66617.7321496,66617.74760150001,66617.74760150001,66617.74760150001,66620.46262260003,,,,66620.47000039998,66620.4811033,66620.4811033,66620.52820350003,66620.5284595,66620.54476419999,66620.54476419999,66620.54476419999,66620.62806389999,66623.54286719998,,,,66622.64268579998,66623.55835880002,66623.55835880002,66623.55835880002,down,2.706779000000097,None,None,,,,,,,,,,,,,,,,,P120,001,2025-02-20_14h34.06.929,posner_endo_new1,2024.2.4,60.19342556198414,2025-02-20 14h34.13.806296 +0000,
cube_l.png,0.1,0.31,invalid,44,44,0,down,3.40786100004334,None,space,0.4631453999900259,None,,,,,0,44,44,44,,,,,66623.55835880002,,,,,,,,,,,,,66623.5433047,66623.55835880002,66623.55835880002,66623.55835880002,66626.97343740001,,,,66626.99204029999,66627.00342349999,66627.00342349999,66627.03842380003,66627.03898389998,66627.05480490002,66627.05480490002,66627.05480490002,66627.13804789999,66627.5229168,,,,,,,,down,3.40786100004334,None,space,0.4631453999900259,None,,,,,,,,,,,,,,,P120,001,2025-02-20_14h34.06.929,posner_endo_new1,2024.2.4,60.19342556198414,2025-02-20 14h34.13.806296 +0000,
cube_l.png,0.1,0.31,invalid,45,45,0,down,2.0604148999555036,None,space,0.505578999989666,None,,,,,0,45,45,45,,,,,66627.53765010001,,,,,,,,,,,,,66627.52338899998,66627.53765010001,66627.53765010001,66627.53765010001,66629.60413250001,,,,66629.62287899997,66629.63452909997,66629.63452909997,66629.66902580002,66629.66931590001,66629.68549260002,66629.68549260002,66629.68549260002,66629.7685458,66630.20266990003,,,,,,,,down,2.0604148999555036,None,space,0.505578999989666,None,,,,,,,,,,,,,,,P120,001,2025-02-20_14h34.06.929,posner_endo_new1,2024.2.4,60.19342556198414,2025-02-20 14h34.13.806296 +0000,
cube_r.png,0.1,0.31,valid,46,46,0,down,2.108723299985286,None,space,0.4114386000437662,None,,,,,0,46,46,46,,,,,66630.21835869999,,,,,,,,,,,,,66630.20289979997,66630.21835869999,66630.21835869999,66630.21835869999,66632.33494209999,,,,66632.35350780003,66632.36482050002,66632.36482050002,66632.39958590001,66632.39990030002,66632.41614440002,66632.41614440002,66632.41614440002,66632.49937199999,66632.83341909997,,,,,,,,down,2.108723299985286,None,space,0.4114386000437662,None,,,,,,,,,,,,,,,P120,001,2025-02-20_14h34.06.929,posner_endo_new1,2024.2.4,60.19342556198414,2025-02-20 14h34.13.806296 +0000,
cube_l.png,0.1,-0.31,valid,47,47,0,down,2.221172999998089,None,space,0.3645414999919012,None,,,,,0,47,47,47,,,,,66632.84897250001,,,,,,,,,,,,,66632.83367099997,66632.84897250001,66632.84897250001,66632.84897250001,66635.08105440001,,,,66635.08925399999,66635.09964199999,66635.09964199999,66635.14684439998,66635.14707850001,66635.16328430001,66635.16328430001,66635.16328430001,66635.2465978,66635.53045090003,,,,,,,,down,2.221172999998089,None,space,0.3645414999919012,None,,,,,,,,,,,,,,,P120,001,2025-02-20_14h34.06.929,posner_endo_new1,2024.2.4,60.19342556198414,2025-02-20 14h34.13.806296 +0000,
cube_r.png,0.1,-0.31,invalid,48,48,0,down,2.6597821000032127,None,space,0.39059810002800077,None,,,,,0,48,48,48,,,,,66635.5461338,,,,,,,,,,,,,66635.53062179999,66635.5461338,66635.5461338,66635.5461338,66638.21088269999,,,,66638.21728470002,66638.22898429999,66638.22898429999,66638.27685889998,66638.27708909998,66638.29325639998,66638.29325639998,66638.29325639998,66638.36018959997,66638.69368309999,,,,,,,,down,2.6597821000032127,None,space,0.39059810002800077,None,,,,,,,,,,,,,,,P120,001,2025-02-20_14h34.06.929,posner_endo_new1,2024.2.4,60.19342556198414,2025-02-20 14h34.13.806296 +0000,
cube_r.png,0.1,10,catch,49,49,0,down,2.5369858000194654,None,None,,,,,,,0,49,49,49,,,,,66638.70958760002,,,,,,,,,,,,,66638.69385049999,66638.70958760002,66638.70958760002,66638.70958760002,66641.257697,,,,66641.264096,66641.27592450002,66641.27592450002,66641.32372440002,66641.32396870002,66641.34030420001,66641.34030420001,66641.34030420001,66641.4069144,66644.33768659999,,,,66643.4214704,66644.35382730002,66644.35382730002,66644.35382730002,down,2.5369858000194654,None,None,,,,,,,,,,,,,,,,,P120,001,2025-02-20_14h34.06.929,posner_endo_new1,2024.2.4,60.19342556198414,2025-02-20 14h34.13.806296 +0000,
cube_l.png,0.1,-0.31,valid,50,50,0,down,0.2123542000190355,None,space,0.5048039999674074,None,,,,,0,50,50,50,,,,,66644.35382730002,,,,,,,,,,,,,66644.33784479997,66644.35382730002,66644.35382730002,66644.35382730002,66644.5709397,,,,66644.57735729998,66644.58900029998,66644.58900029998,66644.63707519998,66644.63730419998,66644.65344800003,66644.65344800003,66644.65344800003,66644.72020829999,66645.1704833,,,,,,,,down,0.2123542000190355,None,space,0.5048039999674074,None,,,,,,,,,,,,,,,P120,001,2025-02-20_14h34.06.929,posner_endo_new1,2024.2.4,60.19342556198414,2025-02-20 14h34.13.806296 +0000,
cube_l.png,0.1,-0.31,valid,51,51,0,down,5.2838308999780566,None,space,0.47389730002032593,None,,,,,0,51,51,51,,,,,66645.18638289999,,,,,,,,,,,,,66645.17065410002,66645.18638289999,66645.18638289999,66645.18638289999,66650.4816225,,,,66650.4880893,66650.49976739998,66650.49976739998,66650.5477243,66650.5479524,66650.56427139998,66650.56427139998,66650.56427139998,66650.630909,66651.04775789997,,,,,,,,down,5.2838308999780566,None,space,0.47389730002032593,None,,,,,,,,,,,,,,,P120,001,2025-02-20_14h34.06.929,posner_endo_new1,2024.2.4,60.19342556198414,2025-02-20 14h34.13.806296 +0000,
cube_r.png,0.1,-0.31,invalid,52,52,0,down,2.2942792999674566,None,space,0.42054190003545955,None,,,,,0,52,52,52,,,,,66651.06374750001,,,,,,,,,,,,,66651.04792789998,66651.06374750001,66651.06374750001,66651.06374750001,66653.3620811,,,,66653.36850340001,66653.38018179999,66653.38018179999,66653.42802430002,66653.42825330002,66653.44462269999,66653.44462269999,66653.44462269999,66653.51113589999,66653.87814049999,,,,,,,,down,2.2942792999674566,None,space,0.42054190003545955,None,,,,,,,,,,,,,,,P120,001,2025-02-20_14h34.06.929,posner_endo_new1,2024.2.4,60.19342556198414,2025-02-20 14h34.13.806296 +0000,
cube_l.png,0.1,-0.31,valid,53,53,0,down,1.9124557999894023,None,space,0.3916476999875158,None,,,,,0,53,53,53,,,,,66653.89410929999,,,,,,,,,,,,,66653.87831370003,66653.89410929999,66653.89410929999,66653.89410929999,66655.80952760001,,,,66655.81587280001,66655.82770189998,66655.82770189998,66655.87550989998,66655.87573919998,66655.8921317,66655.8921317,66655.8921317,66655.9586437,66656.29240500001,,,,,,,,down,1.9124557999894023,None,space,0.3916476999875158,None,,,,,,,,,,,,,,,P120,001,2025-02-20_14h34.06.929,posner_endo_new1,2024.2.4,60.19342556198414,2025-02-20 14h34.13.806296 +0000,
cube_r.png,0.1,10,catch,54,54,0,down,3.258005699957721,None,None,,,,,,,0,54,54,54,,,,,66656.30831270001,,,,,,,,,,,,,66656.29257490003,66656.30831270001,66656.30831270001,66656.30831270001,66659.57230330002,,,,66659.57872420002,66659.59040290001,66659.59040290001,66659.6384615,66659.63868759997,66659.6549572,66659.6549572,66659.6549572,66659.72135379998,66662.65231059998,,,,66661.73606030003,66662.66854699998,66662.66854699998,66662.66854699998,down,3.258005699957721,None,None,,,,,,,,,,,,,,,,,P120,001,2025-02-20_14h34.06.929,posner_endo_new1,2024.2.4,60.19342556198414,2025-02-20 14h34.13.806296 +0000,
cube_l.png,0.1,0.31,invalid,55,55,0,down,0.7140478999936022,None,space,0.43941429996630177,None,,,,,0,55,55,55,,,,,66662.66854699998,,,,,,,,,,,,,66662.65247690002,66662.66854699998,66662.66854699998,66662.66854699998,66663.3852427,,,,66663.3916502,66663.40348650003,66663.40348650003,66663.45098690002,66663.45122320001,66663.46767480002,66663.46767480002,66663.46767480002,66663.53427559999,66663.91798799997,,,,,,,,down,0.7140478999936022,None,space,0.43941429996630177,None,,,,,,,,,,,,,,,P120,001,2025-02-20_14h34.06.929,posner_endo_new1,2024.2.4,60.19342556198414,2025-02-20 14h34.13.806296 +0000,
cube_l.png,0.1,-0.31,valid,56,56,0,down,2.2247629000339657,None,space,0.39351389999501407,None,,,,,0,56,56,56,,,,,66663.93382600002,,,,,,,,,,,,,66663.91815869999,66663.93382600002,66663.93382600002,66663.93382600002,66666.16544210003,,,,66666.17145149998,66666.18315699999,66666.18315699999,66666.23159139999,66666.23182779999,66666.24802950001,66666.24802950001,66666.24802950001,66666.3147011,66666.64949440002,,,,,,,,down,2.2247629000339657,None,space,0.39351389999501407,None,,,,,,,,,,,,,,,P120,001,2025-02-20_14h34.06.929,posner_endo_new1,2024.2.4,60.19342556198414,2025-02-20 14h34.13.806296 +0000,
cube_r.png,0.1,0.31,valid,57,57,0,down,2.118295499996748,None,space,0.3843430999550037,None,,,,,0,57,57,57,,,,,66666.66423729999,,,,,,,,,,,,,66666.6499287,66666.66423729999,66666.66423729999,66666.66423729999,66668.79688480002,,,,66668.80836189998,66668.8186535,66668.8186535,66668.8625635,66668.86291610001,66668.87887880002,66668.87887880002,66668.87887880002,66668.96213340003,66669.27958710003,,,,,,,,down,2.118295499996748,None,space,0.3843430999550037,None,,,,,,,,,,,,,,,P120,001,2025-02-20_14h34.06.929,posner_endo_new1,2024.2.4,60.19342556198414,2025-02-20 14h34.13.806296 +0000,
cube_r.png,0.1,-0.31,invalid,58,58,0,down,2.1433712000143714,None,space,0.44801369996275753,None,,,,,0,58,58,58,,,,,66669.2950257,,,,,,,,,,,,,66669.2798745,66669.2950257,66669.2950257,66669.2950257,66671.44406810001,,,,66671.45554330002,66671.46752569999,66671.46752569999,66671.50970440003,66671.51005360001,66671.5261664,66671.5261664,66671.5261664,66671.60942619998,66671.9769064,,,,,,,,down,2.1433712000143714,None,space,0.44801369996275753,None,,,,,,,,,,,,,,,P120,001,2025-02-20_14h34.06.929,posner_endo_new1,2024.2.4,60.19342556198414,2025-02-20 14h34.13.806296 +0000,
cube_l.png,0.1,0.31,invalid,59,59,0,down,5.046753300004639,None,space,0.4607600999879651,None,,,,,0,59,59,59,,,,,66671.99237210001,,,,,,,,,,,,,66671.97719559999,66671.99237210001,66671.99237210001,66671.99237210001,66677.05491489999,,,,66677.06656910002,66677.07678489998,66677.07678489998,66677.120559,66677.12090929999,66677.1370619,66677.1370619,66677.1370619,66677.22035309998,66677.60455589998,,,,,,,,down,5.046753300004639,None,space,0.4607600999879651,None,,,,,,,,,,,,,,,P120,001,2025-02-20_14h34.06.929,posner_endo_new1,2024.2.4,60.19342556198414,2025-02-20 14h34.13.806296 +0000,
,,,,,,,,,,,,,,,,,,,,,,,,,,,,,,,,,,,,,,,,,,,,,,,,,,,,,,,,,,,,,,,,,,,,,66677.60474550002,66677.6200006,66677.6200006,66737.62519230001,66743.32058190001,space,65.69052030000603,None,,,,,,,P120,001,2025-02-20_14h34.06.929,posner_endo_new1,2024.2.4,60.19342556198414,2025-02-20 14h34.13.806296 +0000,
,,,,,,,,,,,,,,,,,,,,,,,,,,,,,,,,,,66743.32066650002,66743.3360362,66746.3432303,66746.31704559998,,,,,,,,,,,,,,,,,,,,,,,,,,,,,,,,,,,,,,,,,,,,,,P120,001,2025-02-20_14h34.06.929,posner_endo_new1,2024.2.4,60.19342556198414,2025-02-20 14h34.13.806296 +0000,
cube_l.png,0.1,10,catch,0,0,0,up,5.982909500016831,None,None,,,,,,,,,,,0,0,0,0,66746.3432303,,,,,,,,,,,,,66746.334256,66746.3432303,66746.3432303,66746.3432303,66752.32779930002,,,,66752.33490130003,66752.34671800002,66752.34671800002,66752.39361049997,66752.39385629998,66752.41021940002,66752.41021940002,66752.41021940002,66752.49343460001,66755.4076332,,,,66754.50806179998,66755.42378269997,66755.42378269997,66755.42378269997,,,,,,,,,,,,,,,up,5.982909500016831,None,None,,,P120,001,2025-02-20_14h34.06.929,posner_endo_new1,2024.2.4,60.19342556198414,2025-02-20 14h34.13.806296 +0000,
cube_l.png,0.1,10,catch,1,1,0,up,0.7192982999840751,None,None,,,,,,,,,,,0,1,1,1,66755.42378269997,,,,,,,,,,,,,66755.40781080001,66755.42378269997,66755.42378269997,66755.42378269997,66756.15706920001,,,,66756.1640544,66756.17579429998,66756.17579429998,66756.22294840001,66756.22318949999,66756.23955679999,66756.23955679999,66756.23955679999,66756.32289000001,66759.23693710001,,,,66758.33747849998,66759.25319399999,66759.25319399999,66759.25319399999,,,,,,,,,,,,,,,up,0.7192982999840751,None,None,,,P120,001,2025-02-20_14h34.06.929,posner_endo_new1,2024.2.4,60.19342556198414,2025-02-20 14h34.13.806296 +0000,
cube_l.png,0.1,0.31,invalid,2,2,0,up,0.4176432000240311,None,space,0.5186218000017107,None,,,,,,,,,0,2,2,2,66759.25319399999,,,,,,,,,,,,,66759.23711290001,66759.25319399999,66759.25319399999,66759.25319399999,66759.68682180002,,,,66759.69380279997,66759.70581900002,66759.70581900002,66759.7528512,66759.75309239997,66759.76936480001,66759.76936480001,66759.76936480001,66759.83581189997,66760.30282699998,,,,,,,,,,,,,,,,,,,,,,up,0.4176432000240311,None,space,0.5186218000017107,None,P120,001,2025-02-20_14h34.06.929,posner_endo_new1,2024.2.4,60.19342556198414,2025-02-20 14h34.13.806296 +0000,
cube_l.png,0.1,0.31,invalid,3,3,0,up,2.375430200016126,None,space,0.5894849999458529,None,,,,,,,,,0,3,3,3,66760.31868800003,,,,,,,,,,,,,66760.30301650002,66760.31868800003,66760.31868800003,66760.31868800003,66762.70090230001,,,,66762.71008470003,66762.71996289998,66762.71996289998,66762.76640209998,66762.76666700002,66762.78289530001,66762.78289530001,66762.78289530001,66762.86591579998,66763.38316620002,,,,,,,,,,,,,,,,,,,,,,up,2.375430200016126,None,space,0.5894849999458529,None,P120,001,2025-02-20_14h34.06.929,posner_endo_new1,2024.2.4,60.19342556198414,2025-02-20 14h34.13.806296 +0000,
cube_l.png,0.1,-0.31,valid,4,4,0,up,2.439282000006642,None,space,0.548797499970533,None,,,,,,,,,0,4,4,4,66763.39897109999,,,,,,,,,,,,,66763.38335269998,66763.39897109999,66763.39897109999,66763.39897109999,66765.84713880002,,,,66765.85411890002,66765.86616789998,66765.86616789998,66765.913145,66765.91337770002,66765.92971489998,66765.92971489998,66765.92971489998,66765.9961926,66766.47995810001,,,,,,,,,,,,,,,,,,,,,,up,2.439282000006642,None,space,0.548797499970533,None,P120,001,2025-02-20_14h34.06.929,posner_endo_new1,2024.2.4,60.19342556198414,2025-02-20 14h34.13.806296 +0000,
cube_r.png,0.1,-0.31,invalid,5,5,0,up,2.735330299998168,None,space,0.39002290001371875,None,,,,,,,,,0,5,5,5,66766.49580640002,,,,,,,,,,,,,66766.48013510002,66766.49580640002,66766.49580640002,66766.49580640002,66769.24382550002,,,,66769.2498698,66769.26173570001,66769.26173570001,66769.30949349998,66769.30972070002,66769.3262131,66769.3262131,66769.3262131,66769.40944100003,66769.7264323,,,,,,,,,,,,,,,,,,,,,,up,2.735330299998168,None,space,0.39002290001371875,None,P120,001,2025-02-20_14h34.06.929,posner_endo_new1,2024.2.4,60.19342556198414,2025-02-20 14h34.13.806296 +0000,
cube_r.png,0.1,0.31,valid,6,6,0,up,2.6720028999843635,None,space,0.47908110002754256,None,,,,,,,,,0,6,6,6,66769.74243079999,,,,,,,,,,,,,66769.72660719999,66769.74243079999,66769.74243079999,66769.74243079999,66772.4236716,,,,66772.42969259998,66772.44134080003,66772.44134080003,66772.48975970002,66772.4899944,66772.50618129998,66772.50618129998,66772.50618129998,66772.5727361,66772.98990079999,,,,,,,,,,,,,,,,,,,,,,up,2.6720028999843635,None,space,0.47908110002754256,None,P120,001,2025-02-20_14h34.06.929,posner_endo_new1,2024.2.4,60.19342556198414,2025-02-20 14h34.13.806296 +0000,
cube_r.png,0.1,-0.31,invalid,7,7,0,up,2.14509679999901,None,space,0.5348843000247143,None,,,,,,,,,0,7,7,7,66773.00578110002,,,,,,,,,,,,,66772.99007380003,66773.00578110002,66773.00578110002,66773.00578110002,66775.15429949999,,,,66775.16033360001,66775.17208739999,66775.17208739999,66775.22031130001,66775.2205396,66775.23681039998,66775.23681039998,66775.23681039998,66775.30336289998,66775.78697850002,,,,,,,,,,,,,,,,,,,,,,up,2.14509679999901,None,space,0.5348843000247143,None,P120,001,2025-02-20_14h34.06.929,posner_endo_new1,2024.2.4,60.19342556198414,2025-02-20 14h34.13.806296 +0000,
cube_l.png,0.1,-0.31,valid,8,8,0,up,2.227294999989681,None,space,0.5511400999967009,None,,,,,,,,,0,8,8,8,66775.80290309998,,,,,,,,,,,,,66775.78715300001,66775.80290309998,66775.80290309998,66775.80290309998,66778.03466150002,,,,66778.04065620003,66778.05232660001,66778.05232660001,66778.10069499997,66778.10092300002,66778.11718,66778.11718,66778.11718,66778.18384790001,66778.68408709997,,,,,,,,,,,,,,,,,,,,,,up,2.227294999989681,None,space,0.5511400999967009,None,P120,001,2025-02-20_14h34.06.929,posner_endo_new1,2024.2.4,60.19342556198414,2025-02-20 14h34.13.806296 +0000,
cube_r.png,0.1,-0.31,invalid,9,9,0,up,6.306620099989232,None,space,0.6550938000436872,None,,,,,,,,,0,9,9,9,66778.6999908,,,,,,,,,,,,,66778.68426230003,66778.6999908,66778.6999908,66778.6999908,66785.0108932,,,,66785.01686660002,66785.02853459999,66785.02853459999,66785.07689020003,66785.07712049998,66785.09347319999,66785.09347319999,66785.09347319999,66785.15999950003,66785.76031350001,,,,,,,,,,,,,,,,,,,,,,up,6.306620099989232,None,space,0.6550938000436872,None,P120,001,2025-02-20_14h34.06.929,posner_endo_new1,2024.2.4,60.19342556198414,2025-02-20 14h34.13.806296 +0000,
cube_l.png,0.1,0.31,invalid,10,10,0,up,2.6943287999602035,None,space,0.4265053999843076,None,,,,,,,,,0,10,10,10,66785.7760372,,,,,,,,,,,,,66785.76048679999,66785.7760372,66785.7760372,66785.7760372,66788.47421160003,,,,66788.48026610003,66788.49205429998,66788.49205429998,66788.54009570001,66788.54032710003,66788.5565459,66788.5565459,66788.5565459,66788.63976549997,66788.98992630001,,,,,,,,,,,,,,,,,,,,,,up,2.6943287999602035,None,space,0.4265053999843076,None,P120,001,2025-02-20_14h34.06.929,posner_endo_new1,2024.2.4,60.19342556198414,2025-02-20 14h34.13.806296 +0000,
cube_r.png,0.1,-0.31,invalid,11,11,0,up,3.4086041999980807,None,space,0.5342046999721788,None,,,,,,,,,0,11,11,11,66789.00617050001,,,,,,,,,,,,,66788.99010190001,66789.00617050001,66789.00617050001,66789.00617050001,66792.4199716,,,,66792.42592120002,66792.4377605,66792.4377605,66792.48597450001,66792.486209,66792.50244070002,66792.50244070002,66792.50244070002,66792.5690512,66793.05260420003,,,,,,,,,,,,,,,,,,,,,,up,3.4086041999980807,None,space,0.5342046999721788,None,P120,001,2025-02-20_14h34.06.929,posner_endo_new1,2024.2.4,60.19342556198414,2025-02-20 14h34.13.806296 +0000,
cube_r.png,0.1,0.31,valid,12,12,0,up,2.218385500018485,None,space,0.46193160000257194,None,,,,,,,,,0,12,12,12,66793.0686071,,,,,,,,,,,,,66793.05278000003,66793.0686071,66793.0686071,66793.0686071,66795.30045029998,,,,66795.3065136,66795.31833059998,66795.31833059998,66795.36592930002,66795.36616550002,66795.38290229999,66795.38290229999,66795.38290229999,66795.4496544,66795.8501407,,,,,,,,,,,,,,,,,,,,,,up,2.218385500018485,None,space,0.46193160000257194,None,P120,001,2025-02-20_14h34.06.929,posner_endo_new1,2024.2.4,60.19342556198414,2025-02-20 14h34.13.806296 +0000,
cube_l.png,0.1,10,catch,13,13,0,up,3.517126900027506,None,None,,,,,,,,,,,0,13,13,13,66795.86576209997,,,,,,,,,,,,,66795.8503158,66795.86576209997,66795.86576209997,66795.86576209997,66799.39620800002,,,,66799.40224189998,66799.41389650002,66799.41389650002,66799.46211869997,66799.46234690002,66799.4787182,66799.4787182,66799.4787182,66799.54531800002,66802.4760892,,,,66801.55988309998,66802.49242740002,66802.49242740002,66802.49242740002,,,,,,,,,,,,,,,up,3.517126900027506,None,None,,,P120,001,2025-02-20_14h34.06.929,posner_endo_new1,2024.2.4,60.19342556198414,2025-02-20 14h34.13.806296 +0000,
cube_r.png,0.1,-0.31,invalid,14,14,0,up,0.28254220000235364,None,space,0.5103816000046209,None,,,,,,,,,0,14,14,14,66802.49242740002,,,,,,,,,,,,,66802.4762567,66802.49242740002,66802.49242740002,66802.49242740002,66802.7762049,,,,66802.7821743,66802.79321049998,66802.79321049998,66802.84179119999,66802.8422355,66802.85827849997,66802.85827849997,66802.85827849997,66802.94149280002,66803.37590009999,,,,,,,,,,,,,,,,,,,,,,up,0.28254220000235364,None,space,0.5103816000046209,None,P120,001,2025-02-20_14h34.06.929,posner_endo_new1,2024.2.4,60.19342556198414,2025-02-20 14h34.13.806296 +0000,
cube_l.png,0.1,-0.31,valid,15,15,0,up,2.392244299990125,None,space,0.6275599999935366,None,,,,,,,,,0,15,15,15,66803.39104870002,,,,,,,,,,,,,66803.37630489998,66803.39104870002,66803.39104870002,66803.39104870002,66805.78998900001,,,,66805.799818,66805.81000629999,66805.81000629999,66805.85570959997,66805.85602020001,66805.8722791,66805.8722791,66805.8722791,66805.9555175,66806.50608139997,,,,,,,,,,,,,,,,,,,,,,up,2.392244299990125,None,space,0.6275599999935366,None,P120,001,2025-02-20_14h34.06.929,posner_endo_new1,2024.2.4,60.19342556198414,2025-02-20 14h34.13.806296 +0000,
cube_r.png,0.1,10,catch,16,16,0,up,2.4773996000294574,None,None,,,,,,,,,,,0,16,16,16,66806.5215424,,,,,,,,,,,,,66806.50633349997,66806.5215424,66806.5215424,66806.5215424,66809.00341449998,,,,66809.01309580001,66809.02333429997,66809.02333429997,66809.06901799998,66809.06932750001,66809.08564060001,66809.08564060001,66809.08564060001,66809.16879660002,66812.08312560001,,,,66811.18336339999,66812.099231,66812.099231,66812.099231,,,,,,,,,,,,,,,up,2.4773996000294574,None,None,,,P120,001,2025-02-20_14h34.06.929,posner_endo_new1,2024.2.4,60.19342556198414,2025-02-20 14h34.13.806296 +0000,
cube_r.png,0.1,10,catch,17,17,0,up,0.2910803999984637,None,None,,,,,,,,,,,0,17,17,17,66812.099231,,,,,,,,,,,,,66812.08336450002,66812.099231,66812.099231,66812.099231,66812.40000319999,,,,66812.4097359,66812.42001629999,66812.42001629999,66812.46552969998,66812.46584130003,66812.48215649999,66812.48215649999,66812.48215649999,66812.56531769998,66815.4797727,,,,66814.58001580002,66815.49560630001,66815.49560630001,66815.49560630001,,,,,,,,,,,,,,,up,0.2910803999984637,None,None,,,P120,001,2025-02-20_14h34.06.929,posner_endo_new1,2024.2.4,60.19342556198414,2025-02-20 14h34.13.806296 +0000,
cube_l.png,0.1,0.31,invalid,18,18,0,up,0.47145630000159144,None,space,0.4509946000180207,None,,,,,,,,,0,18,18,18,66815.49560630001,,,,,,,,,,,,,66815.48001150001,66815.49560630001,66815.49560630001,66815.49560630001,66815.97964839998,,,,66815.9894203,66815.99964970001,66815.99964970001,66816.0451864,66816.04549739999,66816.06181510002,66816.06181510002,66816.06181510002,66816.14500000002,66816.52892800001,,,,,,,,,,,,,,,,,,,,,,up,0.47145630000159144,None,space,0.4509946000180207,None,P120,001,2025-02-20_14h34.06.929,posner_endo_new1,2024.2.4,60.19342556198414,2025-02-20 14h34.13.806296 +0000,
cube_l.png,0.1,10,catch,19,19,0,up,3.093847500043921,None,None,,,,,,,,,,,0,19,19,19,66816.5446588,,,,,,,,,,,,,66816.52918160002,66816.5446588,66816.5446588,66816.5446588,66819.64250999998,,,,66819.65231520002,66819.66243730002,66819.66243730002,66819.7081936,66819.7085066,66819.72479369998,66819.72479369998,66819.72479369998,66819.80798400001,66822.72235649999,,,,66821.82263459999,66822.7382577,66822.7382577,66822.7382577,,,,,,,,,,,,,,,up,3.093847500043921,None,None,,,P120,001,2025-02-20_14h34.06.929,posner_endo_new1,2024.2.4,60.19342556198414,2025-02-20 14h34.13.806296 +0000,
cube_l.png,0.1,0.31,invalid,20,20,0,up,0.7323169999872334,None,space,0.5060954999644309,None,,,,,,,,,0,20,20,20,66822.7382577,,,,,,,,,,,,,66822.72259369999,66822.7382577,66822.7382577,66822.7382577,66823.47209330002,,,,66823.48184030002,66823.49194109999,66823.49194109999,66823.53764699999,66823.53795610002,66823.55421460001,66823.55421460001,66823.55421460001,66823.6373614,66824.07135879999,,,,,,,,,,,,,,,,,,,,,,up,0.7323169999872334,None,space,0.5060954999644309,None,P120,001,2025-02-20_14h34.06.929,posner_endo_new1,2024.2.4,60.19342556198414,2025-02-20 14h34.13.806296 +0000,
cube_l.png,0.1,-0.31,valid,21,21,0,up,2.880415300023742,None,space,0.4707431999850087,None,,,,,,,,,0,21,21,21,66824.08700389997,,,,,,,,,,,,,66824.07161450002,66824.08700389997,66824.08700389997,66824.08700389997,66826.96851719997,,,,66826.9782142,66826.98840249999,66826.98840249999,66827.03407180001,66827.03438640002,66827.0504904,66827.0504904,66827.0504904,66827.13390299998,66827.5343469,,,,,,,,,,,,,,,,,,,,,,up,2.880415300023742,None,space,0.4707431999850087,None,P120,001,2025-02-20_14h34.06.929,posner_endo_new1,2024.2.4,60.19342556198414,2025-02-20 14h34.13.806296 +0000,
cube_r.png,0.1,0.31,valid,22,22,0,up,3.7520450000301935,None,space,0.45608289999654517,None,,,,,,,,,0,22,22,22,66827.55004980002,,,,,,,,,,,,,66827.5345991,66827.55004980002,66827.55004980002,66827.55004980002,66831.31402460003,,,,66831.32384030003,66831.33400149998,66831.33400149998,66831.37972680002,66831.38004259998,66831.39608600002,66831.39608600002,66831.39608600002,66831.47937910003,66831.863396,,,,,,,,,,,,,,,,,,,,,,up,3.7520450000301935,None,space,0.45608289999654517,None,P120,001,2025-02-20_14h34.06.929,posner_endo_new1,2024.2.4,60.19342556198414,2025-02-20 14h34.13.806296 +0000,
cube_r.png,0.1,-0.31,invalid,23,23,0,up,3.040172100008931,None,space,0.5150175000308082,None,,,,,,,,,0,23,23,23,66831.87904849998,,,,,,,,,,,,,66831.86365369998,66831.87904849998,66831.87904849998,66831.87904849998,66834.92697540001,,,,66834.93673850002,66834.94713510002,66834.94713510002,66834.9926147,66834.99293230003,66835.00910000002,66835.00910000002,66835.00910000002,66835.09228679998,66835.52639710001,,,,,,,,,,,,,,,,,,,,,,up,3.040172100008931,None,space,0.5150175000308082,None,P120,001,2025-02-20_14h34.06.929,posner_endo_new1,2024.2.4,60.19342556198414,2025-02-20 14h34.13.806296 +0000,
cube_r.png,0.1,0.31,valid,24,24,0,up,2.6325412000296637,None,space,0.47980590001679957,None,,,,,,,,,0,24,24,24,66835.54188729997,,,,,,,,,,,,,66835.52665969997,66835.54188729997,66835.54188729997,66835.54188729997,66838.19022350002,,,,66838.20001789997,66838.21035200002,66838.21035200002,66838.2559471,66838.25625680003,66838.272397,66838.272397,66838.272397,66838.3556672,66838.75638969999,,,,,,,,,,,,,,,,,,,,,,up,2.6325412000296637,None,space,0.47980590001679957,None,P120,001,2025-02-20_14h34.06.929,posner_endo_new1,2024.2.4,60.19342556198414,2025-02-20 14h34.13.806296 +0000,
cube_r.png,0.1,-0.31,invalid,25,25,0,up,3.2181666999822482,None,space,0.4778439999790862,None,,,,,,,,,0,25,25,25,66838.77202129998,,,,,,,,,,,,,66838.75664600002,66838.77202129998,66838.77202129998,66838.77202129998,66842.00299210002,,,,66842.01274859998,66842.02295920003,66842.02295920003,66842.06874790002,66842.069059,66842.08517430001,66842.08517430001,66842.08517430001,66842.16856189998,66842.5691807,,,,,,,,,,,,,,,,,,,,,,up,3.2181666999822482,None,space,0.4778439999790862,None,P120,001,2025-02-20_14h34.06.929,posner_endo_new1,2024.2.4,60.19342556198414,2025-02-20 14h34.13.806296 +0000,
cube_l.png,0.1,-0.31,valid,26,26,0,up,2.5179231999791227,None,space,0.44395550002809614,None,,,,,,,,,0,26,26,26,66842.58473429998,,,,,,,,,,,,,66842.56943670003,66842.58473429998,66842.58473429998,66842.58473429998,66845.11644299998,,,,66845.12612139998,66845.13631490001,66845.13631490001,66845.1821947,66845.18250559998,66845.19858109998,66845.19858109998,66845.19858109998,66845.2820305,66845.649523,,,,,,,,,,,,,,,,,,,,,,up,2.5179231999791227,None,space,0.44395550002809614,None,P120,001,2025-02-20_14h34.06.929,posner_endo_new1,2024.2.4,60.19342556198414,2025-02-20 14h34.13.806296 +0000,
cube_r.png,0.1,0.31,valid,27,27,0,up,2.421788200037554,None,space,0.4276813000324182,None,,,,,,,,,0,27,27,27,66845.66491370002,,,,,,,,,,,,,66845.64977900003,66845.66491370002,66845.66491370002,66845.66491370002,66848.09671140002,,,,66848.1063556,66848.11663850001,66848.11663850001,66848.16252020001,66848.16283709998,66848.17899599997,66848.17899599997,66848.17899599997,66848.2622997,66848.61304780003,,,,,,,,,,,,,,,,,,,,,,up,2.421788200037554,None,space,0.4276813000324182,None,P120,001,2025-02-20_14h34.06.929,posner_endo_new1,2024.2.4,60.19342556198414,2025-02-20 14h34.13.806296 +0000,
cube_r.png,0.1,10,catch,28,28,0,up,2.4815354999736883,None,None,,,,,,,,,,,0,28,28,28,66848.6286305,,,,,,,,,,,,,66848.61330099998,66848.6286305,66848.6286305,66848.6286305,66851.1270254,,,,66851.13671230001,66851.14657049999,66851.14657049999,66851.19275749999,66851.19307440001,66851.20914689999,66851.20914689999,66851.20914689999,66851.29253640003,66854.20668210002,,,,66853.30713049998,66854.22279089998,66854.22279089998,66854.22279089998,,,,,,,,,,,,,,,up,2.4815354999736883,None,None,,,P120,001,2025-02-20_14h34.06.929,posner_endo_new1,2024.2.4,60.19342556198414,2025-02-20 14h34.13.806296 +0000,
cube_r.png,0.1,0.31,valid,29,29,0,up,0.10434000001987442,None,space,0.5072139000403695,None,,,,,,,,,0,29,29,29,66854.22279089998,,,,,,,,,,,,,66854.20693300001,66854.22279089998,66854.22279089998,66854.22279089998,66854.34043580003,,,,66854.35015040002,66854.36037740001,66854.36037740001,66854.40604819998,66854.406365,66854.42264320003,66854.42264320003,66854.42264320003,66854.50582359999,66854.93975969998,,,,,,,,,,,,,,,,,,,,,,up,0.10434000001987442,None,space,0.5072139000403695,None,P120,001,2025-02-20_14h34.06.929,posner_endo_new1,2024.2.4,60.19342556198414,2025-02-20 14h34.13.806296 +0000,
cube_r.png,0.1,0.31,valid,30,30,0,up,2.7082123999716714,None,space,0.450937099987641,None,,,,,,,,,0,30,30,30,66854.95544599998,,,,,,,,,,,,,66854.9400225,66854.95544599998,66854.95544599998,66854.95544599998,66857.67037409998,,,,66857.68014960003,66857.69033309998,66857.69033309998,66857.73609209998,66857.73640529998,66857.75256360002,66857.75256360002,66857.75256360002,66857.83585759997,66858.219859,,,,,,,,,,,,,,,,,,,,,,up,2.7082123999716714,None,space,0.450937099987641,None,P120,001,2025-02-20_14h34.06.929,posner_endo_new1,2024.2.4,60.19342556198414,2025-02-20 14h34.13.806296 +0000,
cube_l.png,0.1,-0.31,valid,31,31,0,up,2.707406599947717,None,space,0.42406920000212267,None,,,,,,,,,0,31,31,31,66858.2353771,,,,,,,,,,,,,66858.22011310002,66858.2353771,66858.2353771,66858.2353771,66860.95035380003,,,,66860.96009339998,66860.97023470001,66860.97023470001,66861.01595009997,66861.0162586,66861.0325193,66861.0325193,66861.0325193,66861.1157265,66861.46648569999,,,,,,,,,,,,,,,,,,,,,,up,2.707406599947717,None,space,0.42406920000212267,None,P120,001,2025-02-20_14h34.06.929,posner_endo_new1,2024.2.4,60.19342556198414,2025-02-20 14h34.13.806296 +0000,
cube_r.png,0.1,0.31,valid,32,32,0,up,2.5485727000050247,None,space,0.42708150000544265,None,,,,,,,,,0,32,32,32,66861.48212240002,,,,,,,,,,,,,66861.46676889999,66861.48212240002,66861.48212240002,66861.48212240002,66864.04716030002,,,,66864.05684440001,66864.06677660003,66864.06677660003,66864.11283970001,66864.11315019999,66864.12937119999,66864.12937119999,66864.12937119999,66864.2125429,66864.56326099997,,,,,,,,,,,,,,,,,,,,,,up,2.5485727000050247,None,space,0.42708150000544265,None,P120,001,2025-02-20_14h34.06.929,posner_endo_new1,2024.2.4,60.19342556198414,2025-02-20 14h34.13.806296 +0000,
cube_r.png,0.1,-0.31,invalid,33,33,0,up,2.5554817999945953,None,space,0.5312774000340141,None,,,,,,,,,0,33,33,33,66864.57893070002,,,,,,,,,,,,,66864.56352939998,66864.57893070002,66864.57893070002,66864.57893070002,66867.14402810001,,,,66867.15368400002,66867.163825,66867.163825,66867.20961730002,66867.2099285,66867.22618250002,66867.22618250002,66867.22618250002,66867.3093575,66867.76015330001,,,,,,,,,,,,,,,,,,,,,,up,2.5554817999945953,None,space,0.5312774000340141,None,P120,001,2025-02-20_14h34.06.929,posner_endo_new1,2024.2.4,60.19342556198414,2025-02-20 14h34.13.806296 +0000,
cube_r.png,0.1,10,catch,34,34,0,up,2.1429155000369065,None,None,,,,,,,,,,,0,34,34,34,66867.775762,,,,,,,,,,,,,66867.7604111,66867.775762,66867.775762,66867.775762,66869.92460209999,,,,66869.93432379997,66869.94462020003,66869.94462020003,66869.99052410002,66869.99122329999,66870.0068638,66870.0068638,66870.0068638,66870.09015920002,66873.0052585,,,,66872.10466170002,66873.02050099999,66873.02050099999,66873.02050099999,,,,,,,,,,,,,,,up,2.1429155000369065,None,None,,,P120,001,2025-02-20_14h34.06.929,posner_endo_new1,2024.2.4,60.19342556198414,2025-02-20 14h34.13.806296 +0000,
cube_r.png,0.1,0.31,valid,35,35,0,up,2.953884000016842,None,space,0.5022977000335231,None,,,,,,,,,0,35,35,35,66873.02050099999,,,,,,,,,,,,,66873.00580789999,66873.02050099999,66873.02050099999,66873.02050099999,66875.98641219997,,,,66876.00989749999,66876.0221533,66876.0221533,66876.05023280001,66876.05056970002,66876.0667205,66876.0667205,66876.0667205,66876.1505403,66876.5845391,,,,,,,,,,,,,,,,,,,,,,up,2.953884000016842,None,space,0.5022977000335231,None,P120,001,2025-02-20_14h34.06.929,posner_endo_new1,2024.2.4,60.19342556198414,2025-02-20 14h34.13.806296 +0000,
cube_r.png,0.1,-0.31,invalid,36,36,0,up,4.190439299971331,None,space,0.4802235999959521,None,,,,,,,,,0,36,36,36,66876.59998150001,,,,,,,,,,,,,66876.58482619998,66876.59998150001,66876.59998150001,66876.59998150001,66880.79688119999,,,,66880.8078756,66880.81806700001,66880.81806700001,66880.86260250001,66880.8629453,66880.8789071,66880.8789071,66880.8789071,66880.96216589998,66881.36322970001,,,,,,,,,,,,,,,,,,,,,,up,4.190439299971331,None,space,0.4802235999959521,None,P120,001,2025-02-20_14h34.06.929,posner_endo_new1,2024.2.4,60.19342556198414,2025-02-20 14h34.13.806296 +0000,
cube_l.png,0.1,0.31,invalid,37,37,0,up,2.123780399968382,None,space,0.5190288000158034,None,,,,,,,,,0,37,37,37,66881.37838339998,,,,,,,,,,,,,66881.3635099,66881.37838339998,66881.37838339998,66881.37838339998,66883.51083859999,,,,66883.51986529998,66883.52961139998,66883.52961139998,66883.57621710002,66883.57645669999,66883.59289929998,66883.59289929998,66883.59289929998,66883.67583090003,66884.12621010002,,,,,,,,,,,,,,,,,,,,,,up,2.123780399968382,None,space,0.5190288000158034,None,P120,001,2025-02-20_14h34.06.929,posner_endo_new1,2024.2.4,60.19342556198414,2025-02-20 14h34.13.806296 +0000,
cube_l.png,0.1,0.31,invalid,38,38,0,up,3.128942499984987,None,space,0.3843328999937512,None,,,,,,,,,0,38,38,38,66884.14224989997,,,,,,,,,,,,,66884.126399,66884.14224989997,66884.14224989997,66884.14224989997,66887.2730864,,,,66887.28001719998,66887.29180080001,66887.29180080001,66887.33931240003,66887.33954030002,66887.35552520002,66887.35552520002,66887.35552520002,66887.42219190003,66887.755863,,,,,,,,,,,,,,,,,,,,,,up,3.128942499984987,None,space,0.3843328999937512,None,P120,001,2025-02-20_14h34.06.929,posner_endo_new1,2024.2.4,60.19342556198414,2025-02-20 14h34.13.806296 +0000,
cube_r.png,0.1,0.31,valid,39,39,0,up,2.7244175000232644,None,space,0.42074059997685254,None,,,,,,,,,0,39,39,39,66887.77173009998,,,,,,,,,,,,,66887.7560468,66887.77173009998,66887.77173009998,66887.77173009998,66890.5029728,,,,66890.5089598,66890.52062139998,66890.52062139998,66890.5691357,66890.56936580001,66890.58561339998,66890.58561339998,66890.58561339998,66890.6522516,66891.0191643,,,,,,,,,,,,,,,,,,,,,,up,2.7244175000232644,None,space,0.42074059997685254,None,P120,001,2025-02-20_14h34.06.929,posner_endo_new1,2024.2.4,60.19342556198414,2025-02-20 14h34.13.806296 +0000,
cube_l.png,0.1,0.31,invalid,40,40,0,up,2.5791893000132404,None,space,0.37943269999232143,None,,,,,,,,,0,40,40,40,66891.0351102,,,,,,,,,,,,,66891.0193402,66891.0351102,66891.0351102,66891.0351102,66893.61665430001,,,,66893.62270160002,66893.6344026,66893.6344026,66893.68250469997,66893.68273330003,66893.69902900001,66893.69902900001,66893.69902900001,66893.76576879999,66894.08288359997,,,,,,,,,,,,,,,,,,,,,,up,2.5791893000132404,None,space,0.37943269999232143,None,P120,001,2025-02-20_14h34.06.929,posner_endo_new1,2024.2.4,60.19342556198414,2025-02-20 14h34.13.806296 +0000,
cube_l.png,0.1,10,catch,41,41,0,up,2.7399506000219844,None,None,,,,,,,,,,,0,41,41,41,66894.09865960001,,,,,,,,,,,,,66894.08305870002,66894.09865960001,66894.09865960001,66894.09865960001,66896.84655860002,,,,66896.85260679998,66896.86467109999,66896.86467109999,66896.91259189998,66896.91282730002,66896.92913579999,66896.92913579999,66896.92913579999,66896.99570590002,66899.92659420002,,,,66899.01042100001,66899.94271680003,66899.94271680003,66899.94271680003,,,,,,,,,,,,,,,up,2.7399506000219844,None,None,,,P120,001,2025-02-20_14h34.06.929,posner_endo_new1,2024.2.4,60.19342556198414,2025-02-20 14h34.13.806296 +0000,
cube_l.png,0.1,-0.31,valid,42,42,0,up,0.2401438999804668,None,space,0.46600100002251565,None,,,,,,,,,0,42,42,42,66899.94271680003,,,,,,,,,,,,,66899.92676350003,66899.94271680003,66899.94271680003,66899.94271680003,66900.19319379999,,,,66900.19917929999,66900.21086519997,66900.21086519997,66900.25925399998,66900.25948130002,66900.275678,66900.275678,66900.275678,66900.34236269997,66900.74289629998,,,,,,,,,,,,,,,,,,,,,,up,0.2401438999804668,None,space,0.46600100002251565,None,P120,001,2025-02-20_14h34.06.929,posner_endo_new1,2024.2.4,60.19342556198414,2025-02-20 14h34.13.806296 +0000,
cube_l.png,0.1,10,catch,43,43,0,up,2.6155529000097886,None,None,,,,,,,,,,,0,43,43,43,66900.758683,,,,,,,,,,,,,66900.74307079997,66900.758683,66900.758683,66900.758683,66903.38995699998,,,,66903.39595610002,66903.4075875,66903.4075875,66903.45589119999,66903.4564051,66903.47228819999,66903.47228819999,66903.47228819999,66903.55554510001,66906.47028090002,,,,66905.57013880002,66906.48590630002,66906.48590630002,66906.48590630002,,,,,,,,,,,,,,,up,2.6155529000097886,None,None,,,P120,001,2025-02-20_14h34.06.929,posner_endo_new1,2024.2.4,60.19342556198414,2025-02-20 14h34.13.806296 +0000,
cube_l.png,0.1,0.31,invalid,44,44,0,up,0.22491849999642,None,space,0.5491486000246368,None,,,,,,,,,0,44,44,44,66906.48590630002,,,,,,,,,,,,,66906.47068869998,66906.48590630002,66906.48590630002,66906.48590630002,66906.72028150002,,,,66906.7312104,66906.74151289999,66906.74151289999,66906.78588410001,66906.7862196,66906.80245750002,66906.80245750002,66906.80245750002,66906.8857409,66907.353115,,,,,,,,,,,,,,,,,,,,,,up,0.22491849999642,None,space,0.5491486000246368,None,P120,001,2025-02-20_14h34.06.929,posner_endo_new1,2024.2.4,60.19342556198414,2025-02-20 14h34.13.806296 +0000,
cube_l.png,0.1,0.31,invalid,45,45,0,up,2.669989300018642,None,space,0.563867199991364,None,,,,,,,,,0,45,45,45,66907.36852650001,,,,,,,,,,,,,66907.35340289999,66907.36852650001,66907.36852650001,66907.36852650001,66910.0503074,,,,66910.06125149998,66910.07152429997,66910.07152429997,66910.11593969999,66910.11627280002,66910.13242769998,66910.13242769998,66910.13242769998,66910.21577040001,66910.69959620002,,,,,,,,,,,,,,,,,,,,,,up,2.669989300018642,None,space,0.563867199991364,None,P120,001,2025-02-20_14h34.06.929,posner_endo_new1,2024.2.4,60.19342556198414,2025-02-20 14h34.13.806296 +0000,
cube_r.png,0.1,0.31,valid,46,46,0,up,2.6917867999873124,None,space,0.4170293000061065,None,,,,,,,,,0,46,46,46,66910.7150573,,,,,,,,,,,,,66910.69987499999,66910.7150573,66910.7150573,66910.7150573,66913.41360869998,,,,66913.42460010003,66913.43485810002,66913.43485810002,66913.47925660003,66913.47959830001,66913.49569800001,66913.49569800001,66913.49569800001,66913.5789728,66913.92955350003,,,,,,,,,,,,,,,,,,,,,,up,2.6917867999873124,None,space,0.4170293000061065,None,P120,001,2025-02-20_14h34.06.929,posner_endo_new1,2024.2.4,60.19342556198414,2025-02-20 14h34.13.806296 +0000,
cube_l.png,0.1,-0.31,valid,47,47,0,up,2.669275500054937,None,space,0.6798680999781936,None,,,,,,,,,0,47,47,47,66913.94512739999,,,,,,,,,,,,,66913.92983769998,66913.94512739999,66913.94512739999,66913.94512739999,66916.6268567,,,,66916.63786720001,66916.64808040002,66916.64808040002,66916.69249679998,66916.69282920001,66916.70912130002,66916.70912130002,66916.70912130002,66916.7922426,66917.39303789998,,,,,,,,,,,,,,,,,,,,,,up,2.669275500054937,None,space,0.6798680999781936,None,P120,001,2025-02-20_14h34.06.929,posner_endo_new1,2024.2.4,60.19342556198414,2025-02-20 14h34.13.806296 +0000,
cube_r.png,0.1,-0.31,invalid,48,48,0,up,2.1667043999768794,None,space,0.5399829000234604,None,,,,,,,,,0,48,48,48,66917.40830419998,,,,,,,,,,,,,66917.3933305,66917.40830419998,66917.40830419998,66917.40830419998,66919.5904318,,,,66919.6014317,66919.61168209999,66919.61168209999,66919.65614450001,66919.6564793,66919.67270960001,66919.67270960001,66919.67270960001,66919.7559014,66920.22320409998,,,,,,,,,,,,,,,,,,,,,,up,2.1667043999768794,None,space,0.5399829000234604,None,P120,001,2025-02-20_14h34.06.929,posner_endo_new1,2024.2.4,60.19342556198414,2025-02-20 14h34.13.806296 +0000,
cube_r.png,0.1,10,catch,49,49,0,up,4.368179099983536,None,None,,,,,,,,,,,0,49,49,49,66920.23871389998,,,,,,,,,,,,,66920.2234824,66920.23871389998,66920.23871389998,66920.23871389998,66924.61865830002,,,,66924.6297085,66924.63992839999,66924.63992839999,66924.68430089997,66924.68463660002,66924.70086059999,66924.70086059999,66924.70086059999,66924.78412600001,66927.6985761,,,,66926.79864729999,66927.714354,66927.714354,66927.714354,,,,,,,,,,,,,,,up,4.368179099983536,None,None,,,P120,001,2025-02-20_14h34.06.929,posner_endo_new1,2024.2.4,60.19342556198414,2025-02-20 14h34.13.806296 +0000,
cube_l.png,0.1,-0.31,valid,50,50,0,up,1.460779899964109,None,space,0.4749769000336528,None,,,,,,,,,0,50,50,50,66927.714354,,,,,,,,,,,,,66927.69884020003,66927.714354,66927.714354,66927.714354,66929.18084019999,,,,66929.19183989998,66929.20207990002,66929.20207990002,66929.24646549998,66929.24680179998,66929.26290999999,66929.26290999999,66929.26290999999,66929.34617769998,66929.7469501,,,,,,,,,,,,,,,,,,,,,,up,1.460779899964109,None,space,0.4749769000336528,None,P120,001,2025-02-20_14h34.06.929,posner_endo_new1,2024.2.4,60.19342556198414,2025-02-20 14h34.13.806296 +0000,
cube_l.png,0.1,-0.31,valid,51,51,0,up,2.7322285999543965,None,space,0.4575882999924943,None,,,,,,,,,0,51,51,51,66929.76234329998,,,,,,,,,,,,,66929.74723759998,66929.76234329998,66929.76234329998,66929.76234329998,66932.51073069999,,,,66932.5216954,66932.53188309999,66932.53188309999,66932.57630090002,66932.5766412,66932.59277619998,66932.59277619998,66932.59277619998,66932.67603149998,66933.0601224,,,,,,,,,,,,,,,,,,,,,,up,2.7322285999543965,None,space,0.4575882999924943,None,P120,001,2025-02-20_14h34.06.929,posner_endo_new1,2024.2.4,60.19342556198414,2025-02-20 14h34.13.806296 +0000,
cube_r.png,0.1,-0.31,invalid,52,52,0,up,2.9949214000371285,None,space,0.6299177000182681,None,,,,,,,,,0,52,52,52,66933.0754029,,,,,,,,,,,,,66933.06040720001,66933.0754029,66933.0754029,66933.0754029,66936.0735759,,,,66936.0846526,66936.09494410001,66936.09494410001,66936.1394092,66936.13974359998,66936.15587429999,66936.15587429999,66936.15587429999,66936.2390155,66936.7898502,,,,,,,,,,,,,,,,,,,,,,up,2.9949214000371285,None,space,0.6299177000182681,None,P120,001,2025-02-20_14h34.06.929,posner_endo_new1,2024.2.4,60.19342556198414,2025-02-20 14h34.13.806296 +0000,
cube_l.png,0.1,-0.31,valid,53,53,0,up,2.529547200014349,None,space,0.44419459998607635,None,,,,,,,,,0,53,53,53,66936.80511740001,,,,,,,,,,,,,66936.7901328,66936.80511740001,66936.80511740001,66936.80511740001,66939.33716519998,,,,66939.3482137,66939.358428,66939.358428,66939.40262170002,66939.40295750002,66939.41912169999,66939.41912169999,66939.41912169999,66939.50234910002,66939.86983600003,,,,,,,,,,,,,,,,,,,,,,up,2.529547200014349,None,space,0.44419459998607635,None,P120,001,2025-02-20_14h34.06.929,posner_endo_new1,2024.2.4,60.19342556198414,2025-02-20 14h34.13.806296 +0000,
cube_r.png,0.1,10,catch,54,54,0,up,3.0748341000289656,None,None,,,,,,,,,,,0,54,54,54,66939.88535930001,,,,,,,,,,,,,66939.8701153,66939.88535930001,66939.88535930001,66939.88535930001,66942.9665106,,,,66942.97760719998,66942.98796399997,66942.98796399997,66943.03219449997,66943.03252960002,66943.04873009998,66943.04873009998,66943.04873009998,66943.13199219998,66946.04627619998,,,,66945.14659179997,66946.06238120003,66946.06238120003,66946.06238120003,,,,,,,,,,,,,,,up,3.0748341000289656,None,None,,,P120,001,2025-02-20_14h34.06.929,posner_endo_new1,2024.2.4,60.19342556198414,2025-02-20 14h34.13.806296 +0000,
cube_l.png,0.1,0.31,invalid,55,55,0,up,4.608463799988385,None,space,0.6206601000158116,None,,,,,,,,,0,55,55,55,66946.06238120003,,,,,,,,,,,,,66946.04645329999,66946.06238120003,66946.06238120003,66946.06238120003,66950.67513029999,,,,66950.6811711,66950.6927827,66950.6927827,66950.74101529998,66950.74124240002,66950.7574464,66950.7574464,66950.7574464,66950.84077980003,66951.39092929999,,,,,,,,,,,,,,,,,,,,,,up,4.608463799988385,None,space,0.6206601000158116,None,P120,001,2025-02-20_14h34.06.929,posner_endo_new1,2024.2.4,60.19342556198414,2025-02-20 14h34.13.806296 +0000,
cube_l.png,0.1,-0.31,valid,56,56,0,up,2.439647099992726,None,space,0.5952648000093177,None,,,,,,,,,0,56,56,56,66951.40688869997,,,,,,,,,,,,,66951.39110499999,66951.40688869997,66951.40688869997,66951.40688869997,66953.85499840003,,,,66953.86116879998,66953.87284139998,66953.87284139998,66953.92099950003,66953.92122710001,66953.93748369999,66953.93748369999,66953.93748369999,66954.02088859997,66954.5375646,,,,,,,,,,,,,,,,,,,,,,up,2.439647099992726,None,space,0.5952648000093177,None,P120,001,2025-02-20_14h34.06.929,posner_endo_new1,2024.2.4,60.19342556198414,2025-02-20 14h34.13.806296 +0000,
cube_r.png,0.1,0.31,valid,57,57,0,up,2.573501600010786,None,space,0.42901929997606203,None,,,,,,,,,0,57,57,57,66954.55372159998,,,,,,,,,,,,,66954.53773819999,66954.55372159998,66954.55372159998,66954.55372159998,66957.13501859998,,,,66957.14106529998,66957.1530773,66957.1530773,66957.20115480002,66957.2013892,66957.21753109997,66957.21753109997,66957.21753109997,66957.28426440002,66957.65127690003,,,,,,,,,,,,,,,,,,,,,,up,2.573501600010786,None,space,0.42901929997606203,None,P120,001,2025-02-20_14h34.06.929,posner_endo_new1,2024.2.4,60.19342556198414,2025-02-20 14h34.13.806296 +0000,
cube_r.png,0.1,-0.31,invalid,58,58,0,up,3.2514133999939077,None,space,0.47625130001688376,None,,,,,,,,,0,58,58,58,66957.66709340003,,,,,,,,,,,,,66957.65145070001,66957.66709340003,66957.66709340003,66957.66709340003,66960.93118249997,,,,66960.93721050001,66960.94884069997,66960.94884069997,66960.99720400001,66960.99743360002,66961.01373529999,66961.01373529999,66961.01373529999,66961.08020750002,66961.4971478,,,,,,,,,,,,,,,,,,,,,,up,3.2514133999939077,None,space,0.47625130001688376,None,P120,001,2025-02-20_14h34.06.929,posner_endo_new1,2024.2.4,60.19342556198414,2025-02-20 14h34.13.806296 +0000,
cube_l.png,0.1,0.31,invalid,59,59,0,up,2.333440000016708,None,space,0.43132409994723275,None,,,,,,,,,0,59,59,59,66961.5132166,,,,,,,,,,,,,66961.49732309999,66961.5132166,66961.5132166,66961.5132166,66963.86189549998,,,,66963.86798149999,66963.8797399,66963.8797399,66963.9275161,66963.9277449,66963.94406309997,66963.94406309997,66963.94406309997,66964.02729260002,66964.37785529997,,,,,,,,,,,,,,,,,,,,,,up,2.333440000016708,None,space,0.43132409994723275,None,P120,001,2025-02-20_14h34.06.929,posner_endo_new1,2024.2.4,60.19342556198414,2025-02-20 14h34.13.806296 +0000,
