cue_img,cue_soa,target_y,trial,thisN,thisTrialN,thisRepN,key_control2.keys,key_control2.rt,key_control2.duration,key_resp.keys,key_resp.rt,key_resp.duration,practice.thisRepN,practice.thisTrialN,practice.thisN,practice.thisIndex,block1.thisRepN,block1.thisTrialN,block1.thisN,block1.thisIndex,block2.thisRepN,block2.thisTrialN,block2.thisN,block2.thisIndex,thisRow.t,notes,instructions.started,instructions_txt.started,key_control.started,instructions.stopped,key_control.keys,key_control.rt,key_control.duration,ready.started,ready_txt.started,ready_txt.stopped,ready.stopped,fix.started,fixation.started,key_control2.started,fixation_cross.started,fix.stopped,practice.key_control2.keys,practice.key_control2.rt,practice.key_control2.duration,cue.started,cube.started,fixation_cross_cue.started,cue.stopped,target.started,fixation_target.started,fixation_cross_target.started,key_resp.started,star.started,target.stopped,practice.key_resp.keys,practice.key_resp.rt,practice.key_resp.duration,star.stopped,fixation_target.stopped,fixation_cross_target.stopped,key_resp.stopped,block1.key_control2.keys,block1.key_control2.rt,block1.key_control2.duration,block1.key_resp.keys,block1.key_resp.rt,block1.key_resp.duration,cube.stopped,fixation_cross_cue.stopped,break_2.started,text.started,key_control3.started,text.stopped,break_2.stopped,key_control3.keys,key_control3.rt,key_control3.duration,block2.key_control2.keys,block2.key_control2.rt,block2.key_control2.duration,block2.key_resp.keys,block2.key_resp.rt,block2.key_resp.duration,participant,session,date,expName,psychopyVersion,frameRate,expStart,
,,,,,,,,,,,,,,,,,,,,,,,,,,,0.007484900008421391,0.0239593000151217,0.0239593000151217,1.687668800004758,up,1.6455498000141233,None,,,,,,,,,,,,,,,,,,,,,,,,,,,,,,,,,,,,,,,,,,,,,,,,,,,,P121,001,2025-02-21_11h14.06.845,posner_endo_new1,2024.2.4,60.07535854407934,2025-02-21 11h14.16.060080 +0000,
,,,,,,,,,,,,,,,,,,,,,,,,,,,,,,,,,,1.68778779997956,1.6987626000191085,4.725373900029808,4.687629799998831,,,,,,,,,,,,,,,,,,,,,,,,,,,,,,,,,,,,,,,,,,,,,,,,P121,001,2025-02-21_11h14.06.845,posner_endo_new1,2024.2.4,60.07535854407934,2025-02-21 11h14.16.060080 +0000,
cube_l.png,0.1,-0.31,valid,0,0,0,up,20.62442289997125,None,space,0.4511447999975644,None,0,0,0,0,,,,,,,,,4.725373900029808,,,,,,,,,,,,,4.7101141000166535,4.725373900029808,4.725373900029808,4.725373900029808,25.366558899986558,up,20.62442289997125,None,25.384757400024682,25.39566380000906,25.39566380000906,25.43230169999879,25.432525900017936,25.44890120002674,25.44890120002674,25.44890120002674,25.532026699976996,25.915715600014664,space,0.4511447999975644,None,,,,,,,,,,,,,,,,,,,,,,,,,,,P121,001,2025-02-21_11h14.06.845,posner_endo_new1,2024.2.4,60.07535854407934,2025-02-21 11h14.16.060080 +0000,
cube_l.png,0.1,0.31,invalid,1,1,0,up,7.482907700003125,None,space,0.38983529998222366,None,0,1,1,1,,,,,,,,,25.931150000018533,,,,,,,,,,,,,25.91588220000267,25.931150000018533,25.931150000018533,25.931150000018533,33.4264215999865,up,7.482907700003125,None,33.45327449997421,33.4656559000141,33.4656559000141,33.48820279998472,33.48854420002317,33.506790600018576,33.506790600018576,33.506790600018576,33.59037940000417,33.90777719998732,space,0.38983529998222366,None,,,,,,,,,,,,,,,,,,,,,,,,,,,P121,001,2025-02-21_11h14.06.845,posner_endo_new1,2024.2.4,60.07535854407934,2025-02-21 11h14.16.060080 +0000,
cube_r.png,0.1,-0.31,invalid,2,2,0,up,4.354008700000122,None,space,0.460519700020086,None,0,2,2,2,,,,,,,,,33.923266700003296,,,,,,,,,,,,,33.908062600006815,33.923266700003296,33.923266700003296,33.923266700003296,38.28667719999794,up,4.354008700000122,None,38.29898860002868,38.30909910000628,38.30909910000628,38.3524608000298,38.35280849999981,38.36868279997725,38.36868279997725,38.36868279997725,38.45206550002331,38.8361568999826,space,0.460519700020086,None,,,,,,,,,,,,,,,,,,,,,,,,,,,P121,001,2025-02-21_11h14.06.845,posner_endo_new1,2024.2.4,60.07535854407934,2025-02-21 11h14.16.060080 +0000,
cube_r.png,0.1,10,catch,3,3,0,up,4.050005799974315,None,None,,,0,3,3,3,,,,,,,,,38.85153370001353,,,,,,,,,,,,,38.836432499985676,38.85153370001353,38.85153370001353,38.85153370001353,42.91506319999462,up,4.050005799974315,None,42.92398780002259,42.933636000030674,42.933636000030674,42.981028700014576,42.98157830000855,42.99742610001704,42.99742610001704,42.99742610001704,43.08066959999269,45.995047500007786,None,,,45.09524950000923,46.01098610000918,46.01098610000918,46.01098610000918,,,,,,,,,,,,,,,,,,,,,,,P121,001,2025-02-21_11h14.06.845,posner_endo_new1,2024.2.4,60.07535854407934,2025-02-21 11h14.16.060080 +0000,
cube_l.png,0.1,-0.31,valid,4,4,0,up,1.194618100009393,None,space,0.40658770001027733,None,0,4,4,4,,,,,,,,,46.01098610000918,,,,,,,,,,,,,45.99529260001145,46.01098610000918,46.01098610000918,46.01098610000918,47.210813399986364,up,1.194618100009393,None,47.2228608999867,47.23291610000888,47.23291610000888,47.27653520001331,47.27677669998957,47.293032000015955,47.293032000015955,47.293032000015955,47.37634000001708,47.709999400016386,space,0.40658770001027733,None,,,,,,,,,,,,,,,,,,,,,,,,,,,P121,001,2025-02-21_11h14.06.845,posner_endo_new1,2024.2.4,60.07535854407934,2025-02-21 11h14.16.060080 +0000,
cube_l.png,0.1,0.31,invalid,5,5,0,up,3.943512300029397,None,space,0.3945473000057973,None,0,5,5,5,,,,,,,,,47.7259294000105,,,,,,,,,,,,,47.71017799997935,47.7259294000105,47.7259294000105,47.7259294000105,51.67264960001921,up,3.943512300029397,None,51.67995309998514,51.69171009998536,51.69171009998536,51.73877380002523,51.73901090002619,51.755263400031254,51.755263400031254,51.755263400031254,51.83845390001079,52.15564499999164,space,0.3945473000057973,None,,,,,,,,,,,,,,,,,,,,,,,,,,,P121,001,2025-02-21_11h14.06.845,posner_endo_new1,2024.2.4,60.07535854407934,2025-02-21 11h14.16.060080 +0000,
cube_r.png,0.1,-0.31,invalid,6,6,0,up,4.2981948999804445,None,space,0.350414999993518,None,0,6,6,6,,,,,,,,,52.17139999999199,,,,,,,,,,,,,52.15582380001433,52.17139999999199,52.17139999999199,52.17139999999199,56.48431650002021,up,4.2981948999804445,None,56.49152109998977,56.503436999977566,56.503436999977566,56.54995970003074,56.550185600004625,56.567019400012214,56.567019400012214,56.567019400012214,56.649595400027465,56.93374120001681,space,0.350414999993518,None,,,,,,,,,,,,,,,,,,,,,,,,,,,P121,001,2025-02-21_11h14.06.845,posner_endo_new1,2024.2.4,60.07535854407934,2025-02-21 11h14.16.060080 +0000,
cube_r.png,0.1,0.31,valid,7,7,0,up,4.207425900036469,None,space,0.3765865999739617,None,0,7,7,7,,,,,,,,,56.95000790001359,,,,,,,,,,,,,56.93390529998578,56.95000790001359,56.95000790001359,56.95000790001359,61.16303609998431,up,4.207425900036469,None,61.16943970002467,61.18118000001414,61.18118000001414,61.2290309999953,61.22925460000988,61.24547129997518,61.24547129997518,61.24547129997518,61.32870160002494,61.62921019998612,space,0.3765865999739617,None,,,,,,,,,,,,,,,,,,,,,,,,,,,P121,001,2025-02-21_11h14.06.845,posner_endo_new1,2024.2.4,60.07535854407934,2025-02-21 11h14.16.060080 +0000,
cube_l.png,0.1,-0.31,valid,8,8,0,up,3.3439783999929205,None,space,0.2692938999971375,None,0,8,8,8,,,,,,,,,61.645256699994206,,,,,,,,,,,,,61.629376899974886,61.645256699994206,61.645256699994206,61.645256699994206,64.99251240002923,up,3.3439783999929205,None,64.99865449999925,65.01042619999498,65.01042619999498,65.05791580001824,65.05814129998907,65.07453139999416,65.07453139999416,65.07453139999416,65.15828430000693,65.35870039998554,space,0.2692938999971375,None,,,,,,,,,,,,,,,,,,,,,,,,,,,P121,001,2025-02-21_11h14.06.845,posner_endo_new1,2024.2.4,60.07535854407934,2025-02-21 11h14.16.060080 +0000,
cube_r.png,0.1,-0.31,invalid,9,9,0,up,3.014761600003112,None,space,0.43955780001124367,None,0,9,9,9,,,,,,,,,65.37467589997686,,,,,,,,,,,,,65.35886420001043,65.37467589997686,65.37467589997686,65.37467589997686,68.40558050002437,up,3.014761600003112,None,68.41183699999237,68.4237152999849,68.4237152999849,68.47166989999823,68.47189679997973,68.48803459998453,68.48803459998453,68.48803459998453,68.5545945999911,68.93841990001965,space,0.43955780001124367,None,,,,,,,,,,,,,,,,,,,,,,,,,,,P121,001,2025-02-21_11h14.06.845,posner_endo_new1,2024.2.4,60.07535854407934,2025-02-21 11h14.16.060080 +0000,
cube_r.png,0.1,0.31,valid,10,10,0,up,3.6915755000081845,None,space,0.4078416000120342,None,0,10,10,10,,,,,,,,,68.9541854999843,,,,,,,,,,,,,68.93859029997839,68.9541854999843,68.9541854999843,68.9541854999843,72.65137580002192,up,3.6915755000081845,None,72.65743050002493,72.66924369998742,72.66924369998742,72.71738510002615,72.71761170000536,72.73355150001589,72.73355150001589,72.73355150001589,72.81684049998876,73.15072889998555,space,0.4078416000120342,None,,,,,,,,,,,,,,,,,,,,,,,,,,,P121,001,2025-02-21_11h14.06.845,posner_endo_new1,2024.2.4,60.07535854407934,2025-02-21 11h14.16.060080 +0000,
,,,,,,,,,,,,,,,,,,,,,,,,,,,,,,,,,,73.15083759999834,73.16649059997872,76.16667790000793,76.14695439999923,,,,,,,,,,,,,,,,,,,,,,,,,,,,,,,,,,,,,,,,,,,,,,,,P121,001,2025-02-21_11h14.06.845,posner_endo_new1,2024.2.4,60.07535854407934,2025-02-21 11h14.16.060080 +0000,
cube_l.png,0.1,10,catch,0,0,0,up,5.998579100007191,None,None,,,,,,,0,0,0,0,,,,,76.16667790000793,,,,,,,,,,,,,76.15783689997625,76.16667790000793,76.16667790000793,76.16667790000793,82.17492030002177,,,,82.18123240000568,82.19308370002545,82.19308370002545,82.24070790002588,82.2409345000051,82.25719430000754,82.25719430000754,82.25719430000754,82.34075279999524,85.25420590001158,,,,84.35528900002828,85.27082720003091,85.27082720003091,85.27082720003091,up,5.998579100007191,None,None,,,,,,,,,,,,,,,,,,,P121,001,2025-02-21_11h14.06.845,posner_endo_new1,2024.2.4,60.07535854407934,2025-02-21 11h14.16.060080 +0000,
cube_l.png,0.1,10,catch,1,1,0,up,0.9267920000129379,None,None,,,,,,,0,1,1,1,,,,,85.27082720003091,,,,,,,,,,,,,85.25436740001896,85.27082720003091,85.27082720003091,85.27082720003091,86.20399609999731,,,,86.2102334999945,86.22187549999217,86.22187549999217,86.27002150000772,86.27024799998617,86.28614009998273,86.28614009998273,86.28614009998273,86.35319130000426,89.28408200002741,,,,88.36736460000975,89.30025750002824,89.30025750002824,89.30025750002824,up,0.9267920000129379,None,None,,,,,,,,,,,,,,,,,,,P121,001,2025-02-21_11h14.06.845,posner_endo_new1,2024.2.4,60.07535854407934,2025-02-21 11h14.16.060080 +0000,
cube_l.png,0.1,0.31,invalid,2,2,0,up,0.7139429000089876,None,space,0.35756979999132454,None,,,,,0,2,2,2,,,,,89.30025750002824,,,,,,,,,,,,,89.28424290003022,89.30025750002824,89.30025750002824,89.30025750002824,90.01648749999003,,,,90.02254919998813,90.03421200002776,90.03421200002776,90.0826332999859,90.08285669999896,90.09946400002809,90.09946400002809,90.09946400002809,90.16575859999284,90.46631669998169,,,,,,,,up,0.7139429000089876,None,space,0.35756979999132454,None,,,,,,,,,,,,,,,,,P121,001,2025-02-21_11h14.06.845,posner_endo_new1,2024.2.4,60.07535854407934,2025-02-21 11h14.16.060080 +0000,
cube_l.png,0.1,0.31,invalid,3,3,0,up,3.41999520000536,None,space,0.38540759996976703,None,,,,,0,3,3,3,,,,,90.48186910001095,,,,,,,,,,,,,90.46648930001538,90.48186910001095,90.48186910001095,90.48186910001095,93.91270520002581,,,,93.91896570002427,93.93078410002636,93.93078410002636,93.97876820003148,93.9789921999909,93.99551510001766,93.99551510001766,93.99551510001766,94.0618774999748,94.39516000001458,,,,,,,,up,3.41999520000536,None,space,0.38540759996976703,None,,,,,,,,,,,,,,,,,P121,001,2025-02-21_11h14.06.845,posner_endo_new1,2024.2.4,60.07535854407934,2025-02-21 11h14.16.060080 +0000,
cube_l.png,0.1,-0.31,valid,4,4,0,up,4.154501500015613,None,space,0.40138329996261746,None,,,,,0,4,4,4,,,,,94.411640300008,,,,,,,,,,,,,94.39534019998973,94.411640300008,94.411640300008,94.411640300008,98.57462369999848,,,,98.58150839997688,98.59343050001189,98.59343050001189,98.64093769999454,98.64116360002663,98.65719679999165,98.65719679999165,98.65719679999165,98.72392030002084,99.07403880002676,,,,,,,,up,4.154501500015613,None,space,0.40138329996261746,None,,,,,,,,,,,,,,,,,P121,001,2025-02-21_11h14.06.845,posner_endo_new1,2024.2.4,60.07535854407934,2025-02-21 11h14.16.060080 +0000,
cube_r.png,0.1,-0.31,invalid,5,5,0,up,3.4517828000243753,None,space,0.2561748999869451,None,,,,,0,5,5,5,,,,,99.08981580002,,,,,,,,,,,,,99.07421120000072,99.08981580002,99.08981580002,99.08981580002,102.55400369997369,,,,102.56023429997731,102.57197059999453,102.57197059999453,102.61997749999864,102.62020050000865,102.63640299998224,102.63640299998224,102.63640299998224,102.7027319999761,102.90380470000673,,,,,,,,up,3.4517828000243753,None,space,0.2561748999869451,None,,,,,,,,,,,,,,,,,P121,001,2025-02-21_11h14.06.845,posner_endo_new1,2024.2.4,60.07535854407934,2025-02-21 11h14.16.060080 +0000,
cube_r.png,0.1,0.31,valid,6,6,0,up,4.390046400018036,None,space,0.3652800999698229,None,,,,,0,6,6,6,,,,,102.91963730001589,,,,,,,,,,,,,102.90397879999364,102.91963730001589,102.91963730001589,102.91963730001589,107.31786690000445,,,,107.33680019999156,107.34728759998688,107.34728759998688,107.38157869997667,107.38201230001869,107.3980194000178,107.3980194000178,107.3980194000178,107.48140849999618,107.76576580002438,,,,,,,,up,4.390046400018036,None,space,0.3652800999698229,None,,,,,,,,,,,,,,,,,P121,001,2025-02-21_11h14.06.845,posner_endo_new1,2024.2.4,60.07535854407934,2025-02-21 11h14.16.060080 +0000,
cube_r.png,0.1,-0.31,invalid,7,7,0,up,2.768438099999912,None,space,0.6536907000117935,None,,,,,0,7,7,7,,,,,107.78117979998933,,,,,,,,,,,,,107.76602689997526,107.78117979998933,107.78117979998933,107.78117979998933,110.5628039999865,,,,110.57131540001137,110.58132599998498,110.58132599998498,110.62855580000905,110.62877920002211,110.64456460002111,110.64456460002111,110.64456460002111,110.72820890002185,111.31167209998239,,,,,,,,up,2.768438099999912,None,space,0.6536907000117935,None,,,,,,,,,,,,,,,,,P121,001,2025-02-21_11h14.06.845,posner_endo_new1,2024.2.4,60.07535854407934,2025-02-21 11h14.16.060080 +0000,
cube_l.png,0.1,-0.31,valid,8,8,0,up,3.998597400030121,None,space,0.3554814000381157,None,,,,,0,8,8,8,,,,,111.32715000002645,,,,,,,,,,,,,111.31184630002826,111.32715000002645,111.32715000002645,111.32715000002645,115.34082039998611,,,,115.34736600000178,115.3591048999806,115.3591048999806,115.40648980002152,115.40671329997713,115.42337350000162,115.42337350000162,115.42337350000162,115.5068433000124,115.79050350002944,,,,,,,,up,3.998597400030121,None,space,0.3554814000381157,None,,,,,,,,,,,,,,,,,P121,001,2025-02-21_11h14.06.845,posner_endo_new1,2024.2.4,60.07535854407934,2025-02-21 11h14.16.060080 +0000,
cube_r.png,0.1,-0.31,invalid,9,9,0,up,2.6957584000192583,None,space,0.46435140003450215,None,,,,,0,9,9,9,,,,,115.80601210001623,,,,,,,,,,,,,115.79067610000493,115.80601210001623,115.80601210001623,115.80601210001623,118.50390000001062,,,,118.51021189999301,118.52172249997966,118.52172249997966,118.57008879998466,118.57031199999619,118.5869944000151,118.5869944000151,118.5869944000151,118.65341020002961,119.05401010002242,,,,,,,,up,2.6957584000192583,None,space,0.46435140003450215,None,,,,,,,,,,,,,,,,,P121,001,2025-02-21_11h14.06.845,posner_endo_new1,2024.2.4,60.07535854407934,2025-02-21 11h14.16.060080 +0000,
cube_l.png,0.1,0.31,invalid,10,10,0,up,3.4002247999887913,None,space,0.4306639999849722,None,,,,,0,10,10,10,,,,,119.06970719998935,,,,,,,,,,,,,119.05418809998082,119.06970719998935,119.06970719998935,119.06970719998935,122.48556449997704,,,,122.50893930002348,122.51914340001531,122.51914340001531,122.549291000003,122.54966279998189,122.56576189998304,122.56576189998304,122.56576189998304,122.64925790001871,123.00024389999453,,,,,,,,up,3.4002247999887913,None,space,0.4306639999849722,None,,,,,,,,,,,,,,,,,P121,001,2025-02-21_11h14.06.845,posner_endo_new1,2024.2.4,60.07535854407934,2025-02-21 11h14.16.060080 +0000,
cube_r.png,0.1,-0.31,invalid,11,11,0,up,3.598205499991309,None,space,0.4178198999725282,None,,,,,0,11,11,11,,,,,123.0156143999775,,,,,,,,,,,,,123.00053979997756,123.0156143999775,123.0156143999775,123.0156143999775,126.62991540000075,,,,126.63748269999633,126.64823859999888,126.64823859999888,126.69546910002828,126.69571669999277,126.71193260001019,126.71193260001019,126.71193260001019,126.79515690001426,127.14572199998656,,,,,,,,up,3.598205499991309,None,space,0.4178198999725282,None,,,,,,,,,,,,,,,,,P121,001,2025-02-21_11h14.06.845,posner_endo_new1,2024.2.4,60.07535854407934,2025-02-21 11h14.16.060080 +0000,
cube_r.png,0.1,0.31,valid,12,12,0,up,3.147778000042308,None,space,0.35750019998522475,None,,,,,0,12,12,12,,,,,127.1614459999837,,,,,,,,,,,,,127.14592290000292,127.1614459999837,127.1614459999837,127.1614459999837,130.32580430002417,,,,130.3333206999814,130.34457910002675,130.34457910002675,130.39168409997365,130.39193580002757,130.40808419999667,130.40808419999667,130.40808419999667,130.4913945000153,130.7752384999767,,,,,,,,up,3.147778000042308,None,space,0.35750019998522475,None,,,,,,,,,,,,,,,,,P121,001,2025-02-21_11h14.06.845,posner_endo_new1,2024.2.4,60.07535854407934,2025-02-21 11h14.16.060080 +0000,
cube_l.png,0.1,10,catch,13,13,0,up,3.3029616000130773,None,None,,,,,,,0,13,13,13,,,,,130.79098890000023,,,,,,,,,,,,,130.77544090000447,130.79098890000023,130.79098890000023,130.79098890000023,134.10508000000846,,,,134.11257240001578,134.12417939997977,134.12417939997977,134.17115840001497,134.1714114000206,134.18764140002895,134.18764140002895,134.18764140002895,134.25414450000972,137.18507800000953,,,,136.26895519997925,137.20112420001533,137.20112420001533,137.20112420001533,up,3.3029616000130773,None,None,,,,,,,,,,,,,,,,,,,P121,001,2025-02-21_11h14.06.845,posner_endo_new1,2024.2.4,60.07535854407934,2025-02-21 11h14.16.060080 +0000,
cube_r.png,0.1,-0.31,invalid,14,14,0,up,1.2450337000191212,None,space,0.406820299976971,None,,,,,0,14,14,14,,,,,137.20112420001533,,,,,,,,,,,,,137.18526110000676,137.20112420001533,137.20112420001533,137.20112420001533,138.45066540001426,,,,138.45846290001646,138.46966629999224,138.46966629999224,138.51666840002872,138.51691690000007,138.53325350000523,138.53325350000523,138.53325350000523,138.59981980000157,138.95046000002185,,,,,,,,up,1.2450337000191212,None,space,0.406820299976971,None,,,,,,,,,,,,,,,,,P121,001,2025-02-21_11h14.06.845,posner_endo_new1,2024.2.4,60.07535854407934,2025-02-21 11h14.16.060080 +0000,
cube_l.png,0.1,-0.31,valid,15,15,0,up,4.08088179997867,None,space,0.44008709996705875,None,,,,,0,15,15,15,,,,,138.96606980002252,,,,,,,,,,,,,138.95066179998685,138.96606980002252,138.96606980002252,138.96606980002252,143.06274179997854,,,,143.07028879999416,143.08147299999837,143.08147299999837,143.12865550001152,143.1288788000238,143.14521629997762,143.14521629997762,143.14521629997762,143.2284279000014,143.59531699999934,,,,,,,,up,4.08088179997867,None,space,0.44008709996705875,None,,,,,,,,,,,,,,,,,P121,001,2025-02-21_11h14.06.845,posner_endo_new1,2024.2.4,60.07535854407934,2025-02-21 11h14.16.060080 +0000,
cube_r.png,0.1,10,catch,16,16,0,up,4.226590600039344,None,None,,,,,,,0,16,16,16,,,,,143.61099890002515,,,,,,,,,,,,,143.5954989999882,143.61099890002515,143.61099890002515,143.61099890002515,147.84110050002346,,,,147.84715829999186,147.8586956000072,147.8586956000072,147.90705089998664,147.90727989998413,147.92354129999876,147.92354129999876,147.92354129999876,147.9903600999969,150.92048349999823,,,,150.00428300001658,150.93678729998646,150.93678729998646,150.93678729998646,up,4.226590600039344,None,None,,,,,,,,,,,,,,,,,,,P121,001,2025-02-21_11h14.06.845,posner_endo_new1,2024.2.4,60.07535854407934,2025-02-21 11h14.16.060080 +0000,
cube_r.png,0.1,10,catch,17,17,0,up,0.7408533000270836,None,None,,,,,,,0,17,17,17,,,,,150.93678729998646,,,,,,,,,,,,,150.92064379999647,150.93678729998646,150.93678729998646,150.93678729998646,151.68725640000775,,,,151.69335979997413,151.7051695000264,151.7051695000264,151.75315499998396,151.75337930000387,151.76973080000607,151.76973080000607,151.76973080000607,151.83638779999455,154.76672920002602,,,,153.85053549997974,154.78348430001643,154.78348430001643,154.78348430001643,up,0.7408533000270836,None,None,,,,,,,,,,,,,,,,,,,P121,001,2025-02-21_11h14.06.845,posner_endo_new1,2024.2.4,60.07535854407934,2025-02-21 11h14.16.060080 +0000,
cube_l.png,0.1,0.31,invalid,18,18,0,up,0.8782225999748334,None,space,0.41445699997711927,None,,,,,0,18,18,18,,,,,154.78348430001643,,,,,,,,,,,,,154.76689269999042,154.78348430001643,154.78348430001643,154.78348430001643,155.66616249998333,,,,155.6724512000219,155.68414099997608,155.68414099997608,155.73267689999193,155.7329040999757,155.74843939999118,155.74843939999118,155.74843939999118,155.8155257999897,156.16595860000234,,,,,,,,up,0.8782225999748334,None,space,0.41445699997711927,None,,,,,,,,,,,,,,,,,P121,001,2025-02-21_11h14.06.845,posner_endo_new1,2024.2.4,60.07535854407934,2025-02-21 11h14.16.060080 +0000,
cube_l.png,0.1,10,catch,19,19,0,up,3.0322711000335403,None,None,,,,,,,0,19,19,19,,,,,156.1818005000241,,,,,,,,,,,,,156.1661375000258,156.1818005000241,156.1818005000241,156.1818005000241,159.2293349999818,,,,159.2356406999752,159.24747050000587,159.24747050000587,159.29529320000438,159.29551760002505,159.31151720002526,159.31151720002526,159.31151720002526,159.37865770002827,162.30906599998707,,,,161.39260780002223,162.32527219998883,162.32527219998883,162.32527219998883,up,3.0322711000335403,None,None,,,,,,,,,,,,,,,,,,,P121,001,2025-02-21_11h14.06.845,posner_endo_new1,2024.2.4,60.07535854407934,2025-02-21 11h14.16.060080 +0000,
cube_l.png,0.1,0.31,invalid,20,20,0,up,0.9926249000127427,None,space,0.46442219999153167,None,,,,,0,20,20,20,,,,,162.32527219998883,,,,,,,,,,,,,162.3092292000074,162.32527219998883,162.32527219998883,162.32527219998883,163.325525799999,,,,163.33171940001193,163.34351029997924,163.34351029997924,163.39132260001497,163.3915470999782,163.40781750000315,163.40781750000315,163.40781750000315,163.4908825000166,163.8747201000224,,,,,,,,up,0.9926249000127427,None,space,0.46442219999153167,None,,,,,,,,,,,,,,,,,P121,001,2025-02-21_11h14.06.845,posner_endo_new1,2024.2.4,60.07535854407934,2025-02-21 11h14.16.060080 +0000,
cube_l.png,0.1,-0.31,valid,21,21,0,up,3.771006800001487,None,space,0.5014666999923065,None,,,,,0,21,21,21,,,,,163.89052600000286,,,,,,,,,,,,,163.87489490001462,163.89052600000286,163.89052600000286,163.89052600000286,167.67078709998168,,,,167.6769043999957,167.68865750002442,167.68865750002442,167.73635770002147,167.73658830003114,167.75332920002984,167.75332920002984,167.75332920002984,167.8193907000241,168.27021200000308,,,,,,,,up,3.771006800001487,None,space,0.5014666999923065,None,,,,,,,,,,,,,,,,,P121,001,2025-02-21_11h14.06.845,posner_endo_new1,2024.2.4,60.07535854407934,2025-02-21 11h14.16.060080 +0000,
cube_r.png,0.1,0.31,valid,22,22,0,up,3.7440975000499748,None,space,0.389855399960652,None,,,,,0,22,22,22,,,,,168.286121800018,,,,,,,,,,,,,168.27038980001817,168.286121800018,168.286121800018,168.286121800018,172.03300039999885,,,,172.03918500000145,172.05084340000758,172.05084340000758,172.09893139998894,172.09915490000276,172.1156723999884,172.1156723999884,172.1156723999884,172.19898520002607,172.5158673999831,,,,,,,,up,3.7440975000499748,None,space,0.389855399960652,None,,,,,,,,,,,,,,,,,P121,001,2025-02-21_11h14.06.845,posner_endo_new1,2024.2.4,60.07535854407934,2025-02-21 11h14.16.060080 +0000,
cube_r.png,0.1,-0.31,invalid,23,23,0,up,3.465755100012757,None,space,0.4008161000092514,None,,,,,0,23,23,23,,,,,172.53194379998604,,,,,,,,,,,,,172.51604070002213,172.53194379998604,172.53194379998604,172.53194379998604,176.01239320001332,,,,176.0185208999901,176.0300984000205,176.0300984000205,176.07825580000645,176.07847930002026,176.09492649999447,176.09492649999447,176.09492649999447,176.17813030001707,176.51170249999268,,,,,,,,up,3.465755100012757,None,space,0.4008161000092514,None,,,,,,,,,,,,,,,,,P121,001,2025-02-21_11h14.06.845,posner_endo_new1,2024.2.4,60.07535854407934,2025-02-21 11h14.16.060080 +0000,
cube_r.png,0.1,0.31,valid,24,24,0,up,3.853966799972113,None,space,0.37883409997448325,None,,,,,0,24,24,24,,,,,176.52786420000484,,,,,,,,,,,,,176.5118840999785,176.52786420000484,176.52786420000484,176.52786420000484,180.39096970000537,,,,180.3971205999842,180.40870329999598,180.40870329999598,180.4568304999848,180.4570534999948,180.47352489997866,180.47352489997866,180.47352489997866,180.54031519999262,180.85751000000164,,,,,,,,up,3.853966799972113,None,space,0.37883409997448325,None,,,,,,,,,,,,,,,,,P121,001,2025-02-21_11h14.06.845,posner_endo_new1,2024.2.4,60.07535854407934,2025-02-21 11h14.16.060080 +0000,
cube_r.png,0.1,-0.31,invalid,25,25,0,up,3.8609923999756575,None,space,0.4024428999982774,None,,,,,0,25,25,25,,,,,180.87326510000275,,,,,,,,,,,,,180.85768459999235,180.87326510000275,180.87326510000275,180.87326510000275,184.73657559999265,,,,184.7427109000273,184.75431069999468,184.75431069999468,184.8023555999971,184.8025784000056,184.81942459999118,184.81942459999118,184.81942459999118,184.90199980000034,185.2362334000063,,,,,,,,up,3.8609923999756575,None,space,0.4024428999982774,None,,,,,,,,,,,,,,,,,P121,001,2025-02-21_11h14.06.845,posner_endo_new1,2024.2.4,60.07535854407934,2025-02-21 11h14.16.060080 +0000,
cube_l.png,0.1,-0.31,valid,26,26,0,up,3.4657841000007465,None,space,0.4303854000172578,None,,,,,0,26,26,26,,,,,185.25209329999052,,,,,,,,,,,,,185.23640619998332,185.25209329999052,185.25209329999052,185.25209329999052,188.73209649999626,,,,188.73824869998498,188.74983729998348,188.74983729998348,188.79861589998472,188.79884150001453,188.81522500002757,188.81522500002757,188.81522500002757,188.88181839999743,189.24876109999605,,,,,,,,up,3.4657841000007465,None,space,0.4303854000172578,None,,,,,,,,,,,,,,,,,P121,001,2025-02-21_11h14.06.845,posner_endo_new1,2024.2.4,60.07535854407934,2025-02-21 11h14.16.060080 +0000,
cube_r.png,0.1,0.31,valid,27,27,0,up,3.677522099984344,None,space,0.3853778999764472,None,,,,,0,27,27,27,,,,,189.26427629997488,,,,,,,,,,,,,189.24893539998448,189.26427629997488,189.26427629997488,189.26427629997488,192.94490439997753,,,,192.9510099000181,192.96269680000842,192.96269680000842,193.0109738999745,193.0112080000108,193.0275536000263,193.0275536000263,193.0275536000263,193.09383650001837,193.42782859998988,,,,,,,,up,3.677522099984344,None,space,0.3853778999764472,None,,,,,,,,,,,,,,,,,P121,001,2025-02-21_11h14.06.845,posner_endo_new1,2024.2.4,60.07535854407934,2025-02-21 11h14.16.060080 +0000,
cube_r.png,0.1,10,catch,28,28,0,up,5.018340999959037,None,None,,,,,,,0,28,28,28,,,,,193.44379960000515,,,,,,,,,,,,,193.42800429998897,193.44379960000515,193.44379960000515,193.44379960000515,198.47447210003156,,,,198.49824990000343,198.50820630003,198.50820630003,198.53830940002808,198.53866130003007,198.5548443000298,198.5548443000298,198.5548443000298,198.6383857000037,201.5527353999787,,,,200.65291750000324,201.56866450002417,201.56866450002417,201.56866450002417,up,5.018340999959037,None,None,,,,,,,,,,,,,,,,,,,P121,001,2025-02-21_11h14.06.845,posner_endo_new1,2024.2.4,60.07535854407934,2025-02-21 11h14.16.060080 +0000,
cube_r.png,0.1,0.31,valid,29,29,0,up,0.5412475999910384,None,space,0.4032003000029363,None,,,,,0,29,29,29,,,,,201.56866450002417,,,,,,,,,,,,,201.55301309999777,201.56866450002417,201.56866450002417,201.56866450002417,202.11934380000457,,,,202.13107760000275,202.14124159998028,202.14124159998028,202.18479279999156,202.18513850000454,202.2014829000109,202.2014829000109,202.2014829000109,202.284673999995,202.6187854000018,,,,,,,,up,0.5412475999910384,None,space,0.4032003000029363,None,,,,,,,,,,,,,,,,,P121,001,2025-02-21_11h14.06.845,posner_endo_new1,2024.2.4,60.07535854407934,2025-02-21 11h14.16.060080 +0000,
cube_r.png,0.1,0.31,valid,30,30,0,up,4.244017499964684,None,space,0.3548655000049621,None,,,,,0,30,30,30,,,,,202.63421009999,,,,,,,,,,,,,202.6190770000103,202.63421009999,202.63421009999,202.63421009999,206.8812448999961,,,,206.8928741000127,206.90311770001426,206.90311770001426,206.94666219997453,206.94700570002897,206.9630945000099,206.9630945000099,206.9630945000099,207.0464186000172,207.33072720002383,,,,,,,,up,4.244017499964684,None,space,0.3548655000049621,None,,,,,,,,,,,,,,,,,P121,001,2025-02-21_11h14.06.845,posner_endo_new1,2024.2.4,60.07535854407934,2025-02-21 11h14.16.060080 +0000,
cube_l.png,0.1,-0.31,valid,31,31,0,up,3.5072060999809764,None,space,0.35240999999223277,None,,,,,0,31,31,31,,,,,207.34619489999022,,,,,,,,,,,,,207.33102340000914,207.34619489999022,207.34619489999022,207.34619489999022,210.8604487000266,,,,210.87209169997368,210.88230220001424,210.88230220001424,210.92586860002484,210.92611790000228,210.94258510001237,210.94258510001237,210.94258510001237,211.02590890001738,211.30971180001507,,,,,,,,up,3.5072060999809764,None,space,0.35240999999223277,None,,,,,,,,,,,,,,,,,P121,001,2025-02-21_11h14.06.845,posner_endo_new1,2024.2.4,60.07535854407934,2025-02-21 11h14.16.060080 +0000,
cube_r.png,0.1,0.31,valid,32,32,0,up,3.3531895999913104,None,space,0.3355500000179745,None,,,,,0,32,32,32,,,,,211.32511849998264,,,,,,,,,,,,,211.30990900000324,211.32511849998264,211.32511849998264,211.32511849998264,214.68941589997848,,,,214.69691020000027,214.70838369999547,214.70838369999547,214.75546670000767,214.75569130002987,214.77200230001472,214.77200230001472,214.77200230001472,214.83809879998444,215.12229329999536,,,,,,,,up,3.3531895999913104,None,space,0.3355500000179745,None,,,,,,,,,,,,,,,,,P121,001,2025-02-21_11h14.06.845,posner_endo_new1,2024.2.4,60.07535854407934,2025-02-21 11h14.16.060080 +0000,
cube_r.png,0.1,-0.31,invalid,33,33,0,up,4.2762992000207305,None,space,0.3912668999982998,None,,,,,0,33,33,33,,,,,215.13831970002502,,,,,,,,,,,,,215.12246719998075,215.13831970002502,215.13831970002502,215.13831970002502,219.41762710001785,,,,219.42366129998118,219.43529450002825,219.43529450002825,219.4833863999811,219.4836208000197,219.50026230001822,219.50026230001822,219.50026230001822,219.56707629997982,219.90077399997972,,,,,,,,up,4.2762992000207305,None,space,0.3912668999982998,None,,,,,,,,,,,,,,,,,P121,001,2025-02-21_11h14.06.845,posner_endo_new1,2024.2.4,60.07535854407934,2025-02-21 11h14.16.060080 +0000,
cube_r.png,0.1,10,catch,34,34,0,up,4.30515029997332,None,None,,,,,,,0,34,34,34,,,,,219.91675849998137,,,,,,,,,,,,,219.90094760002103,219.91675849998137,219.91675849998137,219.91675849998137,224.2298327999888,,,,224.23593219998293,224.24756500002695,224.24756500002695,224.29516139999032,224.2953863000148,224.312121200026,224.312121200026,224.312121200026,224.39548760000616,227.3094632999855,,,,226.41003010002896,227.3258324000053,227.3258324000053,227.3258324000053,up,4.30515029997332,None,None,,,,,,,,,,,,,,,,,,,P121,001,2025-02-21_11h14.06.845,posner_endo_new1,2024.2.4,60.07535854407934,2025-02-21 11h14.16.060080 +0000,
cube_r.png,0.1,0.31,valid,35,35,0,up,1.3135487000108697,None,space,0.35267540003405884,None,,,,,0,35,35,35,,,,,227.3258324000053,,,,,,,,,,,,,227.3096249999944,227.3258324000053,227.3258324000053,227.3258324000053,228.64204810000956,,,,228.64824589999625,228.6602304999833,228.6602304999833,228.70765130000655,228.7078782999888,228.72447660000762,228.72447660000762,228.72447660000762,228.807572300022,229.09137109998846,,,,,,,,up,1.3135487000108697,None,space,0.35267540003405884,None,,,,,,,,,,,,,,,,,P121,001,2025-02-21_11h14.06.845,posner_endo_new1,2024.2.4,60.07535854407934,2025-02-21 11h14.16.060080 +0000,
cube_r.png,0.1,-0.31,invalid,36,36,0,up,4.770394299994223,None,space,0.4199664000188932,None,,,,,0,36,36,36,,,,,229.10738579998724,,,,,,,,,,,,,229.09154779999517,229.10738579998724,229.10738579998724,229.10738579998724,233.88833280000836,,,,233.9118261000258,233.92393089999678,233.92393089999678,233.95223789999727,233.95263020001585,233.96860520000337,233.96860520000337,233.96860520000337,234.0518692000187,234.40282920002937,,,,,,,,up,4.770394299994223,None,space,0.4199664000188932,None,,,,,,,,,,,,,,,,,P121,001,2025-02-21_11h14.06.845,posner_endo_new1,2024.2.4,60.07535854407934,2025-02-21 11h14.16.060080 +0000,
cube_l.png,0.1,0.31,invalid,37,37,0,up,3.859033400018234,None,space,0.30090530001325533,None,,,,,0,37,37,37,,,,,234.41856520000147,,,,,,,,,,,,,234.4031589999795,234.41856520000147,234.41856520000147,234.41856520000147,238.2822019000305,,,,238.29083389998414,238.3009004999767,238.3009004999767,238.3479279000312,238.34820210002363,238.36451530002523,238.36451530002523,238.36451530002523,238.44784159999108,238.6817119999905,,,,,,,,up,3.859033400018234,None,space,0.30090530001325533,None,,,,,,,,,,,,,,,,,P121,001,2025-02-21_11h14.06.845,posner_endo_new1,2024.2.4,60.07535854407934,2025-02-21 11h14.16.060080 +0000,
cube_l.png,0.1,0.31,invalid,38,38,0,up,4.508719200035557,None,space,0.3617299000034109,None,,,,,0,38,38,38,,,,,238.69764010002837,,,,,,,,,,,,,238.68194300000323,238.69764010002837,238.69764010002837,238.69764010002837,243.21051399997668,,,,243.2190930999932,243.22926629998256,243.22926629998256,243.2763623999781,243.27664970001206,243.29280529997777,243.29280529997777,243.29280529997777,243.37615969998296,243.6603287999751,,,,,,,,up,4.508719200035557,None,space,0.3617299000034109,None,,,,,,,,,,,,,,,,,P121,001,2025-02-21_11h14.06.845,posner_endo_new1,2024.2.4,60.07535854407934,2025-02-21 11h14.16.060080 +0000,
cube_r.png,0.1,0.31,valid,39,39,0,up,4.3064677999936976,None,space,0.3991216000285931,None,,,,,0,39,39,39,,,,,243.67587430001004,,,,,,,,,,,,,243.6605570000247,243.67587430001004,243.67587430001004,243.67587430001004,247.9891638000263,,,,247.99774530000286,248.0084712000098,248.0084712000098,248.05485730001237,248.055408300017,248.07124229997862,248.07124229997862,248.07124229997862,248.1544935000129,248.47272489999887,,,,,,,,up,4.3064677999936976,None,space,0.3991216000285931,None,,,,,,,,,,,,,,,,,P121,001,2025-02-21_11h14.06.845,posner_endo_new1,2024.2.4,60.07535854407934,2025-02-21 11h14.16.060080 +0000,
cube_l.png,0.1,0.31,invalid,40,40,0,up,3.9589078999706544,None,space,0.4718398000113666,None,,,,,0,40,40,40,,,,,248.48750879999716,,,,,,,,,,,,,248.47320820001187,248.48750879999716,248.48750879999716,248.48750879999716,252.4520222999854,,,,252.46995110000717,252.48018820001744,252.48018820001744,252.51681060000556,252.51715919998242,252.53324670001166,252.53324670001166,252.53324670001166,252.61649550002767,253.0174845000147,,,,,,,,up,3.9589078999706544,None,space,0.4718398000113666,None,,,,,,,,,,,,,,,,,P121,001,2025-02-21_11h14.06.845,posner_endo_new1,2024.2.4,60.07535854407934,2025-02-21 11h14.16.060080 +0000,
cube_l.png,0.1,10,catch,41,41,0,up,4.660764799977187,None,None,,,,,,,0,41,41,41,,,,,253.03277869999874,,,,,,,,,,,,,253.01777470001252,253.03277869999874,253.03277869999874,253.03277869999874,257.6960048999754,,,,257.7077113999985,257.71802849997766,257.71802849997766,257.7614574999898,257.7618025999982,257.7778713000007,257.7778713000007,257.7778713000007,257.8611509000184,260.77556069998536,,,,259.87578790000407,260.7914568000124,260.7914568000124,260.7914568000124,up,4.660764799977187,None,None,,,,,,,,,,,,,,,,,,,P121,001,2025-02-21_11h14.06.845,posner_endo_new1,2024.2.4,60.07535854407934,2025-02-21 11h14.16.060080 +0000,
cube_l.png,0.1,-0.31,valid,42,42,0,up,14.70266409998294,None,space,0.5376305000390857,None,,,,,0,42,42,42,,,,,260.7914568000124,,,,,,,,,,,,,260.77583420003066,260.7914568000124,260.7914568000124,260.7914568000124,275.51158609997947,,,,275.53087650000816,275.5420308000175,275.5420308000175,275.5765777999768,275.576929199975,275.59301900002174,275.59301900002174,275.59301900002174,275.6764089000062,276.14369050000096,,,,,,,,up,14.70266409998294,None,space,0.5376305000390857,None,,,,,,,,,,,,,,,,,P121,001,2025-02-21_11h14.06.845,posner_endo_new1,2024.2.4,60.07535854407934,2025-02-21 11h14.16.060080 +0000,
cube_l.png,0.1,10,catch,43,43,0,up,4.662984599999618,None,None,,,,,,,0,43,43,43,,,,,276.1590893000248,,,,,,,,,,,,,276.1439785999828,276.1590893000248,276.1590893000248,276.1590893000248,280.8388604000211,,,,280.8505580999772,280.8603964999784,280.8603964999784,280.90443130000494,280.90477929997724,280.9209702999797,280.9209702999797,280.9209702999797,281.00415300001623,283.9186362000182,,,,283.018796999997,283.93454960000236,283.93454960000236,283.93454960000236,up,4.662984599999618,None,None,,,,,,,,,,,,,,,,,,,P121,001,2025-02-21_11h14.06.845,posner_endo_new1,2024.2.4,60.07535854407934,2025-02-21 11h14.16.060080 +0000,
cube_l.png,0.1,0.31,invalid,44,44,0,up,1.8718103999854065,None,space,0.3861734999809414,None,,,,,0,44,44,44,,,,,283.93454960000236,,,,,,,,,,,,,283.91890749998856,283.93454960000236,283.93454960000236,283.93454960000236,285.8171035000123,,,,285.82866200001445,285.8386932000285,285.8386932000285,285.8827061000047,285.8830511000124,285.8991718000034,285.8991718000034,285.8991718000034,285.98243079998065,286.3000609999872,,,,,,,,up,1.8718103999854065,None,space,0.3861734999809414,None,,,,,,,,,,,,,,,,,P121,001,2025-02-21_11h14.06.845,posner_endo_new1,2024.2.4,60.07535854407934,2025-02-21 11h14.16.060080 +0000,
cube_l.png,0.1,0.31,invalid,45,45,0,up,4.114433199982159,None,space,0.41483889997471124,None,,,,,0,45,45,45,,,,,286.3154683000175,,,,,,,,,,,,,286.30036300001666,286.3154683000175,286.3154683000175,286.3154683000175,290.44566989998566,,,,290.4573396000196,290.46746870002244,290.46746870002244,290.5112887999858,290.5116325999843,290.5277613999788,290.5277613999788,290.5277613999788,290.6110813000123,290.9452744000009,,,,,,,,up,4.114433199982159,None,space,0.41483889997471124,None,,,,,,,,,,,,,,,,,P121,001,2025-02-21_11h14.06.845,posner_endo_new1,2024.2.4,60.07535854407934,2025-02-21 11h14.16.060080 +0000,
cube_r.png,0.1,0.31,valid,46,46,0,up,3.605742799991276,None,space,0.44929989997763187,None,,,,,0,46,46,46,,,,,290.96075339999516,,,,,,,,,,,,,290.9455671000178,290.96075339999516,290.96075339999516,290.96075339999516,294.5748775000102,,,,294.58644139999524,294.5965877000126,294.5965877000126,294.6404101999942,294.64075580000645,294.65692310000304,294.65692310000304,294.65692310000304,294.74017659999663,295.1078994999989,,,,,,,,up,3.605742799991276,None,space,0.44929989997763187,None,,,,,,,,,,,,,,,,,P121,001,2025-02-21_11h14.06.845,posner_endo_new1,2024.2.4,60.07535854407934,2025-02-21 11h14.16.060080 +0000,
cube_l.png,0.1,-0.31,valid,47,47,0,up,4.8113939999602735,None,space,0.38407440000446513,None,,,,,0,47,47,47,,,,,295.12308500002837,,,,,,,,,,,,,295.1081911000074,295.12308500002837,295.12308500002837,295.12308500002837,299.9361091000028,,,,299.947866100003,299.95810659998097,299.95810659998097,300.00156910001533,300.0019238999812,300.0181126000243,300.0181126000243,300.0181126000243,300.10130879998906,300.4188111000112,,,,,,,,up,4.8113939999602735,None,space,0.38407440000446513,None,,,,,,,,,,,,,,,,,P121,001,2025-02-21_11h14.06.845,posner_endo_new1,2024.2.4,60.07535854407934,2025-02-21 11h14.16.060080 +0000,
cube_r.png,0.1,-0.31,invalid,48,48,0,up,3.259361600037664,None,space,0.41050699999323115,None,,,,,0,48,48,48,,,,,300.4343041999964,,,,,,,,,,,,,300.41910519998055,300.4343041999964,300.4343041999964,300.4343041999964,303.69872939999914,,,,303.71036740002455,303.72056430001976,303.72056430001976,303.76451290003024,303.76486290001776,303.7808647999773,303.7808647999773,303.7808647999773,303.864194600028,304.19829059997573,,,,,,,,up,3.259361600037664,None,space,0.41050699999323115,None,,,,,,,,,,,,,,,,,P121,001,2025-02-21_11h14.06.845,posner_endo_new1,2024.2.4,60.07535854407934,2025-02-21 11h14.16.060080 +0000,
cube_r.png,0.1,10,catch,49,49,0,up,3.8964049000060186,None,None,,,,,,,0,49,49,49,,,,,304.2137945999857,,,,,,,,,,,,,304.19858089997433,304.2137945999857,304.2137945999857,304.2137945999857,308.11124050000217,,,,308.11824009998236,308.12961870001163,308.12961870001163,308.17666599998483,308.17690479999874,308.1929444000125,308.1929444000125,308.1929444000125,308.27634229999967,311.19076040002983,,,,310.29108120000456,311.20683089998784,311.20683089998784,311.20683089998784,up,3.8964049000060186,None,None,,,,,,,,,,,,,,,,,,,P121,001,2025-02-21_11h14.06.845,posner_endo_new1,2024.2.4,60.07535854407934,2025-02-21 11h14.16.060080 +0000,
cube_l.png,0.1,-0.31,valid,50,50,0,up,0.9831928999628872,None,space,0.3811894999817014,None,,,,,0,50,50,50,,,,,311.20683089998784,,,,,,,,,,,,,311.19092249998357,311.20683089998784,311.20683089998784,311.20683089998784,312.2066506000119,,,,312.2194403000176,312.2290949000162,312.2290949000162,312.2724988000118,312.2727751000202,312.28900180000346,312.28900180000346,312.28900180000346,312.37205220002215,312.67296080000233,,,,,,,,up,0.9831928999628872,None,space,0.3811894999817014,None,,,,,,,,,,,,,,,,,P121,001,2025-02-21_11h14.06.845,posner_endo_new1,2024.2.4,60.07535854407934,2025-02-21 11h14.16.060080 +0000,
cube_l.png,0.1,-0.31,valid,51,51,0,up,3.16576730000088,None,space,0.4063585000112653,None,,,,,0,51,51,51,,,,,312.6885875000153,,,,,,,,,,,,,312.6731874999823,312.6885875000153,312.6885875000153,312.6885875000153,315.8695566999959,,,,315.87808210001094,315.888282000029,315.888282000029,315.9354096999741,315.9356846000301,315.95189279998885,315.95189279998885,315.95189279998885,316.03505130001577,316.36910630000057,,,,,,,,up,3.16576730000088,None,space,0.4063585000112653,None,,,,,,,,,,,,,,,,,P121,001,2025-02-21_11h14.06.845,posner_endo_new1,2024.2.4,60.07535854407934,2025-02-21 11h14.16.060080 +0000,
cube_r.png,0.1,-0.31,invalid,52,52,0,up,4.501603700045962,None,space,0.3417741000303067,None,,,,,0,52,52,52,,,,,316.3849115999765,,,,,,,,,,,,,316.3693383000209,316.3849115999765,316.3849115999765,316.3849115999765,320.8968309999909,,,,320.9028599000303,320.9135419999948,320.9135419999948,320.9465212000068,320.9467366000172,320.96258180000586,320.96258180000586,320.96258180000586,321.04591649997747,321.3132380999741,,,,,,,,up,4.501603700045962,None,space,0.3417741000303067,None,320.96258180000586,320.96258180000586,,,,,,,,,,,,,,,P121,001,2025-02-21_11h14.06.845,posner_endo_new1,2024.2.4,60.07535854407934,2025-02-21 11h14.16.060080 +0000,
cube_l.png,0.1,-0.31,valid,53,53,0,up,3.6131588999996893,None,space,0.4622726000379771,None,,,,,0,53,53,53,,,,,321.32938379998086,,,,,,,,,,,,,321.31341140001314,321.32938379998086,321.32938379998086,321.32938379998086,324.9434902999783,,,,324.94973579997895,324.9615046000108,324.9615046000108,325.0094810000155,325.0097033000202,325.02610040002037,325.02610040002037,325.02610040002037,325.10862329998054,325.4929614000139,,,,,,,,up,3.6131588999996893,None,space,0.4622726000379771,None,,,,,,,,,,,,,,,,,P121,001,2025-02-21_11h14.06.845,posner_endo_new1,2024.2.4,60.07535854407934,2025-02-21 11h14.16.060080 +0000,
cube_r.png,0.1,10,catch,54,54,0,up,5.1061996999778785,None,None,,,,,,,0,54,54,54,,,,,325.508983000007,,,,,,,,,,,,,325.4931318000308,325.508983000007,325.508983000007,325.508983000007,330.6211196000222,,,,330.6272138999775,330.6391119000036,330.6391119000036,330.6865150000085,330.6867380000185,330.7036046999856,330.7036046999856,330.7036046999856,330.7866791000124,333.7005377000314,,,,332.80088980001165,333.7168504000292,333.7168504000292,333.7168504000292,up,5.1061996999778785,None,None,,,,,,,,,,,,,,,,,,,P121,001,2025-02-21_11h14.06.845,posner_endo_new1,2024.2.4,60.07535854407934,2025-02-21 11h14.16.060080 +0000,
cube_l.png,0.1,0.31,invalid,55,55,0,up,1.5133604999864474,None,space,0.3536702999845147,None,,,,,0,55,55,55,,,,,333.7168504000292,,,,,,,,,,,,,333.70070320001105,333.7168504000292,333.7168504000292,333.7168504000292,335.2329717000248,,,,335.23904640000546,335.2510086999973,335.2510086999973,335.2990132999839,335.29924939997727,335.3154478999786,335.3154478999786,335.3154478999786,335.38209209998604,335.6825027000159,,,,,,,,up,1.5133604999864474,None,space,0.3536702999845147,None,,,,,,,,,,,,,,,,,P121,001,2025-02-21_11h14.06.845,posner_endo_new1,2024.2.4,60.07535854407934,2025-02-21 11h14.16.060080 +0000,
cube_l.png,0.1,-0.31,valid,56,56,0,up,4.6922612999915145,None,space,0.5812047999934293,None,,,,,0,56,56,56,,,,,335.6979530000244,,,,,,,,,,,,,335.6826739999815,335.6979530000244,335.6979530000244,335.6979530000244,340.3945548000047,,,,340.4006628000061,340.41234129999066,340.41234129999066,340.4603636999964,340.46058710000943,340.47687780001434,340.47687780001434,340.47687780001434,340.5601507999818,341.05990900000324,,,,,,,,up,4.6922612999915145,None,space,0.5812047999934293,None,,,,,,,,,,,,,,,,,P121,001,2025-02-21_11h14.06.845,posner_endo_new1,2024.2.4,60.07535854407934,2025-02-21 11h14.16.060080 +0000,
cube_r.png,0.1,0.31,valid,57,57,0,up,3.7536557000130415,None,space,0.4332022999878973,None,,,,,0,57,57,57,,,,,341.0761713000247,,,,,,,,,,,,,341.06008389999624,341.0761713000247,341.0761713000247,341.0761713000247,344.8397693000152,,,,344.84588979999535,344.8575593000278,344.8575593000278,344.90559560002293,344.90581879997626,344.92244039999787,344.92244039999787,344.92244039999787,344.9890029000235,345.3726264000288,,,,,,,,up,3.7536557000130415,None,space,0.4332022999878973,None,,,,,,,,,,,,,,,,,P121,001,2025-02-21_11h14.06.845,posner_endo_new1,2024.2.4,60.07535854407934,2025-02-21 11h14.16.060080 +0000,
cube_r.png,0.1,-0.31,invalid,58,58,0,up,5.57767640001839,None,space,0.6293638999923132,None,,,,,0,58,58,58,,,,,345.3884438999812,,,,,,,,,,,,,345.3727956999792,345.3884438999812,345.3884438999812,345.3884438999812,350.96702669997467,,,,350.9731998000061,350.98506670002826,350.98506670002826,351.0327538999845,351.03297709999606,351.0490421000286,351.0490421000286,351.0490421000286,351.1160852999892,351.6824522999814,,,,,,,,up,5.57767640001839,None,space,0.6293638999923132,None,,,,,,,,,,,,,,,,,P121,001,2025-02-21_11h14.06.845,posner_endo_new1,2024.2.4,60.07535854407934,2025-02-21 11h14.16.060080 +0000,
cube_l.png,0.1,0.31,invalid,59,59,0,up,4.32349839998642,None,space,0.43019840004853904,None,,,,,0,59,59,59,,,,,351.6986588999862,,,,,,,,,,,,,351.6826222999953,351.6986588999862,351.6986588999862,351.6986588999862,356.0285631000297,,,,356.0346549000242,356.04628270003013,356.04628270003013,356.09410560003016,356.0943279999774,356.11103379999986,356.11103379999986,356.11103379999986,356.19427919999,356.54431680002017,,,,,,,,up,4.32349839998642,None,space,0.43019840004853904,None,,,,,,,,,,,,,,,,,P121,001,2025-02-21_11h14.06.845,posner_endo_new1,2024.2.4,60.07535854407934,2025-02-21 11h14.16.060080 +0000,
,,,,,,,,,,,,,,,,,,,,,,,,,,,,,,,,,,,,,,,,,,,,,,,,,,,,,,,,,,,,,,,,,,,,,,,356.54442709998693,356.5598941000062,356.5598941000062,416.56545350002125,420.6462949999841,space,64.07903239998268,None,,,,,,,P121,001,2025-02-21_11h14.06.845,posner_endo_new1,2024.2.4,60.07535854407934,2025-02-21 11h14.16.060080 +0000,
,,,,,,,,,,,,,,,,,,,,,,,,,,,,,,,,,,420.64640889997827,420.66125880001346,423.6805202999967,423.6424025000306,,,,,,,,,,,,,,,,,,,,,,,,,,,,,,,,,,,,,,,,,,,,,,,,P121,001,2025-02-21_11h14.06.845,posner_endo_new1,2024.2.4,60.07535854407934,2025-02-21 11h14.16.060080 +0000,
cube_l.png,0.1,10,catch,0,0,0,down,9.790306599985342,None,None,,,,,,,,,,,0,0,0,0,423.6805202999967,,,,,,,,,,,,,423.6711460999795,423.6805202999967,423.6805202999967,423.6805202999967,433.48252080002567,,,,433.489965100016,433.5016434999998,433.5016434999998,433.5485195000074,433.5487473999965,433.5651375000016,433.5651375000016,433.5651375000016,433.6317161999759,436.56267790001584,,,,435.64608299999963,436.57830779999495,436.57830779999495,436.57830779999495,,,,,,,,,,,,,,,,,down,9.790306599985342,None,None,,,P121,001,2025-02-21_11h14.06.845,posner_endo_new1,2024.2.4,60.07535854407934,2025-02-21 11h14.16.060080 +0000,
cube_l.png,0.1,10,catch,1,1,0,down,2.9160846000304446,None,None,,,,,,,,,,,0,1,1,1,436.57830779999495,,,,,,,,,,,,,436.56284040003084,436.57830779999495,436.57830779999495,436.57830779999495,439.50978949997807,,,,439.51587709999876,439.5274982000119,439.5274982000119,439.5753510000068,439.5755787999951,439.5919513999834,439.5919513999834,439.5919513999834,439.6756336999824,442.58978129999014,,,,441.69006900000386,442.60530559998006,442.60530559998006,442.60530559998006,,,,,,,,,,,,,,,,,down,2.9160846000304446,None,None,,,P121,001,2025-02-21_11h14.06.845,posner_endo_new1,2024.2.4,60.07535854407934,2025-02-21 11h14.16.060080 +0000,
cube_l.png,0.1,0.31,invalid,2,2,0,down,1.064981599978637,None,space,0.3955167999956757,None,,,,,,,,,0,2,2,2,442.60530559998006,,,,,,,,,,,,,442.5899434000021,442.60530559998006,442.60530559998006,442.60530559998006,443.6717196999816,,,,443.6782346999971,443.6901321000187,443.6901321000187,443.73791939998046,443.7381435999996,443.7542970000068,443.7542970000068,443.7542970000068,443.8213867000304,444.1551801000023,,,,,,,,,,,,,,,,,,,,,,,,down,1.064981599978637,None,space,0.3955167999956757,None,P121,001,2025-02-21_11h14.06.845,posner_endo_new1,2024.2.4,60.07535854407934,2025-02-21 11h14.16.060080 +0000,
cube_l.png,0.1,0.31,invalid,3,3,0,down,3.619686999998521,None,space,0.6263122000382282,None,,,,,,,,,0,3,3,3,444.1703890999779,,,,,,,,,,,,,444.1553552999976,444.1703890999779,444.1703890999779,444.1703890999779,447.8008886000025,,,,447.80700219998835,447.818648400018,447.818648400018,447.8669518000097,447.8671797999996,447.8836691000033,447.8836691000033,447.8836691000033,447.950481900014,448.5170720000169,,,,,,,,,,,,,,,,,,,,,,,,down,3.619686999998521,None,space,0.6263122000382282,None,P121,001,2025-02-21_11h14.06.845,posner_endo_new1,2024.2.4,60.07535854407934,2025-02-21 11h14.16.060080 +0000,
cube_l.png,0.1,-0.31,valid,4,4,0,down,3.897167899995111,None,space,0.40444720000959933,None,,,,,,,,,0,4,4,4,448.53318620001664,,,,,,,,,,,,,448.5172467000084,448.53318620001664,448.53318620001664,448.53318620001664,452.4465934999753,,,,452.45262970001204,452.4642588000279,452.4642588000279,452.51258869998856,452.51281320001,452.52905150002334,452.52905150002334,452.52905150002334,452.61183690000325,452.9460844999994,,,,,,,,,,,,,,,,,,,,,,,,down,3.897167899995111,None,space,0.40444720000959933,None,P121,001,2025-02-21_11h14.06.845,posner_endo_new1,2024.2.4,60.07535854407934,2025-02-21 11h14.16.060080 +0000,
cube_r.png,0.1,-0.31,invalid,5,5,0,down,3.8925563000375405,None,space,0.3872346000280231,None,,,,,,,,,0,5,5,5,452.9620260000229,,,,,,,,,,,,,452.94626090000384,452.9620260000229,452.9620260000229,452.9620260000229,456.85832940001274,,,,456.8643831000081,456.8760977999773,456.8760977999773,456.92469860002166,456.9249247999978,456.9413348999806,456.9413348999806,456.9413348999806,457.0075348999817,457.3415793000022,,,,,,,,,,,,,,,,,,,,,,,,down,3.8925563000375405,None,space,0.3872346000280231,None,P121,001,2025-02-21_11h14.06.845,posner_endo_new1,2024.2.4,60.07535854407934,2025-02-21 11h14.16.060080 +0000,
cube_r.png,0.1,0.31,valid,6,6,0,down,4.072300699946936,None,space,0.3760764999897219,None,,,,,,,,,0,6,6,6,457.3574728000094,,,,,,,,,,,,,457.3417523999815,457.3574728000094,457.3574728000094,457.3574728000094,461.43707220000215,,,,461.4432689999812,461.455012099992,461.455012099992,461.5033714000019,461.5036020000116,461.52004570001736,461.52004570001736,461.52004570001736,461.58642740000505,461.9036237000255,,,,,,,,,,,,,,,,,,,,,,,,down,4.072300699946936,None,space,0.3760764999897219,None,P121,001,2025-02-21_11h14.06.845,posner_endo_new1,2024.2.4,60.07535854407934,2025-02-21 11h14.16.060080 +0000,
cube_r.png,0.1,-0.31,invalid,7,7,0,down,3.38296260003699,None,space,0.3364431000081822,None,,,,,,,,,0,7,7,7,461.91948709997814,,,,,,,,,,,,,461.90379950002534,461.91948709997814,461.91948709997814,461.91948709997814,465.3168408999918,,,,465.32291490002535,465.3346370999934,465.3346370999934,465.38235470000654,465.38258029997814,465.3992349000182,465.3992349000182,465.3992349000182,465.46554010000546,465.74943590001203,,,,,,,,,,,,,,,,,,,,,,,,down,3.38296260003699,None,space,0.3364431000081822,None,P121,001,2025-02-21_11h14.06.845,posner_endo_new1,2024.2.4,60.07535854407934,2025-02-21 11h14.16.060080 +0000,
cube_l.png,0.1,-0.31,valid,8,8,0,down,4.232985799957532,None,space,0.41881679999642074,None,,,,,,,,,0,8,8,8,465.765550000011,,,,,,,,,,,,,465.7496103000012,465.765550000011,465.765550000011,465.765550000011,470.0118475999916,,,,470.0179550999892,470.0296574999811,470.0296574999811,470.0778428000049,470.0780647000065,470.0945704000187,470.0945704000187,470.0945704000187,470.17779819999123,470.5280707000056,,,,,,,,,,,,,,,,,,,,,,,,down,4.232985799957532,None,space,0.41881679999642074,None,P121,001,2025-02-21_11h14.06.845,posner_endo_new1,2024.2.4,60.07535854407934,2025-02-21 11h14.16.060080 +0000,
cube_r.png,0.1,-0.31,invalid,9,9,0,down,3.117776099999901,None,space,0.6019392000162043,None,,,,,,,,,0,9,9,9,470.5442142999964,,,,,,,,,,,,,470.5282450999948,470.5442142999964,470.5442142999964,470.5442142999964,473.67486420000205,,,,473.6810178000014,473.69274939998286,473.69274939998286,473.7408485999913,473.7410740000196,473.75683099997696,473.75683099997696,473.75683099997696,473.82389260001946,474.374381600006,,,,,,,,,,,,,,,,,,,,,,,,down,3.117776099999901,None,space,0.6019392000162043,None,P121,001,2025-02-21_11h14.06.845,posner_endo_new1,2024.2.4,60.07535854407934,2025-02-21 11h14.16.060080 +0000,
cube_l.png,0.1,0.31,invalid,10,10,0,down,2.7283212000038475,None,space,0.5185677999979816,None,,,,,,,,,0,10,10,10,474.3901932000299,,,,,,,,,,,,,474.3745559999952,474.3901932000299,474.3901932000299,474.3901932000299,477.123554699996,,,,477.14382709999336,477.15442380000604,477.15442380000604,477.18708880001213,477.18752989999484,477.2035582999815,477.2035582999815,477.2035582999815,477.2867965999758,477.7378294999944,,,,,,,,,,,,,,,,,,,,,,,,down,2.7283212000038475,None,space,0.5185677999979816,None,P121,001,2025-02-21_11h14.06.845,posner_endo_new1,2024.2.4,60.07535854407934,2025-02-21 11h14.16.060080 +0000,
cube_r.png,0.1,-0.31,invalid,11,11,0,down,4.4449838000000454,None,space,0.47930389997782186,None,,,,,,,,,0,11,11,11,477.7529777000309,,,,,,,,,,,,,477.7382394000306,477.7529777000309,477.7529777000309,477.7529777000309,482.1999961999827,,,,482.20944010000676,482.21897059999174,482.21897059999174,482.2654760000296,482.26569989998825,482.2821278999909,482.2821278999909,482.2821278999909,482.36479570000665,482.76547969999956,,,,,,,,,,,,,,,,,,,,,,,,down,4.4449838000000454,None,space,0.47930389997782186,None,P121,001,2025-02-21_11h14.06.845,posner_endo_new1,2024.2.4,60.07535854407934,2025-02-21 11h14.16.060080 +0000,
cube_r.png,0.1,0.31,valid,12,12,0,down,3.8170666999649256,None,space,0.3687250000075437,None,,,,,,,,,0,12,12,12,482.78158130001975,,,,,,,,,,,,,482.7656616999884,482.78158130001975,482.78158130001975,482.78158130001975,486.61171349999495,,,,486.618270499981,486.6300711000222,486.6300711000222,486.67767549998825,486.6779208999942,486.69434420001926,486.69434420001926,486.69434420001926,486.7608842999907,487.07784669997636,,,,,,,,,,,,,,,,,,,,,,,,down,3.8170666999649256,None,space,0.3687250000075437,None,P121,001,2025-02-21_11h14.06.845,posner_endo_new1,2024.2.4,60.07535854407934,2025-02-21 11h14.16.060080 +0000,
cube_l.png,0.1,10,catch,13,13,0,down,3.2639007000252604,None,None,,,,,,,,,,,0,13,13,13,487.09391489997506,,,,,,,,,,,,,487.0780208000215,487.09391489997506,487.09391489997506,487.09391489997506,490.3744518000167,,,,490.3808989999816,490.3923466000124,490.3923466000124,490.43994100001873,490.4401661999873,490.45709370000986,490.45709370000986,490.45709370000986,490.5402270000195,493.45409399998607,,,,492.554997899977,493.4706746999873,493.4706746999873,493.4706746999873,,,,,,,,,,,,,,,,,down,3.2639007000252604,None,None,,,P121,001,2025-02-21_11h14.06.845,posner_endo_new1,2024.2.4,60.07535854407934,2025-02-21 11h14.16.060080 +0000,
cube_r.png,0.1,-0.31,invalid,14,14,0,down,1.1119112000451423,None,space,0.4479084999766201,None,,,,,,,,,0,14,14,14,493.4706746999873,,,,,,,,,,,,,493.4542650000076,493.4706746999873,493.4706746999873,493.4706746999873,494.58684860001085,,,,494.59332919999724,494.6050036000088,494.6050036000088,494.6525785999838,494.6528019999969,494.6692801999743,494.6692801999743,494.6692801999743,494.7525142999948,495.11980639997637,,,,,,,,,,,,,,,,,,,,,,,,down,1.1119112000451423,None,space,0.4479084999766201,None,P121,001,2025-02-21_11h14.06.845,posner_endo_new1,2024.2.4,60.07535854407934,2025-02-21 11h14.16.060080 +0000,
cube_l.png,0.1,-0.31,valid,15,15,0,down,3.7271605000132695,None,space,0.42779350001364946,None,,,,,,,,,0,15,15,15,495.1355707999901,,,,,,,,,,,,,495.11998710001353,495.1355707999901,495.1355707999901,495.1355707999901,498.86580269999104,,,,498.8718491999898,498.8834557000082,498.8834557000082,498.9314407000202,498.93166350002866,498.9484750999836,498.9484750999836,498.9484750999836,499.0149621000164,499.38156529999105,,,,,,,,,,,,,,,,,,,,,,,,down,3.7271605000132695,None,space,0.42779350001364946,None,P121,001,2025-02-21_11h14.06.845,posner_endo_new1,2024.2.4,60.07535854407934,2025-02-21 11h14.16.060080 +0000,
cube_r.png,0.1,10,catch,16,16,0,down,3.3686380000435747,None,space,0.32726109999930486,None,,,,,,,,,0,16,16,16,499.3979583000182,,,,,,,,,,,,,499.38174099999014,499.3979583000182,499.3979583000182,499.3979583000182,502.7784720999771,,,,502.78447960002813,502.79628680000314,502.79628680000314,502.8443357999786,502.84455839998554,502.86109199997736,502.86109199997736,502.86109199997736,502.92747960001,503.19490150001366,,,,,,,,,,,,,,,,,,,,,,,,down,3.3686380000435747,None,space,0.32726109999930486,None,P121,001,2025-02-21_11h14.06.845,posner_endo_new1,2024.2.4,60.07535854407934,2025-02-21 11h14.16.060080 +0000,
cube_r.png,0.1,10,catch,17,17,0,down,5.387950900010765,None,None,,,,,,,,,,,0,17,17,17,503.21077489998424,,,,,,,,,,,,,503.195077100012,503.21077489998424,503.21077489998424,503.21077489998424,508.60616770002525,,,,508.6122957000043,508.6241952999844,508.6241952999844,508.6712422000128,508.6714672999806,508.6884575000149,508.6884575000149,508.6884575000149,508.7710905999993,511.6855251999805,,,,510.7858286999981,511.7014224000159,511.7014224000159,511.7014224000159,,,,,,,,,,,,,,,,,down,5.387950900010765,None,None,,,P121,001,2025-02-21_11h14.06.845,posner_endo_new1,2024.2.4,60.07535854407934,2025-02-21 11h14.16.060080 +0000,
cube_l.png,0.1,0.31,invalid,18,18,0,down,2.0575172000098974,None,space,0.5799946999759413,None,,,,,,,,,0,18,18,18,511.7014224000159,,,,,,,,,,,,,511.6856905000168,511.7014224000159,511.7014224000159,511.7014224000159,513.7670275000273,,,,513.7731465999968,513.7847907000105,513.7847907000105,513.8328125000116,513.8330370999756,513.8497036999906,513.8497036999906,513.8497036999906,513.9163901000284,514.4334231999819,,,,,,,,,,,,,,,,,,,,,,,,down,2.0575172000098974,None,space,0.5799946999759413,None,P121,001,2025-02-21_11h14.06.845,posner_endo_new1,2024.2.4,60.07535854407934,2025-02-21 11h14.16.060080 +0000,
cube_l.png,0.1,10,catch,19,19,0,down,3.7576662999927066,None,None,,,,,,,,,,,0,19,19,19,514.449071799987,,,,,,,,,,,,,514.4335977000301,514.449071799987,514.449071799987,514.449071799987,518.214457300026,,,,518.2374369999743,518.2481253999867,518.2481253999867,518.2785898000002,518.2789333999972,518.295060399978,518.295060399978,518.295060399978,518.3782902000239,521.2927818999742,,,,520.3929459999781,521.308613799978,521.308613799978,521.308613799978,,,,,,,,,,,,,,,,,down,3.7576662999927066,None,None,,,P121,001,2025-02-21_11h14.06.845,posner_endo_new1,2024.2.4,60.07535854407934,2025-02-21 11h14.16.060080 +0000,
cube_l.png,0.1,0.31,invalid,20,20,0,down,0.7137722999905236,None,space,0.4879638999700546,None,,,,,,,,,0,20,20,20,521.308613799978,,,,,,,,,,,,,521.2930557000218,521.308613799978,521.308613799978,521.308613799978,522.0258176000207,,,,522.0374285000144,522.0476979999803,522.0476979999803,522.091402399994,522.091745999991,522.1080743999919,522.1080743999919,522.1080743999919,522.1911479000119,522.6084640999907,,,,,,,,,,,,,,,,,,,,,,,,down,0.7137722999905236,None,space,0.4879638999700546,None,P121,001,2025-02-21_11h14.06.845,posner_endo_new1,2024.2.4,60.07535854407934,2025-02-21 11h14.16.060080 +0000,
cube_l.png,0.1,-0.31,valid,21,21,0,down,4.822815699968487,None,space,0.5058141999761574,None,,,,,,,,,0,21,21,21,522.623941799975,,,,,,,,,,,,,522.6087692999863,522.623941799975,522.623941799975,522.623941799975,527.4535279999836,,,,527.4652722000028,527.475385800004,527.475385800004,527.5191653000074,527.5195068999892,527.5356907999958,527.5356907999958,527.5356907999958,527.6190030000289,528.0529359999928,,,,,,,,,,,,,,,,,,,,,,,,down,4.822815699968487,None,space,0.5058141999761574,None,P121,001,2025-02-21_11h14.06.845,posner_endo_new1,2024.2.4,60.07535854407934,2025-02-21 11h14.16.060080 +0000,
cube_r.png,0.1,0.31,valid,22,22,0,down,4.313773300033063,None,space,0.4971733999554999,None,,,,,,,,,0,22,22,22,528.0683757999795,,,,,,,,,,,,,528.0532301000203,528.0683757999795,528.0683757999795,528.0683757999795,532.3999486999819,,,,532.4234371000202,532.4351590999868,532.4351590999868,532.463853800029,532.4641904000309,532.4807457000134,532.4807457000134,532.4807457000134,532.563983400003,532.9812606999767,,,,,,,,,,,,,,,,,,,,,,,,down,4.313773300033063,None,space,0.4971733999554999,None,P121,001,2025-02-21_11h14.06.845,posner_endo_new1,2024.2.4,60.07535854407934,2025-02-21 11h14.16.060080 +0000,
cube_r.png,0.1,-0.31,invalid,23,23,0,down,4.017235099978279,None,space,0.4433059999719262,None,,,,,,,,,0,23,23,23,532.9968436000054,,,,,,,,,,,,,532.9815415000194,532.9968436000054,532.9968436000054,532.9968436000054,537.0271541000111,,,,537.0383425999898,537.0483879999956,537.0483879999956,537.0927345000091,537.0930805000244,537.1094758000108,537.1094758000108,537.1094758000108,537.1925921000075,537.5598593999748,,,,,,,,,,,,,,,,,,,,,,,,down,4.017235099978279,None,space,0.4433059999719262,None,P121,001,2025-02-21_11h14.06.845,posner_endo_new1,2024.2.4,60.07535854407934,2025-02-21 11h14.16.060080 +0000,
cube_r.png,0.1,0.31,valid,24,24,0,down,7.856540600012522,None,space,0.5510577000095509,None,,,,,,,,,0,24,24,24,537.5753971000086,,,,,,,,,,,,,537.5601493000286,537.5753971000086,537.5753971000086,537.5753971000086,545.4351640000241,,,,545.4462982999976,545.4563660999993,545.4563660999993,545.5008553999942,545.5011822999804,545.517474399996,545.517474399996,545.517474399996,545.6005066999933,546.0846447999938,,,,,,,,,,,,,,,,,,,,,,,,down,7.856540600012522,None,space,0.5510577000095509,None,P121,001,2025-02-21_11h14.06.845,posner_endo_new1,2024.2.4,60.07535854407934,2025-02-21 11h14.16.060080 +0000,
cube_r.png,0.1,-0.31,invalid,25,25,0,down,3.17079309996916,None,space,0.49669709999579936,None,,,,,,,,,0,25,25,25,546.1000508000143,,,,,,,,,,,,,546.0849257999798,546.1000508000143,546.1000508000143,546.1000508000143,549.2813388999784,,,,549.2908893999993,549.3004455000046,549.3004455000046,549.3468906999915,549.3471252000309,549.3635736000142,549.3635736000142,549.3635736000142,549.4467662000097,549.863918100018,,,,,,,,,,,,,,,,,,,,,,,,down,3.17079309996916,None,space,0.49669709999579936,None,P121,001,2025-02-21_11h14.06.845,posner_endo_new1,2024.2.4,60.07535854407934,2025-02-21 11h14.16.060080 +0000,
cube_l.png,0.1,-0.31,valid,26,26,0,down,5.975321299978532,None,space,0.600188700016588,None,,,,,,,,,0,26,26,26,549.8792405999848,,,,,,,,,,,,,549.8641076000058,549.8792405999848,549.8792405999848,549.8792405999848,555.8575100000016,,,,555.8645573999966,555.8762803000282,555.8762803000282,555.9235410999972,555.9237781999982,555.9400637000217,555.9400637000217,555.9400637000217,556.0066942999838,556.5569523000158,,,,,,,,,,,,,,,,,,,,,,,,down,5.975321299978532,None,space,0.600188700016588,None,P121,001,2025-02-21_11h14.06.845,posner_endo_new1,2024.2.4,60.07535854407934,2025-02-21 11h14.16.060080 +0000,
cube_r.png,0.1,0.31,valid,27,27,0,down,3.4818950000335462,None,space,0.32776680000824854,None,,,,,,,,,0,27,27,27,556.5729222000227,,,,,,,,,,,,,556.5571478999918,556.5729222000227,556.5729222000227,556.5729222000227,560.0699733999791,,,,560.0769368999754,560.0886675000074,560.0886675000074,560.13532880001,560.1355524000246,560.1523617000203,560.1523617000203,560.1523617000203,560.2357680000132,560.4863177000079,,,,,,,,,,,,,,,,,,,,,,,,down,3.4818950000335462,None,space,0.32776680000824854,None,P121,001,2025-02-21_11h14.06.845,posner_endo_new1,2024.2.4,60.07535854407934,2025-02-21 11h14.16.060080 +0000,
cube_r.png,0.1,10,catch,28,28,0,down,4.8877142000128515,None,None,,,,,,,,,,,0,28,28,28,560.5022076999885,,,,,,,,,,,,,560.4864932000055,560.5022076999885,560.5022076999885,560.5022076999885,565.3979314999888,,,,565.4040634999983,565.4158144000103,565.4158144000103,565.4632820999832,565.4635045999894,565.4798534000292,565.4798534000292,565.4798534000292,565.5634863000014,568.4778154999949,,,,567.5782677999814,568.493557800015,568.493557800015,568.493557800015,,,,,,,,,,,,,,,,,down,4.8877142000128515,None,None,,,P121,001,2025-02-21_11h14.06.845,posner_endo_new1,2024.2.4,60.07535854407934,2025-02-21 11h14.16.060080 +0000,
cube_r.png,0.1,0.31,valid,29,29,0,down,0.8493055999861099,None,space,0.4284998000366613,None,,,,,,,,,0,29,29,29,568.493557800015,,,,,,,,,,,,,568.4779774000053,568.493557800015,568.493557800015,568.493557800015,569.3459374000086,,,,569.3690691000083,569.3814453000086,569.3814453000086,569.4095376000041,569.4099916000268,569.425992799981,569.425992799981,569.425992799981,569.5092440000153,569.8603397000115,,,,,,,,,,,,,,,,,,,,,,,,down,0.8493055999861099,None,space,0.4284998000366613,None,P121,001,2025-02-21_11h14.06.845,posner_endo_new1,2024.2.4,60.07535854407934,2025-02-21 11h14.16.060080 +0000,
cube_r.png,0.1,0.31,valid,30,30,0,down,3.5469874999835156,None,space,0.30260459997225553,None,,,,,,,,,0,30,30,30,569.8757835000288,,,,,,,,,,,,,569.8606051999959,569.8757835000288,569.8757835000288,569.8757835000288,573.4397213999764,,,,573.4494895000244,573.4593728000182,573.4593728000182,573.5055805000011,573.5058905999758,573.5220970999799,573.5220970999799,573.5220970999799,573.605663400027,573.8394882000284,,,,,,,,,,,,,,,,,,,,,,,,down,3.5469874999835156,None,space,0.30260459997225553,None,P121,001,2025-02-21_11h14.06.845,posner_endo_new1,2024.2.4,60.07535854407934,2025-02-21 11h14.16.060080 +0000,
cube_l.png,0.1,-0.31,valid,31,31,0,down,4.215787999972235,None,space,0.5472894999547862,None,,,,,,,,,0,31,31,31,573.8550688999821,,,,,,,,,,,,,573.8397483000299,573.8550688999821,573.8550688999821,573.8550688999821,578.0849684000132,,,,578.0948047999991,578.1047993000248,578.1047993000248,578.150826600031,578.1511312000221,578.1673234999762,578.1673234999762,578.1673234999762,578.2505470999749,578.7177714999998,,,,,,,,,,,,,,,,,,,,,,,,down,4.215787999972235,None,space,0.5472894999547862,None,P121,001,2025-02-21_11h14.06.845,posner_endo_new1,2024.2.4,60.07535854407934,2025-02-21 11h14.16.060080 +0000,
cube_r.png,0.1,0.31,valid,32,32,0,down,4.001458499988075,None,space,0.323359000030905,None,,,,,,,,,0,32,32,32,578.733352100011,,,,,,,,,,,,,578.7180351000279,578.733352100011,578.733352100011,578.733352100011,582.7468493999913,,,,582.7565708999755,582.7666462999769,582.7666462999769,582.8126789000235,582.8129898000043,582.8292856999906,582.8292856999906,582.8292856999906,582.912464699999,583.1632241000189,,,,,,,,,,,,,,,,,,,,,,,,down,4.001458499988075,None,space,0.323359000030905,None,P121,001,2025-02-21_11h14.06.845,posner_endo_new1,2024.2.4,60.07535854407934,2025-02-21 11h14.16.060080 +0000,
cube_r.png,0.1,-0.31,invalid,33,33,0,down,3.8673554999986663,None,space,0.5036011000047438,None,,,,,,,,,0,33,33,33,583.1788402000093,,,,,,,,,,,,,583.1634940999793,583.1788402000093,583.1788402000093,583.1788402000093,587.0592749000061,,,,587.0691376000177,587.0792015999905,587.0792015999905,587.1250164000085,587.1253281999961,587.1415538000292,587.1415538000292,587.1415538000292,587.2247669000062,587.6588228999753,,,,,,,,,,,,,,,,,,,,,,,,down,3.8673554999986663,None,space,0.5036011000047438,None,P121,001,2025-02-21_11h14.06.845,posner_endo_new1,2024.2.4,60.07535854407934,2025-02-21 11h14.16.060080 +0000,
cube_r.png,0.1,10,catch,34,34,0,down,4.5320581999840215,None,None,,,,,,,,,,,0,34,34,34,587.6743280999945,,,,,,,,,,,,,587.6590821000282,587.6743280999945,587.6743280999945,587.6743280999945,592.2206032000249,,,,592.2304276999785,592.2403980999952,592.2403980999952,592.2863812000141,592.2866862000083,592.3028852000134,592.3028852000134,592.3028852000134,592.3861005000072,595.300455300021,,,,594.4007748999866,595.3164792999742,595.3164792999742,595.3164792999742,,,,,,,,,,,,,,,,,down,4.5320581999840215,None,None,,,P121,001,2025-02-21_11h14.06.845,posner_endo_new1,2024.2.4,60.07535854407934,2025-02-21 11h14.16.060080 +0000,
cube_r.png,0.1,0.31,valid,35,35,0,down,1.5375558999949135,None,space,0.6274148999946192,None,,,,,,,,,0,35,35,35,595.3164792999742,,,,,,,,,,,,,595.3006952999858,595.3164792999742,595.3164792999742,595.3164792999742,596.865950700012,,,,596.8756940999883,596.8857771999901,596.8857771999901,596.9321083999821,596.9328087000176,596.9484263000195,596.9484263000195,596.9484263000195,597.0150179999764,597.5836195999873,,,,,,,,,,,,,,,,,,,,,,,,down,1.5375558999949135,None,space,0.6274148999946192,None,P121,001,2025-02-21_11h14.06.845,posner_endo_new1,2024.2.4,60.07535854407934,2025-02-21 11h14.16.060080 +0000,
cube_r.png,0.1,-0.31,invalid,36,36,0,down,3.7043249999987893,None,space,0.45738279999932274,None,,,,,,,,,0,36,36,36,597.5979438999784,,,,,,,,,,,,,597.5842431000201,597.5979438999784,597.5979438999784,597.5979438999784,601.3130488999886,,,,601.3363684000215,601.3474959000014,601.3474959000014,601.3770725000068,601.3774294999894,601.3935183000285,601.3935183000285,601.3935183000285,601.4768484000233,601.860985199979,,,,,,,,,,,,,,,,,,,,,,,,down,3.7043249999987893,None,space,0.45738279999932274,None,P121,001,2025-02-21_11h14.06.845,posner_endo_new1,2024.2.4,60.07535854407934,2025-02-21 11h14.16.060080 +0000,
cube_l.png,0.1,0.31,invalid,37,37,0,down,3.874290000007022,None,space,0.4698006000253372,None,,,,,,,,,0,37,37,37,601.8764833000023,,,,,,,,,,,,,601.8612814000226,601.8764833000023,601.8764833000023,601.8764833000023,605.757016699994,,,,605.7686214999994,605.7787832000176,605.7787832000176,605.8225902999984,605.8229382000281,605.8389967000112,605.8389967000112,605.8389967000112,605.922195399995,606.322783200012,,,,,,,,,,,,,,,,,,,,,,,,down,3.874290000007022,None,space,0.4698006000253372,None,P121,001,2025-02-21_11h14.06.845,posner_endo_new1,2024.2.4,60.07535854407934,2025-02-21 11h14.16.060080 +0000,
cube_l.png,0.1,0.31,invalid,38,38,0,down,3.939486899995245,None,space,0.47250570001779124,None,,,,,,,,,0,38,38,38,606.3386859999737,,,,,,,,,,,,,606.3229835000238,606.3386859999737,606.3386859999737,606.3386859999737,610.2855746999849,,,,610.2930055999896,610.3040584999835,610.3040584999835,610.3513908999739,610.3516426000278,610.367875099997,610.367875099997,610.367875099997,610.4510633000173,610.8514979999745,,,,,,,,,,,,,,,,,,,,,,,,down,3.939486899995245,None,space,0.47250570001779124,None,P121,001,2025-02-21_11h14.06.845,posner_endo_new1,2024.2.4,60.07535854407934,2025-02-21 11h14.16.060080 +0000,
cube_r.png,0.1,0.31,valid,39,39,0,down,3.938893900020048,None,space,0.4733538999571465,None,,,,,,,,,0,39,39,39,610.8673729000147,,,,,,,,,,,,,610.8517169000115,610.8673729000147,610.8673729000147,610.8673729000147,614.8140694000176,,,,614.8215301000164,614.8446273999871,614.8446273999871,614.8796219999786,614.879872200021,614.8965538999764,614.8965538999764,614.8965538999764,614.9630919999909,615.3801100000273,,,,,,,,,,,,,,,,,,,,,,,,down,3.938893900020048,None,space,0.4733538999571465,None,P121,001,2025-02-21_11h14.06.845,posner_endo_new1,2024.2.4,60.07535854407934,2025-02-21 11h14.16.060080 +0000,
cube_l.png,0.1,0.31,invalid,40,40,0,down,2.922262599982787,None,space,0.4492558999918401,None,,,,,,,,,0,40,40,40,615.3959125999827,,,,,,,,,,,,,615.3803112999885,615.3959125999827,615.3959125999827,615.3959125999827,618.3269659000216,,,,618.3344556000084,618.3462085999781,618.3462085999781,618.3930560000008,618.3933064999874,618.409722100012,618.409722100012,618.409722100012,618.4761944999918,618.8599943000008,,,,,,,,,,,,,,,,,,,,,,,,down,2.922262599982787,None,space,0.4492558999918401,None,P121,001,2025-02-21_11h14.06.845,posner_endo_new1,2024.2.4,60.07535854407934,2025-02-21 11h14.16.060080 +0000,
cube_l.png,0.1,10,catch,41,41,0,down,2.3464037999510765,None,None,,,,,,,,,,,0,41,41,41,618.8758085999871,,,,,,,,,,,,,618.8601950000157,618.8758085999871,618.8758085999871,618.8758085999871,621.2239572000108,,,,621.231400699995,621.2431635999819,621.2431635999819,621.2899590000161,621.290218500013,621.3065726999776,621.3065726999776,621.3065726999776,621.3731228000252,624.3041454000049,,,,623.3879110999987,624.3200358999893,624.3200358999893,624.3200358999893,,,,,,,,,,,,,,,,,down,2.3464037999510765,None,None,,,P121,001,2025-02-21_11h14.06.845,posner_endo_new1,2024.2.4,60.07535854407934,2025-02-21 11h14.16.060080 +0000,
cube_l.png,0.1,-0.31,valid,42,42,0,down,1.1747794999973848,None,space,0.4988730999757536,None,,,,,,,,,0,42,42,42,624.3200358999893,,,,,,,,,,,,,624.3043391000247,624.3200358999893,624.3200358999893,624.3200358999893,625.5030608000234,,,,625.5104278000072,625.5221506999806,625.5221506999806,625.5690976000042,625.5693503000075,625.5855878000148,625.5855878000148,625.5855878000148,625.652202999976,626.0878975000232,,,,,,,,,,,,,,,,,,,,,,,,down,1.1747794999973848,None,space,0.4988730999757536,None,P121,001,2025-02-21_11h14.06.845,posner_endo_new1,2024.2.4,60.07535854407934,2025-02-21 11h14.16.060080 +0000,
cube_l.png,0.1,10,catch,43,43,0,down,3.6649569999426603,None,None,,,,,,,,,,,0,43,43,43,626.1020548000233,,,,,,,,,,,,,626.0885480000288,626.1020548000233,626.1020548000233,626.1020548000233,629.7840145999799,,,,629.8071437000181,629.8173902999843,629.8173902999843,629.8476473999908,629.8479833999882,629.8641264999751,629.8641264999751,629.8641264999751,629.9478049000027,632.8620359000051,,,,631.9623357999953,632.8780719999922,632.8780719999922,632.8780719999922,,,,,,,,,,,,,,,,,down,3.6649569999426603,None,None,,,P121,001,2025-02-21_11h14.06.845,posner_endo_new1,2024.2.4,60.07535854407934,2025-02-21 11h14.16.060080 +0000,
cube_l.png,0.1,0.31,invalid,44,44,0,down,0.8806985999690369,None,space,0.4781042999820784,None,,,,,,,,,0,44,44,44,632.8780719999922,,,,,,,,,,,,,632.8623026999994,632.8780719999922,632.8780719999922,632.8780719999922,633.7617168999859,,,,633.7716079999809,633.7811651999946,633.7811651999946,633.8272837999975,633.8275269999867,633.8439320999896,633.8439320999896,633.8439320999896,633.9266875999747,634.3277294000145,,,,,,,,,,,,,,,,,,,,,,,,down,0.8806985999690369,None,space,0.4781042999820784,None,P121,001,2025-02-21_11h14.06.845,posner_endo_new1,2024.2.4,60.07535854407934,2025-02-21 11h14.16.060080 +0000,
cube_l.png,0.1,0.31,invalid,45,45,0,down,3.6078726000268944,None,space,0.447251999983564,None,,,,,,,,,0,45,45,45,634.3432943000225,,,,,,,,,,,,,634.3279263000004,634.3432943000225,634.3432943000225,634.3432943000225,637.9571105000214,,,,637.9640814000159,637.9758400000283,637.9758400000283,638.0230380999856,638.0232808000292,638.0395284999977,638.0395284999977,638.0395284999977,638.1228948999778,638.4898643000051,,,,,,,,,,,,,,,,,,,,,,,,down,3.6078726000268944,None,space,0.447251999983564,None,P121,001,2025-02-21_11h14.06.845,posner_endo_new1,2024.2.4,60.07535854407934,2025-02-21 11h14.16.060080 +0000,
cube_r.png,0.1,0.31,valid,46,46,0,down,3.6048603000235744,None,space,0.5511660000192933,None,,,,,,,,,0,46,46,46,638.5057987999753,,,,,,,,,,,,,638.4900542999967,638.5057987999753,638.5057987999753,638.5057987999753,642.119632899994,,,,642.1266182999825,642.1384978999849,642.1384978999849,642.1853641999769,642.1856029999908,642.2015952999936,642.2015952999936,642.2015952999936,642.2851697999868,642.7689116999973,,,,,,,,,,,,,,,,,,,,,,,,down,3.6048603000235744,None,space,0.5511660000192933,None,P121,001,2025-02-21_11h14.06.845,posner_endo_new1,2024.2.4,60.07535854407934,2025-02-21 11h14.16.060080 +0000,
cube_l.png,0.1,-0.31,valid,47,47,0,down,3.847472599998582,None,space,0.46476780000375584,None,,,,,,,,,0,47,47,47,642.7847046999959,,,,,,,,,,,,,642.7691034000018,642.7847046999959,642.7847046999959,642.7847046999959,646.6481453999877,,,,646.6551349000074,646.6668797999737,646.6668797999737,646.7142237999942,646.7144590999815,646.7308040999924,646.7308040999924,646.7308040999924,646.7972017999855,647.1978649999946,,,,,,,,,,,,,,,,,,,,,,,,down,3.847472599998582,None,space,0.46476780000375584,None,P121,001,2025-02-21_11h14.06.845,posner_endo_new1,2024.2.4,60.07535854407934,2025-02-21 11h14.16.060080 +0000,
cube_r.png,0.1,-0.31,invalid,48,48,0,down,4.897544700012077,None,space,0.39192319998983294,None,,,,,,,,,0,48,48,48,647.2135168000241,,,,,,,,,,,,,647.1980609000311,647.2135168000241,647.2135168000241,647.2135168000241,652.1258012999897,,,,652.1328460000223,652.1444197000237,652.1444197000237,652.1918987000245,652.1921342000132,652.2081860000035,652.2081860000035,652.2081860000035,652.2745466000051,652.6090198999736,,,,,,,,,,,,,,,,,,,,,,,,down,4.897544700012077,None,space,0.39192319998983294,None,P121,001,2025-02-21_11h14.06.845,posner_endo_new1,2024.2.4,60.07535854407934,2025-02-21 11h14.16.060080 +0000,
cube_r.png,0.1,10,catch,49,49,0,down,4.182370800001081,None,None,,,,,,,,,,,0,49,49,49,652.6245508000138,,,,,,,,,,,,,652.6092095000204,652.6245508000138,652.6245508000138,652.6245508000138,656.8210580000305,,,,656.8280445000273,656.8397957999841,656.8397957999841,656.88698260003,656.8872205999796,656.9036119999946,656.9036119999946,656.9036119999946,656.9701454000315,659.9009971999913,,,,658.984816799988,659.9169584999909,659.9169584999909,659.9169584999909,,,,,,,,,,,,,,,,,down,4.182370800001081,None,None,,,P121,001,2025-02-21_11h14.06.845,posner_endo_new1,2024.2.4,60.07535854407934,2025-02-21 11h14.16.060080 +0000,
cube_l.png,0.1,-0.31,valid,50,50,0,down,1.3133362000226043,None,space,0.42900969996117055,None,,,,,,,,,0,50,50,50,659.9169584999909,,,,,,,,,,,,,659.9011780000292,659.9169584999909,659.9169584999909,659.9169584999909,661.2330997000099,,,,661.2400852999999,661.2519289000193,661.2519289000193,661.2993189999834,661.2995582000003,661.315867999976,661.315867999976,661.315867999976,661.3823094000109,661.7497203000239,,,,,,,,,,,,,,,,,,,,,,,,down,1.3133362000226043,None,space,0.42900969996117055,None,P121,001,2025-02-21_11h14.06.845,posner_endo_new1,2024.2.4,60.07535854407934,2025-02-21 11h14.16.060080 +0000,
cube_l.png,0.1,-0.31,valid,51,51,0,down,3.6567255000118166,None,space,0.43820579996099696,None,,,,,,,,,0,51,51,51,661.7654353000107,,,,,,,,,,,,,661.7499117000261,661.7654353000107,661.7654353000107,661.7654353000107,665.4289859000128,,,,665.4360111000133,665.4477163000265,665.4477163000265,665.494836799975,665.4950736999745,665.5115564999869,665.5115564999869,665.5115564999869,665.5781363000278,665.9617823000299,,,,,,,,,,,,,,,,,,,,,,,,down,3.6567255000118166,None,space,0.43820579996099696,None,P121,001,2025-02-21_11h14.06.845,posner_endo_new1,2024.2.4,60.07535854407934,2025-02-21 11h14.16.060080 +0000,
cube_r.png,0.1,-0.31,invalid,52,52,0,down,7.021134799986612,None,space,0.5621363999671303,None,,,,,,,,,0,52,52,52,665.9776832999778,,,,,,,,,,,,,665.961972500023,665.9776832999778,665.9776832999778,665.9776832999778,673.0046336000087,,,,673.0116236999747,673.0233867000206,673.0233867000206,673.0704484999878,673.0706931999885,673.0870188000263,673.0870188000263,673.0870188000263,673.153662799974,673.6536128000007,,,,,,,,,,,,,,,,,,,,,,,,down,7.021134799986612,None,space,0.5621363999671303,None,P121,001,2025-02-21_11h14.06.845,posner_endo_new1,2024.2.4,60.07535854407934,2025-02-21 11h14.16.060080 +0000,
cube_l.png,0.1,-0.31,valid,53,53,0,down,3.705244299955666,None,space,0.4653395999921486,None,,,,,,,,,0,53,53,53,673.6697096999851,,,,,,,,,,,,,673.6538044000044,673.6697096999851,673.6697096999851,673.6697096999851,677.3833698999952,,,,677.3903557999874,677.402132600022,677.402132600022,677.4495338000124,677.4497766999993,677.4659519999987,677.4659519999987,677.4659519999987,677.5324584000045,677.9329542000196,,,,,,,,,,,,,,,,,,,,,,,,down,3.705244299955666,None,space,0.4653395999921486,None,P121,001,2025-02-21_11h14.06.845,posner_endo_new1,2024.2.4,60.07535854407934,2025-02-21 11h14.16.060080 +0000,
cube_r.png,0.1,10,catch,54,54,0,down,4.106876500009093,None,None,,,,,,,,,,,0,54,54,54,677.9486882999772,,,,,,,,,,,,,677.933142599999,677.9486882999772,677.9486882999772,677.9486882999772,682.0621043000137,,,,682.0691278000013,682.0807432000292,682.0807432000292,682.1279926000279,682.1282485999982,682.144370199996,682.144370199996,682.144370199996,682.2276674999739,685.1418543999898,,,,684.2424455999862,685.1581942000194,685.1581942000194,685.1581942000194,,,,,,,,,,,,,,,,,down,4.106876500009093,None,None,,,P121,001,2025-02-21_11h14.06.845,posner_endo_new1,2024.2.4,60.07535854407934,2025-02-21 11h14.16.060080 +0000,
cube_l.png,0.1,0.31,invalid,55,55,0,down,1.319960799999535,None,space,0.4530019999947399,None,,,,,,,,,0,55,55,55,685.1581942000194,,,,,,,,,,,,,685.1420306999935,685.1581942000194,685.1581942000194,685.1581942000194,686.4908532000263,,,,686.4978436999954,686.5097507999744,686.5097507999744,686.5567094000289,686.5569445000147,686.5733699999982,686.5733699999982,686.5733699999982,686.6399686000077,687.0401710000006,,,,,,,,,,,,,,,,,,,,,,,,down,1.319960799999535,None,space,0.4530019999947399,None,P121,001,2025-02-21_11h14.06.845,posner_endo_new1,2024.2.4,60.07535854407934,2025-02-21 11h14.16.060080 +0000,
cube_l.png,0.1,-0.31,valid,56,56,0,down,3.8302554999827407,None,space,0.5188390999683179,None,,,,,,,,,0,56,56,56,687.0561844999902,,,,,,,,,,,,,687.0403596999822,687.0561844999902,687.0561844999902,687.0561844999902,690.9029760999838,,,,690.909947099979,690.9215627000085,690.9215627000085,690.9688472999842,690.9690708999988,690.9855738999904,690.9855738999904,690.9855738999904,691.0685742999776,691.5189578999998,,,,,,,,,,,,,,,,,,,,,,,,down,3.8302554999827407,None,space,0.5188390999683179,None,P121,001,2025-02-21_11h14.06.845,posner_endo_new1,2024.2.4,60.07535854407934,2025-02-21 11h14.16.060080 +0000,
cube_r.png,0.1,0.31,valid,57,57,0,down,4.143601600022521,None,space,0.47517879999941215,None,,,,,,,,,0,57,57,57,691.5348931999761,,,,,,,,,,,,,691.519132299989,691.5348931999761,691.5348931999761,691.5348931999761,695.6811694999924,,,,695.687245499983,695.6989824000048,695.6989824000048,695.7475098000141,695.747744399996,695.7639802999911,695.7639802999911,695.7639802999911,695.8302647999953,696.247234200011,,,,,,,,,,,,,,,,,,,,,,,,down,4.143601600022521,None,space,0.47517879999941215,None,P121,001,2025-02-21_11h14.06.845,posner_endo_new1,2024.2.4,60.07535854407934,2025-02-21 11h14.16.060080 +0000,
cube_r.png,0.1,-0.31,invalid,58,58,0,down,2.9750738000147976,None,space,0.46754410001449287,None,,,,,,,,,0,58,58,58,696.2634645000217,,,,,,,,,,,,,696.2474111000192,696.2634645000217,696.2634645000217,696.2634645000217,699.2442630000296,,,,699.2503104999778,699.2620181000093,699.2620181000093,699.3105794999865,699.310812700016,699.3269674999756,699.3269674999756,699.3269674999756,699.3935435999883,699.810487699986,,,,,,,,,,,,,,,,,,,,,,,,down,2.9750738000147976,None,space,0.46754410001449287,None,P121,001,2025-02-21_11h14.06.845,posner_endo_new1,2024.2.4,60.07535854407934,2025-02-21 11h14.16.060080 +0000,
cube_l.png,0.1,0.31,invalid,59,59,0,down,3.7484664999647066,None,space,0.33178120001684874,None,,,,,,,,,0,59,59,59,699.8265593000106,,,,,,,,,,,,,699.8106659000041,699.8265593000106,699.8265593000106,699.8265593000106,703.5899397999747,,,,703.5960759000154,703.6079968999838,703.6079968999838,703.6559551000246,703.6561789999832,703.6724943000008,703.6724943000008,703.6724943000008,703.7556746000191,704.006473299989,,,,,,,,,,,,,,,,,,,,,,,,down,3.7484664999647066,None,space,0.33178120001684874,None,P121,001,2025-02-21_11h14.06.845,posner_endo_new1,2024.2.4,60.07535854407934,2025-02-21 11h14.16.060080 +0000,
