cue_img,cue_soa,target_y,trial,thisN,thisTrialN,thisRepN,key_control2.keys,key_control2.rt,key_control2.duration,key_resp.keys,key_resp.rt,key_resp.duration,practice.thisRepN,practice.thisTrialN,practice.thisN,practice.thisIndex,block1.thisRepN,block1.thisTrialN,block1.thisN,block1.thisIndex,block2.thisRepN,block2.thisTrialN,block2.thisN,block2.thisIndex,thisRow.t,notes,instructions.started,instructions_txt.started,key_control.started,instructions.stopped,key_control.keys,key_control.rt,key_control.duration,ready.started,ready_txt.started,ready_txt.stopped,ready.stopped,fix.started,fixation.started,key_control2.started,fixation_cross.started,fix.stopped,practice.key_control2.keys,practice.key_control2.rt,practice.key_control2.duration,cue.started,cube.started,fixation_cross_cue.started,cue.stopped,target.started,fixation_target.started,fixation_cross_target.started,key_resp.started,star.started,target.stopped,practice.key_resp.keys,practice.key_resp.rt,practice.key_resp.duration,star.stopped,fixation_target.stopped,fixation_cross_target.stopped,key_resp.stopped,block1.key_control2.keys,block1.key_control2.rt,block1.key_control2.duration,block1.key_resp.keys,block1.key_resp.rt,block1.key_resp.duration,break_2.started,text.started,key_control3.started,break_2.stopped,key_control3.keys,key_control3.rt,key_control3.duration,block2.key_control2.keys,block2.key_control2.rt,block2.key_control2.duration,block2.key_resp.keys,block2.key_resp.rt,block2.key_resp.duration,participant,session,date,expName,psychopyVersion,frameRate,expStart,
,,,,,,,,,,,,,,,,,,,,,,,,,,,0.007712799997534603,0.02082980005070567,0.02082980005070567,77.76525440003024,up,77.72393000003649,None,,,,,,,,,,,,,,,,,,,,,,,,,,,,,,,,,,,,,,,,,,,,,,,,,P122,001,2025-02-21_13h23.21.478,posner_endo_new1,2024.2.4,60.05583993266832,2025-02-21 13h23.56.581891 +0000,
,,,,,,,,,,,,,,,,,,,,,,,,,,,,,,,,,,77.76534810004523,77.77688479999779,80.78369770001154,80.75549790001241,,,,,,,,,,,,,,,,,,,,,,,,,,,,,,,,,,,,,,,,,,,,,P122,001,2025-02-21_13h23.21.478,posner_endo_new1,2024.2.4,60.05583993266832,2025-02-21 13h23.56.581891 +0000,
cube_l.png,0.1,-0.31,valid,0,0,0,up,2.1612985000247136,None,space,0.38538880000123754,None,0,0,0,0,,,,,,,,,80.78369770001154,,,,,,,,,,,,,80.77109250001376,80.78369770001154,80.78369770001154,80.78369770001154,82.95392320002429,up,2.1612985000247136,None,82.96583120001014,82.97615210001823,82.97615210001823,83.01971790002426,83.01996040000813,83.0362755000242,83.0362755000242,83.0362755000242,83.11932480003452,83.43645979999565,space,0.38538880000123754,None,,,,,,,,,,,,,,,,,,,,,,,,P122,001,2025-02-21_13h23.21.478,posner_endo_new1,2024.2.4,60.05583993266832,2025-02-21 13h23.56.581891 +0000,
cube_l.png,0.1,0.31,invalid,1,1,0,up,5.79697500000475,None,space,0.373047899978701,None,0,1,1,1,,,,,,,,,83.45218940003542,,,,,,,,,,,,,83.43664790003095,83.45218940003542,83.45218940003542,83.45218940003542,89.26357800001279,up,5.79697500000475,None,89.271646600042,89.28294420003658,89.28294420003658,89.32995850004954,89.33020820003003,89.34617319999961,89.34617319999961,89.34617319999961,89.41261980001582,89.73023520002607,space,0.373047899978701,None,,,,,,,,,,,,,,,,,,,,,,,,P122,001,2025-02-21_13h23.21.478,posner_endo_new1,2024.2.4,60.05583993266832,2025-02-21 13h23.56.581891 +0000,
cube_r.png,0.1,-0.31,invalid,2,2,0,up,7.2946758000180125,None,space,0.3576568000135012,None,0,2,2,2,,,,,,,,,89.74600570002804,,,,,,,,,,,,,89.73042430001078,89.74600570002804,89.74600570002804,89.74600570002804,97.05588380002882,up,7.2946758000180125,None,97.06340830004774,97.08645200001774,97.08645200001774,97.12184190005064,97.12206560000777,97.13832610001555,97.13832610001555,97.13832610001555,97.2046885000309,97.50535640004091,space,0.3576568000135012,None,,,,,,,,,,,,,,,,,,,,,,,,P122,001,2025-02-21_13h23.21.478,posner_endo_new1,2024.2.4,60.05583993266832,2025-02-21 13h23.56.581891 +0000,
cube_r.png,0.1,10,catch,3,3,0,up,6.6000209000194445,None,None,,,0,3,3,3,,,,,,,,,97.52141690003918,,,,,,,,,,,,,97.50552490004338,97.52141690003918,97.52141690003918,97.52141690003918,104.13214030000381,up,6.6000209000194445,None,104.13832820003154,104.15014209999936,104.15014209999936,104.19802619999973,104.1982488000067,104.21410660003312,104.21410660003312,104.21410660003312,104.29757270001573,107.21200600004522,None,,,106.31244010000955,107.22837820003042,107.22837820003042,107.22837820003042,,,,,,,,,,,,,,,,,,,,P122,001,2025-02-21_13h23.21.478,posner_endo_new1,2024.2.4,60.05583993266832,2025-02-21 13h23.56.581891 +0000,
cube_l.png,0.1,-0.31,valid,4,4,0,up,1.3165970999980345,None,space,0.3794118999503553,None,0,4,4,4,,,,,,,,,107.22837820003042,,,,,,,,,,,,,107.2121587000438,107.22837820003042,107.22837820003042,107.22837820003042,108.5609409000026,up,1.3165970999980345,None,108.56700430001365,108.57878229999915,108.57878229999915,108.62684700003592,108.62707050004974,108.64330700004939,108.64330700004939,108.64330700004939,108.71008970000548,109.02728949999437,space,0.3794118999503553,None,,,,,,,,,,,,,,,,,,,,,,,,P122,001,2025-02-21_13h23.21.478,posner_endo_new1,2024.2.4,60.05583993266832,2025-02-21 13h23.56.581891 +0000,
cube_l.png,0.1,0.31,invalid,5,5,0,up,8.774028900021221,None,space,0.36109849996864796,None,0,5,5,5,,,,,,,,,109.0429297000519,,,,,,,,,,,,,109.02745390002383,109.0429297000519,109.0429297000519,109.0429297000519,117.8181867999956,up,8.774028900021221,None,117.82442590000574,117.83594570000423,117.83594570000423,117.88363490003394,117.88385949999793,117.90061260003131,117.90061260003131,117.90061260003131,117.98389080003835,118.26742490002653,space,0.36109849996864796,None,,,,,,,,,,,,,,,,,,,,,,,,P122,001,2025-02-21_13h23.21.478,posner_endo_new1,2024.2.4,60.05583993266832,2025-02-21 13h23.56.581891 +0000,
cube_r.png,0.1,-0.31,invalid,6,6,0,up,7.021401100035291,None,space,0.3390311000403017,None,0,6,6,6,,,,,,,,,118.28365380002651,,,,,,,,,,,,,118.26758700003847,118.28365380002651,118.28365380002651,118.28365380002651,125.310638200026,up,7.021401100035291,None,125.31664590002038,125.32836790004512,125.32836790004512,125.37657750002109,125.37680110003566,125.39290370000526,125.39290370000526,125.39290370000526,125.4763307000394,125.74335740000242,space,0.3390311000403017,None,,,,,,,,,,,,,,,,,,,,,,,,P122,001,2025-02-21_13h23.21.478,posner_endo_new1,2024.2.4,60.05583993266832,2025-02-21 13h23.56.581891 +0000,
cube_r.png,0.1,0.31,valid,7,7,0,up,6.841883599990979,None,space,0.32413520000409335,None,0,7,7,7,,,,,,,,,125.75932160002412,,,,,,,,,,,,,125.74352010001894,125.75932160002412,125.75932160002412,125.75932160002412,132.60302370000863,up,6.841883599990979,None,132.60935730003985,132.6211442000349,132.6211442000349,132.669098900049,132.66932490002364,132.6849875000189,132.6849875000189,132.6849875000189,132.75222930003656,133.01899730000878,space,0.32413520000409335,None,,,,,,,,,,,,,,,,,,,,,,,,P122,001,2025-02-21_13h23.21.478,posner_endo_new1,2024.2.4,60.05583993266832,2025-02-21 13h23.56.581891 +0000,
cube_l.png,0.1,-0.31,valid,8,8,0,up,7.750222200003918,None,space,0.4545012000016868,None,0,8,8,8,,,,,,,,,133.03505220002262,,,,,,,,,,,,,133.01916040002834,133.03505220002262,133.03505220002262,133.03505220002262,140.79443010000978,up,7.750222200003918,None,140.8006718000397,140.81228660000488,140.81228660000488,140.86064030003035,140.8608606000198,140.87717520003207,140.87717520003207,140.87717520003207,140.94367310003145,141.34377400000812,space,0.4545012000016868,None,,,,,,,,,,,,,,,,,,,,,,,,P122,001,2025-02-21_13h23.21.478,posner_endo_new1,2024.2.4,60.05583993266832,2025-02-21 13h23.56.581891 +0000,
cube_r.png,0.1,-0.31,invalid,9,9,0,up,10.377463200013153,None,space,0.3046578000066802,None,0,9,9,9,,,,,,,,,141.359985600051,,,,,,,,,,,,,141.3439389000414,141.359985600051,141.359985600051,141.359985600051,151.7496352000162,up,10.377463200013153,None,151.75582640001085,151.7675567000406,151.7675567000406,151.8159268000163,151.81614900002023,151.83272940001916,151.83272940001916,151.83272940001916,151.8990212000208,152.1492877000128,space,0.3046578000066802,None,,,,,,,,,,,,,,,,,,,,,,,,P122,001,2025-02-21_13h23.21.478,posner_endo_new1,2024.2.4,60.05583993266832,2025-02-21 13h23.56.581891 +0000,
cube_r.png,0.1,0.31,valid,10,10,0,up,6.387589099991601,None,space,0.32657440000912175,None,0,10,10,10,,,,,,,,,152.16563320002751,,,,,,,,,,,,,152.14945260004606,152.16563320002751,152.16563320002751,152.16563320002751,158.55963820003672,up,6.387589099991601,None,158.5656275000074,158.57725450000726,158.57725450000726,158.62578960001701,158.62601130001713,158.64239220001036,158.64239220001036,158.64239220001036,158.70890930003952,158.9755871000234,space,0.32657440000912175,None,,,,,,,,,,,,,,,,,,,,,,,,P122,001,2025-02-21_13h23.21.478,posner_endo_new1,2024.2.4,60.05583993266832,2025-02-21 13h23.56.581891 +0000,
,,,,,,,,,,,,,,,,,,,,,,,,,,,,,,,,,,158.97569740004838,158.99167130002752,161.99251950002508,161.9726896000211,,,,,,,,,,,,,,,,,,,,,,,,,,,,,,,,,,,,,,,,,,,,,P122,001,2025-02-21_13h23.21.478,posner_endo_new1,2024.2.4,60.05583993266832,2025-02-21 13h23.56.581891 +0000,
cube_l.png,0.1,10,catch,0,0,0,up,4.3049406000063755,None,None,,,,,,,0,0,0,0,,,,,161.99251950002508,,,,,,,,,,,,,161.9838396999985,161.99251950002508,161.99251950002508,161.99251950002508,166.3041007000138,,,,166.32736650004517,166.33968269999605,166.33968269999605,166.3673896000255,166.36769730004016,166.38391140004387,166.38391140004387,166.38391140004387,166.46732220001286,169.38205529999686,,,,168.4819784000283,169.397652500018,169.397652500018,169.397652500018,up,4.3049406000063755,None,None,,,,,,,,,,,,,,,,P122,001,2025-02-21_13h23.21.478,posner_endo_new1,2024.2.4,60.05583993266832,2025-02-21 13h23.56.581891 +0000,
cube_l.png,0.1,10,catch,1,1,0,up,0.7957584999967366,None,None,,,,,,,0,1,1,1,,,,,169.397652500018,,,,,,,,,,,,,169.3822987000458,169.397652500018,169.397652500018,169.397652500018,170.19826530001592,,,,170.20811570005026,170.21825259999605,170.21825259999605,170.26355540001532,170.26386300002923,170.28007259999868,170.28007259999868,170.28007259999868,170.36368470004527,173.27773170004366,,,,172.37802380003268,173.29368230002,173.29368230002,173.29368230002,up,0.7957584999967366,None,None,,,,,,,,,,,,,,,,P122,001,2025-02-21_13h23.21.478,posner_endo_new1,2024.2.4,60.05583993266832,2025-02-21 13h23.56.581891 +0000,
cube_l.png,0.1,0.31,invalid,2,2,0,up,4.4194845000165515,None,space,0.40125480003189296,None,,,,,0,2,2,2,,,,,173.29368230002,,,,,,,,,,,,,173.2779722000123,173.29368230002,173.29368230002,173.29368230002,177.72375440003816,,,,177.73363390000304,177.74373950000154,177.74373950000154,177.78968390001683,177.78998940001475,177.80576890002703,177.80576890002703,177.80576890002703,177.8891285000136,178.22313950001262,,,,,,,,up,4.4194845000165515,None,space,0.40125480003189296,None,,,,,,,,,,,,,,P122,001,2025-02-21_13h23.21.478,posner_endo_new1,2024.2.4,60.05583993266832,2025-02-21 13h23.56.581891 +0000,
cube_l.png,0.1,0.31,invalid,3,3,0,up,13.042045899957884,None,space,0.390707700047642,None,,,,,0,3,3,3,,,,,178.239005200041,,,,,,,,,,,,,178.22338979999768,178.239005200041,178.239005200041,178.239005200041,191.29337040003156,,,,191.30328590003774,191.31351820001146,191.31351820001146,191.3587455000379,191.35905970004387,191.37520240002777,191.37520240002777,191.37520240002777,191.4587963000522,191.77585309999995,,,,,,,,up,13.042045899957884,None,space,0.390707700047642,None,,,,,,,,,,,,,,P122,001,2025-02-21_13h23.21.478,posner_endo_new1,2024.2.4,60.05583993266832,2025-02-21 13h23.56.581891 +0000,
cube_l.png,0.1,-0.31,valid,4,4,0,up,9.761673899949528,None,space,0.480565799982287,None,,,,,0,4,4,4,,,,,191.79145350004546,,,,,,,,,,,,,191.77611190004973,191.79145350004546,191.79145350004546,191.79145350004546,201.5661825000425,,,,201.5759965000325,201.5865491000004,201.5865491000004,201.63190480001504,201.63220789999468,201.6485172000248,201.6485172000248,201.6485172000248,201.73143620003248,202.13207630004035,,,,,,,,up,9.761673899949528,None,space,0.480565799982287,None,,,,,,,,,,,,,,P122,001,2025-02-21_13h23.21.478,posner_endo_new1,2024.2.4,60.05583993266832,2025-02-21 13h23.56.581891 +0000,
cube_r.png,0.1,-0.31,invalid,5,5,0,up,14.48528849997092,None,space,0.4395883000106551,None,,,,,0,5,5,5,,,,,202.14760070003103,,,,,,,,,,,,,202.13232590002008,202.14760070003103,202.14760070003103,202.14760070003103,216.6343801000039,,,,216.644286499999,216.65441030001966,216.65441030001966,216.6997440000414,216.70004860003246,216.716063400032,216.716063400032,216.716063400032,216.7993324000272,217.16695360001177,,,,,,,,up,14.48528849997092,None,space,0.4395883000106551,None,,,,,,,,,,,,,,P122,001,2025-02-21_13h23.21.478,posner_endo_new1,2024.2.4,60.05583993266832,2025-02-21 13h23.56.581891 +0000,
cube_r.png,0.1,0.31,valid,6,6,0,up,6.274230299983174,None,space,0.3739977999939583,None,,,,,0,6,6,6,,,,,217.18260190001456,,,,,,,,,,,,,217.16720310004894,217.18260190001456,217.18260190001456,217.18260190001456,223.46069570002146,,,,223.47058449999895,223.48053610004717,223.48053610004717,223.52601250004955,223.52631650003605,223.54271850001533,223.54271850001533,223.54271850001533,223.62563120003324,223.926277999999,,,,,,,,up,6.274230299983174,None,space,0.3739977999939583,None,,,,,,,,,,,,,,P122,001,2025-02-21_13h23.21.478,posner_endo_new1,2024.2.4,60.05583993266832,2025-02-21 13h23.56.581891 +0000,
cube_r.png,0.1,-0.31,invalid,7,7,0,up,5.2268437999882735,None,space,0.400550700025633,None,,,,,0,7,7,7,,,,,223.9419612000347,,,,,,,,,,,,,223.92652760003693,223.9419612000347,223.9419612000347,223.9419612000347,229.1711110000033,,,,229.18100280000363,229.19121260003885,229.19121260003885,229.23674610001035,229.23704989999533,229.25319300004048,229.25319300004048,229.25319300004048,229.33661040000152,229.67063770000823,,,,,,,,up,5.2268437999882735,None,space,0.400550700025633,None,,,,,,,,,,,,,,P122,001,2025-02-21_13h23.21.478,posner_endo_new1,2024.2.4,60.05583993266832,2025-02-21 13h23.56.581891 +0000,
cube_l.png,0.1,-0.31,valid,8,8,0,up,6.490502399974503,None,space,0.38367439998546615,None,,,,,0,8,8,8,,,,,229.6863585000392,,,,,,,,,,,,,229.6708911000169,229.6863585000392,229.6863585000392,229.6863585000392,236.18089840002358,,,,236.19071090000216,236.20092460000888,236.20092460000888,236.2464226000011,236.2467256000382,236.26303950004512,236.26303950004512,236.26303950004512,236.34607820003293,236.66315380000742,,,,,,,,up,6.490502399974503,None,space,0.38367439998546615,None,,,,,,,,,,,,,,P122,001,2025-02-21_13h23.21.478,posner_endo_new1,2024.2.4,60.05583993266832,2025-02-21 13h23.56.581891 +0000,
cube_r.png,0.1,-0.31,invalid,9,9,0,up,7.5870592999854125,None,space,0.322025700006634,None,,,,,0,9,9,9,,,,,236.6789287000429,,,,,,,,,,,,,236.66340670001227,236.6789287000429,236.6789287000429,236.6789287000429,244.2726176000433,,,,244.28245739999693,244.29260650003562,244.29260650003562,244.33793259999948,244.33823400002439,244.35469380003633,244.35469380003633,244.35469380003633,244.43774950003717,244.68849030003184,,,,,,,,up,7.5870592999854125,None,space,0.322025700006634,None,,,,,,,,,,,,,,P122,001,2025-02-21_13h23.21.478,posner_endo_new1,2024.2.4,60.05583993266832,2025-02-21 13h23.56.581891 +0000,
cube_l.png,0.1,0.31,invalid,10,10,0,up,5.648887399991509,None,space,0.3521199999959208,None,,,,,0,10,10,10,,,,,244.70425350003643,,,,,,,,,,,,,244.68874430004507,244.70425350003643,244.70425350003643,244.70425350003643,250.36598890001187,,,,250.375693900045,250.38585960003547,250.38585960003547,250.4320913000265,250.43240730004618,250.44819100003224,250.44819100003224,250.44819100003224,250.53158770001028,250.81567830004496,,,,,,,,up,5.648887399991509,None,space,0.3521199999959208,None,,,,,,,,,,,,,,P122,001,2025-02-21_13h23.21.478,posner_endo_new1,2024.2.4,60.05583993266832,2025-02-21 13h23.56.581891 +0000,
cube_r.png,0.1,-0.31,invalid,11,11,0,up,11.69770989997778,None,space,0.41485180001473054,None,,,,,0,11,11,11,,,,,250.8312088000239,,,,,,,,,,,,,250.81592910003383,250.8312088000239,250.8312088000239,250.8312088000239,262.5373417000519,,,,262.547139500035,262.55729770002654,262.55729770002654,262.6029153999989,262.6032233000151,262.6190586000448,262.6190586000448,262.6190586000448,262.7027015000349,263.0369008000125,,,,,,,,up,11.69770989997778,None,space,0.41485180001473054,None,,,,,,,,,,,,,,P122,001,2025-02-21_13h23.21.478,posner_endo_new1,2024.2.4,60.05583993266832,2025-02-21 13h23.56.581891 +0000,
cube_r.png,0.1,0.31,valid,12,12,0,up,7.661225699994247,None,space,0.3086945000104606,None,,,,,0,12,12,12,,,,,263.0519641000428,,,,,,,,,,,,,263.0371509999968,263.0519641000428,263.0519641000428,263.0519641000428,270.728639100038,,,,270.73507080000127,270.74672799999826,270.74672799999826,270.7944264000398,270.7946479000384,270.8110553000006,270.8110553000006,270.8110553000006,270.8939193999977,271.128070100036,,,,,,,,up,7.661225699994247,None,space,0.3086945000104606,None,,,,,,,,,,,,,,P122,001,2025-02-21_13h23.21.478,posner_endo_new1,2024.2.4,60.05583993266832,2025-02-21 13h23.56.581891 +0000,
cube_l.png,0.1,10,catch,13,13,0,up,8.681006800034083,None,None,,,,,,,0,13,13,13,,,,,271.1440537000308,,,,,,,,,,,,,271.1282463000389,271.1440537000308,271.1440537000308,271.1440537000308,279.83530660002725,,,,279.84185260004597,279.85341380001046,279.85341380001046,279.9018830000423,279.90210430003935,279.91830810002284,279.91830810002284,279.91830810002284,279.98491120000836,282.915899500018,,,,281.9994588000118,282.9320601000218,282.9320601000218,282.9320601000218,up,8.681006800034083,None,None,,,,,,,,,,,,,,,,P122,001,2025-02-21_13h23.21.478,posner_endo_new1,2024.2.4,60.05583993266832,2025-02-21 13h23.56.581891 +0000,
cube_r.png,0.1,-0.31,invalid,14,14,0,up,2.4450518999947235,None,space,0.3540278999716975,None,,,,,0,14,14,14,,,,,282.9320601000218,,,,,,,,,,,,,282.9160589000094,282.9320601000218,282.9320601000218,282.9320601000218,285.3801507000462,,,,285.3865803000517,285.39820090000285,285.39820090000285,285.44614630000433,285.44636689999606,285.4626868000487,285.4626868000487,285.4626868000487,285.52940960001433,285.829841400031,,,,,,,,up,2.4450518999947235,None,space,0.3540278999716975,None,,,,,,,,,,,,,,P122,001,2025-02-21_13h23.21.478,posner_endo_new1,2024.2.4,60.05583993266832,2025-02-21 13h23.56.581891 +0000,
cube_l.png,0.1,-0.31,valid,15,15,0,up,10.19592140003806,None,space,0.3359766000066884,None,,,,,0,15,15,15,,,,,285.84556610003347,,,,,,,,,,,,,285.8300168000278,285.84556610003347,285.84556610003347,285.84556610003347,296.0526071000495,,,,296.0586822000332,296.07056330004707,296.07056330004707,296.1187756000436,296.11899800004903,296.13539940002374,296.13539940002374,296.13539940002374,296.2013572000433,296.48575360001996,,,,,,,,up,10.19592140003806,None,space,0.3359766000066884,None,,,,,,,,,,,,,,P122,001,2025-02-21_13h23.21.478,posner_endo_new1,2024.2.4,60.05583993266832,2025-02-21 13h23.56.581891 +0000,
cube_r.png,0.1,10,catch,16,16,0,up,8.459783600002993,None,None,,,,,,,0,16,16,16,,,,,296.50103610003134,,,,,,,,,,,,,296.48592910001753,296.50103610003134,296.50103610003134,296.50103610003134,304.97706410003593,,,,304.98994110000785,305.0001451999997,305.0001451999997,305.04256840003654,305.042826000019,305.0594783000415,305.0594783000415,305.0594783000415,305.14244470000267,308.0568564000423,,,,307.1570945000276,308.0725983000011,308.0725983000011,308.0725983000011,up,8.459783600002993,None,None,,,,,,,,,,,,,,,,P122,001,2025-02-21_13h23.21.478,posner_endo_new1,2024.2.4,60.05583993266832,2025-02-21 13h23.56.581891 +0000,
cube_r.png,0.1,10,catch,17,17,0,up,3.2573942000162788,None,None,,,,,,,0,17,17,17,,,,,308.0725983000011,,,,,,,,,,,,,308.0570496,308.0725983000011,308.0725983000011,308.0725983000011,311.3371799000306,,,,311.3451137000229,311.355913300009,311.355913300009,311.40313430002425,311.4033971000463,311.41918700002134,311.41918700002134,311.41918700002134,311.5024284000392,314.41655990004074,,,,313.51704190002056,314.43299650005065,314.43299650005065,314.43299650005065,up,3.2573942000162788,None,None,,,,,,,,,,,,,,,,P122,001,2025-02-21_13h23.21.478,posner_endo_new1,2024.2.4,60.05583993266832,2025-02-21 13h23.56.581891 +0000,
cube_l.png,0.1,0.31,invalid,18,18,0,up,6.0006602999637835,None,space,0.4506881999550387,None,,,,,0,18,18,18,,,,,314.43299650005065,,,,,,,,,,,,,314.4167525000521,314.43299650005065,314.43299650005065,314.43299650005065,320.44409480004106,,,,320.45201030001044,320.46354610001436,320.46354610001436,320.51004160003504,320.510299400019,320.52657310001086,320.52657310001086,320.52657310001086,320.5935500000487,320.9939818000421,,,,,,,,up,6.0006602999637835,None,space,0.4506881999550387,None,,,,,,,,,,,,,,P122,001,2025-02-21_13h23.21.478,posner_endo_new1,2024.2.4,60.05583993266832,2025-02-21 13h23.56.581891 +0000,
cube_l.png,0.1,10,catch,19,19,0,up,7.167048400035128,None,None,,,,,,,0,19,19,19,,,,,321.00972309999634,,,,,,,,,,,,,320.99419350002427,321.00972309999634,321.00972309999634,321.00972309999634,328.18673900002614,,,,328.1947091000038,328.2053940000478,328.2053940000478,328.2525634000194,328.25282750005135,328.26863200002117,328.26863200002117,328.26863200002117,328.35191060003126,331.26641989999916,,,,330.36645520001184,331.282593800046,331.282593800046,331.282593800046,up,7.167048400035128,None,None,,,,,,,,,,,,,,,,P122,001,2025-02-21_13h23.21.478,posner_endo_new1,2024.2.4,60.05583993266832,2025-02-21 13h23.56.581891 +0000,
cube_l.png,0.1,0.31,invalid,20,20,0,up,8.423147799971048,None,space,0.42765440000221133,None,,,,,0,20,20,20,,,,,331.282593800046,,,,,,,,,,,,,331.26661680004327,331.282593800046,331.282593800046,331.282593800046,339.7083999000024,,,,339.7163025000482,339.72695690003457,339.72695690003457,339.77375870000105,339.77402549999533,339.7903455000487,339.7903455000487,339.7903455000487,339.87359390000347,340.22410370002035,,,,,,,,up,8.423147799971048,None,space,0.42765440000221133,None,,,,,,,,,,,,,,P122,001,2025-02-21_13h23.21.478,posner_endo_new1,2024.2.4,60.05583993266832,2025-02-21 13h23.56.581891 +0000,
cube_l.png,0.1,-0.31,valid,21,21,0,up,8.010253899963573,None,space,0.46137269999599084,None,,,,,0,21,21,21,,,,,340.2399653000175,,,,,,,,,,,,,340.22431070002494,340.2399653000175,340.2399653000175,340.2399653000175,348.26641290000407,,,,348.27442910004174,348.2851276000147,348.2851276000147,348.3315510000102,348.33180939999875,348.34815060003893,348.34815060003893,348.34815060003893,348.4318349999958,348.8152428000467,,,,,,,,up,8.010253899963573,None,space,0.46137269999599084,None,,,,,,,,,,,,,,P122,001,2025-02-21_13h23.21.478,posner_endo_new1,2024.2.4,60.05583993266832,2025-02-21 13h23.56.581891 +0000,
cube_r.png,0.1,0.31,valid,22,22,0,up,6.921771400026046,None,space,0.41828420001547784,None,,,,,0,22,22,22,,,,,348.83119540003827,,,,,,,,,,,,,348.8154601000133,348.83119540003827,348.83119540003827,348.83119540003827,355.7581550000468,,,,355.7661877000355,355.77720940002473,355.77720940002473,355.8239658999955,355.8242289000191,355.84042990003945,355.84042990003945,355.84042990003945,355.9072054999997,356.2745216000476,,,,,,,,up,6.921771400026046,None,space,0.41828420001547784,None,,,,,,,,,,,,,,P122,001,2025-02-21_13h23.21.478,posner_endo_new1,2024.2.4,60.05583993266832,2025-02-21 13h23.56.581891 +0000,
cube_r.png,0.1,-0.31,invalid,23,23,0,up,6.798658100015018,None,space,0.3844418000080623,None,,,,,0,23,23,23,,,,,356.2903176000109,,,,,,,,,,,,,356.2747324000229,356.2903176000109,356.2903176000109,356.2903176000109,363.1006197000388,,,,363.10668590001296,363.11814850004157,363.11814850004157,363.1668249000213,363.1670462000184,363.1834880000097,363.1834880000097,363.1834880000097,363.266575000016,363.5836887000478,,,,,,,,up,6.798658100015018,None,space,0.3844418000080623,None,,,,,,,,,,,,,,P122,001,2025-02-21_13h23.21.478,posner_endo_new1,2024.2.4,60.05583993266832,2025-02-21 13h23.56.581891 +0000,
cube_r.png,0.1,0.31,valid,24,24,0,up,5.969665199983865,None,space,0.34212369995657355,None,,,,,0,24,24,24,,,,,363.5995127000497,,,,,,,,,,,,,363.5838703000336,363.5995127000497,363.5995127000497,363.5995127000497,369.57764960004715,,,,369.5838750000112,369.595776400005,369.595776400005,369.643463800021,369.64368590002414,369.6600401000469,369.6600401000469,369.6600401000469,369.7433335999958,370.01061200001277,,,,,,,,up,5.969665199983865,None,space,0.34212369995657355,None,,,,,,,,,,,,,,P122,001,2025-02-21_13h23.21.478,posner_endo_new1,2024.2.4,60.05583993266832,2025-02-21 13h23.56.581891 +0000,
cube_r.png,0.1,-0.31,invalid,25,25,0,up,7.1106932000257075,None,space,0.44479630002751946,None,,,,,0,25,25,25,,,,,370.0263466000324,,,,,,,,,,,,,370.0107879000134,370.0263466000324,370.0263466000324,370.0263466000324,377.15310330002103,,,,377.15916700003436,377.1708581999992,377.1708581999992,377.21916229999624,377.2193865000154,377.2355299000046,377.2355299000046,377.2355299000046,377.302244600025,377.6854866000358,,,,,,,,up,7.1106932000257075,None,space,0.44479630002751946,None,,,,,,,,,,,,,,P122,001,2025-02-21_13h23.21.478,posner_endo_new1,2024.2.4,60.05583993266832,2025-02-21 13h23.56.581891 +0000,
cube_l.png,0.1,-0.31,valid,26,26,0,up,8.18748709995998,None,space,0.4621857000165619,None,,,,,0,26,26,26,,,,,377.70191890001297,,,,,,,,,,,,,377.6856564000482,377.70191890001297,377.70191890001297,377.70191890001297,385.89387860003626,,,,385.89990459999535,385.9114753000322,385.9114753000322,385.9602372000227,385.9604570000083,385.9767801000271,385.9767801000271,385.9767801000271,386.04329000000143,386.44357610004954,,,,,,,,up,8.18748709995998,None,space,0.4621857000165619,None,,,,,,,,,,,,,,P122,001,2025-02-21_13h23.21.478,posner_endo_new1,2024.2.4,60.05583993266832,2025-02-21 13h23.56.581891 +0000,
cube_r.png,0.1,0.31,valid,27,27,0,up,9.934265699994285,None,space,0.2957306000171229,None,,,,,0,27,27,27,,,,,386.4594752000412,,,,,,,,,,,,,386.443746200006,386.4594752000412,386.4594752000412,386.4594752000412,396.40008210000815,,,,396.4061802000506,396.4179048000369,396.4179048000369,396.46578379999846,396.46601540001575,396.4827163000009,396.4827163000009,396.4827163000009,396.5492651000386,396.78318200004287,,,,,,,,up,9.934265699994285,None,space,0.2957306000171229,None,,,,,,,,,,,,,,P122,001,2025-02-21_13h23.21.478,posner_endo_new1,2024.2.4,60.05583993266832,2025-02-21 13h23.56.581891 +0000,
cube_r.png,0.1,10,catch,28,28,0,up,7.274161999986973,None,None,,,,,,,0,28,28,28,,,,,396.79910510004265,,,,,,,,,,,,,396.7833565000328,396.79910510004265,396.79910510004265,396.79910510004265,404.0757717000088,,,,404.08175760001177,404.0937184000504,404.0937184000504,404.14170120004565,404.1419246000005,404.1583045000443,404.1583045000443,404.1583045000443,404.22488710004836,407.15530760004185,,,,406.2393619000213,407.17190830002073,407.17190830002073,407.17190830002073,up,7.274161999986973,None,None,,,,,,,,,,,,,,,,P122,001,2025-02-21_13h23.21.478,posner_endo_new1,2024.2.4,60.05583993266832,2025-02-21 13h23.56.581891 +0000,
cube_r.png,0.1,0.31,valid,29,29,0,up,16.86187909997534,None,space,0.36633710004389286,None,,,,,0,29,29,29,,,,,407.17190830002073,,,,,,,,,,,,,407.1554673000355,407.17190830002073,407.17190830002073,407.17190830002073,424.03858039999614,,,,424.044738000026,424.05658330000006,424.05658330000006,424.1044832000043,424.104707600025,424.1210801000125,424.1210801000125,424.1210801000125,424.1877015000209,424.4881488000392,,,,,,,,up,16.86187909997534,None,space,0.36633710004389286,None,,,,,,,,,,,,,,P122,001,2025-02-21_13h23.21.478,posner_endo_new1,2024.2.4,60.05583993266832,2025-02-21 13h23.56.581891 +0000,
cube_r.png,0.1,0.31,valid,30,30,0,up,5.729607200017199,None,space,0.9857137000071816,None,,,,,0,30,30,30,,,,,424.50413900002604,,,,,,,,,,,,,424.48831889999565,424.50413900002604,424.50413900002604,424.50413900002604,430.24895510001807,,,,430.2550433000433,430.26674340001773,430.26674340001773,430.3147846000502,430.3150058000465,430.33149350003805,430.33149350003805,430.33149350003805,430.397792200034,431.33111810003174,,,,,,,,up,5.729607200017199,None,space,0.9857137000071816,None,,,,,,,,,,,,,,P122,001,2025-02-21_13h23.21.478,posner_endo_new1,2024.2.4,60.05583993266832,2025-02-21 13h23.56.581891 +0000,
cube_l.png,0.1,-0.31,valid,31,31,0,up,4.854434799985029,None,space,0.35992049996275455,None,,,,,0,31,31,31,,,,,431.34714280004846,,,,,,,,,,,,,431.3312965000514,431.34714280004846,431.34714280004846,431.34714280004846,436.20940859999973,,,,436.21547520003514,436.22711190005066,436.22711190005066,436.27551060001133,436.27573410002515,436.2919804000412,436.2919804000412,436.2919804000412,436.35874330002116,436.6591977000353,,,,,,,,up,4.854434799985029,None,space,0.35992049996275455,None,,,,,,,,,,,,,,P122,001,2025-02-21_13h23.21.478,posner_endo_new1,2024.2.4,60.05583993266832,2025-02-21 13h23.56.581891 +0000,
cube_r.png,0.1,0.31,valid,32,32,0,up,3.7748666999978013,None,space,0.35936170001514256,None,,,,,0,32,32,32,,,,,436.6750257000094,,,,,,,,,,,,,436.6593677000492,436.6750257000094,436.6750257000094,436.6750257000094,440.4551899000071,,,,440.4612399000325,440.47289259999525,440.47289259999525,440.52137090003816,440.5215947999968,440.53776440001093,440.53776440001093,440.53776440001093,440.6038215000299,440.9047748000012,,,,,,,,up,3.7748666999978013,None,space,0.35936170001514256,None,,,,,,,,,,,,,,P122,001,2025-02-21_13h23.21.478,posner_endo_new1,2024.2.4,60.05583993266832,2025-02-21 13h23.56.581891 +0000,
cube_r.png,0.1,-0.31,invalid,33,33,0,up,2.120777000032831,None,space,0.3744938999880105,None,,,,,0,33,33,33,,,,,440.92066220002016,,,,,,,,,,,,,440.9049468000303,440.92066220002016,440.92066220002016,440.92066220002016,443.05264030001126,,,,443.0587164000026,443.07035120000364,443.07035120000364,443.11849439999787,443.1187257000129,443.13487360003637,443.13487360003637,443.13487360003637,443.2016635000473,443.5181921000476,,,,,,,,up,2.120777000032831,None,space,0.3744938999880105,None,,,,,,,,,,,,,,P122,001,2025-02-21_13h23.21.478,posner_endo_new1,2024.2.4,60.05583993266832,2025-02-21 13h23.56.581891 +0000,
cube_r.png,0.1,10,catch,34,34,0,up,1.5316633000038564,None,None,,,,,,,0,34,34,34,,,,,443.5345750999986,,,,,,,,,,,,,443.51836480002385,443.5345750999986,443.5345750999986,443.5345750999986,445.0671511000255,,,,445.0730997000355,445.0851949000498,445.0851949000498,445.13305040000705,445.13327600003686,445.149449700024,445.149449700024,445.149449700024,445.2327494000201,448.1471219000523,,,,447.2476094000158,448.1631463000085,448.1631463000085,448.1631463000085,up,1.5316633000038564,None,None,,,,,,,,,,,,,,,,P122,001,2025-02-21_13h23.21.478,posner_endo_new1,2024.2.4,60.05583993266832,2025-02-21 13h23.56.581891 +0000,
cube_r.png,0.1,0.31,valid,35,35,0,up,0.1737911999807693,None,space,0.3506368999951519,None,,,,,0,35,35,35,,,,,448.1631463000085,,,,,,,,,,,,,448.14728110004216,448.1631463000085,448.1631463000085,448.1631463000085,448.34694640000816,,,,448.352964300022,448.36446380004054,448.36446380004054,448.4129329000134,448.4131619000109,448.4295289000147,448.4295289000147,448.4295289000147,448.49612490000436,448.7966103000217,,,,,,,,up,0.1737911999807693,None,space,0.3506368999951519,None,,,,,,,,,,,,,,P122,001,2025-02-21_13h23.21.478,posner_endo_new1,2024.2.4,60.05583993266832,2025-02-21 13h23.56.581891 +0000,
cube_r.png,0.1,-0.31,invalid,36,36,0,up,5.5732359000248834,None,space,0.3721897000214085,None,,,,,0,36,36,36,,,,,448.81240670004627,,,,,,,,,,,,,448.7967806000379,448.81240670004627,448.81240670004627,448.81240670004627,454.39085409999825,,,,454.39694659999805,454.40859960002126,454.40859960002126,454.45694860001095,454.45717110001715,454.4736078000278,454.4736078000278,454.4736078000278,454.53995960002067,454.85689340002136,,,,,,,,up,5.5732359000248834,None,space,0.3721897000214085,None,,,,,,,,,,,,,,P122,001,2025-02-21_13h23.21.478,posner_endo_new1,2024.2.4,60.05583993266832,2025-02-21 13h23.56.581891 +0000,
cube_l.png,0.1,0.31,invalid,37,37,0,up,15.96835729997838,None,space,0.39612699998542666,None,,,,,0,37,37,37,,,,,454.87299890001304,,,,,,,,,,,,,454.8570724000456,454.87299890001304,454.87299890001304,454.87299890001304,470.85720670002047,,,,470.8632831000141,470.874952400045,470.874952400045,470.9234326000442,470.92365750001045,470.9398648000206,470.9398648000206,470.9398648000206,471.0066420000512,471.3404407000053,,,,,,,,up,15.96835729997838,None,space,0.39612699998542666,None,,,,,,,,,,,,,,P122,001,2025-02-21_13h23.21.478,posner_endo_new1,2024.2.4,60.05583993266832,2025-02-21 13h23.56.581891 +0000,
cube_l.png,0.1,0.31,invalid,38,38,0,up,7.548934299964458,None,space,1.5630662000039592,None,,,,,0,38,38,38,,,,,471.3562734000152,,,,,,,,,,,,,471.3406154999975,471.3562734000152,471.3562734000152,471.3562734000152,478.9155430000392,,,,478.92161740001757,478.9331757000182,478.9331757000182,478.98166550003225,478.98189580003964,478.99828040000284,478.99828040000284,478.99828040000284,479.0648862000089,480.56409960001474,,,,,,,,up,7.548934299964458,None,space,1.5630662000039592,None,,,,,,,,,,,,,,P122,001,2025-02-21_13h23.21.478,posner_endo_new1,2024.2.4,60.05583993266832,2025-02-21 13h23.56.581891 +0000,
cube_r.png,0.1,0.31,valid,39,39,0,up,1.8533897000015713,None,space,0.894795999978669,None,,,,,0,39,39,39,,,,,480.57997220003745,,,,,,,,,,,,,480.5642689000233,480.57997220003745,480.57997220003745,480.57997220003745,482.44562930002576,,,,482.4516207000124,482.4634019000223,482.4634019000223,482.5116598000168,482.51188140001614,482.5282961000339,482.5282961000339,482.5282961000339,482.5943365000421,483.42845040000975,,,,,,,,up,1.8533897000015713,None,space,0.894795999978669,None,,,,,,,,,,,,,,P122,001,2025-02-21_13h23.21.478,posner_endo_new1,2024.2.4,60.05583993266832,2025-02-21 13h23.56.581891 +0000,
cube_l.png,0.1,0.31,invalid,40,40,0,up,2.3650303999893367,None,space,0.428528800024651,None,,,,,0,40,40,40,,,,,483.444473200012,,,,,,,,,,,,,483.42862090002745,483.444473200012,483.444473200012,483.444473200012,485.82551690004766,,,,485.8315920000314,485.8433927000151,485.8433927000151,485.89150870003505,485.89173710002797,485.9079501000233,485.9079501000233,485.9079501000233,485.9907867000438,486.3417346000206,,,,,,,,up,2.3650303999893367,None,space,0.428528800024651,None,,,,,,,,,,,,,,P122,001,2025-02-21_13h23.21.478,posner_endo_new1,2024.2.4,60.05583993266832,2025-02-21 13h23.56.581891 +0000,
cube_l.png,0.1,10,catch,41,41,0,up,5.531743500032462,None,None,,,,,,,0,41,41,41,,,,,486.3575155000435,,,,,,,,,,,,,486.34190270002,486.3575155000435,486.3575155000435,486.3575155000435,491.9026809000061,,,,491.91550060000736,491.92556920001516,491.92556920001516,491.968246000004,491.96850980003364,491.98491540004034,491.98491540004034,491.98491540004034,492.06804570002714,494.9825546000502,,,,494.08257240004605,494.9984124000184,494.9984124000184,494.9984124000184,up,5.531743500032462,None,None,,,,,,,,,,,,,,,,P122,001,2025-02-21_13h23.21.478,posner_endo_new1,2024.2.4,60.05583993266832,2025-02-21 13h23.56.581891 +0000,
cube_l.png,0.1,-0.31,valid,42,42,0,up,3.8114521000534296,None,space,0.42473069997504354,None,,,,,0,42,42,42,,,,,494.9984124000184,,,,,,,,,,,,,494.98274900001707,494.9984124000184,494.9984124000184,494.9984124000184,498.8119631000445,,,,498.8198395000072,498.83113130001584,498.83113130001584,498.87778949999483,498.87805160001153,498.8948073000065,498.8948073000065,498.8948073000065,498.9614335000515,499.32811120001134,,,,,,,,up,3.8114521000534296,None,space,0.42473069997504354,None,,,,,,,,,,,,,,P122,001,2025-02-21_13h23.21.478,posner_endo_new1,2024.2.4,60.05583993266832,2025-02-21 13h23.56.581891 +0000,
cube_l.png,0.1,10,catch,43,43,0,up,5.969538900011685,None,None,,,,,,,0,43,43,43,,,,,499.3442374000442,,,,,,,,,,,,,499.32831450004596,499.3442374000442,499.3442374000442,499.3442374000442,505.3219017999945,,,,505.3298189000343,505.34113110002363,505.34113110002363,505.3884132000385,505.38867539999774,505.40429620002396,505.40429620002396,505.40429620002396,505.4876176000107,508.402284300013,,,,507.5022263000137,508.4183139000088,508.4183139000088,508.4183139000088,up,5.969538900011685,None,None,,,,,,,,,,,,,,,,P122,001,2025-02-21_13h23.21.478,posner_endo_new1,2024.2.4,60.05583993266832,2025-02-21 13h23.56.581891 +0000,
cube_l.png,0.1,0.31,invalid,44,44,0,up,4.439468199969269,None,space,0.3858417000155896,None,,,,,0,44,44,44,,,,,508.4183139000088,,,,,,,,,,,,,508.4024788000388,508.4183139000088,508.4183139000088,508.4183139000088,512.8646395000396,,,,512.8725324000116,512.8834698999999,512.8834698999999,512.9302306000027,512.930492000014,512.9468330999953,512.9468330999953,512.9468330999953,513.0302482999978,513.3470604000031,,,,,,,,up,4.439468199969269,None,space,0.3858417000155896,None,,,,,,,,,,,,,,P122,001,2025-02-21_13h23.21.478,posner_endo_new1,2024.2.4,60.05583993266832,2025-02-21 13h23.56.581891 +0000,
cube_l.png,0.1,0.31,invalid,45,45,0,up,9.951154600013979,None,space,0.3768645999953151,None,,,,,0,45,45,45,,,,,513.3630735000479,,,,,,,,,,,,,513.3472763000173,513.3630735000479,513.3630735000479,513.3630735000479,523.3207821000251,,,,523.3286770000122,523.3392881000182,523.3392881000182,523.3860968000372,523.3863661000505,523.4026601000223,523.4026601000223,523.4026601000223,523.4860041000065,523.7867730000289,,,,,,,,up,9.951154600013979,None,space,0.3768645999953151,None,,,,,,,,,,,,,,P122,001,2025-02-21_13h23.21.478,posner_endo_new1,2024.2.4,60.05583993266832,2025-02-21 13h23.56.581891 +0000,
cube_r.png,0.1,0.31,valid,46,46,0,up,9.791391199978534,None,space,0.46169550000922754,None,,,,,0,46,46,46,,,,,523.8024045000202,,,,,,,,,,,,,523.7869782000198,523.8024045000202,523.8024045000202,523.8024045000202,533.6100675000343,,,,533.6179238000186,533.6288966000429,533.6288966000429,533.6759465000359,533.6762070000404,533.6920988000347,533.6920988000347,533.6920988000347,533.7757949000224,534.1592770999996,,,,,,,,up,9.791391199978534,None,space,0.46169550000922754,None,,,,,,,,,,,,,,P122,001,2025-02-21_13h23.21.478,posner_endo_new1,2024.2.4,60.05583993266832,2025-02-21 13h23.56.581891 +0000,
cube_l.png,0.1,-0.31,valid,47,47,0,up,8.978502699988894,None,space,0.7806438999832608,None,,,,,0,47,47,47,,,,,534.1751853000023,,,,,,,,,,,,,534.1594837000011,534.1751853000023,534.1751853000023,534.1751853000023,543.1670639000367,,,,543.174907800043,543.1857599000214,543.1857599000214,543.2328791000182,543.2331430000486,543.24915410002,543.24915410002,543.24915410002,543.3323120000423,544.0326067000278,,,,,,,,up,8.978502699988894,None,space,0.7806438999832608,None,,,,,,,,,,,,,,P122,001,2025-02-21_13h23.21.478,posner_endo_new1,2024.2.4,60.05583993266832,2025-02-21 13h23.56.581891 +0000,
cube_r.png,0.1,-0.31,invalid,48,48,0,up,11.56880429998273,None,space,0.3331045000231825,None,,,,,0,48,48,48,,,,,544.0485919000348,,,,,,,,,,,,,544.0327771000448,544.0485919000348,544.0485919000348,544.0485919000348,555.6210190000129,,,,555.6270449000294,555.6387263000361,555.6387263000361,555.6867498000502,555.6869721999974,555.7033973000362,555.7033973000362,555.7033973000362,555.7866782000056,556.0372367000091,,,,,,,,up,11.56880429998273,None,space,0.3331045000231825,None,,,,,,,,,,,,,,P122,001,2025-02-21_13h23.21.478,posner_endo_new1,2024.2.4,60.05583993266832,2025-02-21 13h23.56.581891 +0000,
cube_r.png,0.1,10,catch,49,49,0,up,6.261005600041244,None,None,,,,,,,0,49,49,49,,,,,556.0530710000312,,,,,,,,,,,,,556.0374070000253,556.0530710000312,556.0530710000312,556.0530710000312,562.3308651000261,,,,562.3370191000286,562.3489128000219,562.3489128000219,562.3968114000163,562.3970353000332,562.4131926000118,562.4131926000118,562.4131926000118,562.4961091000005,565.4107255000272,,,,564.5108886000235,565.4267988000065,565.4267988000065,565.4267988000065,up,6.261005600041244,None,None,,,,,,,,,,,,,,,,P122,001,2025-02-21_13h23.21.478,posner_endo_new1,2024.2.4,60.05583993266832,2025-02-21 13h23.56.581891 +0000,
cube_l.png,0.1,-0.31,valid,50,50,0,up,2.303168900019955,None,space,0.3927374000195414,None,,,,,0,50,50,50,,,,,565.4267988000065,,,,,,,,,,,,,565.4108842000132,565.4267988000065,565.4267988000065,565.4267988000065,567.7414351000334,,,,567.7474321000045,567.759085000027,567.759085000027,567.8076925000059,567.8079141000053,567.8241362000117,567.8241362000117,567.8241362000117,567.8910383000039,568.2246281999978,,,,,,,,up,2.303168900019955,None,space,0.3927374000195414,None,,,,,,,,,,,,,,P122,001,2025-02-21_13h23.21.478,posner_endo_new1,2024.2.4,60.05583993266832,2025-02-21 13h23.56.581891 +0000,
cube_l.png,0.1,-0.31,valid,51,51,0,up,6.522205999994185,None,space,0.5061466000042856,None,,,,,0,51,51,51,,,,,568.240067100036,,,,,,,,,,,,,568.2247969000018,568.240067100036,568.240067100036,568.240067100036,574.7679236000404,,,,574.7739647999988,574.7855745000415,574.7855745000415,574.8338980000117,574.8341210000217,574.8505366000463,574.8505366000463,574.8505366000463,574.9171126000001,575.3674096000032,,,,,,,,up,6.522205999994185,None,space,0.5061466000042856,None,,,,,,,,,,,,,,P122,001,2025-02-21_13h23.21.478,posner_endo_new1,2024.2.4,60.05583993266832,2025-02-21 13h23.56.581891 +0000,
cube_r.png,0.1,-0.31,invalid,52,52,0,up,10.058833100018091,None,space,0.4833708999794908,None,,,,,0,52,52,52,,,,,575.3829225000227,,,,,,,,,,,,,575.3675767999957,575.3829225000227,575.3829225000227,575.3829225000227,585.457059700042,,,,585.463082500035,585.4746550000273,585.4746550000273,585.5231746000354,585.523396100034,585.5395495000412,585.5395495000412,585.5395495000412,585.6226488000248,586.0396971000009,,,,,,,,up,10.058833100018091,None,space,0.4833708999794908,None,,,,,,,,,,,,,,P122,001,2025-02-21_13h23.21.478,posner_endo_new1,2024.2.4,60.05583993266832,2025-02-21 13h23.56.581891 +0000,
cube_l.png,0.1,-0.31,valid,53,53,0,up,6.034470600017812,None,space,0.5647299999836832,None,,,,,0,53,53,53,,,,,586.0552943000221,,,,,,,,,,,,,586.0398684000247,586.0552943000221,586.0552943000221,586.0552943000221,592.1003518000362,,,,592.1064504000242,592.1181114000501,592.1181114000501,592.1657357000513,592.1659605000168,592.1826657000347,592.1826657000347,592.1826657000347,592.2660412000259,592.7495843000361,,,,,,,,up,6.034470600017812,None,space,0.5647299999836832,None,,,,,,,,,,,,,,P122,001,2025-02-21_13h23.21.478,posner_endo_new1,2024.2.4,60.05583993266832,2025-02-21 13h23.56.581891 +0000,
cube_r.png,0.1,10,catch,54,54,0,up,10.780510700016748,None,None,,,,,,,0,54,54,54,,,,,592.7655285000219,,,,,,,,,,,,,592.7497530000401,592.7655285000219,592.7655285000219,592.7655285000219,603.5546841000323,,,,603.5607603000244,603.5723281000392,603.5723281000392,603.6210569000104,603.6212814000319,603.6376878000447,603.6376878000447,603.6376878000447,603.7041628000443,606.6350987000042,,,,605.7190708999988,606.6509539000108,606.6509539000108,606.6509539000108,up,10.780510700016748,None,None,,,,,,,,,,,,,,,,P122,001,2025-02-21_13h23.21.478,posner_endo_new1,2024.2.4,60.05583993266832,2025-02-21 13h23.56.581891 +0000,
cube_l.png,0.1,0.31,invalid,55,55,0,up,1.7348173999926075,None,space,0.7321422999957576,None,,,,,0,55,55,55,,,,,606.6509539000108,,,,,,,,,,,,,606.6352624000283,606.6509539000108,606.6509539000108,606.6509539000108,608.4000414000475,,,,608.4060852000257,608.4177592000342,608.4177592000342,608.466188200051,608.4664212000207,608.4826222000411,608.4826222000411,608.4826222000411,608.5493332000333,609.2163858000422,,,,,,,,up,1.7348173999926075,None,space,0.7321422999957576,None,,,,,,,,,,,,,,P122,001,2025-02-21_13h23.21.478,posner_endo_new1,2024.2.4,60.05583993266832,2025-02-21 13h23.56.581891 +0000,
cube_l.png,0.1,-0.31,valid,56,56,0,up,16.99384900002042,None,space,0.4062017999822274,None,,,,,0,56,56,56,,,,,609.2315581000294,,,,,,,,,,,,,609.2165551000508,609.2315581000294,609.2315581000294,609.2315581000294,626.231949100038,,,,626.2379709000234,626.2494790000492,626.2494790000492,626.2980219000019,626.2982448000112,626.3144712000503,626.3144712000503,626.3144712000503,626.3813136999961,626.7309438000084,,,,,,,,up,16.99384900002042,None,space,0.4062017999822274,None,,,,,,,,,,,,,,P122,001,2025-02-21_13h23.21.478,posner_endo_new1,2024.2.4,60.05583993266832,2025-02-21 13h23.56.581891 +0000,
cube_r.png,0.1,0.31,valid,57,57,0,up,1.3268600999726914,None,space,0.4086852999753319,None,,,,,0,57,57,57,,,,,626.7472376000369,,,,,,,,,,,,,626.7311129000154,626.7472376000369,626.7472376000369,626.7472376000369,628.080368200026,,,,628.0864113999996,628.098211100034,628.098211100034,628.1461863000295,628.1464137000148,628.1626540000434,628.1626540000434,628.1626540000434,628.2460210000281,628.5798608000041,,,,,,,,up,1.3268600999726914,None,space,0.4086852999753319,None,,,,,,,,,,,,,,P122,001,2025-02-21_13h23.21.478,posner_endo_new1,2024.2.4,60.05583993266832,2025-02-21 13h23.56.581891 +0000,
cube_r.png,0.1,-0.31,invalid,58,58,0,up,6.214105000020936,None,space,0.3068315999698825,None,,,,,0,58,58,58,,,,,628.5955202000332,,,,,,,,,,,,,628.5800306000165,628.5955202000332,628.5955202000332,628.5955202000332,634.8232803000137,,,,634.82941820001,634.841169500025,634.841169500025,634.8892023000517,634.8894233000465,634.9057138000499,634.9057138000499,634.9057138000499,634.972138400015,635.2229908000445,,,,,,,,up,6.214105000020936,None,space,0.3068315999698825,None,,,,,,,,,,,,,,P122,001,2025-02-21_13h23.21.478,posner_endo_new1,2024.2.4,60.05583993266832,2025-02-21 13h23.56.581891 +0000,
cube_l.png,0.1,0.31,invalid,59,59,0,up,6.155383999983314,None,space,0.4643202000297606,None,,,,,0,59,59,59,,,,,635.2388682000455,,,,,,,,,,,,,635.2231580000371,635.2388682000455,635.2388682000455,635.2388682000455,641.3994154999964,,,,641.4055604000459,641.4171792000416,641.4171792000416,641.465794800024,641.4660182000371,641.4823218000238,641.4823218000238,641.4823218000238,641.5490921000019,641.9493590000202,,,,,,,,up,6.155383999983314,None,space,0.4643202000297606,None,,,,,,,,,,,,,,P122,001,2025-02-21_13h23.21.478,posner_endo_new1,2024.2.4,60.05583993266832,2025-02-21 13h23.56.581891 +0000,
,,,,,,,,,,,,,,,,,,,,,,,,,,,,,,,,,,,,,,,,,,,,,,,,,,,,,,,,,,,,,,,,,,,,,641.9494728000136,641.9652285000193,641.9652285000193,656.4008088000119,space,14.42192019999493,None,,,,,,,P122,001,2025-02-21_13h23.21.478,posner_endo_new1,2024.2.4,60.05583993266832,2025-02-21 13h23.56.581891 +0000,
,,,,,,,,,,,,,,,,,,,,,,,,,,,,,,,,,,656.4008568000281,656.4170644000405,659.4182495000423,659.3978988000308,,,,,,,,,,,,,,,,,,,,,,,,,,,,,,,,,,,,,,,,,,,,,P122,001,2025-02-21_13h23.21.478,posner_endo_new1,2024.2.4,60.05583993266832,2025-02-21 13h23.56.581891 +0000,
cube_l.png,0.1,10,catch,0,0,0,down,47.175510800036136,None,None,,,,,,,,,,,0,0,0,0,659.4182495000423,,,,,,,,,,,,,659.4095380000072,659.4182495000423,659.4182495000423,659.4182495000423,706.6000112000038,,,,706.6064507000265,706.6184574000072,706.6184574000072,706.6657712000306,706.6659996000235,706.6825642000185,706.6825642000185,706.6825642000185,706.7490197000443,709.6800594000379,,,,708.763478000008,709.6960472000064,709.6960472000064,709.6960472000064,,,,,,,,,,,,,,down,47.175510800036136,None,None,,,P122,001,2025-02-21_13h23.21.478,posner_endo_new1,2024.2.4,60.05583993266832,2025-02-21 13h23.56.581891 +0000,
cube_l.png,0.1,10,catch,1,1,0,down,8.017870899988338,None,None,,,,,,,,,,,0,1,1,1,709.6960472000064,,,,,,,,,,,,,709.6802238000091,709.6960472000064,709.6960472000064,709.6960472000064,717.7220397000201,,,,717.7281136999954,717.7397911000298,717.7397911000298,717.7878844000516,717.7881097000209,717.804248200031,717.804248200031,717.804248200031,717.8877165000304,720.8015809000353,,,,719.9021514000488,720.8181806000066,720.8181806000066,720.8181806000066,,,,,,,,,,,,,,down,8.017870899988338,None,None,,,P122,001,2025-02-21_13h23.21.478,posner_endo_new1,2024.2.4,60.05583993266832,2025-02-21 13h23.56.581891 +0000,
cube_l.png,0.1,0.31,invalid,2,2,0,down,4.688012099999469,None,space,0.3508426999906078,None,,,,,,,,,0,2,2,2,720.8181806000066,,,,,,,,,,,,,720.801743100048,720.8181806000066,720.8181806000066,720.8181806000066,725.5150816999958,,,,725.5339365000254,725.5447224000236,725.5447224000236,725.580002200033,725.5803097000462,725.5961523000151,725.5961523000151,725.5961523000151,725.6794264000491,725.9637476000353,,,,,,,,,,,,,,,,,,,,,down,4.688012099999469,None,space,0.3508426999906078,None,P122,001,2025-02-21_13h23.21.478,posner_endo_new1,2024.2.4,60.05583993266832,2025-02-21 13h23.56.581891 +0000,
cube_l.png,0.1,0.31,invalid,3,3,0,down,13.822976499970537,None,space,0.3907496000174433,None,,,,,,,,,0,3,3,3,725.9793660000432,,,,,,,,,,,,,725.9640056000208,725.9793660000432,725.9793660000432,725.9793660000432,739.8161458999966,,,,739.8259858000092,739.8361525000073,739.8361525000073,739.8816140000126,739.8819171000505,739.8984679999994,739.8984679999994,739.8984679999994,739.9813626999967,740.2987687000423,,,,,,,,,,,,,,,,,,,,,down,13.822976499970537,None,space,0.3907496000174433,None,P122,001,2025-02-21_13h23.21.478,posner_endo_new1,2024.2.4,60.05583993266832,2025-02-21 13h23.56.581891 +0000,
cube_l.png,0.1,-0.31,valid,4,4,0,down,4.287841099954676,None,space,0.3558399999747053,None,,,,,,,,,0,4,4,4,740.3144567999989,,,,,,,,,,,,,740.2990259000217,740.3144567999989,740.3144567999989,740.3144567999989,744.6109825000167,,,,744.6206583000021,744.6308755000355,744.6308755000355,744.6770990000223,744.6774055000278,744.6932750000269,744.6932750000269,744.6932750000269,744.7768672000384,745.0607628000434,,,,,,,,,,,,,,,,,,,,,down,4.287841099954676,None,space,0.3558399999747053,None,P122,001,2025-02-21_13h23.21.478,posner_endo_new1,2024.2.4,60.05583993266832,2025-02-21 13h23.56.581891 +0000,
cube_r.png,0.1,-0.31,invalid,5,5,0,down,10.807025099988095,None,space,0.4373518000356853,None,,,,,,,,,0,5,5,5,745.0765047000023,,,,,,,,,,,,,745.0610189000145,745.0765047000023,745.0765047000023,745.0765047000023,755.8995516000432,,,,755.9092319000047,755.9192077000043,755.9192077000043,755.9652345000068,755.9655413000146,755.9819639000343,755.9819639000343,755.9819639000343,756.0650448000524,756.4324154000496,,,,,,,,,,,,,,,,,,,,,down,10.807025099988095,None,space,0.4373518000356853,None,P122,001,2025-02-21_13h23.21.478,posner_endo_new1,2024.2.4,60.05583993266832,2025-02-21 13h23.56.581891 +0000,
cube_r.png,0.1,0.31,valid,6,6,0,down,4.842153100005817,None,space,0.4053332000039518,None,,,,,,,,,0,6,6,6,756.4479845000315,,,,,,,,,,,,,756.4326673000469,756.4479845000315,756.4479845000315,756.4479845000315,761.2941336000222,,,,761.3038985000458,761.3140557000297,761.3140557000297,761.3599378000363,761.3602554000099,761.376518700039,761.376518700039,761.376518700039,761.4598415000364,761.7937063000281,,,,,,,,,,,,,,,,,,,,,down,4.842153100005817,None,space,0.4053332000039518,None,P122,001,2025-02-21_13h23.21.478,posner_endo_new1,2024.2.4,60.05583993266832,2025-02-21 13h23.56.581891 +0000,
cube_r.png,0.1,-0.31,invalid,7,7,0,down,7.576489600003697,None,space,0.4901679999893531,None,,,,,,,,,0,7,7,7,761.8094771000324,,,,,,,,,,,,,761.7939624999999,761.8094771000324,761.8094771000324,761.8094771000324,769.4023240000242,,,,769.4120462000137,769.4220245000324,769.4220245000324,769.4684658000479,769.4687694000313,769.4845843000221,769.4845843000221,769.4845843000221,769.5514639000176,769.985389700043,,,,,,,,,,,,,,,,,,,,,down,7.576489600003697,None,space,0.4901679999893531,None,P122,001,2025-02-21_13h23.21.478,posner_endo_new1,2024.2.4,60.05583993266832,2025-02-21 13h23.56.581891 +0000,
cube_l.png,0.1,-0.31,valid,8,8,0,down,2.577104500029236,None,space,0.396227799996268,None,,,,,,,,,0,8,8,8,770.0010203000274,,,,,,,,,,,,,769.9856412000372,770.0010203000274,770.0010203000274,770.0010203000274,772.5828164000413,,,,772.5926106999977,772.6027498000185,772.6027498000185,772.6485119000426,772.6488156000269,772.6648549000383,772.6648549000383,772.6648549000383,772.748342100007,773.0653262000415,,,,,,,,,,,,,,,,,,,,,down,2.577104500029236,None,space,0.396227799996268,None,P122,001,2025-02-21_13h23.21.478,posner_endo_new1,2024.2.4,60.05583993266832,2025-02-21 13h23.56.581891 +0000,
cube_r.png,0.1,-0.31,invalid,9,9,0,down,6.953439800010528,None,space,0.3466863000066951,None,,,,,,,,,0,9,9,9,773.0809872000245,,,,,,,,,,,,,773.0655778000364,773.0809872000245,773.0809872000245,773.0809872000245,780.0414452000405,,,,780.0511014000513,780.0613180000219,780.0613180000219,780.1073001000332,780.1076054000296,780.1239471000154,780.1239471000154,780.1239471000154,780.2073123000446,780.4744169000187,,,,,,,,,,,,,,,,,,,,,down,6.953439800010528,None,space,0.3466863000066951,None,P122,001,2025-02-21_13h23.21.478,posner_endo_new1,2024.2.4,60.05583993266832,2025-02-21 13h23.56.581891 +0000,
cube_l.png,0.1,0.31,invalid,10,10,0,down,4.007914299960248,None,space,0.3909640000201762,None,,,,,,,,,0,10,10,10,780.4903204000439,,,,,,,,,,,,,780.4746751000057,780.4903204000439,780.4903204000439,780.4903204000439,784.5039967000484,,,,784.5137477000244,784.5239155000309,784.5239155000309,784.5696717000101,784.5699721000274,784.5860554000246,784.5860554000246,784.5860554000246,784.6691596000455,784.9866873000283,,,,,,,,,,,,,,,,,,,,,down,4.007914299960248,None,space,0.3909640000201762,None,P122,001,2025-02-21_13h23.21.478,posner_endo_new1,2024.2.4,60.05583993266832,2025-02-21 13h23.56.581891 +0000,
cube_r.png,0.1,-0.31,invalid,11,11,0,down,4.447820600005798,None,space,0.4592179000028409,None,,,,,,,,,0,11,11,11,785.00220550003,,,,,,,,,,,,,784.9869412000407,785.00220550003,785.00220550003,785.00220550003,789.4651322000427,,,,789.4748310000286,789.4850173000013,789.4850173000013,789.5309834000072,789.5312850000337,789.5477912000497,789.5477912000497,789.5477912000497,789.6140102000209,790.014946100011,,,,,,,,,,,,,,,,,,,,,down,4.447820600005798,None,space,0.4592179000028409,None,P122,001,2025-02-21_13h23.21.478,posner_endo_new1,2024.2.4,60.05583993266832,2025-02-21 13h23.56.581891 +0000,
cube_r.png,0.1,0.31,valid,12,12,0,down,3.7802788999979384,None,space,0.37523820000933483,None,,,,,,,,,0,12,12,12,790.0307146999985,,,,,,,,,,,,,790.0152046000003,790.0307146999985,790.0307146999985,790.0307146999985,793.8277536000242,,,,793.837525000039,793.8473873000476,793.8473873000476,793.8935478000203,793.8938583999989,793.9096775000216,793.9096775000216,793.9096775000216,793.9933026000508,794.2937368000275,,,,,,,,,,,,,,,,,,,,,down,3.7802788999979384,None,space,0.37523820000933483,None,P122,001,2025-02-21_13h23.21.478,posner_endo_new1,2024.2.4,60.05583993266832,2025-02-21 13h23.56.581891 +0000,
cube_l.png,0.1,10,catch,13,13,0,down,1.4921883000060916,None,None,,,,,,,,,,,0,13,13,13,794.3095771000371,,,,,,,,,,,,,794.29399440001,794.3095771000371,794.3095771000371,794.3095771000371,795.8088146999944,,,,795.8187560000224,795.8288950000424,795.8288950000424,795.8748238999979,795.8751258000266,795.8909155000001,795.8909155000001,795.8909155000001,795.974529900006,798.8886554000201,,,,797.989109200018,798.9048957000487,798.9048957000487,798.9048957000487,,,,,,,,,,,,,,down,1.4921883000060916,None,None,,,P122,001,2025-02-21_13h23.21.478,posner_endo_new1,2024.2.4,60.05583993266832,2025-02-21 13h23.56.581891 +0000,
cube_r.png,0.1,-0.31,invalid,14,14,0,down,13.464719799987506,None,space,0.3400209000101313,None,,,,,,,,,0,14,14,14,798.9048957000487,,,,,,,,,,,,,798.8889189000474,798.9048957000487,798.9048957000487,798.9048957000487,812.375371400034,,,,812.3852924000239,812.3954765000381,812.3954765000381,812.4409287000308,812.441232800018,812.4574954000418,812.4574954000418,812.4574954000418,812.5406550000189,812.8079881000449,,,,,,,,,,,,,,,,,,,,,down,13.464719799987506,None,space,0.3400209000101313,None,P122,001,2025-02-21_13h23.21.478,posner_endo_new1,2024.2.4,60.05583993266832,2025-02-21 13h23.56.581891 +0000,
cube_l.png,0.1,-0.31,valid,15,15,0,down,4.11445019999519,None,space,0.41588069999124855,None,,,,,,,,,0,15,15,15,812.8237403000239,,,,,,,,,,,,,812.8082420999999,812.8237403000239,812.8237403000239,812.8237403000239,816.9537085000193,,,,816.9632929000072,816.9735422999947,816.9735422999947,817.0197539000073,817.0200561000383,817.0360984000145,817.0360984000145,817.0360984000145,817.1192301000119,817.4535118000349,,,,,,,,,,,,,,,,,,,,,down,4.11445019999519,None,space,0.41588069999124855,None,P122,001,2025-02-21_13h23.21.478,posner_endo_new1,2024.2.4,60.05583993266832,2025-02-21 13h23.56.581891 +0000,
cube_r.png,0.1,10,catch,16,16,0,down,2.9332948999945074,None,None,,,,,,,,,,,0,16,16,16,817.4689978000242,,,,,,,,,,,,,817.4537627000245,817.4689978000242,817.4689978000242,817.4689978000242,820.4169338000356,,,,820.4266390000121,820.4367904000101,820.4367904000101,820.4829038000316,820.4832124999957,820.4992226000177,820.4992226000177,820.4992226000177,820.5825161000248,823.4967507999972,,,,822.5973002000246,823.513030000031,823.513030000031,823.513030000031,,,,,,,,,,,,,,down,2.9332948999945074,None,None,,,P122,001,2025-02-21_13h23.21.478,posner_endo_new1,2024.2.4,60.05583993266832,2025-02-21 13h23.56.581891 +0000,
cube_r.png,0.1,10,catch,17,17,0,down,1.1925697000115179,None,None,,,,,,,,,,,0,17,17,17,823.513030000031,,,,,,,,,,,,,823.4969854000374,823.513030000031,823.513030000031,823.513030000031,824.7125709000393,,,,824.722409900045,824.7324643000029,824.7324643000029,824.7783246000181,824.7786295000114,824.7949261000031,824.7949261000031,824.7949261000031,824.8783441000269,827.7922487000469,,,,826.8926280000014,827.8088256000192,827.8088256000192,827.8088256000192,,,,,,,,,,,,,,down,1.1925697000115179,None,None,,,P122,001,2025-02-21_13h23.21.478,posner_endo_new1,2024.2.4,60.05583993266832,2025-02-21 13h23.56.581891 +0000,
cube_l.png,0.1,0.31,invalid,18,18,0,down,1.3049030999536626,None,space,0.35548969998490065,None,,,,,,,,,0,18,18,18,827.8088256000192,,,,,,,,,,,,,827.7924875000026,827.8088256000192,827.8088256000192,827.8088256000192,829.1249028000166,,,,829.134520600026,829.1446748000453,829.1446748000453,829.190740799997,829.1910456000478,829.2072040000348,829.2072040000348,829.2072040000348,829.2901446000324,829.5747820000397,,,,,,,,,,,,,,,,,,,,,down,1.3049030999536626,None,space,0.35548969998490065,None,P122,001,2025-02-21_13h23.21.478,posner_endo_new1,2024.2.4,60.05583993266832,2025-02-21 13h23.56.581891 +0000,
cube_l.png,0.1,10,catch,19,19,0,down,3.124194400035776,None,None,,,,,,,,,,,0,19,19,19,829.5900733000017,,,,,,,,,,,,,829.5750361999962,829.5900733000017,829.5900733000017,829.5900733000017,832.7213938000496,,,,832.7310691000312,832.7410684000351,832.7410684000351,832.7870791000314,832.78738600004,832.803427900013,832.803427900013,832.803427900013,832.8867312000366,835.8011932999943,,,,834.9012344000512,835.8169809000101,835.8169809000101,835.8169809000101,,,,,,,,,,,,,,down,3.124194400035776,None,None,,,P122,001,2025-02-21_13h23.21.478,posner_endo_new1,2024.2.4,60.05583993266832,2025-02-21 13h23.56.581891 +0000,
cube_l.png,0.1,0.31,invalid,20,20,0,down,6.176867500005756,None,space,0.40172580000944436,None,,,,,,,,,0,20,20,20,835.8169809000101,,,,,,,,,,,,,835.8014394000056,835.8169809000101,835.8169809000101,835.8169809000101,841.9953007000149,,,,842.0050768000074,842.0151605000137,842.0151605000137,842.0606051000068,842.0609144000337,842.0773298999993,842.0773298999993,842.0773298999993,842.1606124000391,842.4948161000502,,,,,,,,,,,,,,,,,,,,,down,6.176867500005756,None,space,0.40172580000944436,None,P122,001,2025-02-21_13h23.21.478,posner_endo_new1,2024.2.4,60.05583993266832,2025-02-21 13h23.56.581891 +0000,
cube_l.png,0.1,-0.31,valid,21,21,0,down,9.243771499954164,None,space,0.3359616000088863,None,,,,,,,,,0,21,21,21,842.5100654000416,,,,,,,,,,,,,842.4950828000437,842.5100654000416,842.5100654000416,842.5100654000416,851.7683920999989,,,,851.7791517000296,851.7889601000352,851.7889601000352,851.8343598000356,851.8346081000054,851.8506958000362,851.8506958000362,851.8506958000362,851.9339701000135,852.2014155000215,,,,,,,,,,,,,,,,,,,,,down,9.243771499954164,None,space,0.3359616000088863,None,P122,001,2025-02-21_13h23.21.478,posner_endo_new1,2024.2.4,60.05583993266832,2025-02-21 13h23.56.581891 +0000,
cube_r.png,0.1,0.31,valid,22,22,0,down,13.673101800028235,None,space,0.515046899963636,None,,,,,,,,,0,22,22,22,852.2171390000149,,,,,,,,,,,,,852.2016143000219,852.2171390000149,852.2171390000149,852.2171390000149,865.9036450000131,,,,865.9110872000456,865.922868900001,865.922868900001,865.9699581000023,865.9702063000295,865.9865027000196,865.9865027000196,865.9865027000196,866.05297780002,866.5029123999993,,,,,,,,,,,,,,,,,,,,,down,13.673101800028235,None,space,0.515046899963636,None,P122,001,2025-02-21_13h23.21.478,posner_endo_new1,2024.2.4,60.05583993266832,2025-02-21 13h23.56.581891 +0000,
cube_r.png,0.1,-0.31,invalid,23,23,0,down,1.6436987000051886,None,space,0.663528100005351,None,,,,,,,,,0,23,23,23,866.51900140004,,,,,,,,,,,,,866.5031085000373,866.51900140004,866.51900140004,866.51900140004,868.1678538999986,,,,868.175222400052,868.1869838000275,868.1869838000275,868.233724699996,868.2339767999947,868.2502841000096,868.2502841000096,868.2502841000096,868.3172877000179,868.9176644000108,,,,,,,,,,,,,,,,,,,,,down,1.6436987000051886,None,space,0.663528100005351,None,P122,001,2025-02-21_13h23.21.478,posner_endo_new1,2024.2.4,60.05583993266832,2025-02-21 13h23.56.581891 +0000,
cube_r.png,0.1,0.31,valid,24,24,0,down,1.7404220000025816,None,space,0.39063949999399483,None,,,,,,,,,0,24,24,24,868.9332916000276,,,,,,,,,,,,,868.9178686000523,868.9332916000276,868.9332916000276,868.9332916000276,870.6822982000303,,,,870.6895981000271,870.7012606000062,870.7012606000062,870.7479169000289,870.7481679000193,870.7647707000142,870.7647707000142,870.7647707000142,870.8479863000102,871.1651783999987,,,,,,,,,,,,,,,,,,,,,down,1.7404220000025816,None,space,0.39063949999399483,None,P122,001,2025-02-21_13h23.21.478,posner_endo_new1,2024.2.4,60.05583993266832,2025-02-21 13h23.56.581891 +0000,
cube_r.png,0.1,-0.31,invalid,25,25,0,down,8.005033799970988,None,space,0.3834674999816343,None,,,,,,,,,0,25,25,25,871.1809325000504,,,,,,,,,,,,,871.1653772999998,871.1809325000504,871.1809325000504,871.1809325000504,879.1899470000062,,,,879.1973194000311,879.2089650999987,879.2089650999987,879.2562373999972,879.256484100013,879.2728683000314,879.2728683000314,879.2728683000314,879.3389756000252,879.6731891999952,,,,,,,,,,,,,,,,,,,,,down,8.005033799970988,None,space,0.3834674999816343,None,P122,001,2025-02-21_13h23.21.478,posner_endo_new1,2024.2.4,60.05583993266832,2025-02-21 13h23.56.581891 +0000,
cube_l.png,0.1,-0.31,valid,26,26,0,down,2.121441399969626,None,space,0.6787044999655336,None,,,,,,,,,0,26,26,26,879.6885601000395,,,,,,,,,,,,,879.6733879999956,879.6885601000395,879.6885601000395,879.6885601000395,881.8210841999971,,,,881.8283592000371,881.8397873000358,881.8397873000358,881.8868525000289,881.8870999000501,881.9032657000353,881.9032657000353,881.9032657000353,881.986678300018,882.5868945000111,,,,,,,,,,,,,,,,,,,,,down,2.121441399969626,None,space,0.6787044999655336,None,P122,001,2025-02-21_13h23.21.478,posner_endo_new1,2024.2.4,60.05583993266832,2025-02-21 13h23.56.581891 +0000,
cube_r.png,0.1,0.31,valid,27,27,0,down,16.375157799979206,None,space,0.37543559999903664,None,,,,,,,,,0,27,27,27,882.6026893000235,,,,,,,,,,,,,882.5871032000287,882.6026893000235,882.6026893000235,882.6026893000235,898.9863302000449,,,,898.9937064000405,899.0055696000345,899.0055696000345,899.0527608999982,899.0530069000088,899.0687766000046,899.0687766000046,899.0687766000046,899.1354021000443,899.4530299000326,,,,,,,,,,,,,,,,,,,,,down,16.375157799979206,None,space,0.37543559999903664,None,P122,001,2025-02-21_13h23.21.478,posner_endo_new1,2024.2.4,60.05583993266832,2025-02-21 13h23.56.581891 +0000,
cube_r.png,0.1,10,catch,28,28,0,down,5.902070900017861,None,space,0.38988430000608787,None,,,,,,,,,0,28,28,28,899.4684299000073,,,,,,,,,,,,,899.453227400023,899.4684299000073,899.4684299000073,899.4684299000073,905.3799103000201,,,,905.3872793000191,905.3990178999957,905.3990178999957,905.4463086000178,905.4465574000496,905.4625438000076,905.4625438000076,905.4625438000076,905.5294277000357,905.8630919000134,,,,,,,,,,,,,,,,,,,,,down,5.902070900017861,None,space,0.38988430000608787,None,P122,001,2025-02-21_13h23.21.478,posner_endo_new1,2024.2.4,60.05583993266832,2025-02-21 13h23.56.581891 +0000,
cube_r.png,0.1,0.31,valid,29,29,0,down,12.235128000029363,None,space,0.3965422000037506,None,,,,,,,,,0,29,29,29,905.8789755000034,,,,,,,,,,,,,905.8632890000008,905.8789755000034,905.8789755000034,905.8789755000034,918.1173343000119,,,,918.1246939999983,918.135946800001,918.135946800001,918.1830134000047,918.1832658000058,918.199732100009,918.199732100009,918.199732100009,918.28242090001,918.599996600009,,,,,,,,,,,,,,,,,,,,,down,12.235128000029363,None,space,0.3965422000037506,None,P122,001,2025-02-21_13h23.21.478,posner_endo_new1,2024.2.4,60.05583993266832,2025-02-21 13h23.56.581891 +0000,
cube_r.png,0.1,0.31,valid,30,30,0,down,1.6907735000131652,None,space,0.41882399999303743,None,,,,,,,,,0,30,30,30,918.615456700034,,,,,,,,,,,,,918.6002001000452,918.615456700034,918.615456700034,918.615456700034,920.3150228000013,,,,920.3223387000035,920.3451191000058,920.3451191000058,920.3806206000154,920.3808726000134,920.3975222000154,920.3975222000154,920.3975222000154,920.4802523000399,920.830749500019,,,,,,,,,,,,,,,,,,,,,down,1.6907735000131652,None,space,0.41882399999303743,None,P122,001,2025-02-21_13h23.21.478,posner_endo_new1,2024.2.4,60.05583993266832,2025-02-21 13h23.56.581891 +0000,
cube_l.png,0.1,-0.31,valid,31,31,0,down,4.435651200008579,None,space,0.5642833999590948,None,,,,,,,,,0,31,31,31,920.8469789000228,,,,,,,,,,,,,920.8309465000057,920.8469789000228,920.8469789000228,920.8469789000228,925.2928674000432,,,,925.300260100048,925.3120705000474,925.3120705000474,925.3590579000302,925.3593131999951,925.3753255000338,925.3753255000338,925.3753255000338,925.4417943000444,925.9423260000185,,,,,,,,,,,,,,,,,,,,,down,4.435651200008579,None,space,0.5642833999590948,None,P122,001,2025-02-21_13h23.21.478,posner_endo_new1,2024.2.4,60.05583993266832,2025-02-21 13h23.56.581891 +0000,
cube_r.png,0.1,0.31,valid,32,32,0,down,5.803761599992868,None,space,0.26452060003066435,None,,,,,,,,,0,32,32,32,925.9584143999964,,,,,,,,,,,,,925.9425349000376,925.9584143999964,925.9584143999964,925.9584143999964,931.7701703000348,,,,931.7775307000265,931.7886348000029,931.7886348000029,931.8357335000183,931.8359808000387,931.8522811000003,931.8522811000003,931.8522811000003,931.9354942000355,932.1196950000012,,,,,,,,,,,,,,,,,,,,,down,5.803761599992868,None,space,0.26452060003066435,None,P122,001,2025-02-21_13h23.21.478,posner_endo_new1,2024.2.4,60.05583993266832,2025-02-21 13h23.56.581891 +0000,
cube_r.png,0.1,-0.31,invalid,33,33,0,down,4.259315700037405,None,space,0.34480770002119243,None,,,,,,,,,0,33,33,33,932.1350689000101,,,,,,,,,,,,,932.1199027000112,932.1350689000101,932.1350689000101,932.1350689000101,936.3982053000364,,,,936.4055639000144,936.4172530000214,936.4172530000214,936.4639833000256,936.4642297000391,936.480903000047,936.480903000047,936.480903000047,936.5473908000276,936.831171900034,,,,,,,,,,,,,,,,,,,,,down,4.259315700037405,None,space,0.34480770002119243,None,P122,001,2025-02-21_13h23.21.478,posner_endo_new1,2024.2.4,60.05583993266832,2025-02-21 13h23.56.581891 +0000,
cube_r.png,0.1,10,catch,34,34,0,down,8.675888900004793,None,None,,,,,,,,,,,0,34,34,34,936.8473538000253,,,,,,,,,,,,,936.8313696000259,936.8473538000253,936.8473538000253,936.8473538000253,945.5388431000174,,,,945.5462226000382,945.557937000005,945.557937000005,945.6046451000147,945.6048999000341,945.6213935000123,945.6213935000123,945.6213935000123,945.6881763000274,948.6191208999953,,,,947.7025700000231,948.6351708000293,948.6351708000293,948.6351708000293,,,,,,,,,,,,,,down,8.675888900004793,None,None,,,P122,001,2025-02-21_13h23.21.478,posner_endo_new1,2024.2.4,60.05583993266832,2025-02-21 13h23.56.581891 +0000,
cube_r.png,0.1,0.31,valid,35,35,0,down,3.3507756000035442,None,space,0.40168439998524264,None,,,,,,,,,0,35,35,35,948.6351708000293,,,,,,,,,,,,,948.6192825000035,948.6351708000293,948.6351708000293,948.6351708000293,951.9993224000209,,,,952.0078011000296,952.0179319000454,952.0179319000454,952.06489160005,952.06520740001,952.081597100012,952.081597100012,952.081597100012,952.1646161000244,952.4986009999993,,,,,,,,,,,,,,,,,,,,,down,3.3507756000035442,None,space,0.40168439998524264,None,P122,001,2025-02-21_13h23.21.478,posner_endo_new1,2024.2.4,60.05583993266832,2025-02-21 13h23.56.581891 +0000,
cube_r.png,0.1,-0.31,invalid,36,36,0,down,16.279923099966254,None,space,0.3895683999871835,None,,,,,,,,,0,36,36,36,952.5146612999961,,,,,,,,,,,,,952.4988604999962,952.5146612999961,952.5146612999961,952.5146612999961,968.7986448000302,,,,968.8071546000428,968.8174409000203,968.8174409000203,968.8647709000506,968.8650967000285,968.8812407000223,968.8812407000223,968.8812407000223,968.9644529000507,969.2815267000115,,,,,,,,,,,,,,,,,,,,,down,16.279923099966254,None,space,0.3895683999871835,None,P122,001,2025-02-21_13h23.21.478,posner_endo_new1,2024.2.4,60.05583993266832,2025-02-21 13h23.56.581891 +0000,
cube_l.png,0.1,0.31,invalid,37,37,0,down,2.0888491999940015,None,space,0.45566019997932017,None,,,,,,,,,0,37,37,37,969.297427500016,,,,,,,,,,,,,969.281785500003,969.297427500016,969.297427500016,969.297427500016,971.3959844000055,,,,971.4055841000518,971.415722500009,971.415722500009,971.4617121000192,971.4620162000065,971.4786232000333,971.4786232000333,971.4786232000333,971.5449834000319,971.9453530000173,,,,,,,,,,,,,,,,,,,,,down,2.0888491999940015,None,space,0.45566019997932017,None,P122,001,2025-02-21_13h23.21.478,posner_endo_new1,2024.2.4,60.05583993266832,2025-02-21 13h23.56.581891 +0000,
cube_l.png,0.1,0.31,invalid,38,38,0,down,4.177162499981932,None,space,0.4206832000054419,None,,,,,,,,,0,38,38,38,971.9611424000468,,,,,,,,,,,,,971.9456063000252,971.9611424000468,971.9611424000468,971.9611424000468,976.1412494000397,,,,976.1510037000407,976.1610036000493,976.1610036000493,976.2068814000231,976.2071827000473,976.2236251000431,976.2236251000431,976.2236251000431,976.3069087000331,976.6572909000097,,,,,,,,,,,,,,,,,,,,,down,4.177162499981932,None,space,0.4206832000054419,None,P122,001,2025-02-21_13h23.21.478,posner_endo_new1,2024.2.4,60.05583993266832,2025-02-21 13h23.56.581891 +0000,
cube_r.png,0.1,0.31,valid,39,39,0,down,4.281472100003157,None,space,0.4004263000097126,None,,,,,,,,,0,39,39,39,976.6729783000192,,,,,,,,,,,,,976.6575512000127,976.6729783000192,976.6729783000192,976.6729783000192,980.969500200008,,,,980.9791890000342,980.9893149000127,980.9893149000127,981.0357846000115,981.0360861000372,981.0518108000397,981.0518108000397,981.0518108000397,981.1185123000178,981.4691182000097,,,,,,,,,,,,,,,,,,,,,down,4.281472100003157,None,space,0.4004263000097126,None,P122,001,2025-02-21_13h23.21.478,posner_endo_new1,2024.2.4,60.05583993266832,2025-02-21 13h23.56.581891 +0000,
cube_l.png,0.1,0.31,invalid,40,40,0,down,5.741339100000914,None,space,0.4489706000313163,None,,,,,,,,,0,40,40,40,981.4850198000204,,,,,,,,,,,,,981.4693752000458,981.4850198000204,981.4850198000204,981.4850198000204,987.2302610000479,,,,987.2399951000116,987.2501347000361,987.2501347000361,987.2955279000453,987.2958298000158,987.3121891000192,987.3121891000192,987.3121891000192,987.3953013000428,987.7630562999984,,,,,,,,,,,,,,,,,,,,,down,5.741339100000914,None,space,0.4489706000313163,None,P122,001,2025-02-21_13h23.21.478,posner_endo_new1,2024.2.4,60.05583993266832,2025-02-21 13h23.56.581891 +0000,
cube_l.png,0.1,10,catch,41,41,0,down,3.7997285000164993,None,None,,,,,,,,,,,0,41,41,41,987.7782255000202,,,,,,,,,,,,,987.7633129000315,987.7782255000202,987.7782255000202,987.7782255000202,991.5919770000037,,,,991.60154350003,991.6116879000328,991.6116879000328,991.6577398000518,991.6580609999946,991.674528100004,991.674528100004,991.674528100004,991.7409691000357,994.6722478000447,,,,993.7558796000085,994.6881612000288,994.6881612000288,994.6881612000288,,,,,,,,,,,,,,down,3.7997285000164993,None,None,,,P122,001,2025-02-21_13h23.21.478,posner_endo_new1,2024.2.4,60.05583993266832,2025-02-21 13h23.56.581891 +0000,
cube_l.png,0.1,-0.31,valid,42,42,0,down,31.98635700001614,None,space,0.41958640003576875,None,,,,,,,,,0,42,42,42,994.6881612000288,,,,,,,,,,,,,994.6724967000191,994.6881612000288,994.6881612000288,994.6881612000288,1026.6897825000342,,,,1026.6984954000218,1026.708559300052,1026.708559300052,1026.7552314000204,1026.755511700001,1026.7718631000025,1026.7718631000025,1026.7718631000025,1026.8549972000183,1027.2058012000052,,,,,,,,,,,,,,,,,,,,,down,31.98635700001614,None,space,0.41958640003576875,None,P122,001,2025-02-21_13h23.21.478,posner_endo_new1,2024.2.4,60.05583993266832,2025-02-21 13h23.56.581891 +0000,
cube_l.png,0.1,10,catch,43,43,0,down,8.40526749996934,None,None,,,,,,,,,,,0,43,43,43,1027.2214190000086,,,,,,,,,,,,,1027.2060321000172,1027.2214190000086,1027.2214190000086,1027.2214190000086,1035.6302861000295,,,,1035.6387616000138,1035.6493323000032,1035.6493323000032,1035.6962088000146,1035.6964807000477,1035.7127149000298,1035.7127149000298,1035.7127149000298,1035.7958364000078,1038.710093700036,,,,1037.810532900039,1038.7261676000198,1038.7261676000198,1038.7261676000198,,,,,,,,,,,,,,down,8.40526749996934,None,None,,,P122,001,2025-02-21_13h23.21.478,posner_endo_new1,2024.2.4,60.05583993266832,2025-02-21 13h23.56.581891 +0000,
cube_l.png,0.1,0.31,invalid,44,44,0,down,6.107960499997716,None,space,0.40252479998162016,None,,,,,,,,,0,44,44,44,1038.7261676000198,,,,,,,,,,,,,1038.7103043000097,1038.7261676000198,1038.7261676000198,1038.7261676000198,1044.8373486000346,,,,1044.8439384000376,1044.855891300016,1044.855891300016,1044.903596200049,1044.903807500028,1044.920275600045,1044.920275600045,1044.920275600045,1044.9863104000106,1045.3371115000336,,,,,,,,,,,,,,,,,,,,,down,6.107960499997716,None,space,0.40252479998162016,None,P122,001,2025-02-21_13h23.21.478,posner_endo_new1,2024.2.4,60.05583993266832,2025-02-21 13h23.56.581891 +0000,
cube_l.png,0.1,0.31,invalid,45,45,0,down,5.8099749000393786,None,space,0.41232920001493767,None,,,,,,,,,0,45,45,45,1045.3529719000217,,,,,,,,,,,,,1045.3372931000195,1045.3529719000217,1045.3529719000217,1045.3529719000217,1051.1646564000403,,,,1051.1706858000252,1051.1822719000047,1051.1822719000047,1051.2304349000333,1051.2306594999973,1051.2470654000062,1051.2470654000062,1051.2470654000062,1051.313938700012,1051.6641650000238,,,,,,,,,,,,,,,,,,,,,down,5.8099749000393786,None,space,0.41232920001493767,None,P122,001,2025-02-21_13h23.21.478,posner_endo_new1,2024.2.4,60.05583993266832,2025-02-21 13h23.56.581891 +0000,
cube_r.png,0.1,0.31,valid,46,46,0,down,6.498212700011209,None,space,0.37450620002346113,None,,,,,,,,,0,46,46,46,1051.6800891000312,,,,,,,,,,,,,1051.6643571000313,1051.6800891000312,1051.6800891000312,1051.6800891000312,1058.1906271000043,,,,1058.196800100035,1058.2084765000036,1058.2084765000036,1058.2564077000134,1058.2566280000028,1058.2732462999993,1058.2732462999993,1058.2732462999993,1058.3563791000051,1058.6564901000238,,,,,,,,,,,,,,,,,,,,,down,6.498212700011209,None,space,0.37450620002346113,None,P122,001,2025-02-21_13h23.21.478,posner_endo_new1,2024.2.4,60.05583993266832,2025-02-21 13h23.56.581891 +0000,
cube_l.png,0.1,-0.31,valid,47,47,0,down,5.84162419999484,None,space,0.45947380003053695,None,,,,,,,,,0,47,47,47,1058.6728245000122,,,,,,,,,,,,,1058.6566636000061,1058.6728245000122,1058.6728245000122,1058.6728245000122,1064.5175439000013,,,,1064.523539100017,1064.534969600034,1064.534969600034,1064.5835376000032,1064.5837788000354,1064.5998144000187,1064.5998144000187,1064.5998144000187,1064.6662327000522,1065.0671001000446,,,,,,,,,,,,,,,,,,,,,down,5.84162419999484,None,space,0.45947380003053695,None,P122,001,2025-02-21_13h23.21.478,posner_endo_new1,2024.2.4,60.05583993266832,2025-02-21 13h23.56.581891 +0000,
cube_r.png,0.1,-0.31,invalid,48,48,0,down,2.0472573000006378,None,space,0.4168368999962695,None,,,,,,,,,0,48,48,48,1065.083252200042,,,,,,,,,,,,,1065.0672801000183,1065.083252200042,1065.083252200042,1065.083252200042,1067.1315614000196,,,,1067.137543799996,1067.149088200007,1067.149088200007,1067.1975373000023,1067.197758299997,1067.2141367000295,1067.2141367000295,1067.2141367000295,1067.2973955000052,1067.647810800001,,,,,,,,,,,,,,,,,,,,,down,2.0472573000006378,None,space,0.4168368999962695,None,P122,001,2025-02-21_13h23.21.478,posner_endo_new1,2024.2.4,60.05583993266832,2025-02-21 13h23.56.581891 +0000,
cube_r.png,0.1,10,catch,49,49,0,down,5.203059100022074,None,None,,,,,,,,,,,0,49,49,49,1067.6637858000468,,,,,,,,,,,,,1067.6479838000378,1067.6637858000468,1067.6637858000468,1067.6637858000468,1072.8756964000058,,,,1072.8816726000514,1072.8930903000291,1072.8930903000291,1072.9417910000193,1072.9420165000483,1072.958237700048,1072.958237700048,1072.958237700048,1073.024795000034,1075.9557313999976,,,,1075.0393964000395,1075.9717486000154,1075.9717486000154,1075.9717486000154,,,,,,,,,,,,,,down,5.203059100022074,None,None,,,P122,001,2025-02-21_13h23.21.478,posner_endo_new1,2024.2.4,60.05583993266832,2025-02-21 13h23.56.581891 +0000,
cube_l.png,0.1,-0.31,valid,50,50,0,down,3.4242003000108525,None,space,0.5771468000020832,None,,,,,,,,,0,50,50,50,1075.9717486000154,,,,,,,,,,,,,1075.9558938000118,1075.9717486000154,1075.9717486000154,1075.9717486000154,1079.4024668000056,,,,1079.408421900007,1079.4199026999995,1079.4199026999995,1079.468616600032,1079.468839200039,1079.4850887000212,1079.4850887000212,1079.4850887000212,1079.55164900003,1080.0686309000012,,,,,,,,,,,,,,,,,,,,,down,3.4242003000108525,None,space,0.5771468000020832,None,P122,001,2025-02-21_13h23.21.478,posner_endo_new1,2024.2.4,60.05583993266832,2025-02-21 13h23.56.581891 +0000,
cube_l.png,0.1,-0.31,valid,51,51,0,down,5.006054400000721,None,space,0.41204450000077486,None,,,,,,,,,0,51,51,51,1080.0847500000382,,,,,,,,,,,,,1080.068804300041,1080.0847500000382,1080.0847500000382,1080.0847500000382,1085.0961052000057,,,,1085.1021261000424,1085.113819100021,1085.113819100021,1085.1625275000115,1085.1627514000284,1085.1790421000333,1085.1790421000333,1085.1790421000333,1085.2454799000407,1085.5962293000193,,,,,,,,,,,,,,,,,,,,,down,5.006054400000721,None,space,0.41204450000077486,None,P122,001,2025-02-21_13h23.21.478,posner_endo_new1,2024.2.4,60.05583993266832,2025-02-21 13h23.56.581891 +0000,
cube_r.png,0.1,-0.31,invalid,52,52,0,down,6.295202599954791,None,space,0.4354131000000052,None,,,,,,,,,0,52,52,52,1085.6114558000118,,,,,,,,,,,,,1085.5964033000055,1085.6114558000118,1085.6114558000118,1085.6114558000118,1091.922780300025,,,,1091.928787300014,1091.9403072000132,1091.9403072000132,1091.9890041000326,1091.9892368,1092.0050519000506,1092.0050519000506,1092.0050519000506,1092.072062799998,1092.455644200032,,,,,,,,,,,,,,,,,,,,,down,6.295202599954791,None,space,0.4354131000000052,None,P122,001,2025-02-21_13h23.21.478,posner_endo_new1,2024.2.4,60.05583993266832,2025-02-21 13h23.56.581891 +0000,
cube_l.png,0.1,-0.31,valid,53,53,0,down,10.291142100002617,None,space,0.46614319999935105,None,,,,,,,,,0,53,53,53,1092.471501699998,,,,,,,,,,,,,1092.4558209000388,1092.471501699998,1092.471501699998,1092.471501699998,1102.7784406000283,,,,1102.784544299997,1102.7962211000267,1102.7962211000267,1102.8444871000247,1102.844709600031,1102.8609486000496,1102.8609486000496,1102.8609486000496,1102.9273087000474,1103.3280201000161,,,,,,,,,,,,,,,,,,,,,down,10.291142100002617,None,space,0.46614319999935105,None,P122,001,2025-02-21_13h23.21.478,posner_endo_new1,2024.2.4,60.05583993266832,2025-02-21 13h23.56.581891 +0000,
cube_r.png,0.1,10,catch,54,54,0,down,3.0744592000264674,None,None,,,,,,,,,,,0,54,54,54,1103.3438403000473,,,,,,,,,,,,,1103.328194600006,1103.3438403000473,1103.3438403000473,1103.3438403000473,1106.4246866000467,,,,1106.4306362000061,1106.4421871000086,1106.4421871000086,1106.4908965000068,1106.491119000013,1106.5073318000068,1106.5073318000068,1106.5073318000068,1106.5738662000513,1109.5047974000336,,,,1108.588518100034,1109.5206227000454,1109.5206227000454,1109.5206227000454,,,,,,,,,,,,,,down,3.0744592000264674,None,None,,,P122,001,2025-02-21_13h23.21.478,posner_endo_new1,2024.2.4,60.05583993266832,2025-02-21 13h23.56.581891 +0000,
cube_l.png,0.1,0.31,invalid,55,55,0,down,1.2340341999661177,None,space,0.42978710000170395,None,,,,,,,,,0,55,55,55,1109.5206227000454,,,,,,,,,,,,,1109.5049588000402,1109.5206227000454,1109.5206227000454,1109.5206227000454,1110.7704610000364,,,,1110.7764515000163,1110.7879425000283,1110.7879425000283,1110.8364136000164,1110.8366336000036,1110.852862700005,1110.852862700005,1110.852862700005,1110.9194437999977,1111.2860706000356,,,,,,,,,,,,,,,,,,,,,down,1.2340341999661177,None,space,0.42978710000170395,None,P122,001,2025-02-21_13h23.21.478,posner_endo_new1,2024.2.4,60.05583993266832,2025-02-21 13h23.56.581891 +0000,
cube_l.png,0.1,-0.31,valid,56,56,0,down,6.5644479999900796,None,space,0.3498539000283927,None,,,,,,,,,0,56,56,56,1111.302454699995,,,,,,,,,,,,,1111.2862458000309,1111.302454699995,1111.302454699995,1111.302454699995,1117.8796226000413,,,,1117.8856481999974,1117.897123600007,1117.897123600007,1117.9457807000144,1117.9460017000092,1117.9622633000254,1117.9622633000254,1117.9622633000254,1118.0286830000114,1118.3129352999968,,,,,,,,,,,,,,,,,,,,,down,6.5644479999900796,None,space,0.3498539000283927,None,P122,001,2025-02-21_13h23.21.478,posner_endo_new1,2024.2.4,60.05583993266832,2025-02-21 13h23.56.581891 +0000,
cube_r.png,0.1,0.31,valid,57,57,0,down,4.570144199999049,None,space,0.3453459999873303,None,,,,,,,,,0,57,57,57,1118.3280716000008,,,,,,,,,,,,,1118.3131112999981,1118.3280716000008,1118.3280716000008,1118.3280716000008,1122.907723500044,,,,1122.9136529000243,1122.9252643000218,1122.9252643000218,1122.9737342000008,1122.9739565000054,1122.9904258000315,1122.9904258000315,1122.9904258000315,1123.0570630000439,1123.3407887000358,,,,,,,,,,,,,,,,,,,,,down,4.570144199999049,None,space,0.3453459999873303,None,P122,001,2025-02-21_13h23.21.478,posner_endo_new1,2024.2.4,60.05583993266832,2025-02-21 13h23.56.581891 +0000,
cube_r.png,0.1,-0.31,invalid,58,58,0,down,4.413528499950189,None,space,0.4351883999770507,None,,,,,,,,,0,58,58,58,1123.3567330000224,,,,,,,,,,,,,1123.3409630000242,1123.3567330000224,1123.3567330000224,1123.3567330000224,1127.7864780999953,,,,1127.792572700011,1127.8044498999952,1127.8044498999952,1127.8522621000302,1127.8524912000285,1127.8689374999958,1127.8689374999958,1127.8689374999958,1127.9522245000117,1128.3189293000032,,,,,,,,,,,,,,,,,,,,,down,4.413528499950189,None,space,0.4351883999770507,None,P122,001,2025-02-21_13h23.21.478,posner_endo_new1,2024.2.4,60.05583993266832,2025-02-21 13h23.56.581891 +0000,
cube_l.png,0.1,0.31,invalid,59,59,0,down,5.892941199999768,None,space,0.4507526000379585,None,,,,,,,,,0,59,59,59,1128.3349767000182,,,,,,,,,,,,,1128.3191033000476,1128.3349767000182,1128.3349767000182,1128.3349767000182,1134.2297349,,,,1134.2357819000026,1134.2475572000258,1134.2475572000258,1134.2956603000057,1134.2958854000317,1134.3120704000467,1134.3120704000467,1134.3120704000467,1134.3788958000368,1134.7786556000356,,,,,,,,,,,,,,,,,,,,,down,5.892941199999768,None,space,0.4507526000379585,None,P122,001,2025-02-21_13h23.21.478,posner_endo_new1,2024.2.4,60.05583993266832,2025-02-21 13h23.56.581891 +0000,
