cue_img,cue_soa,target_y,trial,thisN,thisTrialN,thisRepN,key_control2.keys,key_control2.rt,key_control2.duration,key_resp.keys,key_resp.rt,key_resp.duration,practice.thisRepN,practice.thisTrialN,practice.thisN,practice.thisIndex,block1.thisRepN,block1.thisTrialN,block1.thisN,block1.thisIndex,block2.thisRepN,block2.thisTrialN,block2.thisN,block2.thisIndex,thisRow.t,notes,instructions.started,instructions_txt.started,key_control.started,instructions.stopped,key_control.keys,key_control.rt,key_control.duration,ready.started,ready_txt.started,ready_txt.stopped,ready.stopped,fix.started,fixation.started,key_control2.started,fixation_cross.started,fix.stopped,practice.key_control2.keys,practice.key_control2.rt,practice.key_control2.duration,cue.started,cube.started,fixation_cross_cue.started,cue.stopped,target.started,fixation_target.started,fixation_cross_target.started,key_resp.started,star.started,target.stopped,practice.key_resp.keys,practice.key_resp.rt,practice.key_resp.duration,block1.key_control2.keys,block1.key_control2.rt,block1.key_control2.duration,star.stopped,fixation_target.stopped,fixation_cross_target.stopped,key_resp.stopped,block1.key_resp.keys,block1.key_resp.rt,block1.key_resp.duration,break_2.started,text.started,key_control3.started,text.stopped,break_2.stopped,key_control3.keys,key_control3.rt,key_control3.duration,block2.key_control2.keys,block2.key_control2.rt,block2.key_control2.duration,block2.key_resp.keys,block2.key_resp.rt,block2.key_resp.duration,participant,session,date,expName,psychopyVersion,frameRate,expStart,
,,,,,,,,,,,,,,,,,,,,,,,,,,,0.007604800048284233,0.01997080002911389,0.01997080002911389,20.83078940003179,up,20.79634909995366,None,,,,,,,,,,,,,,,,,,,,,,,,,,,,,,,,,,,,,,,,,,,,,,,,,,P123,001,2025-02-25_14h22.46.898,posner_endo_new1,2024.2.4,60.05259407086605,2025-02-25 14h22.55.477619 +0000,
,,,,,,,,,,,,,,,,,,,,,,,,,,,,,,,,,,20.830834300024435,20.846045100013725,23.84632600005716,23.827465999987908,,,,,,,,,,,,,,,,,,,,,,,,,,,,,,,,,,,,,,,,,,,,,,P123,001,2025-02-25_14h22.46.898,posner_endo_new1,2024.2.4,60.05259407086605,2025-02-25 14h22.55.477619 +0000,
cube_l.png,0.1,-0.31,valid,0,0,0,down,10.481645600055344,None,space,0.3725899999262765,None,0,0,0,0,,,,,,,,,23.84632600005716,,,,,,,,,,,,,23.835073700058274,23.84632600005716,23.84632600005716,23.84632600005716,34.333638600073755,down,10.481645600055344,None,34.346011299989186,34.355926700052805,34.355926700052805,34.399567599990405,34.39980710006785,34.41606720001437,34.41606720001437,34.41606720001437,34.48261189996265,34.79974070005119,space,0.3725899999262765,None,,,,,,,,,,,,,,,,,,,,,,,,,P123,001,2025-02-25_14h22.46.898,posner_endo_new1,2024.2.4,60.05259407086605,2025-02-25 14h22.55.477619 +0000,
cube_l.png,0.1,0.31,invalid,1,1,0,down,6.775579600012861,None,space,0.35699359991122037,None,0,1,1,1,,,,,,,,,34.81584010005463,,,,,,,,,,,,,34.799910800065845,34.81584010005463,34.81584010005463,34.81584010005463,41.593092800001614,down,6.775579600012861,None,41.60066880006343,41.61191640002653,41.61191640002653,41.65877660003025,41.65901100006886,41.67539390001912,41.67539390001912,41.67539390001912,41.75853290001396,42.04229540005326,space,0.35699359991122037,None,,,,,,,,,,,,,,,,,,,,,,,,,P123,001,2025-02-25_14h22.46.898,posner_endo_new1,2024.2.4,60.05259407086605,2025-02-25 14h22.55.477619 +0000,
cube_r.png,0.1,-0.31,invalid,2,2,0,down,8.573760400060564,None,space,0.3353941000532359,None,0,2,2,2,,,,,,,,,42.058229799964465,,,,,,,,,,,,,42.04246220004279,42.058229799964465,42.058229799964465,42.058229799964465,50.63370870007202,down,8.573760400060564,None,50.64230840001255,50.652299600071274,50.652299600071274,50.699664299958386,50.6998978999909,50.71592830005102,50.71592830005102,50.71592830005102,50.7993236000184,51.066458499990404,space,0.3353941000532359,None,,,,,,,,,,,,,,,,,,,,,,,,,P123,001,2025-02-25_14h22.46.898,posner_endo_new1,2024.2.4,60.05259407086605,2025-02-25 14h22.55.477619 +0000,
cube_r.png,0.1,10,catch,3,3,0,down,7.708570100017823,None,space,0.332644599955529,None,0,3,3,3,,,,,,,,,51.082548000034876,,,,,,,,,,,,,51.066628300002776,51.082548000034876,51.082548000034876,51.082548000034876,58.80811350001022,down,7.708570100017823,None,58.814685599994846,58.82634400005918,58.82634400005918,58.87408700003289,58.87432020006236,58.89117439999245,58.89117439999245,58.89117439999245,58.957757299998775,59.22489680000581,space,0.332644599955529,None,,,,,,,,,,,,,,,,,,,,,,,,,P123,001,2025-02-25_14h22.46.898,posner_endo_new1,2024.2.4,60.05259407086605,2025-02-25 14h22.55.477619 +0000,
cube_l.png,0.1,-0.31,valid,4,4,0,down,10.246660999953747,None,space,0.37221790000330657,None,0,4,4,4,,,,,,,,,59.24080060003325,,,,,,,,,,,,,59.225061399978586,59.24080060003325,59.24080060003325,59.24080060003325,69.4977716000285,down,10.246660999953747,None,69.50480830005836,69.51640269998461,69.51640269998461,69.56369400001131,69.56392720004078,69.58022310002707,69.58022310002707,69.58022310002707,69.66345480002929,69.96381290000863,space,0.37221790000330657,None,,,,,,,,,,,,,,,,,,,,,,,,,P123,001,2025-02-25_14h22.46.898,posner_endo_new1,2024.2.4,60.05259407086605,2025-02-25 14h22.55.477619 +0000,
cube_l.png,0.1,0.31,invalid,5,5,0,down,8.468186200014316,None,space,0.43163519992958754,None,0,5,5,5,,,,,,,,,69.97983550000936,,,,,,,,,,,,,69.96397629997227,69.97983550000936,69.97983550000936,69.97983550000936,78.45511660003103,down,8.468186200014316,None,78.46158210001886,78.47326110000722,78.47326110000722,78.52118649997283,78.52141769998707,78.5375368000241,78.5375368000241,78.5375368000241,78.6043595999945,78.97136279998813,space,0.43163519992958754,None,,,,,,,,,,,,,,,,,,,,,,,,,P123,001,2025-02-25_14h22.46.898,posner_endo_new1,2024.2.4,60.05259407086605,2025-02-25 14h22.55.477619 +0000,
cube_r.png,0.1,-0.31,invalid,6,6,0,down,9.652640199987218,None,space,0.37526600004639477,None,0,6,6,6,,,,,,,,,78.98725070001092,,,,,,,,,,,,,78.97153420001268,78.98725070001092,78.98725070001092,78.98725070001092,88.64489560003858,down,9.652640199987218,None,88.65212910005357,88.66400079999585,88.66400079999585,88.7105903000338,88.71082180005033,88.72733899997547,88.72733899997547,88.72733899997547,88.81065260001924,89.11052230000496,space,0.37526600004639477,None,,,,,,,,,,,,,,,,,,,,,,,,,P123,001,2025-02-25_14h22.46.898,posner_endo_new1,2024.2.4,60.05259407086605,2025-02-25 14h22.55.477619 +0000,
cube_r.png,0.1,0.31,valid,7,7,0,down,9.449186599929817,None,space,0.33238070004153997,None,0,7,7,7,,,,,,,,,89.12683890003245,,,,,,,,,,,,,89.11068949999753,89.12683890003245,89.12683890003245,89.12683890003245,98.58461410005111,down,9.449186599929817,None,98.5908123999834,98.60242610005662,98.60242610005662,98.65011899999809,98.6503500000108,98.66715930006467,98.66715930006467,98.66715930006467,98.73376339999959,99.0012085000053,space,0.33238070004153997,None,,,,,,,,,,,,,,,,,,,,,,,,,P123,001,2025-02-25_14h22.46.898,posner_endo_new1,2024.2.4,60.05259407086605,2025-02-25 14h22.55.477619 +0000,
cube_l.png,0.1,-0.31,valid,8,8,0,down,9.958741399925202,None,space,0.4057217000517994,None,0,8,8,8,,,,,,,,,99.01676350005437,,,,,,,,,,,,,99.00137059995905,99.01676350005437,99.01676350005437,99.01676350005437,108.99068379995879,down,9.958741399925202,None,108.99766640004236,109.00948760006577,109.00948760006577,109.05677300004754,109.05700420006178,109.07310819998384,109.07310819998384,109.07310819998384,109.15650180005468,109.4902075000573,space,0.4057217000517994,None,,,,,,,,,,,,,,,,,,,,,,,,,P123,001,2025-02-25_14h22.46.898,posner_endo_new1,2024.2.4,60.05259407086605,2025-02-25 14h22.55.477619 +0000,
cube_r.png,0.1,-0.31,invalid,9,9,0,down,10.733814899926074,None,space,0.3504546999465674,None,0,9,9,9,,,,,,,,,109.50614960002713,,,,,,,,,,,,,109.49037180002779,109.50614960002713,109.50614960002713,109.50614960002713,120.24607600003947,down,10.733814899926074,None,120.25671860005241,120.26682380004786,120.26682380004786,120.31182409997564,120.31215550005436,120.32829800003674,120.32829800003674,120.32829800003674,120.41158249997534,120.69562090002,space,0.3504546999465674,None,,,,,,,,,,,,,,,,,,,,,,,,,P123,001,2025-02-25_14h22.46.898,posner_endo_new1,2024.2.4,60.05259407086605,2025-02-25 14h22.55.477619 +0000,
cube_r.png,0.1,0.31,valid,10,10,0,down,10.240478500025347,None,space,0.3100733000319451,None,0,10,10,10,,,,,,,,,120.71124510001391,,,,,,,,,,,,,120.69586450001225,120.71124510001391,120.71124510001391,120.71124510001391,130.9683641999727,down,10.240478500025347,None,130.97485730005428,130.98659830004908,130.98659830004908,131.034088699962,131.03431999997701,131.05018460005522,131.05018460005522,131.05018460005522,131.13407050003298,131.36782829998992,space,0.3100733000319451,None,,,,,,,,,,,,,,,,,,,,,,,,,P123,001,2025-02-25_14h22.46.898,posner_endo_new1,2024.2.4,60.05259407086605,2025-02-25 14h22.55.477619 +0000,
,,,,,,,,,,,,,,,,,,,,,,,,,,,,,,,,,,131.36794010002632,131.38316810003016,134.41171320003923,134.3654388000723,,,,,,,,,,,,,,,,,,,,,,,,,,,,,,,,,,,,,,,,,,,,,,P123,001,2025-02-25_14h22.46.898,posner_endo_new1,2024.2.4,60.05259407086605,2025-02-25 14h22.55.477619 +0000,
cube_l.png,0.1,10,catch,0,0,0,down,20.38029560004361,None,None,,,,,,,0,0,0,0,,,,,134.41171320003923,,,,,,,,,,,,,134.4025223000208,134.41171320003923,134.41171320003923,134.41171320003923,154.79623089998495,,,,154.8209957999643,154.8319798000157,154.8319798000157,154.85949770000298,154.85991300002206,154.87595480005257,154.87595480005257,154.87595480005257,154.95920080004726,157.87369130004663,,,,down,20.38029560004361,None,156.97379499999806,157.88955159997568,157.88955159997568,157.88955159997568,None,,,,,,,,,,,,,,,,,P123,001,2025-02-25_14h22.46.898,posner_endo_new1,2024.2.4,60.05259407086605,2025-02-25 14h22.55.477619 +0000,
cube_l.png,0.1,10,catch,1,1,0,down,5.902367800008506,None,None,,,,,,,0,1,1,1,,,,,157.88955159997568,,,,,,,,,,,,,157.87399260001257,157.88955159997568,157.88955159997568,157.88955159997568,163.80313110002317,,,,163.8253605000209,163.83560240000952,163.83560240000952,163.8670506000053,163.86746109998785,163.88358929997776,163.88358929997776,163.88358929997776,163.9666613000445,166.88120539998636,,,,down,5.902367800008506,None,165.9812620000448,166.89699649997056,166.89699649997056,166.89699649997056,None,,,,,,,,,,,,,,,,,P123,001,2025-02-25_14h22.46.898,posner_endo_new1,2024.2.4,60.05259407086605,2025-02-25 14h22.55.477619 +0000,
cube_l.png,0.1,0.31,invalid,2,2,0,down,7.08714499999769,None,space,0.45153389999177307,None,,,,,0,2,2,2,,,,,166.89699649997056,,,,,,,,,,,,,166.8815100999782,166.89699649997056,166.89699649997056,166.89699649997056,173.99124070000835,,,,174.00016080006026,174.01011300005484,174.01011300005484,174.0568587000016,174.0571498000063,174.07339619996492,174.07339619996492,174.07339619996492,174.15673529997002,174.5407078000717,,,,down,7.08714499999769,None,,,,,space,0.45153389999177307,None,,,,,,,,,,,,,,,P123,001,2025-02-25_14h22.46.898,posner_endo_new1,2024.2.4,60.05259407086605,2025-02-25 14h22.55.477619 +0000,
cube_l.png,0.1,0.31,invalid,3,3,0,down,9.212764599942602,None,space,0.6007196999853477,None,,,,,0,3,3,3,,,,,174.5562726999633,,,,,,,,,,,,,174.54093670006841,174.5562726999633,174.5562726999633,174.5562726999633,183.78111540002283,,,,183.78993460000493,183.8000250000041,183.8000250000041,183.84693989995867,183.84722880006302,183.86344600003213,183.86344600003213,183.86344600003213,183.94677699997555,184.48048550006934,,,,down,9.212764599942602,None,,,,,space,0.6007196999853477,None,,,,,,,,,,,,,,,P123,001,2025-02-25_14h22.46.898,posner_endo_new1,2024.2.4,60.05259407086605,2025-02-25 14h22.55.477619 +0000,
cube_l.png,0.1,-0.31,valid,4,4,0,down,11.680076299933717,None,space,0.3467949000187218,None,,,,,0,4,4,4,,,,,184.49616270000115,,,,,,,,,,,,,184.48071849998087,184.49616270000115,184.49616270000115,184.49616270000115,196.18676559999585,,,,196.21159039996564,196.22391850000713,196.22391850000713,196.2505155999679,196.25088179996237,196.2670946000144,196.2670946000144,196.2670946000144,196.35049720003735,196.61826240003575,,,,down,11.680076299933717,None,,,,,space,0.3467949000187218,None,,,,,,,,,,,,,,,P123,001,2025-02-25_14h22.46.898,posner_endo_new1,2024.2.4,60.05259407086605,2025-02-25 14h22.55.477619 +0000,
cube_r.png,0.1,-0.31,invalid,5,5,0,down,10.51044850004837,None,space,0.4363067999947816,None,,,,,0,5,5,5,,,,,196.6335764999967,,,,,,,,,,,,,196.61855390004348,196.6335764999967,196.6335764999967,196.6335764999967,207.15737040003296,,,,207.16944289999083,207.1797746999655,207.1797746999655,207.22300120000727,207.22336509998422,207.23943710001186,207.23943710001186,207.23943710001186,207.32261949998792,207.69041080004536,,,,down,10.51044850004837,None,,,,,space,0.4363067999947816,None,,,,,,,,,,,,,,,P123,001,2025-02-25_14h22.46.898,posner_endo_new1,2024.2.4,60.05259407086605,2025-02-25 14h22.55.477619 +0000,
cube_r.png,0.1,0.31,valid,6,6,0,down,9.438523599994369,None,space,0.36976169992703944,None,,,,,0,6,6,6,,,,,207.70562929997686,,,,,,,,,,,,,207.69070829998236,207.70562929997686,207.70562929997686,207.70562929997686,217.1473136000568,,,,217.15920970006846,217.1693958999822,217.1693958999822,217.21268960007,217.2130605999846,217.2291935000103,217.2291935000103,217.2291935000103,217.31245299999136,217.61335440003313,,,,down,9.438523599994369,None,,,,,space,0.36976169992703944,None,,,,,,,,,,,,,,,P123,001,2025-02-25_14h22.46.898,posner_endo_new1,2024.2.4,60.05259407086605,2025-02-25 14h22.55.477619 +0000,
cube_r.png,0.1,-0.31,invalid,7,7,0,down,9.402824599994346,None,space,0.3750896999845281,None,,,,,0,7,7,7,,,,,217.62877139996272,,,,,,,,,,,,,217.61364980007056,217.62877139996272,217.62877139996272,217.62877139996272,227.03706420003437,,,,227.0489329000702,227.0592115999898,227.0592115999898,227.10264589998405,227.10300530004315,227.11929090006743,227.11929090006743,227.11929090006743,227.2024464000715,227.50335670006461,,,,down,9.402824599994346,None,,,,,space,0.3750896999845281,None,,,,,,,,,,,,,,,P123,001,2025-02-25_14h22.46.898,posner_endo_new1,2024.2.4,60.05259407086605,2025-02-25 14h22.55.477619 +0000,
cube_l.png,0.1,-0.31,valid,8,8,0,down,10.641118899919093,None,space,0.3937969000544399,None,,,,,0,8,8,8,,,,,227.51864390005358,,,,,,,,,,,,,227.5036460000556,227.51864390005358,227.51864390005358,227.51864390005358,238.17572210007347,,,,238.1873965000268,238.19774900004268,238.19774900004268,238.24123619997408,238.24159800005145,238.2576658000471,238.2576658000471,238.2576658000471,238.34099050005898,238.6586844000267,,,,down,10.641118899919093,None,,,,,space,0.3937969000544399,None,,,,,,,,,,,,,,,P123,001,2025-02-25_14h22.46.898,posner_endo_new1,2024.2.4,60.05259407086605,2025-02-25 14h22.55.477619 +0000,
cube_r.png,0.1,-0.31,invalid,9,9,0,down,9.89380139997229,None,space,0.35079360008239746,None,,,,,0,9,9,9,,,,,238.6740853000665,,,,,,,,,,,,,238.65897460002452,238.6740853000665,238.6740853000665,238.6740853000665,248.58167790004518,,,,248.59148890001234,248.60166529996786,248.60166529996786,248.64736419997644,248.6476815000642,248.6638764999807,248.6638764999807,248.6638764999807,248.7470588000724,249.03127779997885,,,,down,9.89380139997229,None,,,,,space,0.35079360008239746,None,,,,,,,,,,,,,,,P123,001,2025-02-25_14h22.46.898,posner_endo_new1,2024.2.4,60.05259407086605,2025-02-25 14h22.55.477619 +0000,
cube_l.png,0.1,0.31,invalid,10,10,0,down,10.281051600002684,None,space,0.30322180001530796,None,,,,,0,10,10,10,,,,,249.04677760007326,,,,,,,,,,,,,249.03153030003887,249.04677760007326,249.04677760007326,249.04677760007326,259.33729569998104,,,,259.3456987000536,259.3558120999951,259.3558120999951,259.40296900004614,259.4032152000582,259.4190608999925,259.4190608999925,259.4190608999925,259.50274630007334,259.7364174000686,,,,down,10.281051600002684,None,,,,,space,0.30322180001530796,None,,,,,,,,,,,,,,,P123,001,2025-02-25_14h22.46.898,posner_endo_new1,2024.2.4,60.05259407086605,2025-02-25 14h22.55.477619 +0000,
cube_r.png,0.1,-0.31,invalid,11,11,0,down,10.44771670002956,None,space,0.3159435000270605,None,,,,,0,11,11,11,,,,,259.75243059999775,,,,,,,,,,,,,259.7365916999988,259.75243059999775,259.75243059999775,259.75243059999775,270.20951509999577,,,,270.21927999996115,270.22933180001564,270.22933180001564,270.2752644000575,270.27558580006007,270.29173499997705,270.29173499997705,270.29173499997705,270.3749860000098,270.60915569995996,,,,down,10.44771670002956,None,,,,,space,0.3159435000270605,None,,,,,,,,,,,,,,,P123,001,2025-02-25_14h22.46.898,posner_endo_new1,2024.2.4,60.05259407086605,2025-02-25 14h22.55.477619 +0000,
cube_r.png,0.1,0.31,valid,12,12,0,down,11.11094249994494,None,space,0.280874399933964,None,,,,,0,12,12,12,,,,,270.62479619996157,,,,,,,,,,,,,270.6094060000032,270.62479619996157,270.62479619996157,270.62479619996157,281.7477004000684,,,,281.7559812000254,281.766289500054,281.766289500054,281.81363360001706,281.8138674000511,281.830133200041,281.830133200041,281.830133200041,281.9134408000391,282.11368040007073,,,,down,11.11094249994494,None,,,,,space,0.280874399933964,None,,,,,,,,,,,,,,,P123,001,2025-02-25_14h22.46.898,posner_endo_new1,2024.2.4,60.05259407086605,2025-02-25 14h22.55.477619 +0000,
cube_l.png,0.1,10,catch,13,13,0,down,10.406845599994995,None,None,,,,,,,0,13,13,13,,,,,282.1296524000354,,,,,,,,,,,,,282.11384949996136,282.1296524000354,282.1296524000354,282.1296524000354,292.53878189995885,,,,292.56197719997726,292.57424550002906,292.57424550002906,292.6022737000603,292.60268989996985,292.6186865000054,292.6186865000054,292.6186865000054,292.7018051999621,295.616369400057,,,,down,10.406845599994995,None,294.71645449998323,295.63214410003275,295.63214410003275,295.63214410003275,None,,,,,,,,,,,,,,,,,P123,001,2025-02-25_14h22.46.898,posner_endo_new1,2024.2.4,60.05259407086605,2025-02-25 14h22.55.477619 +0000,
cube_r.png,0.1,-0.31,invalid,14,14,0,down,6.280382900033146,None,space,0.3528136999811977,None,,,,,0,14,14,14,,,,,295.63214410003275,,,,,,,,,,,,,295.61668310000096,295.63214410003275,295.63214410003275,295.63214410003275,301.9270356000634,,,,301.9400546000106,301.95024420006666,301.95024420006666,301.992500100052,301.9929109000368,302.00897920003626,302.00897920003626,302.00897920003626,302.09220399998594,302.376463899971,,,,down,6.280382900033146,None,,,,,space,0.3528136999811977,None,,,,,,,,,,,,,,,P123,001,2025-02-25_14h22.46.898,posner_endo_new1,2024.2.4,60.05259407086605,2025-02-25 14h22.55.477619 +0000,
cube_l.png,0.1,-0.31,valid,15,15,0,down,5.503511099959724,None,space,0.871777500025928,None,,,,,0,15,15,15,,,,,302.3923388000112,,,,,,,,,,,,,302.37664979998954,302.3923388000112,302.3923388000112,302.3923388000112,307.90408800006844,,,,307.9110808999976,307.9228235000046,307.9228235000046,307.97001040005125,307.97026079997886,307.98661909997463,307.98661909997463,307.98661909997463,308.0697542000562,308.8699461000506,,,,down,5.503511099959724,None,,,,,space,0.871777500025928,None,,,,,,,,,,,,,,,P123,001,2025-02-25_14h22.46.898,posner_endo_new1,2024.2.4,60.05259407086605,2025-02-25 14h22.55.477619 +0000,
cube_r.png,0.1,10,catch,16,16,0,down,9.77109819999896,None,None,,,,,,,0,16,16,16,,,,,308.8853847000282,,,,,,,,,,,,,308.8701303000562,308.8853847000282,308.8853847000282,308.8853847000282,318.6597742000595,,,,318.66678550001234,318.67837149999104,318.67837149999104,318.7257992000086,318.7260545999743,318.74214700004086,318.74214700004086,318.74214700004086,318.808934199973,321.73967200005427,,,,down,9.77109819999896,None,320.82345280004665,321.75578420003876,321.75578420003876,321.75578420003876,None,,,,,,,,,,,,,,,,,P123,001,2025-02-25_14h22.46.898,posner_endo_new1,2024.2.4,60.05259407086605,2025-02-25 14h22.55.477619 +0000,
cube_r.png,0.1,10,catch,17,17,0,down,8.04427110007964,None,space,0.3636968000791967,None,,,,,0,17,17,17,,,,,321.75578420003876,,,,,,,,,,,,,321.73984559997916,321.75578420003876,321.75578420003876,321.75578420003876,329.8150079000043,,,,329.8219570000656,329.8336962000467,329.8336962000467,329.88114359998144,329.8813769000117,329.8974395999685,329.8974395999685,329.8974395999685,329.9641085000476,330.26434570003767,,,,down,8.04427110007964,None,,,,,space,0.3636968000791967,None,,,,,,,,,,,,,,,P123,001,2025-02-25_14h22.46.898,posner_endo_new1,2024.2.4,60.05259407086605,2025-02-25 14h22.55.477619 +0000,
cube_l.png,0.1,0.31,invalid,18,18,0,down,10.407821199973114,None,space,0.3512841999763623,None,,,,,0,18,18,18,,,,,330.28057930001523,,,,,,,,,,,,,330.2645166000584,330.28057930001523,330.28057930001523,330.28057930001523,340.7039087000303,,,,340.70993370004,340.7215843000449,340.7215843000449,340.7696876999689,340.7699190999847,340.78592840000056,340.78592840000056,340.78592840000056,340.8531157000689,341.1536395000294,,,,down,10.407821199973114,None,,,,,space,0.3512841999763623,None,,,,,,,,,,,,,,,P123,001,2025-02-25_14h22.46.898,posner_endo_new1,2024.2.4,60.05259407086605,2025-02-25 14h22.55.477619 +0000,
cube_l.png,0.1,10,catch,19,19,0,down,10.126127899973653,None,None,,,,,,,0,19,19,19,,,,,341.1695192999905,,,,,,,,,,,,,341.1538108000532,341.1695192999905,341.1695192999905,341.1695192999905,351.30972270003986,,,,351.315757400007,351.3275425999891,351.3275425999891,351.37516599998344,351.3753989000106,351.3922127999831,351.3922127999831,351.3922127999831,351.4754913999932,354.3898154000053,,,,down,10.126127899973653,None,353.4903529000003,354.40537719998974,354.40537719998974,354.40537719998974,None,,,,,,,,,,,,,,,,,P123,001,2025-02-25_14h22.46.898,posner_endo_new1,2024.2.4,60.05259407086605,2025-02-25 14h22.55.477619 +0000,
cube_l.png,0.1,0.31,invalid,20,20,0,down,11.40317900001537,None,space,0.36413680005352944,None,,,,,0,20,20,20,,,,,354.40537719998974,,,,,,,,,,,,,354.38997550006025,354.40537719998974,354.40537719998974,354.40537719998974,365.8113319000695,,,,365.8174424000317,365.8290520000737,365.8290520000737,365.8778281999985,365.8780607000226,365.8940718000522,365.8940718000522,365.8940718000522,365.9605150000425,366.26108990004286,,,,down,11.40317900001537,None,,,,,space,0.36413680005352944,None,,,,,,,,,,,,,,,P123,001,2025-02-25_14h22.46.898,posner_endo_new1,2024.2.4,60.05259407086605,2025-02-25 14h22.55.477619 +0000,
cube_l.png,0.1,-0.31,valid,21,21,0,down,13.347599500091746,None,space,0.4366834999527782,None,,,,,0,21,21,21,,,,,366.2772988000652,,,,,,,,,,,,,366.2612649999792,366.2772988000652,366.2772988000652,366.2772988000652,379.6306565999985,,,,379.6367007000372,379.64838070003316,379.64838070003316,379.6968493000604,379.6970895000268,379.7133984999964,379.7133984999964,379.7133984999964,379.7799087000312,380.16362440004013,,,,down,13.347599500091746,None,,,,,space,0.4366834999527782,None,,,,,,,,,,,,,,,P123,001,2025-02-25_14h22.46.898,posner_endo_new1,2024.2.4,60.05259407086605,2025-02-25 14h22.55.477619 +0000,
cube_r.png,0.1,0.31,valid,22,22,0,down,14.380539800040424,None,space,0.31702870002482086,None,,,,,0,22,22,22,,,,,380.179499699967,,,,,,,,,,,,,380.16380490001757,380.179499699967,380.179499699967,380.179499699967,394.56756990007125,,,,394.5881393000018,394.5986930000363,394.5986930000363,394.6313360000495,394.63179740007035,394.64776179997716,394.64776179997716,394.64776179997716,394.7309880000539,394.98217600001954,,,,down,14.380539800040424,None,,,,,space,0.31702870002482086,None,,,,,,,,,,,,,,,P123,001,2025-02-25_14h22.46.898,posner_endo_new1,2024.2.4,60.05259407086605,2025-02-25 14h22.55.477619 +0000,
cube_r.png,0.1,-0.31,invalid,23,23,0,down,10.675016700057313,None,space,0.3910365999909118,None,,,,,0,23,23,23,,,,,394.9974034000188,,,,,,,,,,,,,394.9825481000589,394.9974034000188,394.9974034000188,394.9974034000188,405.6879492000444,,,,405.69782120001037,405.70793360006064,405.70793360006064,405.7534987999825,405.75382069998886,405.77004830003716,405.77004830003716,405.77004830003716,405.8532504000468,406.17068089998793,,,,down,10.675016700057313,None,,,,,space,0.3910365999909118,None,,,,,,,,,,,,,,,P123,001,2025-02-25_14h22.46.898,posner_endo_new1,2024.2.4,60.05259407086605,2025-02-25 14h22.55.477619 +0000,
cube_r.png,0.1,0.31,valid,24,24,0,down,5.806244699982926,None,space,0.32523839990608394,None,,,,,0,24,24,24,,,,,406.18621810001787,,,,,,,,,,,,,406.1709304000251,406.18621810001787,406.18621810001787,406.18621810001787,411.99816780001856,,,,412.0079587000655,412.01806030003354,412.01806030003354,412.06365869997535,412.06397380004637,412.08015509997495,412.08015509997495,412.08015509997495,412.16343630000483,412.41420860006474,,,,down,5.806244699982926,None,,,,,space,0.32523839990608394,None,,,,,,,,,,,,,,,P123,001,2025-02-25_14h22.46.898,posner_endo_new1,2024.2.4,60.05259407086605,2025-02-25 14h22.55.477619 +0000,
cube_r.png,0.1,-0.31,invalid,25,25,0,down,16.250293199904263,None,space,0.8127016000216827,None,,,,,0,25,25,25,,,,,412.429899699986,,,,,,,,,,,,,412.4144658000441,412.429899699986,412.429899699986,412.429899699986,428.68211270007305,,,,428.7009121000301,428.71227759995963,428.71227759995963,428.74674380000215,428.7473157000495,428.7631458999822,428.7631458999822,428.7631458999822,428.8464517999673,429.580991200055,,,,down,16.250293199904263,None,,,,,space,0.8127016000216827,None,,,,,,,,,,,,,,,P123,001,2025-02-25_14h22.46.898,posner_endo_new1,2024.2.4,60.05259407086605,2025-02-25 14h22.55.477619 +0000,
cube_l.png,0.1,-0.31,valid,26,26,0,down,9.324688599910587,None,space,0.3877145000733435,None,,,,,0,26,26,26,,,,,429.5956682000542,,,,,,,,,,,,,429.5814644000493,429.5956682000542,429.5956682000542,429.5956682000542,438.9379229999613,,,,438.9568739000242,438.96776290005073,438.96776290005073,439.00299700000323,439.0035907999845,439.0194131999742,439.0194131999742,439.0194131999742,439.10264230007306,439.4208896000637,,,,down,9.324688599910587,None,,,,,space,0.3877145000733435,None,,,,,,,,,,,,,,,P123,001,2025-02-25_14h22.46.898,posner_endo_new1,2024.2.4,60.05259407086605,2025-02-25 14h22.55.477619 +0000,
cube_r.png,0.1,0.31,valid,27,27,0,down,10.8922806000337,None,space,0.38727260008454323,None,,,,,0,27,27,27,,,,,439.4356517000124,,,,,,,,,,,,,439.4213718000101,439.4356517000124,439.4356517000124,439.4356517000124,450.34302929998375,,,,450.36253240006045,450.3738801999716,450.3738801999716,450.40800769999623,450.40857760002837,450.42441169999074,450.42441169999074,450.42441169999074,450.50764840003103,450.825904599973,,,,down,10.8922806000337,None,,,,,space,0.38727260008454323,None,,,,,,,,,,,,,,,P123,001,2025-02-25_14h22.46.898,posner_endo_new1,2024.2.4,60.05259407086605,2025-02-25 14h22.55.477619 +0000,
cube_r.png,0.1,10,catch,28,28,0,down,13.168029299937189,None,space,0.36103159992489964,None,,,,,0,28,28,28,,,,,450.8406404000707,,,,,,,,,,,,,450.8263800999848,450.8406404000707,450.8406404000707,450.8406404000707,464.01307820004877,,,,464.03547800006345,464.0457765000174,464.0457765000174,464.0770054999739,464.07741130003706,464.0934838000685,464.0934838000685,464.0934838000685,464.1772790000541,464.4627641000552,,,,down,13.168029299937189,None,,,,,space,0.36103159992489964,None,,,,,,,,,,,,,,,P123,001,2025-02-25_14h22.46.898,posner_endo_new1,2024.2.4,60.05259407086605,2025-02-25 14h22.55.477619 +0000,
cube_r.png,0.1,0.31,valid,29,29,0,down,9.274717299966142,None,space,0.3524769999785349,None,,,,,0,29,29,29,,,,,464.47715819999576,,,,,,,,,,,,,464.46336729999166,464.47715819999576,464.47715819999576,464.47715819999576,473.76957979996223,,,,473.7895427000476,473.7997150999727,473.7997150999727,473.83373690000735,473.83419409999624,473.85017720004544,473.85017720004544,473.85017720004544,473.933419900015,474.2177593000233,,,,down,9.274717299966142,None,,,,,space,0.3524769999785349,None,,,,,,,,,,,,,,,P123,001,2025-02-25_14h22.46.898,posner_endo_new1,2024.2.4,60.05259407086605,2025-02-25 14h22.55.477619 +0000,
cube_r.png,0.1,0.31,valid,30,30,0,down,8.974486900027841,None,space,0.514976599952206,None,,,,,0,30,30,30,,,,,474.23335190000944,,,,,,,,,,,,,474.21801020007115,474.23335190000944,474.23335190000944,474.23335190000944,483.20885279995855,,,,483.2193963000318,483.22941919998266,483.22941919998266,483.274331200053,483.2746507000411,483.2907939000288,483.2907939000288,483.2907939000288,483.3740922000725,483.8080561000388,,,,down,8.974486900027841,None,,,,,space,0.514976599952206,None,,,,,,,,,,,,,,,P123,001,2025-02-25_14h22.46.898,posner_endo_new1,2024.2.4,60.05259407086605,2025-02-25 14h22.55.477619 +0000,
cube_l.png,0.1,-0.31,valid,31,31,0,down,12.297334100003354,None,space,0.39193620008882135,None,,,,,0,31,31,31,,,,,483.82360130001325,,,,,,,,,,,,,483.8083085999824,483.82360130001325,483.82360130001325,483.82360130001325,496.1287772000069,,,,496.13933100004215,496.14928240003064,496.14928240003064,496.19445780001115,496.19477339996956,496.21090499998536,496.21090499998536,496.21090499998536,496.2941500999732,496.6115898999851,,,,down,12.297334100003354,None,,,,,space,0.39193620008882135,None,,,,,,,,,,,,,,,P123,001,2025-02-25_14h22.46.898,posner_endo_new1,2024.2.4,60.05259407086605,2025-02-25 14h22.55.477619 +0000,
cube_r.png,0.1,0.31,valid,32,32,0,down,9.82115689991042,None,space,0.47530599997844547,None,,,,,0,32,32,32,,,,,496.6272151999874,,,,,,,,,,,,,496.61184550006874,496.6272151999874,496.6272151999874,496.6272151999874,506.45157440006733,,,,506.46208480000496,506.4722028999822,506.4722028999822,506.51723540003877,506.51755370001774,506.53371990006417,506.53371990006417,506.53371990006417,506.61699150002096,507.0176681999583,,,,down,9.82115689991042,None,,,,,space,0.47530599997844547,None,,,,,,,,,,,,,,,P123,001,2025-02-25_14h22.46.898,posner_endo_new1,2024.2.4,60.05259407086605,2025-02-25 14h22.55.477619 +0000,
cube_r.png,0.1,-0.31,invalid,33,33,0,down,10.183176400023513,None,space,0.3728287999983877,None,,,,,0,33,33,33,,,,,507.03315559995826,,,,,,,,,,,,,507.01792080001906,507.03315559995826,507.03315559995826,507.03315559995826,517.224044200033,,,,517.2344012999674,517.2443932000315,517.2443932000315,517.2895497999853,517.2898655000608,517.3061151000438,517.3061151000438,517.3061151000438,517.3893129000207,517.690424600034,,,,down,10.183176400023513,None,,,,,space,0.3728287999983877,None,,,,,,,,,,,,,,,P123,001,2025-02-25_14h22.46.898,posner_endo_new1,2024.2.4,60.05259407086605,2025-02-25 14h22.55.477619 +0000,
cube_r.png,0.1,10,catch,34,34,0,down,7.591023500077426,None,None,,,,,,,0,34,34,34,,,,,517.7057239999995,,,,,,,,,,,,,517.6906738000689,517.7057239999995,517.7057239999995,517.7057239999995,525.2985124000115,,,,525.3051010000054,525.3168296000222,525.3168296000222,525.3646256000502,525.3651611000532,525.3810588000342,525.3810588000342,525.3810588000342,525.4476176999742,528.3790751000633,,,,down,7.591023500077426,None,527.4622647999786,528.3946438999847,528.3946438999847,528.3946438999847,None,,,,,,,,,,,,,,,,,P123,001,2025-02-25_14h22.46.898,posner_endo_new1,2024.2.4,60.05259407086605,2025-02-25 14h22.55.477619 +0000,
cube_r.png,0.1,0.31,valid,35,35,0,down,7.311159200035036,None,space,0.342823899933137,None,,,,,0,35,35,35,,,,,528.3946438999847,,,,,,,,,,,,,528.3794851000421,528.3946438999847,528.3946438999847,528.3946438999847,535.7217855000636,,,,535.7343351000454,535.7445023000473,535.7445023000473,535.7872242999729,535.7875839000335,535.8036809000187,535.8036809000187,535.8036809000187,535.8869794000639,536.1547526000068,,,,down,7.311159200035036,None,,,,,space,0.342823899933137,None,,,,,,,,,,,,,,,P123,001,2025-02-25_14h22.46.898,posner_endo_new1,2024.2.4,60.05259407086605,2025-02-25 14h22.55.477619 +0000,
cube_r.png,0.1,-0.31,invalid,36,36,0,down,11.223682599957101,None,space,0.3526647000107914,None,,,,,0,36,36,36,,,,,536.1700644000666,,,,,,,,,,,,,536.1550420999993,536.1700644000666,536.1700644000666,536.1700644000666,547.409826099989,,,,547.4216205000412,547.4318168000318,547.4318168000318,547.4754680000478,547.4758331000339,547.4918432000559,547.4918432000559,547.4918432000559,547.5750717000337,547.8593161000172,,,,down,11.223682599957101,None,,,,,space,0.3526647000107914,None,,,,,,,,,,,,,,,P123,001,2025-02-25_14h22.46.898,posner_endo_new1,2024.2.4,60.05259407086605,2025-02-25 14h22.55.477619 +0000,
cube_l.png,0.1,0.31,invalid,37,37,0,down,10.542126000043936,None,space,0.4245745000662282,None,,,,,0,37,37,37,,,,,547.8747403000016,,,,,,,,,,,,,547.8596220000181,547.8747403000016,547.8747403000016,547.8747403000016,558.4319424000569,,,,558.443990000058,558.4542641000589,558.4542641000589,558.49748000002,558.4978463000152,558.5139233999653,558.5139233999653,558.5139233999653,558.5971609000117,558.9479145000223,,,,down,10.542126000043936,None,,,,,space,0.4245745000662282,None,,,,,,,,,,,,,,,P123,001,2025-02-25_14h22.46.898,posner_endo_new1,2024.2.4,60.05259407086605,2025-02-25 14h22.55.477619 +0000,
cube_l.png,0.1,0.31,invalid,38,38,0,down,10.397415400017053,None,space,0.3868923999834806,None,,,,,0,38,38,38,,,,,558.9634481000248,,,,,,,,,,,,,558.9482123999624,558.9634481000248,558.9634481000248,558.9634481000248,569.3704666000558,,,,569.3789702999638,569.3891584000085,569.3891584000085,569.4363504999783,569.436636300059,569.452897900017,569.452897900017,569.452897900017,569.5195667999797,569.8534254999831,,,,down,10.397415400017053,None,,,,,space,0.3868923999834806,None,,,,,,,,,,,,,,,P123,001,2025-02-25_14h22.46.898,posner_endo_new1,2024.2.4,60.05259407086605,2025-02-25 14h22.55.477619 +0000,
cube_r.png,0.1,0.31,valid,39,39,0,down,8.9634266999783,None,space,0.36243420001119375,None,,,,,0,39,39,39,,,,,569.869007900008,,,,,,,,,,,,,569.8536485000513,569.869007900008,569.869007900008,569.869007900008,578.8441412000684,,,,578.8526614999864,578.8629086000146,578.8629086000146,578.9100525999675,578.9103512000293,578.9265899000457,578.9265899000457,578.9265899000457,578.9931094000349,579.2938536000438,,,,down,8.9634266999783,None,,,,,space,0.36243420001119375,None,,,,,,,,,,,,,,,P123,001,2025-02-25_14h22.46.898,posner_endo_new1,2024.2.4,60.05259407086605,2025-02-25 14h22.55.477619 +0000,
cube_l.png,0.1,0.31,invalid,40,40,0,down,10.595025100046769,None,space,0.4219794999808073,None,,,,,0,40,40,40,,,,,579.30911380006,,,,,,,,,,,,,579.2940850000596,579.30911380006,579.30911380006,579.30911380006,589.9162288999651,,,,589.9247410000535,589.9348921000492,589.9348921000492,589.9820710000349,589.9823627000442,589.9985156999901,589.9985156999901,589.9985156999901,590.0818981999764,590.4322957000695,,,,down,10.595025100046769,None,,,,,space,0.4219794999808073,None,,,,,,,,,,,,,,,P123,001,2025-02-25_14h22.46.898,posner_endo_new1,2024.2.4,60.05259407086605,2025-02-25 14h22.55.477619 +0000,
cube_l.png,0.1,10,catch,41,41,0,down,8.496206899988465,None,None,,,,,,,0,41,41,41,,,,,590.4482100000605,,,,,,,,,,,,,590.4325206000358,590.4482100000605,590.4482100000605,590.4482100000605,598.9569226000458,,,,598.96545290004,598.9756696000695,598.9756696000695,599.0227353000082,599.0230260000098,599.0392395000672,599.0392395000672,599.0392395000672,599.1225381999975,602.0368643000256,,,,down,8.496206899988465,None,601.1372043000301,602.052936400054,602.052936400054,602.052936400054,None,,,,,,,,,,,,,,,,,P123,001,2025-02-25_14h22.46.898,posner_endo_new1,2024.2.4,60.05259407086605,2025-02-25 14h22.55.477619 +0000,
cube_l.png,0.1,-0.31,valid,42,42,0,down,7.82770280004479,None,space,0.3494215999962762,None,,,,,0,42,42,42,,,,,602.052936400054,,,,,,,,,,,,,602.0370725999819,602.052936400054,602.052936400054,602.052936400054,609.8957684000488,,,,609.9018931000028,609.9136682000244,609.9136682000244,609.9612182000419,609.9614498000592,609.9781726000365,609.9781726000365,609.9781726000365,610.0612613999983,610.3285090000136,,,,down,7.82770280004479,None,,,,,space,0.3494215999962762,None,,,,,,,,,,,,,,,P123,001,2025-02-25_14h22.46.898,posner_endo_new1,2024.2.4,60.05259407086605,2025-02-25 14h22.55.477619 +0000,
cube_l.png,0.1,10,catch,43,43,0,down,10.471964200027287,None,None,,,,,,,0,43,43,43,,,,,610.3442892000312,,,,,,,,,,,,,610.3286868999712,610.3442892000312,610.3442892000312,610.3442892000312,620.8199586999835,,,,620.8426447999664,620.8529789999593,620.8529789999593,620.8836800999707,620.8840501999948,620.9001513000112,620.9001513000112,620.9001513000112,620.9833692000248,623.8978601000272,,,,down,10.471964200027287,None,622.9980344000505,623.9137931000441,623.9137931000441,623.9137931000441,None,,,,,,,,,,,,,,,,,P123,001,2025-02-25_14h22.46.898,posner_endo_new1,2024.2.4,60.05259407086605,2025-02-25 14h22.55.477619 +0000,
cube_l.png,0.1,0.31,invalid,44,44,0,down,8.246963700046763,None,space,0.36523430002853274,None,,,,,0,44,44,44,,,,,623.9137931000441,,,,,,,,,,,,,623.8981291999808,623.9137931000441,623.9137931000441,623.9137931000441,632.1732082000235,,,,632.1848371999804,632.1950614000671,632.1950614000671,632.2387573000742,632.2391300000018,632.255290000001,632.255290000001,632.255290000001,632.3385278000496,632.6227786999661,,,,down,8.246963700046763,None,,,,,space,0.36523430002853274,None,,,,,,,,,,,,,,,P123,001,2025-02-25_14h22.46.898,posner_endo_new1,2024.2.4,60.05259407086605,2025-02-25 14h22.55.477619 +0000,
cube_l.png,0.1,0.31,invalid,45,45,0,down,9.682193199987523,None,space,0.3844666000222787,None,,,,,0,45,45,45,,,,,632.6381162999896,,,,,,,,,,,,,632.6230649000499,632.6381162999896,632.6381162999896,632.6381162999896,642.3294649999589,,,,642.3410095999716,642.3513218000298,642.3513218000298,642.395044600009,642.3954149000347,642.4115556000033,642.4115556000033,642.4115556000033,642.4947126000188,642.8122679999797,,,,down,9.682193199987523,None,,,,,space,0.3844666000222787,None,,,,,,,,,,,,,,,P123,001,2025-02-25_14h22.46.898,posner_endo_new1,2024.2.4,60.05259407086605,2025-02-25 14h22.55.477619 +0000,
cube_r.png,0.1,0.31,valid,46,46,0,down,10.828532500076108,None,space,0.41367590008303523,None,,,,,0,46,46,46,,,,,642.8278352000052,,,,,,,,,,,,,642.8125596999889,642.8278352000052,642.8278352000052,642.8278352000052,653.6674360999605,,,,653.6748057999648,653.6865921000717,653.6865921000717,653.7333756000735,653.7336345000658,653.7496990000363,653.7496990000363,653.7496990000363,653.816666000057,654.1672217999585,,,,down,10.828532500076108,None,,,,,space,0.41367590008303523,None,,,,,,,,,,,,,,,P123,001,2025-02-25_14h22.46.898,posner_endo_new1,2024.2.4,60.05259407086605,2025-02-25 14h22.55.477619 +0000,
cube_l.png,0.1,-0.31,valid,47,47,0,down,11.377954500028864,None,space,0.509502200060524,None,,,,,0,47,47,47,,,,,654.1829574999865,,,,,,,,,,,,,654.1674206999596,654.1829574999865,654.1829574999865,654.1829574999865,665.5722614000551,,,,665.5796783000696,665.590934399981,665.590934399981,665.6379717000527,665.6382336000679,665.6543452000478,665.6543452000478,665.6543452000478,665.7377779000672,666.1715794999618,,,,down,11.377954500028864,None,,,,,space,0.509502200060524,None,,,,,,,,,,,,,,,P123,001,2025-02-25_14h22.46.898,posner_endo_new1,2024.2.4,60.05259407086605,2025-02-25 14h22.55.477619 +0000,
cube_r.png,0.1,-0.31,invalid,48,48,0,down,19.101805299986154,None,space,0.35449380008503795,None,,,,,0,48,48,48,,,,,666.18725670001,,,,,,,,,,,,,666.1717761000618,666.18725670001,666.18725670001,666.18725670001,685.3019919999642,,,,685.3094997999724,685.3207680999767,685.3207680999767,685.3677821999881,685.3680422999896,685.3841040000552,685.3841040000552,685.3841040000552,685.4676516000181,685.7514028999722,,,,down,19.101805299986154,None,,,,,space,0.35449380008503795,None,,,,,,,,,,,,,,,P123,001,2025-02-25_14h22.46.898,posner_endo_new1,2024.2.4,60.05259407086605,2025-02-25 14h22.55.477619 +0000,
cube_r.png,0.1,10,catch,49,49,0,down,10.865642699995078,None,None,,,,,,,0,49,49,49,,,,,685.767295800033,,,,,,,,,,,,,685.7516043999931,685.767295800033,685.767295800033,685.767295800033,696.6403658000054,,,,696.6477786999894,696.6591579000233,696.6591579000233,696.7064551999792,696.7067164999899,696.722773800022,696.722773800022,696.722773800022,696.8055855999701,699.72034790006,,,,down,10.865642699995078,None,698.8206574000651,699.7363949000137,699.7363949000137,699.7363949000137,None,,,,,,,,,,,,,,,,,P123,001,2025-02-25_14h22.46.898,posner_endo_new1,2024.2.4,60.05259407086605,2025-02-25 14h22.55.477619 +0000,
cube_l.png,0.1,-0.31,valid,50,50,0,down,7.2091436999617144,None,space,0.5210068000014871,None,,,,,0,50,50,50,,,,,699.7363949000137,,,,,,,,,,,,,699.7205278000329,699.7363949000137,699.7363949000137,699.7363949000137,706.9468104999978,,,,706.9543241000501,706.9652293999679,706.9652293999679,707.0123750000494,707.0126446000068,707.0286215000087,707.0286215000087,707.0286215000087,707.1119442000054,707.5625473000109,,,,down,7.2091436999617144,None,,,,,space,0.5210068000014871,None,,,,,,,,,,,,,,,P123,001,2025-02-25_14h22.46.898,posner_endo_new1,2024.2.4,60.05259407086605,2025-02-25 14h22.55.477619 +0000,
cube_l.png,0.1,-0.31,valid,51,51,0,down,10.790668400004506,None,space,0.5653548999689519,None,,,,,0,51,51,51,,,,,707.5783671999816,,,,,,,,,,,,,707.5627476000227,707.5783671999816,707.5783671999816,707.5783671999816,718.3848434999818,,,,718.39233469998,718.403673700057,718.403673700057,718.450752499979,718.4510123999789,718.4668340999633,718.4668340999633,718.4668340999633,718.5501943000127,719.0340192000149,,,,down,10.790668400004506,None,,,,,space,0.5653548999689519,None,,,,,,,,,,,,,,,P123,001,2025-02-25_14h22.46.898,posner_endo_new1,2024.2.4,60.05259407086605,2025-02-25 14h22.55.477619 +0000,
cube_r.png,0.1,-0.31,invalid,52,52,0,down,24.65495729993563,None,space,0.43001939996611327,None,,,,,0,52,52,52,,,,,719.0500117000192,,,,,,,,,,,,,719.0342233000556,719.0500117000192,719.0500117000192,719.0500117000192,743.7091703000478,,,,743.7168050999753,743.727645499981,743.727645499981,743.7747646999778,743.7750237999717,743.7913088999921,743.7913088999921,743.7913088999921,743.8741961000487,744.2252127999673,,,,down,24.65495729993563,None,,,,,space,0.43001939996611327,None,,,,,,,,,,,,,,,P123,001,2025-02-25_14h22.46.898,posner_endo_new1,2024.2.4,60.05259407086605,2025-02-25 14h22.55.477619 +0000,
cube_l.png,0.1,-0.31,valid,53,53,0,down,7.768466699984856,None,space,0.45159609999973327,None,,,,,0,53,53,53,,,,,744.2408411999932,,,,,,,,,,,,,744.22541059996,744.2408411999932,744.2408411999932,744.2408411999932,752.0170978000388,,,,752.0245871000225,752.0359373000683,752.0359373000683,752.0830425999593,752.0833010000642,752.0995576999849,752.0995576999849,752.0995576999849,752.1828036999796,752.5665802999865,,,,down,7.768466699984856,None,,,,,space,0.45159609999973327,None,,,,,,,,,,,,,,,P123,001,2025-02-25_14h22.46.898,posner_endo_new1,2024.2.4,60.05259407086605,2025-02-25 14h22.55.477619 +0000,
cube_r.png,0.1,10,catch,54,54,0,down,10.67485279997345,None,None,,,,,,,0,54,54,54,,,,,752.5823958000401,,,,,,,,,,,,,752.5667769999709,752.5823958000401,752.5823958000401,752.5823958000401,763.2724063000642,,,,763.2798538999632,763.2910331999883,763.2910331999883,763.3382726999698,763.338537100004,763.3542983999941,763.3542983999941,763.3542983999941,763.4380603999598,766.3521464000223,,,,down,10.67485279997345,None,765.4525710999733,766.3683418000583,766.3683418000583,766.3683418000583,None,,,,,,,,,,,,,,,,,P123,001,2025-02-25_14h22.46.898,posner_endo_new1,2024.2.4,60.05259407086605,2025-02-25 14h22.55.477619 +0000,
cube_l.png,0.1,0.31,invalid,55,55,0,down,3.8480885999742895,None,space,0.5509607999119908,None,,,,,0,55,55,55,,,,,766.3683418000583,,,,,,,,,,,,,766.3523363000713,766.3683418000583,766.3683418000583,766.3683418000583,770.2314482000656,,,,770.2389123999747,770.2506622000365,770.2506622000365,770.2976996999932,770.2979588999879,770.3143231000286,770.3143231000286,770.3143231000286,770.3809043000219,770.8809065000387,,,,down,3.8480885999742895,None,,,,,space,0.5509607999119908,None,,,,,,,,,,,,,,,P123,001,2025-02-25_14h22.46.898,posner_endo_new1,2024.2.4,60.05259407086605,2025-02-25 14h22.55.477619 +0000,
cube_l.png,0.1,-0.31,valid,56,56,0,down,10.02405520004686,None,space,0.3471183000365272,None,,,,,0,56,56,56,,,,,770.896827599965,,,,,,,,,,,,,770.8811019000132,770.896827599965,770.896827599965,770.896827599965,780.9378252000315,,,,780.9452411000384,780.9563656999962,780.9563656999962,781.0036941000726,781.0039647000376,781.0200995999621,781.0200995999621,781.0200995999621,781.1032331000315,781.3704472000245,,,,down,10.02405520004686,None,,,,,space,0.3471183000365272,None,,,,,,,,,,,,,,,P123,001,2025-02-25_14h22.46.898,posner_endo_new1,2024.2.4,60.05259407086605,2025-02-25 14h22.55.477619 +0000,
cube_r.png,0.1,0.31,valid,57,57,0,down,6.7425634999526665,None,space,0.381859999964945,None,,,,,0,57,57,57,,,,,781.386359600001,,,,,,,,,,,,,781.3706603000173,781.386359600001,781.386359600001,781.386359600001,788.1307224000338,,,,788.1424529000651,788.15267640003,788.15267640003,788.1962607000023,788.1966201000614,788.2127717999974,788.2127717999974,788.2127717999974,788.2957393999677,788.5968832999934,,,,down,6.7425634999526665,None,,,,,space,0.381859999964945,None,,,,,,,,,,,,,,,P123,001,2025-02-25_14h22.46.898,posner_endo_new1,2024.2.4,60.05259407086605,2025-02-25 14h22.55.477619 +0000,
cube_r.png,0.1,-0.31,invalid,58,58,0,down,6.09327809989918,None,space,0.6657578999875113,None,,,,,0,58,58,58,,,,,788.6121069999645,,,,,,,,,,,,,788.5971833000658,788.6121069999645,788.6121069999645,788.6121069999645,794.7072734000394,,,,794.7189848000417,794.7292908000527,794.7292908000527,794.7726824000711,794.7730404000031,794.7892780000111,794.7892780000111,794.7892780000111,794.872388000018,795.4564700999763,,,,down,6.09327809989918,None,,,,,space,0.6657578999875113,None,,,,,,,,,,,,,,,P123,001,2025-02-25_14h22.46.898,posner_endo_new1,2024.2.4,60.05259407086605,2025-02-25 14h22.55.477619 +0000,
cube_l.png,0.1,0.31,invalid,59,59,0,down,12.353341300040483,None,space,0.4880937000270933,None,,,,,0,59,59,59,,,,,795.4718649999704,,,,,,,,,,,,,795.4567541000433,795.4718649999704,795.4718649999704,795.4718649999704,807.8272368999897,,,,807.8363232000265,807.8459716000361,807.8459716000361,807.8927916999673,807.8930351999588,807.9092605999904,807.9092605999904,807.9092605999904,807.9926133999834,808.4095418000361,,,,down,12.353341300040483,None,,,,,space,0.4880937000270933,None,,,,,,,,,,,,,,,P123,001,2025-02-25_14h22.46.898,posner_endo_new1,2024.2.4,60.05259407086605,2025-02-25 14h22.55.477619 +0000,
,,,,,,,,,,,,,,,,,,,,,,,,,,,,,,,,,,,,,,,,,,,,,,,,,,,,,,,,,,,,,,,,,,,,,808.4096615000162,808.4248623000458,808.4248623000458,868.4306984000141,879.9034481999697,space,71.4716745999176,None,,,,,,,P123,001,2025-02-25_14h22.46.898,posner_endo_new1,2024.2.4,60.05259407086605,2025-02-25 14h22.55.477619 +0000,
,,,,,,,,,,,,,,,,,,,,,,,,,,,,,,,,,,879.9035253999755,879.9189095000038,882.9276963999728,882.8997966999887,,,,,,,,,,,,,,,,,,,,,,,,,,,,,,,,,,,,,,,,,,,,,,P123,001,2025-02-25_14h22.46.898,posner_endo_new1,2024.2.4,60.05259407086605,2025-02-25 14h22.55.477619 +0000,
cube_l.png,0.1,10,catch,0,0,0,up,10.369913600035943,None,None,,,,,,,,,,,0,0,0,0,882.9276963999728,,,,,,,,,,,,,882.9187686999794,882.9276963999728,882.9276963999728,882.9276963999728,893.308031899971,,,,893.3321706000715,893.342348300037,893.342348300037,893.3716442000587,893.3720107000554,893.3883223000448,893.3883223000448,893.3883223000448,893.4717020000098,896.3871149000479,,,,,,,895.4862193000736,896.4023830000078,896.4023830000078,896.4023830000078,,,,,,,,,,,,up,10.369913600035943,None,None,,,P123,001,2025-02-25_14h22.46.898,posner_endo_new1,2024.2.4,60.05259407086605,2025-02-25 14h22.55.477619 +0000,
cube_l.png,0.1,10,catch,1,1,0,up,8.910186300054193,None,None,,,,,,,,,,,0,1,1,1,896.4023830000078,,,,,,,,,,,,,896.3876847999636,896.4023830000078,896.4023830000078,896.4023830000078,905.3270202999702,,,,905.3331447000382,905.3450699000387,905.3450699000387,905.3930196000729,905.3932947000721,905.4095882000402,905.4095882000402,905.4095882000402,905.4761245000409,908.4072020000312,,,,,,,907.4906997999642,908.4231706999708,908.4231706999708,908.4231706999708,,,,,,,,,,,,up,8.910186300054193,None,None,,,P123,001,2025-02-25_14h22.46.898,posner_endo_new1,2024.2.4,60.05259407086605,2025-02-25 14h22.55.477619 +0000,
cube_l.png,0.1,0.31,invalid,2,2,0,up,5.258570699952543,None,space,0.4068688000552356,None,,,,,,,,,0,2,2,2,908.4231706999708,,,,,,,,,,,,,908.4073983000126,908.4231706999708,908.4231706999708,908.4231706999708,913.6856587000657,,,,913.6973499000305,913.7076940999832,913.7076940999832,913.7511747999815,913.7515355000505,913.7675406000344,913.7675406000344,913.7675406000344,913.8508844999596,914.1850123000331,,,,,,,,,,,,,,,,,,,,,,up,5.258570699952543,None,space,0.4068688000552356,None,P123,001,2025-02-25_14h22.46.898,posner_endo_new1,2024.2.4,60.05259407086605,2025-02-25 14h22.55.477619 +0000,
cube_l.png,0.1,0.31,invalid,3,3,0,up,7.01706980005838,None,space,0.4062158999731764,None,,,,,,,,,0,3,3,3,914.2004624999827,,,,,,,,,,,,,914.1853055000538,914.2004624999827,914.2004624999827,914.2004624999827,921.2277071999852,,,,921.2394269000506,921.2496281999629,921.2496281999629,921.2934420000529,921.2937987999758,921.3100203999784,921.3100203999784,921.3100203999784,921.3931927999947,921.7273104999913,,,,,,,,,,,,,,,,,,,,,,up,7.01706980005838,None,space,0.4062158999731764,None,P123,001,2025-02-25_14h22.46.898,posner_endo_new1,2024.2.4,60.05259407086605,2025-02-25 14h22.55.477619 +0000,
cube_l.png,0.1,-0.31,valid,4,4,0,up,7.370349099976011,None,space,0.36701909999828786,None,,,,,,,,,0,4,4,4,921.7428004000103,,,,,,,,,,,,,921.7276035000104,921.7428004000103,921.7428004000103,921.7428004000103,929.119655800052,,,,929.1313127999892,929.1415575999999,929.1415575999999,929.1853540000739,929.1857212999603,929.2018409000011,929.2018409000011,929.2018409000011,929.2850520999637,929.5859397000168,,,,,,,,,,,,,,,,,,,,,,up,7.370349099976011,None,space,0.36701909999828786,None,P123,001,2025-02-25_14h22.46.898,posner_endo_new1,2024.2.4,60.05259407086605,2025-02-25 14h22.55.477619 +0000,
cube_r.png,0.1,-0.31,invalid,5,5,0,up,10.167269099969417,None,space,0.3338789000408724,None,,,,,,,,,0,5,5,5,929.6015514000319,,,,,,,,,,,,,929.5862392999697,929.6015514000319,929.6015514000319,929.6015514000319,939.7755778999999,,,,939.7871920999605,939.7973852000432,939.7973852000432,939.8411625999724,939.841523900046,939.8576574999606,939.8576574999606,939.8576574999606,939.9408524000319,940.2084138999926,,,,,,,,,,,,,,,,,,,,,,up,10.167269099969417,None,space,0.3338789000408724,None,P123,001,2025-02-25_14h22.46.898,posner_endo_new1,2024.2.4,60.05259407086605,2025-02-25 14h22.55.477619 +0000,
cube_r.png,0.1,0.31,valid,6,6,0,up,10.305458700051531,None,space,0.36689449998084456,None,,,,,,,,,0,6,6,6,940.2239190000109,,,,,,,,,,,,,940.2087142000673,940.2239190000109,940.2239190000109,940.2239190000109,950.531312600011,,,,950.5429361000424,950.5531485000392,950.5531485000392,950.5968069999944,950.597167900065,950.6133473999798,950.6133473999798,950.6133473999798,950.6966142000165,950.9974509000313,,,,,,,,,,,,,,,,,,,,,,up,10.305458700051531,None,space,0.36689449998084456,None,P123,001,2025-02-25_14h22.46.898,posner_endo_new1,2024.2.4,60.05259407086605,2025-02-25 14h22.55.477619 +0000,
cube_r.png,0.1,-0.31,invalid,7,7,0,up,9.188345200032927,None,space,0.3272728000301868,None,,,,,,,,,0,7,7,7,951.0129526000237,,,,,,,,,,,,,950.9977464000694,951.0129526000237,951.0129526000237,951.0129526000237,960.2047236000653,,,,960.2164691999787,960.2267844000598,960.2267844000598,960.2702834999654,960.2706591000315,960.2867486999603,960.2867486999603,960.2867486999603,960.370111700031,960.6211322000017,,,,,,,,,,,,,,,,,,,,,,up,9.188345200032927,None,space,0.3272728000301868,None,P123,001,2025-02-25_14h22.46.898,posner_endo_new1,2024.2.4,60.05259407086605,2025-02-25 14h22.55.477619 +0000,
cube_l.png,0.1,-0.31,valid,8,8,0,up,9.820305300061591,None,space,0.45250790007412434,None,,,,,,,,,0,8,8,8,960.6364029999822,,,,,,,,,,,,,960.621428100043,960.6364029999822,960.6364029999822,960.6364029999822,970.4608322000131,,,,970.4724663000088,970.4826834000414,970.4826834000414,970.5264534000307,970.5268223000458,970.5429277999792,970.5429277999792,970.5429277999792,970.62615799997,971.010447000037,,,,,,,,,,,,,,,,,,,,,,up,9.820305300061591,None,space,0.45250790007412434,None,P123,001,2025-02-25_14h22.46.898,posner_endo_new1,2024.2.4,60.05259407086605,2025-02-25 14h22.55.477619 +0000,
cube_r.png,0.1,-0.31,invalid,9,9,0,up,9.54366750002373,None,space,0.4050845999736339,None,,,,,,,,,0,9,9,9,971.025787099963,,,,,,,,,,,,,971.0107397000538,971.025787099963,971.025787099963,971.025787099963,980.5839570000535,,,,980.5955485000741,980.6057897000574,980.6057897000574,980.6494496000232,980.6498156000162,980.6660487999907,980.6660487999907,980.6660487999907,980.749281700002,981.0833390000043,,,,,,,,,,,,,,,,,,,,,,up,9.54366750002373,None,space,0.4050845999736339,None,P123,001,2025-02-25_14h22.46.898,posner_endo_new1,2024.2.4,60.05259407086605,2025-02-25 14h22.55.477619 +0000,
cube_l.png,0.1,0.31,invalid,10,10,0,up,7.774480600026436,None,space,0.4406835000263527,None,,,,,,,,,0,10,10,10,981.0988450000295,,,,,,,,,,,,,981.0836333000334,981.0988450000295,981.0988450000295,981.0988450000295,988.8756621000357,,,,988.8860068999929,988.8957326000091,988.8957326000091,988.9410842000507,988.9413455000613,988.9575478000334,988.9575478000334,988.9575478000334,989.0409349000547,989.4079283999745,,,,,,,,,,,,,,,,,,,,,,up,7.774480600026436,None,space,0.4406835000263527,None,P123,001,2025-02-25_14h22.46.898,posner_endo_new1,2024.2.4,60.05259407086605,2025-02-25 14h22.55.477619 +0000,
cube_r.png,0.1,-0.31,invalid,11,11,0,up,12.577866400009952,None,space,0.5294289999874309,None,,,,,,,,,0,11,11,11,989.4237354999641,,,,,,,,,,,,,989.408126699971,989.4237354999641,989.4237354999641,989.4237354999641,1002.0116932999808,,,,1002.0191317000426,1002.0305543000577,1002.0305543000577,1002.0773045000387,1002.0775642000372,1002.0941249000607,1002.0941249000607,1002.0941249000607,1002.1776249000104,1002.6279085000278,,,,,,,,,,,,,,,,,,,,,,up,12.577866400009952,None,space,0.5294289999874309,None,P123,001,2025-02-25_14h22.46.898,posner_endo_new1,2024.2.4,60.05259407086605,2025-02-25 14h22.55.477619 +0000,
cube_r.png,0.1,0.31,valid,12,12,0,up,8.006129099987447,None,space,0.5171883000293747,None,,,,,,,,,0,12,12,12,1002.6434096000157,,,,,,,,,,,,,1002.6281063000206,1002.6434096000157,1002.6434096000157,1002.6434096000157,1010.6527036000043,,,,1010.6601058000233,1010.6718643000349,1010.6718643000349,1010.7188220999669,1010.7190823999699,1010.7352974000387,1010.7352974000387,1010.7352974000387,1010.8017969999928,1011.2689795000479,,,,,,,,,,,,,,,,,,,,,,up,8.006129099987447,None,space,0.5171883000293747,None,P123,001,2025-02-25_14h22.46.898,posner_endo_new1,2024.2.4,60.05259407086605,2025-02-25 14h22.55.477619 +0000,
cube_l.png,0.1,10,catch,13,13,0,up,13.31697229994461,None,None,,,,,,,,,,,0,13,13,13,1011.2847548000282,,,,,,,,,,,,,1011.2691796000581,1011.2847548000282,1011.2847548000282,1011.2847548000282,1024.6060395999812,,,,1024.6176208000397,1024.627780699986,1024.627780699986,1024.6711190000642,1024.6714901999803,1024.6875948000234,1024.6875948000234,1024.6875948000234,1024.7708789999597,1027.6852738000453,,,,,,,1026.7854816999752,1027.7011841000058,1027.7011841000058,1027.7011841000058,,,,,,,,,,,,up,13.31697229994461,None,None,,,P123,001,2025-02-25_14h22.46.898,posner_endo_new1,2024.2.4,60.05259407086605,2025-02-25 14h22.55.477619 +0000,
cube_r.png,0.1,-0.31,invalid,14,14,0,up,0.8043695000233129,None,space,0.7178310999879614,None,,,,,,,,,0,14,14,14,1027.7011841000058,,,,,,,,,,,,,1027.6855541999685,1027.7011841000058,1027.7011841000058,1027.7011841000058,1028.5182516999776,,,,1028.5298352000536,1028.539956200053,1028.539956200053,1028.5838411999866,1028.584198800032,1028.6002594999736,1028.6002594999736,1028.6002594999736,1028.6834342000075,1029.3341134999646,,,,,,,,,,,,,,,,,,,,,,up,0.8043695000233129,None,space,0.7178310999879614,None,P123,001,2025-02-25_14h22.46.898,posner_endo_new1,2024.2.4,60.05259407086605,2025-02-25 14h22.55.477619 +0000,
cube_l.png,0.1,-0.31,valid,15,15,0,up,2.0753694999730214,None,None,,,,,,,,,,,0,15,15,15,1029.3495178000303,,,,,,,,,,,,,1029.3344051999738,1029.3495178000303,1029.3495178000303,1029.3495178000303,1031.4321221000282,,,,1031.4436046000337,1031.4538074000739,1031.4538074000739,1031.4975237000035,1031.497898700065,1031.5139806000516,1031.5139806000516,1031.5139806000516,1031.59735070006,1034.5116698000347,,,,,,,1033.6117834000615,1034.5275984000182,1034.5275984000182,1034.5275984000182,,,,,,,,,,,,up,2.0753694999730214,None,None,,,P123,001,2025-02-25_14h22.46.898,posner_endo_new1,2024.2.4,60.05259407086605,2025-02-25 14h22.55.477619 +0000,
cube_r.png,0.1,10,catch,16,16,0,up,5.689624499995261,None,None,,,,,,,,,,,0,16,16,16,1034.5275984000182,,,,,,,,,,,,,1034.5119468000485,1034.5275984000182,1034.5275984000182,1034.5275984000182,1040.2230121999746,,,,1040.2346968000056,1040.2449332000688,1040.2449332000688,1040.2885724999942,1040.2889325000579,1040.3050049999729,1040.3050049999729,1040.3050049999729,1040.388253799989,1043.3026530999923,,,,,,,1042.4029766999884,1043.3185976999812,1043.3185976999812,1043.3185976999812,,,,,,,,,,,,up,5.689624499995261,None,None,,,P123,001,2025-02-25_14h22.46.898,posner_endo_new1,2024.2.4,60.05259407086605,2025-02-25 14h22.55.477619 +0000,
cube_r.png,0.1,10,catch,17,17,0,up,5.738983400049619,None,None,,,,,,,,,,,0,17,17,17,1043.3185976999812,,,,,,,,,,,,,1043.3029333000304,1043.3185976999812,1043.3185976999812,1043.3185976999812,1049.0638518000487,,,,1049.0755040000658,1049.0857284000376,1049.0857284000376,1049.1296050000237,1049.1299651999725,1049.1459653000347,1049.1459653000347,1049.1459653000347,1049.2293543000706,1052.143558199983,,,,,,,1051.2439111999702,1052.159538500011,1052.159538500011,1052.159538500011,,,,,,,,,,,,up,5.738983400049619,None,None,,,P123,001,2025-02-25_14h22.46.898,posner_endo_new1,2024.2.4,60.05259407086605,2025-02-25 14h22.55.477619 +0000,
cube_l.png,0.1,0.31,invalid,18,18,0,up,6.074079299927689,None,space,0.48971130000427365,None,,,,,,,,,0,18,18,18,1052.159538500011,,,,,,,,,,,,,1052.1438366000075,1052.159538500011,1052.159538500011,1052.159538500011,1058.2378751999931,,,,1058.2467951000435,1058.2565374000696,1058.2565374000696,1058.303465600009,1058.3037210999755,1058.3201179000316,1058.3201179000316,1058.3201179000316,1058.4033719999716,1058.8202683000127,,,,,,,,,,,,,,,,,,,,,,up,6.074079299927689,None,space,0.48971130000427365,None,P123,001,2025-02-25_14h22.46.898,posner_endo_new1,2024.2.4,60.05259407086605,2025-02-25 14h22.55.477619 +0000,
cube_l.png,0.1,10,catch,19,19,0,up,8.716831799945794,None,None,,,,,,,,,,,0,19,19,19,1058.8361720000394,,,,,,,,,,,,,1058.8204557000427,1058.8361720000394,1058.8361720000394,1058.8361720000394,1067.5622363999719,,,,1067.5801890000002,1067.5912505000597,1067.5912505000597,1067.6273176000686,1067.627848300035,1067.643726499984,1067.643726499984,1067.643726499984,1067.7269444999984,1070.6416948999977,,,,,,,1069.7415920000058,1070.6573160999687,1070.6573160999687,1070.6573160999687,,,,,,,,,,,,up,8.716831799945794,None,None,,,P123,001,2025-02-25_14h22.46.898,posner_endo_new1,2024.2.4,60.05259407086605,2025-02-25 14h22.55.477619 +0000,
cube_l.png,0.1,0.31,invalid,20,20,0,up,9.191960399970412,None,space,0.4574283000547439,None,,,,,,,,,0,20,20,20,1070.6573160999687,,,,,,,,,,,,,1070.642120799981,1070.6573160999687,1070.6573160999687,1070.6573160999687,1079.8655859000282,,,,1079.8727502999827,1079.8844030000037,1079.8844030000037,1079.9316364000551,1079.9318574999925,1079.9476779999677,1079.9476779999677,1079.9476779999677,1080.0139051000588,1080.4150494000642,,,,,,,,,,,,,,,,,,,,,,up,9.191960399970412,None,space,0.4574283000547439,None,P123,001,2025-02-25_14h22.46.898,posner_endo_new1,2024.2.4,60.05259407086605,2025-02-25 14h22.55.477619 +0000,
cube_l.png,0.1,-0.31,valid,21,21,0,up,7.001850300002843,None,space,0.3922182999085635,None,,,,,,,,,0,21,21,21,1080.4309763000347,,,,,,,,,,,,,1080.4152239999967,1080.4309763000347,1080.4309763000347,1080.4309763000347,1087.4411787000718,,,,1087.4474666999886,1087.459211600013,1087.459211600013,1087.5070011999924,1087.507231800002,1087.5235968000488,1087.5235968000488,1087.5235968000488,1087.606673900038,1087.9235376999713,,,,,,,,,,,,,,,,,,,,,,up,7.001850300002843,None,space,0.3922182999085635,None,P123,001,2025-02-25_14h22.46.898,posner_endo_new1,2024.2.4,60.05259407086605,2025-02-25 14h22.55.477619 +0000,
cube_r.png,0.1,0.31,valid,22,22,0,up,8.269726400030777,None,space,0.3718439000658691,None,,,,,,,,,0,22,22,22,1087.9398420000216,,,,,,,,,,,,,1087.9237118000165,1087.9398420000216,1087.9398420000216,1087.9398420000216,1096.2157961999765,,,,1096.2299838999752,1096.2400504000252,1096.2400504000252,1096.2810363000026,1096.2814381000353,1096.2975083000492,1096.2975083000492,1096.2975083000492,1096.3807514000218,1096.6818347000517,,,,,,,,,,,,,,,,,,,,,,up,8.269726400030777,None,space,0.3718439000658691,None,P123,001,2025-02-25_14h22.46.898,posner_endo_new1,2024.2.4,60.05259407086605,2025-02-25 14h22.55.477619 +0000,
cube_r.png,0.1,-0.31,invalid,23,23,0,up,14.056764199980535,None,space,0.37237360002472997,None,,,,,,,,,0,23,23,23,1096.6970887000207,,,,,,,,,,,,,1096.682166100014,1096.6970887000207,1096.6970887000207,1096.6970887000207,1110.7673776999582,,,,1110.781848100014,1110.7919473999646,1110.7919473999646,1110.8328541000374,1110.8332630000077,1110.849326299969,1110.849326299969,1110.849326299969,1110.9325443999842,1111.2335840000305,,,,,,,,,,,,,,,,,,,,,,up,14.056764199980535,None,space,0.37237360002472997,None,P123,001,2025-02-25_14h22.46.898,posner_endo_new1,2024.2.4,60.05259407086605,2025-02-25 14h22.55.477619 +0000,
cube_r.png,0.1,0.31,valid,24,24,0,up,7.008462400059216,None,space,1.26994739996735,None,,,,,,,,,0,24,24,24,1111.2488945999648,,,,,,,,,,,,,1111.2339231000515,1111.2488945999648,1111.2488945999648,1111.2488945999648,1118.2598866999615,,,,1118.2694865000667,1118.2795450000558,1118.2795450000558,1118.3256969000213,1118.3259839999955,1118.3420152000617,1118.3420152000617,1118.3420152000617,1118.4252663999796,1119.6251259000273,,,,,,,,,,,,,,,,,,,,,,up,7.008462400059216,None,space,1.26994739996735,None,P123,001,2025-02-25_14h22.46.898,posner_endo_new1,2024.2.4,60.05259407086605,2025-02-25 14h22.55.477619 +0000,
cube_r.png,0.1,-0.31,invalid,25,25,0,up,7.7859541000798345,None,space,0.6363698999630287,None,,,,,,,,,0,25,25,25,1119.6408624000615,,,,,,,,,,,,,1119.6253550000256,1119.6408624000615,1119.6408624000615,1119.6408624000615,1127.4336749999784,,,,1127.442498199991,1127.4525762000121,1127.4525762000121,1127.4995944000548,1127.4998843000503,1127.5161458000075,1127.5161458000075,1127.5161458000075,1127.599445900065,1128.1662281999597,,,,,,,,,,,,,,,,,,,,,,up,7.7859541000798345,None,space,0.6363698999630287,None,P123,001,2025-02-25_14h22.46.898,posner_endo_new1,2024.2.4,60.05259407086605,2025-02-25 14h22.55.477619 +0000,
cube_l.png,0.1,-0.31,valid,26,26,0,up,14.77174399991054,None,space,0.31314790004398674,None,,,,,,,,,0,26,26,26,1128.1819682000205,,,,,,,,,,,,,1128.166455800063,1128.1819682000205,1128.1819682000205,1128.1819682000205,1142.9678372000344,,,,1142.9766752000432,1142.986652599997,1142.986652599997,1143.0336546000326,1143.033945400035,1143.0501816000324,1143.0501816000324,1143.0501816000324,1143.133378300001,1143.3676523000468,,,,,,,,,,,,,,,,,,,,,,up,14.77174399991054,None,space,0.31314790004398674,None,P123,001,2025-02-25_14h22.46.898,posner_endo_new1,2024.2.4,60.05259407086605,2025-02-25 14h22.55.477619 +0000,
cube_r.png,0.1,0.31,valid,27,27,0,up,9.066235300037079,None,space,0.4001175999874249,None,,,,,,,,,0,27,27,27,1143.3832634000573,,,,,,,,,,,,,1143.367879300029,1143.3832634000573,1143.3832634000573,1143.3832634000573,1152.4597499000374,,,,1152.480159000028,1152.4907026999863,1152.4907026999863,1152.523791900021,1152.5242505000206,1152.5403114999644,1152.5403114999644,1152.5403114999644,1152.6233957000077,1152.9577080999734,,,,,,,,,,,,,,,,,,,,,,up,9.066235300037079,None,space,0.4001175999874249,None,P123,001,2025-02-25_14h22.46.898,posner_endo_new1,2024.2.4,60.05259407086605,2025-02-25 14h22.55.477619 +0000,
cube_r.png,0.1,10,catch,28,28,0,up,8.740146499942057,None,None,,,,,,,,,,,0,28,28,28,1152.973035300034,,,,,,,,,,,,,1152.958087200066,1152.973035300034,1152.973035300034,1152.973035300034,1161.7155199999688,,,,1161.725794399972,1161.735783800017,1161.735783800017,1161.7810432000551,1161.7813642000547,1161.7976531999884,1161.7976531999884,1161.7976531999884,1161.8808635000605,1164.7951676000375,,,,,,,1163.8954754000297,1164.8113152000587,1164.8113152000587,1164.8113152000587,,,,,,,,,,,,up,8.740146499942057,None,None,,,P123,001,2025-02-25_14h22.46.898,posner_endo_new1,2024.2.4,60.05259407086605,2025-02-25 14h22.55.477619 +0000,
cube_r.png,0.1,0.31,valid,29,29,0,up,4.934035599930212,None,space,0.6078249000711367,None,,,,,,,,,0,29,29,29,1164.8113152000587,,,,,,,,,,,,,1164.795404399978,1164.8113152000587,1164.8113152000587,1164.8113152000587,1169.75719699997,,,,1169.7672338000266,1169.7773207999999,1169.7773207999999,1169.822994200047,1169.823318400071,1169.8394370999886,1169.8394370999886,1169.8394370999886,1169.922651299974,1170.456595399999,,,,,,,,,,,,,,,,,,,,,,up,4.934035599930212,None,space,0.6078249000711367,None,P123,001,2025-02-25_14h22.46.898,posner_endo_new1,2024.2.4,60.05259407086605,2025-02-25 14h22.55.477619 +0000,
cube_r.png,0.1,0.31,valid,30,30,0,up,11.680932000046596,None,space,0.37134339998010546,None,,,,,,,,,0,30,30,30,1170.472088300041,,,,,,,,,,,,,1170.4568584000226,1170.472088300041,1170.472088300041,1170.472088300041,1182.1612158999778,,,,1182.1712851000484,1182.1813573000254,1182.1813573000254,1182.2268908000551,1182.2272128000623,1182.2435132999672,1182.2435132999672,1182.2435132999672,1182.3267613999778,1182.6273583000293,,,,,,,,,,,,,,,,,,,,,,up,11.680932000046596,None,space,0.37134339998010546,None,P123,001,2025-02-25_14h22.46.898,posner_endo_new1,2024.2.4,60.05259407086605,2025-02-25 14h22.55.477619 +0000,
cube_l.png,0.1,-0.31,valid,31,31,0,up,7.479009400005452,None,space,0.4140838000457734,None,,,,,,,,,0,31,31,31,1182.642999200034,,,,,,,,,,,,,1182.627612399985,1182.642999200034,1182.642999200034,1182.642999200034,1190.136414800072,,,,1190.1464556000428,1190.156456500059,1190.156456500059,1190.202056900016,1190.2023753999965,1190.21867750003,1190.21867750003,1190.21867750003,1190.3018350000493,1190.6357681000372,,,,,,,,,,,,,,,,,,,,,,up,7.479009400005452,None,space,0.4140838000457734,None,P123,001,2025-02-25_14h22.46.898,posner_endo_new1,2024.2.4,60.05259407086605,2025-02-25 14h22.55.477619 +0000,
cube_r.png,0.1,0.31,valid,32,32,0,up,10.89365700003691,None,space,0.5768613000400364,None,,,,,,,,,0,32,32,32,1190.6515024000546,,,,,,,,,,,,,1190.6360290000448,1190.6515024000546,1190.6515024000546,1190.6515024000546,1201.5580360000022,,,,1201.5680901000742,1201.5780919999816,1201.5780919999816,1201.6238370999927,1201.6241609000135,1201.6402878999943,1201.6402878999943,1201.6402878999943,1201.7236150000244,1202.2239838000387,,,,,,,,,,,,,,,,,,,,,,up,10.89365700003691,None,space,0.5768613000400364,None,P123,001,2025-02-25_14h22.46.898,posner_endo_new1,2024.2.4,60.05259407086605,2025-02-25 14h22.55.477619 +0000,
cube_r.png,0.1,-0.31,invalid,33,33,0,up,6.441737000015564,None,space,0.44158049998804927,None,,,,,,,,,0,33,33,33,1202.2397624000441,,,,,,,,,,,,,1202.2242479000706,1202.2397624000441,1202.2397624000441,1202.2397624000441,1208.6839266000316,,,,1208.6900440000463,1208.7016418999992,1208.7016418999992,1208.7499886000296,1208.7502207000507,1208.7662642999785,1208.7662642999785,1208.7662642999785,1208.8496664999984,1209.2165803000098,,,,,,,,,,,,,,,,,,,,,,up,6.441737000015564,None,space,0.44158049998804927,None,P123,001,2025-02-25_14h22.46.898,posner_endo_new1,2024.2.4,60.05259407086605,2025-02-25 14h22.55.477619 +0000,
cube_r.png,0.1,10,catch,34,34,0,up,8.66550969996024,None,None,,,,,,,,,,,0,34,34,34,1209.2326092000585,,,,,,,,,,,,,1209.216761299991,1209.2326092000585,1209.2326092000585,1209.2326092000585,1217.9078493000707,,,,1217.9138420000672,1217.9253155000042,1217.9253155000042,1217.973518599989,1217.9737508000107,1217.9902799000265,1217.9902799000265,1217.9902799000265,1218.0564599999925,1220.9877451000502,,,,,,,1220.0709773000563,1221.0037566999672,1221.0037566999672,1221.0037566999672,,,,,,,,,,,,up,8.66550969996024,None,None,,,P123,001,2025-02-25_14h22.46.898,posner_endo_new1,2024.2.4,60.05259407086605,2025-02-25 14h22.55.477619 +0000,
cube_r.png,0.1,0.31,valid,35,35,0,up,8.405554000055417,None,space,0.36531969998031855,None,,,,,,,,,0,35,35,35,1221.0037566999672,,,,,,,,,,,,,1220.9879067000002,1221.0037566999672,1221.0037566999672,1221.0037566999672,1229.4128654999658,,,,1229.4188928999938,1229.430539999972,1229.430539999972,1229.4785998000298,1229.478838799987,1229.4952675000532,1229.4952675000532,1229.4952675000532,1229.561396199977,1229.8622265000595,,,,,,,,,,,,,,,,,,,,,,up,8.405554000055417,None,space,0.36531969998031855,None,P123,001,2025-02-25_14h22.46.898,posner_endo_new1,2024.2.4,60.05259407086605,2025-02-25 14h22.55.477619 +0000,
cube_r.png,0.1,-0.31,invalid,36,36,0,up,9.083073599962518,None,space,0.36112550005782396,None,,,,,,,,,0,36,36,36,1229.8781792999944,,,,,,,,,,,,,1229.8624012999935,1229.8781792999944,1229.8781792999944,1229.8781792999944,1238.9714298000326,,,,1238.9932947000489,1239.0035660000285,1239.0035660000285,1239.0355219000485,1239.0358802999835,1239.0519235000247,1239.0519235000247,1239.0519235000247,1239.1351904000621,1239.4196051000617,,,,,,,,,,,,,,,,,,,,,,up,9.083073599962518,None,space,0.36112550005782396,None,P123,001,2025-02-25_14h22.46.898,posner_endo_new1,2024.2.4,60.05259407086605,2025-02-25 14h22.55.477619 +0000,
cube_l.png,0.1,0.31,invalid,37,37,0,up,10.879165099933743,None,space,0.33925930003169924,None,,,,,,,,,0,37,37,37,1239.4348937000614,,,,,,,,,,,,,1239.4199119000696,1239.4348937000614,1239.4348937000614,1239.4348937000614,1250.3248891000403,,,,1250.3351760000223,1250.3447436999995,1250.3447436999995,1250.3905688000377,1250.3908183999592,1250.4071606000653,1250.4071606000653,1250.4071606000653,1250.4904861999676,1250.7577031999826,,,,,,,,,,,,,,,,,,,,,,up,10.879165099933743,None,space,0.33925930003169924,None,P123,001,2025-02-25_14h22.46.898,posner_endo_new1,2024.2.4,60.05259407086605,2025-02-25 14h22.55.477619 +0000,
cube_l.png,0.1,0.31,invalid,38,38,0,up,10.252765299985185,None,space,0.3254353000083938,None,,,,,,,,,0,38,38,38,1250.7732559000142,,,,,,,,,,,,,1250.7578886999981,1250.7732559000142,1250.7732559000142,1250.7732559000142,1261.030561099993,,,,1261.037617300055,1261.0493905000621,1261.0493905000621,1261.0962735000066,1261.0965220000362,1261.1124585999642,1261.1124585999642,1261.1124585999642,1261.1962329000235,1261.4462503000395,,,,,,,,,,,,,,,,,,,,,,up,10.252765299985185,None,space,0.3254353000083938,None,P123,001,2025-02-25_14h22.46.898,posner_endo_new1,2024.2.4,60.05259407086605,2025-02-25 14h22.55.477619 +0000,
cube_r.png,0.1,0.31,valid,39,39,0,up,9.74751659994945,None,space,0.4374997999984771,None,,,,,,,,,0,39,39,39,1261.462408100022,,,,,,,,,,,,,1261.4464388999622,1261.462408100022,1261.462408100022,1261.462408100022,1271.2198506999994,,,,1271.226827800041,1271.2385110000614,1271.2385110000614,1271.2858948999783,1271.2861405999865,1271.3026547000045,1271.3026547000045,1271.3026547000045,1271.3689668000443,1271.752794799977,,,,,,,,,,,,,,,,,,,,,,up,9.74751659994945,None,space,0.4374997999984771,None,P123,001,2025-02-25_14h22.46.898,posner_endo_new1,2024.2.4,60.05259407086605,2025-02-25 14h22.55.477619 +0000,
cube_l.png,0.1,0.31,invalid,40,40,0,up,10.705448399996385,None,space,0.3495444000000134,None,,,,,,,,,0,40,40,40,1271.7688153999625,,,,,,,,,,,,,1271.7529842000222,1271.7688153999625,1271.7688153999625,1271.7688153999625,1282.4752565000672,,,,1282.4822524000192,1282.4939069000538,1282.4939069000538,1282.5408813999966,1282.5411258999957,1282.5575305999955,1282.5575305999955,1282.5575305999955,1282.6408662999747,1282.9083740999922,,,,,,,,,,,,,,,,,,,,,,up,10.705448399996385,None,space,0.3495444000000134,None,P123,001,2025-02-25_14h22.46.898,posner_endo_new1,2024.2.4,60.05259407086605,2025-02-25 14h22.55.477619 +0000,
cube_l.png,0.1,10,catch,41,41,0,up,10.854097199975513,None,None,,,,,,,,,,,0,41,41,41,1282.924064700026,,,,,,,,,,,,,1282.908562000026,1282.924064700026,1282.924064700026,1282.924064700026,1293.7803681000369,,,,1293.787405100069,1293.7989524999866,1293.7989524999866,1293.8461496999953,1293.8464013000485,1293.8627164000645,1293.8627164000645,1293.8627164000645,1293.9459542999975,1296.8601292000385,,,,,,,1295.9605908000376,1296.8763339000288,1296.8763339000288,1296.8763339000288,,,,,,,,,,,,up,10.854097199975513,None,None,,,P123,001,2025-02-25_14h22.46.898,posner_endo_new1,2024.2.4,60.05259407086605,2025-02-25 14h22.55.477619 +0000,
cube_l.png,0.1,-0.31,valid,42,42,0,up,9.485283400048502,None,space,0.4098372000735253,None,,,,,,,,,0,42,42,42,1296.8763339000288,,,,,,,,,,,,,1296.8603098000167,1296.8763339000288,1296.8763339000288,1296.8763339000288,1306.3674751999788,,,,1306.3745631000493,1306.3863450000063,1306.3863450000063,1306.4332987000234,1306.43355159997,1306.4498314000666,1306.4498314000666,1306.4498314000666,1306.5166203000117,1306.8670059000142,,,,,,,,,,,,,,,,,,,,,,up,9.485283400048502,None,space,0.4098372000735253,None,P123,001,2025-02-25_14h22.46.898,posner_endo_new1,2024.2.4,60.05259407086605,2025-02-25 14h22.55.477619 +0000,
cube_l.png,0.1,10,catch,43,43,0,up,12.583460900001228,None,None,,,,,,,,,,,0,43,43,43,1306.8827394000255,,,,,,,,,,,,,1306.8671940000495,1306.8827394000255,1306.8827394000255,1306.8827394000255,1319.470822900068,,,,1319.4778287999798,1319.4895056000678,1319.4895056000678,1319.53662550007,1319.5368771000067,1319.5532657000003,1319.5532657000003,1319.5532657000003,1319.6359994000522,1322.5507180000423,,,,,,,1321.6507547000656,1322.5668302000267,1322.5668302000267,1322.5668302000267,,,,,,,,,,,,up,12.583460900001228,None,None,,,P123,001,2025-02-25_14h22.46.898,posner_endo_new1,2024.2.4,60.05259407086605,2025-02-25 14h22.55.477619 +0000,
cube_l.png,0.1,0.31,invalid,44,44,0,up,5.787319700000808,None,space,0.5248321000253782,None,,,,,,,,,0,44,44,44,1322.5668302000267,,,,,,,,,,,,,1322.550897100009,1322.5668302000267,1322.5668302000267,1322.5668302000267,1328.3634317000397,,,,1328.38662200002,1328.3993915000465,1328.3993915000465,1328.4275514000328,1328.4278701000148,1328.4440107999835,1328.4440107999835,1328.4440107999835,1328.5273333999794,1328.977858499973,,,,,,,,,,,,,,,,,,,,,,up,5.787319700000808,None,space,0.5248321000253782,None,P123,001,2025-02-25_14h22.46.898,posner_endo_new1,2024.2.4,60.05259407086605,2025-02-25 14h22.55.477619 +0000,
cube_l.png,0.1,0.31,invalid,45,45,0,up,10.111905600060709,None,space,0.34052049997262657,None,,,,,,,,,0,45,45,45,1328.9934615000384,,,,,,,,,,,,,1328.9781146000605,1328.9934615000384,1328.9934615000384,1328.9934615000384,1339.1174823000329,,,,1339.1272637000075,1339.1373836999992,1339.1373836999992,1339.1832442999585,1339.1835651000729,1339.1997672000434,1339.1997672000434,1339.1997672000434,1339.2830187999643,1339.5503963000374,,,,,,,,,,,,,,,,,,,,,,up,10.111905600060709,None,space,0.34052049997262657,None,P123,001,2025-02-25_14h22.46.898,posner_endo_new1,2024.2.4,60.05259407086605,2025-02-25 14h22.55.477619 +0000,
cube_r.png,0.1,0.31,valid,46,46,0,up,11.651370199979283,None,space,0.3610253999941051,None,,,,,,,,,0,46,46,46,1339.566040600068,,,,,,,,,,,,,1339.5506536000175,1339.566040600068,1339.566040600068,1339.566040600068,1351.2219781000167,,,,1351.2318078000098,1351.2418576000491,1351.2418576000491,1351.2875656000106,1351.2878830999834,1351.304073199979,1351.304073199979,1351.304073199979,1351.387251200038,1351.6714427999686,,,,,,,,,,,,,,,,,,,,,,up,11.651370199979283,None,space,0.3610253999941051,None,P123,001,2025-02-25_14h22.46.898,posner_endo_new1,2024.2.4,60.05259407086605,2025-02-25 14h22.55.477619 +0000,
cube_l.png,0.1,-0.31,valid,47,47,0,up,12.026535199955106,None,space,0.43551879993174225,None,,,,,,,,,0,47,47,47,1351.686990999966,,,,,,,,,,,,,1351.6717027999694,1351.686990999966,1351.686990999966,1351.686990999966,1363.725640199962,,,,1363.7354564999696,1363.745510000037,1363.745510000037,1363.7913950000657,1363.7917245000135,1363.8079221000662,1363.8079221000662,1363.8079221000662,1363.8911881999811,1364.2584618000546,,,,,,,,,,,,,,,,,,,,,,up,12.026535199955106,None,space,0.43551879993174225,None,P123,001,2025-02-25_14h22.46.898,posner_endo_new1,2024.2.4,60.05259407086605,2025-02-25 14h22.55.477619 +0000,
cube_r.png,0.1,-0.31,invalid,48,48,0,up,8.983683000085875,None,space,0.5067011000355706,None,,,,,,,,,0,48,48,48,1364.2741574000102,,,,,,,,,,,,,1364.2587276999839,1364.2741574000102,1364.2741574000102,1364.2741574000102,1373.2676057000645,,,,1373.2908868000377,1373.3031149000162,1373.3031149000162,1373.3313453000737,1373.3317122000735,1373.3477948000655,1373.3477948000655,1373.3477948000655,1373.4313584000338,1373.8654682000633,,,,,,,,,,,,,,,,,,,,,,up,8.983683000085875,None,space,0.5067011000355706,None,P123,001,2025-02-25_14h22.46.898,posner_endo_new1,2024.2.4,60.05259407086605,2025-02-25 14h22.55.477619 +0000,
cube_r.png,0.1,10,catch,49,49,0,up,11.089433000073768,None,None,,,,,,,,,,,0,49,49,49,1373.8809442999773,,,,,,,,,,,,,1373.8657674000133,1373.8809442999773,1373.8809442999773,1373.8809442999773,1384.98785819998,,,,1385.0052019000286,1385.0157641000114,1385.0157641000114,1385.0530295000644,1385.053573000012,1385.069438299979,1385.069438299979,1385.069438299979,1385.1526525999652,1388.0674184999662,,,,,,,1387.1673073000275,1388.0830236000475,1388.0830236000475,1388.0830236000475,,,,,,,,,,,,up,11.089433000073768,None,None,,,P123,001,2025-02-25_14h22.46.898,posner_endo_new1,2024.2.4,60.05259407086605,2025-02-25 14h22.55.477619 +0000,
cube_l.png,0.1,-0.31,valid,50,50,0,up,9.4064147999743,None,space,0.4158562000375241,None,,,,,,,,,0,50,50,50,1388.0830236000475,,,,,,,,,,,,,1388.0678361000028,1388.0830236000475,1388.0830236000475,1388.0830236000475,1397.4914769000607,,,,1397.5032264000038,1397.5134396000067,1397.5134396000067,1397.5568467000267,1397.557209999999,1397.5733101000078,1397.5733101000078,1397.5733101000078,1397.656567899976,1397.9910041000694,,,,,,,,,,,,,,,,,,,,,,up,9.4064147999743,None,space,0.4158562000375241,None,P123,001,2025-02-25_14h22.46.898,posner_endo_new1,2024.2.4,60.05259407086605,2025-02-25 14h22.55.477619 +0000,
cube_l.png,0.1,-0.31,valid,51,51,0,up,10.907988799968734,None,space,0.5011999999405816,None,,,,,,,,,0,51,51,51,1398.006177400006,,,,,,,,,,,,,1397.9913117999677,1398.006177400006,1398.006177400006,1398.006177400006,1408.929625299992,,,,1408.9413463000674,1408.951467600069,1408.951467600069,1408.9951949999668,1408.9955582000548,1409.0115906000137,1409.0115906000137,1409.0115906000137,1409.0949746000115,1409.5289826999651,,,,,,,,,,,,,,,,,,,,,,up,10.907988799968734,None,space,0.5011999999405816,None,P123,001,2025-02-25_14h22.46.898,posner_endo_new1,2024.2.4,60.05259407086605,2025-02-25 14h22.55.477619 +0000,
cube_r.png,0.1,-0.31,invalid,52,52,0,up,7.873051700065844,None,space,0.38201539998408407,None,,,,,,,,,0,52,52,52,1409.5444863999728,,,,,,,,,,,,,1409.5292794000125,1409.5444863999728,1409.5444863999728,1409.5444863999728,1417.420898500015,,,,1417.432546199998,1417.4427514000563,1417.4427514000563,1417.4865397000685,1417.4867962000426,1417.5030648000538,1417.5030648000538,1417.5030648000538,1417.586232200032,1417.8866174999857,,,,,,,,,,,,,,,,,,,,,,up,7.873051700065844,None,space,0.38201539998408407,None,P123,001,2025-02-25_14h22.46.898,posner_endo_new1,2024.2.4,60.05259407086605,2025-02-25 14h22.55.477619 +0000,
cube_l.png,0.1,-0.31,valid,53,53,0,up,10.259056500042789,None,space,0.34195430006366223,None,,,,,,,,,0,53,53,53,1417.9026815000689,,,,,,,,,,,,,1417.8868194000097,1417.9026815000689,1417.9026815000689,1417.9026815000689,1428.1764293999877,,,,1428.183872899972,1428.195555399987,1428.195555399987,1428.242253500037,1428.2427827999927,1428.258652599994,1428.258652599994,1428.258652599994,1428.341897699982,1428.6101701000007,,,,,,,,,,,,,,,,,,,,,,up,10.259056500042789,None,space,0.34195430006366223,None,P123,001,2025-02-25_14h22.46.898,posner_endo_new1,2024.2.4,60.05259407086605,2025-02-25 14h22.55.477619 +0000,
cube_r.png,0.1,10,catch,54,54,0,up,11.52932630002033,None,None,,,,,,,,,,,0,54,54,54,1428.6249326000689,,,,,,,,,,,,,1428.610622700071,1428.6249326000689,1428.6249326000689,1428.6249326000689,1440.1643779000733,,,,1440.1749846000457,1440.1846035000635,1440.1846035000635,1440.2300033000065,1440.2302483000094,1440.2465983000584,1440.2465983000584,1440.2465983000584,1440.329800400068,1443.244201799971,,,,,,,1442.344023999991,1443.2600652000401,1443.2600652000401,1443.2600652000401,,,,,,,,,,,,up,11.52932630002033,None,None,,,P123,001,2025-02-25_14h22.46.898,posner_endo_new1,2024.2.4,60.05259407086605,2025-02-25 14h22.55.477619 +0000,
cube_l.png,0.1,0.31,invalid,55,55,0,up,7.270585800055414,None,space,0.47308379993773997,None,,,,,,,,,0,55,55,55,1443.2600652000401,,,,,,,,,,,,,1443.244378900039,1443.2600652000401,1443.2600652000401,1443.2600652000401,1450.5387767000357,,,,1450.5619802,1450.5742710999912,1450.5742710999912,1450.6026133999694,1450.603077900014,1450.6190696000122,1450.6190696000122,1450.6190696000122,1450.702226000023,1451.103189400048,,,,,,,,,,,,,,,,,,,,,,up,7.270585800055414,None,space,0.47308379993773997,None,P123,001,2025-02-25_14h22.46.898,posner_endo_new1,2024.2.4,60.05259407086605,2025-02-25 14h22.55.477619 +0000,
cube_l.png,0.1,-0.31,valid,56,56,0,up,11.762888600002043,None,space,0.383085299981758,None,,,,,,,,,0,56,56,56,1451.1186566000106,,,,,,,,,,,,,1451.1034445000114,1451.1186566000106,1451.1186566000106,1451.1186566000106,1462.891183800064,,,,1462.9010188999819,1462.9111879999982,1462.9111879999982,1462.9568977999734,1462.9572209999897,1462.9733852000209,1462.9733852000209,1462.9733852000209,1463.0564517000457,1463.3574900999665,,,,,,,,,,,,,,,,,,,,,,up,11.762888600002043,None,space,0.383085299981758,None,P123,001,2025-02-25_14h22.46.898,posner_endo_new1,2024.2.4,60.05259407086605,2025-02-25 14h22.55.477619 +0000,
cube_r.png,0.1,0.31,valid,57,57,0,up,10.845455599948764,None,space,0.4192869000835344,None,,,,,,,,,0,57,57,57,1463.3728713999735,,,,,,,,,,,,,1463.3577532999916,1463.3728713999735,1463.3728713999735,1463.3728713999735,1474.22946339997,,,,1474.239252600004,1474.2493059000699,1474.2493059000699,1474.2951192000182,1474.2954416000284,1474.3117206000024,1474.3117206000024,1474.3117206000024,1474.394955900032,1474.7457079000305,,,,,,,,,,,,,,,,,,,,,,up,10.845455599948764,None,space,0.4192869000835344,None,P123,001,2025-02-25_14h22.46.898,posner_endo_new1,2024.2.4,60.05259407086605,2025-02-25 14h22.55.477619 +0000,
cube_r.png,0.1,-0.31,invalid,58,58,0,up,8.521297400002368,None,space,0.5798530000029132,None,,,,,,,,,0,58,58,58,1474.761103900033,,,,,,,,,,,,,1474.745976599981,1474.761103900033,1474.761103900033,1474.761103900033,1483.286959100049,,,,1483.296801700024,1483.3068816000596,1483.3068816000596,1483.352573900018,1483.3528987000464,1483.3691181000322,1483.3691181000322,1483.3691181000322,1483.4523447999964,1483.9529026000528,,,,,,,,,,,,,,,,,,,,,,up,8.521297400002368,None,space,0.5798530000029132,None,P123,001,2025-02-25_14h22.46.898,posner_endo_new1,2024.2.4,60.05259407086605,2025-02-25 14h22.55.477619 +0000,
cube_l.png,0.1,0.31,invalid,59,59,0,up,6.889887099969201,None,space,0.5718383999774233,None,,,,,,,,,0,59,59,59,1483.9685771999648,,,,,,,,,,,,,1483.9531596000306,1483.9685771999648,1483.9685771999648,1483.9685771999648,1490.862603400019,,,,1490.8724342000205,1490.8824594999896,1490.8824594999896,1490.9282157999696,1490.9285375999752,1490.9446024000645,1490.9446024000645,1490.9446024000645,1491.0279936000006,1491.5285343000432,,,,,,,,,,,,,,,,,,,,,,up,6.889887099969201,None,space,0.5718383999774233,None,P123,001,2025-02-25_14h22.46.898,posner_endo_new1,2024.2.4,60.05259407086605,2025-02-25 14h22.55.477619 +0000,
