cue_img,cue_soa,target_y,trial,thisN,thisTrialN,thisRepN,key_control2.keys,key_control2.rt,key_control2.duration,key_resp.keys,key_resp.rt,key_resp.duration,practice.thisRepN,practice.thisTrialN,practice.thisN,practice.thisIndex,block1.thisRepN,block1.thisTrialN,block1.thisN,block1.thisIndex,block2.thisRepN,block2.thisTrialN,block2.thisN,block2.thisIndex,thisRow.t,notes,instructions.started,instructions_txt.started,key_control.started,instructions.stopped,key_control.keys,key_control.rt,key_control.duration,ready.started,ready_txt.started,ready_txt.stopped,ready.stopped,fix.started,fixation.started,key_control2.started,fixation_cross.started,fix.stopped,practice.key_control2.keys,practice.key_control2.rt,practice.key_control2.duration,cue.started,cube.started,fixation_cross_cue.started,cue.stopped,target.started,fixation_target.started,fixation_cross_target.started,key_resp.started,star.started,target.stopped,practice.key_resp.keys,practice.key_resp.rt,practice.key_resp.duration,star.stopped,fixation_target.stopped,fixation_cross_target.stopped,key_resp.stopped,block1.key_control2.keys,block1.key_control2.rt,block1.key_control2.duration,block1.key_resp.keys,block1.key_resp.rt,block1.key_resp.duration,break_2.started,text.started,key_control3.started,text.stopped,break_2.stopped,key_control3.keys,key_control3.rt,key_control3.duration,block2.key_control2.keys,block2.key_control2.rt,block2.key_control2.duration,block2.key_resp.keys,block2.key_resp.rt,block2.key_resp.duration,participant,session,date,expName,psychopyVersion,frameRate,expStart,
,,,,,,,,,,,,,,,,,,,,,,,,,,,0.007909299922175705,0.02395599998999387,0.02395599998999387,5.924858200014569,up,5.887253899942152,None,,,,,,,,,,,,,,,,,,,,,,,,,,,,,,,,,,,,,,,,,,,,,,,,,,P124,001,2025-02-25_15h12.57.875,posner_endo_new1,2024.2.4,60.05006973792135,2025-02-25 15h13.06.195742 +0000,
,,,,,,,,,,,,,,,,,,,,,,,,,,,,,,,,,,5.924933400005102,5.93702079996001,8.941261200001463,8.915875799953938,,,,,,,,,,,,,,,,,,,,,,,,,,,,,,,,,,,,,,,,,,,,,,P124,001,2025-02-25_15h12.57.875,posner_endo_new1,2024.2.4,60.05006973792135,2025-02-25 15h13.06.195742 +0000,
cube_l.png,0.1,-0.31,valid,0,0,0,down,20.625335999997333,None,space,0.41667149995919317,None,0,0,0,0,,,,,,,,,8.941261200001463,,,,,,,,,,,,,8.92894269991666,8.941261200001463,8.941261200001463,8.941261200001463,29.57856199995149,down,20.625335999997333,None,29.596109799924307,29.60748979996424,29.60748979996424,29.644154699984938,29.644394899951294,29.66062769992277,29.66062769992277,29.66062769992277,29.74388719990384,30.09424070001114,space,0.41667149995919317,None,,,,,,,,,,,,,,,,,,,,,,,,,P124,001,2025-02-25_15h12.57.875,posner_endo_new1,2024.2.4,60.05006973792135,2025-02-25 15h13.06.195742 +0000,
cube_l.png,0.1,0.31,invalid,1,1,0,down,5.768536599935032,None,space,0.3168404999887571,None,0,1,1,1,,,,,,,,,30.110242199967615,,,,,,,,,,,,,30.094418399967253,30.110242199967615,30.110242199967615,30.110242199967615,35.888341299956664,down,5.768536599935032,None,35.89572999998927,35.9073580999393,35.9073580999393,35.95428049995098,35.954518000013195,35.97112549992744,35.97112549992744,35.97112549992744,36.03740829997696,36.304632999934256,space,0.3168404999887571,None,,,,,,,,,,,,,,,,,,,,,,,,,P124,001,2025-02-25_15h12.57.875,posner_endo_new1,2024.2.4,60.05006973792135,2025-02-25 15h13.06.195742 +0000,
cube_r.png,0.1,-0.31,invalid,2,2,0,down,6.453690099995583,None,space,0.34793189994525164,None,0,2,2,2,,,,,,,,,36.320481000002474,,,,,,,,,,,,,36.304799099918455,36.320481000002474,36.320481000002474,36.320481000002474,42.78108809993137,down,6.453690099995583,None,42.787766499910504,42.79930909990799,42.79930909990799,42.847366599948145,42.8476000999799,42.8636806999566,42.8636806999566,42.8636806999566,42.93041499995161,43.21426119992975,space,0.34793189994525164,None,,,,,,,,,,,,,,,,,,,,,,,,,P124,001,2025-02-25_15h12.57.875,posner_endo_new1,2024.2.4,60.05006973792135,2025-02-25 15h13.06.195742 +0000,
cube_r.png,0.1,10,catch,3,3,0,down,6.231997900060378,None,None,,,0,3,3,3,,,,,,,,,43.23011649993714,,,,,,,,,,,,,43.2144320999505,43.23011649993714,43.23011649993714,43.23011649993714,49.4746892999392,down,6.231997900060378,None,49.4809478999814,49.49267539998982,49.49267539998982,49.54043910000473,49.54067239991855,49.55702880001627,49.55702880001627,49.55702880001627,49.64026599994395,52.55470019998029,None,,,51.65500859997701,52.5705486999359,52.5705486999359,52.5705486999359,,,,,,,,,,,,,,,,,,,,,P124,001,2025-02-25_15h12.57.875,posner_endo_new1,2024.2.4,60.05006973792135,2025-02-25 15h13.06.195742 +0000,
cube_l.png,0.1,-0.31,valid,4,4,0,down,5.020212100003846,None,space,0.42241360002662987,None,0,4,4,4,,,,,,,,,52.5705486999359,,,,,,,,,,,,,52.554958699969575,52.5705486999359,52.5705486999359,52.5705486999359,57.59951329999603,down,5.020212100003846,None,57.60624969995115,57.61797709995881,57.61797709995881,57.66539009998087,57.66591659991536,57.68182479997631,57.68182479997631,57.68182479997631,57.748611499904655,58.11611239996273,space,0.42241360002662987,None,,,,,,,,,,,,,,,,,,,,,,,,,P124,001,2025-02-25_15h12.57.875,posner_endo_new1,2024.2.4,60.05006973792135,2025-02-25 15h13.06.195742 +0000,
cube_l.png,0.1,0.31,invalid,5,5,0,down,6.331761299981736,None,space,0.3889768000226468,None,0,5,5,5,,,,,,,,,58.13160899991635,,,,,,,,,,,,,58.11639159999322,58.13160899991635,58.13160899991635,58.13160899991635,64.47627119999379,down,6.331761299981736,None,64.48864859994501,64.49895999999717,64.49895999999717,64.54189619992394,64.54225659999065,64.55825110001024,64.55825110001024,64.55825110001024,64.64155489997938,64.95907839993015,space,0.3889768000226468,None,,,,,,,,,,,,,,,,,,,,,,,,,P124,001,2025-02-25_15h12.57.875,posner_endo_new1,2024.2.4,60.05006973792135,2025-02-25 15h13.06.195742 +0000,
cube_r.png,0.1,-0.31,invalid,6,6,0,down,5.895470999996178,None,space,0.3148433000314981,None,0,6,6,6,,,,,,,,,64.97488889994565,,,,,,,,,,,,,64.95936639991123,64.97488889994565,64.97488889994565,64.97488889994565,70.88631109998096,down,5.895470999996178,None,70.89571859990247,70.90546179993544,70.90546179993544,70.95181869994849,70.95206699997652,70.96830579999369,70.96830579999369,70.96830579999369,71.05171789997257,71.28570020000916,space,0.3148433000314981,None,,,,,,,,,,,,,,,,,,,,,,,,,P124,001,2025-02-25_15h12.57.875,posner_endo_new1,2024.2.4,60.05006973792135,2025-02-25 15h13.06.195742 +0000,
cube_r.png,0.1,0.31,valid,7,7,0,down,8.217483000014909,None,space,0.4094901999924332,None,0,7,7,7,,,,,,,,,71.30152709991671,,,,,,,,,,,,,71.28587639995385,71.30152709991671,71.30152709991671,71.30152709991671,79.52698419999797,down,8.217483000014909,None,79.53411219990812,79.54582679993473,79.54582679993473,79.59286949993111,79.5931173999561,79.60966459999327,79.60966459999327,79.60966459999327,79.67624739999883,80.0265848999843,space,0.4094901999924332,None,,,,,,,,,,,,,,,,,,,,,,,,,P124,001,2025-02-25_15h12.57.875,posner_endo_new1,2024.2.4,60.05006973792135,2025-02-25 15h13.06.195742 +0000,
cube_l.png,0.1,-0.31,valid,8,8,0,down,5.435612999950536,None,space,0.31369600002653897,None,0,8,8,8,,,,,,,,,80.04264679993503,,,,,,,,,,,,,80.02676179993432,80.04264679993503,80.04264679993503,80.04264679993503,85.48762739996891,down,5.435612999950536,None,85.49473949999083,85.50638789997902,85.50638789997902,85.55371469992679,85.5539671999868,85.57037039997522,85.57037039997522,85.57037039997522,85.63680929993279,85.8873502999777,space,0.31369600002653897,None,,,,,,,,,,,,,,,,,,,,,,,,,P124,001,2025-02-25_15h12.57.875,posner_endo_new1,2024.2.4,60.05006973792135,2025-02-25 15h13.06.195742 +0000,
cube_r.png,0.1,-0.31,invalid,9,9,0,down,7.3838579000439495,None,space,0.3393934000050649,None,0,9,9,9,,,,,,,,,85.90318109991495,,,,,,,,,,,,,85.88753219996579,85.90318109991495,85.90318109991495,85.90318109991495,93.29617739992682,down,7.3838579000439495,None,93.30328100000042,93.31502470001578,93.31502470001578,93.36228010000195,93.36252759990748,93.378913499997,93.378913499997,93.378913499997,93.44548829994164,93.72924030001741,space,0.3393934000050649,None,,,,,,,,,,,,,,,,,,,,,,,,,P124,001,2025-02-25_15h12.57.875,posner_endo_new1,2024.2.4,60.05006973792135,2025-02-25 15h13.06.195742 +0000,
cube_r.png,0.1,0.31,valid,10,10,0,down,6.36570640001446,None,space,0.40546529996208847,None,0,10,10,10,,,,,,,,,93.74506899993867,,,,,,,,,,,,,93.72941929998342,93.74506899993867,93.74506899993867,93.74506899993867,100.12270469998475,down,6.36570640001446,None,100.12984199996572,100.14159179991111,100.14159179991111,100.18869119998999,100.18893959990237,100.2053176999325,100.2053176999325,100.2053176999325,100.27173789998051,100.62220829993021,space,0.40546529996208847,None,,,,,,,,,,,,,,,,,,,,,,,,,P124,001,2025-02-25_15h12.57.875,posner_endo_new1,2024.2.4,60.05006973792135,2025-02-25 15h13.06.195742 +0000,
,,,,,,,,,,,,,,,,,,,,,,,,,,,,,,,,,,100.62232670001686,100.63801489991602,103.64051810000092,103.61858609993942,,,,,,,,,,,,,,,,,,,,,,,,,,,,,,,,,,,,,,,,,,,,,,P124,001,2025-02-25_15h12.57.875,posner_endo_new1,2024.2.4,60.05006973792135,2025-02-25 15h13.06.195742 +0000,
cube_l.png,0.1,10,catch,0,0,0,down,8.990068800048903,None,None,,,,,,,0,0,0,0,,,,,103.64051810000092,,,,,,,,,,,,,103.63163540000096,103.64051810000092,103.64051810000092,103.64051810000092,112.64364099991508,,,,112.65315719996579,112.66284849995282,112.66284849995282,112.70942029997241,112.70966129994486,112.72579129994847,112.72579129994847,112.72579129994847,112.80901789991185,115.72305939998478,,,,114.82316609995905,115.73889429995324,115.73889429995324,115.73889429995324,down,8.990068800048903,None,None,,,,,,,,,,,,,,,,,P124,001,2025-02-25_15h12.57.875,posner_endo_new1,2024.2.4,60.05006973792135,2025-02-25 15h13.06.195742 +0000,
cube_l.png,0.1,10,catch,1,1,0,down,4.387416000012308,None,None,,,,,,,0,1,1,1,,,,,115.73889429995324,,,,,,,,,,,,,115.72336760000326,115.73889429995324,115.73889429995324,115.73889429995324,120.13569129991811,,,,120.14853589993436,120.15868999995291,120.15868999995291,120.20117739995476,120.20158809993882,120.21766149997711,120.21766149997711,120.21766149997711,120.30090369994286,123.21542979998048,,,,122.31551280000713,123.23124290001579,123.23124290001579,123.23124290001579,down,4.387416000012308,None,None,,,,,,,,,,,,,,,,,P124,001,2025-02-25_15h12.57.875,posner_endo_new1,2024.2.4,60.05006973792135,2025-02-25 15h13.06.195742 +0000,
cube_l.png,0.1,0.31,invalid,2,2,0,down,4.3273731000954285,None,space,0.34841970005072653,None,,,,,0,2,2,2,,,,,123.23124290001579,,,,,,,,,,,,,123.21573449997231,123.23124290001579,123.23124290001579,123.23124290001579,127.56149170000572,,,,127.57006299996283,127.58023540000431,127.58023540000431,127.62742159992922,127.62772399990354,127.64394059998449,127.64394059998449,127.64394059998449,127.72705799993128,127.99446309998166,,,,,,,,down,4.3273731000954285,None,space,0.34841970005072653,None,,,,,,,,,,,,,,,P124,001,2025-02-25_15h12.57.875,posner_endo_new1,2024.2.4,60.05006973792135,2025-02-25 15h13.06.195742 +0000,
cube_l.png,0.1,0.31,invalid,3,3,0,down,6.772973100072704,None,space,0.40700060001108795,None,,,,,0,3,3,3,,,,,128.01004119997378,,,,,,,,,,,,,127.9946885999525,128.01004119997378,128.01004119997378,128.01004119997378,134.7876616999274,,,,134.79628929996397,134.80631369992625,134.80631369992625,134.85328399995342,134.85357499995735,134.86970329994801,134.86970329994801,134.86970329994801,134.95287979999557,135.28707149997354,,,,,,,,down,6.772973100072704,None,space,0.40700060001108795,None,,,,,,,,,,,,,,,P124,001,2025-02-25_15h12.57.875,posner_endo_new1,2024.2.4,60.05006973792135,2025-02-25 15h13.06.195742 +0000,
cube_l.png,0.1,-0.31,valid,4,4,0,down,6.537330099963583,None,space,0.34588899998925626,None,,,,,0,4,4,4,,,,,135.30272369994782,,,,,,,,,,,,,135.28730480000377,135.30272369994782,135.30272369994782,135.30272369994782,141.8469679999398,,,,141.8558580999961,141.86586879997049,141.86586879997049,141.912785399938,141.91307949996553,141.9290421999758,141.9290421999758,141.9290421999758,142.0124485999113,142.27997509995475,,,,,,,,down,6.537330099963583,None,space,0.34588899998925626,None,,,,,,,,,,,,,,,P124,001,2025-02-25_15h12.57.875,posner_endo_new1,2024.2.4,60.05006973792135,2025-02-25 15h13.06.195742 +0000,
cube_r.png,0.1,-0.31,invalid,5,5,0,down,7.246928700013086,None,space,0.38410669995937496,None,,,,,0,5,5,5,,,,,142.29551789991092,,,,,,,,,,,,,142.2801976999035,142.29551789991092,142.29551789991092,142.29551789991092,149.55563750001602,,,,149.56433809990995,149.57451249996666,149.57451249996666,149.62140800000634,149.62169429997448,149.63798020000104,149.63798020000104,149.63798020000104,149.72125049994793,150.03859999997076,,,,,,,,down,7.246928700013086,None,space,0.38410669995937496,None,,,,,,,,,,,,,,,P124,001,2025-02-25_15h12.57.875,posner_endo_new1,2024.2.4,60.05006973792135,2025-02-25 15h13.06.195742 +0000,
cube_r.png,0.1,0.31,valid,6,6,0,down,6.321480700047687,None,space,0.3919446000363678,None,,,,,0,6,6,6,,,,,150.05394099990372,,,,,,,,,,,,,150.03882359992713,150.05394099990372,150.05394099990372,150.05394099990372,156.38196949998382,,,,156.39072479994502,156.40080659999512,156.40080659999512,156.44783829990774,156.4481277000159,156.46437099995092,156.46437099995092,156.46437099995092,156.53088689991273,156.86492019996513,,,,,,,,down,6.321480700047687,None,space,0.3919446000363678,None,,,,,,,,,,,,,,,P124,001,2025-02-25_15h12.57.875,posner_endo_new1,2024.2.4,60.05006973792135,2025-02-25 15h13.06.195742 +0000,
cube_r.png,0.1,-0.31,invalid,7,7,0,down,7.046199499978684,None,space,0.3824254999635741,None,,,,,0,7,7,7,,,,,156.88064789993223,,,,,,,,,,,,,156.8651455999352,156.88064789993223,156.88064789993223,156.88064789993223,163.9408664999064,,,,163.94951309997123,163.95980279997457,163.95980279997457,164.00683749991003,164.00712650001515,164.02341129991692,164.02341129991692,164.02341129991692,164.08997289999388,164.40733349998482,,,,,,,,down,7.046199499978684,None,space,0.3824254999635741,None,,,,,,,,,,,,,,,P124,001,2025-02-25_15h12.57.875,posner_endo_new1,2024.2.4,60.05006973792135,2025-02-25 15h13.06.195742 +0000,
cube_l.png,0.1,-0.31,valid,8,8,0,down,6.688425300060771,None,space,0.36071260005701333,None,,,,,0,8,8,8,,,,,164.4227579999715,,,,,,,,,,,,,164.40755749994423,164.4227579999715,164.4227579999715,164.4227579999715,171.11699489993043,,,,171.12563639995642,171.13570569991134,171.13570569991134,171.18283039995003,171.1831251999829,171.19926619995385,171.19926619995385,171.19926619995385,171.28256289998535,171.56660899997223,,,,,,,,down,6.688425300060771,None,space,0.36071260005701333,None,,,,,,,,,,,,,,,P124,001,2025-02-25_15h12.57.875,posner_endo_new1,2024.2.4,60.05006973792135,2025-02-25 15h13.06.195742 +0000,
cube_r.png,0.1,-0.31,invalid,9,9,0,down,7.4080994999967515,None,space,0.3449609000235796,None,,,,,0,9,9,9,,,,,171.58235199993942,,,,,,,,,,,,,171.5668330999324,171.58235199993942,171.58235199993942,171.58235199993942,178.9924958999036,,,,179.0011952999048,179.01117169996724,179.01117169996724,179.05805389990564,179.058346399921,179.07466599997133,179.07466599997133,179.07466599997133,179.15787519991864,179.42524499993306,,,,,,,,down,7.4080994999967515,None,space,0.3449609000235796,None,,,,,,,,,,,,,,,P124,001,2025-02-25_15h12.57.875,posner_endo_new1,2024.2.4,60.05006973792135,2025-02-25 15h13.06.195742 +0000,
cube_l.png,0.1,0.31,invalid,10,10,0,down,6.8061917999293655,None,space,0.3413756999652833,None,,,,,0,10,10,10,,,,,179.44089929992333,,,,,,,,,,,,,179.42546980001498,179.44089929992333,179.44089929992333,179.44089929992333,186.2516032999847,,,,186.26019920001272,186.27035989996511,186.27035989996511,186.31731499999296,186.31761669996195,186.3338602000149,186.3338602000149,186.3338602000149,186.41707699990366,186.68452869995963,,,,,,,,down,6.8061917999293655,None,space,0.3413756999652833,None,,,,,,,,,,,,,,,P124,001,2025-02-25_15h12.57.875,posner_endo_new1,2024.2.4,60.05006973792135,2025-02-25 15h13.06.195742 +0000,
cube_r.png,0.1,-0.31,invalid,11,11,0,down,6.25095599994529,None,space,0.31160729995463043,None,,,,,0,11,11,11,,,,,186.70018029992934,,,,,,,,,,,,,186.68475389992818,186.70018029992934,186.70018029992934,186.70018029992934,192.9614186999388,,,,192.97017699992284,192.9803091000067,192.9803091000067,193.02711049991194,193.02764340001158,193.04351290001068,193.04351290001068,193.04351290001068,193.12675669998862,193.36176659993362,,,,,,,,down,6.25095599994529,None,space,0.31160729995463043,None,,,,,,,,,,,,,,,P124,001,2025-02-25_15h12.57.875,posner_endo_new1,2024.2.4,60.05006973792135,2025-02-25 15h13.06.195742 +0000,
cube_r.png,0.1,0.31,valid,12,12,0,down,7.406320400070399,None,space,0.2569264000048861,None,,,,,0,12,12,12,,,,,193.3764969999902,,,,,,,,,,,,,193.36220949993003,193.3764969999902,193.3764969999902,193.3764969999902,200.787064599921,,,,200.79608809994534,200.80587239994202,200.80587239994202,200.85243809991516,200.85269769991282,200.86889959999826,200.86889959999826,200.86889959999826,200.9521473000059,201.13639769994188,,,,,,,,down,7.406320400070399,None,space,0.2569264000048861,None,,,,,,,,,,,,,,,P124,001,2025-02-25_15h12.57.875,posner_endo_new1,2024.2.4,60.05006973792135,2025-02-25 15h13.06.195742 +0000,
cube_l.png,0.1,10,catch,13,13,0,down,7.103844599914737,None,space,0.35386770009063184,None,,,,,0,13,13,13,,,,,201.15191829996184,,,,,,,,,,,,,201.13659469992854,201.15191829996184,201.15191829996184,201.15191829996184,208.26227029995061,,,,208.26979289995506,208.28105779993348,208.28105779993348,208.3279376999708,208.32819679996464,208.34469439997338,208.34469439997338,208.34469439997338,208.42779679992236,208.71159819990862,,,,,,,,down,7.103844599914737,None,space,0.35386770009063184,None,,,,,,,,,,,,,,,P124,001,2025-02-25_15h12.57.875,posner_endo_new1,2024.2.4,60.05006973792135,2025-02-25 15h13.06.195742 +0000,
cube_r.png,0.1,-0.31,invalid,14,14,0,down,3.93563850002829,None,space,0.3614161000587046,None,,,,,0,14,14,14,,,,,208.7275468999287,,,,,,,,,,,,,208.7117971999105,208.7275468999287,208.7275468999287,208.7275468999287,212.67407899990212,,,,212.68142229993828,212.6931644999422,212.6931644999422,212.74026969994884,212.74050229997374,212.75688329990953,212.75688329990953,212.75688329990953,212.823001199984,213.1239135999931,,,,,,,,down,3.93563850002829,None,space,0.3614161000587046,None,,,,,,,,,,,,,,,P124,001,2025-02-25_15h12.57.875,posner_endo_new1,2024.2.4,60.05006973792135,2025-02-25 15h13.06.195742 +0000,
cube_l.png,0.1,-0.31,valid,15,15,0,down,5.683223600033671,None,space,0.32310699997469783,None,,,,,0,15,15,15,,,,,213.13941069995053,,,,,,,,,,,,,213.12407509994227,213.13941069995053,213.13941069995053,213.13941069995053,218.83480989991222,,,,218.84111599996686,218.85280290001538,218.85280290001538,218.90085209999233,218.90108819992747,218.9170993999578,218.9170993999578,218.9170993999578,218.983933600015,219.25109689997043,,,,,,,,down,5.683223600033671,None,space,0.32310699997469783,None,,,,,,,,,,,,,,,P124,001,2025-02-25_15h12.57.875,posner_endo_new1,2024.2.4,60.05006973792135,2025-02-25 15h13.06.195742 +0000,
cube_r.png,0.1,10,catch,16,16,0,down,6.843436700059101,None,None,,,,,,,0,16,16,16,,,,,219.26698780001607,,,,,,,,,,,,,219.25126689998433,219.26698780001607,219.26698780001607,219.26698780001607,226.12717339990195,,,,226.1335192999104,226.14502529997844,226.14502529997844,226.19330669997726,226.1935481999535,226.2098779999651,226.2098779999651,226.2098779999651,226.27637009997852,229.20731099997647,,,,228.2911674999632,229.22341470001265,229.22341470001265,229.22341470001265,down,6.843436700059101,None,None,,,,,,,,,,,,,,,,,P124,001,2025-02-25_15h12.57.875,posner_endo_new1,2024.2.4,60.05006973792135,2025-02-25 15h13.06.195742 +0000,
cube_r.png,0.1,10,catch,17,17,0,down,4.262998200021684,None,None,,,,,,,0,17,17,17,,,,,229.22341470001265,,,,,,,,,,,,,229.20747199992184,229.22341470001265,229.22341470001265,229.22341470001265,233.50324399990495,,,,233.50933389994316,233.52077349997126,233.52077349997126,233.56913249997888,233.56936630001292,233.58562189992517,233.58562189992517,233.58562189992517,233.6688765999861,236.58312759990804,,,,235.6834917999804,236.59928500000387,236.59928500000387,236.59928500000387,down,4.262998200021684,None,None,,,,,,,,,,,,,,,,,P124,001,2025-02-25_15h12.57.875,posner_endo_new1,2024.2.4,60.05006973792135,2025-02-25 15h13.06.195742 +0000,
cube_l.png,0.1,0.31,invalid,18,18,0,down,4.200033799977973,None,space,0.33999170002061874,None,,,,,0,18,18,18,,,,,236.59928500000387,,,,,,,,,,,,,236.5832888999721,236.59928500000387,236.59928500000387,236.59928500000387,240.8123031000141,,,,240.81869350001216,240.8304987999145,240.8304987999145,240.8783693999285,240.8786024999572,240.8948314000154,240.8948314000154,240.8948314000154,240.9614530999679,241.2452304000035,,,,,,,,down,4.200033799977973,None,space,0.33999170002061874,None,,,,,,,,,,,,,,,P124,001,2025-02-25_15h12.57.875,posner_endo_new1,2024.2.4,60.05006973792135,2025-02-25 15h13.06.195742 +0000,
cube_l.png,0.1,10,catch,19,19,0,down,7.63383960002102,None,None,,,,,,,0,19,19,19,,,,,241.26112639997154,,,,,,,,,,,,,241.24540099990554,241.26112639997154,241.26112639997154,241.26112639997154,248.90419159992598,,,,248.9131651999196,248.92286469996907,248.92286469996907,248.96996609994676,248.9702006999869,248.98651299998164,248.98651299998164,248.98651299998164,249.0697709999513,251.98408989992458,,,,251.08442689990625,252.00022019993048,252.00022019993048,252.00022019993048,down,7.63383960002102,None,None,,,,,,,,,,,,,,,,,P124,001,2025-02-25_15h12.57.875,posner_endo_new1,2024.2.4,60.05006973792135,2025-02-25 15h13.06.195742 +0000,
cube_l.png,0.1,0.31,invalid,20,20,0,down,4.039286099956371,None,space,0.412722900044173,None,,,,,0,20,20,20,,,,,252.00022019993048,,,,,,,,,,,,,251.98425239999779,252.00022019993048,252.00022019993048,252.00022019993048,256.0466549999546,,,,256.0531353999395,256.06507859996054,256.06507859996054,256.11272510001436,256.11296109994873,256.1291783999186,256.1291783999186,256.1291783999186,256.19602849998046,256.5462669999106,,,,,,,,down,4.039286099956371,None,space,0.412722900044173,None,,,,,,,,,,,,,,,P124,001,2025-02-25_15h12.57.875,posner_endo_new1,2024.2.4,60.05006973792135,2025-02-25 15h13.06.195742 +0000,
cube_l.png,0.1,-0.31,valid,21,21,0,down,12.885792899993248,None,space,0.34978899999987334,None,,,,,0,21,21,21,,,,,256.5621010999894,,,,,,,,,,,,,256.546439299942,256.5621010999894,256.5621010999894,256.5621010999894,269.44997590000276,,,,269.4565432999516,269.4680034999037,269.4680034999037,269.5158937999513,269.5161380999489,269.532280699932,269.532280699932,269.532280699932,269.61540219991,269.8828010999132,,,,,,,,down,12.885792899993248,None,space,0.34978899999987334,None,,,,,,,,,,,,,,,P124,001,2025-02-25_15h12.57.875,posner_endo_new1,2024.2.4,60.05006973792135,2025-02-25 15h13.06.195742 +0000,
cube_r.png,0.1,0.31,valid,22,22,0,down,7.78873360005673,None,space,0.4306008000858128,None,,,,,0,22,22,22,,,,,269.89850489993114,,,,,,,,,,,,,269.8829849999165,269.89850489993114,269.89850489993114,269.89850489993114,277.6914848999586,,,,277.6979451999068,277.7097350999247,277.7097350999247,277.7571714000078,277.75740539992694,277.77366820001043,277.77366820001043,277.77366820001043,277.85710399993695,278.207456599921,,,,,,,,down,7.78873360005673,None,space,0.4306008000858128,None,,,,,,,,,,,,,,,P124,001,2025-02-25_15h12.57.875,posner_endo_new1,2024.2.4,60.05006973792135,2025-02-25 15h13.06.195742 +0000,
cube_r.png,0.1,-0.31,invalid,23,23,0,down,5.896239300025627,None,space,0.3855144999688491,None,,,,,0,23,23,23,,,,,278.2233632999705,,,,,,,,,,,,,278.2076272999402,278.2233632999705,278.2233632999705,278.2233632999705,284.1352079999633,,,,284.1450538999634,284.1552602999145,284.1552602999145,284.2006986999186,284.20102269994095,284.21686369995587,284.21686369995587,284.21686369995587,284.3004898999352,284.6177994000027,,,,,,,,down,5.896239300025627,None,space,0.3855144999688491,None,,,,,,,,,,,,,,,P124,001,2025-02-25_15h12.57.875,posner_endo_new1,2024.2.4,60.05006973792135,2025-02-25 15h13.06.195742 +0000,
cube_r.png,0.1,0.31,valid,24,24,0,down,7.14164729998447,None,space,0.36490929999854416,None,,,,,0,24,24,24,,,,,284.63345610001124,,,,,,,,,,,,,284.6180500999326,284.63345610001124,284.63345610001124,284.63345610001124,291.77746339992154,,,,291.787442300003,291.7977189999074,291.7977189999074,291.84291159990244,291.8432405999629,291.85955880000256,291.85955880000256,291.85955880000256,291.9419927999843,292.2266160999425,,,,,,,,down,7.14164729998447,None,space,0.36490929999854416,None,,,,,,,,,,,,,,,P124,001,2025-02-25_15h12.57.875,posner_endo_new1,2024.2.4,60.05006973792135,2025-02-25 15h13.06.195742 +0000,
cube_r.png,0.1,-0.31,invalid,25,25,0,down,5.692282300093211,None,space,0.3856312999268994,None,,,,,0,25,25,25,,,,,292.2424496000167,,,,,,,,,,,,,292.22678799997084,292.2424496000167,292.2424496000167,292.2424496000167,297.9370859999908,,,,297.94314759992994,297.9548528000014,297.9548528000014,298.0033410999458,298.0035766999936,298.01982449996285,298.01982449996285,298.01982449996285,298.08637639996596,298.4202259000158,,,,,,,,down,5.692282300093211,None,space,0.3856312999268994,None,,,,,,,,,,,,,,,P124,001,2025-02-25_15h12.57.875,posner_endo_new1,2024.2.4,60.05006973792135,2025-02-25 15h13.06.195742 +0000,
cube_l.png,0.1,-0.31,valid,26,26,0,down,7.027016100008041,None,space,0.3555635999655351,None,,,,,0,26,26,26,,,,,298.4360966999084,,,,,,,,,,,,,298.4203968999209,298.4360966999084,298.4360966999084,298.4360966999084,305.4793740999885,,,,305.48543589992914,305.4968760999618,305.4968760999618,305.545610299916,305.54584689997137,305.5621266999515,305.5621266999515,305.5621266999515,305.6286474999506,305.9291235000128,,,,,,,,down,7.027016100008041,None,space,0.3555635999655351,None,,,,,,,,,,,,,,,P124,001,2025-02-25_15h12.57.875,posner_endo_new1,2024.2.4,60.05006973792135,2025-02-25 15h13.06.195742 +0000,
cube_r.png,0.1,0.31,valid,27,27,0,down,7.4383153999224305,None,space,0.31880490004550666,None,,,,,0,27,27,27,,,,,305.94506189995445,,,,,,,,,,,,,305.9292944999179,305.94506189995445,305.94506189995445,305.94506189995445,313.3884166999487,,,,313.3944408999523,313.40630309993867,313.40630309993867,313.45418509992305,313.4544281999115,313.4711428999435,313.4711428999435,313.4711428999435,313.55396659998223,313.80436189996544,,,,,,,,down,7.4383153999224305,None,space,0.31880490004550666,None,,,,,,,,,,,,,,,P124,001,2025-02-25_15h12.57.875,posner_endo_new1,2024.2.4,60.05006973792135,2025-02-25 15h13.06.195742 +0000,
cube_r.png,0.1,10,catch,28,28,0,down,7.610689799999818,None,space,0.3320067999884486,None,,,,,0,28,28,28,,,,,313.82026529998984,,,,,,,,,,,,,313.80453319998924,313.82026529998984,313.82026529998984,313.82026529998984,321.44663549994584,,,,321.4534393999493,321.46509229997173,321.46509229997173,321.51268369995523,321.51293049997184,321.52902559994254,321.52902559994254,321.52902559994254,321.5957335999701,321.86289689992554,,,,,,,,down,7.610689799999818,None,space,0.3320067999884486,None,,,,,,,,,,,,,,,P124,001,2025-02-25_15h12.57.875,posner_endo_new1,2024.2.4,60.05006973792135,2025-02-25 15h13.06.195742 +0000,
cube_r.png,0.1,0.31,valid,29,29,0,down,5.456174099934287,None,space,0.4101671000244096,None,,,,,0,29,29,29,,,,,321.8787237999495,,,,,,,,,,,,,321.8630799999228,321.8787237999495,321.8787237999495,321.8787237999495,327.34077729994897,,,,327.34759889997076,327.35935439995956,327.35935439995956,327.4066318999976,327.4068798999069,327.4231879999861,327.4231879999861,327.4231879999861,327.4897038999479,327.8399649999337,,,,,,,,down,5.456174099934287,None,space,0.4101671000244096,None,,,,,,,,,,,,,,,P124,001,2025-02-25_15h12.57.875,posner_endo_new1,2024.2.4,60.05006973792135,2025-02-25 15h13.06.195742 +0000,
cube_r.png,0.1,0.31,valid,30,30,0,down,5.335504200076684,None,space,0.36330869991797954,None,,,,,0,30,30,30,,,,,327.8558469999116,,,,,,,,,,,,,327.8401458999142,327.8558469999116,327.8558469999116,327.8558469999116,333.201743899961,,,,333.21335929993074,333.2236263999948,333.2236263999948,333.267337199999,333.26770059997216,333.2838755999692,333.2838755999692,333.2838755999692,333.36696689995006,333.6515430000145,,,,,,,,down,5.335504200076684,None,space,0.36330869991797954,None,,,,,,,,,,,,,,,P124,001,2025-02-25_15h12.57.875,posner_endo_new1,2024.2.4,60.05006973792135,2025-02-25 15h13.06.195742 +0000,
cube_l.png,0.1,-0.31,valid,31,31,0,down,6.588439899962395,None,space,0.3605815999908373,None,,,,,0,31,31,31,,,,,333.66675909992773,,,,,,,,,,,,,333.65183569991495,333.66675909992773,333.66675909992773,333.66675909992773,340.26126139995176,,,,340.27279879990965,340.2831704999553,340.2831704999553,340.32682660000864,340.32719450001605,340.3433967999881,340.3433967999881,340.3433967999881,340.4265530999983,340.71103879995644,,,,,,,,down,6.588439899962395,None,space,0.3605815999908373,None,,,,,,,,,,,,,,,P124,001,2025-02-25_15h12.57.875,posner_endo_new1,2024.2.4,60.05006973792135,2025-02-25 15h13.06.195742 +0000,
cube_r.png,0.1,0.31,valid,32,32,0,down,6.904644099995494,None,space,0.3273875000886619,None,,,,,0,32,32,32,,,,,340.7262529999716,,,,,,,,,,,,,340.7113294999581,340.7262529999716,340.7262529999716,340.7262529999716,347.6368328999961,,,,347.6456970999716,347.65559659991413,347.65559659991413,347.7025332999183,347.70279439992737,347.7189328999957,347.7189328999957,347.7189328999957,347.80208149994723,348.052646099939,,,,,,,,down,6.904644099995494,None,space,0.3273875000886619,None,,,,,,,,,,,,,,,P124,001,2025-02-25_15h12.57.875,posner_endo_new1,2024.2.4,60.05006973792135,2025-02-25 15h13.06.195742 +0000,
cube_r.png,0.1,-0.31,invalid,33,33,0,down,6.8342384999850765,None,space,0.3382386000594124,None,,,,,0,33,33,33,,,,,348.068710399908,,,,,,,,,,,,,348.05284469993785,348.068710399908,348.068710399908,348.068710399908,354.91243759996723,,,,354.91987280000467,354.93120979995,354.93120979995,354.97845729999244,354.978728499962,354.99481709999964,354.99481709999964,354.99481709999964,355.06139919999987,355.3450046000071,,,,,,,,down,6.8342384999850765,None,space,0.3382386000594124,None,,,,,,,,,,,,,,,P124,001,2025-02-25_15h12.57.875,posner_endo_new1,2024.2.4,60.05006973792135,2025-02-25 15h13.06.195742 +0000,
cube_r.png,0.1,10,catch,34,34,0,down,8.110006999922916,None,space,0.3207517999690026,None,,,,,0,34,34,34,,,,,355.36102009995375,,,,,,,,,,,,,355.345201899996,355.36102009995375,355.36102009995375,355.36102009995375,363.4868534000125,,,,363.49424079991877,363.50608510000166,363.50608510000166,363.55303750000894,363.55363249999937,363.5694074999774,363.5694074999774,363.5694074999774,363.63601299992297,363.9043298999313,,,,,,,,down,8.110006999922916,None,space,0.3207517999690026,None,,,,,,,,,,,,,,,P124,001,2025-02-25_15h12.57.875,posner_endo_new1,2024.2.4,60.05006973792135,2025-02-25 15h13.06.195742 +0000,
cube_r.png,0.1,0.31,valid,35,35,0,down,8.4968526000157,None,space,0.38913200004026294,None,,,,,0,35,35,35,,,,,363.91902339993976,,,,,,,,,,,,,363.9047972999979,363.91902339993976,363.91902339993976,363.91902339993976,372.42834430001676,,,,372.4399992999388,372.45046099997126,372.45046099997126,372.49401009990834,372.4943769999081,372.5104887000052,372.5104887000052,372.5104887000052,372.5936134000076,372.91113299992867,,,,,,,,down,8.4968526000157,None,space,0.38913200004026294,None,,,,,,,,,,,,,,,P124,001,2025-02-25_15h12.57.875,posner_endo_new1,2024.2.4,60.05006973792135,2025-02-25 15h13.06.195742 +0000,
cube_r.png,0.1,-0.31,invalid,36,36,0,down,6.024451200035401,None,space,0.37105529999826103,None,,,,,0,36,36,36,,,,,372.92668249993585,,,,,,,,,,,,,372.9114252999425,372.92668249993585,372.92668249993585,372.92668249993585,378.9551589000039,,,,378.9650897999527,378.9750344000058,378.9750344000058,379.0204698999878,379.02073679992463,379.03697989997454,379.03697989997454,379.03697989997454,379.1202905999962,379.42076929996256,,,,,,,,down,6.024451200035401,None,space,0.37105529999826103,None,,,,,,,,,,,,,,,P124,001,2025-02-25_15h12.57.875,posner_endo_new1,2024.2.4,60.05006973792135,2025-02-25 15h13.06.195742 +0000,
cube_l.png,0.1,0.31,invalid,37,37,0,down,7.994442199938931,None,space,0.4207606000127271,None,,,,,0,37,37,37,,,,,379.4366523999488,,,,,,,,,,,,,379.4209578000009,379.4366523999488,379.4366523999488,379.4366523999488,387.4458786000032,,,,387.4529331999365,387.46463950001635,387.46463950001635,387.5119220999768,387.5121748999227,387.5281607999932,387.5281607999932,387.5281607999932,387.59494639991317,387.96205809991807,,,,,,,,down,7.994442199938931,None,space,0.4207606000127271,None,,,,,,,,,,,,,,,P124,001,2025-02-25_15h12.57.875,posner_endo_new1,2024.2.4,60.05006973792135,2025-02-25 15h13.06.195742 +0000,
cube_l.png,0.1,0.31,invalid,38,38,0,down,7.380863200058229,None,space,0.35362650000024587,None,,,,,0,38,38,38,,,,,387.97781979991123,,,,,,,,,,,,,387.9622501999838,387.97781979991123,387.97781979991123,387.97781979991123,395.37096269999165,,,,395.3780894000083,395.3897739999229,395.3897739999229,395.4371231999248,395.43737519998103,395.4534716999624,395.4534716999624,395.4534716999624,395.52026669995394,395.82072919991333,,,,,,,,down,7.380863200058229,None,space,0.35362650000024587,None,,,,,,,,,,,,,,,P124,001,2025-02-25_15h12.57.875,posner_endo_new1,2024.2.4,60.05006973792135,2025-02-25 15h13.06.195742 +0000,
cube_r.png,0.1,0.31,valid,39,39,0,down,8.188100799918175,None,space,0.3858181000687182,None,,,,,0,39,39,39,,,,,395.8364386999747,,,,,,,,,,,,,395.8209145999281,395.8364386999747,395.8364386999747,395.8364386999747,404.0290404999396,,,,404.0360283999471,404.04764839995187,404.04764839995187,404.09502869995777,404.09528669994324,404.11150240001734,404.11150240001734,404.11150240001734,404.1945523999166,404.5116196000017,,,,,,,,down,8.188100799918175,None,space,0.3858181000687182,None,,,,,,,,,,,,,,,P124,001,2025-02-25_15h12.57.875,posner_endo_new1,2024.2.4,60.05006973792135,2025-02-25 15h13.06.195742 +0000,
cube_l.png,0.1,0.31,invalid,40,40,0,down,6.199515499989502,None,space,0.38020130002405494,None,,,,,0,40,40,40,,,,,404.5275765999686,,,,,,,,,,,,,404.511805200018,404.5275765999686,404.5275765999686,404.5275765999686,410.7388506999705,,,,410.7457962000044,410.7575653999811,410.7575653999811,410.80459189997055,410.80512049992103,410.8210050999187,410.8210050999187,410.8210050999187,410.90466829994693,411.2055981999729,,,,,,,,down,6.199515499989502,None,space,0.38020130002405494,None,,,,,,,,,,,,,,,P124,001,2025-02-25_15h12.57.875,posner_endo_new1,2024.2.4,60.05006973792135,2025-02-25 15h13.06.195742 +0000,
cube_l.png,0.1,10,catch,41,41,0,down,6.602046699961647,None,None,,,,,,,0,41,41,41,,,,,411.22094259993173,,,,,,,,,,,,,411.2058860999532,411.22094259993173,411.22094259993173,411.22094259993173,417.8315819000127,,,,417.837987100007,417.84977219998837,417.84977219998837,417.8974742999999,417.89770829991903,417.91395550000016,417.91395550000016,417.91395550000016,417.98084480001125,420.9113528999733,,,,419.9952815999277,420.92750889994204,420.92750889994204,420.92750889994204,down,6.602046699961647,None,None,,,,,,,,,,,,,,,,,P124,001,2025-02-25_15h12.57.875,posner_endo_new1,2024.2.4,60.05006973792135,2025-02-25 15h13.06.195742 +0000,
cube_l.png,0.1,-0.31,valid,42,42,0,down,4.727399199968204,None,space,0.5011291999835521,None,,,,,0,42,42,42,,,,,420.92750889994204,,,,,,,,,,,,,420.91151419992093,420.92750889994204,420.92750889994204,420.92750889994204,425.6573285999475,,,,425.66899939998984,425.679403899936,425.679403899936,425.72293869999703,425.7233030999778,425.7394117999356,425.7394117999356,425.7394117999356,425.8226031999802,426.2567430000054,,,,,,,,down,4.727399199968204,None,space,0.5011291999835521,None,,,,,,,,,,,,,,,P124,001,2025-02-25_15h12.57.875,posner_endo_new1,2024.2.4,60.05006973792135,2025-02-25 15h13.06.195742 +0000,
cube_l.png,0.1,10,catch,43,43,0,down,9.039367099991068,None,None,,,,,,,0,43,43,43,,,,,426.2721782999579,,,,,,,,,,,,,426.2570380999241,426.2721782999579,426.2721782999579,426.2721782999579,435.31428559997585,,,,435.325817200006,435.336113999947,435.336113999947,435.3795814999612,435.37994329992216,435.39611809991766,435.39611809991766,435.39611809991766,435.4793822999345,438.3939929999178,,,,437.4940104999114,438.4098112999927,438.4098112999927,438.4098112999927,down,9.039367099991068,None,None,,,,,,,,,,,,,,,,,P124,001,2025-02-25_15h12.57.875,posner_endo_new1,2024.2.4,60.05006973792135,2025-02-25 15h13.06.195742 +0000,
cube_l.png,0.1,0.31,invalid,44,44,0,down,4.750045900000259,None,space,0.3648101999424398,None,,,,,0,44,44,44,,,,,438.4098112999927,,,,,,,,,,,,,438.39426329999696,438.4098112999927,438.4098112999927,438.4098112999927,443.17270689993165,,,,443.1842539999634,443.19463469996117,443.19463469996117,443.2383101999294,443.2386809999589,443.2548137999838,443.2548137999838,443.2548137999838,443.3380835999269,443.62239109992515,,,,,,,,down,4.750045900000259,None,space,0.3648101999424398,None,,,,,,,,,,,,,,,P124,001,2025-02-25_15h12.57.875,posner_endo_new1,2024.2.4,60.05006973792135,2025-02-25 15h13.06.195742 +0000,
cube_l.png,0.1,0.31,invalid,45,45,0,down,7.6411735999863595,None,space,0.3395561999641359,None,,,,,0,45,45,45,,,,,443.63790199998766,,,,,,,,,,,,,443.6226859999588,443.63790199998766,443.63790199998766,443.63790199998766,451.2812788999872,,,,451.29288269998506,451.30317460000515,451.30317460000515,451.34665459999815,451.34702449990436,451.36324149998836,451.36324149998836,451.36324149998836,451.44645439996384,451.7139814000111,,,,,,,,down,7.6411735999863595,None,space,0.3395561999641359,None,,,,,,,,,,,,,,,P124,001,2025-02-25_15h12.57.875,posner_endo_new1,2024.2.4,60.05006973792135,2025-02-25 15h13.06.195742 +0000,
cube_r.png,0.1,0.31,valid,46,46,0,down,6.837935099960305,None,space,0.40066349995322526,None,,,,,0,46,46,46,,,,,451.7295202999376,,,,,,,,,,,,,451.7142749999184,451.7295202999376,451.7295202999376,451.7295202999376,458.57370429998264,,,,458.58419149997644,458.59377549996134,458.59377549996134,458.63907739997376,458.63932680001017,458.65561939997133,458.65561939997133,458.65561939997133,458.73880579997785,459.07258369994815,,,,,,,,down,6.837935099960305,None,space,0.40066349995322526,None,,,,,,,,,,,,,,,P124,001,2025-02-25_15h12.57.875,posner_endo_new1,2024.2.4,60.05006973792135,2025-02-25 15h13.06.195742 +0000,
cube_l.png,0.1,-0.31,valid,47,47,0,down,7.662598600029014,None,space,0.34602699999231845,None,,,,,0,47,47,47,,,,,459.0885227000108,,,,,,,,,,,,,459.07276659994386,459.0885227000108,459.0885227000108,459.0885227000108,466.76480060000904,,,,466.7718454999849,466.7835873999866,466.7835873999866,466.83080270001665,466.831069799955,466.8472429999383,466.8472429999383,466.8472429999383,466.913957899902,467.19767429993954,,,,,,,,down,7.662598600029014,None,space,0.34602699999231845,None,,,,,,,,,,,,,,,P124,001,2025-02-25_15h12.57.875,posner_endo_new1,2024.2.4,60.05006973792135,2025-02-25 15h13.06.195742 +0000,
cube_r.png,0.1,-0.31,invalid,48,48,0,down,6.562054099980742,None,space,0.35336380009539425,None,,,,,0,48,48,48,,,,,467.21366299991496,,,,,,,,,,,,,467.1978585999459,467.21366299991496,467.21366299991496,467.21366299991496,473.79099839995615,,,,473.7979372999398,473.80952629994135,473.80952629994135,473.8570101999212,473.8572621999774,473.87340899999253,473.87340899999253,473.87340899999253,473.95664300001226,474.24047899991274,,,,,,,,down,6.562054099980742,None,space,0.35336380009539425,None,,,,,,,,,,,,,,,P124,001,2025-02-25_15h12.57.875,posner_endo_new1,2024.2.4,60.05006973792135,2025-02-25 15h13.06.195742 +0000,
cube_r.png,0.1,10,catch,49,49,0,down,6.918752399971709,None,None,,,,,,,0,49,49,49,,,,,474.2563268999802,,,,,,,,,,,,,474.2406663999427,474.2563268999802,474.2563268999802,474.2563268999802,481.1833896000171,,,,481.1903581999941,481.20209929998964,481.20209929998964,481.2493795999326,481.24961379996967,481.2659824999282,481.2659824999282,481.2659824999282,481.33249339996837,484.26322079997044,,,,483.34721889998764,484.2795710999053,484.2795710999053,484.2795710999053,down,6.918752399971709,None,None,,,,,,,,,,,,,,,,,P124,001,2025-02-25_15h12.57.875,posner_endo_new1,2024.2.4,60.05006973792135,2025-02-25 15h13.06.195742 +0000,
cube_l.png,0.1,-0.31,valid,50,50,0,down,4.311516699963249,None,space,0.38853760005440563,None,,,,,0,50,50,50,,,,,484.2795710999053,,,,,,,,,,,,,484.26338039990515,484.2795710999053,484.2795710999053,484.2795710999053,488.59273229993414,,,,488.59877229994163,488.6105893999338,488.6105893999338,488.65838169993367,488.6586221999023,488.67502439999953,488.67502439999953,488.67502439999953,488.7583336000098,489.0752963999985,,,,,,,,down,4.311516699963249,None,space,0.38853760005440563,None,,,,,,,,,,,,,,,P124,001,2025-02-25_15h12.57.875,posner_endo_new1,2024.2.4,60.05006973792135,2025-02-25 15h13.06.195742 +0000,
cube_l.png,0.1,-0.31,valid,51,51,0,down,5.860577499959618,None,space,0.34960509999655187,None,,,,,0,51,51,51,,,,,489.09115250001196,,,,,,,,,,,,,489.0754669000162,489.09115250001196,489.09115250001196,489.09115250001196,494.95280169998296,,,,494.9588417999912,494.97085739998147,494.97085739998147,495.01864289992955,495.01888069999404,495.0351460999809,495.0351460999809,495.0351460999809,495.11835829995107,495.38559929991607,,,,,,,,down,5.860577499959618,None,space,0.34960509999655187,None,,,,,,,,,,,,,,,P124,001,2025-02-25_15h12.57.875,posner_endo_new1,2024.2.4,60.05006973792135,2025-02-25 15h13.06.195742 +0000,
cube_r.png,0.1,-0.31,invalid,52,52,0,down,8.189602900063619,None,space,0.4077046000165865,None,,,,,0,52,52,52,,,,,495.4014115999453,,,,,,,,,,,,,495.3857776999939,495.4014115999453,495.4014115999453,495.4014115999453,503.59377359994687,,,,503.59979389992077,503.61151509999763,503.61151509999763,503.6597524000099,503.6599854999222,503.67630089994054,503.67630089994054,503.67630089994054,503.7429788999725,504.09336569998413,,,,,,,,down,8.189602900063619,None,space,0.4077046000165865,None,,,,,,,,,,,,,,,P124,001,2025-02-25_15h12.57.875,posner_endo_new1,2024.2.4,60.05006973792135,2025-02-25 15h13.06.195742 +0000,
cube_l.png,0.1,-0.31,valid,53,53,0,down,6.634368099970743,None,space,0.34541329997591674,None,,,,,0,53,53,53,,,,,504.1092381000053,,,,,,,,,,,,,504.093535299995,504.1092381000053,504.1092381000053,504.1092381000053,510.75326499994844,,,,510.7593521999661,510.77125629992224,510.77125629992224,510.81908469996415,510.81931940000504,510.835653899936,510.835653899936,510.835653899936,510.90238779992796,511.18627139995806,,,,,,,,down,6.634368099970743,None,space,0.34541329997591674,None,,,,,,,,,,,,,,,P124,001,2025-02-25_15h12.57.875,posner_endo_new1,2024.2.4,60.05006973792135,2025-02-25 15h13.06.195742 +0000,
cube_r.png,0.1,10,catch,54,54,0,down,8.308860499993898,None,None,,,,,,,0,54,54,54,,,,,511.2020465999376,,,,,,,,,,,,,511.1864404999651,511.2020465999376,511.2020465999376,511.2020465999376,519.5276387999766,,,,519.5336938999826,519.5453028999036,519.5453028999036,519.5935617999639,519.5937987999059,519.6102399999509,519.6102399999509,519.6102399999509,519.6765947999666,522.6076739999698,,,,521.6913262999151,522.6238517999882,522.6238517999882,522.6238517999882,down,8.308860499993898,None,None,,,,,,,,,,,,,,,,,P124,001,2025-02-25_15h12.57.875,posner_endo_new1,2024.2.4,60.05006973792135,2025-02-25 15h13.06.195742 +0000,
cube_l.png,0.1,0.31,invalid,55,55,0,down,4.327401600079611,None,space,0.3602549999486655,None,,,,,0,55,55,55,,,,,522.6238517999882,,,,,,,,,,,,,522.6078432999784,522.6238517999882,522.6238517999882,522.6238517999882,526.9539339999901,,,,526.9655474999454,526.9761692999164,526.9761692999164,527.0194066999247,527.019770200015,527.035800499958,527.035800499958,527.035800499958,527.1192148999544,527.4032437999267,,,,,,,,down,4.327401600079611,None,space,0.3602549999486655,None,,,,,,,,,,,,,,,P124,001,2025-02-25_15h12.57.875,posner_endo_new1,2024.2.4,60.05006973792135,2025-02-25 15h13.06.195742 +0000,
cube_l.png,0.1,-0.31,valid,56,56,0,down,7.00482579995878,None,space,0.32867640000768006,None,,,,,0,56,56,56,,,,,527.4187738000182,,,,,,,,,,,,,527.4035289000021,527.4187738000182,527.4187738000182,527.4187738000182,534.4291365999961,,,,534.4357237999793,534.4475787999108,534.4475787999108,534.4950085999444,534.4952520999359,534.5115663999459,534.5115663999459,534.5115663999459,534.5948904999532,534.8452813999029,,,,,,,,down,7.00482579995878,None,space,0.32867640000768006,None,,,,,,,,,,,,,,,P124,001,2025-02-25_15h12.57.875,posner_endo_new1,2024.2.4,60.05006973792135,2025-02-25 15h13.06.195742 +0000,
cube_r.png,0.1,0.31,valid,57,57,0,down,6.418411300051957,None,space,0.457685700035654,None,,,,,0,57,57,57,,,,,534.8612033999525,,,,,,,,,,,,,534.8454502999084,534.8612033999525,534.8612033999525,534.8612033999525,541.2884577999357,,,,541.2945027999813,541.3062811999116,541.3062811999116,541.3546296999557,541.3548658000072,541.371167599922,541.371167599922,541.371167599922,541.437741199974,541.8378588999622,,,,,,,,down,6.418411300051957,None,space,0.457685700035654,None,,,,,,,,,,,,,,,P124,001,2025-02-25_15h12.57.875,posner_endo_new1,2024.2.4,60.05006973792135,2025-02-25 15h13.06.195742 +0000,
cube_r.png,0.1,-0.31,invalid,58,58,0,down,5.937636899994686,None,space,0.3304910999722779,None,,,,,0,58,58,58,,,,,541.8540376999881,,,,,,,,,,,,,541.838045499986,541.8540376999881,541.8540376999881,541.8540376999881,547.7989490999607,,,,547.8087285999209,547.8189311999595,547.8189311999595,547.8647355999565,547.8650555999484,547.8812184999697,547.8812184999697,547.8812184999697,547.9645494999131,548.215418000007,,,,,,,,down,5.937636899994686,None,space,0.3304910999722779,None,,,,,,,,,,,,,,,P124,001,2025-02-25_15h12.57.875,posner_endo_new1,2024.2.4,60.05006973792135,2025-02-25 15h13.06.195742 +0000,
cube_l.png,0.1,0.31,invalid,59,59,0,down,7.5846255999058485,None,space,0.2571686999872327,None,,,,,0,59,59,59,,,,,548.2309872999322,,,,,,,,,,,,,548.2156718999613,548.2309872999322,548.2309872999322,548.2309872999322,555.8240497999359,,,,555.8337428999366,555.8439366999082,555.8439366999082,555.8899881999241,555.8903088999214,555.9063108999981,555.9063108999981,555.9063108999981,555.9895681999624,556.1739862000104,,,,,,,,down,7.5846255999058485,None,space,0.2571686999872327,None,,,,,,,,,,,,,,,P124,001,2025-02-25_15h12.57.875,posner_endo_new1,2024.2.4,60.05006973792135,2025-02-25 15h13.06.195742 +0000,
,,,,,,,,,,,,,,,,,,,,,,,,,,,,,,,,,,,,,,,,,,,,,,,,,,,,,,,,,,,,,,,,,,,,,556.1741458999459,556.1894613999175,556.1894613999175,616.1947522999253,618.9761443999596,space,62.769937700009905,None,,,,,,,P124,001,2025-02-25_15h12.57.875,posner_endo_new1,2024.2.4,60.05006973792135,2025-02-25 15h13.06.195742 +0000,
,,,,,,,,,,,,,,,,,,,,,,,,,,,,,,,,,,618.976222599973,618.9918530000141,622.0003976000007,621.9726934999926,,,,,,,,,,,,,,,,,,,,,,,,,,,,,,,,,,,,,,,,,,,,,,P124,001,2025-02-25_15h12.57.875,posner_endo_new1,2024.2.4,60.05006973792135,2025-02-25 15h13.06.195742 +0000,
cube_l.png,0.1,10,catch,0,0,0,up,7.503538000048138,None,None,,,,,,,,,,,0,0,0,0,622.0003976000007,,,,,,,,,,,,,621.991677199956,622.0003976000007,622.0003976000007,622.0003976000007,629.5155859999359,,,,629.5258184999693,629.5361279000062,629.5361279000062,629.5813584999414,629.5816878000041,629.5977532999823,629.5977532999823,629.5977532999823,629.6809231999796,632.5953184999526,,,,631.695672199945,632.6113270999631,632.6113270999631,632.6113270999631,,,,,,,,,,,,,,,up,7.503538000048138,None,None,,,P124,001,2025-02-25_15h12.57.875,posner_endo_new1,2024.2.4,60.05006973792135,2025-02-25 15h13.06.195742 +0000,
cube_l.png,0.1,10,catch,1,1,0,up,5.09989900002256,None,None,,,,,,,,,,,0,1,1,1,632.6113270999631,,,,,,,,,,,,,632.5955578999128,632.6113270999631,632.6113270999631,632.6113270999631,637.7236773999175,,,,637.7334293000167,637.7436080999905,637.7436080999905,637.7895711999154,637.7898959999438,637.8059764999198,637.8059764999198,637.8059764999198,637.889207799919,640.8035304999212,,,,639.9038712999318,640.8196353999665,640.8196353999665,640.8196353999665,,,,,,,,,,,,,,,up,5.09989900002256,None,None,,,P124,001,2025-02-25_15h12.57.875,posner_endo_new1,2024.2.4,60.05006973792135,2025-02-25 15h13.06.195742 +0000,
cube_l.png,0.1,0.31,invalid,2,2,0,up,4.196380799985491,None,space,0.429475300014019,None,,,,,,,,,0,2,2,2,640.8196353999665,,,,,,,,,,,,,640.8037696999963,640.8196353999665,640.8196353999665,640.8196353999665,645.0329516999191,,,,645.0427426999668,645.052677599946,645.052677599946,645.0987432999536,645.0990675999783,645.1152724999702,645.1152724999702,645.1152724999702,645.1984782000072,645.5493231000146,,,,,,,,,,,,,,,,,,,,,,up,4.196380799985491,None,space,0.429475300014019,None,P124,001,2025-02-25_15h12.57.875,posner_endo_new1,2024.2.4,60.05006973792135,2025-02-25 15h13.06.195742 +0000,
cube_l.png,0.1,0.31,invalid,3,3,0,up,7.730639700079337,None,space,0.3370433000382036,None,,,,,,,,,0,3,3,3,645.5647254999494,,,,,,,,,,,,,645.5495788999833,645.5647254999494,645.5647254999494,645.5647254999494,653.3078265999211,,,,653.3176846000133,653.327793699922,653.327793699922,653.3735045999056,653.3738253999036,653.3900989999529,653.3900989999529,653.3900989999529,653.4736466999166,653.7408766999142,,,,,,,,,,,,,,,,,,,,,,up,7.730639700079337,None,space,0.3370433000382036,None,P124,001,2025-02-25_15h12.57.875,posner_endo_new1,2024.2.4,60.05006973792135,2025-02-25 15h13.06.195742 +0000,
cube_l.png,0.1,-0.31,valid,4,4,0,up,6.547124200034887,None,space,0.31603180000092834,None,,,,,,,,,0,4,4,4,653.756520899944,,,,,,,,,,,,,653.7411377999233,653.756520899944,653.756520899944,653.756520899944,660.3169856999302,,,,660.3234965999145,660.3353494999465,660.3353494999465,660.3829716999317,660.3832077999832,660.3995326999575,660.3995326999575,660.3995326999575,660.4662996999687,660.7167768999934,,,,,,,,,,,,,,,,,,,,,,up,6.547124200034887,None,space,0.31603180000092834,None,P124,001,2025-02-25_15h12.57.875,posner_endo_new1,2024.2.4,60.05006973792135,2025-02-25 15h13.06.195742 +0000,
cube_r.png,0.1,-0.31,invalid,5,5,0,up,6.827389000100084,None,space,0.3173891000915319,None,,,,,,,,,0,5,5,5,660.7325588999083,,,,,,,,,,,,,660.7169516999274,660.7325588999083,660.7325588999083,660.7325588999083,667.5762263999786,,,,667.5826718999306,667.5945301000029,667.5945301000029,667.6423030999722,667.6425357999979,667.658757600002,667.658757600002,667.658757600002,667.725497999927,667.9925823999802,,,,,,,,,,,,,,,,,,,,,,up,6.827389000100084,None,space,0.3173891000915319,None,P124,001,2025-02-25_15h12.57.875,posner_endo_new1,2024.2.4,60.05006973792135,2025-02-25 15h13.06.195742 +0000,
cube_r.png,0.1,0.31,valid,6,6,0,up,5.127419799915515,None,space,0.3176926000742242,None,,,,,,,,,0,6,6,6,668.0085625000065,,,,,,,,,,,,,667.9927564999089,668.0085625000065,668.0085625000065,668.0085625000065,673.1375421999255,,,,673.1439868999878,673.1557697999524,673.1557697999524,673.2033864000114,673.2036189999199,673.2197302000131,673.2197302000131,673.2197302000131,673.3030866999179,673.5535195999546,,,,,,,,,,,,,,,,,,,,,,up,5.127419799915515,None,space,0.3176926000742242,None,P124,001,2025-02-25_15h12.57.875,posner_endo_new1,2024.2.4,60.05006973792135,2025-02-25 15h13.06.195742 +0000,
cube_r.png,0.1,-0.31,invalid,7,7,0,up,6.494042800040916,None,space,0.2953039000276476,None,,,,,,,,,0,7,7,7,673.569414599915,,,,,,,,,,,,,673.5536963999039,673.569414599915,673.569414599915,673.569414599915,680.0803289999021,,,,680.0867805000162,680.098423199961,680.098423199961,680.1459099999629,680.1463787999237,680.1623613999691,680.1623613999691,680.1623613999691,680.2456087999744,680.463707299903,,,,,,,,,,,,,,,,,,,,,,up,6.494042800040916,None,space,0.2953039000276476,None,P124,001,2025-02-25_15h12.57.875,posner_endo_new1,2024.2.4,60.05006973792135,2025-02-25 15h13.06.195742 +0000,
cube_l.png,0.1,-0.31,valid,8,8,0,up,6.5373581000603735,None,space,0.36966249998658895,None,,,,,,,,,0,8,8,8,680.4789907999802,,,,,,,,,,,,,680.4639693999197,680.4789907999802,680.4789907999802,680.4789907999802,687.0235340999207,,,,687.0333834999474,687.0436023999937,687.0436023999937,687.0891708999407,687.0894950999646,687.105625599972,687.105625599972,687.105625599972,687.1889377000043,687.4897438999033,,,,,,,,,,,,,,,,,,,,,,up,6.5373581000603735,None,space,0.36966249998658895,None,P124,001,2025-02-25_15h12.57.875,posner_endo_new1,2024.2.4,60.05006973792135,2025-02-25 15h13.06.195742 +0000,
cube_r.png,0.1,-0.31,invalid,9,9,0,up,5.878044700017199,None,space,0.3417470999993384,None,,,,,,,,,0,9,9,9,687.5053273999365,,,,,,,,,,,,,687.4900009999983,687.5053273999365,687.5053273999365,687.5053273999365,693.4002953999443,,,,693.4100823999615,693.42010019999,693.42010019999,693.4659908999456,693.4663155999733,693.4824984999141,693.4824984999141,693.4824984999141,693.5657784999348,693.8330960000167,,,,,,,,,,,,,,,,,,,,,,up,5.878044700017199,None,space,0.3417470999993384,None,P124,001,2025-02-25_15h12.57.875,posner_endo_new1,2024.2.4,60.05006973792135,2025-02-25 15h13.06.195742 +0000,
cube_l.png,0.1,0.31,invalid,10,10,0,up,6.375433500041254,None,space,0.29534910002257675,None,,,,,,,,,0,10,10,10,693.848840199993,,,,,,,,,,,,,693.8333558000159,693.848840199993,693.848840199993,693.848840199993,700.2264410000062,,,,700.2345687999623,700.2451563999057,700.2451563999057,700.2923351000063,700.2925703999354,700.3087176999543,700.3087176999543,700.3087176999543,700.3920443999814,700.6093229999533,,,,,,,,,,,,,,,,,,,,,,up,6.375433500041254,None,space,0.29534910002257675,None,P124,001,2025-02-25_15h12.57.875,posner_endo_new1,2024.2.4,60.05006973792135,2025-02-25 15h13.06.195742 +0000,
cube_r.png,0.1,-0.31,invalid,11,11,0,up,6.670642199926078,None,space,0.3567007000092417,None,,,,,,,,,0,11,11,11,700.6251832999988,,,,,,,,,,,,,700.6095024999231,700.6251832999988,700.6251832999988,700.6251832999988,707.3025326000061,,,,707.3089970999863,707.3207596999127,707.3207596999127,707.3683229999151,707.3685553999385,707.3849588999292,707.3849588999292,707.3849588999292,707.4683446999406,707.7519878000021,,,,,,,,,,,,,,,,,,,,,,up,6.670642199926078,None,space,0.3567007000092417,None,P124,001,2025-02-25_15h12.57.875,posner_endo_new1,2024.2.4,60.05006973792135,2025-02-25 15h13.06.195742 +0000,
cube_r.png,0.1,0.31,valid,12,12,0,up,7.032188299926929,None,space,0.289648300036788,None,,,,,,,,,0,12,12,12,707.7678729000036,,,,,,,,,,,,,707.7521636999445,707.7678729000036,707.7678729000036,707.7678729000036,714.8113423999166,,,,714.8178134999471,714.8294218999799,714.8294218999799,714.8773327999515,714.8775681999978,714.893931599916,714.893931599916,714.893931599916,714.9605593999149,715.1944203999592,,,,,,,,,,,,,,,,,,,,,,up,7.032188299926929,None,space,0.289648300036788,None,P124,001,2025-02-25_15h12.57.875,posner_endo_new1,2024.2.4,60.05006973792135,2025-02-25 15h13.06.195742 +0000,
cube_l.png,0.1,10,catch,13,13,0,up,5.917329300078563,None,None,,,,,,,,,,,0,13,13,13,715.210208299919,,,,,,,,,,,,,715.1945938999997,715.210208299919,715.210208299919,715.210208299919,721.1382783999434,,,,721.1446976999287,721.1565125999041,721.1565125999041,721.2041957000038,721.2044390999945,721.2208665999351,721.2208665999351,721.2208665999351,721.2873567999341,724.2182422999758,,,,723.3020717999898,724.2344435999403,724.2344435999403,724.2344435999403,,,,,,,,,,,,,,,up,5.917329300078563,None,None,,,P124,001,2025-02-25_15h12.57.875,posner_endo_new1,2024.2.4,60.05006973792135,2025-02-25 15h13.06.195742 +0000,
cube_r.png,0.1,-0.31,invalid,14,14,0,up,4.013892799965106,None,space,0.43862689996603876,None,,,,,,,,,0,14,14,14,724.2344435999403,,,,,,,,,,,,,724.2184139000019,724.2344435999403,724.2344435999403,724.2344435999403,728.2645033999579,,,,728.270995699917,728.2828843999887,728.2828843999887,728.3303194999462,728.330553399981,728.3468139999313,728.3468139999313,728.3468139999313,728.4301860999549,728.7972589000128,,,,,,,,,,,,,,,,,,,,,,up,4.013892799965106,None,space,0.43862689996603876,None,P124,001,2025-02-25_15h12.57.875,posner_endo_new1,2024.2.4,60.05006973792135,2025-02-25 15h13.06.195742 +0000,
cube_l.png,0.1,-0.31,valid,15,15,0,up,5.402835600078106,None,space,0.3602687999373302,None,,,,,,,,,0,15,15,15,728.8130086999154,,,,,,,,,,,,,728.79743279994,728.8130086999154,728.8130086999154,728.8130086999154,734.2253266999032,,,,734.2369301000144,734.2473780999426,734.2473780999426,734.2908789999783,734.291242599953,734.307436299976,734.307436299976,734.307436299976,734.3906086999923,734.6750377999851,,,,,,,,,,,,,,,,,,,,,,up,5.402835600078106,None,space,0.3602687999373302,None,P124,001,2025-02-25_15h12.57.875,posner_endo_new1,2024.2.4,60.05006973792135,2025-02-25 15h13.06.195742 +0000,
cube_r.png,0.1,10,catch,16,16,0,up,7.221430400037207,None,None,,,,,,,,,,,0,16,16,16,734.6903156999033,,,,,,,,,,,,,734.675330099999,734.6903156999033,734.6903156999033,734.6903156999033,741.9175770999864,,,,741.9290938999038,741.9394864999922,741.9394864999922,741.98306889995,741.9834297999041,741.9995965999551,741.9995965999551,741.9995965999551,742.0829063999699,744.9973962999647,,,,744.0974011999788,745.0130559999961,745.0130559999961,745.0130559999961,,,,,,,,,,,,,,,up,7.221430400037207,None,None,,,P124,001,2025-02-25_15h12.57.875,posner_endo_new1,2024.2.4,60.05006973792135,2025-02-25 15h13.06.195742 +0000,
cube_r.png,0.1,10,catch,17,17,0,up,3.586693500052206,None,None,,,,,,,,,,,0,17,17,17,745.0130559999961,,,,,,,,,,,,,744.9976735999808,745.0130559999961,745.0130559999961,745.0130559999961,748.6107171999756,,,,748.6223073999863,748.6326883999864,748.6326883999864,748.6763043999672,748.6766715999693,748.6929681999609,748.6929681999609,748.6929681999609,748.7759647999192,751.6903483999195,,,,750.7905439999886,751.706382400007,751.706382400007,751.706382400007,,,,,,,,,,,,,,,up,3.586693500052206,None,None,,,P124,001,2025-02-25_15h12.57.875,posner_endo_new1,2024.2.4,60.05006973792135,2025-02-25 15h13.06.195742 +0000,
cube_l.png,0.1,0.31,invalid,18,18,0,up,3.062816599966027,None,space,0.4368838999653235,None,,,,,,,,,0,18,18,18,751.706382400007,,,,,,,,,,,,,751.6906223999104,751.706382400007,751.706382400007,751.706382400007,754.7712618999649,,,,754.7827716999454,754.7931317999028,754.7931317999028,754.8365958000068,754.8369686999358,754.8531338999746,754.8531338999746,754.8531338999746,754.9364377999445,755.3038494999055,,,,,,,,,,,,,,,,,,,,,,up,3.062816599966027,None,space,0.4368838999653235,None,P124,001,2025-02-25_15h12.57.875,posner_endo_new1,2024.2.4,60.05006973792135,2025-02-25 15h13.06.195742 +0000,
cube_l.png,0.1,10,catch,19,19,0,up,5.824391799978912,None,None,,,,,,,,,,,0,19,19,19,755.3193783999886,,,,,,,,,,,,,755.3041466999566,755.3193783999886,755.3193783999886,755.3193783999886,761.1480053999694,,,,761.1595364999957,761.1698318999261,761.1698318999261,761.2134011000162,761.2137699999148,761.2298749999609,761.2298749999609,761.2298749999609,761.3132295999676,764.2275777999312,,,,763.3277652999386,764.2435436999658,764.2435436999658,764.2435436999658,,,,,,,,,,,,,,,up,5.824391799978912,None,None,,,P124,001,2025-02-25_15h12.57.875,posner_endo_new1,2024.2.4,60.05006973792135,2025-02-25 15h13.06.195742 +0000,
cube_l.png,0.1,0.31,invalid,20,20,0,up,3.6283095999388024,None,space,0.39355690008960664,None,,,,,,,,,0,20,20,20,764.2435436999658,,,,,,,,,,,,,764.2278518999228,764.2435436999658,764.2435436999658,764.2435436999658,767.8744166999822,,,,767.8845578000182,767.8943776999367,767.8943776999367,767.9397560999496,767.9400163999526,767.956178399967,767.956178399967,767.956178399967,768.0396678999532,768.3565438999794,,,,,,,,,,,,,,,,,,,,,,up,3.6283095999388024,None,space,0.39355690008960664,None,P124,001,2025-02-25_15h12.57.875,posner_endo_new1,2024.2.4,60.05006973792135,2025-02-25 15h13.06.195742 +0000,
cube_l.png,0.1,-0.31,valid,21,21,0,up,7.003551400033757,None,space,0.3421012000180781,None,,,,,,,,,0,21,21,21,768.3725736999186,,,,,,,,,,,,,768.3567459000042,768.3725736999186,768.3725736999186,768.3725736999186,775.3829865999287,,,,775.3903606999665,775.401659199968,775.401659199968,775.4488300000085,775.4490914999042,775.4653085999889,775.4653085999889,775.4653085999889,775.548404000001,775.8155206999509,,,,,,,,,,,,,,,,,,,,,,up,7.003551400033757,None,space,0.3421012000180781,None,P124,001,2025-02-25_15h12.57.875,posner_endo_new1,2024.2.4,60.05006973792135,2025-02-25 15h13.06.195742 +0000,
cube_r.png,0.1,0.31,valid,22,22,0,up,4.67998150002677,None,space,0.4082932999590412,None,,,,,,,,,0,22,22,22,775.831419599941,,,,,,,,,,,,,775.8157212999649,775.831419599941,775.831419599941,775.831419599941,780.527556499932,,,,780.5349975000136,780.5464784000069,780.5464784000069,780.5936326999217,780.593895399943,780.6101401000051,780.6101401000051,780.6101401000051,780.676703199977,781.0270566999679,,,,,,,,,,,,,,,,,,,,,,up,4.67998150002677,None,space,0.4082932999590412,None,P124,001,2025-02-25_15h12.57.875,posner_endo_new1,2024.2.4,60.05006973792135,2025-02-25 15h13.06.195742 +0000,
cube_r.png,0.1,-0.31,invalid,23,23,0,up,6.397397199994884,None,space,0.3078484999714419,None,,,,,,,,,0,23,23,23,781.0428466999438,,,,,,,,,,,,,781.0272560999729,781.0428466999438,781.0428466999438,781.0428466999438,787.453876699903,,,,787.4612865999807,787.4729257000145,787.4729257000145,787.519890399999,787.5204683999764,787.536296700011,787.536296700011,787.536296700011,787.6195121000055,787.8545039999299,,,,,,,,,,,,,,,,,,,,,,up,6.397397199994884,None,space,0.3078484999714419,None,P124,001,2025-02-25_15h12.57.875,posner_endo_new1,2024.2.4,60.05006973792135,2025-02-25 15h13.06.195742 +0000,
cube_r.png,0.1,0.31,valid,24,24,0,up,5.234334699925967,None,space,0.3822262999601662,None,,,,,,,,,0,24,24,24,787.8692873999244,,,,,,,,,,,,,787.8549786999356,787.8692873999244,787.8692873999244,787.8692873999244,793.1151840999955,,,,793.1267291000113,793.1370204999112,793.1370204999112,793.180864599999,793.1812373999273,793.1972599999281,793.1972599999281,793.1972599999281,793.2805384999374,793.5815413999371,,,,,,,,,,,,,,,,,,,,,,up,5.234334699925967,None,space,0.3822262999601662,None,P124,001,2025-02-25_15h12.57.875,posner_endo_new1,2024.2.4,60.05006973792135,2025-02-25 15h13.06.195742 +0000,
cube_r.png,0.1,-0.31,invalid,25,25,0,up,6.259512300021015,None,space,0.36283120000734925,None,,,,,,,,,0,25,25,25,793.5969101999654,,,,,,,,,,,,,793.5818356999662,793.5969101999654,793.5969101999654,793.5969101999654,799.8584639999317,,,,799.8699885999085,799.880500899977,799.880500899977,799.9239226999925,799.9242932999041,799.9404869999271,799.9404869999271,799.9404869999271,800.0236325999722,800.3079279999947,,,,,,,,,,,,,,,,,,,,,,up,6.259512300021015,None,space,0.36283120000734925,None,P124,001,2025-02-25_15h12.57.875,posner_endo_new1,2024.2.4,60.05006973792135,2025-02-25 15h13.06.195742 +0000,
cube_l.png,0.1,-0.31,valid,26,26,0,up,6.604278700076975,None,space,0.3266686999704689,None,,,,,,,,,0,26,26,26,800.323465299909,,,,,,,,,,,,,800.3082289999584,800.323465299909,800.323465299909,800.323465299909,806.9345267999452,,,,806.9446360999718,806.954454199993,806.954454199993,806.9999421999091,807.0002021999098,807.0164893999463,807.0164893999463,807.0164893999463,807.0997205999447,807.3500502000097,,,,,,,,,,,,,,,,,,,,,,up,6.604278700076975,None,space,0.3266686999704689,None,P124,001,2025-02-25_15h12.57.875,posner_endo_new1,2024.2.4,60.05006973792135,2025-02-25 15h13.06.195742 +0000,
cube_r.png,0.1,0.31,valid,27,27,0,up,5.881655600038357,None,space,0.35735969990491867,None,,,,,,,,,0,27,27,27,807.366016899934,,,,,,,,,,,,,807.3502544999355,807.366016899934,807.366016899934,807.366016899934,813.2609216999263,,,,813.2683284999803,813.2792422999628,813.2792422999628,813.3267030999996,813.3272297999356,813.3431627999526,813.3431627999526,813.3431627999526,813.4263986999867,813.7113511000061,,,,,,,,,,,,,,,,,,,,,,up,5.881655600038357,None,space,0.35735969990491867,None,P124,001,2025-02-25_15h12.57.875,posner_endo_new1,2024.2.4,60.05006973792135,2025-02-25 15h13.06.195742 +0000,
cube_r.png,0.1,10,catch,28,28,0,up,6.305389199987985,None,None,,,,,,,,,,,0,28,28,28,813.7260646999348,,,,,,,,,,,,,813.7117918999866,813.7260646999348,813.7260646999348,813.7260646999348,820.0378927999409,,,,820.0494037999306,820.0598426999059,820.0598426999059,820.1032476999098,820.1036157999188,820.119806899922,820.119806899922,820.119806899922,820.2030588999623,823.1173150999239,,,,822.2176452999702,823.1333710999461,823.1333710999461,823.1333710999461,,,,,,,,,,,,,,,up,6.305389199987985,None,None,,,P124,001,2025-02-25_15h12.57.875,posner_endo_new1,2024.2.4,60.05006973792135,2025-02-25 15h13.06.195742 +0000,
cube_r.png,0.1,0.31,valid,29,29,0,up,3.514710700022988,None,space,0.39862340001855046,None,,,,,,,,,0,29,29,29,823.1333710999461,,,,,,,,,,,,,823.1175887999125,823.1333710999461,823.1333710999461,823.1333710999461,826.6640804999042,,,,826.6756198999938,826.6860222999239,826.6860222999239,826.7298794999951,826.7302436999744,826.7463517999277,826.7463517999277,826.7463517999277,826.8295845999382,827.147372599924,,,,,,,,,,,,,,,,,,,,,,up,3.514710700022988,None,space,0.39862340001855046,None,P124,001,2025-02-25_15h12.57.875,posner_endo_new1,2024.2.4,60.05006973792135,2025-02-25 15h13.06.195742 +0000,
cube_r.png,0.1,0.31,valid,30,30,0,up,6.581265899934806,None,space,0.37714200001209974,None,,,,,,,,,0,30,30,30,827.1625633999938,,,,,,,,,,,,,827.1476654999424,827.1625633999938,827.1625633999938,827.1625633999938,833.7570067999186,,,,833.7658216999844,833.775658999919,833.775658999919,833.8218149999157,833.8220850999933,833.8384368999396,833.8384368999396,833.8384368999396,833.9223910999717,834.2224621999776,,,,,,,,,,,,,,,,,,,,,,up,6.581265899934806,None,space,0.37714200001209974,None,P124,001,2025-02-25_15h12.57.875,posner_endo_new1,2024.2.4,60.05006973792135,2025-02-25 15h13.06.195742 +0000,
cube_l.png,0.1,-0.31,valid,31,31,0,up,5.577394099906087,None,space,0.3144845999777317,None,,,,,,,,,0,31,31,31,834.2385613999795,,,,,,,,,,,,,834.2226629999932,834.2385613999795,834.2385613999795,834.2385613999795,839.8171676999191,,,,839.8246485999553,839.8358812999213,839.8358812999213,839.8830428000074,839.883305999916,839.899330199929,839.899330199929,839.899330199929,839.9828202999197,840.2165966999019,,,,,,,,,,,,,,,,,,,,,,up,5.577394099906087,None,space,0.3144845999777317,None,P124,001,2025-02-25_15h12.57.875,posner_endo_new1,2024.2.4,60.05006973792135,2025-02-25 15h13.06.195742 +0000,
cube_r.png,0.1,0.31,valid,32,32,0,up,5.599067299976014,None,space,0.4107106999726966,None,,,,,,,,,0,32,32,32,840.2326425999636,,,,,,,,,,,,,840.2168048999738,840.2326425999636,840.2326425999636,840.2326425999636,845.8442263999023,,,,845.8516463999404,845.8630355999339,845.8630355999339,845.910212699906,845.9104786999524,845.9265291999327,845.9265291999327,845.9265291999327,845.99332889996,846.3438188999426,,,,,,,,,,,,,,,,,,,,,,up,5.599067299976014,None,space,0.4107106999726966,None,P124,001,2025-02-25_15h12.57.875,posner_endo_new1,2024.2.4,60.05006973792135,2025-02-25 15h13.06.195742 +0000,
cube_r.png,0.1,-0.31,invalid,33,33,0,up,6.56027300003916,None,space,0.3610401999903843,None,,,,,,,,,0,33,33,33,846.3595200999407,,,,,,,,,,,,,846.3440202999627,846.3595200999407,846.3595200999407,846.3595200999407,852.9207593000028,,,,852.9281332999235,852.9386777000036,852.9386777000036,852.9861889999593,852.9867144000018,853.0026014999021,853.0026014999021,853.0026014999021,853.0858424999751,853.3708337999415,,,,,,,,,,,,,,,,,,,,,,up,6.56027300003916,None,space,0.3610401999903843,None,P124,001,2025-02-25_15h12.57.875,posner_endo_new1,2024.2.4,60.05006973792135,2025-02-25 15h13.06.195742 +0000,
cube_r.png,0.1,10,catch,34,34,0,up,6.590072899940424,None,None,,,,,,,,,,,0,34,34,34,853.3855717999395,,,,,,,,,,,,,853.3712708000094,853.3855717999395,853.3855717999395,853.3855717999395,859.9800458999816,,,,859.9929006999591,860.002951500006,860.002951500006,860.0454950999701,860.0459069999633,860.0617748999503,860.0617748999503,860.0617748999503,860.1450334999245,863.0597244999371,,,,862.1596411999781,863.0754252999322,863.0754252999322,863.0754252999322,,,,,,,,,,,,,,,up,6.590072899940424,None,None,,,P124,001,2025-02-25_15h12.57.875,posner_endo_new1,2024.2.4,60.05006973792135,2025-02-25 15h13.06.195742 +0000,
cube_r.png,0.1,0.31,valid,35,35,0,up,3.821013400098309,None,space,0.39963180001359433,None,,,,,,,,,0,35,35,35,863.0754252999322,,,,,,,,,,,,,863.0600399000105,863.0754252999322,863.0754252999322,863.0754252999322,866.906963699963,,,,866.9244618999073,866.9354835000122,866.9354835000122,866.972111799987,866.9724388999166,866.9885941999964,866.9885941999964,866.9885941999964,867.0719205999048,867.389418900013,,,,,,,,,,,,,,,,,,,,,,up,3.821013400098309,None,space,0.39963180001359433,None,P124,001,2025-02-25_15h12.57.875,posner_endo_new1,2024.2.4,60.05006973792135,2025-02-25 15h13.06.195742 +0000,
cube_r.png,0.1,-0.31,invalid,36,36,0,up,6.426928999950178,None,space,0.37331960001029074,None,,,,,,,,,0,36,36,36,867.4048184999265,,,,,,,,,,,,,867.3896762999939,867.4048184999265,867.4048184999265,867.4048184999265,873.8328666000161,,,,873.8432635999052,873.8528201999143,873.8528201999143,873.8983527999371,873.8986008999636,873.9148064999608,873.9148064999608,873.9148064999608,873.9981125999475,874.2984877999406,,,,,,,,,,,,,,,,,,,,,,up,6.426928999950178,None,space,0.37331960001029074,None,P124,001,2025-02-25_15h12.57.875,posner_endo_new1,2024.2.4,60.05006973792135,2025-02-25 15h13.06.195742 +0000,
cube_l.png,0.1,0.31,invalid,37,37,0,up,6.701156300026923,None,space,0.2607760999817401,None,,,,,,,,,0,37,37,37,874.3143788999878,,,,,,,,,,,,,874.2986768999835,874.3143788999878,874.3143788999878,874.3143788999878,881.0251608999679,,,,881.0324216999579,881.0437579000136,881.0437579000136,881.0907907999353,881.091039699968,881.1075427000178,881.1075427000178,881.1075427000178,881.1907750999089,881.3745463999221,,,,,,,,,,,,,,,,,,,,,,up,6.701156300026923,None,space,0.2607760999817401,None,P124,001,2025-02-25_15h12.57.875,posner_endo_new1,2024.2.4,60.05006973792135,2025-02-25 15h13.06.195742 +0000,
cube_l.png,0.1,0.31,invalid,38,38,0,up,6.2658111999044195,None,space,0.3349912000121549,None,,,,,,,,,0,38,38,38,881.3904859999893,,,,,,,,,,,,,881.3747365999734,881.3904859999893,881.3904859999893,881.3904859999893,887.6680990000023,,,,887.675065999967,887.6869099999312,887.6869099999312,887.7339190999046,887.7341657999204,887.7507266999455,887.7507266999455,887.7507266999455,887.8171411999501,888.1010667999508,,,,,,,,,,,,,,,,,,,,,,up,6.2658111999044195,None,space,0.3349912000121549,None,P124,001,2025-02-25_15h12.57.875,posner_endo_new1,2024.2.4,60.05006973792135,2025-02-25 15h13.06.195742 +0000,
cube_r.png,0.1,0.31,valid,39,39,0,up,6.699044600012712,None,space,0.3007382999639958,None,,,,,,,,,0,39,39,39,888.1169376999605,,,,,,,,,,,,,888.1012549999868,888.1169376999605,888.1169376999605,888.1169376999605,894.8274714999134,,,,894.8344364999793,894.8461945999879,894.8461945999879,894.8935100999661,894.8937607000116,894.9099243999226,894.9099243999226,894.9099243999226,894.9766128999181,895.2272102999268,,,,,,,,,,,,,,,,,,,,,,up,6.699044600012712,None,space,0.3007382999639958,None,P124,001,2025-02-25_15h12.57.875,posner_endo_new1,2024.2.4,60.05006973792135,2025-02-25 15h13.06.195742 +0000,
cube_l.png,0.1,0.31,invalid,40,40,0,up,7.444887800025754,None,space,0.30481460003647953,None,,,,,,,,,0,40,40,40,895.2429264999228,,,,,,,,,,,,,895.2273990999674,895.2429264999228,895.2429264999228,895.2429264999228,902.7028877999401,,,,902.7102714999346,902.7215642000083,902.7215642000083,902.7687008999055,902.7692324999953,902.7851198000135,902.7851198000135,902.7851198000135,902.8683418999426,903.1031942999689,,,,,,,,,,,,,,,,,,,,,,up,7.444887800025754,None,space,0.30481460003647953,None,P124,001,2025-02-25_15h12.57.875,posner_endo_new1,2024.2.4,60.05006973792135,2025-02-25 15h13.06.195742 +0000,
cube_l.png,0.1,10,catch,41,41,0,up,7.729509299970232,None,space,0.3235118999145925,None,,,,,,,,,0,41,41,41,903.118109999923,,,,,,,,,,,,,903.1036295999074,903.118109999923,903.118109999923,903.118109999923,910.8615858999547,,,,910.8731538999127,910.8835030999035,910.8835030999035,910.9271461999742,910.9275148999877,910.9437347999774,910.9437347999774,910.9437347999774,911.0269887999166,911.2777657000115,,,,,,,,,,,,,,,,,,,,,,up,7.729509299970232,None,space,0.3235118999145925,None,P124,001,2025-02-25_15h12.57.875,posner_endo_new1,2024.2.4,60.05006973792135,2025-02-25 15h13.06.195742 +0000,
cube_l.png,0.1,-0.31,valid,42,42,0,up,7.19436309998855,None,space,0.31232409994117916,None,,,,,,,,,0,42,42,42,911.2934274999425,,,,,,,,,,,,,911.2780607999302,911.2934274999425,911.2934274999425,911.2934274999425,918.5037296999944,,,,918.5140889999457,918.5236954999855,918.5236954999855,918.5690739999991,918.5693378999131,918.5858545999508,918.5858545999508,918.5858545999508,918.6688459999859,918.903016999946,,,,,,,,,,,,,,,,,,,,,,up,7.19436309998855,None,space,0.31232409994117916,None,P124,001,2025-02-25_15h12.57.875,posner_endo_new1,2024.2.4,60.05006973792135,2025-02-25 15h13.06.195742 +0000,
cube_l.png,0.1,10,catch,43,43,0,up,6.754075600067154,None,None,,,,,,,,,,,0,43,43,43,918.9188196999021,,,,,,,,,,,,,918.9032178999623,918.9188196999021,918.9188196999021,918.9188196999021,925.6794273999985,,,,925.6869024999905,925.698109399993,925.698109399993,925.7451753999339,925.7454409999773,925.761623499915,925.761623499915,925.761623499915,925.8451160999248,928.759288799949,,,,927.8596836999059,928.7752954999451,928.7752954999451,928.7752954999451,,,,,,,,,,,,,,,up,6.754075600067154,None,None,,,P124,001,2025-02-25_15h12.57.875,posner_endo_new1,2024.2.4,60.05006973792135,2025-02-25 15h13.06.195742 +0000,
cube_l.png,0.1,0.31,invalid,44,44,0,up,3.2723064000019804,None,space,0.3951829000143334,None,,,,,,,,,0,44,44,44,928.7752954999451,,,,,,,,,,,,,928.7594800000079,928.7752954999451,928.7752954999451,928.7752954999451,932.0562251999509,,,,932.06367459998,932.0747868999606,932.0747868999606,932.1220430999529,932.1225713000167,932.1385059999302,932.1385059999302,932.1385059999302,932.2216525999829,932.5400688999798,,,,,,,,,,,,,,,,,,,,,,up,3.2723064000019804,None,space,0.3951829000143334,None,P124,001,2025-02-25_15h12.57.875,posner_endo_new1,2024.2.4,60.05006973792135,2025-02-25 15h13.06.195742 +0000,
cube_l.png,0.1,0.31,invalid,45,45,0,up,6.046049500000663,None,space,0.3048584999050945,None,,,,,,,,,0,45,45,45,932.5546764999162,,,,,,,,,,,,,932.540523899952,932.5546764999162,932.5546764999162,932.5546764999162,938.6166198999854,,,,938.6276192999212,938.6378062999574,938.6378062999574,938.6822190999519,938.6825660999166,938.6987221000018,938.6987221000018,938.6987221000018,938.7818190999096,939.0160325999605,,,,,,,,,,,,,,,,,,,,,,up,6.046049500000663,None,space,0.3048584999050945,None,P124,001,2025-02-25_15h12.57.875,posner_endo_new1,2024.2.4,60.05006973792135,2025-02-25 15h13.06.195742 +0000,
cube_r.png,0.1,0.31,valid,46,46,0,up,5.7363438999745995,None,space,0.3348659999901429,None,,,,,,,,,0,46,46,46,939.0316566999536,,,,,,,,,,,,,939.0163122999948,939.0316566999536,939.0316566999536,939.0316566999536,944.7769099000143,,,,944.7878967999713,944.7982223000145,944.7982223000145,944.8425508999499,944.842901899945,944.858995599905,944.858995599905,944.858995599905,944.9422430999111,945.2097843999509,,,,,,,,,,,,,,,,,,,,,,up,5.7363438999745995,None,space,0.3348659999901429,None,P124,001,2025-02-25_15h12.57.875,posner_endo_new1,2024.2.4,60.05006973792135,2025-02-25 15h13.06.195742 +0000,
cube_l.png,0.1,-0.31,valid,47,47,0,up,6.742412299965508,None,space,0.3640402000164613,None,,,,,,,,,0,47,47,47,945.2253342999611,,,,,,,,,,,,,945.2100823000073,945.2253342999611,945.2253342999611,945.2253342999611,951.9698119999375,,,,951.9808538999641,951.9914704000112,951.9914704000112,952.0352396999951,952.0355892999796,952.051621099934,952.051621099934,952.051621099934,952.1349211999914,952.4192335999105,,,,,,,,,,,,,,,,,,,,,,up,6.742412299965508,None,space,0.3640402000164613,None,P124,001,2025-02-25_15h12.57.875,posner_endo_new1,2024.2.4,60.05006973792135,2025-02-25 15h13.06.195742 +0000,
cube_r.png,0.1,-0.31,invalid,48,48,0,up,6.9097044001100585,None,space,0.4596804999746382,None,,,,,,,,,0,48,48,48,952.4346135999076,,,,,,,,,,,,,952.4195188999875,952.4346135999076,952.4346135999076,952.4346135999076,959.3450659000082,,,,959.3511287999572,959.362927399925,959.362927399925,959.4108916999539,959.4111307999119,959.4273694999283,959.4273694999283,959.4273694999283,959.5106935999356,959.8943387999898,,,,,,,,,,,,,,,,,,,,,,up,6.9097044001100585,None,space,0.4596804999746382,None,P124,001,2025-02-25_15h12.57.875,posner_endo_new1,2024.2.4,60.05006973792135,2025-02-25 15h13.06.195742 +0000,
cube_r.png,0.1,10,catch,49,49,0,up,6.19444879994262,None,None,,,,,,,,,,,0,49,49,49,959.910241000005,,,,,,,,,,,,,959.8945124999154,959.910241000005,959.910241000005,959.910241000005,966.1213931000093,,,,966.1275219999952,966.1391387999756,966.1391387999756,966.1873272999655,966.1875614000019,966.2038027999224,966.2038027999224,966.2038027999224,966.2871474999702,969.2012835999485,,,,968.3016217999393,969.2175302999094,969.2175302999094,969.2175302999094,,,,,,,,,,,,,,,up,6.19444879994262,None,None,,,P124,001,2025-02-25_15h12.57.875,posner_endo_new1,2024.2.4,60.05006973792135,2025-02-25 15h13.06.195742 +0000,
cube_l.png,0.1,-0.31,valid,50,50,0,up,3.1828521999996156,None,space,0.3482519000535831,None,,,,,,,,,0,50,50,50,969.2175302999094,,,,,,,,,,,,,969.2014460999053,969.2175302999094,969.2175302999094,969.2175302999094,972.4148284000112,,,,972.4209031999344,972.4327031999128,972.4327031999128,972.4808355999412,972.4810714999912,972.4972689999267,972.4972689999267,972.4972689999267,972.5640704999678,972.8480807999149,,,,,,,,,,,,,,,,,,,,,,up,3.1828521999996156,None,space,0.3482519000535831,None,P124,001,2025-02-25_15h12.57.875,posner_endo_new1,2024.2.4,60.05006973792135,2025-02-25 15h13.06.195742 +0000,
cube_l.png,0.1,-0.31,valid,51,51,0,up,7.112632800010033,None,space,0.310281699988991,None,,,,,,,,,0,51,51,51,972.863688500016,,,,,,,,,,,,,972.8482541999547,972.863688500016,972.863688500016,972.863688500016,979.9905355999945,,,,979.9965553999646,980.0083758999826,980.0083758999826,980.0563705000095,980.0566033999203,980.0728987999028,980.0728987999028,980.0728987999028,980.1396547999466,980.3899245999055,,,,,,,,,,,,,,,,,,,,,,up,7.112632800010033,None,space,0.310281699988991,None,P124,001,2025-02-25_15h12.57.875,posner_endo_new1,2024.2.4,60.05006973792135,2025-02-25 15h13.06.195742 +0000,
cube_r.png,0.1,-0.31,invalid,52,52,0,up,7.281990100047551,None,space,0.38137339998502284,None,,,,,,,,,0,52,52,52,980.4060712999199,,,,,,,,,,,,,980.3900989999529,980.4060712999199,980.4060712999199,980.4060712999199,987.6992853999836,,,,987.7053790999344,987.7170357999858,987.7170357999858,987.7651773999678,987.7654119000072,987.7817935999483,987.7817935999483,987.7817935999483,987.8485810999991,988.1654618999455,,,,,,,,,,,,,,,,,,,,,,up,7.281990100047551,None,space,0.38137339998502284,None,P124,001,2025-02-25_15h12.57.875,posner_endo_new1,2024.2.4,60.05006973792135,2025-02-25 15h13.06.195742 +0000,
cube_l.png,0.1,-0.31,valid,53,53,0,up,6.866304999915883,None,space,0.322332700015977,None,,,,,,,,,0,53,53,53,988.1814160000067,,,,,,,,,,,,,988.1656367999967,988.1814160000067,988.1814160000067,988.1814160000067,995.0584663999034,,,,995.0645664999029,995.076319499989,995.076319499989,995.1243440000108,995.1245859999908,995.1410238000099,995.1410238000099,995.1410238000099,995.2075169999152,995.474587899982,,,,,,,,,,,,,,,,,,,,,,up,6.866304999915883,None,space,0.322332700015977,None,P124,001,2025-02-25_15h12.57.875,posner_endo_new1,2024.2.4,60.05006973792135,2025-02-25 15h13.06.195742 +0000,
cube_r.png,0.1,10,catch,54,54,0,up,6.26143910002429,None,None,,,,,,,,,,,0,54,54,54,995.4905869999202,,,,,,,,,,,,,995.4747609999031,995.4905869999202,995.4905869999202,995.4905869999202,1001.7683219999308,,,,1001.774399499991,1001.7860180999851,1001.7860180999851,1001.8341662000166,1001.8344031999586,1001.8507607999491,1001.8507607999491,1001.8507607999491,1001.934038599953,1004.8482578999829,,,,1003.9485161999473,1004.8644960999954,1004.8644960999954,1004.8644960999954,,,,,,,,,,,,,,,up,6.26143910002429,None,None,,,P124,001,2025-02-25_15h12.57.875,posner_endo_new1,2024.2.4,60.05006973792135,2025-02-25 15h13.06.195742 +0000,
cube_l.png,0.1,0.31,invalid,55,55,0,up,3.944215500028804,None,space,0.3491459999931976,None,,,,,,,,,0,55,55,55,1004.8644960999954,,,,,,,,,,,,,1004.8484196999343,1004.8644960999954,1004.8644960999954,1004.8644960999954,1008.811183599988,,,,1008.8172038999619,1008.828843700001,1008.828843700001,1008.8769082999788,1008.8771428000182,1008.8935954999179,1008.8935954999179,1008.8935954999179,1008.9601097999839,1009.2440294999396,,,,,,,,,,,,,,,,,,,,,,up,3.944215500028804,None,space,0.3491459999931976,None,P124,001,2025-02-25_15h12.57.875,posner_endo_new1,2024.2.4,60.05006973792135,2025-02-25 15h13.06.195742 +0000,
cube_l.png,0.1,-0.31,valid,56,56,0,up,6.852906599990092,None,space,0.3467865999555215,None,,,,,,,,,0,56,56,56,1009.2598308000015,,,,,,,,,,,,,1009.2442028999794,1009.2598308000015,1009.2598308000015,1009.2598308000015,1016.1202488999115,,,,1016.1263078999473,1016.1380129000172,1016.1380129000172,1016.1860834999243,1016.186316999956,1016.2027951999335,1016.2027951999335,1016.2027951999335,1016.2692985999165,1016.5531462999061,,,,,,,,,,,,,,,,,,,,,,up,6.852906599990092,None,space,0.3467865999555215,None,P124,001,2025-02-25_15h12.57.875,posner_endo_new1,2024.2.4,60.05006973792135,2025-02-25 15h13.06.195742 +0000,
cube_r.png,0.1,0.31,valid,57,57,0,up,7.942628700053319,None,space,0.3122349000768736,None,,,,,,,,,0,57,57,57,1016.5690968999406,,,,,,,,,,,,,1016.553320499952,1016.5690968999406,1016.5690968999406,1016.5690968999406,1024.5282409999054,,,,1024.5344332999084,1024.545972299995,1024.545972299995,1024.59431700001,1024.5945513999322,1024.6107524000108,1024.6107524000108,1024.6107524000108,1024.6773875999497,1024.9279434999917,,,,,,,,,,,,,,,,,,,,,,up,7.942628700053319,None,space,0.3122349000768736,None,P124,001,2025-02-25_15h12.57.875,posner_endo_new1,2024.2.4,60.05006973792135,2025-02-25 15h13.06.195742 +0000,
cube_r.png,0.1,-0.31,invalid,58,58,0,up,6.34447100001853,None,space,0.34450729994568974,None,,,,,,,,,0,58,58,58,1024.94379759999,,,,,,,,,,,,,1024.9281205999432,1024.94379759999,1024.94379759999,1024.94379759999,1031.3047955000075,,,,1031.3108696999261,1031.322684600018,1031.322684600018,1031.3706448000157,1031.3711719999555,1031.3870198999066,1031.3870198999066,1031.3870198999066,1031.4702998999273,1031.7386206999654,,,,,,,,,,,,,,,,,,,,,,up,6.34447100001853,None,space,0.34450729994568974,None,P124,001,2025-02-25_15h12.57.875,posner_endo_new1,2024.2.4,60.05006973792135,2025-02-25 15h13.06.195742 +0000,
cube_l.png,0.1,0.31,invalid,59,59,0,up,6.399090899969451,None,space,0.3393242999445647,None,,,,,,,,,0,59,59,59,1031.7533744999673,,,,,,,,,,,,,1031.7390656999778,1031.7533744999673,1031.7533744999673,1031.7533744999673,1038.1649319999851,,,,1038.176409299951,1038.186723499908,1038.186723499908,1038.2305457999464,1038.2309176999843,1038.2470282999566,1038.2470282999566,1038.2470282999566,1038.330050199991,1038.5978188000154,,,,,,,,,,,,,,,,,,,,,,up,6.399090899969451,None,space,0.3393242999445647,None,P124,001,2025-02-25_15h12.57.875,posner_endo_new1,2024.2.4,60.05006973792135,2025-02-25 15h13.06.195742 +0000,
