cue_img,cue_soa,target_y,trial,thisN,thisTrialN,thisRepN,key_control2.keys,key_control2.rt,key_control2.duration,key_resp.keys,key_resp.rt,key_resp.duration,practice.thisRepN,practice.thisTrialN,practice.thisN,practice.thisIndex,block1.thisRepN,block1.thisTrialN,block1.thisN,block1.thisIndex,block2.thisRepN,block2.thisTrialN,block2.thisN,block2.thisIndex,thisRow.t,notes,instructions.started,instructions_txt.started,key_control.started,instructions.stopped,key_control.keys,key_control.rt,key_control.duration,ready.started,ready_txt.started,ready_txt.stopped,ready.stopped,fix.started,fixation.started,key_control2.started,fixation_cross.started,fix.stopped,practice.key_control2.keys,practice.key_control2.rt,practice.key_control2.duration,cue.started,cube.started,fixation_cross_cue.started,cue.stopped,target.started,fixation_target.started,fixation_cross_target.started,key_resp.started,star.started,target.stopped,practice.key_resp.keys,practice.key_resp.rt,practice.key_resp.duration,star.stopped,fixation_target.stopped,fixation_cross_target.stopped,key_resp.stopped,block1.key_control2.keys,block1.key_control2.rt,block1.key_control2.duration,block1.key_resp.keys,block1.key_resp.rt,block1.key_resp.duration,break_2.started,text.started,key_control3.started,text.stopped,break_2.stopped,key_control3.keys,key_control3.rt,key_control3.duration,block2.key_control2.keys,block2.key_control2.rt,block2.key_control2.duration,block2.key_resp.keys,block2.key_resp.rt,block2.key_resp.duration,participant,session,date,expName,psychopyVersion,frameRate,expStart,
,,,,,,,,,,,,,,,,,,,,,,,,,,,0.007538300007581711,0.020249500055797398,0.020249500055797398,701.6382537999889,up,701.6013287000824,None,,,,,,,,,,,,,,,,,,,,,,,,,,,,,,,,,,,,,,,,,,,,,,,,,,P125,001,2025-02-26_10h00.14.630,posner_endo_new1,2024.2.4,60.134569141415035,2025-02-26 10h00.21.620192 +0000,
,,,,,,,,,,,,,,,,,,,,,,,,,,,,,,,,,,701.6383084000554,701.6541492000688,704.6671442000661,704.6349573000334,,,,,,,,,,,,,,,,,,,,,,,,,,,,,,,,,,,,,,,,,,,,,,P125,001,2025-02-26_10h00.14.630,posner_endo_new1,2024.2.4,60.134569141415035,2025-02-26 10h00.21.620192 +0000,
cube_l.png,0.1,-0.31,valid,0,0,0,up,5.594817399978638,None,space,0.6295707999961451,None,0,0,0,0,,,,,,,,,704.6671442000661,,,,,,,,,,,,,704.6495985999936,704.6671442000661,704.6671442000661,704.6671442000661,710.2633211000357,up,5.594817399978638,None,710.2873254000442,710.299170000013,710.299170000013,710.328497700044,710.3289023999823,710.3450354000088,710.3450354000088,710.3450354000088,710.4281624000287,710.979012100026,space,0.6295707999961451,None,,,,,,,,,,,,,,,,,,,,,,,,,P125,001,2025-02-26_10h00.14.630,posner_endo_new1,2024.2.4,60.134569141415035,2025-02-26 10h00.21.620192 +0000,
cube_l.png,0.1,0.31,invalid,1,1,0,up,2.0360918999649584,None,space,0.474490899941884,None,0,1,1,1,,,,,,,,,710.9942486999789,,,,,,,,,,,,,710.9793260999722,710.9942486999789,710.9942486999789,710.9942486999789,713.0433558999794,up,2.0360918999649584,None,713.0512087000534,713.0622055999702,713.0622055999702,713.1093151000096,713.1095792000415,713.1260003000498,713.1260003000498,713.1260003000498,713.1925716999685,713.6096058000112,space,0.474490899941884,None,,,,,,,,,,,,,,,,,,,,,,,,,P125,001,2025-02-26_10h00.14.630,posner_endo_new1,2024.2.4,60.134569141415035,2025-02-26 10h00.21.620192 +0000,
cube_r.png,0.1,-0.31,invalid,2,2,0,up,5.357026300043799,None,space,0.6506510999752209,None,0,2,2,2,,,,,,,,,713.6253320999676,,,,,,,,,,,,,713.6098050000146,713.6253320999676,713.6253320999676,713.6253320999676,718.9875007000519,up,5.357026300043799,None,718.9972420999547,719.0072333000135,719.0072333000135,719.0531760000158,719.0536819000263,719.0696255000075,719.0696255000075,719.0696255000075,719.1528754000319,719.7374344000127,space,0.6506510999752209,None,,,,,,,,,,,,,,,,,,,,,,,,,P125,001,2025-02-26_10h00.14.630,posner_endo_new1,2024.2.4,60.134569141415035,2025-02-26 10h00.21.620192 +0000,
cube_r.png,0.1,10,catch,3,3,0,up,4.470186999998987,None,None,,,0,3,3,3,,,,,,,,,719.7522722999565,,,,,,,,,,,,,719.7378596999915,719.7522722999565,719.7522722999565,719.7522722999565,724.2324280999601,up,4.470186999998987,None,724.2437839000486,724.2540449000662,724.2540449000662,724.2979726999765,724.2983193000546,724.314436799963,724.314436799963,724.314436799963,724.3976115999976,727.3121976000257,None,,,726.4123169999802,727.3281257000053,727.3281257000053,727.3281257000053,,,,,,,,,,,,,,,,,,,,,P125,001,2025-02-26_10h00.14.630,posner_endo_new1,2024.2.4,60.134569141415035,2025-02-26 10h00.21.620192 +0000,
cube_l.png,0.1,-0.31,valid,4,4,0,up,2.397685799980536,None,space,0.4268684999551624,None,0,4,4,4,,,,,,,,,727.3281257000053,,,,,,,,,,,,,727.3124508999754,727.3281257000053,727.3281257000053,727.3281257000053,729.7275514999637,up,2.397685799980536,None,729.7451869000215,729.7564961999888,729.7564961999888,729.79228100006,729.7925762999803,729.8087576000253,729.8087576000253,729.8087576000253,729.892097700038,730.2425246000057,space,0.4268684999551624,None,,,,,,,,,,,,,,,,,,,,,,,,,P125,001,2025-02-26_10h00.14.630,posner_endo_new1,2024.2.4,60.134569141415035,2025-02-26 10h00.21.620192 +0000,
cube_l.png,0.1,0.31,invalid,5,5,0,up,2.0433424001093954,None,space,0.46484919998329133,None,0,5,5,5,,,,,,,,,730.2583935000002,,,,,,,,,,,,,730.2427450000541,730.2583935000002,730.2583935000002,730.2583935000002,732.3075264999643,up,2.0433424001093954,None,732.3189952999819,732.3292490000604,732.3292490000604,732.3730147000169,732.3733574000653,732.3895443000365,732.3895443000365,732.3895443000365,732.472824000055,732.8572310999734,space,0.46484919998329133,None,,,,,,,,,,,,,,,,,,,,,,,,,P125,001,2025-02-26_10h00.14.630,posner_endo_new1,2024.2.4,60.134569141415035,2025-02-26 10h00.21.620192 +0000,
cube_r.png,0.1,-0.31,invalid,6,6,0,up,2.1258717000018805,None,space,0.5461366000818089,None,0,6,6,6,,,,,,,,,732.8724214000395,,,,,,,,,,,,,732.8575182000641,732.8724214000395,732.8724214000395,732.8724214000395,735.0046919999877,up,2.1258717000018805,None,735.0160732000368,735.026376600028,735.026376600028,735.070365200052,735.0707127000205,735.0868409000104,735.0868409000104,735.0868409000104,735.1701089000562,735.6375969999935,space,0.5461366000818089,None,,,,,,,,,,,,,,,,,,,,,,,,,P125,001,2025-02-26_10h00.14.630,posner_endo_new1,2024.2.4,60.134569141415035,2025-02-26 10h00.21.620192 +0000,
cube_r.png,0.1,0.31,valid,7,7,0,up,1.8091871999204159,None,space,0.36617289995774627,None,0,7,7,7,,,,,,,,,735.6529059000313,,,,,,,,,,,,,735.6378836999647,735.6529059000313,735.6529059000313,735.6529059000313,737.4690599000314,up,1.8091871999204159,None,737.480497600045,737.4907435000641,737.4907435000641,737.5345439000521,737.5348874999909,737.550780700054,737.550780700054,737.550780700054,737.6344296999741,737.9184989000205,space,0.36617289995774627,None,,,,,,,,,,,,,,,,,,,,,,,,,P125,001,2025-02-26_10h00.14.630,posner_endo_new1,2024.2.4,60.134569141415035,2025-02-26 10h00.21.620192 +0000,
cube_l.png,0.1,-0.31,valid,8,8,0,up,2.1361135999904945,None,space,0.3746606999775395,None,0,8,8,8,,,,,,,,,737.9338818000397,,,,,,,,,,,,,737.9187724000076,737.9338818000397,737.9338818000397,737.9338818000397,740.0828085000394,up,2.1361135999904945,None,740.0943808000302,740.1046300999587,740.1046300999587,740.1484391000122,740.1487853999715,740.1650418000063,740.1650418000063,740.1650418000063,740.2482781000435,740.5494923000224,space,0.3746606999775395,None,,,,,,,,,,,,,,,,,,,,,,,,,P125,001,2025-02-26_10h00.14.630,posner_endo_new1,2024.2.4,60.134569141415035,2025-02-26 10h00.21.620192 +0000,
cube_r.png,0.1,-0.31,invalid,9,9,0,up,2.0892712000058964,None,space,0.3919641000684351,None,0,9,9,9,,,,,,,,,740.5645154999802,,,,,,,,,,,,,740.5497712000506,740.5645154999802,740.5645154999802,740.5645154999802,742.6637201999547,up,2.0892712000058964,None,742.6751457999926,742.6854025999783,742.6854025999783,742.7292040999746,742.7295490000397,742.7455947999842,742.7455947999842,742.7455947999842,742.828981300001,743.1465138000203,space,0.3919641000684351,None,,,,,,,,,,,,,,,,,,,,,,,,,P125,001,2025-02-26_10h00.14.630,posner_endo_new1,2024.2.4,60.134569141415035,2025-02-26 10h00.21.620192 +0000,
cube_r.png,0.1,0.31,valid,10,10,0,up,2.275708799948916,None,space,0.3358595999889076,None,0,10,10,10,,,,,,,,,743.1619435000466,,,,,,,,,,,,,743.1467885000166,743.1619435000466,743.1619435000466,743.1619435000466,745.4441288000671,up,2.275708799948916,None,745.45552399999,745.4658109999727,745.4658109999727,745.5096612999914,745.5099156000651,745.5258239000104,745.5258239000104,745.5258239000104,745.609275600058,745.8764720000327,space,0.3358595999889076,None,,,,,,,,,,,,,,,,,,,,,,,,,P125,001,2025-02-26_10h00.14.630,posner_endo_new1,2024.2.4,60.134569141415035,2025-02-26 10h00.21.620192 +0000,
,,,,,,,,,,,,,,,,,,,,,,,,,,,,,,,,,,745.8765951000387,745.8922117999755,748.9018711000681,748.8732313000364,,,,,,,,,,,,,,,,,,,,,,,,,,,,,,,,,,,,,,,,,,,,,,P125,001,2025-02-26_10h00.14.630,posner_endo_new1,2024.2.4,60.134569141415035,2025-02-26 10h00.21.620192 +0000,
cube_l.png,0.1,10,catch,0,0,0,up,19.128375199972652,None,None,,,,,,,0,0,0,0,,,,,748.9018711000681,,,,,,,,,,,,,748.8930645000655,748.9018711000681,748.9018711000681,748.9018711000681,768.0376584000187,,,,768.0491400000174,768.0593509000028,768.0593509000028,768.1032832000637,768.1036340000574,768.1198082000483,768.1198082000483,768.1198082000483,768.2030805000104,771.1173338000663,,,,770.2176621999824,771.1332850999897,771.1332850999897,771.1332850999897,up,19.128375199972652,None,None,,,,,,,,,,,,,,,,,P125,001,2025-02-26_10h00.14.630,posner_endo_new1,2024.2.4,60.134569141415035,2025-02-26 10h00.21.620192 +0000,
cube_l.png,0.1,10,catch,1,1,0,up,2.8814108999213204,None,None,,,,,,,0,1,1,1,,,,,771.1332850999897,,,,,,,,,,,,,771.1175993999932,771.1332850999897,771.1332850999897,771.1332850999897,774.0315691999858,,,,774.0430155000649,774.0529712999705,774.0529712999705,774.0971556999721,774.0975034000585,774.1135126999579,774.1135126999579,774.1135126999579,774.1969238000456,777.1113317999989,,,,776.2114761000266,777.1272305999883,777.1272305999883,777.1272305999883,up,2.8814108999213204,None,None,,,,,,,,,,,,,,,,,P125,001,2025-02-26_10h00.14.630,posner_endo_new1,2024.2.4,60.134569141415035,2025-02-26 10h00.21.620192 +0000,
cube_l.png,0.1,0.31,invalid,2,2,0,up,3.046523900004104,None,space,0.4841068999376148,None,,,,,0,2,2,2,,,,,777.1272305999883,,,,,,,,,,,,,777.1115984000498,777.1272305999883,777.1272305999883,777.1272305999883,780.1752890000353,,,,780.1844430000056,780.1941654999973,780.1941654999973,780.2407384000253,780.2409773999825,780.25709129998,780.25709129998,780.25709129998,780.3403891000198,780.7575784999644,,,,,,,,up,3.046523900004104,None,space,0.4841068999376148,None,,,,,,,,,,,,,,,P125,001,2025-02-26_10h00.14.630,posner_endo_new1,2024.2.4,60.134569141415035,2025-02-26 10h00.21.620192 +0000,
cube_l.png,0.1,0.31,invalid,3,3,0,up,2.704355000052601,None,space,0.40415129996836185,None,,,,,0,3,3,3,,,,,780.7732975999825,,,,,,,,,,,,,780.7577645999845,780.7732975999825,780.7732975999825,780.7732975999825,783.4879603000591,,,,783.4948985000374,783.5066261000466,783.5066261000466,783.553951799986,783.5541934999637,783.5705821999582,783.5705821999582,783.5705821999582,783.6369651999557,783.987499000039,,,,,,,,up,2.704355000052601,None,space,0.40415129996836185,None,,,,,,,,,,,,,,,P125,001,2025-02-26_10h00.14.630,posner_endo_new1,2024.2.4,60.134569141415035,2025-02-26 10h00.21.620192 +0000,
cube_l.png,0.1,-0.31,valid,4,4,0,up,2.3712622000603005,None,space,0.4445579000748694,None,,,,,0,4,4,4,,,,,784.0033400000539,,,,,,,,,,,,,783.987693300005,784.0033400000539,784.0033400000539,784.0033400000539,786.3855257000541,,,,786.3945272000274,786.4043299000477,786.4043299000477,786.4510979000479,786.4513375000097,786.4675430000061,786.4675430000061,786.4675430000061,786.5508230000269,786.9180191999767,,,,,,,,up,2.3712622000603005,None,space,0.4445579000748694,None,,,,,,,,,,,,,,,P125,001,2025-02-26_10h00.14.630,posner_endo_new1,2024.2.4,60.134569141415035,2025-02-26 10h00.21.620192 +0000,
cube_r.png,0.1,-0.31,invalid,5,5,0,up,2.736760800005868,None,space,0.4614930000388995,None,,,,,0,5,5,5,,,,,786.9336789000081,,,,,,,,,,,,,786.9182086000219,786.9336789000081,786.9336789000081,786.9336789000081,789.6818080999656,,,,789.6886658000294,789.7004549000412,789.7004549000412,789.7476862999611,789.7479217000073,789.764285900048,789.764285900048,789.764285900048,789.8474610999692,790.2312413000036,,,,,,,,up,2.736760800005868,None,space,0.4614930000388995,None,,,,,,,,,,,,,,,P125,001,2025-02-26_10h00.14.630,posner_endo_new1,2024.2.4,60.134569141415035,2025-02-26 10h00.21.620192 +0000,
cube_r.png,0.1,0.31,valid,6,6,0,up,2.495896300068125,None,space,0.36981209996156394,None,,,,,0,6,6,6,,,,,790.2469641000498,,,,,,,,,,,,,790.2314275000244,790.2469641000498,790.2469641000498,790.2469641000498,792.7454740999965,,,,792.7523587000323,792.7641804000596,792.7641804000596,792.8113243000116,792.8115640999749,792.8278137999587,792.8278137999587,792.8278137999587,792.9110020999797,793.2115708000492,,,,,,,,up,2.495896300068125,None,space,0.36981209996156394,None,,,,,,,,,,,,,,,P125,001,2025-02-26_10h00.14.630,posner_endo_new1,2024.2.4,60.134569141415035,2025-02-26 10h00.21.620192 +0000,
cube_r.png,0.1,-0.31,invalid,7,7,0,up,2.315132800024003,None,space,0.33428499998990446,None,,,,,0,7,7,7,,,,,793.2272358000046,,,,,,,,,,,,,793.211760199978,793.2272358000046,793.2272358000046,793.2272358000046,795.5590456000064,,,,795.5659532999853,795.5772170999553,795.5772170999553,795.6249652999686,795.6254768000217,795.6414036999922,795.6414036999922,795.6414036999922,795.72460950003,795.9928280999884,,,,,,,,up,2.315132800024003,None,space,0.33428499998990446,None,,,,,,,,,,,,,,,P125,001,2025-02-26_10h00.14.630,posner_endo_new1,2024.2.4,60.134569141415035,2025-02-26 10h00.21.620192 +0000,
cube_l.png,0.1,-0.31,valid,8,8,0,up,2.415021999971941,None,space,0.3564955999609083,None,,,,,0,8,8,8,,,,,796.0076352000469,,,,,,,,,,,,,795.9932752000168,796.0076352000469,796.0076352000469,796.0076352000469,798.4401192000369,,,,798.45719310001,798.4677035000641,798.4677035000641,798.5053419000469,798.5058561000042,798.5217778000515,798.5217778000515,798.5217778000515,798.6049976999639,798.8898749999935,,,,,,,,up,2.415021999971941,None,space,0.3564955999609083,None,,,,,,,,,,,,,,,P125,001,2025-02-26_10h00.14.630,posner_endo_new1,2024.2.4,60.134569141415035,2025-02-26 10h00.21.620192 +0000,
cube_r.png,0.1,-0.31,invalid,9,9,0,up,2.1583627000218257,None,space,0.4111276000039652,None,,,,,0,9,9,9,,,,,798.9047285000561,,,,,,,,,,,,,798.8903141999617,798.9047285000561,798.9047285000561,798.9047285000561,801.0706137999659,,,,801.0819539000513,801.0923142000102,801.0923142000102,801.1361794000259,801.1365270999959,801.152667599963,801.152667599963,801.152667599963,801.2359381000279,801.5700996000087,,,,,,,,up,2.1583627000218257,None,space,0.4111276000039652,None,,,,,,,,,,,,,,,P125,001,2025-02-26_10h00.14.630,posner_endo_new1,2024.2.4,60.134569141415035,2025-02-26 10h00.21.620192 +0000,
cube_l.png,0.1,0.31,invalid,10,10,0,up,2.35725750005804,None,space,0.4794720000354573,None,,,,,0,10,10,10,,,,,801.585506399977,,,,,,,,,,,,,801.5703890000004,801.585506399977,801.585506399977,801.585506399977,803.9511045999825,,,,803.9624653999927,803.9730016000103,803.9730016000103,804.0166063000215,804.0169650999596,804.033118500025,804.033118500025,804.033118500025,804.116275700042,804.5173157000681,,,,,,,,up,2.35725750005804,None,space,0.4794720000354573,None,,,,,,,,,,,,,,,P125,001,2025-02-26_10h00.14.630,posner_endo_new1,2024.2.4,60.134569141415035,2025-02-26 10h00.21.620192 +0000,
cube_r.png,0.1,-0.31,invalid,11,11,0,up,2.1620750000001863,None,space,0.42512999998871237,None,,,,,0,11,11,11,,,,,804.5325712000486,,,,,,,,,,,,,804.517612399999,804.5325712000486,804.5325712000486,804.5325712000486,806.698232900002,,,,806.7097168000182,806.720131500042,806.720131500042,806.7636834000004,806.7640322999796,806.7802515999647,806.7802515999647,806.7802515999647,806.8634531999705,807.2145186000271,,,,,,,,up,2.1620750000001863,None,space,0.42512999998871237,None,,,,,,,,,,,,,,,P125,001,2025-02-26_10h00.14.630,posner_endo_new1,2024.2.4,60.134569141415035,2025-02-26 10h00.21.620192 +0000,
cube_r.png,0.1,0.31,valid,12,12,0,up,2.329561199992895,None,space,0.3952129000099376,None,,,,,0,12,12,12,,,,,807.2297825999558,,,,,,,,,,,,,807.2148090000264,807.2297825999558,807.2297825999558,807.2297825999558,809.5621296999743,,,,809.5735187999671,809.5838750000112,809.5838750000112,809.6274919999996,809.627838699962,809.6438737000572,809.6438737000572,809.6438737000572,809.727206200012,810.0448270000052,,,,,,,,up,2.329561199992895,None,space,0.3952129000099376,None,,,,,,,,,,,,,,,P125,001,2025-02-26_10h00.14.630,posner_endo_new1,2024.2.4,60.134569141415035,2025-02-26 10h00.21.620192 +0000,
cube_l.png,0.1,10,catch,13,13,0,up,2.0098701999522746,None,None,,,,,,,0,13,13,13,,,,,810.0602443000535,,,,,,,,,,,,,810.0451216000365,810.0602443000535,810.0602443000535,810.0602443000535,812.0760650000302,,,,812.087509999983,812.097896900028,812.097896900028,812.1414991000202,812.1418427999597,812.1581398999551,812.1581398999551,812.1581398999551,812.2413428999716,815.1557757999981,,,,814.2558717000065,815.1718547999626,815.1718547999626,815.1718547999626,up,2.0098701999522746,None,None,,,,,,,,,,,,,,,,,P125,001,2025-02-26_10h00.14.630,posner_endo_new1,2024.2.4,60.134569141415035,2025-02-26 10h00.21.620192 +0000,
cube_r.png,0.1,-0.31,invalid,14,14,0,up,3.2501619000686333,None,space,0.45518689998425543,None,,,,,0,14,14,14,,,,,815.1718547999626,,,,,,,,,,,,,815.1560429000529,815.1718547999626,815.1718547999626,815.1718547999626,818.4357773000374,,,,818.443152599968,818.4544946000678,818.4544946000678,818.501007999992,818.5012619000627,818.5180906000314,818.5180906000314,818.5180906000314,818.6012721000006,818.9859400000423,,,,,,,,up,3.2501619000686333,None,space,0.45518689998425543,None,,,,,,,,,,,,,,,P125,001,2025-02-26_10h00.14.630,posner_endo_new1,2024.2.4,60.134569141415035,2025-02-26 10h00.21.620192 +0000,
cube_l.png,0.1,-0.31,valid,15,15,0,up,2.3092730999924242,None,space,0.4145805999869481,None,,,,,0,15,15,15,,,,,819.0008636000566,,,,,,,,,,,,,818.986376899993,819.0008636000566,819.0008636000566,819.0008636000566,821.3167627999792,,,,821.3277324000373,821.3379259000067,821.3379259000067,821.3821539999917,821.3824890999822,821.3985822000541,821.3985822000541,821.3985822000541,821.4818238000153,821.8161217999877,,,,,,,,up,2.3092730999924242,None,space,0.4145805999869481,None,,,,,,,,,,,,,,,P125,001,2025-02-26_10h00.14.630,posner_endo_new1,2024.2.4,60.134569141415035,2025-02-26 10h00.21.620192 +0000,
cube_r.png,0.1,10,catch,16,16,0,up,2.4624717999249697,None,None,,,,,,,0,16,16,16,,,,,821.8316197000677,,,,,,,,,,,,,821.8163975999923,821.8316197000677,821.8316197000677,821.8316197000677,824.2968150000088,,,,824.3077411999693,824.3180398000404,824.3180398000404,824.3624638000038,824.3627925000619,824.3789500000421,824.3789500000421,824.3789500000421,824.4621691000648,827.3768352000043,,,,826.4768385000061,827.3924792000325,827.3924792000325,827.3924792000325,up,2.4624717999249697,None,None,,,,,,,,,,,,,,,,,P125,001,2025-02-26_10h00.14.630,posner_endo_new1,2024.2.4,60.134569141415035,2025-02-26 10h00.21.620192 +0000,
cube_r.png,0.1,10,catch,17,17,0,up,2.781258900067769,None,None,,,,,,,0,17,17,17,,,,,827.3924792000325,,,,,,,,,,,,,827.377088499954,827.3924792000325,827.3924792000325,827.3924792000325,830.1906384000322,,,,830.2016426000046,830.2115388000384,830.2115388000384,830.2564061000012,830.2567485000473,830.2729929999914,830.2729929999914,830.2729929999914,830.356144099962,833.2705251000589,,,,832.3707251000451,833.2865486000665,833.2865486000665,833.2865486000665,up,2.781258900067769,None,None,,,,,,,,,,,,,,,,,P125,001,2025-02-26_10h00.14.630,posner_endo_new1,2024.2.4,60.134569141415035,2025-02-26 10h00.21.620192 +0000,
cube_l.png,0.1,0.31,invalid,18,18,0,up,2.824712199973874,None,space,0.3919025999493897,None,,,,,0,18,18,18,,,,,833.2865486000665,,,,,,,,,,,,,833.2707777000032,833.2865486000665,833.2865486000665,833.2865486000665,836.1181570000481,,,,836.1291135000065,836.1392637999961,836.1392637999961,836.1836582999676,836.1839893000433,836.2001092999708,836.2001092999708,836.2001092999708,836.2835032000439,836.6009378000163,,,,,,,,up,2.824712199973874,None,space,0.3919025999493897,None,,,,,,,,,,,,,,,P125,001,2025-02-26_10h00.14.630,posner_endo_new1,2024.2.4,60.134569141415035,2025-02-26 10h00.21.620192 +0000,
cube_l.png,0.1,10,catch,19,19,0,up,2.133544099982828,None,None,,,,,,,0,19,19,19,,,,,836.6164162000641,,,,,,,,,,,,,836.6012218999676,836.6164162000641,836.6164162000641,836.6164162000641,838.7654370999662,,,,838.7740538000362,838.7838971000165,838.7838971000165,838.8310018000193,838.8312399999704,838.8474442999577,838.8474442999577,838.8474442999577,838.9305429999949,841.8448147999588,,,,840.945260599954,841.8610130000161,841.8610130000161,841.8610130000161,up,2.133544099982828,None,None,,,,,,,,,,,,,,,,,P125,001,2025-02-26_10h00.14.630,posner_endo_new1,2024.2.4,60.134569141415035,2025-02-26 10h00.21.620192 +0000,
cube_l.png,0.1,0.31,invalid,20,20,0,up,2.5930364000378177,None,space,0.41652160009834915,None,,,,,0,20,20,20,,,,,841.8610130000161,,,,,,,,,,,,,841.8449937000405,841.8610130000161,841.8610130000161,841.8610130000161,844.4590852999827,,,,844.4659513999941,844.4772712000413,844.4772712000413,844.5249986000126,844.5255076000467,844.541426599957,844.541426599957,844.541426599957,844.6246805000119,844.9597137999954,,,,,,,,up,2.5930364000378177,None,space,0.41652160009834915,None,,,,,,,,,,,,,,,P125,001,2025-02-26_10h00.14.630,posner_endo_new1,2024.2.4,60.134569141415035,2025-02-26 10h00.21.620192 +0000,
cube_l.png,0.1,-0.31,valid,21,21,0,up,2.2324806000106037,None,space,0.43437530007213354,None,,,,,0,21,21,21,,,,,844.9743239000672,,,,,,,,,,,,,844.9601558999857,844.9743239000672,844.9743239000672,844.9743239000672,847.2235154999653,,,,847.233834899962,847.2432841999689,847.2432841999689,847.2889014000539,847.2891391000012,847.3054990000091,847.3054990000091,847.3054990000091,847.3886200999841,847.755746299983,,,,,,,,up,2.2324806000106037,None,space,0.43437530007213354,None,,,,,,,,,,,,,,,P125,001,2025-02-26_10h00.14.630,posner_endo_new1,2024.2.4,60.134569141415035,2025-02-26 10h00.21.620192 +0000,
cube_r.png,0.1,0.31,valid,22,22,0,up,1.9066266000736505,None,space,0.32046139996964484,None,,,,,0,22,22,22,,,,,847.7715659000678,,,,,,,,,,,,,847.7559399000602,847.7715659000678,847.7715659000678,847.7715659000678,849.6870674999664,,,,849.6940724999877,849.7060712999664,849.7060712999664,849.753003800055,849.7532455000328,849.7695188999642,849.7695188999642,849.7695188999642,849.8361780999694,850.1033764999593,,,,,,,,up,1.9066266000736505,None,space,0.32046139996964484,None,,,,,,,,,,,,,,,P125,001,2025-02-26_10h00.14.630,posner_endo_new1,2024.2.4,60.134569141415035,2025-02-26 10h00.21.620192 +0000,
cube_r.png,0.1,-0.31,invalid,23,23,0,up,2.3435179000953212,None,space,0.33789389999583364,None,,,,,0,23,23,23,,,,,850.1192122000502,,,,,,,,,,,,,850.1035642999923,850.1192122000502,850.1192122000502,850.1192122000502,852.4677291000262,,,,852.4745796000352,852.4864295000443,852.4864295000443,852.5337710999884,852.5339958000695,852.549849400064,852.549849400064,852.549849400064,852.6166503999848,852.9005730999634,,,,,,,,up,2.3435179000953212,None,space,0.33789389999583364,None,,,,,,,,,,,,,,,P125,001,2025-02-26_10h00.14.630,posner_endo_new1,2024.2.4,60.134569141415035,2025-02-26 10h00.21.620192 +0000,
cube_r.png,0.1,0.31,valid,24,24,0,up,2.121634399984032,None,space,0.32180409994907677,None,,,,,0,24,24,24,,,,,852.9164147999836,,,,,,,,,,,,,852.9007461000001,852.9164147999836,852.9164147999836,852.9164147999836,855.0484112000559,,,,855.0543768999632,855.0659961999627,855.0659961999627,855.1143410999794,855.1145665000658,855.1308554999996,855.1308554999996,855.1308554999996,855.2141095000552,855.4645557999611,,,,,,,,up,2.121634399984032,None,space,0.32180409994907677,None,,,,,,,,,,,,,,,P125,001,2025-02-26_10h00.14.630,posner_endo_new1,2024.2.4,60.134569141415035,2025-02-26 10h00.21.620192 +0000,
cube_r.png,0.1,-0.31,invalid,25,25,0,up,2.142016700003296,None,space,0.42015110002830625,None,,,,,0,25,25,25,,,,,855.4804668000434,,,,,,,,,,,,,855.4647326000268,855.4804668000434,855.4804668000434,855.4804668000434,857.6291665000608,,,,857.6351937999716,857.6472205000464,857.6472205000464,857.6949867999647,857.6952124000527,857.7115092000458,857.7115092000458,857.7115092000458,857.7947951999959,858.1450866999803,,,,,,,,up,2.142016700003296,None,space,0.42015110002830625,None,,,,,,,,,,,,,,,P125,001,2025-02-26_10h00.14.630,posner_endo_new1,2024.2.4,60.134569141415035,2025-02-26 10h00.21.620192 +0000,
cube_l.png,0.1,-0.31,valid,26,26,0,up,2.101257300004363,None,space,0.3827220000093803,None,,,,,0,26,26,26,,,,,858.1611505000619,,,,,,,,,,,,,858.1452609000262,858.1611505000619,858.1611505000619,858.1611505000619,860.2761577999918,,,,860.2821577000432,860.2939735000255,860.2939735000255,860.3422437000554,860.3424683000194,860.3589623000007,860.3589623000007,860.3589623000007,860.4253470000112,860.7425969999749,,,,,,,,up,2.101257300004363,None,space,0.3827220000093803,None,,,,,,,,,,,,,,,P125,001,2025-02-26_10h00.14.630,posner_endo_new1,2024.2.4,60.134569141415035,2025-02-26 10h00.21.620192 +0000,
cube_r.png,0.1,0.31,valid,27,27,0,up,1.7292160000652075,None,space,0.3851526000071317,None,,,,,0,27,27,27,,,,,860.7582985999761,,,,,,,,,,,,,860.7427701000124,860.7582985999761,860.7582985999761,860.7582985999761,862.4905399000272,,,,862.4965202000458,862.508149500005,862.508149500005,862.5567199999932,862.5569507000037,862.5731361999642,862.5731361999642,862.5731361999642,862.6397759000538,862.9735347999958,,,,,,,,up,1.7292160000652075,None,space,0.3851526000071317,None,,,,,,,,,,,,,,,P125,001,2025-02-26_10h00.14.630,posner_endo_new1,2024.2.4,60.134569141415035,2025-02-26 10h00.21.620192 +0000,
cube_r.png,0.1,10,catch,28,28,0,up,1.5931422000285238,None,None,,,,,,,0,28,28,28,,,,,862.9895426000003,,,,,,,,,,,,,862.9737099000486,862.9895426000003,862.9895426000003,862.9895426000003,864.5883305000607,,,,864.5942012000596,864.6059639999876,864.6059639999876,864.6545920000644,864.654819300049,864.6710712000495,864.6710712000495,864.6710712000495,864.7375998999923,867.6686163999839,,,,866.7523683999898,867.6846820999635,867.6846820999635,867.6846820999635,up,1.5931422000285238,None,None,,,,,,,,,,,,,,,,,P125,001,2025-02-26_10h00.14.630,posner_endo_new1,2024.2.4,60.134569141415035,2025-02-26 10h00.21.620192 +0000,
cube_r.png,0.1,0.31,valid,29,29,0,up,0.4421666000271216,None,space,0.4141945999581367,None,,,,,0,29,29,29,,,,,867.6846820999635,,,,,,,,,,,,,867.6687774000457,867.6846820999635,867.6846820999635,867.6846820999635,868.1348919000011,,,,868.1408671999816,868.1525220000185,868.1525220000185,868.2009674999863,868.2011915000621,868.2173967000563,868.2173967000563,868.2173967000563,868.284027799964,868.6343562999973,,,,,,,,up,0.4421666000271216,None,space,0.4141945999581367,None,,,,,,,,,,,,,,,P125,001,2025-02-26_10h00.14.630,posner_endo_new1,2024.2.4,60.134569141415035,2025-02-26 10h00.21.620192 +0000,
cube_r.png,0.1,0.31,valid,30,30,0,up,2.6520313000073656,None,space,0.4109056000597775,None,,,,,0,30,30,30,,,,,868.650476400042,,,,,,,,,,,,,868.6345315000508,868.650476400042,868.650476400042,868.650476400042,871.3149904999882,,,,871.3210200000321,871.33279460005,871.33279460005,871.3810942999553,871.3813189000357,871.3974940000335,871.3974940000335,871.3974940000335,871.4641002999851,871.8145827000262,,,,,,,,up,2.6520313000073656,None,space,0.4109056000597775,None,,,,,,,,,,,,,,,P125,001,2025-02-26_10h00.14.630,posner_endo_new1,2024.2.4,60.134569141415035,2025-02-26 10h00.21.620192 +0000,
cube_l.png,0.1,-0.31,valid,31,31,0,up,3.0797696000663564,None,space,0.4615599000826478,None,,,,,0,31,31,31,,,,,871.8304274000693,,,,,,,,,,,,,871.8147599999793,871.8304274000693,871.8304274000693,871.8304274000693,874.9113609000342,,,,874.9173120000632,874.9287537999917,874.9287537999917,874.9774227000307,874.9776453999802,874.9938141000457,874.9938141000457,874.9938141000457,875.060411100043,875.4607853000052,,,,,,,,up,3.0797696000663564,None,space,0.4615599000826478,None,,,,,,,,,,,,,,,P125,001,2025-02-26_10h00.14.630,posner_endo_new1,2024.2.4,60.134569141415035,2025-02-26 10h00.21.620192 +0000,
cube_r.png,0.1,0.31,valid,32,32,0,up,2.130164600093849,None,space,0.3470615999540314,None,,,,,0,32,32,32,,,,,875.4766771000577,,,,,,,,,,,,,875.460958300042,875.4766771000577,875.4766771000577,875.4766771000577,877.6087558000581,,,,877.6147324000485,877.6264991000062,877.6264991000062,877.6746814000653,877.6749048000202,877.6909827999771,877.6909827999771,877.6909827999771,877.7743923000526,878.0417526999954,,,,,,,,up,2.130164600093849,None,space,0.3470615999540314,None,,,,,,,,,,,,,,,P125,001,2025-02-26_10h00.14.630,posner_endo_new1,2024.2.4,60.134569141415035,2025-02-26 10h00.21.620192 +0000,
cube_r.png,0.1,-0.31,invalid,33,33,0,up,2.028781099943444,None,space,0.40692229999694973,None,,,,,0,33,33,33,,,,,878.0573699000524,,,,,,,,,,,,,878.041927000042,878.0573699000524,878.0573699000524,878.0573699000524,880.0891155999852,,,,880.0951046999544,880.1066952999681,880.1066952999681,880.1551926999819,880.1554243999999,880.1720078999642,880.1720078999642,880.1720078999642,880.2384012000402,880.5887524000136,,,,,,,,up,2.028781099943444,None,space,0.40692229999694973,None,,,,,,,,,,,,,,,P125,001,2025-02-26_10h00.14.630,posner_endo_new1,2024.2.4,60.134569141415035,2025-02-26 10h00.21.620192 +0000,
cube_r.png,0.1,10,catch,34,34,0,up,2.161886600079015,None,None,,,,,,,0,34,34,34,,,,,880.6046307999641,,,,,,,,,,,,,880.5889274000656,880.6046307999641,880.6046307999641,880.6046307999641,882.7700499000493,,,,882.7759468000149,882.7875907999696,882.7875907999696,882.8359827999957,882.8362053000601,882.8525111000054,882.8525111000054,882.8525111000054,882.919033800019,885.8501647000667,,,,884.9337836999912,885.8661162999924,885.8661162999924,885.8661162999924,up,2.161886600079015,None,None,,,,,,,,,,,,,,,,,P125,001,2025-02-26_10h00.14.630,posner_endo_new1,2024.2.4,60.134569141415035,2025-02-26 10h00.21.620192 +0000,
cube_r.png,0.1,0.31,valid,35,35,0,up,0.16471150005236268,None,space,0.39893499994650483,None,,,,,0,35,35,35,,,,,885.8661162999924,,,,,,,,,,,,,885.850398199982,885.8661162999924,885.8661162999924,885.8661162999924,886.0337458000286,,,,886.0433865999803,886.0536033000099,886.0536033000099,886.0993181000231,886.099624000024,886.115658499999,886.115658499999,886.115658499999,886.199073900003,886.5166509000119,,,,,,,,up,0.16471150005236268,None,space,0.39893499994650483,None,,,,,,,,,,,,,,,P125,001,2025-02-26_10h00.14.630,posner_endo_new1,2024.2.4,60.134569141415035,2025-02-26 10h00.21.620192 +0000,
cube_r.png,0.1,-0.31,invalid,36,36,0,up,2.0979546000016853,None,space,0.4134868000401184,None,,,,,0,36,36,36,,,,,886.5320862999652,,,,,,,,,,,,,886.5169037999585,886.5320862999652,886.5320862999652,886.5320862999652,888.6312086000107,,,,888.6408098000102,888.6509880999802,888.6509880999802,888.6966917000245,888.6970019000582,888.7132719999645,888.7132719999645,888.7132719999645,888.7964731999673,889.1304155000253,,,,,,,,up,2.0979546000016853,None,space,0.4134868000401184,None,,,,,,,,,,,,,,,P125,001,2025-02-26_10h00.14.630,posner_endo_new1,2024.2.4,60.134569141415035,2025-02-26 10h00.21.620192 +0000,
cube_l.png,0.1,0.31,invalid,37,37,0,up,5.196346699958667,None,space,0.43064589996356517,None,,,,,0,37,37,37,,,,,889.146092299954,,,,,,,,,,,,,889.130671299994,889.146092299954,889.146092299954,889.146092299954,894.3584525999613,,,,894.3681701000314,894.378394600004,894.378394600004,894.4241446000524,894.4244527000701,894.4407244999893,894.4407244999893,894.4407244999893,894.5239665999543,894.8746504000155,,,,,,,,up,5.196346699958667,None,space,0.43064589996356517,None,,,,,,,,,,,,,,,P125,001,2025-02-26_10h00.14.630,posner_endo_new1,2024.2.4,60.134569141415035,2025-02-26 10h00.21.620192 +0000,
cube_l.png,0.1,0.31,invalid,38,38,0,up,2.180332600022666,None,space,0.39406489999964833,None,,,,,0,38,38,38,,,,,894.8902817000635,,,,,,,,,,,,,894.8749095000094,894.8902817000635,894.8902817000635,894.8902817000635,897.0725051000481,,,,897.0822229000041,897.0923675000668,897.0923675000668,897.1381356000202,897.1384478000691,897.15468529996,897.15468529996,897.15468529996,897.2378779000137,897.5551233000588,,,,,,,,up,2.180332600022666,None,space,0.39406489999964833,None,,,,,,,,,,,,,,,P125,001,2025-02-26_10h00.14.630,posner_endo_new1,2024.2.4,60.134569141415035,2025-02-26 10h00.21.620192 +0000,
cube_r.png,0.1,0.31,valid,39,39,0,up,2.3323768000118434,None,space,0.46633840003050864,None,,,,,0,39,39,39,,,,,897.5708121999633,,,,,,,,,,,,,897.5553741999902,897.5708121999633,897.5708121999633,897.5708121999633,899.9194131999975,,,,899.9289761000546,899.9391912999563,899.9391912999563,899.9850722000701,899.985382999992,900.0016641999828,900.0016641999828,900.0016641999828,900.0848762000678,900.46912350005,,,,,,,,up,2.3323768000118434,None,space,0.46633840003050864,None,,,,,,,,,,,,,,,P125,001,2025-02-26_10h00.14.630,posner_endo_new1,2024.2.4,60.134569141415035,2025-02-26 10h00.21.620192 +0000,
cube_l.png,0.1,0.31,invalid,40,40,0,up,2.1057378998957574,None,space,0.4659043999854475,None,,,,,0,40,40,40,,,,,900.4845256999834,,,,,,,,,,,,,900.4693714999594,900.4845256999834,900.4845256999834,900.4845256999834,902.6000783999916,,,,902.6096651999978,902.6199374999851,902.6199374999851,902.6657234999584,902.6660279000644,902.6822552999947,902.6822552999947,902.6822552999947,902.7656418000115,903.1496427999809,,,,,,,,up,2.1057378998957574,None,space,0.4659043999854475,None,,,,,,,,,,,,,,,P125,001,2025-02-26_10h00.14.630,posner_endo_new1,2024.2.4,60.134569141415035,2025-02-26 10h00.21.620192 +0000,
cube_l.png,0.1,10,catch,41,41,0,up,2.3290534999687225,None,None,,,,,,,0,41,41,41,,,,,903.1649582000682,,,,,,,,,,,,,903.1498942000326,903.1649582000682,903.1649582000682,903.1649582000682,905.4970429000678,,,,905.506627600058,905.5168870000634,905.5168870000634,905.5628627999686,905.5631682999665,905.5792800000636,905.5792800000636,905.5792800000636,905.6624955000589,908.5768465000438,,,,907.6772015000461,908.5928630999988,908.5928630999988,908.5928630999988,up,2.3290534999687225,None,None,,,,,,,,,,,,,,,,,P125,001,2025-02-26_10h00.14.630,posner_endo_new1,2024.2.4,60.134569141415035,2025-02-26 10h00.21.620192 +0000,
cube_l.png,0.1,-0.31,valid,42,42,0,up,2.557818099972792,None,space,0.44935800007078797,None,,,,,0,42,42,42,,,,,908.5928630999988,,,,,,,,,,,,,908.5770810999675,908.5928630999988,908.5928630999988,908.5928630999988,911.1580910000484,,,,911.1680207999889,911.1780641999794,911.1780641999794,911.2236815000651,911.2239885999588,911.2401207999792,911.2401207999792,911.2401207999792,911.3234657000285,911.6910175000085,,,,,,,,up,2.557818099972792,None,space,0.44935800007078797,None,,,,,,,,,,,,,,,P125,001,2025-02-26_10h00.14.630,posner_endo_new1,2024.2.4,60.134569141415035,2025-02-26 10h00.21.620192 +0000,
cube_l.png,0.1,10,catch,43,43,0,up,1.8842940999893472,None,None,,,,,,,0,43,43,43,,,,,911.7064593000105,,,,,,,,,,,,,911.6912664000411,911.7064593000105,911.7064593000105,911.7064593000105,913.6054911999963,,,,913.6152324000141,913.6253425000468,913.6253425000468,913.6712632999988,913.6715735000325,913.6876786999637,913.6876786999637,913.6876786999637,913.7709216000512,916.6851610000012,,,,915.7854175000684,916.7010660000378,916.7010660000378,916.7010660000378,up,1.8842940999893472,None,None,,,,,,,,,,,,,,,,,P125,001,2025-02-26_10h00.14.630,posner_endo_new1,2024.2.4,60.134569141415035,2025-02-26 10h00.21.620192 +0000,
cube_l.png,0.1,0.31,invalid,44,44,0,up,2.7052732000593096,None,space,0.524231499992311,None,,,,,0,44,44,44,,,,,916.7010660000378,,,,,,,,,,,,,916.6853185000364,916.7010660000378,916.7010660000378,916.7010660000378,919.4158223000122,,,,919.4222148000263,919.4338047000347,919.4338047000347,919.4817824000493,919.4822877000552,919.4981715000467,919.4981715000467,919.4981715000467,919.5814038000535,920.032833400066,,,,,,,,up,2.7052732000593096,None,space,0.524231499992311,None,,,,,,,,,,,,,,,P125,001,2025-02-26_10h00.14.630,posner_endo_new1,2024.2.4,60.134569141415035,2025-02-26 10h00.21.620192 +0000,
cube_l.png,0.1,0.31,invalid,45,45,0,up,2.0387127000140026,None,space,0.3173277999740094,None,,,,,0,45,45,45,,,,,920.0476429000264,,,,,,,,,,,,,920.0332645999733,920.0476429000264,920.0476429000264,920.0476429000264,922.0968027999625,,,,922.1081937999697,922.1184722000035,922.1184722000035,922.1624727000017,922.1628177000675,922.1789711000165,922.1789711000165,922.1789711000165,922.2622297999915,922.5131862000562,,,,,,,,up,2.0387127000140026,None,space,0.3173277999740094,None,,,,,,,,,,,,,,,P125,001,2025-02-26_10h00.14.630,posner_endo_new1,2024.2.4,60.134569141415035,2025-02-26 10h00.21.620192 +0000,
cube_r.png,0.1,0.31,valid,46,46,0,up,2.3584733000025153,None,space,0.3689376999391243,None,,,,,0,46,46,46,,,,,922.5286404000362,,,,,,,,,,,,,922.5134710000129,922.5286404000362,922.5286404000362,922.5286404000362,924.8940139999613,,,,924.9034945999738,924.9130852000089,924.9130852000089,924.9595322000096,924.9597700999584,924.9760413999902,924.9760413999902,924.9760413999902,925.0593487999868,925.3597607000265,,,,,,,,up,2.3584733000025153,None,space,0.3689376999391243,None,,,,,,,,,,,,,,,P125,001,2025-02-26_10h00.14.630,posner_endo_new1,2024.2.4,60.134569141415035,2025-02-26 10h00.21.620192 +0000,
cube_l.png,0.1,-0.31,valid,47,47,0,up,2.2065012000966817,None,space,0.3610004000365734,None,,,,,0,47,47,47,,,,,925.375589900068,,,,,,,,,,,,,925.3599456000375,925.375589900068,925.375589900068,925.375589900068,927.5910155000165,,,,927.5979292000411,927.6098935999908,927.6098935999908,927.6567843999946,927.65702709998,927.6733781000366,927.6733781000366,927.6733781000366,927.7564506999915,928.0401552000549,,,,,,,,up,2.2065012000966817,None,space,0.3610004000365734,None,,,,,,,,,,,,,,,P125,001,2025-02-26_10h00.14.630,posner_endo_new1,2024.2.4,60.134569141415035,2025-02-26 10h00.21.620192 +0000,
cube_r.png,0.1,-0.31,invalid,48,48,0,up,2.0697930000023916,None,space,0.34430829994380474,None,,,,,0,48,48,48,,,,,928.0562902999809,,,,,,,,,,,,,928.0403398000635,928.0562902999809,928.0562902999809,928.0562902999809,930.1383476000046,,,,930.1452392999781,930.1569986999966,930.1569986999966,930.2042710999958,930.2044947000686,930.2206939000171,930.2206939000171,930.2206939000171,930.3038558999542,930.5711211999878,,,,,,,,up,2.0697930000023916,None,space,0.34430829994380474,None,,,,,,,,,,,,,,,P125,001,2025-02-26_10h00.14.630,posner_endo_new1,2024.2.4,60.134569141415035,2025-02-26 10h00.21.620192 +0000,
cube_r.png,0.1,10,catch,49,49,0,up,2.3082683000247926,None,None,,,,,,,0,49,49,49,,,,,930.5870837999973,,,,,,,,,,,,,930.5712898999918,930.5870837999973,930.5870837999973,930.5870837999973,932.9020274999784,,,,932.9080125000328,932.9195490999846,932.9195490999846,932.9681484999601,932.9683735000435,932.9845931000309,932.9845931000309,932.9845931000309,933.0511074999813,935.9819650000427,,,,935.0655588000081,935.9982095999876,935.9982095999876,935.9982095999876,up,2.3082683000247926,None,None,,,,,,,,,,,,,,,,,P125,001,2025-02-26_10h00.14.630,posner_endo_new1,2024.2.4,60.134569141415035,2025-02-26 10h00.21.620192 +0000,
cube_l.png,0.1,-0.31,valid,50,50,0,up,2.4799575000070035,None,space,0.3902428000001237,None,,,,,0,50,50,50,,,,,935.9982095999876,,,,,,,,,,,,,935.982127299998,935.9982095999876,935.9982095999876,935.9982095999876,938.4798873000545,,,,938.4863148999866,938.4980862999801,938.4980862999801,938.5457139000064,938.5459404999856,938.562198300031,938.562198300031,938.562198300031,938.6454666999634,938.9625570999924,,,,,,,,up,2.4799575000070035,None,space,0.3902428000001237,None,,,,,,,,,,,,,,,P125,001,2025-02-26_10h00.14.630,posner_endo_new1,2024.2.4,60.134569141415035,2025-02-26 10h00.21.620192 +0000,
cube_l.png,0.1,-0.31,valid,51,51,0,up,2.4440365999471396,None,space,0.4539309999672696,None,,,,,0,51,51,51,,,,,938.9784592000069,,,,,,,,,,,,,938.9627319000429,938.9784592000069,938.9784592000069,938.9784592000069,941.4266686000628,,,,941.4327664000448,941.4444077999797,941.4444077999797,941.4924295999808,941.492655799957,941.5094302999787,941.5094302999787,941.5094302999787,941.5758728999645,941.9762038000626,,,,,,,,up,2.4440365999471396,None,space,0.4539309999672696,None,,,,,,,,,,,,,,,P125,001,2025-02-26_10h00.14.630,posner_endo_new1,2024.2.4,60.134569141415035,2025-02-26 10h00.21.620192 +0000,
cube_r.png,0.1,-0.31,invalid,52,52,0,up,1.990199499996379,None,space,0.35765719995833933,None,,,,,0,52,52,52,,,,,941.9919379999628,,,,,,,,,,,,,941.9763734999578,941.9919379999628,941.9919379999628,941.9919379999628,943.9907302999636,,,,943.9966851000208,944.0083734999644,944.0083734999644,944.0565845000092,944.056807899964,944.0732361000264,944.0732361000264,944.0732361000264,944.1398326000199,944.440395600046,,,,,,,,up,1.990199499996379,None,space,0.35765719995833933,None,,,,,,,,,,,,,,,P125,001,2025-02-26_10h00.14.630,posner_endo_new1,2024.2.4,60.134569141415035,2025-02-26 10h00.21.620192 +0000,
cube_l.png,0.1,-0.31,valid,53,53,0,up,2.1349649999756366,None,space,0.3707464000908658,None,,,,,0,53,53,53,,,,,944.4560958000366,,,,,,,,,,,,,944.4405673999572,944.4560958000366,944.4560958000366,944.4560958000366,946.6046904000686,,,,946.6106734999921,946.6222557000583,946.6222557000583,946.670731500024,946.670956899994,946.6872419000138,946.6872419000138,946.6872419000138,946.7538648999762,947.0709343999624,,,,,,,,up,2.1349649999756366,None,space,0.3707464000908658,None,,,,,,,,,,,,,,,P125,001,2025-02-26_10h00.14.630,posner_endo_new1,2024.2.4,60.134569141415035,2025-02-26 10h00.21.620192 +0000,
cube_r.png,0.1,10,catch,54,54,0,up,2.351109499926679,None,None,,,,,,,0,54,54,54,,,,,947.0869831000455,,,,,,,,,,,,,947.071101999958,947.0869831000455,947.0869831000455,947.0869831000455,949.4517980000237,,,,949.4578101000516,949.4694174999604,949.4694174999604,949.5178466000361,949.5180756000336,949.5343018999556,949.5343018999556,949.5343018999556,949.6011241000379,952.5318457999965,,,,951.6156078999629,952.5483572999947,952.5483572999947,952.5483572999947,up,2.351109499926679,None,None,,,,,,,,,,,,,,,,,P125,001,2025-02-26_10h00.14.630,posner_endo_new1,2024.2.4,60.134569141415035,2025-02-26 10h00.21.620192 +0000,
cube_l.png,0.1,0.31,invalid,55,55,0,up,2.153814799967222,None,space,0.38701509998645633,None,,,,,0,55,55,55,,,,,952.5483572999947,,,,,,,,,,,,,952.5320148000028,952.5483572999947,952.5483572999947,952.5483572999947,954.7131210999796,,,,954.7192783000646,954.7311086000409,954.7311086000409,954.7791932000546,954.7794315000065,954.7955372000579,954.7955372000579,954.7955372000579,954.8624682000373,955.195879100007,,,,,,,,up,2.153814799967222,None,space,0.38701509998645633,None,,,,,,,,,,,,,,,P125,001,2025-02-26_10h00.14.630,posner_endo_new1,2024.2.4,60.134569141415035,2025-02-26 10h00.21.620192 +0000,
cube_l.png,0.1,-0.31,valid,56,56,0,up,1.88207280007191,None,space,0.4509252000134438,None,,,,,0,56,56,56,,,,,955.2118682999862,,,,,,,,,,,,,955.1960500000278,955.2118682999862,955.2118682999862,955.2118682999862,957.110724600032,,,,957.1167326000286,957.1282233999809,957.1282233999809,957.1766579999821,957.176882800064,957.1932075000368,957.1932075000368,957.1932075000368,957.2765652000671,957.6599768999731,,,,,,,,up,1.88207280007191,None,space,0.4509252000134438,None,,,,,,,,,,,,,,,P125,001,2025-02-26_10h00.14.630,posner_endo_new1,2024.2.4,60.134569141415035,2025-02-26 10h00.21.620192 +0000,
cube_r.png,0.1,0.31,valid,57,57,0,up,2.0103772999718785,None,space,0.3617924000136554,None,,,,,0,57,57,57,,,,,957.6757420999929,,,,,,,,,,,,,957.6601334000006,957.6757420999929,957.6757420999929,957.6757420999929,959.6914625000209,,,,959.6975000000093,959.7091944999993,959.7091944999993,959.7572493000189,959.7574726999737,959.7738136999542,959.7738136999542,959.7738136999542,959.8404976000311,960.1410489999689,,,,,,,,up,2.0103772999718785,None,space,0.3617924000136554,None,,,,,,,,,,,,,,,P125,001,2025-02-26_10h00.14.630,posner_endo_new1,2024.2.4,60.134569141415035,2025-02-26 10h00.21.620192 +0000,
cube_r.png,0.1,-0.31,invalid,58,58,0,up,2.090024200035259,None,space,0.3746621001046151,None,,,,,0,58,58,58,,,,,960.1567566000158,,,,,,,,,,,,,960.1412197999889,960.1567566000158,960.1567566000158,960.1567566000158,962.2554215999553,,,,962.2614481999772,962.2730359999696,962.2730359999696,962.3214050000533,962.3216264999937,962.3378832000308,962.3378832000308,962.3378832000308,962.4045738000423,962.7215927999932,,,,,,,,up,2.090024200035259,None,space,0.3746621001046151,None,,,,,,,,,,,,,,,P125,001,2025-02-26_10h00.14.630,posner_endo_new1,2024.2.4,60.134569141415035,2025-02-26 10h00.21.620192 +0000,
cube_l.png,0.1,0.31,invalid,59,59,0,up,2.0447523000184447,None,space,0.34693629993125796,None,,,,,0,59,59,59,,,,,962.737620000029,,,,,,,,,,,,,962.7217655000277,962.737620000029,962.737620000029,962.737620000029,964.7861976999557,,,,964.7921353999991,964.8038159999996,964.8038159999996,964.8521978000645,964.8524244000437,964.8687164000003,964.8687164000003,964.8687164000003,964.9354143000674,965.2191485000076,,,,,,,,up,2.0447523000184447,None,space,0.34693629993125796,None,,,,,,,,,,,,,,,P125,001,2025-02-26_10h00.14.630,posner_endo_new1,2024.2.4,60.134569141415035,2025-02-26 10h00.21.620192 +0000,
,,,,,,,,,,,,,,,,,,,,,,,,,,,,,,,,,,,,,,,,,,,,,,,,,,,,,,,,,,,,,,,,,,,,,965.2192588000325,965.2347573000006,965.2347573000006,1025.2402322000125,1041.6577377000358,space,76.4206449999474,None,,,,,,,P125,001,2025-02-26_10h00.14.630,posner_endo_new1,2024.2.4,60.134569141415035,2025-02-26 10h00.21.620192 +0000,
,,,,,,,,,,,,,,,,,,,,,,,,,,,,,,,,,,1041.6577935999958,1041.6734136999585,1044.6942641000496,1044.6543784000678,,,,,,,,,,,,,,,,,,,,,,,,,,,,,,,,,,,,,,,,,,,,,,P125,001,2025-02-26_10h00.14.630,posner_endo_new1,2024.2.4,60.134569141415035,2025-02-26 10h00.21.620192 +0000,
cube_l.png,0.1,10,catch,0,0,0,down,9.432829200057313,None,None,,,,,,,,,,,0,0,0,0,1044.6942641000496,,,,,,,,,,,,,1044.683733999962,1044.6942641000496,1044.6942641000496,1044.6942641000496,1054.130203800043,,,,1054.1540927999886,1054.1663815999636,1054.1663815999636,1054.1938116999809,1054.1942155000288,1054.2109501999803,1054.2109501999803,1054.2109501999803,1054.294193000067,1057.2092822999693,,,,1056.3087914000498,1057.2244870000286,1057.2244870000286,1057.2244870000286,,,,,,,,,,,,,,,down,9.432829200057313,None,None,,,P125,001,2025-02-26_10h00.14.630,posner_endo_new1,2024.2.4,60.134569141415035,2025-02-26 10h00.21.620192 +0000,
cube_l.png,0.1,10,catch,1,1,0,down,2.853607299970463,None,None,,,,,,,,,,,0,1,1,1,1057.2244870000286,,,,,,,,,,,,,1057.2098527000053,1057.2244870000286,1057.2244870000286,1057.2244870000286,1060.0891364000272,,,,1060.0988209999632,1060.1090566000203,1060.1090566000203,1060.1549334999872,1060.1552444000263,1060.1715045999736,1060.1715045999736,1060.1715045999736,1060.2546556000598,1063.1690245000646,,,,1062.2691839999752,1063.1850411000196,1063.1850411000196,1063.1850411000196,,,,,,,,,,,,,,,down,2.853607299970463,None,None,,,P125,001,2025-02-26_10h00.14.630,posner_endo_new1,2024.2.4,60.134569141415035,2025-02-26 10h00.21.620192 +0000,
cube_l.png,0.1,0.31,invalid,2,2,0,down,6.342209300026298,None,space,0.8013509000884369,None,,,,,,,,,0,2,2,2,1063.1850411000196,,,,,,,,,,,,,1063.169261700008,1063.1850411000196,1063.1850411000196,1063.1850411000196,1069.5297566000372,,,,1069.5397258000448,1069.55018390005,1069.55018390005,1069.5952115000691,1069.5955210999819,1069.611706900061,1069.611706900061,1069.611706900061,1069.6949766000034,1070.4285537999822,,,,,,,,,,,,,,,,,,,,,,down,6.342209300026298,None,space,0.8013509000884369,None,P125,001,2025-02-26_10h00.14.630,posner_endo_new1,2024.2.4,60.134569141415035,2025-02-26 10h00.21.620192 +0000,
cube_l.png,0.1,0.31,invalid,3,3,0,down,2.4191005000611767,None,space,0.3724274999694899,None,,,,,,,,,0,3,3,3,1070.4441257000435,,,,,,,,,,,,,1070.42881079996,1070.4441257000435,1070.4441257000435,1070.4441257000435,1072.8755919999676,,,,1072.8820447999751,1072.89393869997,1072.89393869997,1072.9416913000168,1072.9419130999595,1072.9583062999882,1072.9583062999882,1072.9583062999882,1073.0249169999734,1073.341909699957,,,,,,,,,,,,,,,,,,,,,,down,2.4191005000611767,None,space,0.3724274999694899,None,P125,001,2025-02-26_10h00.14.630,posner_endo_new1,2024.2.4,60.134569141415035,2025-02-26 10h00.21.620192 +0000,
cube_l.png,0.1,-0.31,valid,4,4,0,down,2.368176000076346,None,space,0.3708695999812335,None,,,,,,,,,0,4,4,4,1073.3579961999785,,,,,,,,,,,,,1073.3420854000142,1073.3579961999785,1073.3579961999785,1073.3579961999785,1075.7393337000394,,,,1075.7457061000168,1075.7574931000127,1075.7574931000127,1075.8054128000513,1075.8056394000305,1075.8220560000045,1075.8220560000045,1075.8220560000045,1075.8886817999883,1076.2057900000364,,,,,,,,,,,,,,,,,,,,,,down,2.368176000076346,None,space,0.3708695999812335,None,P125,001,2025-02-26_10h00.14.630,posner_endo_new1,2024.2.4,60.134569141415035,2025-02-26 10h00.21.620192 +0000,
cube_r.png,0.1,-0.31,invalid,5,5,0,down,2.377572799916379,None,space,0.4280445999465883,None,,,,,,,,,0,5,5,5,1076.221510100062,,,,,,,,,,,,,1076.2059655999765,1076.221510100062,1076.221510100062,1076.221510100062,1078.603048000019,,,,1078.6094778999686,1078.6211732999654,1078.6211732999654,1078.6691341999685,1078.6693594000535,1078.6857548999833,1078.6857548999833,1078.6857548999833,1078.7524940000148,1079.1196706000483,,,,,,,,,,,,,,,,,,,,,,down,2.377572799916379,None,space,0.4280445999465883,None,P125,001,2025-02-26_10h00.14.630,posner_endo_new1,2024.2.4,60.134569141415035,2025-02-26 10h00.21.620192 +0000,
cube_r.png,0.1,0.31,valid,6,6,0,down,2.0719339000061154,None,space,0.38836810004431754,None,,,,,,,,,0,6,6,6,1079.1353621999733,,,,,,,,,,,,,1079.1199290000368,1079.1353621999733,1079.1353621999733,1079.1353621999733,1081.2176160999807,,,,1081.227251000004,1081.237522899988,1081.237522899988,1081.2832757000579,1081.2835899000056,1081.2997480999911,1081.2997480999911,1081.2997480999911,1081.3830584000098,1081.7005186000606,,,,,,,,,,,,,,,,,,,,,,down,2.0719339000061154,None,space,0.38836810004431754,None,P125,001,2025-02-26_10h00.14.630,posner_endo_new1,2024.2.4,60.134569141415035,2025-02-26 10h00.21.620192 +0000,
cube_r.png,0.1,-0.31,invalid,7,7,0,down,2.138271000003442,None,space,0.46814619994256645,None,,,,,,,,,0,7,7,7,1081.715992399957,,,,,,,,,,,,,1081.7007730000187,1081.715992399957,1081.715992399957,1081.715992399957,1083.86487629998,,,,1083.8731351000024,1083.8834032999584,1083.8834032999584,1083.9304901000578,1083.9307145000203,1083.947054499993,1083.947054499993,1083.947054499993,1084.0303342000116,1084.4306053000037,,,,,,,,,,,,,,,,,,,,,,down,2.138271000003442,None,space,0.46814619994256645,None,P125,001,2025-02-26_10h00.14.630,posner_endo_new1,2024.2.4,60.134569141415035,2025-02-26 10h00.21.620192 +0000,
cube_l.png,0.1,-0.31,valid,8,8,0,down,1.9604197998996824,None,space,0.3684443000238389,None,,,,,,,,,0,8,8,8,1084.4465898000635,,,,,,,,,,,,,1084.4307788000442,1084.4465898000635,1084.4465898000635,1084.4465898000635,1086.4118286999874,,,,1086.4183331000386,1086.43030560005,1086.43030560005,1086.4775835999753,1086.4778027000139,1086.494485000032,1086.494485000032,1086.494485000032,1086.5775342000416,1086.877840399975,,,,,,,,,,,,,,,,,,,,,,down,1.9604197998996824,None,space,0.3684443000238389,None,P125,001,2025-02-26_10h00.14.630,posner_endo_new1,2024.2.4,60.134569141415035,2025-02-26 10h00.21.620192 +0000,
cube_r.png,0.1,-0.31,invalid,9,9,0,down,2.224538299953565,None,space,0.5097426000284031,None,,,,,,,,,0,9,9,9,1086.8938825000077,,,,,,,,,,,,,1086.8780182000482,1086.8938825000077,1086.8938825000077,1086.8938825000077,1089.1257238000399,,,,1089.1317590000108,1089.1433857000666,1089.1433857000666,1089.191703199991,1089.1919280999573,1089.2083415000234,1089.2083415000234,1089.2083415000234,1089.274895700044,1089.725010800059,,,,,,,,,,,,,,,,,,,,,,down,2.224538299953565,None,space,0.5097426000284031,None,P125,001,2025-02-26_10h00.14.630,posner_endo_new1,2024.2.4,60.134569141415035,2025-02-26 10h00.21.620192 +0000,
cube_l.png,0.1,0.31,invalid,10,10,0,down,2.001333799911663,None,space,0.5611585999140516,None,,,,,,,,,0,10,10,10,1089.7411237000488,,,,,,,,,,,,,1089.7251876000082,1089.7411237000488,1089.7411237000488,1089.7411237000488,1091.7564205999952,,,,1091.7624040000373,1091.7740179999964,1091.7740179999964,1091.8224588000448,1091.8226928999647,1091.839055999997,1091.839055999997,1091.839055999997,1091.9056770000607,1092.4058953999775,,,,,,,,,,,,,,,,,,,,,,down,2.001333799911663,None,space,0.5611585999140516,None,P125,001,2025-02-26_10h00.14.630,posner_endo_new1,2024.2.4,60.134569141415035,2025-02-26 10h00.21.620192 +0000,
cube_r.png,0.1,-0.31,invalid,11,11,0,down,1.9044232000596821,None,space,0.4004502999596298,None,,,,,,,,,0,11,11,11,1092.4217509999871,,,,,,,,,,,,,1092.4060705000302,1092.4217509999871,1092.4217509999871,1092.4217509999871,1094.336942999973,,,,1094.3428811000194,1094.3545044000493,1094.3545044000493,1094.403071000008,1094.4032949999673,1094.419726800057,1094.419726800057,1094.419726800057,1094.486309000058,1094.8366645000642,,,,,,,,,,,,,,,,,,,,,,down,1.9044232000596821,None,space,0.4004502999596298,None,P125,001,2025-02-26_10h00.14.630,posner_endo_new1,2024.2.4,60.134569141415035,2025-02-26 10h00.21.620192 +0000,
cube_r.png,0.1,0.31,valid,12,12,0,down,2.322109999950044,None,space,0.400996399926953,None,,,,,,,,,0,12,12,12,1094.8525277000153,,,,,,,,,,,,,1094.8368442000356,1094.8525277000153,1094.8525277000153,1094.8525277000153,1097.1842619000236,,,,1097.1902558000293,1097.201942899963,1097.201942899963,1097.2500726999715,1097.250304599991,1097.2668041000143,1097.2668041000143,1097.2668041000143,1097.3334453999996,1097.6836903999792,,,,,,,,,,,,,,,,,,,,,,down,2.322109999950044,None,space,0.400996399926953,None,P125,001,2025-02-26_10h00.14.630,posner_endo_new1,2024.2.4,60.134569141415035,2025-02-26 10h00.21.620192 +0000,
cube_l.png,0.1,10,catch,13,13,0,down,2.363008699961938,None,None,,,,,,,,,,,0,13,13,13,1097.6996282000327,,,,,,,,,,,,,1097.6838645000244,1097.6996282000327,1097.6996282000327,1097.6996282000327,1100.064855900011,,,,1100.0708085000515,1100.0825602000114,1100.0825602000114,1100.13049650006,1100.130736400024,1100.1471766000614,1100.1471766000614,1100.1471766000614,1100.2137252000393,1103.1445984999882,,,,1102.228390900069,1103.1605143999914,1103.1605143999914,1103.1605143999914,,,,,,,,,,,,,,,down,2.363008699961938,None,None,,,P125,001,2025-02-26_10h00.14.630,posner_endo_new1,2024.2.4,60.134569141415035,2025-02-26 10h00.21.620192 +0000,
cube_r.png,0.1,-0.31,invalid,14,14,0,down,1.9661413999274373,None,space,0.4250129999127239,None,,,,,,,,,0,14,14,14,1103.1605143999914,,,,,,,,,,,,,1103.1447670999914,1103.1605143999914,1103.1605143999914,1103.1605143999914,1105.1427646999946,,,,1105.1486958999885,1105.160388099961,1105.160388099961,1105.2086234999588,1105.208845700021,1105.2252462999895,1105.2252462999895,1105.2252462999895,1105.2918911000015,1105.658952399972,,,,,,,,,,,,,,,,,,,,,,down,1.9661413999274373,None,space,0.4250129999127239,None,P125,001,2025-02-26_10h00.14.630,posner_endo_new1,2024.2.4,60.134569141415035,2025-02-26 10h00.21.620192 +0000,
cube_l.png,0.1,-0.31,valid,15,15,0,down,2.5393094000173733,None,space,0.3491924999980256,None,,,,,,,,,0,15,15,15,1105.6748860999942,,,,,,,,,,,,,1105.6591325000627,1105.6748860999942,1105.6748860999942,1105.6748860999942,1108.2229153000517,,,,1108.2288680999773,1108.2404673000565,1108.2404673000565,1108.2888384000398,1108.2890623999992,1108.305639600032,1108.305639600032,1108.305639600032,1108.3721619000426,1108.655910899979,,,,,,,,,,,,,,,,,,,,,,down,2.5393094000173733,None,space,0.3491924999980256,None,P125,001,2025-02-26_10h00.14.630,posner_endo_new1,2024.2.4,60.134569141415035,2025-02-26 10h00.21.620192 +0000,
cube_r.png,0.1,10,catch,16,16,0,down,1.6947688999352977,None,None,,,,,,,,,,,0,16,16,16,1108.6717588000465,,,,,,,,,,,,,1108.6560931999702,1108.6717588000465,1108.6717588000465,1108.6717588000465,1110.370602900046,,,,1110.376678999979,1110.3883106999565,1110.3883106999565,1110.4366661000531,1110.4368915000232,1110.4533655999694,1110.4533655999694,1110.4533655999694,1110.5199117000448,1113.4508003999945,,,,1112.5343939999584,1113.4667918999912,1113.4667918999912,1113.4667918999912,,,,,,,,,,,,,,,down,1.6947688999352977,None,None,,,P125,001,2025-02-26_10h00.14.630,posner_endo_new1,2024.2.4,60.134569141415035,2025-02-26 10h00.21.620192 +0000,
cube_r.png,0.1,10,catch,17,17,0,down,2.940281099989079,None,None,,,,,,,,,,,0,17,17,17,1113.4667918999912,,,,,,,,,,,,,1113.4509631000692,1113.4667918999912,1113.4667918999912,1113.4667918999912,1116.414738100022,,,,1116.4207705999725,1116.4325975000393,1116.4325975000393,1116.4806116999825,1116.4808344000485,1116.4971199999563,1116.4971199999563,1116.4971199999563,1116.5636228000512,1119.494560800027,,,,1118.5782578999642,1119.510810000007,1119.510810000007,1119.510810000007,,,,,,,,,,,,,,,down,2.940281099989079,None,None,,,P125,001,2025-02-26_10h00.14.630,posner_endo_new1,2024.2.4,60.134569141415035,2025-02-26 10h00.21.620192 +0000,
cube_l.png,0.1,0.31,invalid,18,18,0,down,0.0323714999249205,None,space,0.6008530999533832,None,,,,,,,,,0,18,18,18,1119.510810000007,,,,,,,,,,,,,1119.49472409999,1119.510810000007,1119.510810000007,1119.510810000007,1119.544847400044,,,,1119.550889700069,1119.5625747999875,1119.5625747999875,1119.6106597000035,1119.6111575000687,1119.6270900999662,1119.6270900999662,1119.6270900999662,1119.7102857000427,1120.2445227999706,,,,,,,,,,,,,,,,,,,,,,down,0.0323714999249205,None,space,0.6008530999533832,None,P125,001,2025-02-26_10h00.14.630,posner_endo_new1,2024.2.4,60.134569141415035,2025-02-26 10h00.21.620192 +0000,
cube_l.png,0.1,10,catch,19,19,0,down,1.9947116000112146,None,None,,,,,,,,,,,0,19,19,19,1120.2599821999902,,,,,,,,,,,,,1120.2448137999745,1120.2599821999902,1120.2599821999902,1120.2599821999902,1122.2592834000243,,,,1122.2707701000618,1122.2811552999774,1122.2811552999774,1122.3247268999694,1122.3250721000368,1122.3411480999785,1122.3411480999785,1122.3411480999785,1122.4243678000057,1125.3387731000548,,,,1124.4390880999854,1125.3547297000187,1125.3547297000187,1125.3547297000187,,,,,,,,,,,,,,,down,1.9947116000112146,None,None,,,P125,001,2025-02-26_10h00.14.630,posner_endo_new1,2024.2.4,60.134569141415035,2025-02-26 10h00.21.620192 +0000,
cube_l.png,0.1,0.31,invalid,20,20,0,down,2.7796285999938846,None,space,0.4655575000215322,None,,,,,,,,,0,20,20,20,1125.3547297000187,,,,,,,,,,,,,1125.3390439000214,1125.3547297000187,1125.3547297000187,1125.3547297000187,1128.1366084000329,,,,1128.1481139999814,1128.1583543999586,1128.1583543999586,1128.2020223999862,1128.2023716999684,1128.2184813000495,1128.2184813000495,1128.2184813000495,1128.301781999995,1128.6859895000234,,,,,,,,,,,,,,,,,,,,,,down,2.7796285999938846,None,space,0.4655575000215322,None,P125,001,2025-02-26_10h00.14.630,posner_endo_new1,2024.2.4,60.134569141415035,2025-02-26 10h00.21.620192 +0000,
cube_l.png,0.1,-0.31,valid,21,21,0,down,1.7696508000371978,None,space,0.4182204999960959,None,,,,,,,,,0,21,21,21,1128.70140000002,,,,,,,,,,,,,1128.6862817000365,1128.70140000002,1128.70140000002,1128.70140000002,1130.4840156000573,,,,1130.493512499961,1130.5032396999886,1130.5032396999886,1130.5498612000374,1130.5500981999794,1130.5660531000467,1130.5660531000467,1130.5660531000467,1130.6493076999905,1130.9997636000626,,,,,,,,,,,,,,,,,,,,,,down,1.7696508000371978,None,space,0.4182204999960959,None,P125,001,2025-02-26_10h00.14.630,posner_endo_new1,2024.2.4,60.134569141415035,2025-02-26 10h00.21.620192 +0000,
cube_r.png,0.1,0.31,valid,22,22,0,down,1.886837900034152,None,space,0.501131400000304,None,,,,,,,,,0,22,22,22,1131.015534700011,,,,,,,,,,,,,1130.999950599973,1131.015534700011,1131.015534700011,1131.015534700011,1132.914385800017,,,,1132.921297300025,1132.9331525999587,1132.9331525999587,1132.9804284999846,1132.9806678000605,1132.996781700058,1132.996781700058,1132.996781700058,1133.0634502000175,1133.513667399995,,,,,,,,,,,,,,,,,,,,,,down,1.886837900034152,None,space,0.501131400000304,None,P125,001,2025-02-26_10h00.14.630,posner_endo_new1,2024.2.4,60.134569141415035,2025-02-26 10h00.21.620192 +0000,
cube_r.png,0.1,-0.31,invalid,23,23,0,down,2.4775111000053585,None,space,0.4343479999806732,None,,,,,,,,,0,23,23,23,1133.5295981999952,,,,,,,,,,,,,1133.5138568000402,1133.5295981999952,1133.5295981999952,1133.5295981999952,1136.012985700043,,,,1136.035969599965,1136.04882669996,1136.04882669996,1136.076815300039,1136.077164300019,1136.0932691000635,1136.0932691000635,1136.0932691000635,1136.1771040000021,1136.5445725000463,,,,,,,,,,,,,,,,,,,,,,down,2.4775111000053585,None,space,0.4343479999806732,None,P125,001,2025-02-26_10h00.14.630,posner_endo_new1,2024.2.4,60.134569141415035,2025-02-26 10h00.21.620192 +0000,
cube_r.png,0.1,0.31,valid,24,24,0,down,1.6959795000730082,None,space,0.41342130000703037,None,,,,,,,,,0,24,24,24,1136.5600692000007,,,,,,,,,,,,,1136.5448513999581,1136.5600692000007,1136.5600692000007,1136.5600692000007,1138.2595827999758,,,,1138.2705682000378,1138.2806564000202,1138.2806564000202,1138.3250206999946,1138.3253494000528,1138.3414687999757,1138.3414687999757,1138.3414687999757,1138.4247160999803,1138.758884800016,,,,,,,,,,,,,,,,,,,,,,down,1.6959795000730082,None,space,0.41342130000703037,None,P125,001,2025-02-26_10h00.14.630,posner_endo_new1,2024.2.4,60.134569141415035,2025-02-26 10h00.21.620192 +0000,
cube_r.png,0.1,-0.31,invalid,25,25,0,down,2.256371399969794,None,space,0.4608982000499964,None,,,,,,,,,0,25,25,25,1138.774434400024,,,,,,,,,,,,,1138.7591627000365,1138.774434400024,1138.774434400024,1138.774434400024,1141.0417259000242,,,,1141.0645966000156,1141.0767878000624,1141.0767878000624,1141.1051191999577,1141.1055082000094,1141.1215782000218,1141.1215782000218,1141.1215782000218,1141.20472420007,1141.5890442000236,,,,,,,,,,,,,,,,,,,,,,down,2.256371399969794,None,space,0.4608982000499964,None,P125,001,2025-02-26_10h00.14.630,posner_endo_new1,2024.2.4,60.134569141415035,2025-02-26 10h00.21.620192 +0000,
cube_l.png,0.1,-0.31,valid,26,26,0,down,2.1061656000092626,None,space,0.4440212999470532,None,,,,,,,,,0,26,26,26,1141.6043428999837,,,,,,,,,,,,,1141.5893799000187,1141.6043428999837,1141.6043428999837,1141.6043428999837,1143.7201331000542,,,,1143.7329815999838,1143.7430261999834,1143.7430261999834,1143.7860505999997,1143.7863131000195,1143.8023699000478,1143.8023699000478,1143.8023699000478,1143.8857953000115,1144.2528153000167,,,,,,,,,,,,,,,,,,,,,,down,2.1061656000092626,None,space,0.4440212999470532,None,P125,001,2025-02-26_10h00.14.630,posner_endo_new1,2024.2.4,60.134569141415035,2025-02-26 10h00.21.620192 +0000,
cube_r.png,0.1,0.31,valid,27,27,0,down,2.2018671999685466,None,space,0.484435599995777,None,,,,,,,,,0,27,27,27,1144.2686709000263,,,,,,,,,,,,,1144.2530275000026,1144.2686709000263,1144.2686709000263,1144.2686709000263,1146.485669799964,,,,1146.5087257999694,1146.5199890000513,1146.5199890000513,1146.5502741000382,1146.550621100003,1146.5665628999704,1146.5665628999704,1146.5665628999704,1146.6496916000033,1147.0670015000505,,,,,,,,,,,,,,,,,,,,,,down,2.2018671999685466,None,space,0.484435599995777,None,P125,001,2025-02-26_10h00.14.630,posner_endo_new1,2024.2.4,60.134569141415035,2025-02-26 10h00.21.620192 +0000,
cube_r.png,0.1,10,catch,28,28,0,down,2.0924592999508604,None,None,,,,,,,,,,,0,28,28,28,1147.082600099966,,,,,,,,,,,,,1147.067294599954,1147.082600099966,1147.082600099966,1147.082600099966,1149.1829731999896,,,,1149.205846500001,1149.21866829996,1149.21866829996,1149.2472230000421,1149.247566999984,1149.263621799997,1149.263621799997,1149.263621799997,1149.3469838000601,1152.2621460000519,,,,1151.3616361999884,1152.2774539999664,1152.2774539999664,1152.2774539999664,,,,,,,,,,,,,,,down,2.0924592999508604,None,None,,,P125,001,2025-02-26_10h00.14.630,posner_endo_new1,2024.2.4,60.134569141415035,2025-02-26 10h00.21.620192 +0000,
cube_r.png,0.1,0.31,valid,29,29,0,down,2.416930599953048,None,space,0.5329460999928415,None,,,,,,,,,0,29,29,29,1152.2774539999664,,,,,,,,,,,,,1152.262697200058,1152.2774539999664,1152.2774539999664,1152.2774539999664,1154.7105947000673,,,,1154.732590700034,1154.74267279997,1154.74267279997,1154.7745033999672,1154.774957500049,1154.790977000026,1154.790977000026,1154.790977000026,1154.8746339000063,1155.3254099000478,,,,,,,,,,,,,,,,,,,,,,down,2.416930599953048,None,space,0.5329460999928415,None,P125,001,2025-02-26_10h00.14.630,posner_endo_new1,2024.2.4,60.134569141415035,2025-02-26 10h00.21.620192 +0000,
cube_r.png,0.1,0.31,valid,30,30,0,down,2.265435100067407,None,space,0.4640795000595972,None,,,,,,,,,0,30,30,30,1155.340863200021,,,,,,,,,,,,,1155.3256627999945,1155.340863200021,1155.340863200021,1155.340863200021,1157.622767599998,,,,1157.6325026999693,1157.6422845000634,1157.6422845000634,1157.688528800034,1157.6888337000273,1157.7050794999814,1157.7050794999814,1157.7050794999814,1157.7883220000658,1158.172258000006,,,,,,,,,,,,,,,,,,,,,,down,2.265435100067407,None,space,0.4640795000595972,None,P125,001,2025-02-26_10h00.14.630,posner_endo_new1,2024.2.4,60.134569141415035,2025-02-26 10h00.21.620192 +0000,
cube_l.png,0.1,-0.31,valid,31,31,0,down,2.1313161000143737,None,space,0.4556481000036001,None,,,,,,,,,0,31,31,31,1158.187885100022,,,,,,,,,,,,,1158.1725122999633,1158.187885100022,1158.187885100022,1158.187885100022,1160.3202352999942,,,,1160.329896499985,1160.34012050007,1160.34012050007,1160.3857895999681,1160.3860980999889,1160.402313800063,1160.402313800063,1160.402313800063,1160.4855004999554,1160.869396300055,,,,,,,,,,,,,,,,,,,,,,down,2.1313161000143737,None,space,0.4556481000036001,None,P125,001,2025-02-26_10h00.14.630,posner_endo_new1,2024.2.4,60.134569141415035,2025-02-26 10h00.21.620192 +0000,
cube_r.png,0.1,0.31,valid,32,32,0,down,1.953108699992299,None,space,0.41398739989381284,None,,,,,,,,,0,32,32,32,1160.8851855000248,,,,,,,,,,,,,1160.8696592999622,1160.8851855000248,1160.8851855000248,1160.8851855000248,1162.8508802000433,,,,1162.8606197000481,1162.8708238999825,1162.8708238999825,1162.9166869999608,1162.9169918000698,1162.9330253000371,1162.9330253000371,1162.9330253000371,1163.016279399977,1163.350310800015,,,,,,,,,,,,,,,,,,,,,,down,1.953108699992299,None,space,0.41398739989381284,None,P125,001,2025-02-26_10h00.14.630,posner_endo_new1,2024.2.4,60.134569141415035,2025-02-26 10h00.21.620192 +0000,
cube_r.png,0.1,-0.31,invalid,33,33,0,down,2.0731476999353617,None,space,0.38471160002518445,None,,,,,,,,,0,33,33,33,1163.3659585999558,,,,,,,,,,,,,1163.3505695000058,1163.3659585999558,1163.3659585999558,1163.3659585999558,1165.4482445999747,,,,1165.45794880006,1165.4680707000662,1165.4680707000662,1165.5138334999792,1165.5141410999931,1165.5303967000218,1165.5303967000218,1165.5303967000218,1165.613730299985,1165.931112100021,,,,,,,,,,,,,,,,,,,,,,down,2.0731476999353617,None,space,0.38471160002518445,None,P125,001,2025-02-26_10h00.14.630,posner_endo_new1,2024.2.4,60.134569141415035,2025-02-26 10h00.21.620192 +0000,
cube_r.png,0.1,10,catch,34,34,0,down,2.34857989999,None,None,,,,,,,,,,,0,34,34,34,1165.9465788999805,,,,,,,,,,,,,1165.9313640999608,1165.9465788999805,1165.9465788999805,1165.9465788999805,1168.3119838000275,,,,1168.321440699976,1168.3309186999686,1168.3309186999686,1168.3776533000637,1168.377877800027,1168.3940947999945,1168.3940947999945,1168.3940947999945,1168.4773773000343,1171.3915293000173,,,,1170.4919237999711,1171.4076978999656,1171.4076978999656,1171.4076978999656,,,,,,,,,,,,,,,down,2.34857989999,None,None,,,P125,001,2025-02-26_10h00.14.630,posner_endo_new1,2024.2.4,60.134569141415035,2025-02-26 10h00.21.620192 +0000,
cube_r.png,0.1,0.31,valid,35,35,0,down,2.2393770000198856,None,space,0.47467539994977415,None,,,,,,,,,0,35,35,35,1171.4076978999656,,,,,,,,,,,,,1171.3916914999718,1171.4076978999656,1171.4076978999656,1171.4076978999656,1173.6559340000385,,,,1173.6623696000315,1173.6742180000292,1173.6742180000292,1173.7221895999974,1173.7224188999971,1173.7385907999706,1173.7385907999706,1173.7385907999706,1173.8051605999935,1174.2221822000574,,,,,,,,,,,,,,,,,,,,,,down,2.2393770000198856,None,space,0.47467539994977415,None,P125,001,2025-02-26_10h00.14.630,posner_endo_new1,2024.2.4,60.134569141415035,2025-02-26 10h00.21.620192 +0000,
cube_r.png,0.1,-0.31,invalid,36,36,0,down,2.0485476000467315,None,space,0.4354538999032229,None,,,,,,,,,0,36,36,36,1174.2380371000618,,,,,,,,,,,,,1174.2223595000105,1174.2380371000618,1174.2380371000618,1174.2380371000618,1176.3033642000519,,,,1176.3097466999898,1176.3212793000275,1176.3212793000275,1176.3693105999846,1176.3695381999714,1176.385977900005,1176.385977900005,1176.385977900005,1176.4524869000306,1176.8362560999813,,,,,,,,,,,,,,,,,,,,,,down,2.0485476000467315,None,space,0.4354538999032229,None,P125,001,2025-02-26_10h00.14.630,posner_endo_new1,2024.2.4,60.134569141415035,2025-02-26 10h00.21.620192 +0000,
cube_l.png,0.1,0.31,invalid,37,37,0,down,2.298899600049481,None,space,0.4471897000912577,None,,,,,,,,,0,37,37,37,1176.852173399995,,,,,,,,,,,,,1176.8364300000248,1176.852173399995,1176.852173399995,1176.852173399995,1179.1676067999797,,,,1179.1772869999986,1179.1872573000146,1179.1872573000146,1179.2332167000277,1179.2335242000408,1179.2497479000594,1179.2497479000594,1179.2497479000594,1179.3329882000107,1179.7003330000443,,,,,,,,,,,,,,,,,,,,,,down,2.298899600049481,None,space,0.4471897000912577,None,P125,001,2025-02-26_10h00.14.630,posner_endo_new1,2024.2.4,60.134569141415035,2025-02-26 10h00.21.620192 +0000,
cube_l.png,0.1,0.31,invalid,38,38,0,down,2.3471309000160545,None,space,0.4062547000357881,None,,,,,,,,,0,38,38,38,1179.7159213999985,,,,,,,,,,,,,1179.7005902000237,1179.7159213999985,1179.7159213999985,1179.7159213999985,1182.064525600057,,,,1182.0742469000397,1182.08443659998,1182.08443659998,1182.1302939000307,1182.130599200027,1182.1467327000573,1182.1467327000573,1182.1467327000573,1182.2301103000063,1182.5640261999797,,,,,,,,,,,,,,,,,,,,,,down,2.3471309000160545,None,space,0.4062547000357881,None,P125,001,2025-02-26_10h00.14.630,posner_endo_new1,2024.2.4,60.134569141415035,2025-02-26 10h00.21.620192 +0000,
cube_r.png,0.1,0.31,valid,39,39,0,down,1.9396372000919655,None,space,0.42113530007191,None,,,,,,,,,0,39,39,39,1182.5796106000198,,,,,,,,,,,,,1182.5642822000664,1182.5796106000198,1182.5796106000198,1182.5796106000198,1184.528672000044,,,,1184.538525299984,1184.549050200032,1184.549050200032,1184.5944958999753,1184.5948021999793,1184.6109152999707,1184.6109152999707,1184.6109152999707,1184.6941521000117,1185.044761999976,,,,,,,,,,,,,,,,,,,,,,down,1.9396372000919655,None,space,0.42113530007191,None,P125,001,2025-02-26_10h00.14.630,posner_endo_new1,2024.2.4,60.134569141415035,2025-02-26 10h00.21.620192 +0000,
cube_l.png,0.1,0.31,invalid,40,40,0,down,1.9620741000398993,None,space,0.42693259997759014,None,,,,,,,,,0,40,40,40,1185.0605164000299,,,,,,,,,,,,,1185.0450251000002,1185.0605164000299,1185.0605164000299,1185.0605164000299,1187.0261646000436,,,,1187.0359180000378,1187.0464372000424,1187.0464372000424,1187.0918471000623,1187.0921526000602,1187.1083484999835,1187.1083484999835,1187.1083484999835,1187.1917048000032,1187.5422597000143,,,,,,,,,,,,,,,,,,,,,,down,1.9620741000398993,None,space,0.42693259997759014,None,P125,001,2025-02-26_10h00.14.630,posner_endo_new1,2024.2.4,60.134569141415035,2025-02-26 10h00.21.620192 +0000,
cube_l.png,0.1,10,catch,41,41,0,down,2.216792599996552,None,None,,,,,,,,,,,0,41,41,41,1187.557872400037,,,,,,,,,,,,,1187.542514199973,1187.557872400037,1187.557872400037,1187.557872400037,1189.7900002000388,,,,1189.7996414999943,1189.8099159999983,1189.8099159999983,1189.8556270999834,1189.8559462999692,1189.8722062000306,1189.8722062000306,1189.8722062000306,1189.9554134999635,1192.869863,,,,1191.9700274000643,1192.885774699971,1192.885774699971,1192.885774699971,,,,,,,,,,,,,,,down,2.216792599996552,None,None,,,P125,001,2025-02-26_10h00.14.630,posner_endo_new1,2024.2.4,60.134569141415035,2025-02-26 10h00.21.620192 +0000,
cube_l.png,0.1,-0.31,valid,42,42,0,down,2.3534663000609726,None,space,0.37498999992385507,None,,,,,,,,,0,42,42,42,1192.885774699971,,,,,,,,,,,,,1192.8701080000028,1192.885774699971,1192.885774699971,1192.885774699971,1195.2510725000175,,,,1195.260833599954,1195.2709376000566,1195.2709376000566,1195.316711600055,1195.3170165000483,1195.333282000036,1195.333282000036,1195.333282000036,1195.4165112000192,1195.7173165000277,,,,,,,,,,,,,,,,,,,,,,down,2.3534663000609726,None,space,0.37498999992385507,None,P125,001,2025-02-26_10h00.14.630,posner_endo_new1,2024.2.4,60.134569141415035,2025-02-26 10h00.21.620192 +0000,
cube_l.png,0.1,10,catch,43,43,0,down,2.074548399890773,None,None,,,,,,,,,,,0,43,43,43,1195.7328756999923,,,,,,,,,,,,,1195.71757670003,1195.7328756999923,1195.7328756999923,1195.7328756999923,1197.8150665999856,,,,1197.8247333000181,1197.834906000062,1197.834906000062,1197.8808291000314,1197.881133100018,1197.8971545000095,1197.8971545000095,1197.8971545000095,1197.980651000049,1200.8948377000634,,,,1199.995190000045,1200.910894199973,1200.910894199973,1200.910894199973,,,,,,,,,,,,,,,down,2.074548399890773,None,None,,,P125,001,2025-02-26_10h00.14.630,posner_endo_new1,2024.2.4,60.134569141415035,2025-02-26 10h00.21.620192 +0000,
cube_l.png,0.1,0.31,invalid,44,44,0,down,2.2958427000558004,None,space,0.5064840000122786,None,,,,,,,,,0,44,44,44,1200.910894199973,,,,,,,,,,,,,1200.895075700013,1200.910894199973,1200.910894199973,1200.910894199973,1203.2096677999943,,,,1203.2194061999908,1203.2296290000668,1203.2296290000668,1203.2753114000661,1203.2756210999796,1203.2919329999713,1203.2919329999713,1203.2919329999713,1203.3750159000047,1203.8089812999824,,,,,,,,,,,,,,,,,,,,,,down,2.2958427000558004,None,space,0.5064840000122786,None,P125,001,2025-02-26_10h00.14.630,posner_endo_new1,2024.2.4,60.134569141415035,2025-02-26 10h00.21.620192 +0000,
cube_l.png,0.1,0.31,invalid,45,45,0,down,2.2379181999713182,None,space,0.4388133001048118,None,,,,,,,,,0,45,45,45,1203.8246469000587,,,,,,,,,,,,,1203.8092359000584,1203.8246469000587,1203.8246469000587,1203.8246469000587,1206.0732826000312,,,,1206.0830893999664,1206.09324680001,1206.09324680001,1206.1390406000428,1206.139344300027,1206.1555387000553,1206.1555387000553,1206.1555387000553,1206.2388905000407,1206.6061816000147,,,,,,,,,,,,,,,,,,,,,,down,2.2379181999713182,None,space,0.4388133001048118,None,P125,001,2025-02-26_10h00.14.630,posner_endo_new1,2024.2.4,60.134569141415035,2025-02-26 10h00.21.620192 +0000,
cube_r.png,0.1,0.31,valid,46,46,0,down,2.4649607000174,None,space,0.41474639996886253,None,,,,,,,,,0,46,46,46,1206.6218875000486,,,,,,,,,,,,,1206.6064424000215,1206.6218875000486,1206.6218875000486,1206.6218875000486,1209.1036798000569,,,,1209.1134387999773,1209.1233553000493,1209.1233553000493,1209.1691928000655,1209.169504999998,1209.1858494000044,1209.1858494000044,1209.1858494000044,1209.2688651999924,1209.6031667999923,,,,,,,,,,,,,,,,,,,,,,down,2.4649607000174,None,space,0.41474639996886253,None,P125,001,2025-02-26_10h00.14.630,posner_endo_new1,2024.2.4,60.134569141415035,2025-02-26 10h00.21.620192 +0000,
cube_l.png,0.1,-0.31,valid,47,47,0,down,2.380206099944189,None,space,0.3769606000278145,None,,,,,,,,,0,47,47,47,1209.6186021000613,,,,,,,,,,,,,1209.6034210000653,1209.6186021000613,1209.6186021000613,1209.6186021000613,1212.0007622999838,,,,1212.0104427000042,1212.020719400025,1212.020719400025,1212.0662713999627,1212.0665778999683,1212.0827754000202,1212.0827754000202,1212.0827754000202,1212.1661411999958,1212.4667257000692,,,,,,,,,,,,,,,,,,,,,,down,2.380206099944189,None,space,0.3769606000278145,None,P125,001,2025-02-26_10h00.14.630,posner_endo_new1,2024.2.4,60.134569141415035,2025-02-26 10h00.21.620192 +0000,
cube_r.png,0.1,-0.31,invalid,48,48,0,down,2.108798100030981,None,space,0.6558087999001145,None,,,,,,,,,0,48,48,48,1212.4823431000113,,,,,,,,,,,,,1212.4669919000007,1212.4823431000113,1212.4823431000113,1212.4823431000113,1214.5978889999678,,,,1214.607558000018,1214.6178539000684,1214.6178539000684,1214.6636512000114,1214.6639582000207,1214.6799193000188,1214.6799193000188,1214.6799193000188,1214.763559599989,1215.3471954000415,,,,,,,,,,,,,,,,,,,,,,down,2.108798100030981,None,space,0.6558087999001145,None,P125,001,2025-02-26_10h00.14.630,posner_endo_new1,2024.2.4,60.134569141415035,2025-02-26 10h00.21.620192 +0000,
cube_r.png,0.1,10,catch,49,49,0,down,1.9640996999805793,None,None,,,,,,,,,,,0,49,49,49,1215.3627764000557,,,,,,,,,,,,,1215.3474571000552,1215.3627764000557,1215.3627764000557,1215.3627764000557,1217.3285964999814,,,,1217.338249500026,1217.3484417999862,1217.3484417999862,1217.3943254000042,1217.3946303999983,1217.4106681999983,1217.4106681999983,1217.4106681999983,1217.4940258000279,1220.4083423999837,,,,1219.5085561999585,1220.4243014999665,1220.4243014999665,1220.4243014999665,,,,,,,,,,,,,,,down,1.9640996999805793,None,None,,,P125,001,2025-02-26_10h00.14.630,posner_endo_new1,2024.2.4,60.134569141415035,2025-02-26 10h00.21.620192 +0000,
cube_l.png,0.1,-0.31,valid,50,50,0,down,2.7107982999878004,None,space,0.43350069993175566,None,,,,,,,,,0,50,50,50,1220.4243014999665,,,,,,,,,,,,,1220.4085784000345,1220.4243014999665,1220.4243014999665,1220.4243014999665,1223.1392376000294,,,,1223.1491588000208,1223.1593019999564,1223.1593019999564,1223.2049391999608,1223.2052475999808,1223.22147400002,1223.22147400002,1223.22147400002,1223.3046914000297,1223.671942200046,,,,,,,,,,,,,,,,,,,,,,down,2.7107982999878004,None,space,0.43350069993175566,None,P125,001,2025-02-26_10h00.14.630,posner_endo_new1,2024.2.4,60.134569141415035,2025-02-26 10h00.21.620192 +0000,
cube_l.png,0.1,-0.31,valid,51,51,0,down,1.7433610999723896,None,space,0.46794409991707653,None,,,,,,,,,0,51,51,51,1223.6877183000324,,,,,,,,,,,,,1223.6721981000155,1223.6877183000324,1223.6877183000324,1223.6877183000324,1225.4370634000516,,,,1225.4468409999972,1225.456899599987,1225.456899599987,1225.502556500025,1225.5028610000154,1225.5191484000534,1225.5191484000534,1225.5191484000534,1225.6023605000228,1226.0030157000292,,,,,,,,,,,,,,,,,,,,,,down,1.7433610999723896,None,space,0.46794409991707653,None,P125,001,2025-02-26_10h00.14.630,posner_endo_new1,2024.2.4,60.134569141415035,2025-02-26 10h00.21.620192 +0000,
cube_r.png,0.1,-0.31,invalid,52,52,0,down,2.300573299988173,None,space,0.539732399978675,None,,,,,,,,,0,52,52,52,1226.01865740004,,,,,,,,,,,,,1226.0032751000253,1226.01865740004,1226.01865740004,1226.01865740004,1228.334008099977,,,,1228.3436679999577,1228.3538239999907,1228.3538239999907,1228.3997165999608,1228.4000317000318,1228.4162844000384,1228.4162844000384,1228.4162844000384,1228.4994908999652,1228.9665499000112,,,,,,,,,,,,,,,,,,,,,,down,2.300573299988173,None,space,0.539732399978675,None,P125,001,2025-02-26_10h00.14.630,posner_endo_new1,2024.2.4,60.134569141415035,2025-02-26 10h00.21.620192 +0000,
cube_l.png,0.1,-0.31,valid,53,53,0,down,1.8489078999264166,None,space,0.46303340001031756,None,,,,,,,,,0,53,53,53,1228.9823679999681,,,,,,,,,,,,,1228.966806899989,1228.9823679999681,1228.9823679999681,1228.9823679999681,1230.8481118000345,,,,1230.857794499956,1230.8677116000326,1230.8677116000326,1230.9138095000526,1230.914115200052,1230.930220499984,1230.930220499984,1230.930220499984,1231.0136141000548,1231.397565399995,,,,,,,,,,,,,,,,,,,,,,down,1.8489078999264166,None,space,0.46303340001031756,None,P125,001,2025-02-26_10h00.14.630,posner_endo_new1,2024.2.4,60.134569141415035,2025-02-26 10h00.21.620192 +0000,
cube_r.png,0.1,10,catch,54,54,0,down,1.3857920999871567,None,None,,,,,,,,,,,0,54,54,54,1231.4130744000431,,,,,,,,,,,,,1231.3978190000635,1231.4130744000431,1231.4130744000431,1231.4130744000431,1232.812667399994,,,,1232.8221272999654,1232.8317876000656,1232.8317876000656,1232.8785299999872,1232.878756399965,1232.8948676000582,1232.8948676000582,1232.8948676000582,1232.9780835000565,1235.8923050999874,,,,1234.9926411999622,1235.9084960999899,1235.9084960999899,1235.9084960999899,,,,,,,,,,,,,,,down,1.3857920999871567,None,None,,,P125,001,2025-02-26_10h00.14.630,posner_endo_new1,2024.2.4,60.134569141415035,2025-02-26 10h00.21.620192 +0000,
cube_l.png,0.1,0.31,invalid,55,55,0,down,2.554143499932252,None,space,0.40185409993864596,None,,,,,,,,,0,55,55,55,1235.9084960999899,,,,,,,,,,,,,1235.8924665000523,1235.9084960999899,1235.9084960999899,1235.9084960999899,1238.4732033000328,,,,1238.47924720007,1238.4908457000274,1238.4908457000274,1238.5389254000038,1238.5391594000394,1238.555754299974,1238.555754299974,1238.555754299974,1238.6223994999891,1238.9727421000134,,,,,,,,,,,,,,,,,,,,,,down,2.554143499932252,None,space,0.40185409993864596,None,P125,001,2025-02-26_10h00.14.630,posner_endo_new1,2024.2.4,60.134569141415035,2025-02-26 10h00.21.620192 +0000,
cube_l.png,0.1,-0.31,valid,56,56,0,down,1.9387086000060663,None,space,0.46437579998746514,None,,,,,,,,,0,56,56,56,1238.9886555999983,,,,,,,,,,,,,1238.9729210999794,1238.9886555999983,1238.9886555999983,1238.9886555999983,1240.937287400011,,,,1240.9433057999704,1240.9550658999942,1240.9550658999942,1241.0033748999704,1241.0036023999564,1241.0198642000323,1241.0198642000323,1241.0198642000323,1241.0864758000243,1241.4869478000328,,,,,,,,,,,,,,,,,,,,,,down,1.9387086000060663,None,space,0.46437579998746514,None,P125,001,2025-02-26_10h00.14.630,posner_endo_new1,2024.2.4,60.134569141415035,2025-02-26 10h00.21.620192 +0000,
cube_r.png,0.1,0.31,valid,57,57,0,down,2.056570000015199,None,space,0.47209719999227673,None,,,,,,,,,0,57,57,57,1241.502697100048,,,,,,,,,,,,,1241.4871260999935,1241.502697100048,1241.502697100048,1241.502697100048,1243.5680281000677,,,,1243.5739644999849,1243.5855765000451,1243.5855765000451,1243.6340345999924,1243.6342719000531,1243.650499499985,1243.650499499985,1243.650499499985,1243.7172625999665,1244.1341336000478,,,,,,,,,,,,,,,,,,,,,,down,2.056570000015199,None,space,0.47209719999227673,None,P125,001,2025-02-26_10h00.14.630,posner_endo_new1,2024.2.4,60.134569141415035,2025-02-26 10h00.21.620192 +0000,
cube_r.png,0.1,-0.31,invalid,58,58,0,down,2.3527792000677437,None,space,0.443657600088045,None,,,,,,,,,0,58,58,58,1244.1499722000444,,,,,,,,,,,,,1244.1343072999734,1244.1499722000444,1244.1499722000444,1244.1499722000444,1246.5149452000624,,,,1246.5209261999698,1246.5325222000247,1246.5325222000247,1246.58092940005,1246.581154000014,1246.597392500029,1246.597392500029,1246.597392500029,1246.6807964000618,1247.0479770000093,,,,,,,,,,,,,,,,,,,,,,down,2.3527792000677437,None,space,0.443657600088045,None,P125,001,2025-02-26_10h00.14.630,posner_endo_new1,2024.2.4,60.134569141415035,2025-02-26 10h00.21.620192 +0000,
cube_l.png,0.1,0.31,invalid,59,59,0,down,2.1831211000680923,None,space,0.46464169991668314,None,,,,,,,,,0,59,59,59,1247.0636711999541,,,,,,,,,,,,,1247.0481550999684,1247.0636711999541,1247.0636711999541,1247.0636711999541,1249.2621440000366,,,,1249.268199400045,1249.279960899963,1249.279960899963,1249.3282142999815,1249.3284381000558,1249.3448363000061,1249.3448363000061,1249.3448363000061,1249.4113075999776,1249.8117475999752,,,,,,,,,,,,,,,,,,,,,,down,2.1831211000680923,None,space,0.46464169991668314,None,P125,001,2025-02-26_10h00.14.630,posner_endo_new1,2024.2.4,60.134569141415035,2025-02-26 10h00.21.620192 +0000,
