cue_img,cue_soa,target_y,trial,thisN,thisTrialN,thisRepN,key_control2.keys,key_control2.rt,key_control2.duration,key_resp.keys,key_resp.rt,key_resp.duration,practice.thisRepN,practice.thisTrialN,practice.thisN,practice.thisIndex,block1.thisRepN,block1.thisTrialN,block1.thisN,block1.thisIndex,block2.thisRepN,block2.thisTrialN,block2.thisN,block2.thisIndex,thisRow.t,notes,instructions.started,instructions_txt.started,key_control.started,instructions.stopped,key_control.keys,key_control.rt,key_control.duration,ready.started,ready_txt.started,ready_txt.stopped,ready.stopped,fix.started,fixation.started,key_control2.started,fixation_cross.started,fix.stopped,practice.key_control2.keys,practice.key_control2.rt,practice.key_control2.duration,cue.started,cube.started,fixation_cross_cue.started,cue.stopped,target.started,fixation_target.started,fixation_cross_target.started,key_resp.started,star.started,target.stopped,practice.key_resp.keys,practice.key_resp.rt,practice.key_resp.duration,star.stopped,fixation_target.stopped,fixation_cross_target.stopped,key_resp.stopped,block1.key_control2.keys,block1.key_control2.rt,block1.key_control2.duration,block1.key_resp.keys,block1.key_resp.rt,block1.key_resp.duration,break_2.started,text.started,key_control3.started,text.stopped,break_2.stopped,key_control3.keys,key_control3.rt,key_control3.duration,block2.key_control2.keys,block2.key_control2.rt,block2.key_control2.duration,block2.key_resp.keys,block2.key_resp.rt,block2.key_resp.duration,participant,session,date,expName,psychopyVersion,frameRate,expStart,
,,,,,,,,,,,,,,,,,,,,,,,,,,,0.007534599979408085,0.026963299955241382,0.026963299955241382,3792.538930800045,up,3792.4942267000442,None,,,,,,,,,,,,,,,,,,,,,,,,,,,,,,,,,,,,,,,,,,,,,,,,,,P126,001,2025-02-27_09h57.36.379,posner_endo_new1,2024.2.4,60.024117692451924,2025-02-27 09h57.44.356559 +0000,
,,,,,,,,,,,,,,,,,,,,,,,,,,,,,,,,,,3792.5391310999403,3792.5533920000307,3795.576966900029,3795.534720399999,,,,,,,,,,,,,,,,,,,,,,,,,,,,,,,,,,,,,,,,,,,,,,P126,001,2025-02-27_09h57.36.379,posner_endo_new1,2024.2.4,60.024117692451924,2025-02-27 09h57.44.356559 +0000,
cube_l.png,0.1,-0.31,valid,0,0,0,up,9.111834899988025,None,space,0.45479589991737157,None,0,0,0,0,,,,,,,,,3795.576966900029,,,,,,,,,,,,,3795.5640334000345,3795.576966900029,3795.576966900029,3795.576966900029,3804.6935038999654,up,9.111834899988025,None,3804.7275935000507,3804.739411999937,3804.739411999937,3804.7566947999876,3804.7569623000454,3804.7733184000244,3804.7733184000244,3804.7733184000244,3804.857188599999,3805.2409314999823,space,0.45479589991737157,None,,,,,,,,,,,,,,,,,,,,,,,,,P126,001,2025-02-27_09h57.36.379,posner_endo_new1,2024.2.4,60.024117692451924,2025-02-27 09h57.44.356559 +0000,
cube_l.png,0.1,0.31,invalid,1,1,0,up,2.8875242000212893,None,space,0.30832890002056956,None,0,1,1,1,,,,,,,,,3805.2566841000225,,,,,,,,,,,,,3805.2411380000412,3805.2566841000225,3805.2566841000225,3805.2566841000225,3808.1544546999503,up,2.8875242000212893,None,3808.162353200023,3808.1732686000178,3808.1732686000178,3808.2204661000287,3808.220729499939,3808.2369663999416,3808.2369663999416,3808.2369663999416,3808.3036968000233,3808.5541539000114,space,0.30832890002056956,None,,,,,,,,,,,,,,,,,,,,,,,,,P126,001,2025-02-27_09h57.36.379,posner_endo_new1,2024.2.4,60.024117692451924,2025-02-27 09h57.44.356559 +0000,
cube_r.png,0.1,-0.31,invalid,2,2,0,up,4.494848900008947,None,space,0.25358789996244013,None,0,2,2,2,,,,,,,,,3808.5698891000357,,,,,,,,,,,,,3808.5543770999648,3808.5698891000357,3808.5698891000357,3808.5698891000357,3813.0663920999505,up,4.494848900008947,None,3813.0764342000475,3813.086255299975,3813.086255299975,3813.1320850000484,3813.1323509999784,3813.1483133999864,3813.1483133999864,3813.1483133999864,3813.2318267000373,3813.4158118000487,space,0.25358789996244013,None,,,,,,,,,,,,,,,,,,,,,,,,,P126,001,2025-02-27_09h57.36.379,posner_endo_new1,2024.2.4,60.024117692451924,2025-02-27 09h57.44.356559 +0000,
cube_r.png,0.1,10,catch,3,3,0,up,2.833411799976602,None,None,,,0,3,3,3,,,,,,,,,3813.431603300036,,,,,,,,,,,,,3813.4160159999738,3813.431603300036,3813.431603300036,3813.431603300036,3816.2796572999796,up,2.833411799976602,None,3816.2875856000464,3816.2983168000355,3816.2983168000355,3816.3453550999984,3816.345617700019,3816.3619637000374,3816.3619637000374,3816.3619637000374,3816.445221800008,3819.359291699948,None,,,3818.459820499993,3819.375486899982,3819.375486899982,3819.375486899982,,,,,,,,,,,,,,,,,,,,,P126,001,2025-02-27_09h57.36.379,posner_endo_new1,2024.2.4,60.024117692451924,2025-02-27 09h57.44.356559 +0000,
cube_l.png,0.1,-0.31,valid,4,4,0,up,3.0568692999659106,None,space,0.2699084000196308,None,0,4,4,4,,,,,,,,,3819.375486899982,,,,,,,,,,,,,3819.3594830000075,3819.375486899982,3819.375486899982,3819.375486899982,3822.440054400009,up,3.0568692999659106,None,3822.4479703999823,3822.4586981999455,3822.4586981999455,3822.505713099963,3822.505984999938,3822.5223257000325,3822.5223257000325,3822.5223257000325,3822.6055171999615,3822.8062290999806,space,0.2699084000196308,None,,,,,,,,,,,,,,,,,,,,,,,,,P126,001,2025-02-27_09h57.36.379,posner_endo_new1,2024.2.4,60.024117692451924,2025-02-27 09h57.44.356559 +0000,
cube_l.png,0.1,0.31,invalid,5,5,0,up,8.706824799999595,None,space,0.2773065000073984,None,0,5,5,5,,,,,,,,,3822.8220666999696,,,,,,,,,,,,,3822.8064327000175,3822.8220666999696,3822.8220666999696,3822.8220666999696,3831.5306988999946,up,8.706824799999595,None,3831.5387696999824,3831.549315799959,3831.549315799959,3831.5966962999664,3831.596971199964,3831.6131434999406,3831.6131434999406,3831.6131434999406,3831.6964698999655,3831.8970061000437,space,0.2773065000073984,None,,,,,,,,,,,,,,,,,,,,,,,,,P126,001,2025-02-27_09h57.36.379,posner_endo_new1,2024.2.4,60.024117692451924,2025-02-27 09h57.44.356559 +0000,
cube_r.png,0.1,-0.31,invalid,6,6,0,up,8.84824890003074,None,space,0.19635049998760223,None,0,6,6,6,,,,,,,,,3831.91268259997,,,,,,,,,,,,,3831.897207599948,3831.91268259997,3831.91268259997,3831.91268259997,3840.7711236999603,up,8.84824890003074,None,3840.7790654000128,3840.7899620999815,3840.7899620999815,3840.8370002999436,3840.837263799971,3840.853617200046,3840.853617200046,3840.853617200046,3840.92024040001,3841.054297299939,space,0.19635049998760223,None,,,,,,,,,,,,,,,,,,,,,,,,,P126,001,2025-02-27_09h57.36.379,posner_endo_new1,2024.2.4,60.024117692451924,2025-02-27 09h57.44.356559 +0000,
cube_r.png,0.1,0.31,valid,7,7,0,up,9.61127450002823,None,space,0.27967369998805225,None,0,7,7,7,,,,,,,,,3841.0701108999783,,,,,,,,,,,,,3841.0545083000325,3841.0701108999783,3841.0701108999783,3841.0701108999783,3850.6944642999442,up,9.61127450002823,None,3850.7024724000366,3850.713074599975,3850.713074599975,3850.7602954000467,3850.7605594999623,3850.7766946000047,3850.7766946000047,3850.7766946000047,3850.86008569994,3851.060980499955,space,0.27967369998805225,None,,,,,,,,,,,,,,,,,,,,,,,,,P126,001,2025-02-27_09h57.36.379,posner_endo_new1,2024.2.4,60.024117692451924,2025-02-27 09h57.44.356559 +0000,
cube_l.png,0.1,-0.31,valid,8,8,0,up,7.356635299976915,None,space,0.2612960999831557,None,0,8,8,8,,,,,,,,,3851.076556700049,,,,,,,,,,,,,3851.061183599988,3851.076556700049,3851.076556700049,3851.076556700049,3858.4367069000145,up,7.356635299976915,None,3858.4467182999942,3858.456379799987,3858.456379799987,3858.502562199952,3858.5028053999413,3858.5189174000407,3858.5189174000407,3858.5189174000407,3858.602173499996,3858.7863394999877,space,0.2612960999831557,None,,,,,,,,,,,,,,,,,,,,,,,,,P126,001,2025-02-27_09h57.36.379,posner_endo_new1,2024.2.4,60.024117692451924,2025-02-27 09h57.44.356559 +0000,
cube_r.png,0.1,-0.31,invalid,9,9,0,up,6.975054299924523,None,space,0.2456555999815464,None,0,9,9,9,,,,,,,,,3858.802082399954,,,,,,,,,,,,,3858.7865194999613,3858.802082399954,3858.802082399954,3858.802082399954,3865.7785299000097,up,6.975054299924523,None,3865.785588699975,3865.797280299943,3865.797280299943,3865.8444600999355,3865.8446866000304,3865.8614911000477,3865.8614911000477,3865.8614911000477,3865.9281451000134,3866.11217019998,space,0.2456555999815464,None,,,,,,,,,,,,,,,,,,,,,,,,,P126,001,2025-02-27_09h57.36.379,posner_endo_new1,2024.2.4,60.024117692451924,2025-02-27 09h57.44.356559 +0000,
cube_r.png,0.1,0.31,valid,10,10,0,up,8.193345699924976,None,space,0.295443500042893,None,0,10,10,10,,,,,,,,,3866.1275806999765,,,,,,,,,,,,,3866.1123420000076,3866.1275806999765,3866.1275806999765,3866.1275806999765,3874.3367919999873,up,8.193345699924976,None,3874.342783799977,3874.3543813000433,3874.3543813000433,3874.402717899997,3874.402943199966,3874.418938799994,3874.418938799994,3874.418938799994,3874.4855028999737,3874.719902800047,space,0.295443500042893,None,,,,,,,,,,,,,,,,,,,,,,,,,P126,001,2025-02-27_09h57.36.379,posner_endo_new1,2024.2.4,60.024117692451924,2025-02-27 09h57.44.356559 +0000,
,,,,,,,,,,,,,,,,,,,,,,,,,,,,,,,,,,3874.720013299957,3874.7357349999947,3877.736265699961,3877.7162766000256,,,,,,,,,,,,,,,,,,,,,,,,,,,,,,,,,,,,,,,,,,,,,,P126,001,2025-02-27_09h57.36.379,posner_endo_new1,2024.2.4,60.024117692451924,2025-02-27 09h57.44.356559 +0000,
cube_l.png,0.1,10,catch,0,0,0,up,13.584776200004853,None,space,0.33430950006004423,None,,,,,0,0,0,0,,,,,3877.736265699961,,,,,,,,,,,,,3877.7273752000183,3877.736265699961,3877.736265699961,3877.736265699961,3891.336033800035,,,,3891.342263599974,3891.3538303000387,3891.3538303000387,3891.4016474999953,3891.401875999989,3891.418744100025,3891.418744100025,3891.418744100025,3891.502040200052,3891.7690220000222,,,,,,,,up,13.584776200004853,None,space,0.33430950006004423,None,,,,,,,,,,,,,,,P126,001,2025-02-27_09h57.36.379,posner_endo_new1,2024.2.4,60.024117692451924,2025-02-27 09h57.44.356559 +0000,
cube_l.png,0.1,10,catch,1,1,0,up,7.729416099959053,None,space,0.34677320008631796,None,,,,,0,1,1,1,,,,,3891.7848038999364,,,,,,,,,,,,,3891.7691991999745,3891.7848038999364,3891.7848038999364,3891.7848038999364,3899.5280963999685,,,,3899.5397934999783,3899.550044500036,3899.550044500036,3899.593694500043,3899.594046900049,3899.6101228999905,3899.6101228999905,3899.6101228999905,3899.6934105999535,3899.9610371999443,,,,,,,,up,7.729416099959053,None,space,0.34677320008631796,None,,,,,,,,,,,,,,,P126,001,2025-02-27_09h57.36.379,posner_endo_new1,2024.2.4,60.024117692451924,2025-02-27 09h57.44.356559 +0000,
cube_l.png,0.1,0.31,invalid,2,2,0,up,6.696695700054988,None,space,0.3923844000091776,None,,,,,0,2,2,2,,,,,3899.9764877000125,,,,,,,,,,,,,3899.96133369999,3899.9764877000125,3899.9764877000125,3899.9764877000125,3906.68743010005,,,,3906.6991920999717,3906.709304500022,3906.709304500022,3906.752975899959,3906.753331999993,3906.7694719999563,3906.7694719999563,3906.7694719999563,3906.8529008999467,3907.170294599957,,,,,,,,up,6.696695700054988,None,space,0.3923844000091776,None,,,,,,,,,,,,,,,P126,001,2025-02-27_09h57.36.379,posner_endo_new1,2024.2.4,60.024117692451924,2025-02-27 09h57.44.356559 +0000,
cube_l.png,0.1,0.31,invalid,3,3,0,up,9.558658799971454,None,space,0.30884379998315126,None,,,,,0,3,3,3,,,,,3907.1857636000495,,,,,,,,,,,,,3907.1705980999395,3907.1857636000495,3907.1857636000495,3907.1857636000495,3916.7606646999484,,,,3916.775449299952,3916.7854633999523,3916.7854633999523,3916.8259043999715,3916.826353100012,3916.8423468000256,3916.8423468000256,3916.8423468000256,3916.9256016999716,3917.160211200011,,,,,,,,up,9.558658799971454,None,space,0.30884379998315126,None,,,,,,,,,,,,,,,P126,001,2025-02-27_09h57.36.379,posner_endo_new1,2024.2.4,60.024117692451924,2025-02-27 09h57.44.356559 +0000,
cube_l.png,0.1,-0.31,valid,4,4,0,up,7.922038299962878,None,space,0.3862476999638602,None,,,,,0,4,4,4,,,,,3917.1753260999685,,,,,,,,,,,,,3917.160601199954,3917.1753260999685,3917.1753260999685,3917.1753260999685,3925.1019500000402,,,,3925.1118282999378,3925.121851600008,3925.121851600008,3925.167566900025,3925.167875800049,3925.184087899979,3925.184087899979,3925.184087899979,3925.2672769000055,3925.584743399988,,,,,,,,up,7.922038299962878,None,space,0.3862476999638602,None,,,,,,,,,,,,,,,P126,001,2025-02-27_09h57.36.379,posner_endo_new1,2024.2.4,60.024117692451924,2025-02-27 09h57.44.356559 +0000,
cube_r.png,0.1,-0.31,invalid,5,5,0,up,8.536077599972486,None,space,0.36037889996077865,None,,,,,0,5,5,5,,,,,3925.6002926999936,,,,,,,,,,,,,3925.5850009999704,3925.6002926999936,3925.6002926999936,3925.6002926999936,3934.142660100013,,,,3934.1524521999527,3934.1625001999782,3934.1625001999782,3934.2083823999856,3934.2086890999926,3934.2248168999795,3934.2248168999795,3934.2248168999795,3934.308059199946,3934.5920959999785,,,,,,,,up,8.536077599972486,None,space,0.36037889996077865,None,,,,,,,,,,,,,,,P126,001,2025-02-27_09h57.36.379,posner_endo_new1,2024.2.4,60.024117692451924,2025-02-27 09h57.44.356559 +0000,
cube_r.png,0.1,0.31,valid,6,6,0,up,11.240735200000927,None,space,0.31802310002967715,None,,,,,0,6,6,6,,,,,3934.607851800043,,,,,,,,,,,,,3934.592355299974,3934.607851800043,3934.607851800043,3934.607851800043,3945.864199899952,,,,3945.874143299996,3945.884138799971,3945.884138799971,3945.9297218000283,3945.9300302000483,3945.9462668000488,3945.9462668000488,3945.9462668000488,3946.0294352000346,3946.2802618000424,,,,,,,,up,11.240735200000927,None,space,0.31802310002967715,None,,,,,,,,,,,,,,,P126,001,2025-02-27_09h57.36.379,posner_endo_new1,2024.2.4,60.024117692451924,2025-02-27 09h57.44.356559 +0000,
cube_r.png,0.1,-0.31,invalid,7,7,0,up,10.752807600074448,None,space,0.3193101000506431,None,,,,,0,7,7,7,,,,,3946.2957943000365,,,,,,,,,,,,,3946.280520200031,3946.2957943000365,3946.2957943000365,3946.2957943000365,3957.0523620999884,,,,3957.058484200039,3957.070113900001,3957.070113900001,3957.118399900035,3957.118624099996,3957.1347893000348,3957.1347893000348,3957.1347893000348,3957.2014185000444,3957.468549399986,,,,,,,,up,10.752807600074448,None,space,0.3193101000506431,None,,,,,,,,,,,,,,,P126,001,2025-02-27_09h57.36.379,posner_endo_new1,2024.2.4,60.024117692451924,2025-02-27 09h57.44.356559 +0000,
cube_l.png,0.1,-0.31,valid,8,8,0,up,7.197943500010297,None,space,0.3142115999944508,None,,,,,0,8,8,8,,,,,3957.4843846999574,,,,,,,,,,,,,3957.4687259000493,3957.4843846999574,3957.4843846999574,3957.4843846999574,3964.6940320000285,,,,3964.700124999974,3964.7120161999483,3964.7120161999483,3964.7605500000063,3964.7607808000175,3964.7772339000367,3964.7772339000367,3964.7772339000367,3964.843937300029,3965.0937945999904,,,,,,,,up,7.197943500010297,None,space,0.3142115999944508,None,,,,,,,,,,,,,,,P126,001,2025-02-27_09h57.36.379,posner_endo_new1,2024.2.4,60.024117692451924,2025-02-27 09h57.44.356559 +0000,
cube_r.png,0.1,-0.31,invalid,9,9,0,up,9.882407400058582,None,space,0.3527567000128329,None,,,,,0,9,9,9,,,,,3965.1102797000203,,,,,,,,,,,,,3965.0939695000416,3965.1102797000203,3965.1102797000203,3965.1102797000203,3975.00255189999,,,,3975.025326199946,3975.0356911999406,3975.0356911999406,3975.0662982000504,3975.0666595000075,3975.082762300037,3975.082762300037,3975.082762300037,3975.1662856000476,3975.450714100036,,,,,,,,up,9.882407400058582,None,space,0.3527567000128329,None,,,,,,,,,,,,,,,P126,001,2025-02-27_09h57.36.379,posner_endo_new1,2024.2.4,60.024117692451924,2025-02-27 09h57.44.356559 +0000,
cube_l.png,0.1,0.31,invalid,10,10,0,up,8.375106599996798,None,space,0.3011079999851063,None,,,,,0,10,10,10,,,,,3975.4660507000517,,,,,,,,,,,,,3975.4510099999607,3975.4660507000517,3975.4660507000517,3975.4660507000517,3983.84190879995,,,,3983.84803610004,3983.8600384000456,3983.8600384000456,3983.9076325000497,3983.907858700026,3983.9242311000125,3983.9242311000125,3983.9242311000125,3984.0069202999584,3984.240718599991,,,,,,,,up,8.375106599996798,None,space,0.3011079999851063,None,,,,,,,,,,,,,,,P126,001,2025-02-27_09h57.36.379,posner_endo_new1,2024.2.4,60.024117692451924,2025-02-27 09h57.44.356559 +0000,
cube_r.png,0.1,-0.31,invalid,11,11,0,up,9.087862799991854,None,space,0.3375961999408901,None,,,,,0,11,11,11,,,,,3984.2570860999404,,,,,,,,,,,,,3984.24089669995,3984.2570860999404,3984.2570860999404,3984.2570860999404,3993.3506997999502,,,,3993.374238700024,3993.386596099939,3993.386596099939,3993.414511900046,3993.4148878999986,3993.4309925000416,3993.4309925000416,3993.4309925000416,3993.5143049999606,3993.7818360000383,,,,,,,,up,9.087862799991854,None,space,0.3375961999408901,None,,,,,,,,,,,,,,,P126,001,2025-02-27_09h57.36.379,posner_endo_new1,2024.2.4,60.024117692451924,2025-02-27 09h57.44.356559 +0000,
cube_r.png,0.1,0.31,valid,12,12,0,up,8.260166299995035,None,space,0.3459487999789417,None,,,,,0,12,12,12,,,,,3993.7972850999795,,,,,,,,,,,,,3993.7821305999532,3993.7972850999795,3993.7972850999795,3993.7972850999795,4002.0733750000363,,,,4002.085023200023,4002.0952592999674,4002.0952592999674,4002.1388533000136,4002.1392032000003,4002.1553262999514,4002.1553262999514,4002.1553262999514,4002.238664699951,4002.5064401000272,,,,,,,,up,8.260166299995035,None,space,0.3459487999789417,None,,,,,,,,,,,,,,,P126,001,2025-02-27_09h57.36.379,posner_endo_new1,2024.2.4,60.024117692451924,2025-02-27 09h57.44.356559 +0000,
cube_l.png,0.1,10,catch,13,13,0,up,7.56735409994144,None,None,,,,,,,0,13,13,13,,,,,4002.5218264999567,,,,,,,,,,,,,4002.5067362999544,4002.5218264999567,4002.5218264999567,4002.5218264999567,4010.098330399953,,,,4010.1099912000354,4010.1200760999927,4010.1200760999927,4010.164057099959,4010.164407699951,4010.180494099972,4010.180494099972,4010.180494099972,4010.2638268000446,4013.178234699997,,,,4012.2783367999364,4013.194099199958,4013.194099199958,4013.194099199958,up,7.56735409994144,None,None,,,,,,,,,,,,,,,,,P126,001,2025-02-27_09h57.36.379,posner_endo_new1,2024.2.4,60.024117692451924,2025-02-27 09h57.44.356559 +0000,
cube_r.png,0.1,-0.31,invalid,14,14,0,up,15.582732799928635,None,space,0.3847201999742538,None,,,,,0,14,14,14,,,,,4013.194099199958,,,,,,,,,,,,,4013.1785123000154,4013.194099199958,4013.194099199958,4013.194099199958,4028.779468099936,,,,4028.788748999941,4028.798381499946,4028.798381499946,4028.8450526000233,4028.8452940999996,4028.8614871000173,4028.8614871000173,4028.8614871000173,4028.944731800002,4029.261977999937,,,,,,,,up,15.582732799928635,None,space,0.3847201999742538,None,,,,,,,,,,,,,,,P126,001,2025-02-27_09h57.36.379,posner_endo_new1,2024.2.4,60.024117692451924,2025-02-27 09h57.44.356559 +0000,
cube_l.png,0.1,-0.31,valid,15,15,0,up,6.62757180002518,None,space,0.3467934000073001,None,,,,,0,15,15,15,,,,,4029.277909599943,,,,,,,,,,,,,4029.2621671999805,4029.277909599943,4029.277909599943,4029.277909599943,4035.9216103999643,,,,4035.928634000011,4035.9403559999773,4035.9403559999773,4035.9876581999706,4035.9878997999476,4036.004227999947,4036.004227999947,4036.004227999947,4036.0708981000353,4036.3548699000385,,,,,,,,up,6.62757180002518,None,space,0.3467934000073001,None,,,,,,,,,,,,,,,P126,001,2025-02-27_09h57.36.379,posner_endo_new1,2024.2.4,60.024117692451924,2025-02-27 09h57.44.356559 +0000,
cube_r.png,0.1,10,catch,16,16,0,up,7.222138499957509,None,None,,,,,,,0,16,16,16,,,,,4036.370496300049,,,,,,,,,,,,,4036.355061999988,4036.370496300049,4036.370496300049,4036.370496300049,4043.5971639000345,,,,4043.604170799954,4043.6160813999595,4043.6160813999595,4043.6632822999964,4043.6635254999856,4043.679723600042,4043.679723600042,4043.679723600042,4043.7463156000013,4046.6771750999615,,,,4045.7608460000483,4046.693320799968,4046.693320799968,4046.693320799968,up,7.222138499957509,None,None,,,,,,,,,,,,,,,,,P126,001,2025-02-27_09h57.36.379,posner_endo_new1,2024.2.4,60.024117692451924,2025-02-27 09h57.44.356559 +0000,
cube_r.png,0.1,10,catch,17,17,0,up,7.220025500049815,None,None,,,,,,,0,17,17,17,,,,,4046.693320799968,,,,,,,,,,,,,4046.6773543000454,4046.693320799968,4046.693320799968,4046.693320799968,4053.9202095000073,,,,4053.92723869998,4053.9386868999572,4053.9386868999572,4053.985971200047,4053.9862221999792,4054.0021166000515,4054.0021166000515,4054.0021166000515,4054.08574879996,4056.999913400039,,,,4056.1003234999953,4057.0161317000166,4057.0161317000166,4057.0161317000166,up,7.220025500049815,None,None,,,,,,,,,,,,,,,,,P126,001,2025-02-27_09h57.36.379,posner_endo_new1,2024.2.4,60.024117692451924,2025-02-27 09h57.44.356559 +0000,
cube_l.png,0.1,0.31,invalid,18,18,0,up,7.416847700020298,None,space,0.36883310007397085,None,,,,,0,18,18,18,,,,,4057.0161317000166,,,,,,,,,,,,,4057.0000919000013,4057.0161317000166,4057.0161317000166,4057.0161317000166,4064.444654299994,,,,4064.4682173000183,4064.4805050999857,4064.4805050999857,4064.5083656000206,4064.508822200005,4064.5247864000266,4064.5247864000266,4064.5247864000266,4064.60804620001,4064.909248800017,,,,,,,,up,7.416847700020298,None,space,0.36883310007397085,None,,,,,,,,,,,,,,,P126,001,2025-02-27_09h57.36.379,posner_endo_new1,2024.2.4,60.024117692451924,2025-02-27 09h57.44.356559 +0000,
cube_l.png,0.1,10,catch,19,19,0,up,6.47727729997132,None,None,,,,,,,0,19,19,19,,,,,4064.9243998000165,,,,,,,,,,,,,4064.9096358999377,4064.9243998000165,4064.9243998000165,4064.9243998000165,4071.402707100031,,,,4071.412694599945,4071.422741599963,4071.422741599963,4071.468097300036,4071.468406299944,4071.484617499984,4071.484617499984,4071.484617499984,4071.5677884999895,4074.482263199985,,,,4073.582523399964,4074.498269099975,4074.498269099975,4074.498269099975,up,6.47727729997132,None,None,,,,,,,,,,,,,,,,,P126,001,2025-02-27_09h57.36.379,posner_endo_new1,2024.2.4,60.024117692451924,2025-02-27 09h57.44.356559 +0000,
cube_l.png,0.1,0.31,invalid,20,20,0,up,4.966992900008336,None,space,0.36909719998948276,None,,,,,0,20,20,20,,,,,4074.498269099975,,,,,,,,,,,,,4074.4825086999917,4074.498269099975,4074.498269099975,4074.498269099975,4079.4774582999526,,,,4079.487241899944,4079.4973759000422,4079.4973759000422,4079.5436426999513,4079.5443719000323,4079.559984399937,4079.559984399937,4079.559984399937,4079.6265514999395,4079.9454585999483,,,,,,,,up,4.966992900008336,None,space,0.36909719998948276,None,,,,,,,,,,,,,,,P126,001,2025-02-27_09h57.36.379,posner_endo_new1,2024.2.4,60.024117692451924,2025-02-27 09h57.44.356559 +0000,
cube_l.png,0.1,-0.31,valid,21,21,0,up,8.033517400035635,None,space,0.36671760003082454,None,,,,,0,21,21,21,,,,,4079.959590499988,,,,,,,,,,,,,4079.9460736999754,4079.959590499988,4079.959590499988,4079.959590499988,4088.0036525999894,,,,4088.0269865000155,4088.0392577999737,4088.0392577999737,4088.067493999959,4088.0678473999724,4088.0840614000335,4088.0840614000335,4088.0840614000335,4088.167582200025,4088.4519692000467,,,,,,,,up,8.033517400035635,None,space,0.36671760003082454,None,,,,,,,,,,,,,,,P126,001,2025-02-27_09h57.36.379,posner_endo_new1,2024.2.4,60.024117692451924,2025-02-27 09h57.44.356559 +0000,
cube_r.png,0.1,0.31,valid,22,22,0,up,9.14975800004322,None,space,0.4054220999823883,None,,,,,0,22,22,22,,,,,4088.467365999939,,,,,,,,,,,,,4088.4522748000454,4088.467365999939,4088.467365999939,4088.467365999939,4097.625219200039,,,,4097.63166449999,4097.643362600007,4097.643362600007,4097.691455199965,4097.691681999946,4097.707751699956,4097.707751699956,4097.707751699956,4097.791237600031,4098.12486370001,,,,,,,,up,9.14975800004322,None,space,0.4054220999823883,None,,,,,,,,,,,,,,,P126,001,2025-02-27_09h57.36.379,posner_endo_new1,2024.2.4,60.024117692451924,2025-02-27 09h57.44.356559 +0000,
cube_r.png,0.1,-0.31,invalid,23,23,0,up,8.460258900071494,None,space,0.4103768999921158,None,,,,,0,23,23,23,,,,,4098.140936600044,,,,,,,,,,,,,4098.125041099964,4098.140936600044,4098.140936600044,4098.140936600044,4106.618068899959,,,,4106.638732200023,4106.648821200011,4106.648821200011,4106.681948199985,4106.68239750003,4106.698389700032,4106.698389700032,4106.698389700032,4106.781626199954,4107.116271200008,,,,,,,,up,8.460258900071494,None,space,0.4103768999921158,None,,,,,,,,,,,,,,,P126,001,2025-02-27_09h57.36.379,posner_endo_new1,2024.2.4,60.024117692451924,2025-02-27 09h57.44.356559 +0000,
cube_r.png,0.1,0.31,valid,24,24,0,up,10.373541299952194,None,space,0.358426499995403,None,,,,,0,24,24,24,,,,,4107.1312692000065,,,,,,,,,,,,,4107.116647699964,4107.1312692000065,4107.1312692000065,4107.1312692000065,4117.521802100004,,,,4117.531794999959,4117.541583299986,4117.541583299986,4117.587633799994,4117.587944800034,4117.604222299997,4117.604222299997,4117.604222299997,4117.6874014999485,4117.9714848999865,,,,,,,,up,10.373541299952194,None,space,0.358426499995403,None,,,,,,,,,,,,,,,P126,001,2025-02-27_09h57.36.379,posner_endo_new1,2024.2.4,60.024117692451924,2025-02-27 09h57.44.356559 +0000,
cube_r.png,0.1,-0.31,invalid,25,25,0,up,9.88553149998188,None,space,0.3486983999609947,None,,,,,0,25,25,25,,,,,4117.987212199951,,,,,,,,,,,,,4117.971748900018,4117.987212199951,4117.987212199951,4117.987212199951,4127.877772600041,,,,4127.88389269996,4127.895594600006,4127.895594600006,4127.943283700035,4127.943509900011,4127.960522999987,4127.960522999987,4127.960522999987,4128.027000700007,4128.31078239996,,,,,,,,up,9.88553149998188,None,space,0.3486983999609947,None,,,,,,,,,,,,,,,P126,001,2025-02-27_09h57.36.379,posner_endo_new1,2024.2.4,60.024117692451924,2025-02-27 09h57.44.356559 +0000,
cube_l.png,0.1,-0.31,valid,26,26,0,up,8.378868999890983,None,space,0.34265380003489554,None,,,,,0,26,26,26,,,,,4128.326230400009,,,,,,,,,,,,,4128.310959000024,4128.326230400009,4128.326230400009,4128.326230400009,4136.718574599945,,,,4136.7247150000185,4136.736379900016,4136.736379900016,4136.784238899942,4136.784464800032,4136.800825300044,4136.800825300044,4136.800825300044,4136.884487399948,4137.151844799984,,,,,,,,up,8.378868999890983,None,space,0.34265380003489554,None,,,,,,,,,,,,,,,P126,001,2025-02-27_09h57.36.379,posner_endo_new1,2024.2.4,60.024117692451924,2025-02-27 09h57.44.356559 +0000,
cube_r.png,0.1,0.31,valid,27,27,0,up,9.6972381999949,None,space,0.3566551998956129,None,,,,,0,27,27,27,,,,,4137.167733300012,,,,,,,,,,,,,4137.152023299946,4137.167733300012,4137.167733300012,4137.167733300012,4146.874916499946,,,,4146.881039900007,4146.892642499995,4146.892642499995,4146.941119699972,4146.941346799955,4146.957540299976,4146.957540299976,4146.957540299976,4147.023626000038,4147.32460729999,,,,,,,,up,9.6972381999949,None,space,0.3566551998956129,None,,,,,,,,,,,,,,,P126,001,2025-02-27_09h57.36.379,posner_endo_new1,2024.2.4,60.024117692451924,2025-02-27 09h57.44.356559 +0000,
cube_r.png,0.1,10,catch,28,28,0,up,7.973522100015543,None,None,,,,,,,0,28,28,28,,,,,4147.340137699968,,,,,,,,,,,,,4147.3247821000405,4147.340137699968,4147.340137699968,4147.340137699968,4155.317804499995,,,,4155.33688409999,4155.348280400038,4155.348280400038,4155.38238830003,4155.382742000045,4155.398810200044,4155.398810200044,4155.398810200044,4155.4821943000425,4158.396476499969,,,,4157.496673400048,4158.412423699978,4158.412423699978,4158.412423699978,up,7.973522100015543,None,None,,,,,,,,,,,,,,,,,P126,001,2025-02-27_09h57.36.379,posner_endo_new1,2024.2.4,60.024117692451924,2025-02-27 09h57.44.356559 +0000,
cube_r.png,0.1,0.31,valid,29,29,0,up,7.77339290000964,None,space,0.33054650004487485,None,,,,,0,29,29,29,,,,,4158.412423699978,,,,,,,,,,,,,4158.39675049996,4158.412423699978,4158.412423699978,4158.412423699978,4166.188971500029,,,,4166.200642599957,4166.210887799971,4166.210887799971,4166.254598699976,4166.2549506999785,4166.271044099936,4166.271044099936,4166.271044099936,4166.354370499961,4166.605312900036,,,,,,,,up,7.77339290000964,None,space,0.33054650004487485,None,,,,,,,,,,,,,,,P126,001,2025-02-27_09h57.36.379,posner_endo_new1,2024.2.4,60.024117692451924,2025-02-27 09h57.44.356559 +0000,
cube_r.png,0.1,0.31,valid,30,30,0,up,9.60509239998646,None,space,0.3568596999393776,None,,,,,0,30,30,30,,,,,4166.6207241000375,,,,,,,,,,,,,4166.6056137999985,4166.6207241000375,4166.6207241000375,4166.6207241000375,4176.228955499944,,,,4176.238490900025,4176.248079200042,4176.248079200042,4176.294409499969,4176.2946671999525,4176.3112102999585,4176.3112102999585,4176.3112102999585,4176.394093699986,4176.678159200004,,,,,,,,up,9.60509239998646,None,space,0.3568596999393776,None,,,,,,,,,,,,,,,P126,001,2025-02-27_09h57.36.379,posner_endo_new1,2024.2.4,60.024117692451924,2025-02-27 09h57.44.356559 +0000,
cube_l.png,0.1,-0.31,valid,31,31,0,up,8.97146790008992,None,space,0.36472899990621954,None,,,,,0,31,31,31,,,,,4176.693891800009,,,,,,,,,,,,,4176.678350699949,4176.693891800009,4176.693891800009,4176.693891800009,4185.669002700015,,,,4185.6759906000225,4185.687617999967,4185.687617999967,4185.734905399964,4185.735140600009,4185.751342499978,4185.751342499978,4185.751342499978,4185.834440300008,4186.118260100018,,,,,,,,up,8.97146790008992,None,space,0.36472899990621954,None,,,,,,,,,,,,,,,P126,001,2025-02-27_09h57.36.379,posner_endo_new1,2024.2.4,60.024117692451924,2025-02-27 09h57.44.356559 +0000,
cube_r.png,0.1,0.31,valid,32,32,0,up,8.39549329993315,None,space,0.2938733999617398,None,,,,,0,32,32,32,,,,,4186.134159700014,,,,,,,,,,,,,4186.118435199955,4186.134159700014,4186.134159700014,4186.134159700014,4194.543194200029,,,,4194.549356100033,4194.56091660005,4194.56091660005,4194.608947600005,4194.609173899982,4194.625558399945,4194.625558399945,4194.625558399945,4194.7087172999745,4194.925851000007,,,,,,,,up,8.39549329993315,None,space,0.2938733999617398,None,,,,,,,,,,,,,,,P126,001,2025-02-27_09h57.36.379,posner_endo_new1,2024.2.4,60.024117692451924,2025-02-27 09h57.44.356559 +0000,
cube_r.png,0.1,-0.31,invalid,33,33,0,up,10.587263599969447,None,space,0.3185734999133274,None,,,,,0,33,33,33,,,,,4194.941926299944,,,,,,,,,,,,,4194.926029299968,4194.941926299944,4194.941926299944,4194.941926299944,4205.531976399943,,,,4205.538085000007,4205.549830200034,4205.549830200034,4205.597766099963,4205.597993199946,4205.614326299983,4205.614326299983,4205.614326299983,4205.697319000028,4205.947663399973,,,,,,,,up,10.587263599969447,None,space,0.3185734999133274,None,,,,,,,,,,,,,,,P126,001,2025-02-27_09h57.36.379,posner_endo_new1,2024.2.4,60.024117692451924,2025-02-27 09h57.44.356559 +0000,
cube_r.png,0.1,10,catch,34,34,0,up,9.077320700045675,None,None,,,,,,,0,34,34,34,,,,,4205.964154999936,,,,,,,,,,,,,4205.947845699964,4205.964154999936,4205.964154999936,4205.964154999936,4215.054918000009,,,,4215.061138099991,4215.072627300047,4215.072627300047,4215.120807399973,4215.121033899952,4215.137469199952,4215.137469199952,4215.137469199952,4215.204475800041,4218.13580030005,,,,4217.218941999949,4218.151364599937,4218.151364599937,4218.151364599937,up,9.077320700045675,None,None,,,,,,,,,,,,,,,,,P126,001,2025-02-27_09h57.36.379,posner_endo_new1,2024.2.4,60.024117692451924,2025-02-27 09h57.44.356559 +0000,
cube_r.png,0.1,0.31,valid,35,35,0,up,6.51452079997398,None,space,0.37063879997003824,None,,,,,0,35,35,35,,,,,4218.151364599937,,,,,,,,,,,,,4218.136216199957,4218.151364599937,4218.151364599937,4218.151364599937,4224.679257099982,,,,4224.688601600006,4224.69818810001,4224.69818810001,4224.744726900011,4224.744965199963,4224.761468100012,4224.761468100012,4224.761468100012,4224.844826100045,4225.145122900023,,,,,,,,up,6.51452079997398,None,space,0.37063879997003824,None,,,,,,,,,,,,,,,P126,001,2025-02-27_09h57.36.379,posner_endo_new1,2024.2.4,60.024117692451924,2025-02-27 09h57.44.356559 +0000,
cube_r.png,0.1,-0.31,invalid,36,36,0,up,14.399989999947138,None,space,0.43413219996728003,None,,,,,0,36,36,36,,,,,4225.1609813999385,,,,,,,,,,,,,4225.145314299967,4225.1609813999385,4225.1609813999385,4225.1609813999385,4239.563733199961,,,,4239.5708935,4239.582431499963,4239.582431499963,4239.629684000043,4239.629921799991,4239.645905500045,4239.645905500045,4239.645905500045,4239.729494599975,4240.0966408000095,,,,,,,,up,14.399989999947138,None,space,0.43413219996728003,None,,,,,,,,,,,,,,,P126,001,2025-02-27_09h57.36.379,posner_endo_new1,2024.2.4,60.024117692451924,2025-02-27 09h57.44.356559 +0000,
cube_l.png,0.1,0.31,invalid,37,37,0,up,8.05736670002807,None,space,0.592924700002186,None,,,,,0,37,37,37,,,,,4240.112162600039,,,,,,,,,,,,,4240.09682960005,4240.112162600039,4240.112162600039,4240.112162600039,4248.171656099963,,,,4248.1787372999825,4248.190525699989,4248.190525699989,4248.237572800019,4248.237812199979,4248.254100900027,4248.254100900027,4248.254100900027,4248.337230899953,4248.855605000048,,,,,,,,up,8.05736670002807,None,space,0.592924700002186,None,,,,,,,,,,,,,,,P126,001,2025-02-27_09h57.36.379,posner_endo_new1,2024.2.4,60.024117692451924,2025-02-27 09h57.44.356559 +0000,
cube_l.png,0.1,0.31,invalid,38,38,0,up,10.467095999978483,None,space,0.5530102000338957,None,,,,,0,38,38,38,,,,,4248.870081400033,,,,,,,,,,,,,4248.856095899944,4248.870081400033,4248.870081400033,4248.870081400033,4259.344827199937,,,,4259.363658900023,4259.374013299937,4259.374013299937,4259.409372900031,4259.409691700013,4259.42599290004,4259.42599290004,4259.42599290004,4259.509172999999,4259.993083499954,,,,,,,,up,10.467095999978483,None,space,0.5530102000338957,None,,,,,,,,,,,,,,,P126,001,2025-02-27_09h57.36.379,posner_endo_new1,2024.2.4,60.024117692451924,2025-02-27 09h57.44.356559 +0000,
cube_r.png,0.1,0.31,valid,39,39,0,up,9.784422100055963,None,space,0.33325839997269213,None,,,,,0,39,39,39,,,,,4260.008690600051,,,,,,,,,,,,,4259.993339700042,4260.008690600051,4260.008690600051,4260.008690600051,4269.799774399959,,,,4269.809739899938,4269.8198249000125,4269.8198249000125,4269.86541269999,4269.865720600006,4269.881967099966,4269.881967099966,4269.881967099966,4269.965254800045,4270.2162503999425,,,,,,,,up,9.784422100055963,None,space,0.33325839997269213,None,,,,,,,,,,,,,,,P126,001,2025-02-27_09h57.36.379,posner_endo_new1,2024.2.4,60.024117692451924,2025-02-27 09h57.44.356559 +0000,
cube_l.png,0.1,0.31,invalid,40,40,0,up,8.697612499934621,None,space,0.31549490010365844,None,,,,,0,40,40,40,,,,,4270.231657000026,,,,,,,,,,,,,4270.216504900018,4270.231657000026,4270.231657000026,4270.231657000026,4278.940393900033,,,,4278.95034640003,4278.960472899955,4278.960472899955,4279.006163700018,4279.006485700025,4279.022645800025,4279.022645800025,4279.022645800025,4279.105821999954,4279.340187499998,,,,,,,,up,8.697612499934621,None,space,0.31549490010365844,None,,,,,,,,,,,,,,,P126,001,2025-02-27_09h57.36.379,posner_endo_new1,2024.2.4,60.024117692451924,2025-02-27 09h57.44.356559 +0000,
cube_l.png,0.1,10,catch,41,41,0,up,7.213838499970734,None,None,,,,,,,0,41,41,41,,,,,4279.355584800011,,,,,,,,,,,,,4279.340442899964,4279.355584800011,4279.355584800011,4279.355584800011,4286.58431820001,,,,4286.606041899999,4286.616394900018,4286.616394900018,4286.64826269995,4286.648613299942,4286.664788099937,4286.664788099937,4286.664788099937,4286.74803040002,4289.662462600041,,,,4288.762573600048,4289.678366499953,4289.678366499953,4289.678366499953,up,7.213838499970734,None,None,,,,,,,,,,,,,,,,,P126,001,2025-02-27_09h57.36.379,posner_endo_new1,2024.2.4,60.024117692451924,2025-02-27 09h57.44.356559 +0000,
cube_l.png,0.1,-0.31,valid,42,42,0,up,13.419143800041638,None,space,0.36446880002040416,None,,,,,0,42,42,42,,,,,4289.678366499953,,,,,,,,,,,,,4289.662741399952,4289.678366499953,4289.678366499953,4289.678366499953,4303.099295599968,,,,4303.108514499967,4303.118059400003,4303.118059400003,4303.164768800023,4303.165016700048,4303.181179899955,4303.181179899955,4303.181179899955,4303.264615199994,4303.548415099969,,,,,,,,up,13.419143800041638,None,space,0.36446880002040416,None,,,,,,,,,,,,,,,P126,001,2025-02-27_09h57.36.379,posner_endo_new1,2024.2.4,60.024117692451924,2025-02-27 09h57.44.356559 +0000,
cube_l.png,0.1,10,catch,43,43,0,up,7.613830300047994,None,None,,,,,,,0,43,43,43,,,,,4303.5641250000335,,,,,,,,,,,,,4303.548606000026,4303.5641250000335,4303.5641250000335,4303.5641250000335,4311.1904368000105,,,,4311.197466399986,4311.20926839998,4311.20926839998,4311.256505499943,4311.256751399953,4311.273109599948,4311.273109599948,4311.273109599948,4311.339639700018,4314.270541099948,,,,4313.354259200045,4314.286721899989,4314.286721899989,4314.286721899989,up,7.613830300047994,None,None,,,,,,,,,,,,,,,,,P126,001,2025-02-27_09h57.36.379,posner_endo_new1,2024.2.4,60.024117692451924,2025-02-27 09h57.44.356559 +0000,
cube_l.png,0.1,0.31,invalid,44,44,0,up,4.6104689000640064,None,space,0.40468280005734414,None,,,,,0,44,44,44,,,,,4314.286721899989,,,,,,,,,,,,,4314.270714299986,4314.286721899989,4314.286721899989,4314.286721899989,4318.8994313,,,,4318.906478699995,4318.918116200017,4318.918116200017,4318.965271799942,4318.96551280003,4318.981821699999,4318.981821699999,4318.981821699999,4319.064958299976,4319.398723499966,,,,,,,,up,4.6104689000640064,None,space,0.40468280005734414,None,,,,,,,,,,,,,,,P126,001,2025-02-27_09h57.36.379,posner_endo_new1,2024.2.4,60.024117692451924,2025-02-27 09h57.44.356559 +0000,
cube_l.png,0.1,0.31,invalid,45,45,0,up,13.091389799956232,None,space,0.3909128000959754,None,,,,,0,45,45,45,,,,,4319.414256999968,,,,,,,,,,,,,4319.398910499993,4319.414256999968,4319.414256999968,4319.414256999968,4332.518445099937,,,,4332.525478799944,4332.537334699999,4332.537334699999,4332.584813999943,4332.585062399972,4332.601378799998,4332.601378799998,4332.601378799998,4332.66783089994,4333.001617799979,,,,,,,,up,13.091389799956232,None,space,0.3909128000959754,None,,,,,,,,,,,,,,,P126,001,2025-02-27_09h57.36.379,posner_endo_new1,2024.2.4,60.024117692451924,2025-02-27 09h57.44.356559 +0000,
cube_r.png,0.1,0.31,valid,46,46,0,up,9.543813799973577,None,space,0.3399945000419393,None,,,,,0,46,46,46,,,,,4333.017467399943,,,,,,,,,,,,,4333.0018041,4333.017467399943,4333.017467399943,4333.017467399943,4342.574884100002,,,,4342.5818674999755,4342.593668199959,4342.593668199959,4342.640677000047,4342.640904800035,4342.657650399953,4342.657650399953,4342.657650399953,4342.724236399983,4343.0080627000425,,,,,,,,up,9.543813799973577,None,space,0.3399945000419393,None,,,,,,,,,,,,,,,P126,001,2025-02-27_09h57.36.379,posner_endo_new1,2024.2.4,60.024117692451924,2025-02-27 09h57.44.356559 +0000,
cube_l.png,0.1,-0.31,valid,47,47,0,up,10.274054000037722,None,space,0.3227086999686435,None,,,,,0,47,47,47,,,,,4343.0239950999385,,,,,,,,,,,,,4343.008235499961,4343.0239950999385,4343.0239950999385,4343.0239950999385,4353.31400959997,,,,4353.320010900032,4353.331893099938,4353.331893099938,4353.37981329998,4353.380040799966,4353.396238200017,4353.396238200017,4353.396238200017,4353.463101799949,4353.7302738999715,,,,,,,,up,10.274054000037722,None,space,0.3227086999686435,None,,,,,,,,,,,,,,,P126,001,2025-02-27_09h57.36.379,posner_endo_new1,2024.2.4,60.024117692451924,2025-02-27 09h57.44.356559 +0000,
cube_r.png,0.1,-0.31,invalid,48,48,0,up,9.911432099994272,None,space,0.3496104000369087,None,,,,,0,48,48,48,,,,,4353.746401299955,,,,,,,,,,,,,4353.730446900008,4353.746401299955,4353.746401299955,4353.746401299955,4363.670001300052,,,,4363.676265300019,4363.6878372000065,4363.6878372000065,4363.736421499983,4363.736648299964,4363.752959599951,4363.752959599951,4363.752959599951,4363.835758200032,4364.103298199945,,,,,,,,up,9.911432099994272,None,space,0.3496104000369087,None,,,,,,,,,,,,,,,P126,001,2025-02-27_09h57.36.379,posner_endo_new1,2024.2.4,60.024117692451924,2025-02-27 09h57.44.356559 +0000,
cube_r.png,0.1,10,catch,49,49,0,up,10.762777900090441,None,None,,,,,,,0,49,49,49,,,,,4364.119117000024,,,,,,,,,,,,,4364.10346969997,4364.119117000024,4364.119117000024,4364.119117000024,4374.892067100038,,,,4374.898157499963,4374.909771400038,4374.909771400038,4374.95762120001,4374.957846999983,4374.974183400045,4374.974183400045,4374.974183400045,4375.041246899986,4377.9720825999975,,,,4377.05574109999,4377.988274400006,4377.988274400006,4377.988274400006,up,10.762777900090441,None,None,,,,,,,,,,,,,,,,,P126,001,2025-02-27_09h57.36.379,posner_endo_new1,2024.2.4,60.024117692451924,2025-02-27 09h57.44.356559 +0000,
cube_l.png,0.1,-0.31,valid,50,50,0,up,6.261075000045821,None,space,0.40579500002786517,None,,,,,0,50,50,50,,,,,4377.988274400006,,,,,,,,,,,,,4377.972242300049,4377.988274400006,4377.988274400006,4377.988274400006,4384.2661680999445,,,,4384.277720300015,4384.287563199992,4384.287563199992,4384.33172649995,4384.332075200044,4384.348261800013,4384.348261800013,4384.348261800013,4384.431610399974,4384.7657266999595,,,,,,,,up,6.261075000045821,None,space,0.40579500002786517,None,,,,,,,,,,,,,,,P126,001,2025-02-27_09h57.36.379,posner_endo_new1,2024.2.4,60.024117692451924,2025-02-27 09h57.44.356559 +0000,
cube_l.png,0.1,-0.31,valid,51,51,0,up,8.916659299982712,None,space,0.3528709999518469,None,,,,,0,51,51,51,,,,,4384.781182699953,,,,,,,,,,,,,4384.766020899988,4384.781182699953,4384.781182699953,4384.781182699953,4393.70576859999,,,,4393.712072400027,4393.723802000051,4393.723802000051,4393.772351599997,4393.77257999999,4393.788799399976,4393.788799399976,4393.788799399976,4393.85484080005,4394.155645200051,,,,,,,,up,8.916659299982712,None,space,0.3528709999518469,None,,,,,,,,,,,,,,,P126,001,2025-02-27_09h57.36.379,posner_endo_new1,2024.2.4,60.024117692451924,2025-02-27 09h57.44.356559 +0000,
cube_r.png,0.1,-0.31,invalid,52,52,0,up,9.438102199928835,None,space,0.3207428000168875,None,,,,,0,52,52,52,,,,,4394.171768800006,,,,,,,,,,,,,4394.15582059999,4394.171768800006,4394.171768800006,4394.171768800006,4403.612694700016,,,,4403.618673400022,4403.630459500011,4403.630459500011,4403.678252900019,4403.678482100018,4403.695217199973,4403.695217199973,4403.695217199973,4403.778332800022,4404.028965799953,,,,,,,,up,9.438102199928835,None,space,0.3207428000168875,None,,,,,,,,,,,,,,,P126,001,2025-02-27_09h57.36.379,posner_endo_new1,2024.2.4,60.024117692451924,2025-02-27 09h57.44.356559 +0000,
cube_l.png,0.1,-0.31,valid,53,53,0,up,11.436774599947967,None,space,0.36972750001586974,None,,,,,0,53,53,53,,,,,4404.044715199969,,,,,,,,,,,,,4404.029139699996,4404.044715199969,4404.044715199969,4404.044715199969,4415.484078099951,,,,4415.490120299975,4415.501835700008,4415.501835700008,4415.550225500017,4415.550450099981,4415.566522500012,4415.566522500012,4415.566522500012,4415.649528400041,4415.950078899972,,,,,,,,up,11.436774599947967,None,space,0.36972750001586974,None,,,,,,,,,,,,,,,P126,001,2025-02-27_09h57.36.379,posner_endo_new1,2024.2.4,60.024117692451924,2025-02-27 09h57.44.356559 +0000,
cube_r.png,0.1,10,catch,54,54,0,up,13.027375800069422,None,None,,,,,,,0,54,54,54,,,,,4415.966122900019,,,,,,,,,,,,,4415.9502507,4415.966122900019,4415.966122900019,4415.966122900019,4429.0033611999825,,,,4429.009430199978,4429.021102200029,4429.021102200029,4429.069465599954,4429.069691600045,4429.08605849999,4429.08605849999,4429.08605849999,4429.169035400031,4432.083182399976,,,,4431.183424200048,4432.099111399963,4432.099111399963,4432.099111399963,up,13.027375800069422,None,None,,,,,,,,,,,,,,,,,P126,001,2025-02-27_09h57.36.379,posner_endo_new1,2024.2.4,60.024117692451924,2025-02-27 09h57.44.356559 +0000,
cube_l.png,0.1,0.31,invalid,55,55,0,up,9.142389599932358,None,space,0.36725730006583035,None,,,,,0,55,55,55,,,,,4432.099111399963,,,,,,,,,,,,,4432.083350299974,4432.099111399963,4432.099111399963,4432.099111399963,4441.257260299986,,,,4441.263265999965,4441.274753400008,4441.274753400008,4441.323616400012,4441.323841699981,4441.340204500011,4441.340204500011,4441.340204500011,4441.423510599998,4441.723664100049,,,,,,,,up,9.142389599932358,None,space,0.36725730006583035,None,,,,,,,,,,,,,,,P126,001,2025-02-27_09h57.36.379,posner_endo_new1,2024.2.4,60.024117692451924,2025-02-27 09h57.44.356559 +0000,
cube_l.png,0.1,-0.31,valid,56,56,0,up,18.326770999934524,None,space,0.3308126999763772,None,,,,,0,56,56,56,,,,,4441.739176700008,,,,,,,,,,,,,4441.723837099969,4441.739176700008,4441.739176700008,4441.739176700008,4460.071947899996,,,,4460.078065600013,4460.089824600029,4460.089824600029,4460.137829100015,4460.138059800025,4460.154376499937,4460.154376499937,4460.154376499937,4460.237027599942,4460.487670599949,,,,,,,,up,18.326770999934524,None,space,0.3308126999763772,None,,,,,,,,,,,,,,,P126,001,2025-02-27_09h57.36.379,posner_endo_new1,2024.2.4,60.024117692451924,2025-02-27 09h57.44.356559 +0000,
cube_r.png,0.1,0.31,valid,57,57,0,up,11.602515900041908,None,space,0.38933570007793605,None,,,,,0,57,57,57,,,,,4460.50370380003,,,,,,,,,,,,,4460.487845900003,4460.50370380003,4460.50370380003,4460.50370380003,4472.111531200004,,,,4472.1309851999395,4472.141603700002,4472.141603700002,4472.175214600051,4472.175655400031,4472.191648700042,4472.191648700042,4472.191648700042,4472.274919499992,4472.592743100016,,,,,,,,up,11.602515900041908,None,space,0.38933570007793605,None,,,,,,,,,,,,,,,P126,001,2025-02-27_09h57.36.379,posner_endo_new1,2024.2.4,60.024117692451924,2025-02-27 09h57.44.356559 +0000,
cube_r.png,0.1,-0.31,invalid,58,58,0,up,11.450990200042725,None,space,0.24461200006771833,None,,,,,0,58,58,58,,,,,4472.607912400039,,,,,,,,,,,,,4472.593126800028,4472.607912400039,4472.607912400039,4472.607912400039,4484.064183900016,,,,4484.073902999982,4484.084099099971,4484.084099099971,4484.129904099973,4484.130209399969,4484.146335699945,4484.146335699945,4484.146335699945,4484.229674899951,4484.397256099968,,,,,,,,up,11.450990200042725,None,space,0.24461200006771833,None,,,,,,,,,,,,,,,P126,001,2025-02-27_09h57.36.379,posner_endo_new1,2024.2.4,60.024117692451924,2025-02-27 09h57.44.356559 +0000,
cube_l.png,0.1,0.31,invalid,59,59,0,up,11.909501499962062,None,space,0.4209258999908343,None,,,,,0,59,59,59,,,,,4484.412762099993,,,,,,,,,,,,,4484.397511700052,4484.412762099993,4484.412762099993,4484.412762099993,4496.3351563999895,,,,4496.34500630002,4496.355007200036,4496.355007200036,4496.400651899981,4496.400961300009,4496.41713419999,4496.41713419999,4496.41713419999,4496.500390499947,4496.851118999999,,,,,,,,up,11.909501499962062,None,space,0.4209258999908343,None,,,,,,,,,,,,,,,P126,001,2025-02-27_09h57.36.379,posner_endo_new1,2024.2.4,60.024117692451924,2025-02-27 09h57.44.356559 +0000,
,,,,,,,,,,,,,,,,,,,,,,,,,,,,,,,,,,,,,,,,,,,,,,,,,,,,,,,,,,,,,,,,,,,,,4496.851282199961,4496.8666977999965,4496.8666977999965,4556.872267700033,4565.166110699996,space,68.29562620003708,None,,,,,,,P126,001,2025-02-27_09h57.36.379,posner_endo_new1,2024.2.4,60.024117692451924,2025-02-27 09h57.44.356559 +0000,
,,,,,,,,,,,,,,,,,,,,,,,,,,,,,,,,,,4565.166277799988,4565.180476599955,4568.205458199955,4568.162024999969,,,,,,,,,,,,,,,,,,,,,,,,,,,,,,,,,,,,,,,,,,,,,,P126,001,2025-02-27_09h57.36.379,posner_endo_new1,2024.2.4,60.024117692451924,2025-02-27 09h57.44.356559 +0000,
cube_l.png,0.1,10,catch,0,0,0,down,10.389071499928832,None,None,,,,,,,,,,,0,0,0,0,4568.205458199955,,,,,,,,,,,,,4568.196433600038,4568.205458199955,4568.205458199955,4568.205458199955,4578.601636599982,,,,4578.619131300016,4578.630428200006,4578.630428200006,4578.6666470000055,4578.666937400005,4578.683142900001,4578.683142900001,4578.683142900001,4578.766360400012,4581.680987400003,,,,4580.781102200039,4581.69660549995,4581.69660549995,4581.69660549995,,,,,,,,,,,,,,,down,10.389071499928832,None,None,,,P126,001,2025-02-27_09h57.36.379,posner_endo_new1,2024.2.4,60.024117692451924,2025-02-27 09h57.44.356559 +0000,
cube_l.png,0.1,10,catch,1,1,0,down,6.873351000016555,None,None,,,,,,,,,,,0,1,1,1,4581.69660549995,,,,,,,,,,,,,4581.681406300049,4581.69660549995,4581.69660549995,4581.69660549995,4588.574385000044,,,,4588.585999300005,4588.596282499959,4588.596282499959,4588.639811399975,4588.640166500001,4588.65619540005,4588.65619540005,4588.65619540005,4588.739532100037,4591.653927100007,,,,4590.754117200035,4591.669763599988,4591.669763599988,4591.669763599988,,,,,,,,,,,,,,,down,6.873351000016555,None,None,,,P126,001,2025-02-27_09h57.36.379,posner_endo_new1,2024.2.4,60.024117692451924,2025-02-27 09h57.44.356559 +0000,
cube_l.png,0.1,0.31,invalid,2,2,0,down,7.484785000095144,None,space,0.3608090999769047,None,,,,,,,,,0,2,2,2,4591.669763599988,,,,,,,,,,,,,4591.654203500017,4591.669763599988,4591.669763599988,4591.669763599988,4599.163340399973,,,,4599.175092000049,4599.185254100012,4599.185254100012,4599.2289638000075,4599.2293114999775,4599.245478400029,4599.245478400029,4599.245478400029,4599.328695700038,4599.613103099982,,,,,,,,,,,,,,,,,,,,,,down,7.484785000095144,None,space,0.3608090999769047,None,P126,001,2025-02-27_09h57.36.379,posner_endo_new1,2024.2.4,60.024117692451924,2025-02-27 09h57.44.356559 +0000,
cube_l.png,0.1,0.31,invalid,3,3,0,down,7.574088399996981,None,space,0.33497730002272874,None,,,,,,,,,0,3,3,3,4599.628302500001,,,,,,,,,,,,,4599.613408099976,4599.628302500001,4599.628302500001,4599.628302500001,4607.20514570002,,,,4607.216791399987,4607.226905600051,4607.226905600051,4607.2706906000385,4607.271042100037,4607.287200800027,4607.287200800027,4607.287200800027,4607.370402500033,4607.638099299977,,,,,,,,,,,,,,,,,,,,,,down,7.574088399996981,None,space,0.33497730002272874,None,P126,001,2025-02-27_09h57.36.379,posner_endo_new1,2024.2.4,60.024117692451924,2025-02-27 09h57.44.356559 +0000,
cube_l.png,0.1,-0.31,valid,4,4,0,down,7.692883899901062,None,space,0.3595503999385983,None,,,,,,,,,0,4,4,4,4607.653422200005,,,,,,,,,,,,,4607.6383966000285,4607.653422200005,4607.653422200005,4607.653422200005,4615.363362899981,,,,4615.374952199985,4615.384940100019,4615.384940100019,4615.429073499981,4615.429427499999,4615.445494099986,4615.445494099986,4615.445494099986,4615.528711899999,4615.81326710002,,,,,,,,,,,,,,,,,,,,,,down,7.692883899901062,None,space,0.3595503999385983,None,P126,001,2025-02-27_09h57.36.379,posner_endo_new1,2024.2.4,60.024117692451924,2025-02-27 09h57.44.356559 +0000,
cube_r.png,0.1,-0.31,invalid,5,5,0,down,7.397563600097783,None,space,0.3960900000529364,None,,,,,,,,,0,5,5,5,4615.828511000029,,,,,,,,,,,,,4615.813576600049,4615.828511000029,4615.828511000029,4615.828511000029,4623.238714499981,,,,4623.25043470005,4623.260474600014,4623.260474600014,4623.30431190005,4623.30466429994,4623.320806200034,4623.320806200034,4623.320806200034,4623.403947600047,4623.721730199992,,,,,,,,,,,,,,,,,,,,,,down,7.397563600097783,None,space,0.3960900000529364,None,P126,001,2025-02-27_09h57.36.379,posner_endo_new1,2024.2.4,60.024117692451924,2025-02-27 09h57.44.356559 +0000,
cube_r.png,0.1,0.31,valid,6,6,0,down,8.600686000077985,None,space,0.3377636999357492,None,,,,,,,,,0,6,6,6,4623.737007400021,,,,,,,,,,,,,4623.722029499942,4623.737007400021,4623.737007400021,4623.737007400021,4632.347506099963,,,,4632.370676900027,4632.382898899959,4632.382898899959,4632.411404200015,4632.41180640005,4632.427855300019,4632.427855300019,4632.427855300019,4632.511126099969,4632.7788772999775,,,,,,,,,,,,,,,,,,,,,,down,8.600686000077985,None,space,0.3377636999357492,None,P126,001,2025-02-27_09h57.36.379,posner_endo_new1,2024.2.4,60.024117692451924,2025-02-27 09h57.44.356559 +0000,
cube_r.png,0.1,-0.31,invalid,7,7,0,down,8.455963400076143,None,space,0.36638059990946203,None,,,,,,,,,0,7,7,7,4632.794135499978,,,,,,,,,,,,,4632.779210199951,4632.794135499978,4632.794135499978,4632.794135499978,4641.253736300045,,,,4641.26355839998,4641.2736809999915,4641.2736809999915,4641.3191986000165,4641.31951089995,4641.335817500018,4641.335817500018,4641.335817500018,4641.419035400031,4641.703229899984,,,,,,,,,,,,,,,,,,,,,,down,8.455963400076143,None,space,0.36638059990946203,None,P126,001,2025-02-27_09h57.36.379,posner_endo_new1,2024.2.4,60.024117692451924,2025-02-27 09h57.44.356559 +0000,
cube_l.png,0.1,-0.31,valid,8,8,0,down,7.4512697000755,None,space,0.32762910006567836,None,,,,,,,,,0,8,8,8,4641.718758799951,,,,,,,,,,,,,4641.703487199964,4641.718758799951,4641.718758799951,4641.718758799951,4649.180398999946,,,,4649.203595399973,4649.215705499984,4649.215705499984,4649.244577300036,4649.244966399972,4649.261027300032,4649.261027300032,4649.261027300032,4649.344366000034,4649.595378499944,,,,,,,,,,,,,,,,,,,,,,down,7.4512697000755,None,space,0.32762910006567836,None,P126,001,2025-02-27_09h57.36.379,posner_endo_new1,2024.2.4,60.024117692451924,2025-02-27 09h57.44.356559 +0000,
cube_r.png,0.1,-0.31,invalid,9,9,0,down,6.159722300013527,None,space,0.36982919997535646,None,,,,,,,,,0,9,9,9,4649.610564099974,,,,,,,,,,,,,4649.5956813000375,4649.610564099974,4649.610564099974,4649.610564099974,4655.772320999997,,,,4655.783841999946,4655.793949199957,4655.793949199957,4655.837719199946,4655.8380661000265,4655.854194100015,4655.854194100015,4655.854194100015,4655.937319300021,4656.238397400011,,,,,,,,,,,,,,,,,,,,,,down,6.159722300013527,None,space,0.36982919997535646,None,P126,001,2025-02-27_09h57.36.379,posner_endo_new1,2024.2.4,60.024117692451924,2025-02-27 09h57.44.356559 +0000,
cube_l.png,0.1,0.31,invalid,10,10,0,down,4.452827299945056,None,space,0.33135759993456304,None,,,,,,,,,0,10,10,10,4656.253862699959,,,,,,,,,,,,,4656.238692200044,4656.253862699959,4656.253862699959,4656.253862699959,4660.717059100047,,,,4660.728572499938,4660.73871439998,4660.73871439998,4660.782711299951,4660.783061699942,4660.799136099988,4660.799136099988,4660.799136099988,4660.882464500028,4661.13352230005,,,,,,,,,,,,,,,,,,,,,,down,4.452827299945056,None,space,0.33135759993456304,None,P126,001,2025-02-27_09h57.36.379,posner_endo_new1,2024.2.4,60.024117692451924,2025-02-27 09h57.44.356559 +0000,
cube_r.png,0.1,-0.31,invalid,11,11,0,down,8.429050900042057,None,space,0.35078119998797774,None,,,,,,,,,0,11,11,11,4661.148825800046,,,,,,,,,,,,,4661.133819199982,4661.148825800046,4661.148825800046,4661.148825800046,4669.590930799954,,,,4669.596973599982,4669.6088103000075,4669.6088103000075,4669.657156600035,4669.657386400038,4669.673643499962,4669.673643499962,4669.673643499962,4669.740240899962,4670.040436499985,,,,,,,,,,,,,,,,,,,,,,down,8.429050900042057,None,space,0.35078119998797774,None,P126,001,2025-02-27_09h57.36.379,posner_endo_new1,2024.2.4,60.024117692451924,2025-02-27 09h57.44.356559 +0000,
cube_r.png,0.1,0.31,valid,12,12,0,down,8.93003329995554,None,space,0.4590895000146702,None,,,,,,,,,0,12,12,12,4670.056196999969,,,,,,,,,,,,,4670.040620099986,4670.056196999969,4670.056196999969,4670.056196999969,4679.00011360005,,,,4679.02318150003,4679.0353086999385,4679.0353086999385,4679.063879300025,4679.064305800013,4679.080284100026,4679.080284100026,4679.080284100026,4679.163772500004,4679.547679599957,,,,,,,,,,,,,,,,,,,,,,down,8.93003329995554,None,space,0.4590895000146702,None,P126,001,2025-02-27_09h57.36.379,posner_endo_new1,2024.2.4,60.024117692451924,2025-02-27 09h57.44.356559 +0000,
cube_l.png,0.1,10,catch,13,13,0,down,7.630566200008616,None,None,,,,,,,,,,,0,13,13,13,4679.563399099978,,,,,,,,,,,,,4679.5479079999495,4679.563399099978,4679.563399099978,4679.563399099978,4687.206577299978,,,,4687.215096200001,4687.225327900029,4687.225327900029,4687.272499999963,4687.272776499973,4687.288829499972,4687.288829499972,4687.288829499972,4687.372030599974,4690.286340499995,,,,4689.386667500017,4690.302504900028,4690.302504900028,4690.302504900028,,,,,,,,,,,,,,,down,7.630566200008616,None,None,,,P126,001,2025-02-27_09h57.36.379,posner_endo_new1,2024.2.4,60.024117692451924,2025-02-27 09h57.44.356559 +0000,
cube_r.png,0.1,-0.31,invalid,14,14,0,down,5.835470499936491,None,space,0.3683156000915915,None,,,,,,,,,0,14,14,14,4690.302504900028,,,,,,,,,,,,,4690.286560600041,4690.302504900028,4690.302504900028,4690.302504900028,4696.147280400037,,,,4696.153366700048,4696.165006099967,4696.165006099967,4696.213215600001,4696.213440999971,4696.229837500025,4696.229837500025,4696.229837500025,4696.2958088000305,4696.613495599944,,,,,,,,,,,,,,,,,,,,,,down,5.835470499936491,None,space,0.3683156000915915,None,P126,001,2025-02-27_09h57.36.379,posner_endo_new1,2024.2.4,60.024117692451924,2025-02-27 09h57.44.356559 +0000,
cube_l.png,0.1,-0.31,valid,15,15,0,down,7.804915799992159,None,space,0.3711381000466645,None,,,,,,,,,0,15,15,15,4696.629496700014,,,,,,,,,,,,,4696.613677600049,4696.629496700014,4696.629496700014,4696.629496700014,4704.438464200008,,,,4704.444496199954,4704.456151199993,4704.456151199993,4704.50445420004,4704.50467960001,4704.521236500004,4704.521236500004,4704.521236500004,4704.587513400009,4704.90503689996,,,,,,,,,,,,,,,,,,,,,,down,7.804915799992159,None,space,0.3711381000466645,None,P126,001,2025-02-27_09h57.36.379,posner_endo_new1,2024.2.4,60.024117692451924,2025-02-27 09h57.44.356559 +0000,
cube_r.png,0.1,10,catch,16,16,0,down,13.761943300021812,None,None,,,,,,,,,,,0,16,16,16,4704.920479999972,,,,,,,,,,,,,4704.905212500016,4704.920479999972,4704.920479999972,4704.920479999972,4718.692678999971,,,,4718.715994199971,4718.728380799992,4718.728380799992,4718.757007900043,4718.757345000049,4718.773331000004,4718.773331000004,4718.773331000004,4718.856603299966,4721.771045799949,,,,4720.871256600018,4721.786888399976,4721.786888399976,4721.786888399976,,,,,,,,,,,,,,,down,13.761943300021812,None,None,,,P126,001,2025-02-27_09h57.36.379,posner_endo_new1,2024.2.4,60.024117692451924,2025-02-27 09h57.44.356559 +0000,
cube_r.png,0.1,10,catch,17,17,0,down,7.695737699978054,None,None,,,,,,,,,,,0,17,17,17,4721.786888399976,,,,,,,,,,,,,4721.77130969998,4721.786888399976,4721.786888399976,4721.786888399976,4729.496751899947,,,,4729.507810899988,4729.518024699995,4729.518024699995,4729.562448199955,4729.562789399992,4729.578950800002,4729.578950800002,4729.578950800002,4729.662182600005,4732.576526100049,,,,4731.676848200033,4732.59252299997,4732.59252299997,4732.59252299997,,,,,,,,,,,,,,,down,7.695737699978054,None,None,,,P126,001,2025-02-27_09h57.36.379,posner_endo_new1,2024.2.4,60.024117692451924,2025-02-27 09h57.44.356559 +0000,
cube_l.png,0.1,0.31,invalid,18,18,0,down,7.8015885999193415,None,space,0.3912407000316307,None,,,,,,,,,0,18,18,18,4732.59252299997,,,,,,,,,,,,,4732.576803499949,4732.59252299997,4732.59252299997,4732.59252299997,4740.402493400034,,,,4740.413590000011,4740.423735699966,4740.423735699966,4740.46787719999,4740.46821750002,4740.484554999974,4740.484554999974,4740.484554999974,4740.567737599951,4740.885164899984,,,,,,,,,,,,,,,,,,,,,,down,7.8015885999193415,None,space,0.3912407000316307,None,P126,001,2025-02-27_09h57.36.379,posner_endo_new1,2024.2.4,60.024117692451924,2025-02-27 09h57.44.356559 +0000,
cube_l.png,0.1,10,catch,19,19,0,down,8.317181600024924,None,None,,,,,,,,,,,0,19,19,19,4740.900729399989,,,,,,,,,,,,,4740.885453899973,4740.900729399989,4740.900729399989,4740.900729399989,4749.226799999946,,,,4749.237167399959,4749.24654870003,4749.24654870003,4749.291770600015,4749.292004100047,4749.309449999942,4749.309449999942,4749.309449999942,4749.392066000029,4752.306067900034,,,,4751.406719699968,4752.322564500035,4752.322564500035,4752.322564500035,,,,,,,,,,,,,,,down,8.317181600024924,None,None,,,P126,001,2025-02-27_09h57.36.379,posner_endo_new1,2024.2.4,60.024117692451924,2025-02-27 09h57.44.356559 +0000,
cube_l.png,0.1,0.31,invalid,20,20,0,down,7.231876300065778,None,space,0.3740551999071613,None,,,,,,,,,0,20,20,20,4752.322564500035,,,,,,,,,,,,,4752.30623300001,4752.322564500035,4752.322564500035,4752.322564500035,4759.565873399959,,,,4759.572398200049,4759.584044200019,4759.584044200019,4759.631668400019,4759.6318920999765,4759.648328899988,4759.648328899988,4759.648328899988,4759.714706699946,4760.032109000022,,,,,,,,,,,,,,,,,,,,,,down,7.231876300065778,None,space,0.3740551999071613,None,P126,001,2025-02-27_09h57.36.379,posner_endo_new1,2024.2.4,60.024117692451924,2025-02-27 09h57.44.356559 +0000,
cube_l.png,0.1,-0.31,valid,21,21,0,down,9.970437599928118,None,space,0.3496632999740541,None,,,,,,,,,0,21,21,21,4760.048036299995,,,,,,,,,,,,,4760.032290700008,4760.048036299995,4760.048036299995,4760.048036299995,4770.021402099985,,,,4770.027416700032,4770.038915700046,4770.038915700046,4770.087812899961,4770.0880389999365,4770.104267099989,4770.104267099989,4770.104267099989,4770.170837400015,4770.454748000018,,,,,,,,,,,,,,,,,,,,,,down,9.970437599928118,None,space,0.3496632999740541,None,P126,001,2025-02-27_09h57.36.379,posner_endo_new1,2024.2.4,60.024117692451924,2025-02-27 09h57.44.356559 +0000,
cube_r.png,0.1,0.31,valid,22,22,0,down,14.379895100020804,None,space,0.33846510003786534,None,,,,,,,,,0,22,22,22,4770.470598399988,,,,,,,,,,,,,4770.454928299994,4770.470598399988,4770.470598399988,4770.470598399988,4784.856860199943,,,,4784.863013199996,4784.874825599953,4784.874825599953,4784.922555799945,4784.922782000038,4784.939232700039,4784.939232700039,4784.939232700039,4785.022368700011,4785.289533299976,,,,,,,,,,,,,,,,,,,,,,down,14.379895100020804,None,space,0.33846510003786534,None,P126,001,2025-02-27_09h57.36.379,posner_endo_new1,2024.2.4,60.024117692451924,2025-02-27 09h57.44.356559 +0000,
cube_r.png,0.1,-0.31,invalid,23,23,0,down,11.801050400012173,None,space,0.331392899970524,None,,,,,,,,,0,23,23,23,4785.305539899971,,,,,,,,,,,,,4785.289711100049,4785.305539899971,4785.305539899971,4785.305539899971,4797.110762499971,,,,4797.116825700039,4797.128502500011,4797.128502500011,4797.1768550999695,4797.177080399939,4797.193428499973,4797.193428499973,4797.193428499973,4797.276519499952,4797.527015800006,,,,,,,,,,,,,,,,,,,,,,down,11.801050400012173,None,space,0.331392899970524,None,P126,001,2025-02-27_09h57.36.379,posner_endo_new1,2024.2.4,60.024117692451924,2025-02-27 09h57.44.356559 +0000,
cube_r.png,0.1,0.31,valid,24,24,0,down,9.643245600047521,None,space,0.31648100004531443,None,,,,,,,,,0,24,24,24,4797.542995500029,,,,,,,,,,,,,4797.527196699986,4797.542995500029,4797.542995500029,4797.542995500029,4807.200603000005,,,,4807.206764000002,4807.21851409995,4807.21851409995,4807.266224600025,4807.2664506,4807.282938200049,4807.282938200049,4807.282938200049,4807.366264799959,4807.600146000041,,,,,,,,,,,,,,,,,,,,,,down,9.643245600047521,None,space,0.31648100004531443,None,P126,001,2025-02-27_09h57.36.379,posner_endo_new1,2024.2.4,60.024117692451924,2025-02-27 09h57.44.356559 +0000,
cube_r.png,0.1,-0.31,invalid,25,25,0,down,11.714468099991791,None,space,0.3616145000560209,None,,,,,,,,,0,25,25,25,4807.61602029996,,,,,,,,,,,,,4807.60032680002,4807.61602029996,4807.61602029996,4807.61602029996,4819.339117800002,,,,4819.356521000038,4819.367563799955,4819.367563799955,4819.404019700014,4819.404580499977,4819.420446299948,4819.420446299948,4819.420446299948,4819.503695999971,4819.788023900008,,,,,,,,,,,,,,,,,,,,,,down,11.714468099991791,None,space,0.3616145000560209,None,P126,001,2025-02-27_09h57.36.379,posner_endo_new1,2024.2.4,60.024117692451924,2025-02-27 09h57.44.356559 +0000,
cube_l.png,0.1,-0.31,valid,26,26,0,down,10.910911399987526,None,space,0.35987149993889034,None,,,,,,,,,0,26,26,26,4819.80347449996,,,,,,,,,,,,,4819.7883202999365,4819.80347449996,4819.80347449996,4819.80347449996,4830.726667299983,,,,4830.738224799978,4830.748470799997,4830.748470799997,4830.792455899995,4830.7928028999595,4830.809240599978,4830.809240599978,4830.809240599978,4830.891984099988,4831.176374600036,,,,,,,,,,,,,,,,,,,,,,down,10.910911399987526,None,space,0.35987149993889034,None,P126,001,2025-02-27_09h57.36.379,posner_endo_new1,2024.2.4,60.024117692451924,2025-02-27 09h57.44.356559 +0000,
cube_r.png,0.1,0.31,valid,27,27,0,down,12.450529400026426,None,space,0.562868700013496,None,,,,,,,,,0,27,27,27,4831.191809799988,,,,,,,,,,,,,4831.17668309994,4831.191809799988,4831.191809799988,4831.191809799988,4843.646918399958,,,,4843.658519400051,4843.668606100022,4843.668606100022,4843.712376100011,4843.712722699973,4843.729078199947,4843.729078199947,4843.729078199947,4843.81248870003,4844.296250500018,,,,,,,,,,,,,,,,,,,,,,down,12.450529400026426,None,space,0.562868700013496,None,P126,001,2025-02-27_09h57.36.379,posner_endo_new1,2024.2.4,60.024117692451924,2025-02-27 09h57.44.356559 +0000,
cube_r.png,0.1,10,catch,28,28,0,down,10.75408059998881,None,None,,,,,,,,,,,0,28,28,28,4844.312030300032,,,,,,,,,,,,,4844.296547799953,4844.312030300032,4844.312030300032,4844.312030300032,4855.068300700048,,,,4855.075240000035,4855.087048499961,4855.087048499961,4855.134327900014,4855.134567099973,4855.150712999981,4855.150712999981,4855.150712999981,4855.217372799991,4858.14825269999,,,,4857.2319110999815,4858.164243499981,4858.164243499981,4858.164243499981,,,,,,,,,,,,,,,down,10.75408059998881,None,None,,,P126,001,2025-02-27_09h57.36.379,posner_endo_new1,2024.2.4,60.024117692451924,2025-02-27 09h57.44.356559 +0000,
cube_r.png,0.1,0.31,valid,29,29,0,down,9.342607800033875,None,space,0.362143800011836,None,,,,,,,,,0,29,29,29,4858.164243499981,,,,,,,,,,,,,4858.148429899942,4858.164243499981,4858.164243499981,4858.164243499981,4867.522077600006,,,,4867.529165399959,4867.540935599944,4867.540935599944,4867.588106699986,4867.588345799944,4867.604259500047,4867.604259500047,4867.604259500047,4867.671352399979,4867.971777800005,,,,,,,,,,,,,,,,,,,,,,down,9.342607800033875,None,space,0.362143800011836,None,P126,001,2025-02-27_09h57.36.379,posner_endo_new1,2024.2.4,60.024117692451924,2025-02-27 09h57.44.356559 +0000,
cube_r.png,0.1,0.31,valid,30,30,0,down,11.71119180007372,None,space,0.3549133000196889,None,,,,,,,,,0,30,30,30,4867.987495100009,,,,,,,,,,,,,4867.9719759,4867.987495100009,4867.987495100009,4867.987495100009,4879.709812600049,,,,4879.716771499952,4879.728708300041,4879.728708300041,4879.77569020004,4879.775914400001,4879.792338500032,4879.792338500032,4879.792338500032,4879.858293700032,4880.158902199939,,,,,,,,,,,,,,,,,,,,,,down,11.71119180007372,None,space,0.3549133000196889,None,P126,001,2025-02-27_09h57.36.379,posner_endo_new1,2024.2.4,60.024117692451924,2025-02-27 09h57.44.356559 +0000,
cube_l.png,0.1,-0.31,valid,31,31,0,down,11.067246000049636,None,space,0.3780499000567943,None,,,,,,,,,0,31,31,31,4880.175090300036,,,,,,,,,,,,,4880.159084500046,4880.175090300036,4880.175090300036,4880.175090300036,4891.249803000013,,,,4891.273083599983,4891.285267099971,4891.285267099971,4891.31366850005,4891.314078800031,4891.330125899985,4891.330125899985,4891.330125899985,4891.41327619995,4891.714476399939,,,,,,,,,,,,,,,,,,,,,,down,11.067246000049636,None,space,0.3780499000567943,None,P126,001,2025-02-27_09h57.36.379,posner_endo_new1,2024.2.4,60.024117692451924,2025-02-27 09h57.44.356559 +0000,
cube_r.png,0.1,0.31,valid,32,32,0,down,10.648363700020127,None,space,0.3187120999209583,None,,,,,,,,,0,32,32,32,4891.729603199987,,,,,,,,,,,,,4891.714811800048,4891.729603199987,4891.729603199987,4891.729603199987,4902.386800399981,,,,4902.395367200021,4902.405386599945,4902.405386599945,4902.452595700044,4902.452880500001,4902.468940599938,4902.468940599938,4902.468940599938,4902.552154100034,4902.802953799954,,,,,,,,,,,,,,,,,,,,,,down,10.648363700020127,None,space,0.3187120999209583,None,P126,001,2025-02-27_09h57.36.379,posner_endo_new1,2024.2.4,60.024117692451924,2025-02-27 09h57.44.356559 +0000,
cube_r.png,0.1,-0.31,invalid,33,33,0,down,13.367878200020641,None,space,0.35283690004143864,None,,,,,,,,,0,33,33,33,4902.818620900041,,,,,,,,,,,,,4902.80319320003,4902.818620900041,4902.818620900041,4902.818620900041,4916.189313799958,,,,4916.197758599999,4916.208024199936,4916.208024199936,4916.255092600011,4916.255367900012,4916.271553399973,4916.271553399973,4916.271553399973,4916.35485220002,4916.6388111000415,,,,,,,,,,,,,,,,,,,,,,down,13.367878200020641,None,space,0.35283690004143864,None,P126,001,2025-02-27_09h57.36.379,posner_endo_new1,2024.2.4,60.024117692451924,2025-02-27 09h57.44.356559 +0000,
cube_r.png,0.1,10,catch,34,34,0,down,15.339510599966161,None,None,,,,,,,,,,,0,34,34,34,4916.654478700017,,,,,,,,,,,,,4916.639041000046,4916.654478700017,4916.654478700017,4916.654478700017,4932.006532900035,,,,4932.015165599994,4932.025290500023,4932.025290500023,4932.072246799944,4932.072749400046,4932.0886702999705,4932.0886702999705,4932.0886702999705,4932.171895400039,4935.086451399955,,,,4934.186621399946,4935.102264899993,4935.102264899993,4935.102264899993,,,,,,,,,,,,,,,down,15.339510599966161,None,None,,,P126,001,2025-02-27_09h57.36.379,posner_endo_new1,2024.2.4,60.024117692451924,2025-02-27 09h57.44.356559 +0000,
cube_r.png,0.1,0.31,valid,35,35,0,down,12.108482400071807,None,space,0.4324820999754593,None,,,,,,,,,0,35,35,35,4935.102264899993,,,,,,,,,,,,,4935.086734700017,4935.102264899993,4935.102264899993,4935.102264899993,4947.224353699945,,,,4947.2307902999455,4947.242677600007,4947.242677600007,4947.290168200037,4947.290393400006,4947.306623499957,4947.306623499957,4947.306623499957,4947.389878700022,4947.740240699961,,,,,,,,,,,,,,,,,,,,,,down,12.108482400071807,None,space,0.4324820999754593,None,P126,001,2025-02-27_09h57.36.379,posner_endo_new1,2024.2.4,60.024117692451924,2025-02-27 09h57.44.356559 +0000,
cube_r.png,0.1,-0.31,invalid,36,36,0,down,9.077960500027984,None,space,0.3918627999955788,None,,,,,,,,,0,36,36,36,4947.756156999967,,,,,,,,,,,,,4947.740421899944,4947.756156999967,4947.756156999967,4947.756156999967,4956.84765260003,,,,4956.85384440003,4956.86570980004,4956.86570980004,4956.913390700007,4956.913619600004,4956.929990999983,4956.929990999983,4956.929990999983,4956.996619999991,4957.330538999988,,,,,,,,,,,,,,,,,,,,,,down,9.077960500027984,None,space,0.3918627999955788,None,P126,001,2025-02-27_09h57.36.379,posner_endo_new1,2024.2.4,60.024117692451924,2025-02-27 09h57.44.356559 +0000,
cube_l.png,0.1,0.31,invalid,37,37,0,down,12.240229499991983,None,space,0.41181439999490976,None,,,,,,,,,0,37,37,37,4957.34646130004,,,,,,,,,,,,,4957.330723199993,4957.34646130004,4957.34646130004,4957.34646130004,4969.603016800014,,,,4969.626054099994,4969.637693800032,4969.637693800032,4969.666945699952,4969.667345499969,4969.683460799977,4969.683460799977,4969.683460799977,4969.7665705999825,4970.100894300034,,,,,,,,,,,,,,,,,,,,,,down,12.240229499991983,None,space,0.41181439999490976,None,P126,001,2025-02-27_09h57.36.379,posner_endo_new1,2024.2.4,60.024117692451924,2025-02-27 09h57.44.356559 +0000,
cube_l.png,0.1,0.31,invalid,38,38,0,down,11.88678910001181,None,space,0.4023145000683144,None,,,,,,,,,0,38,38,38,4970.1162019999465,,,,,,,,,,,,,4970.101232000045,4970.1162019999465,4970.1162019999465,4970.1162019999465,4982.005430700025,,,,4982.018194900011,4982.028217699961,4982.028217699961,4982.071225699969,4982.071491200011,4982.087708499981,4982.087708499981,4982.087708499981,4982.17080740002,4982.504874199978,,,,,,,,,,,,,,,,,,,,,,down,11.88678910001181,None,space,0.4023145000683144,None,P126,001,2025-02-27_09h57.36.379,posner_endo_new1,2024.2.4,60.024117692451924,2025-02-27 09h57.44.356559 +0000,
cube_r.png,0.1,0.31,valid,39,39,0,down,10.106064800056629,None,space,0.3990097000496462,None,,,,,,,,,0,39,39,39,4982.520701700007,,,,,,,,,,,,,4982.5050899999915,4982.520701700007,4982.520701700007,4982.520701700007,4992.627848700038,,,,4992.635794600006,4992.646503599943,4992.646503599943,4992.69369590003,4992.693964399979,4992.710114700021,4992.710114700021,4992.710114700021,4992.793458499946,4993.110899299965,,,,,,,,,,,,,,,,,,,,,,down,10.106064800056629,None,space,0.3990097000496462,None,P126,001,2025-02-27_09h57.36.379,posner_endo_new1,2024.2.4,60.024117692451924,2025-02-27 09h57.44.356559 +0000,
cube_l.png,0.1,0.31,invalid,40,40,0,down,9.24413160001859,None,space,0.4447948000160977,None,,,,,,,,,0,40,40,40,4993.126388899982,,,,,,,,,,,,,4993.111117799999,4993.126388899982,4993.126388899982,4993.126388899982,5002.384398299968,,,,5002.392280800035,5002.403235999984,5002.403235999984,5002.450346500031,5002.450613799971,5002.466840500012,5002.466840500012,5002.466840500012,5002.550162800006,5002.917328399955,,,,,,,,,,,,,,,,,,,,,,down,9.24413160001859,None,space,0.4447948000160977,None,P126,001,2025-02-27_09h57.36.379,posner_endo_new1,2024.2.4,60.024117692451924,2025-02-27 09h57.44.356559 +0000,
cube_l.png,0.1,10,catch,41,41,0,down,12.101209999993443,None,None,,,,,,,,,,,0,41,41,41,5002.933006100007,,,,,,,,,,,,,5002.917543199961,5002.933006100007,5002.933006100007,5002.933006100007,5015.038318200037,,,,5015.046209499938,5015.056941600051,5015.056941600051,5015.10411039996,5015.104375700001,5015.120545599959,5015.120545599959,5015.120545599959,5015.203903199988,5018.118139100028,,,,5017.21860110003,5018.134276899975,5018.134276899975,5018.134276899975,,,,,,,,,,,,,,,down,12.101209999993443,None,None,,,P126,001,2025-02-27_09h57.36.379,posner_endo_new1,2024.2.4,60.024117692451924,2025-02-27 09h57.44.356559 +0000,
cube_l.png,0.1,-0.31,valid,42,42,0,down,11.172126200050116,None,space,0.4199247000506148,None,,,,,,,,,0,42,42,42,5018.134276899975,,,,,,,,,,,,,5018.11833940004,5018.134276899975,5018.134276899975,5018.134276899975,5029.307342599961,,,,5029.315287700039,5029.325699800043,5029.325699800043,5029.372821699944,5029.373093600036,5029.389352699975,5029.389352699975,5029.389352699975,5029.472630199976,5029.823321899981,,,,,,,,,,,,,,,,,,,,,,down,11.172126200050116,None,space,0.4199247000506148,None,P126,001,2025-02-27_09h57.36.379,posner_endo_new1,2024.2.4,60.024117692451924,2025-02-27 09h57.44.356559 +0000,
cube_l.png,0.1,10,catch,43,43,0,down,13.459304300020449,None,None,,,,,,,,,,,0,43,43,43,5029.839115299983,,,,,,,,,,,,,5029.823534899973,5029.839115299983,5029.839115299983,5029.839115299983,5043.309335500002,,,,5043.317277199938,5043.3281439000275,5043.3281439000275,5043.375386300031,5043.375652999966,5043.391747899936,5043.391747899936,5043.391747899936,5043.4749944000505,5046.389229499968,,,,5045.489670600044,5046.405355199939,5046.405355199939,5046.405355199939,,,,,,,,,,,,,,,down,13.459304300020449,None,None,,,P126,001,2025-02-27_09h57.36.379,posner_endo_new1,2024.2.4,60.024117692451924,2025-02-27 09h57.44.356559 +0000,
cube_l.png,0.1,0.31,invalid,44,44,0,down,10.660982500063255,None,space,0.3761594999814406,None,,,,,,,,,0,44,44,44,5046.405355199939,,,,,,,,,,,,,5046.389435200021,5046.405355199939,5046.405355199939,5046.405355199939,5057.078598299995,,,,5057.086554200039,5057.097303899936,5057.097303899936,5057.14445979998,5057.1447223,5057.161132800044,5057.161132800044,5057.161132800044,5057.22755890002,5057.544887299999,,,,,,,,,,,,,,,,,,,,,,down,10.660982500063255,None,space,0.3761594999814406,None,P126,001,2025-02-27_09h57.36.379,posner_endo_new1,2024.2.4,60.024117692451924,2025-02-27 09h57.44.356559 +0000,
cube_l.png,0.1,0.31,invalid,45,45,0,down,8.401932600070722,None,space,0.38433249993249774,None,,,,,,,,,0,45,45,45,5057.560482300003,,,,,,,,,,,,,5057.545101600001,5057.560482300003,5057.560482300003,5057.560482300003,5065.969667800004,,,,5065.977687699953,5065.988332299981,5065.988332299981,5066.03545309999,5066.035721899942,5066.051915599965,5066.051915599965,5066.051915599965,5066.135142800049,5066.452431199956,,,,,,,,,,,,,,,,,,,,,,down,8.401932600070722,None,space,0.38433249993249774,None,P126,001,2025-02-27_09h57.36.379,posner_endo_new1,2024.2.4,60.024117692451924,2025-02-27 09h57.44.356559 +0000,
cube_r.png,0.1,0.31,valid,46,46,0,down,11.327060499927029,None,space,0.3593745999969542,None,,,,,,,,,0,46,46,46,5066.468241299968,,,,,,,,,,,,,5066.452647799975,5066.468241299968,5066.468241299968,5066.468241299968,5077.8091865000315,,,,5077.8293372000335,5077.839837100008,5077.839837100008,5077.873089500004,5077.873523200047,5077.88953159994,5077.88953159994,5077.88953159994,5077.972781299963,5078.257424299954,,,,,,,,,,,,,,,,,,,,,,down,11.327060499927029,None,space,0.3593745999969542,None,P126,001,2025-02-27_09h57.36.379,posner_endo_new1,2024.2.4,60.024117692451924,2025-02-27 09h57.44.356559 +0000,
cube_l.png,0.1,-0.31,valid,47,47,0,down,15.858014199999161,None,space,0.38349190005101264,None,,,,,,,,,0,47,47,47,5078.272473099991,,,,,,,,,,,,,5078.257806099951,5078.272473099991,5078.272473099991,5078.272473099991,5094.140884299995,,,,5094.1507425999735,5094.16057139996,5094.16057139996,5094.206599100027,5094.206907600048,5094.22314529994,5094.22314529994,5094.22314529994,5094.306294300011,5094.623651599977,,,,,,,,,,,,,,,,,,,,,,down,15.858014199999161,None,space,0.38349190005101264,None,P126,001,2025-02-27_09h57.36.379,posner_endo_new1,2024.2.4,60.024117692451924,2025-02-27 09h57.44.356559 +0000,
cube_r.png,0.1,-0.31,invalid,48,48,0,down,26.57960679999087,None,space,0.3477768999291584,None,,,,,,,,,0,48,48,48,5094.639389500022,,,,,,,,,,,,,5094.623917600024,5094.639389500022,5094.639389500022,5094.639389500022,5121.229486200027,,,,5121.235651499941,5121.247180999955,5121.247180999955,5121.295675399946,5121.295907699969,5121.311899899971,5121.311899899971,5121.311899899971,5121.395483299973,5121.661987500032,,,,,,,,,,,,,,,,,,,,,,down,26.57960679999087,None,space,0.3477768999291584,None,P126,001,2025-02-27_09h57.36.379,posner_endo_new1,2024.2.4,60.024117692451924,2025-02-27 09h57.44.356559 +0000,
cube_r.png,0.1,10,catch,49,49,0,down,10.773715700022876,None,None,,,,,,,,,,,0,49,49,49,5121.6782290999545,,,,,,,,,,,,,5121.662166599999,5121.6782290999545,5121.6782290999545,5121.6782290999545,5132.468447400024,,,,5132.478289499995,5132.488055499969,5132.488055499969,5132.534187900019,5132.534494700027,5132.55064599996,5132.55064599996,5132.55064599996,5132.633841000032,5135.54822300002,,,,5134.648420599988,5135.564203899936,5135.564203899936,5135.564203899936,,,,,,,,,,,,,,,down,10.773715700022876,None,None,,,P126,001,2025-02-27_09h57.36.379,posner_endo_new1,2024.2.4,60.024117692451924,2025-02-27 09h57.44.356559 +0000,
cube_l.png,0.1,-0.31,valid,50,50,0,down,12.47208530001808,None,space,0.37521420000121,None,,,,,,,,,0,50,50,50,5135.564203899936,,,,,,,,,,,,,5135.548464099993,5135.564203899936,5135.564203899936,5135.564203899936,5148.052456800011,,,,5148.062351300032,5148.072344499989,5148.072344499989,5148.118204399943,5148.11851239996,5148.134817400016,5148.134817400016,5148.134817400016,5148.21792309999,5148.518722899957,,,,,,,,,,,,,,,,,,,,,,down,12.47208530001808,None,space,0.37521420000121,None,P126,001,2025-02-27_09h57.36.379,posner_endo_new1,2024.2.4,60.024117692451924,2025-02-27 09h57.44.356559 +0000,
cube_l.png,0.1,-0.31,valid,51,51,0,down,15.21299769997131,None,space,0.3758590000215918,None,,,,,,,,,0,51,51,51,5148.534253599937,,,,,,,,,,,,,5148.51899250003,5148.534253599937,5148.534253599937,5148.534253599937,5163.75461850001,,,,5163.77650050004,5163.786617200007,5163.786617200007,5163.81860280002,5163.818997800001,5163.835110699991,5163.835110699991,5163.835110699991,5163.918238700018,5164.2193956000265,,,,,,,,,,,,,,,,,,,,,,down,15.21299769997131,None,space,0.3758590000215918,None,P126,001,2025-02-27_09h57.36.379,posner_endo_new1,2024.2.4,60.024117692451924,2025-02-27 09h57.44.356559 +0000,
cube_r.png,0.1,-0.31,invalid,52,52,0,down,16.616383200045675,None,space,0.3754571999888867,None,,,,,,,,,0,52,52,52,5164.234541299986,,,,,,,,,,,,,5164.219729100005,5164.234541299986,5164.234541299986,5164.234541299986,5180.8523870999925,,,,5180.865154900006,5180.875206399942,5180.875206399942,5180.917876399937,5180.918140499969,5180.934579699999,5180.934579699999,5180.934579699999,5181.017772899941,5181.3184147999855,,,,,,,,,,,,,,,,,,,,,,down,16.616383200045675,None,space,0.3754571999888867,None,P126,001,2025-02-27_09h57.36.379,posner_endo_new1,2024.2.4,60.024117692451924,2025-02-27 09h57.44.356559 +0000,
cube_l.png,0.1,-0.31,valid,53,53,0,down,12.908991500036791,None,space,0.3790203999960795,None,,,,,,,,,0,53,53,53,5181.334245800041,,,,,,,,,,,,,5181.318633800023,5181.334245800041,5181.334245800041,5181.334245800041,5194.255195699981,,,,5194.263079499942,5194.2738962,5194.2738962,5194.32097120001,5194.321235600044,5194.337567299954,5194.337567299954,5194.337567299954,5194.420815099962,5194.721657300019,,,,,,,,,,,,,,,,,,,,,,down,12.908991500036791,None,space,0.3790203999960795,None,P126,001,2025-02-27_09h57.36.379,posner_endo_new1,2024.2.4,60.024117692451924,2025-02-27 09h57.44.356559 +0000,
cube_r.png,0.1,10,catch,54,54,0,down,26.482056599925272,None,None,,,,,,,,,,,0,54,54,54,5194.737351199961,,,,,,,,,,,,,5194.721871400019,5194.737351199961,5194.737351199961,5194.737351199961,5221.227849800023,,,,5221.239472400048,5221.249633300002,5221.249633300002,5221.293408100028,5221.293768099975,5221.310164500028,5221.310164500028,5221.310164500028,5221.393175699981,5224.307624000008,,,,5223.407756299945,5224.323536099982,5224.323536099982,5224.323536099982,,,,,,,,,,,,,,,down,26.482056599925272,None,None,,,P126,001,2025-02-27_09h57.36.379,posner_endo_new1,2024.2.4,60.024117692451924,2025-02-27 09h57.44.356559 +0000,
cube_l.png,0.1,0.31,invalid,55,55,0,down,10.215932100079954,None,space,0.4305943000363186,None,,,,,,,,,0,55,55,55,5224.323536099982,,,,,,,,,,,,,5224.3079089999665,5224.323536099982,5224.323536099982,5224.323536099982,5234.547603899962,,,,5234.559121700004,5234.569421499968,5234.569421499968,5234.613151800004,5234.613506700029,5234.629603800015,5234.629603800015,5234.629603800015,5234.712834700011,5235.063707399997,,,,,,,,,,,,,,,,,,,,,,down,10.215932100079954,None,space,0.4305943000363186,None,P126,001,2025-02-27_09h57.36.379,posner_endo_new1,2024.2.4,60.024117692451924,2025-02-27 09h57.44.356559 +0000,
cube_l.png,0.1,-0.31,valid,56,56,0,down,11.092047000071034,None,space,0.38516549998894334,None,,,,,,,,,0,56,56,56,5235.079140400048,,,,,,,,,,,,,5235.0640054999385,5235.079140400048,5235.079140400048,5235.079140400048,5246.185655500041,,,,5246.197332700016,5246.207464999985,5246.207464999985,5246.251179100014,5246.251526899985,5246.26773219998,5246.26773219998,5246.26773219998,5246.350953800022,5246.6685261999955,,,,,,,,,,,,,,,,,,,,,,down,11.092047000071034,None,space,0.38516549998894334,None,P126,001,2025-02-27_09h57.36.379,posner_endo_new1,2024.2.4,60.024117692451924,2025-02-27 09h57.44.356559 +0000,
cube_r.png,0.1,0.31,valid,57,57,0,down,11.079235299956053,None,space,0.4181156000122428,None,,,,,,,,,0,57,57,57,5246.684073499986,,,,,,,,,,,,,5246.66882599995,5246.684073499986,5246.684073499986,5246.684073499986,5257.773768099956,,,,5257.785277899937,5257.795434199972,5257.795434199972,5257.839322700049,5257.839670200017,5257.855896199937,5257.855896199937,5257.855896199937,5257.939070299966,5258.289981400012,,,,,,,,,,,,,,,,,,,,,,down,11.079235299956053,None,space,0.4181156000122428,None,P126,001,2025-02-27_09h57.36.379,posner_endo_new1,2024.2.4,60.024117692451924,2025-02-27 09h57.44.356559 +0000,
cube_r.png,0.1,-0.31,invalid,58,58,0,down,10.657380499993451,None,space,0.3743993000825867,None,,,,,,,,,0,58,58,58,5258.305419099983,,,,,,,,,,,,,5258.290285499999,5258.305419099983,5258.305419099983,5258.305419099983,5268.97892569995,,,,5268.99054639996,5269.000593499979,5269.000593499979,5269.044684499968,5269.045060000033,5269.061140800011,5269.061140800011,5269.061140800011,5269.1443576000165,5269.445245799958,,,,,,,,,,,,,,,,,,,,,,down,10.657380499993451,None,space,0.3743993000825867,None,P126,001,2025-02-27_09h57.36.379,posner_endo_new1,2024.2.4,60.024117692451924,2025-02-27 09h57.44.356559 +0000,
cube_l.png,0.1,0.31,invalid,59,59,0,down,9.302174599957652,None,space,0.3796710999449715,None,,,,,,,,,0,59,59,59,5269.460763099953,,,,,,,,,,,,,5269.445549999946,5269.460763099953,5269.460763099953,5269.460763099953,5278.769048699993,,,,5278.780569299939,5278.790828999947,5278.790828999947,5278.834588299971,5278.834942799993,5278.85102479998,5278.85102479998,5278.85102479998,5278.934363299981,5279.23537010001,,,,,,,,,,,,,,,,,,,,,,down,9.302174599957652,None,space,0.3796710999449715,None,P126,001,2025-02-27_09h57.36.379,posner_endo_new1,2024.2.4,60.024117692451924,2025-02-27 09h57.44.356559 +0000,
