cue_img,cue_soa,target_y,trial,thisN,thisTrialN,thisRepN,key_control2.keys,key_control2.rt,key_control2.duration,key_resp.keys,key_resp.rt,key_resp.duration,practice.thisRepN,practice.thisTrialN,practice.thisN,practice.thisIndex,block1.thisRepN,block1.thisTrialN,block1.thisN,block1.thisIndex,block2.thisRepN,block2.thisTrialN,block2.thisN,block2.thisIndex,thisRow.t,notes,instructions.started,instructions_txt.started,key_control.started,instructions.stopped,key_control.keys,key_control.rt,key_control.duration,ready.started,ready_txt.started,ready_txt.stopped,ready.stopped,fix.started,fixation.started,key_control2.started,fixation_cross.started,fix.stopped,practice.key_control2.keys,practice.key_control2.rt,practice.key_control2.duration,cue.started,cube.started,fixation_cross_cue.started,cue.stopped,target.started,fixation_target.started,fixation_cross_target.started,key_resp.started,star.started,target.stopped,practice.key_resp.keys,practice.key_resp.rt,practice.key_resp.duration,star.stopped,fixation_target.stopped,fixation_cross_target.stopped,key_resp.stopped,block1.key_control2.keys,block1.key_control2.rt,block1.key_control2.duration,block1.key_resp.keys,block1.key_resp.rt,block1.key_resp.duration,break_2.started,text.started,key_control3.started,text.stopped,break_2.stopped,key_control3.keys,key_control3.rt,key_control3.duration,block2.key_control2.keys,block2.key_control2.rt,block2.key_control2.duration,block2.key_resp.keys,block2.key_resp.rt,block2.key_resp.duration,participant,session,date,expName,psychopyVersion,frameRate,expStart,
,,,,,,,,,,,,,,,,,,,,,,,,,,,0.007445299997925758,0.021741900010965765,0.021741900010965765,4022.646867699921,up,4022.609913400025,None,,,,,,,,,,,,,,,,,,,,,,,,,,,,,,,,,,,,,,,,,,,,,,,,,,P127,001,2025-02-27_12h55.43.994,posner_endo_new1,2024.2.4,60.140427904251105,2025-02-27 12h55.50.727125 +0000,
,,,,,,,,,,,,,,,,,,,,,,,,,,,,,,,,,,4022.6469240000006,4022.6630088000093,4025.662960799993,4025.643508399953,,,,,,,,,,,,,,,,,,,,,,,,,,,,,,,,,,,,,,,,,,,,,,P127,001,2025-02-27_12h55.43.994,posner_endo_new1,2024.2.4,60.140427904251105,2025-02-27 12h55.50.727125 +0000,
cube_l.png,0.1,-0.31,valid,0,0,0,down,9.937245700042695,None,space,0.322338999947533,None,0,0,0,0,,,,,,,,,4025.662960799993,,,,,,,,,,,,,4025.650742399972,4025.662960799993,4025.662960799993,4025.662960799993,4035.6173144999193,down,9.937245700042695,None,4035.64041360002,4035.6521104000276,4035.6521104000276,4035.682414199924,4035.682662999956,4035.6988670999417,4035.6988670999417,4035.6988670999417,4035.7828926999355,4036.032846799935,space,0.322338999947533,None,,,,,,,,,,,,,,,,,,,,,,,,,P127,001,2025-02-27_12h55.43.994,posner_endo_new1,2024.2.4,60.140427904251105,2025-02-27 12h55.50.727125 +0000,
cube_l.png,0.1,0.31,invalid,1,1,0,down,2.534281799918972,None,space,0.4862287000287324,None,0,1,1,1,,,,,,,,,4036.0491809999803,,,,,,,,,,,,,4036.03302480001,4036.0491809999803,4036.0491809999803,4036.0491809999803,4038.5976121999556,down,2.534281799918972,None,4038.6045530999545,4038.6163518999238,4038.6163518999238,4038.6632568999194,4038.6634845000226,4038.679688000004,4038.679688000004,4038.679688000004,4038.7463334000204,4039.179836599971,space,0.4862287000287324,None,,,,,,,,,,,,,,,,,,,,,,,,,P127,001,2025-02-27_12h55.43.994,posner_endo_new1,2024.2.4,60.140427904251105,2025-02-27 12h55.50.727125 +0000,
cube_r.png,0.1,-0.31,invalid,2,2,0,down,4.1472091999603435,None,space,0.430273300036788,None,0,2,2,2,,,,,,,,,4039.196029199986,,,,,,,,,,,,,4039.1800089000026,4039.196029199986,4039.196029199986,4039.196029199986,4043.3589752999833,down,4.1472091999603435,None,4043.365043299971,4043.3765027000336,4043.3765027000336,4043.4251491000177,4043.4253776000114,4043.4416325000348,4043.4416325000348,4043.4416325000348,4043.508274200023,4043.875416500028,space,0.430273300036788,None,,,,,,,,,,,,,,,,,,,,,,,,,P127,001,2025-02-27_12h55.43.994,posner_endo_new1,2024.2.4,60.140427904251105,2025-02-27 12h55.50.727125 +0000,
cube_r.png,0.1,10,catch,3,3,0,down,2.2922711999854073,None,None,,,0,3,3,3,,,,,,,,,4043.891065499978,,,,,,,,,,,,,4043.8755810000002,4043.891065499978,4043.891065499978,4043.891065499978,4046.1894582000095,down,2.2922711999854073,None,4046.1955330999335,4046.2071614000015,4046.2071614000015,4046.255133599974,4046.25535709993,4046.272021899931,4046.272021899931,4046.272021899931,4046.3552461999934,4049.2694420999615,None,,,4048.370075499988,4049.285727199982,4049.285727199982,4049.285727199982,,,,,,,,,,,,,,,,,,,,,P127,001,2025-02-27_12h55.43.994,posner_endo_new1,2024.2.4,60.140427904251105,2025-02-27 12h55.50.727125 +0000,
cube_l.png,0.1,-0.31,valid,4,4,0,down,0.818261600099504,None,space,0.33596399996895343,None,0,4,4,4,,,,,,,,,4049.285727199982,,,,,,,,,,,,,4049.269595699967,4049.285727199982,4049.285727199982,4049.285727199982,4050.1186993999872,down,0.818261600099504,None,4050.1247743000276,4050.1362265999196,4050.1362265999196,4050.184860399924,4050.185092199943,4050.2013573999284,4050.2013573999284,4050.2013573999284,4050.2676958999364,4050.5518035999266,space,0.33596399996895343,None,,,,,,,,,,,,,,,,,,,,,,,,,P127,001,2025-02-27_12h55.43.994,posner_endo_new1,2024.2.4,60.140427904251105,2025-02-27 12h55.50.727125 +0000,
cube_l.png,0.1,0.31,invalid,5,5,0,down,2.7198739000596106,None,space,0.507566999993287,None,0,5,5,5,,,,,,,,,4050.567583899945,,,,,,,,,,,,,4050.5519661,4050.567583899945,4050.567583899945,4050.567583899945,4053.299026599969,down,2.7198739000596106,None,4053.3050299999304,4053.316683599958,4053.316683599958,4053.364870799938,4053.365097999922,4053.3815304000163,4053.3815304000163,4053.3815304000163,4053.464752599946,4053.8985319000203,space,0.507566999993287,None,,,,,,,,,,,,,,,,,,,,,,,,,P127,001,2025-02-27_12h55.43.994,posner_endo_new1,2024.2.4,60.140427904251105,2025-02-27 12h55.50.727125 +0000,
cube_r.png,0.1,-0.31,invalid,6,6,0,down,4.165053799981251,None,space,0.3905528000323102,None,0,6,6,6,,,,,,,,,4053.914347599959,,,,,,,,,,,,,4053.89869609999,4053.914347599959,4053.914347599959,4053.914347599959,4058.094135500025,down,4.165053799981251,None,4058.100072399946,4058.111717300024,4058.111717300024,4058.160081399954,4058.1603051000275,4058.176647000015,4058.176647000015,4058.176647000015,4058.2433346000034,4058.57673849992,space,0.3905528000323102,None,,,,,,,,,,,,,,,,,,,,,,,,,P127,001,2025-02-27_12h55.43.994,posner_endo_new1,2024.2.4,60.140427904251105,2025-02-27 12h55.50.727125 +0000,
cube_r.png,0.1,0.31,valid,7,7,0,down,3.3509344999911264,None,space,0.534235000028275,None,0,7,7,7,,,,,,,,,4058.592696500011,,,,,,,,,,,,,4058.576909699943,4058.592696500011,4058.592696500011,4058.592696500011,4061.9567554999376,down,3.3509344999911264,None,4061.962707199971,4061.9744131999323,4061.9744131999323,4062.0226129000075,4062.0228396999883,4062.0394026000286,4062.0394026000286,4062.0394026000286,4062.1060086999787,4062.5895879999734,space,0.534235000028275,None,,,,,,,,,,,,,,,,,,,,,,,,,P127,001,2025-02-27_12h55.43.994,posner_endo_new1,2024.2.4,60.140427904251105,2025-02-27 12h55.50.727125 +0000,
cube_l.png,0.1,-0.31,valid,8,8,0,down,3.786342000006698,None,space,0.4565637999912724,None,0,8,8,8,,,,,,,,,4062.604960900033,,,,,,,,,,,,,4062.5897507999325,4062.604960900033,4062.604960900033,4062.604960900033,4066.402736500022,down,3.786342000006698,None,4066.4172003000276,4066.4275853999425,4066.4275853999425,4066.4681044999743,4066.4685436999425,4066.484403499984,4066.484403499984,4066.484403499984,4066.567740299972,4066.9523430999834,space,0.4565637999912724,None,,,,,,,,,,,,,,,,,,,,,,,,,P127,001,2025-02-27_12h55.43.994,posner_endo_new1,2024.2.4,60.140427904251105,2025-02-27 12h55.50.727125 +0000,
cube_r.png,0.1,-0.31,invalid,9,9,0,down,3.9681397000094876,None,space,0.4320589000126347,None,0,9,9,9,,,,,,,,,4066.9672960999887,,,,,,,,,,,,,4066.9526961999945,4066.9672960999887,4066.9672960999887,4066.9672960999887,4070.9479468999198,down,3.9681397000094876,None,4070.9575477000326,4070.9677210999653,4070.9677210999653,4071.0132794999518,4071.01358899998,4071.0301578999497,4071.0301578999497,4071.0301578999497,4071.1129984,4071.463837899966,space,0.4320589000126347,None,,,,,,,,,,,,,,,,,,,,,,,,,P127,001,2025-02-27_12h55.43.994,posner_endo_new1,2024.2.4,60.140427904251105,2025-02-27 12h55.50.727125 +0000,
cube_r.png,0.1,0.31,valid,10,10,0,down,3.5129435000708327,None,space,0.5453478000126779,None,0,10,10,10,,,,,,,,,4071.4794668999966,,,,,,,,,,,,,4071.4640851999866,4071.4794668999966,4071.4794668999966,4071.4794668999966,4074.993677399936,down,3.5129435000708327,None,4075.003390399972,4075.013688499923,4075.013688499923,4075.059567100019,4075.0598708000034,4075.0756802000105,4075.0756802000105,4075.0756802000105,4075.15889099997,4075.626195900026,space,0.5453478000126779,None,,,,,,,,,,,,,,,,,,,,,,,,,P127,001,2025-02-27_12h55.43.994,posner_endo_new1,2024.2.4,60.140427904251105,2025-02-27 12h55.50.727125 +0000,
,,,,,,,,,,,,,,,,,,,,,,,,,,,,,,,,,,4075.62635019992,4075.641935499967,4078.6523754999507,4078.622602200019,,,,,,,,,,,,,,,,,,,,,,,,,,,,,,,,,,,,,,,,,,,,,,P127,001,2025-02-27_12h55.43.994,posner_endo_new1,2024.2.4,60.140427904251105,2025-02-27 12h55.50.727125 +0000,
cube_l.png,0.1,10,catch,0,0,0,down,10.563633600017056,None,None,,,,,,,0,0,0,0,,,,,4078.6523754999507,,,,,,,,,,,,,4078.6410473999567,4078.6523754999507,4078.6523754999507,4078.6523754999507,4089.2293826999376,,,,4089.2391543999547,4089.2494028999936,4089.2494028999936,4089.294643400004,4089.2951114999596,4089.3111535999924,4089.3111535999924,4089.3111535999924,4089.39487999992,4092.309010499972,,,,4091.409479300026,4092.325082399999,4092.325082399999,4092.325082399999,down,10.563633600017056,None,None,,,,,,,,,,,,,,,,,P127,001,2025-02-27_12h55.43.994,posner_endo_new1,2024.2.4,60.140427904251105,2025-02-27 12h55.50.727125 +0000,
cube_l.png,0.1,10,catch,1,1,0,down,5.0345975999953225,None,None,,,,,,,0,1,1,1,,,,,4092.325082399999,,,,,,,,,,,,,4092.3091822999995,4092.325082399999,4092.325082399999,4092.325082399999,4097.370697399951,,,,4097.377611999982,4097.38968979998,4097.38968979998,4097.4366810999345,4097.436912599951,4097.4530668000225,4097.4530668000225,4097.4530668000225,4097.536400699988,4100.4505860999925,,,,4099.551112100016,4100.466859399923,4100.466859399923,4100.466859399923,down,5.0345975999953225,None,None,,,,,,,,,,,,,,,,,P127,001,2025-02-27_12h55.43.994,posner_endo_new1,2024.2.4,60.140427904251105,2025-02-27 12h55.50.727125 +0000,
cube_l.png,0.1,0.31,invalid,2,2,0,down,2.612928199931048,None,space,0.44919229997321963,None,,,,,0,2,2,2,,,,,4100.466859399923,,,,,,,,,,,,,4100.450747299939,4100.466859399923,4100.466859399923,4100.466859399923,4103.081572899944,,,,4103.087560600019,4103.099402599968,4103.099402599968,4103.146960299928,4103.147185500013,4103.163492399966,4103.163492399966,4103.163492399966,4103.230379499961,4103.614461799967,,,,,,,,down,2.612928199931048,None,space,0.44919229997321963,None,,,,,,,,,,,,,,,P127,001,2025-02-27_12h55.43.994,posner_endo_new1,2024.2.4,60.140427904251105,2025-02-27 12h55.50.727125 +0000,
cube_l.png,0.1,0.31,invalid,3,3,0,down,4.473904900019988,None,space,0.4886037000687793,None,,,,,0,3,3,3,,,,,4103.62985519995,,,,,,,,,,,,,4103.614636500017,4103.62985519995,4103.62985519995,4103.62985519995,4108.109884399921,,,,4108.115850999951,4108.127417200012,4108.127417200012,4108.175654200022,4108.175879399991,4108.1923488000175,4108.1923488000175,4108.1923488000175,4108.275520000025,4108.691727299942,,,,,,,,down,4.473904900019988,None,space,0.4886037000687793,None,,,,,,,,,,,,,,,P127,001,2025-02-27_12h55.43.994,posner_endo_new1,2024.2.4,60.140427904251105,2025-02-27 12h55.50.727125 +0000,
cube_l.png,0.1,-0.31,valid,4,4,0,down,3.755391599959694,None,space,0.41874200000893325,None,,,,,0,4,4,4,,,,,4108.708506700001,,,,,,,,,,,,,4108.691905100015,4108.708506700001,4108.708506700001,4108.708506700001,4112.4721861999715,,,,4112.478136699996,4112.490011399961,4112.490011399961,4112.53772100003,4112.537929699989,4112.554501899984,4112.554501899984,4112.554501899984,4112.637126100017,4112.987747899955,,,,,,,,down,3.755391599959694,None,space,0.41874200000893325,None,,,,,,,,,,,,,,,P127,001,2025-02-27_12h55.43.994,posner_endo_new1,2024.2.4,60.140427904251105,2025-02-27 12h55.50.727125 +0000,
cube_r.png,0.1,-0.31,invalid,5,5,0,down,4.220102999941446,None,space,0.5307380999438465,None,,,,,0,5,5,5,,,,,4113.003959099995,,,,,,,,,,,,,4112.987917599967,4113.003959099995,4113.003959099995,4113.003959099995,4117.233811200014,,,,4117.239812299958,4117.251280799974,4117.251280799974,4117.2996363999555,4117.299862699932,4117.316009999951,4117.316009999951,4117.316009999951,4117.399357100017,4117.84969990002,,,,,,,,down,4.220102999941446,None,space,0.5307380999438465,None,,,,,,,,,,,,,,,P127,001,2025-02-27_12h55.43.994,posner_endo_new1,2024.2.4,60.140427904251105,2025-02-27 12h55.50.727125 +0000,
cube_r.png,0.1,0.31,valid,6,6,0,down,4.254016400082037,None,space,0.3969895000336692,None,,,,,0,6,6,6,,,,,4117.865573299932,,,,,,,,,,,,,4117.849870799924,4117.865573299932,4117.865573299932,4117.865573299932,4122.128433099948,,,,4122.134445099975,4122.14609309996,4122.14609309996,4122.194773099967,4122.195005499991,4122.211327799945,4122.211327799945,4122.211327799945,4122.2775488999905,4122.611618199968,,,,,,,,down,4.254016400082037,None,space,0.3969895000336692,None,,,,,,,,,,,,,,,P127,001,2025-02-27_12h55.43.994,posner_endo_new1,2024.2.4,60.140427904251105,2025-02-27 12h55.50.727125 +0000,
cube_r.png,0.1,-0.31,invalid,7,7,0,down,4.004903900087811,None,space,0.6571053999941796,None,,,,,0,7,7,7,,,,,4122.627175500034,,,,,,,,,,,,,4122.611795799923,4122.627175500034,4122.627175500034,4122.627175500034,4126.6407142999815,,,,4126.646716899937,4126.658259799937,4126.658259799937,4126.706445900025,4126.706671099993,4126.723239199957,4126.723239199957,4126.723239199957,4126.790048999945,4127.389964799979,,,,,,,,down,4.004903900087811,None,space,0.6571053999941796,None,,,,,,,,,,,,,,,P127,001,2025-02-27_12h55.43.994,posner_endo_new1,2024.2.4,60.140427904251105,2025-02-27 12h55.50.727125 +0000,
cube_l.png,0.1,-0.31,valid,8,8,0,down,3.770067000063136,None,space,0.4346671000821516,None,,,,,0,8,8,8,,,,,4127.405779600027,,,,,,,,,,,,,4127.39013840002,4127.405779600027,4127.405779600027,4127.405779600027,4131.18594669993,,,,4131.191924099927,4131.203569000005,4131.203569000005,4131.252092399984,4131.252322199987,4131.268467099988,4131.268467099988,4131.268467099988,4131.33468510001,4131.718963799998,,,,,,,,down,3.770067000063136,None,space,0.4346671000821516,None,,,,,,,,,,,,,,,P127,001,2025-02-27_12h55.43.994,posner_endo_new1,2024.2.4,60.140427904251105,2025-02-27 12h55.50.727125 +0000,
cube_r.png,0.1,-0.31,invalid,9,9,0,down,3.521694099996239,None,space,0.427949299919419,None,,,,,0,9,9,9,,,,,4131.734590500011,,,,,,,,,,,,,4131.7191353000235,4131.734590500011,4131.734590500011,4131.734590500011,4135.2650854999665,,,,4135.271102700033,4135.282820999972,4135.282820999972,4135.331295299926,4135.331523400033,4135.347889199969,4135.347889199969,4135.347889199969,4135.414161299937,4135.781424099929,,,,,,,,down,3.521694099996239,None,space,0.427949299919419,None,,,,,,,,,,,,,,,P127,001,2025-02-27_12h55.43.994,posner_endo_new1,2024.2.4,60.140427904251105,2025-02-27 12h55.50.727125 +0000,
cube_l.png,0.1,0.31,invalid,10,10,0,down,3.698871999979019,None,space,0.42947539989836514,None,,,,,0,10,10,10,,,,,4135.797324199928,,,,,,,,,,,,,4135.781599699985,4135.797324199928,4135.797324199928,4135.797324199928,4139.510997799924,,,,4139.51697430003,4139.528386599966,4139.528386599966,4139.57702550001,4139.577261299943,4139.593368100002,4139.593368100002,4139.593368100002,4139.660093399929,4140.026566999964,,,,,,,,down,3.698871999979019,None,space,0.42947539989836514,None,,,,,,,,,,,,,,,P127,001,2025-02-27_12h55.43.994,posner_endo_new1,2024.2.4,60.140427904251105,2025-02-27 12h55.50.727125 +0000,
cube_r.png,0.1,-0.31,invalid,11,11,0,down,2.540786899975501,None,space,0.48824019997846335,None,,,,,0,11,11,11,,,,,4140.042988899979,,,,,,,,,,,,,4140.026737899985,4140.042988899979,4140.042988899979,4140.042988899979,4142.591076300014,,,,4142.596988699981,4142.608664499945,4142.608664499945,4142.656960799941,4142.657187000033,4142.673383499961,4142.673383499961,4142.673383499961,4142.740004000021,4143.1737302999245,,,,,,,,down,2.540786899975501,None,space,0.48824019997846335,None,,,,,,,,,,,,,,,P127,001,2025-02-27_12h55.43.994,posner_endo_new1,2024.2.4,60.140427904251105,2025-02-27 12h55.50.727125 +0000,
cube_r.png,0.1,0.31,valid,12,12,0,down,4.450179900042713,None,space,0.4314586999826133,None,,,,,0,12,12,12,,,,,4143.18974089995,,,,,,,,,,,,,4143.173920799978,4143.18974089995,4143.18974089995,4143.18974089995,4147.652390599949,,,,4147.658364300034,4147.669938499923,4147.669938499923,4147.718684699968,4147.718911199947,4147.735153899994,4147.735153899994,4147.735153899994,4147.818191400031,4148.16885180003,,,,,,,,down,4.450179900042713,None,space,0.4314586999826133,None,,,,,,,,,,,,,,,P127,001,2025-02-27_12h55.43.994,posner_endo_new1,2024.2.4,60.140427904251105,2025-02-27 12h55.50.727125 +0000,
cube_l.png,0.1,10,catch,13,13,0,down,4.20755209994968,None,None,,,,,,,0,13,13,13,,,,,4148.184045200003,,,,,,,,,,,,,4148.169026899966,4148.184045200003,4148.184045200003,4148.184045200003,4152.398065999965,,,,4152.410733000026,4152.421361399931,4152.421361399931,4152.463301599957,4152.4635846000165,4152.48000849993,4152.48000849993,4152.48000849993,4152.563470199937,4155.477409899933,,,,4154.578003100003,4155.493382200017,4155.493382200017,4155.493382200017,down,4.20755209994968,None,None,,,,,,,,,,,,,,,,,P127,001,2025-02-27_12h55.43.994,posner_endo_new1,2024.2.4,60.140427904251105,2025-02-27 12h55.50.727125 +0000,
cube_r.png,0.1,-0.31,invalid,14,14,0,down,2.8984029999701306,None,space,0.5140973000088707,None,,,,,0,14,14,14,,,,,4155.493382200017,,,,,,,,,,,,,4155.477617900004,4155.493382200017,4155.493382200017,4155.493382200017,4158.40853409993,,,,4158.417042299989,4158.427226600004,4158.427226600004,4158.47397739999,4158.474253699998,4158.490720100002,4158.490720100002,4158.490720100002,4158.573704399983,4159.007521399995,,,,,,,,down,2.8984029999701306,None,space,0.5140973000088707,None,,,,,,,,,,,,,,,P127,001,2025-02-27_12h55.43.994,posner_endo_new1,2024.2.4,60.140427904251105,2025-02-27 12h55.50.727125 +0000,
cube_l.png,0.1,-0.31,valid,15,15,0,down,4.167881100089289,None,space,0.43094160000327975,None,,,,,0,15,15,15,,,,,4159.023574199993,,,,,,,,,,,,,4159.0077458999585,4159.023574199993,4159.023574199993,4159.023574199993,4163.203471599962,,,,4163.21195919998,4163.222275899956,4163.222275899956,4163.269241499947,4163.26951699995,4163.285505699925,4163.285505699925,4163.285505699925,4163.368900400004,4163.719295799965,,,,,,,,down,4.167881100089289,None,space,0.43094160000327975,None,,,,,,,,,,,,,,,P127,001,2025-02-27_12h55.43.994,posner_endo_new1,2024.2.4,60.140427904251105,2025-02-27 12h55.50.727125 +0000,
cube_r.png,0.1,10,catch,16,16,0,down,4.049294900032692,None,None,,,,,,,0,16,16,16,,,,,4163.735000199988,,,,,,,,,,,,,4163.719527699985,4163.735000199988,4163.735000199988,4163.735000199988,4167.798838699935,,,,4167.80728399998,4167.817560199997,4167.817560199997,4167.8643231999595,4167.864599599969,4167.881109499955,4167.881109499955,4167.881109499955,4167.964326799964,4170.878337999922,,,,4169.978591399966,4170.8942924999865,4170.8942924999865,4170.8942924999865,down,4.049294900032692,None,None,,,,,,,,,,,,,,,,,P127,001,2025-02-27_12h55.43.994,posner_endo_new1,2024.2.4,60.140427904251105,2025-02-27 12h55.50.727125 +0000,
cube_r.png,0.1,10,catch,17,17,0,down,0.6892343000508845,None,None,,,,,,,0,17,17,17,,,,,4170.8942924999865,,,,,,,,,,,,,4170.878543499974,4170.8942924999865,4170.8942924999865,4170.8942924999865,4171.59458039992,,,,4171.602985500009,4171.613574899966,4171.613574899966,4171.660440500011,4171.660720199929,4171.67690099997,4171.67690099997,4171.67690099997,4171.760140200029,4174.674512999947,,,,4173.774812699994,4174.6905429000035,4174.6905429000035,4174.6905429000035,down,0.6892343000508845,None,None,,,,,,,,,,,,,,,,,P127,001,2025-02-27_12h55.43.994,posner_endo_new1,2024.2.4,60.140427904251105,2025-02-27 12h55.50.727125 +0000,
cube_l.png,0.1,0.31,invalid,18,18,0,down,1.269729399937205,None,space,0.5922878000419587,None,,,,,0,18,18,18,,,,,4174.6905429000035,,,,,,,,,,,,,4174.674718900002,4174.6905429000035,4174.6905429000035,4174.6905429000035,4175.973572799936,,,,4175.982000999968,4175.992500899942,4175.992500899942,4176.039440699969,4176.039718299988,4176.056096100016,4176.056096100016,4176.056096100016,4176.138915800024,4176.656483000028,,,,,,,,down,1.269729399937205,None,space,0.5922878000419587,None,,,,,,,,,,,,,,,P127,001,2025-02-27_12h55.43.994,posner_endo_new1,2024.2.4,60.140427904251105,2025-02-27 12h55.50.727125 +0000,
cube_l.png,0.1,10,catch,19,19,0,down,3.3046517999609932,None,None,,,,,,,0,19,19,19,,,,,4176.671757599921,,,,,,,,,,,,,4176.656704899971,4176.671757599921,4176.671757599921,4176.671757599921,4179.98608079995,,,,4179.994412799948,4180.0051168999635,4180.0051168999635,4180.051739300019,4180.052016100031,4180.0683458999265,4180.0683458999265,4180.0683458999265,4180.135051599937,4183.0658466999885,,,,4182.1496288999915,4183.0822069999995,4183.0822069999995,4183.0822069999995,down,3.3046517999609932,None,None,,,,,,,,,,,,,,,,,P127,001,2025-02-27_12h55.43.994,posner_endo_new1,2024.2.4,60.140427904251105,2025-02-27 12h55.50.727125 +0000,
cube_l.png,0.1,0.31,invalid,20,20,0,down,1.3980802999576554,None,space,0.6151841999962926,None,,,,,0,20,20,20,,,,,4183.0822069999995,,,,,,,,,,,,,4183.066052699927,4183.0822069999995,4183.0822069999995,4183.0822069999995,4184.481433899957,,,,4184.489877099986,4184.500595599995,4184.500595599995,4184.547241499997,4184.547518300009,4184.563732699957,4184.563732699957,4184.563732699957,4184.63060169993,4185.18076909997,,,,,,,,down,1.3980802999576554,None,space,0.6151841999962926,None,,,,,,,,,,,,,,,P127,001,2025-02-27_12h55.43.994,posner_endo_new1,2024.2.4,60.140427904251105,2025-02-27 12h55.50.727125 +0000,
cube_l.png,0.1,-0.31,valid,21,21,0,down,3.499676199979149,None,space,0.44922529999166727,None,,,,,0,21,21,21,,,,,4185.196544599952,,,,,,,,,,,,,4185.180995499948,4185.196544599952,4185.196544599952,4185.196544599952,4188.71079329995,,,,4188.719267799985,4188.729503399925,4188.729503399925,4188.776236900012,4188.776513900026,4188.792791799991,4188.792791799991,4188.792791799991,4188.876055300003,4189.2435833000345,,,,,,,,down,3.499676199979149,None,space,0.44922529999166727,None,,,,,,,,,,,,,,,P127,001,2025-02-27_12h55.43.994,posner_endo_new1,2024.2.4,60.140427904251105,2025-02-27 12h55.50.727125 +0000,
cube_r.png,0.1,0.31,valid,22,22,0,down,4.477288400055841,None,space,0.5731172000523657,None,,,,,0,22,22,22,,,,,4189.259053800022,,,,,,,,,,,,,4189.2438139999285,4189.259053800022,4189.259053800022,4189.259053800022,4193.739063899964,,,,4193.747572000022,4193.757661100011,4193.757661100011,4193.804813400027,4193.805090199923,4193.820950399968,4193.820950399968,4193.820950399968,4193.90429169999,4194.404608499957,,,,,,,,down,4.477288400055841,None,space,0.5731172000523657,None,,,,,,,,,,,,,,,P127,001,2025-02-27_12h55.43.994,posner_endo_new1,2024.2.4,60.140427904251105,2025-02-27 12h55.50.727125 +0000,
cube_r.png,0.1,-0.31,invalid,23,23,0,down,3.9555773000465706,None,space,0.5290054000215605,None,,,,,0,23,23,23,,,,,4194.420374199981,,,,,,,,,,,,,4194.404831100022,4194.420374199981,4194.420374199981,4194.420374199981,4198.384336999967,,,,4198.392710999935,4198.4029782,4198.4029782,4198.449735599919,4198.450017099967,4198.466615599929,4198.466615599929,4198.466615599929,4198.549711299944,4199.000046600006,,,,,,,,down,3.9555773000465706,None,space,0.5290054000215605,None,,,,,,,,,,,,,,,P127,001,2025-02-27_12h55.43.994,posner_endo_new1,2024.2.4,60.140427904251105,2025-02-27 12h55.50.727125 +0000,
cube_r.png,0.1,0.31,valid,24,24,0,down,4.935925199999474,None,space,0.42684949992690235,None,,,,,0,24,24,24,,,,,4199.01602859993,,,,,,,,,,,,,4199.000271499972,4199.01602859993,4199.01602859993,4199.01602859993,4203.961480799946,,,,4203.969897200004,4203.980553900008,4203.980553900008,4204.027278400026,4204.027555599925,4204.044161999947,4204.044161999947,4204.044161999947,4204.127287699957,4204.478140700026,,,,,,,,down,4.935925199999474,None,space,0.42684949992690235,None,,,,,,,,,,,,,,,P127,001,2025-02-27_12h55.43.994,posner_endo_new1,2024.2.4,60.140427904251105,2025-02-27 12h55.50.727125 +0000,
cube_r.png,0.1,-0.31,invalid,25,25,0,down,3.6183404000476003,None,space,0.4802136999787763,None,,,,,0,25,25,25,,,,,4204.493873400032,,,,,,,,,,,,,4204.478364999988,4204.493873400032,4204.493873400032,4204.493873400032,4208.124209600035,,,,4208.132703499985,4208.142949100002,4208.142949100002,4208.190023000003,4208.190304699936,4208.206221899949,4208.206221899949,4208.206221899949,4208.289725499926,4208.690002199961,,,,,,,,down,3.6183404000476003,None,space,0.4802136999787763,None,,,,,,,,,,,,,,,P127,001,2025-02-27_12h55.43.994,posner_endo_new1,2024.2.4,60.140427904251105,2025-02-27 12h55.50.727125 +0000,
cube_l.png,0.1,-0.31,valid,26,26,0,down,4.301641899975948,None,space,0.4441907999571413,None,,,,,0,26,26,26,,,,,4208.706115399953,,,,,,,,,,,,,4208.690224100021,4208.706115399953,4208.706115399953,4208.706115399953,4213.018832099973,,,,4213.027206699946,4213.037901500007,4213.037901500007,4213.085234400001,4213.085511900019,4213.101411900017,4213.101411900017,4213.101411900017,4213.168192100013,4213.552218299941,,,,,,,,down,4.301641899975948,None,space,0.4441907999571413,None,,,,,,,,,,,,,,,P127,001,2025-02-27_12h55.43.994,posner_endo_new1,2024.2.4,60.140427904251105,2025-02-27 12h55.50.727125 +0000,
cube_r.png,0.1,0.31,valid,27,27,0,down,4.679867000086233,None,space,0.4460767999989912,None,,,,,0,27,27,27,,,,,4213.567668000003,,,,,,,,,,,,,4213.552448299946,4213.567668000003,4213.567668000003,4213.567668000003,4218.263990900014,,,,4218.272483399953,4218.282572699944,4218.282572699944,4218.329367100028,4218.329651499982,4218.345823599957,4218.345823599957,4218.345823599957,4218.429437099956,4218.796552399988,,,,,,,,down,4.679867000086233,None,space,0.4460767999989912,None,,,,,,,,,,,,,,,P127,001,2025-02-27_12h55.43.994,posner_endo_new1,2024.2.4,60.140427904251105,2025-02-27 12h55.50.727125 +0000,
cube_r.png,0.1,10,catch,28,28,0,down,4.09232970001176,None,None,,,,,,,0,28,28,28,,,,,4218.812072500004,,,,,,,,,,,,,4218.796775199939,4218.812072500004,4218.812072500004,4218.812072500004,4222.908858499955,,,,4222.91727179999,4222.927826900035,4222.927826900035,4222.974569999962,4222.974848599988,4222.991202999954,4222.991202999954,4222.991202999954,4223.074472400011,4225.9885826000245,,,,4225.08905369998,4226.004823699943,4226.004823699943,4226.004823699943,down,4.09232970001176,None,None,,,,,,,,,,,,,,,,,P127,001,2025-02-27_12h55.43.994,posner_endo_new1,2024.2.4,60.140427904251105,2025-02-27 12h55.50.727125 +0000,
cube_r.png,0.1,0.31,valid,29,29,0,down,0.594929900020361,None,space,0.46367229998577386,None,,,,,0,29,29,29,,,,,4226.004823699943,,,,,,,,,,,,,4225.988789599971,4226.004823699943,4226.004823699943,4226.004823699943,4226.605539200013,,,,4226.6139716999605,4226.62416789995,4226.62416789995,4226.670917299925,4226.67119309993,4226.687909999979,4226.687909999979,4226.687909999979,4226.770815699943,4227.154864599928,,,,,,,,down,0.594929900020361,None,space,0.46367229998577386,None,,,,,,,,,,,,,,,P127,001,2025-02-27_12h55.43.994,posner_endo_new1,2024.2.4,60.140427904251105,2025-02-27 12h55.50.727125 +0000,
cube_r.png,0.1,0.31,valid,30,30,0,down,5.111022799974307,None,space,0.5100629000226036,None,,,,,0,30,30,30,,,,,4227.17021599994,,,,,,,,,,,,,4227.155087299994,4227.17021599994,4227.17021599994,4227.17021599994,4232.283018799964,,,,4232.291511800024,4232.301603800035,4232.301603800035,4232.348376699956,4232.348655199981,4232.365120399976,4232.365120399976,4232.365120399976,4232.448257799959,4232.882585500018,,,,,,,,down,5.111022799974307,None,space,0.5100629000226036,None,,,,,,,,,,,,,,,P127,001,2025-02-27_12h55.43.994,posner_endo_new1,2024.2.4,60.140427904251105,2025-02-27 12h55.50.727125 +0000,
cube_l.png,0.1,-0.31,valid,31,31,0,down,4.50185010000132,None,space,0.4323106000665575,None,,,,,0,31,31,31,,,,,4232.897728399956,,,,,,,,,,,,,4232.882808799972,4232.897728399956,4232.897728399956,4232.897728399956,4237.410878699971,,,,4237.419358199928,4237.429721700028,4237.429721700028,4237.4764788999455,4237.476756799966,4237.493405499961,4237.493405499961,4237.493405499961,4237.576168300002,4237.9271511000115,,,,,,,,down,4.50185010000132,None,space,0.4323106000665575,None,,,,,,,,,,,,,,,P127,001,2025-02-27_12h55.43.994,posner_endo_new1,2024.2.4,60.140427904251105,2025-02-27 12h55.50.727125 +0000,
cube_r.png,0.1,0.31,valid,32,32,0,down,5.040842699934728,None,space,0.4894657999975607,None,,,,,0,32,32,32,,,,,4237.942766399938,,,,,,,,,,,,,4237.927373299957,4237.942766399938,4237.942766399938,4237.942766399938,4242.988373199943,,,,4242.996838900028,4243.007396599976,4243.007396599976,4243.054457799997,4243.05474729999,4243.07059639995,4243.07059639995,4243.07059639995,4243.1540216000285,4243.571008499945,,,,,,,,down,5.040842699934728,None,space,0.4894657999975607,None,,,,,,,,,,,,,,,P127,001,2025-02-27_12h55.43.994,posner_endo_new1,2024.2.4,60.140427904251105,2025-02-27 12h55.50.727125 +0000,
cube_r.png,0.1,-0.31,invalid,33,33,0,down,4.014087199931964,None,space,0.5437908000312746,None,,,,,0,33,33,33,,,,,4243.587045999942,,,,,,,,,,,,,4243.571233200026,4243.587045999942,4243.587045999942,4243.587045999942,4247.617020100006,,,,4247.625459500006,4247.63580779999,4247.63580779999,4247.682722799946,4247.683008400025,4247.699423299986,4247.699423299986,4247.699423299986,4247.782989099971,4248.250050300034,,,,,,,,down,4.014087199931964,None,space,0.5437908000312746,None,,,,,,,,,,,,,,,P127,001,2025-02-27_12h55.43.994,posner_endo_new1,2024.2.4,60.140427904251105,2025-02-27 12h55.50.727125 +0000,
cube_r.png,0.1,10,catch,34,34,0,down,4.526804700028151,None,None,,,,,,,0,34,34,34,,,,,4248.265265099937,,,,,,,,,,,,,4248.250277300016,4248.265265099937,4248.265265099937,4248.265265099937,4252.79522780003,,,,4252.80373439996,4252.814063000027,4252.814063000027,4252.860844300012,4252.86112529994,4252.877207099926,4252.877207099926,4252.877207099926,4252.960854099947,4255.874830099987,,,,4254.975520099979,4255.89083639998,4255.89083639998,4255.89083639998,down,4.526804700028151,None,None,,,,,,,,,,,,,,,,,P127,001,2025-02-27_12h55.43.994,posner_endo_new1,2024.2.4,60.140427904251105,2025-02-27 12h55.50.727125 +0000,
cube_r.png,0.1,0.31,valid,35,35,0,down,2.1424810000462458,None,space,0.40281210001558065,None,,,,,0,35,35,35,,,,,4255.89083639998,,,,,,,,,,,,,4255.8750373999355,4255.89083639998,4255.89083639998,4255.89083639998,4258.039530099952,,,,4258.047879499965,4258.05855810002,4258.05855810002,4258.1057654999895,4258.106041799998,4258.122158100014,4258.122158100014,4258.122158100014,4258.2054905999685,4258.538982599974,,,,,,,,down,2.1424810000462458,None,space,0.40281210001558065,None,,,,,,,,,,,,,,,P127,001,2025-02-27_12h55.43.994,posner_endo_new1,2024.2.4,60.140427904251105,2025-02-27 12h55.50.727125 +0000,
cube_r.png,0.1,-0.31,invalid,36,36,0,down,5.029045199975371,None,space,0.5743721999460831,None,,,,,0,36,36,36,,,,,4258.555038399994,,,,,,,,,,,,,4258.5392080999445,4258.555038399994,4258.555038399994,4258.555038399994,4263.600572900032,,,,4263.608978400007,4263.619591500028,4263.619591500028,4263.666473399964,4263.666752299992,4263.682932000025,4263.682932000025,4263.682932000025,4263.76656020002,4264.266932999948,,,,,,,,down,5.029045199975371,None,space,0.5743721999460831,None,,,,,,,,,,,,,,,P127,001,2025-02-27_12h55.43.994,posner_endo_new1,2024.2.4,60.140427904251105,2025-02-27 12h55.50.727125 +0000,
cube_l.png,0.1,0.31,invalid,37,37,0,down,4.64680370001588,None,space,0.4472299999324605,None,,,,,0,37,37,37,,,,,4264.282617699937,,,,,,,,,,,,,4264.267157600028,4264.282617699937,4264.282617699937,4264.282617699937,4268.945065699983,,,,4268.953502399963,4268.964204799966,4268.964204799966,4269.010868799989,4269.0111468000105,4269.027674800018,4269.027674800018,4269.027674800018,4269.1107018999755,4269.4780308000045,,,,,,,,down,4.64680370001588,None,space,0.4472299999324605,None,,,,,,,,,,,,,,,P127,001,2025-02-27_12h55.43.994,posner_endo_new1,2024.2.4,60.140427904251105,2025-02-27 12h55.50.727125 +0000,
cube_l.png,0.1,0.31,invalid,38,38,0,down,5.026190300006419,None,space,0.4848551000468433,None,,,,,0,38,38,38,,,,,4269.493899199995,,,,,,,,,,,,,4269.478256099974,4269.493899199995,4269.493899199995,4269.493899199995,4274.522893299931,,,,4274.531270999927,4274.5417948999675,4274.5417948999675,4274.588523800019,4274.588810099987,4274.605105699971,4274.605105699971,4274.605105699971,4274.688725300017,4275.105577199953,,,,,,,,down,5.026190300006419,None,space,0.4848551000468433,None,,,,,,,,,,,,,,,P127,001,2025-02-27_12h55.43.994,posner_endo_new1,2024.2.4,60.140427904251105,2025-02-27 12h55.50.727125 +0000,
cube_r.png,0.1,0.31,valid,39,39,0,down,3.0461830999702215,None,space,0.4626305000856519,None,,,,,0,39,39,39,,,,,4275.121562600019,,,,,,,,,,,,,4275.105800200021,4275.121562600019,4275.121562600019,4275.121562600019,4278.169022299931,,,,4278.177401199937,4278.188064099988,4278.188064099988,4278.235137099982,4278.2354142999975,4278.251387099968,4278.251387099968,4278.251387099968,4278.334658899927,4278.718575899955,,,,,,,,down,3.0461830999702215,None,space,0.4626305000856519,None,,,,,,,,,,,,,,,P127,001,2025-02-27_12h55.43.994,posner_endo_new1,2024.2.4,60.140427904251105,2025-02-27 12h55.50.727125 +0000,
cube_l.png,0.1,0.31,invalid,40,40,0,down,5.329243200016208,None,space,0.4539076999062672,None,,,,,0,40,40,40,,,,,4278.73448939994,,,,,,,,,,,,,4278.718801199924,4278.73448939994,4278.73448939994,4278.73448939994,4284.079616099945,,,,4284.088056599954,4284.098470699973,4284.098470699973,4284.145399500034,4284.145677399938,4284.162267799955,4284.162267799955,4284.162267799955,4284.228849999956,4284.629340899992,,,,,,,,down,5.329243200016208,None,space,0.4539076999062672,None,,,,,,,,,,,,,,,P127,001,2025-02-27_12h55.43.994,posner_endo_new1,2024.2.4,60.140427904251105,2025-02-27 12h55.50.727125 +0000,
cube_l.png,0.1,10,catch,41,41,0,down,5.163006699993275,None,None,,,,,,,0,41,41,41,,,,,4284.644779399969,,,,,,,,,,,,,4284.62956469995,4284.644779399969,4284.644779399969,4284.644779399969,4289.823805199936,,,,4289.8322823999915,4289.842864100006,4289.842864100006,4289.889691299992,4289.889970700024,4289.906304499949,4289.906304499949,4289.906304499949,4289.972712700022,4292.9037136000115,,,,4291.987375900033,4292.919983600033,4292.919983600033,4292.919983600033,down,5.163006699993275,None,None,,,,,,,,,,,,,,,,,P127,001,2025-02-27_12h55.43.994,posner_endo_new1,2024.2.4,60.140427904251105,2025-02-27 12h55.50.727125 +0000,
cube_l.png,0.1,-0.31,valid,42,42,0,down,2.8081341999350116,None,space,0.4314365000464022,None,,,,,0,42,42,42,,,,,4292.919983600033,,,,,,,,,,,,,4292.903937399969,4292.919983600033,4292.919983600033,4292.919983600033,4295.734662299976,,,,4295.743127199938,4295.753514899989,4295.753514899989,4295.800556499977,4295.800832299981,4295.816753300023,4295.816753300023,4295.816753300023,4295.90027340001,4296.250748499995,,,,,,,,down,2.8081341999350116,None,space,0.4314365000464022,None,,,,,,,,,,,,,,,P127,001,2025-02-27_12h55.43.994,posner_endo_new1,2024.2.4,60.140427904251105,2025-02-27 12h55.50.727125 +0000,
cube_l.png,0.1,10,catch,43,43,0,down,5.117552399984561,None,None,,,,,,,0,43,43,43,,,,,4296.266427599941,,,,,,,,,,,,,4296.2509703999385,4296.266427599941,4296.266427599941,4296.266427599941,4301.395603099954,,,,4301.404136499972,4301.4143545000115,4301.4143545000115,4301.461225199979,4301.461503400002,4301.4781079000095,4301.4781079000095,4301.4781079000095,4301.561216700007,4304.475127900019,,,,4303.576025999966,4304.491258400027,4304.491258400027,4304.491258400027,down,5.117552399984561,None,None,,,,,,,,,,,,,,,,,P127,001,2025-02-27_12h55.43.994,posner_endo_new1,2024.2.4,60.140427904251105,2025-02-27 12h55.50.727125 +0000,
cube_l.png,0.1,0.31,invalid,44,44,0,down,1.996859599952586,None,space,0.5503833999391645,None,,,,,0,44,44,44,,,,,4304.491258400027,,,,,,,,,,,,,4304.475338299992,4304.491258400027,4304.491258400027,4304.491258400027,4306.490273899981,,,,4306.498678699951,4306.509136799956,4306.509136799956,4306.555953099974,4306.556235800032,4306.572354899952,4306.572354899952,4306.572354899952,4306.655989999999,4307.139611799968,,,,,,,,down,1.996859599952586,None,space,0.5503833999391645,None,,,,,,,,,,,,,,,P127,001,2025-02-27_12h55.43.994,posner_endo_new1,2024.2.4,60.140427904251105,2025-02-27 12h55.50.727125 +0000,
cube_l.png,0.1,0.31,invalid,45,45,0,down,4.517050299909897,None,space,0.37638849997892976,None,,,,,0,45,45,45,,,,,4307.155543999979,,,,,,,,,,,,,4307.139838499948,4307.155543999979,4307.155543999979,4307.155543999979,4311.68498000002,,,,4311.693406799925,4311.703840499977,4311.703840499977,4311.750697499956,4311.75097189995,4311.767117199954,4311.767117199954,4311.767117199954,4311.850649500033,4312.151290099951,,,,,,,,down,4.517050299909897,None,space,0.37638849997892976,None,,,,,,,,,,,,,,,P127,001,2025-02-27_12h55.43.994,posner_endo_new1,2024.2.4,60.140427904251105,2025-02-27 12h55.50.727125 +0000,
cube_r.png,0.1,0.31,valid,46,46,0,down,5.1056607000064105,None,space,0.5167328000534326,None,,,,,0,46,46,46,,,,,4312.167190199951,,,,,,,,,,,,,4312.151514100027,4312.167190199951,4312.167190199951,4312.167190199951,4317.279145099921,,,,4317.2875489,4317.2982594999485,4317.2982594999485,4317.345223599928,4317.345502199954,4317.361406499986,4317.361406499986,4317.361406499986,4317.445157999988,4317.879051800002,,,,,,,,down,5.1056607000064105,None,space,0.5167328000534326,None,,,,,,,,,,,,,,,P127,001,2025-02-27_12h55.43.994,posner_endo_new1,2024.2.4,60.140427904251105,2025-02-27 12h55.50.727125 +0000,
cube_l.png,0.1,-0.31,valid,47,47,0,down,4.33770120004192,None,space,0.39628350001294166,None,,,,,0,47,47,47,,,,,4317.894663400017,,,,,,,,,,,,,4317.879276799969,4317.894663400017,4317.894663400017,4317.894663400017,4322.240911799949,,,,4322.249363399926,4322.259783999994,4322.259783999994,4322.306505299988,4322.30678340001,4322.322998399963,4322.322998399963,4322.322998399963,4322.406195499934,4322.723754299921,,,,,,,,down,4.33770120004192,None,space,0.39628350001294166,None,,,,,,,,,,,,,,,P127,001,2025-02-27_12h55.43.994,posner_endo_new1,2024.2.4,60.140427904251105,2025-02-27 12h55.50.727125 +0000,
cube_r.png,0.1,-0.31,invalid,48,48,0,down,7.220466400031,None,space,0.38958429999183863,None,,,,,0,48,48,48,,,,,4322.739240000024,,,,,,,,,,,,,4322.723975399975,4322.739240000024,4322.739240000024,4322.739240000024,4329.966074099997,,,,4329.974522299948,4329.985139199998,4329.985139199998,4330.031934999977,4330.032209799974,4330.048430599971,4330.048430599971,4330.048430599971,4330.115174299921,4330.44927829993,,,,,,,,down,7.220466400031,None,space,0.38958429999183863,None,,,,,,,,,,,,,,,P127,001,2025-02-27_12h55.43.994,posner_endo_new1,2024.2.4,60.140427904251105,2025-02-27 12h55.50.727125 +0000,
cube_r.png,0.1,10,catch,49,49,0,down,3.3190705999732018,None,None,,,,,,,0,49,49,49,,,,,4330.46490209992,,,,,,,,,,,,,4330.449499899987,4330.46490209992,4330.46490209992,4330.46490209992,4333.795522499946,,,,4333.803998099989,4333.8145946,4333.8145946,4333.861810500035,4333.862087899935,4333.877858099993,4333.877858099993,4333.877858099993,4333.961209699977,4336.8753517000005,,,,4335.9760416999925,4336.891713500023,4336.891713500023,4336.891713500023,down,3.3190705999732018,None,None,,,,,,,,,,,,,,,,,P127,001,2025-02-27_12h55.43.994,posner_endo_new1,2024.2.4,60.140427904251105,2025-02-27 12h55.50.727125 +0000,
cube_l.png,0.1,-0.31,valid,50,50,0,down,5.212367899948731,None,space,0.4704366000369191,None,,,,,0,50,50,50,,,,,4336.891713500023,,,,,,,,,,,,,4336.875556299929,4336.891713500023,4336.891713500023,4336.891713500023,4342.120796000003,,,,4342.129269700032,4342.139406799921,4342.139406799921,4342.186169099994,4342.186444599996,4342.20267769997,4342.20267769997,4342.20267769997,4342.285951599944,4342.686329899938,,,,,,,,down,5.212367899948731,None,space,0.4704366000369191,None,,,,,,,,,,,,,,,P127,001,2025-02-27_12h55.43.994,posner_endo_new1,2024.2.4,60.140427904251105,2025-02-27 12h55.50.727125 +0000,
cube_l.png,0.1,-0.31,valid,51,51,0,down,8.56221700005699,None,space,0.44137390004470944,None,,,,,0,51,51,51,,,,,4342.702410000027,,,,,,,,,,,,,4342.686551399995,4342.702410000027,4342.702410000027,4342.702410000027,4351.27764320001,,,,4351.286063699983,4351.296791599947,4351.296791599947,4351.343575399951,4351.343874100014,4351.3600479000015,4351.3600479000015,4351.3600479000015,4351.443181699957,4351.810495099984,,,,,,,,down,8.56221700005699,None,space,0.44137390004470944,None,,,,,,,,,,,,,,,P127,001,2025-02-27_12h55.43.994,posner_endo_new1,2024.2.4,60.140427904251105,2025-02-27 12h55.50.727125 +0000,
cube_r.png,0.1,-0.31,invalid,52,52,0,down,3.927446600049734,None,space,0.5299305999651551,None,,,,,0,52,52,52,,,,,4351.826156200026,,,,,,,,,,,,,4351.810716299922,4351.826156200026,4351.826156200026,4351.826156200026,4355.756642899942,,,,4355.765065499931,4355.775430299924,4355.775430299924,4355.822248499957,4355.822526299977,4355.83888169995,4355.83888169995,4355.83888169995,4355.921931399964,4356.372626399971,,,,,,,,down,3.927446600049734,None,space,0.5299305999651551,None,,,,,,,,,,,,,,,P127,001,2025-02-27_12h55.43.994,posner_endo_new1,2024.2.4,60.140427904251105,2025-02-27 12h55.50.727125 +0000,
cube_l.png,0.1,-0.31,valid,53,53,0,down,2.6518999999389052,None,space,0.4775375999743119,None,,,,,0,53,53,53,,,,,4356.3885207999265,,,,,,,,,,,,,4356.372850599932,4356.3885207999265,4356.3885207999265,4356.3885207999265,4359.053226099932,,,,4359.0616286,4359.072073600022,4359.072073600022,4359.11891379999,4359.119193700026,4359.135447599925,4359.135447599925,4359.135447599925,4359.218725799932,4359.619264899986,,,,,,,,down,2.6518999999389052,None,space,0.4775375999743119,None,,,,,,,,,,,,,,,P127,001,2025-02-27_12h55.43.994,posner_endo_new1,2024.2.4,60.140427904251105,2025-02-27 12h55.50.727125 +0000,
cube_r.png,0.1,10,catch,54,54,0,down,6.181623100070283,None,None,,,,,,,0,54,54,54,,,,,4359.635031900019,,,,,,,,,,,,,4359.619483600021,4359.635031900019,4359.635031900019,4359.635031900019,4365.830735099968,,,,4365.849549399922,4365.860933299991,4365.860933299991,4365.895594200003,4365.895901400014,4365.912214800017,4365.912214800017,4365.912214800017,4365.995214800001,4368.909408899955,,,,4368.009879800025,4368.92576439993,4368.92576439993,4368.92576439993,down,6.181623100070283,None,None,,,,,,,,,,,,,,,,,P127,001,2025-02-27_12h55.43.994,posner_endo_new1,2024.2.4,60.140427904251105,2025-02-27 12h55.50.727125 +0000,
cube_l.png,0.1,0.31,invalid,55,55,0,down,2.018936400068924,None,space,0.5394320000195876,None,,,,,0,55,55,55,,,,,4368.92576439993,,,,,,,,,,,,,4368.909645600012,4368.92576439993,4368.92576439993,4368.92576439993,4370.95799159992,,,,4370.966432599933,4370.976613299921,4370.976613299921,4371.023552099941,4371.023803399992,4371.04034149996,4371.04034149996,4371.04034149996,4371.1234184999485,4371.5899743000045,,,,,,,,down,2.018936400068924,None,space,0.5394320000195876,None,,,,,,,,,,,,,,,P127,001,2025-02-27_12h55.43.994,posner_endo_new1,2024.2.4,60.140427904251105,2025-02-27 12h55.50.727125 +0000,
cube_l.png,0.1,-0.31,valid,56,56,0,down,5.274183599976823,None,space,0.6271038000704721,None,,,,,0,56,56,56,,,,,4371.606209699996,,,,,,,,,,,,,4371.590141699999,4371.606209699996,4371.606209699996,4371.606209699996,4376.885241599986,,,,4376.891734899953,4376.903590700007,4376.903590700007,4376.9511289999355,4376.951359499944,4376.967560600024,4376.967560600024,4376.967560600024,4377.050974200014,4377.60112779995,,,,,,,,down,5.274183599976823,None,space,0.6271038000704721,None,,,,,,,,,,,,,,,P127,001,2025-02-27_12h55.43.994,posner_endo_new1,2024.2.4,60.140427904251105,2025-02-27 12h55.50.727125 +0000,
cube_r.png,0.1,0.31,valid,57,57,0,down,4.975744699942879,None,space,0.5014680000022054,None,,,,,0,57,57,57,,,,,4377.6165797000285,,,,,,,,,,,,,4377.601296799956,4377.6165797000285,4377.6165797000285,4377.6165797000285,4382.595991599956,,,,4382.602026699926,4382.61368509999,4382.61368509999,4382.661888999981,4382.6621166999685,4382.6779857999645,4382.6779857999645,4382.6779857999645,4382.761567099951,4383.1953293000115,,,,,,,,down,4.975744699942879,None,space,0.5014680000022054,None,,,,,,,,,,,,,,,P127,001,2025-02-27_12h55.43.994,posner_endo_new1,2024.2.4,60.140427904251105,2025-02-27 12h55.50.727125 +0000,
cube_r.png,0.1,-0.31,invalid,58,58,0,down,3.557120900019072,None,space,0.4791331000160426,None,,,,,0,58,58,58,,,,,4383.2113574999385,,,,,,,,,,,,,4383.195501699927,4383.2113574999385,4383.2113574999385,4383.2113574999385,4386.77503010002,,,,4386.78094289999,4386.79264270002,4386.79264270002,4386.840684199939,4386.84091639996,4386.857461199979,4386.857461199979,4386.857461199979,4386.923909800011,4387.341263299924,,,,,,,,down,3.557120900019072,None,space,0.4791331000160426,None,,,,,,,,,,,,,,,P127,001,2025-02-27_12h55.43.994,posner_endo_new1,2024.2.4,60.140427904251105,2025-02-27 12h55.50.727125 +0000,
cube_l.png,0.1,0.31,invalid,59,59,0,down,6.563336400082335,None,space,0.33591460005845875,None,,,,,0,59,59,59,,,,,4387.357193399919,,,,,,,,,,,,,4387.341431899928,4387.357193399919,4387.357193399919,4387.357193399919,4393.934409199981,,,,4393.947233999963,4393.957310599973,4393.957310599973,4393.999900599942,4394.000290900003,4394.016435900005,4394.016435900005,4394.016435900005,4394.0996673000045,4394.367467599921,,,,,,,,down,6.563336400082335,None,space,0.33591460005845875,None,,,,,,,,,,,,,,,P127,001,2025-02-27_12h55.43.994,posner_endo_new1,2024.2.4,60.140427904251105,2025-02-27 12h55.50.727125 +0000,
,,,,,,,,,,,,,,,,,,,,,,,,,,,,,,,,,,,,,,,,,,,,,,,,,,,,,,,,,,,,,,,,,,,,,4394.367673999979,4394.3826602000045,4394.3826602000045,4454.388270199997,4465.3783053000225,space,70.97819099994376,None,,,,,,,P127,001,2025-02-27_12h55.43.994,posner_endo_new1,2024.2.4,60.140427904251105,2025-02-27 12h55.50.727125 +0000,
,,,,,,,,,,,,,,,,,,,,,,,,,,,,,,,,,,4465.378397000022,4465.3935985999415,4468.406563399942,4468.374764399952,,,,,,,,,,,,,,,,,,,,,,,,,,,,,,,,,,,,,,,,,,,,,,P127,001,2025-02-27_12h55.43.994,posner_endo_new1,2024.2.4,60.140427904251105,2025-02-27 12h55.50.727125 +0000,
cube_l.png,0.1,10,catch,0,0,0,up,12.265821799985133,None,None,,,,,,,,,,,0,0,0,0,4468.406563399942,,,,,,,,,,,,,4468.3972001000075,4468.406563399942,4468.406563399942,4468.406563399942,4480.679102799972,,,,4480.69136019994,4480.70163060003,4480.70163060003,4480.745025299955,4480.74540549994,4480.761183299939,4480.761183299939,4480.761183299939,4480.828185499995,4483.759123699972,,,,4482.84278940002,4483.774812399992,4483.774812399992,4483.774812399992,,,,,,,,,,,,,,,up,12.265821799985133,None,None,,,P127,001,2025-02-27_12h55.43.994,posner_endo_new1,2024.2.4,60.140427904251105,2025-02-27 12h55.50.727125 +0000,
cube_l.png,0.1,10,catch,1,1,0,up,4.826018400024623,None,None,,,,,,,,,,,0,1,1,1,4483.774812399992,,,,,,,,,,,,,4483.759400799987,4483.774812399992,4483.774812399992,4483.774812399992,4488.604824599926,,,,4488.616437299992,4488.6267124000005,4488.6267124000005,4488.670244499925,4488.670596199925,4488.68648039992,4488.68648039992,4488.68648039992,4488.769772700034,4491.684048100025,,,,4490.784275999991,4491.7003837999655,4491.7003837999655,4491.7003837999655,,,,,,,,,,,,,,,up,4.826018400024623,None,None,,,P127,001,2025-02-27_12h55.43.994,posner_endo_new1,2024.2.4,60.140427904251105,2025-02-27 12h55.50.727125 +0000,
cube_l.png,0.1,0.31,invalid,2,2,0,up,1.8126818999880925,None,space,0.39904600009322166,None,,,,,,,,,0,2,2,2,4491.7003837999655,,,,,,,,,,,,,4491.684348299983,4491.7003837999655,4491.7003837999655,4491.7003837999655,4493.516217599972,,,,4493.527847599937,4493.537980500027,4493.537980500027,4493.581892899936,4493.582132200012,4493.598460700014,4493.598460700014,4493.598460700014,4493.681155300001,4493.999104299932,,,,,,,,,,,,,,,,,,,,,,up,1.8126818999880925,None,space,0.39904600009322166,None,P127,001,2025-02-27_12h55.43.994,posner_endo_new1,2024.2.4,60.140427904251105,2025-02-27 12h55.50.727125 +0000,
cube_l.png,0.1,0.31,invalid,3,3,0,up,5.04969729995355,None,space,0.3158141999738291,None,,,,,,,,,0,3,3,3,4494.0143752000295,,,,,,,,,,,,,4493.999441899941,4494.0143752000295,4494.0143752000295,4494.0143752000295,4499.077044399921,,,,4499.089753399952,4499.100215999992,4499.100215999992,4499.142891000025,4499.143171499949,4499.158971199999,4499.158971199999,4499.158971199999,4499.242702899966,4499.47616979992,,,,,,,,,,,,,,,,,,,,,,up,5.04969729995355,None,space,0.3158141999738291,None,P127,001,2025-02-27_12h55.43.994,posner_endo_new1,2024.2.4,60.140427904251105,2025-02-27 12h55.50.727125 +0000,
cube_l.png,0.1,-0.31,valid,4,4,0,up,2.7486922000534832,None,space,0.4374854000052437,None,,,,,,,,,0,4,4,4,4499.491933399928,,,,,,,,,,,,,4499.476397300023,4499.491933399928,4499.491933399928,4499.491933399928,4502.25693319994,,,,4502.265345499967,4502.27586709999,4502.27586709999,4502.322701900033,4502.322983099963,4502.339135200018,4502.339135200018,4502.339135200018,4502.422752799932,4502.789878399926,,,,,,,,,,,,,,,,,,,,,,up,2.7486922000534832,None,space,0.4374854000052437,None,P127,001,2025-02-27_12h55.43.994,posner_endo_new1,2024.2.4,60.140427904251105,2025-02-27 12h55.50.727125 +0000,
cube_r.png,0.1,-0.31,invalid,5,5,0,up,2.187528599984944,None,space,0.45860119990538806,None,,,,,,,,,0,5,5,5,4502.8052740999265,,,,,,,,,,,,,4502.7901064000325,4502.8052740999265,4502.8052740999265,4502.8052740999265,4505.003858699929,,,,4505.012260799995,4505.022997100023,4505.022997100023,4505.06982199999,4505.070100800018,4505.086281599943,4505.086281599943,4505.086281599943,4505.153137099929,4505.55333679996,,,,,,,,,,,,,,,,,,,,,,up,2.187528599984944,None,space,0.45860119990538806,None,P127,001,2025-02-27_12h55.43.994,posner_endo_new1,2024.2.4,60.140427904251105,2025-02-27 12h55.50.727125 +0000,
cube_r.png,0.1,0.31,valid,6,6,0,up,3.775095699937083,None,space,0.4489885000512004,None,,,,,,,,,0,6,6,6,4505.5693895999575,,,,,,,,,,,,,4505.553563199937,4505.5693895999575,4505.5693895999575,4505.5693895999575,4509.349516200018,,,,4509.357944899937,4509.36847570003,4509.36847570003,4509.415293499944,4509.415584699949,4509.432057900005,4509.432057900005,4509.432057900005,4509.515021299943,4509.88284179999,,,,,,,,,,,,,,,,,,,,,,up,3.775095699937083,None,space,0.4489885000512004,None,P127,001,2025-02-27_12h55.43.994,posner_endo_new1,2024.2.4,60.140427904251105,2025-02-27 12h55.50.727125 +0000,
cube_r.png,0.1,-0.31,invalid,7,7,0,up,3.534051999915391,None,space,0.37742659996729344,None,,,,,,,,,0,7,7,7,4509.898033299949,,,,,,,,,,,,,4509.883073100005,4509.898033299949,4509.898033299949,4509.898033299949,4513.445557600004,,,,4513.454056399991,4513.4643489000155,4513.4643489000155,4513.511197599932,4513.511474499945,4513.527941599954,4513.527941599954,4513.527941599954,4513.6111202000175,4513.911633200012,,,,,,,,,,,,,,,,,,,,,,up,3.534051999915391,None,space,0.37742659996729344,None,P127,001,2025-02-27_12h55.43.994,posner_endo_new1,2024.2.4,60.140427904251105,2025-02-27 12h55.50.727125 +0000,
cube_l.png,0.1,-0.31,valid,8,8,0,up,5.46543159999419,None,space,0.3811696999473497,None,,,,,,,,,0,8,8,8,4513.927340799943,,,,,,,,,,,,,4513.911859999993,4513.927340799943,4513.927340799943,4513.927340799943,4519.405830299947,,,,4519.414232400013,4519.424962199992,4519.424962199992,4519.47172999999,4519.472008000012,4519.488289500005,4519.488289500005,4519.488289500005,4519.554911699961,4519.872522399994,,,,,,,,,,,,,,,,,,,,,,up,5.46543159999419,None,space,0.3811696999473497,None,P127,001,2025-02-27_12h55.43.994,posner_endo_new1,2024.2.4,60.140427904251105,2025-02-27 12h55.50.727125 +0000,
cube_r.png,0.1,-0.31,invalid,9,9,0,up,1.968303699977696,None,space,0.3814865999156609,None,,,,,,,,,0,9,9,9,4519.888210400008,,,,,,,,,,,,,4519.87274989998,4519.888210400008,4519.888210400008,4519.888210400008,4521.870420599938,,,,4521.878871300025,4521.889202499995,4521.889202499995,4521.935908099986,4521.936186700012,4521.952671699924,4521.952671699924,4521.952671699924,4522.035852200002,4522.336319099995,,,,,,,,,,,,,,,,,,,,,,up,1.968303699977696,None,space,0.3814865999156609,None,P127,001,2025-02-27_12h55.43.994,posner_endo_new1,2024.2.4,60.140427904251105,2025-02-27 12h55.50.727125 +0000,
cube_l.png,0.1,0.31,invalid,10,10,0,up,5.808651200029999,None,space,0.3295861999504268,None,,,,,,,,,0,10,10,10,4522.352192700026,,,,,,,,,,,,,4522.336547499988,4522.352192700026,4522.352192700026,4522.352192700026,4528.163811399951,,,,4528.172202299931,4528.182669100002,4528.182669100002,4528.229491799953,4528.22977049998,4528.24601439992,4528.24601439992,4528.24601439992,4528.329182000016,4528.579896099982,,,,,,,,,,,,,,,,,,,,,,up,5.808651200029999,None,space,0.3295861999504268,None,P127,001,2025-02-27_12h55.43.994,posner_endo_new1,2024.2.4,60.140427904251105,2025-02-27 12h55.50.727125 +0000,
cube_r.png,0.1,-0.31,invalid,11,11,0,up,3.4766661000903696,None,space,0.3837159000104293,None,,,,,,,,,0,11,11,11,4528.595904999995,,,,,,,,,,,,,4528.580122999963,4528.595904999995,4528.595904999995,4528.595904999995,4532.076388299931,,,,4532.08277879993,4532.094240700011,4532.094240700011,4532.142306199996,4532.142543899943,4532.159093399998,4532.159093399998,4532.159093399998,4532.242242999957,4532.559501099982,,,,,,,,,,,,,,,,,,,,,,up,3.4766661000903696,None,space,0.3837159000104293,None,P127,001,2025-02-27_12h55.43.994,posner_endo_new1,2024.2.4,60.140427904251105,2025-02-27 12h55.50.727125 +0000,
cube_r.png,0.1,0.31,valid,12,12,0,up,3.489439799915999,None,space,0.3902217000722885,None,,,,,,,,,0,12,12,12,4532.575100300019,,,,,,,,,,,,,4532.559682199964,4532.575100300019,4532.575100300019,4532.575100300019,4536.072237199987,,,,4536.078244899982,4536.089907399961,4536.089907399961,4536.138321499922,4536.138554099947,4536.154969300027,4536.154969300027,4536.154969300027,4536.221666599973,4536.555270800018,,,,,,,,,,,,,,,,,,,,,,up,3.489439799915999,None,space,0.3902217000722885,None,P127,001,2025-02-27_12h55.43.994,posner_endo_new1,2024.2.4,60.140427904251105,2025-02-27 12h55.50.727125 +0000,
cube_l.png,0.1,10,catch,13,13,0,up,4.237506299978122,None,None,,,,,,,,,,,0,13,13,13,4536.570704499958,,,,,,,,,,,,,4536.555446199956,4536.570704499958,4536.570704499958,4536.570704499958,4540.817536799936,,,,4540.823516099947,4540.835134399938,4540.835134399938,4540.88335239992,4540.883579300018,4540.900061200024,4540.900061200024,4540.900061200024,4540.98334939999,4543.897100399947,,,,4542.998030000017,4543.913771499996,4543.913771499996,4543.913771499996,,,,,,,,,,,,,,,up,4.237506299978122,None,None,,,P127,001,2025-02-27_12h55.43.994,posner_endo_new1,2024.2.4,60.140427904251105,2025-02-27 12h55.50.727125 +0000,
cube_r.png,0.1,-0.31,invalid,14,14,0,up,1.1905361999524757,None,space,0.41876010003034025,None,,,,,,,,,0,14,14,14,4543.913771499996,,,,,,,,,,,,,4543.897269199952,4543.913771499996,4543.913771499996,4543.913771499996,4545.113136300002,,,,4545.11910599994,4545.13081449992,4545.13081449992,4545.179286199971,4545.179514899966,4545.1958410999505,4545.1958410999505,4545.1958410999505,4545.278970799991,4545.629201499978,,,,,,,,,,,,,,,,,,,,,,up,1.1905361999524757,None,space,0.41876010003034025,None,P127,001,2025-02-27_12h55.43.994,posner_endo_new1,2024.2.4,60.140427904251105,2025-02-27 12h55.50.727125 +0000,
cube_l.png,0.1,-0.31,valid,15,15,0,up,4.171259100083262,None,space,0.38213269994594157,None,,,,,,,,,0,15,15,15,4545.645415999927,,,,,,,,,,,,,4545.629382999963,4545.645415999927,4545.645415999927,4545.645415999927,4549.825043799938,,,,4549.831020999933,4549.842718399945,4549.842718399945,4549.891027000034,4549.891253300011,4549.907577399979,4549.907577399979,4549.907577399979,4549.990839999984,4550.291423299932,,,,,,,,,,,,,,,,,,,,,,up,4.171259100083262,None,space,0.38213269994594157,None,P127,001,2025-02-27_12h55.43.994,posner_endo_new1,2024.2.4,60.140427904251105,2025-02-27 12h55.50.727125 +0000,
cube_r.png,0.1,10,catch,16,16,0,up,4.4694944999646395,None,None,,,,,,,,,,,0,16,16,16,4550.307158899959,,,,,,,,,,,,,4550.291599199991,4550.307158899959,4550.307158899959,4550.307158899959,4554.786631399998,,,,4554.792716700002,4554.804650799953,4554.804650799953,4554.852591899922,4554.852819900028,4554.869100800017,4554.869100800017,4554.869100800017,4554.9524691000115,4557.866513099987,,,,4556.966949700029,4557.8825690000085,4557.8825690000085,4557.8825690000085,,,,,,,,,,,,,,,up,4.4694944999646395,None,None,,,P127,001,2025-02-27_12h55.43.994,posner_endo_new1,2024.2.4,60.140427904251105,2025-02-27 12h55.50.727125 +0000,
cube_r.png,0.1,10,catch,17,17,0,up,1.910207600099966,None,None,,,,,,,,,,,0,17,17,17,4557.8825690000085,,,,,,,,,,,,,4557.866678299964,4557.8825690000085,4557.8825690000085,4557.8825690000085,4559.798175300006,,,,4559.804184700013,4559.815694799996,4559.815694799996,4559.864085100009,4559.864311299985,4559.880776899983,4559.880776899983,4559.880776899983,4559.947362100007,4562.877783000004,,,,4561.961953299935,4562.894313400029,4562.894313400029,4562.894313400029,,,,,,,,,,,,,,,up,1.910207600099966,None,None,,,P127,001,2025-02-27_12h55.43.994,posner_endo_new1,2024.2.4,60.140427904251105,2025-02-27 12h55.50.727125 +0000,
cube_l.png,0.1,0.31,invalid,18,18,0,up,0.6180028000380844,None,space,0.3946805000305176,None,,,,,,,,,0,18,18,18,4562.894313400029,,,,,,,,,,,,,4562.877948199981,4562.894313400029,4562.894313400029,4562.894313400029,4563.527497199946,,,,4563.533528700005,4563.545208299998,4563.545208299998,4563.593501999974,4563.593729799963,4563.6102187000215,4563.6102187000215,4563.6102187000215,4563.676832200028,4564.010196999996,,,,,,,,,,,,,,,,,,,,,,up,0.6180028000380844,None,space,0.3946805000305176,None,P127,001,2025-02-27_12h55.43.994,posner_endo_new1,2024.2.4,60.140427904251105,2025-02-27 12h55.50.727125 +0000,
cube_l.png,0.1,10,catch,19,19,0,up,3.9738382000941783,None,None,,,,,,,,,,,0,19,19,19,4564.026668399922,,,,,,,,,,,,,4564.0103715999285,4564.026668399922,4564.026668399922,4564.026668399922,4568.0064980000025,,,,4568.012469799956,4568.024243199965,4568.024243199965,4568.07244639995,4568.072673999937,4568.088868099963,4568.088868099963,4568.088868099963,4568.155621699989,4571.086057499982,,,,4570.170150200021,4571.102583499975,4571.102583499975,4571.102583499975,,,,,,,,,,,,,,,up,3.9738382000941783,None,None,,,P127,001,2025-02-27_12h55.43.994,posner_endo_new1,2024.2.4,60.140427904251105,2025-02-27 12h55.50.727125 +0000,
cube_l.png,0.1,0.31,invalid,20,20,0,up,0.498275899910368,None,space,0.47078790003433824,None,,,,,,,,,0,20,20,20,4571.102583499975,,,,,,,,,,,,,4571.086219699937,4571.102583499975,4571.102583499975,4571.102583499975,4571.6025681999745,,,,4571.608610800002,4571.620200900012,4571.620200900012,4571.668928800034,4571.669155600015,4571.685468600015,4571.685468600015,4571.685468600015,4571.751948099933,4572.1683128,,,,,,,,,,,,,,,,,,,,,,up,0.498275899910368,None,space,0.47078790003433824,None,P127,001,2025-02-27_12h55.43.994,posner_endo_new1,2024.2.4,60.140427904251105,2025-02-27 12h55.50.727125 +0000,
cube_l.png,0.1,-0.31,valid,21,21,0,up,4.063714800053276,None,space,0.4684855999657884,None,,,,,,,,,0,21,21,21,4572.184890100034,,,,,,,,,,,,,4572.168503199937,4572.184890100034,4572.184890100034,4572.184890100034,4576.264980099979,,,,4576.270934799919,4576.282722100033,4576.282722100033,4576.330651300028,4576.330880600028,4576.347185099963,4576.347185099963,4576.347185099963,4576.4303511999315,4576.8306592999725,,,,,,,,,,,,,,,,,,,,,,up,4.063714800053276,None,space,0.4684855999657884,None,P127,001,2025-02-27_12h55.43.994,posner_endo_new1,2024.2.4,60.140427904251105,2025-02-27 12h55.50.727125 +0000,
cube_r.png,0.1,0.31,valid,22,22,0,up,3.7856341000879183,None,space,0.4019055000972003,None,,,,,,,,,0,22,22,22,4576.846873300034,,,,,,,,,,,,,4576.830835600034,4576.846873300034,4576.846873300034,4576.846873300034,4580.64336639992,,,,4580.649410899961,4580.6609962999355,4580.6609962999355,4580.709614299936,4580.709843099932,4580.726000100025,4580.726000100025,4580.726000100025,4580.79279769992,4581.143202299951,,,,,,,,,,,,,,,,,,,,,,up,3.7856341000879183,None,space,0.4019055000972003,None,P127,001,2025-02-27_12h55.43.994,posner_endo_new1,2024.2.4,60.140427904251105,2025-02-27 12h55.50.727125 +0000,
cube_r.png,0.1,-0.31,invalid,23,23,0,up,3.7858218000037596,None,space,0.36910249991342425,None,,,,,,,,,0,23,23,23,4581.158996199956,,,,,,,,,,,,,4581.143377700006,4581.158996199956,4581.158996199956,4581.158996199956,4584.955716999946,,,,4584.961680299952,4584.973408399965,4584.973408399965,4585.021981999977,4585.022213299992,4585.038328099996,4585.038328099996,4585.038328099996,4585.104814499966,4585.422091900022,,,,,,,,,,,,,,,,,,,,,,up,3.7858218000037596,None,space,0.36910249991342425,None,P127,001,2025-02-27_12h55.43.994,posner_endo_new1,2024.2.4,60.140427904251105,2025-02-27 12h55.50.727125 +0000,
cube_r.png,0.1,0.31,valid,24,24,0,up,7.1622570001054555,None,space,0.43311509990599006,None,,,,,,,,,0,24,24,24,4585.438070200034,,,,,,,,,,,,,4585.422275000019,4585.438070200034,4585.438070200034,4585.438070200034,4592.614680300001,,,,4592.620691100019,4592.632185299997,4592.632185299997,4592.680222900002,4592.6804477999685,4592.697192699998,4592.697192699998,4592.697192699998,4592.763822700013,4593.147231700015,,,,,,,,,,,,,,,,,,,,,,up,7.1622570001054555,None,space,0.43311509990599006,None,P127,001,2025-02-27_12h55.43.994,posner_endo_new1,2024.2.4,60.140427904251105,2025-02-27 12h55.50.727125 +0000,
cube_r.png,0.1,-0.31,invalid,25,25,0,up,6.109532699920237,None,space,0.3762376999948174,None,,,,,,,,,0,25,25,25,4593.163267199998,,,,,,,,,,,,,4593.1474063999485,4593.163267199998,4593.163267199998,4593.163267199998,4599.274625599966,,,,4599.280640700017,4599.292281399947,4599.292281399947,4599.340448100003,4599.340673299972,4599.357038100017,4599.357038100017,4599.357038100017,4599.42351220001,4599.740785899921,,,,,,,,,,,,,,,,,,,,,,up,6.109532699920237,None,space,0.3762376999948174,None,P127,001,2025-02-27_12h55.43.994,posner_endo_new1,2024.2.4,60.140427904251105,2025-02-27 12h55.50.727125 +0000,
cube_l.png,0.1,-0.31,valid,26,26,0,up,15.099796800059266,None,space,0.3277194999391213,None,,,,,,,,,0,26,26,26,4599.756598499953,,,,,,,,,,,,,4599.740961599979,4599.756598499953,4599.756598499953,4599.756598499953,4614.858781800023,,,,4614.864755199989,4614.876285000006,4614.876285000006,4614.924419899937,4614.924647599924,4614.941057099961,4614.941057099961,4614.941057099961,4615.024164899951,4615.274376699934,,,,,,,,,,,,,,,,,,,,,,up,15.099796800059266,None,space,0.3277194999391213,None,P127,001,2025-02-27_12h55.43.994,posner_endo_new1,2024.2.4,60.140427904251105,2025-02-27 12h55.50.727125 +0000,
cube_r.png,0.1,0.31,valid,27,27,0,up,4.278012300026603,None,space,0.3353201999561861,None,,,,,,,,,0,27,27,27,4615.290784699959,,,,,,,,,,,,,4615.274559799931,4615.290784699959,4615.290784699959,4615.290784699959,4619.570649200003,,,,4619.580322999973,4619.590462199994,4619.590462199994,4619.636100100004,4619.636408500024,4619.652600600035,4619.652600600035,4619.652600600035,4619.736124299932,4620.003627500031,,,,,,,,,,,,,,,,,,,,,,up,4.278012300026603,None,space,0.3353201999561861,None,P127,001,2025-02-27_12h55.43.994,posner_endo_new1,2024.2.4,60.140427904251105,2025-02-27 12h55.50.727125 +0000,
cube_r.png,0.1,10,catch,28,28,0,up,4.501694699982181,None,None,,,,,,,,,,,0,28,28,28,4620.019257599954,,,,,,,,,,,,,4620.00388809992,4620.019257599954,4620.019257599954,4620.019257599954,4624.532379099983,,,,4624.542097399943,4624.552335400018,4624.552335400018,4624.597759700031,4624.59806879994,4624.614525599987,4624.614525599987,4624.614525599987,4624.697737699957,4627.611969699967,,,,4626.7121196999215,4627.627786100027,4627.627786100027,4627.627786100027,,,,,,,,,,,,,,,up,4.501694699982181,None,None,,,P127,001,2025-02-27_12h55.43.994,posner_endo_new1,2024.2.4,60.140427904251105,2025-02-27 12h55.50.727125 +0000,
cube_r.png,0.1,0.31,valid,29,29,0,up,3.708772399928421,None,space,0.3943889000220224,None,,,,,,,,,0,29,29,29,4627.627786100027,,,,,,,,,,,,,4627.612234100001,4627.627786100027,4627.627786100027,4627.627786100027,4631.3416545999935,,,,4631.351358999964,4631.3615160000045,4631.3615160000045,4631.407529999968,4631.4078516999725,4631.423892699997,4631.423892699997,4631.423892699997,4631.490548099973,4631.8245180000085,,,,,,,,,,,,,,,,,,,,,,up,3.708772399928421,None,space,0.3943889000220224,None,P127,001,2025-02-27_12h55.43.994,posner_endo_new1,2024.2.4,60.140427904251105,2025-02-27 12h55.50.727125 +0000,
cube_r.png,0.1,0.31,valid,30,30,0,up,3.519917599973269,None,space,0.3978006999241188,None,,,,,,,,,0,30,30,30,4631.840328800026,,,,,,,,,,,,,4631.824778600014,4631.840328800026,4631.840328800026,4631.840328800026,4635.371094199945,,,,4635.380807899986,4635.391066899989,4635.391066899989,4635.437008299981,4635.437337299925,4635.453464500024,4635.453464500024,4635.453464500024,4635.536632500007,4635.85421489994,,,,,,,,,,,,,,,,,,,,,,up,3.519917599973269,None,space,0.3978006999241188,None,P127,001,2025-02-27_12h55.43.994,posner_endo_new1,2024.2.4,60.140427904251105,2025-02-27 12h55.50.727125 +0000,
cube_l.png,0.1,-0.31,valid,31,31,0,up,7.204257700010203,None,space,0.41327000001911074,None,,,,,,,,,0,31,31,31,4635.869348099921,,,,,,,,,,,,,4635.854471700033,4635.869348099921,4635.869348099921,4635.869348099921,4643.0797449999955,,,,4643.089410100016,4643.099510199972,4643.099510199972,4643.14577599999,4643.146084500011,4643.162252799957,4643.162252799957,4643.162252799957,4643.228590399958,4643.579282699968,,,,,,,,,,,,,,,,,,,,,,up,7.204257700010203,None,space,0.41327000001911074,None,P127,001,2025-02-27_12h55.43.994,posner_endo_new1,2024.2.4,60.140427904251105,2025-02-27 12h55.50.727125 +0000,
cube_r.png,0.1,0.31,valid,32,32,0,up,4.886320000048727,None,space,0.3456769000040367,None,,,,,,,,,0,32,32,32,4643.594805300003,,,,,,,,,,,,,4643.579550500028,4643.594805300003,4643.594805300003,4643.594805300003,4648.491134600015,,,,4648.500917600002,4648.51110829995,4648.51110829995,4648.556850499939,4648.557160199969,4648.573389300029,4648.573389300029,4648.573389300029,4648.6563499999465,4648.923817900009,,,,,,,,,,,,,,,,,,,,,,up,4.886320000048727,None,space,0.3456769000040367,None,P127,001,2025-02-27_12h55.43.994,posner_endo_new1,2024.2.4,60.140427904251105,2025-02-27 12h55.50.727125 +0000,
cube_r.png,0.1,-0.31,invalid,33,33,0,up,5.765199000015855,None,space,0.34490569995250553,None,,,,,,,,,0,33,33,33,4648.939350800007,,,,,,,,,,,,,4648.9240825999295,4648.939350800007,4648.939350800007,4648.939350800007,4654.718059899984,,,,4654.7278041000245,4654.737922100001,4654.737922100001,4654.783945000032,4654.784250600031,4654.8004389000125,4654.8004389000125,4654.8004389000125,4654.8837700999575,4655.151072199922,,,,,,,,,,,,,,,,,,,,,,up,5.765199000015855,None,space,0.34490569995250553,None,P127,001,2025-02-27_12h55.43.994,posner_endo_new1,2024.2.4,60.140427904251105,2025-02-27 12h55.50.727125 +0000,
cube_r.png,0.1,10,catch,34,34,0,up,6.4018345000222325,None,None,,,,,,,,,,,0,34,34,34,4655.166385899996,,,,,,,,,,,,,4655.151329500019,4655.166385899996,4655.166385899996,4655.166385899996,4661.577727099997,,,,4661.587537399959,4661.597798299976,4661.597798299976,4661.643736799946,4661.644042699947,4661.660206899978,4661.660206899978,4661.660206899978,4661.72627470002,4664.657600999926,,,,4663.7412734000245,4664.673661699984,4664.673661699984,4664.673661699984,,,,,,,,,,,,,,,up,6.4018345000222325,None,None,,,P127,001,2025-02-27_12h55.43.994,posner_endo_new1,2024.2.4,60.140427904251105,2025-02-27 12h55.50.727125 +0000,
cube_r.png,0.1,0.31,valid,35,35,0,up,6.191522900015116,None,space,0.4616965999593958,None,,,,,,,,,0,35,35,35,4664.673661699984,,,,,,,,,,,,,4664.657765900018,4664.673661699984,4664.673661699984,4664.673661699984,4670.868125399924,,,,4670.877812299994,4670.888028200017,4670.888028200017,4670.934162399964,4670.934469399974,4670.950155299972,4670.950155299972,4670.950155299972,4671.033752199961,4671.417555399938,,,,,,,,,,,,,,,,,,,,,,up,6.191522900015116,None,space,0.4616965999593958,None,P127,001,2025-02-27_12h55.43.994,posner_endo_new1,2024.2.4,60.140427904251105,2025-02-27 12h55.50.727125 +0000,
cube_r.png,0.1,-0.31,invalid,36,36,0,up,5.9593181000091136,None,space,0.4257123999996111,None,,,,,,,,,0,36,36,36,4671.4333528999705,,,,,,,,,,,,,4671.417816599947,4671.4333528999705,4671.4333528999705,4671.4333528999705,4677.394963899977,,,,4677.404702599975,4677.414883599966,4677.414883599966,4677.460719999974,4677.461037699948,4677.476892199949,4677.476892199949,4677.476892199949,4677.5601272999775,4677.911237600027,,,,,,,,,,,,,,,,,,,,,,up,5.9593181000091136,None,space,0.4257123999996111,None,P127,001,2025-02-27_12h55.43.994,posner_endo_new1,2024.2.4,60.140427904251105,2025-02-27 12h55.50.727125 +0000,
cube_l.png,0.1,0.31,invalid,37,37,0,up,3.641734499949962,None,space,0.40091630001552403,None,,,,,,,,,0,37,37,37,4677.926492600003,,,,,,,,,,,,,4677.911493399995,4677.926492600003,4677.926492600003,4677.926492600003,4681.573820299935,,,,4681.583480200032,4681.593642099993,4681.593642099993,4681.639724200009,4681.640031000017,4681.656044599949,4681.656044599949,4681.656044599949,4681.739380799932,4682.073527500033,,,,,,,,,,,,,,,,,,,,,,up,3.641734499949962,None,space,0.40091630001552403,None,P127,001,2025-02-27_12h55.43.994,posner_endo_new1,2024.2.4,60.140427904251105,2025-02-27 12h55.50.727125 +0000,
cube_l.png,0.1,0.31,invalid,38,38,0,up,5.935460000066087,None,space,0.3683428999502212,None,,,,,,,,,0,38,38,38,4682.089314599987,,,,,,,,,,,,,4682.073781799991,4682.089314599987,4682.089314599987,4682.089314599987,4688.033850700012,,,,4688.043518099934,4688.053612399963,4688.053612399963,4688.099547300022,4688.099858199945,4688.116344399983,4688.116344399983,4688.116344399983,4688.199588899966,4688.500366799999,,,,,,,,,,,,,,,,,,,,,,up,5.935460000066087,None,space,0.3683428999502212,None,P127,001,2025-02-27_12h55.43.994,posner_endo_new1,2024.2.4,60.140427904251105,2025-02-27 12h55.50.727125 +0000,
cube_r.png,0.1,0.31,valid,39,39,0,up,6.204594100010581,None,space,0.3432497999165207,None,,,,,,,,,0,39,39,39,4688.51567569992,,,,,,,,,,,,,4688.500633199932,4688.51567569992,4688.51567569992,4688.51567569992,4694.726838200004,,,,4694.73328419996,4694.744846499991,4694.744846499991,4694.793121699942,4694.793350599939,4694.809654699988,4694.809654699988,4694.809654699988,4694.876297899988,4695.159762999974,,,,,,,,,,,,,,,,,,,,,,up,6.204594100010581,None,space,0.3432497999165207,None,P127,001,2025-02-27_12h55.43.994,posner_endo_new1,2024.2.4,60.140427904251105,2025-02-27 12h55.50.727125 +0000,
cube_l.png,0.1,0.31,invalid,40,40,0,up,4.560819600010291,None,space,0.4710436000023037,None,,,,,,,,,0,40,40,40,4695.175757499994,,,,,,,,,,,,,4695.1599405999295,4695.175757499994,4695.175757499994,4695.175757499994,4699.7385256999405,,,,4699.744514300022,4699.756159699988,4699.756159699988,4699.804114699946,4699.804340100032,4699.821148499963,4699.821148499963,4699.821148499963,4699.88779399998,4700.30470410001,,,,,,,,,,,,,,,,,,,,,,up,4.560819600010291,None,space,0.4710436000023037,None,P127,001,2025-02-27_12h55.43.994,posner_endo_new1,2024.2.4,60.140427904251105,2025-02-27 12h55.50.727125 +0000,
cube_l.png,0.1,10,catch,41,41,0,up,3.9282462999690324,None,None,,,,,,,,,,,0,41,41,41,4700.320674999966,,,,,,,,,,,,,4700.304878799943,4700.320674999966,4700.320674999966,4700.320674999966,4704.250783300027,,,,4704.256745100021,4704.268383899936,4704.268383899936,4704.31667770003,4704.316912699956,4704.333183399984,4704.333183399984,4704.333183399984,4704.399699999951,4707.330412199954,,,,4706.414247100009,4707.3467592999805,4707.3467592999805,4707.3467592999805,,,,,,,,,,,,,,,up,3.9282462999690324,None,None,,,P127,001,2025-02-27_12h55.43.994,posner_endo_new1,2024.2.4,60.140427904251105,2025-02-27 12h55.50.727125 +0000,
cube_l.png,0.1,-0.31,valid,42,42,0,up,2.2222212000051513,None,space,0.543029300053604,None,,,,,,,,,0,42,42,42,4707.3467592999805,,,,,,,,,,,,,4707.330576699926,4707.3467592999805,4707.3467592999805,4707.3467592999805,4709.578479000018,,,,4709.584527399973,4709.596087699989,4709.596087699989,4709.644384299987,4709.644609299954,4709.6610093000345,4709.6610093000345,4709.6610093000345,4709.727533999947,4710.2111290999455,,,,,,,,,,,,,,,,,,,,,,up,2.2222212000051513,None,space,0.543029300053604,None,P127,001,2025-02-27_12h55.43.994,posner_endo_new1,2024.2.4,60.140427904251105,2025-02-27 12h55.50.727125 +0000,
cube_l.png,0.1,10,catch,43,43,0,up,3.5977777000516653,None,None,,,,,,,,,,,0,43,43,43,4710.227179599926,,,,,,,,,,,,,4710.21130179998,4710.227179599926,4710.227179599926,4710.227179599926,4713.840676799999,,,,4713.846688300022,4713.858351700008,4713.858351700008,4713.906526300008,4713.906752699986,4713.923248099978,4713.923248099978,4713.923248099978,4713.989721599966,4716.920902799931,,,,4716.004495400004,4716.936896199943,4716.936896199943,4716.936896199943,,,,,,,,,,,,,,,up,3.5977777000516653,None,None,,,P127,001,2025-02-27_12h55.43.994,posner_endo_new1,2024.2.4,60.140427904251105,2025-02-27 12h55.50.727125 +0000,
cube_l.png,0.1,0.31,invalid,44,44,0,up,1.4721356000518426,None,space,0.37467749998904765,None,,,,,,,,,0,44,44,44,4716.936896199943,,,,,,,,,,,,,4716.921067700023,4716.936896199943,4716.936896199943,4716.936896199943,4718.419198599993,,,,4718.425276699942,4718.4369646999985,4718.4369646999985,4718.485258999979,4718.4854892999865,4718.501909899991,4718.501909899991,4718.501909899991,4718.568531499943,4718.885657100007,,,,,,,,,,,,,,,,,,,,,,up,1.4721356000518426,None,space,0.37467749998904765,None,P127,001,2025-02-27_12h55.43.994,posner_endo_new1,2024.2.4,60.140427904251105,2025-02-27 12h55.50.727125 +0000,
cube_l.png,0.1,0.31,invalid,45,45,0,up,1.5803045999491587,None,space,0.5069487999426201,None,,,,,,,,,0,45,45,45,4718.9015886000125,,,,,,,,,,,,,4718.88583569997,4718.9015886000125,4718.9015886000125,4718.9015886000125,4720.484274699935,,,,4720.490259699989,4720.502156800008,4720.502156800008,4720.549717799993,4720.549943399965,4720.566410899977,4720.566410899977,4720.566410899977,4720.64966799994,4721.083347599953,,,,,,,,,,,,,,,,,,,,,,up,1.5803045999491587,None,space,0.5069487999426201,None,P127,001,2025-02-27_12h55.43.994,posner_endo_new1,2024.2.4,60.140427904251105,2025-02-27 12h55.50.727125 +0000,
cube_r.png,0.1,0.31,valid,46,46,0,up,6.2138506000628695,None,space,0.41946040000766516,None,,,,,,,,,0,46,46,46,4721.099247899954,,,,,,,,,,,,,4721.083521799999,4721.099247899954,4721.099247899954,4721.099247899954,4727.326477300026,,,,4727.332539699972,4727.344271400012,4727.344271400012,4727.3929336,4727.39316560002,4727.409707100014,4727.409707100014,4727.409707100014,4727.476069999975,4727.842918899958,,,,,,,,,,,,,,,,,,,,,,up,6.2138506000628695,None,space,0.41946040000766516,None,P127,001,2025-02-27_12h55.43.994,posner_endo_new1,2024.2.4,60.140427904251105,2025-02-27 12h55.50.727125 +0000,
cube_l.png,0.1,-0.31,valid,47,47,0,up,6.766174099990167,None,space,0.40326579997781664,None,,,,,,,,,0,47,47,47,4727.8588545999955,,,,,,,,,,,,,4727.843094400014,4727.8588545999955,4727.8588545999955,4727.8588545999955,4734.6359930000035,,,,4734.642238599947,4734.653861699975,4734.653861699975,4734.702102500014,4734.702329499996,4734.718730199966,4734.718730199966,4734.718730199966,4734.784891400021,4735.135769099928,,,,,,,,,,,,,,,,,,,,,,up,6.766174099990167,None,space,0.40326579997781664,None,P127,001,2025-02-27_12h55.43.994,posner_endo_new1,2024.2.4,60.140427904251105,2025-02-27 12h55.50.727125 +0000,
cube_r.png,0.1,-0.31,invalid,48,48,0,up,4.313280700007454,None,space,0.3974893999984488,None,,,,,,,,,0,48,48,48,4735.151392700034,,,,,,,,,,,,,4735.135950800031,4735.151392700034,4735.151392700034,4735.151392700034,4739.48096299998,,,,4739.487000199966,4739.4984903000295,4739.4984903000295,4739.54732969997,4739.54755639995,4739.563902399968,4739.563902399968,4739.563902399968,4739.630135099986,4739.964165400015,,,,,,,,,,,,,,,,,,,,,,up,4.313280700007454,None,space,0.3974893999984488,None,P127,001,2025-02-27_12h55.43.994,posner_endo_new1,2024.2.4,60.140427904251105,2025-02-27 12h55.50.727125 +0000,
cube_r.png,0.1,10,catch,49,49,0,up,5.429916099994443,None,None,,,,,,,,,,,0,49,49,49,4739.980030899984,,,,,,,,,,,,,4739.964340899955,4739.980030899984,4739.980030899984,4739.980030899984,4745.425307199941,,,,4745.4312555999495,4745.443297700025,4745.443297700025,4745.491108799935,4745.491337699932,4745.507695199922,4745.507695199922,4745.507695199922,4745.574432699941,4748.505051599932,,,,4747.58878380002,4748.520981999929,4748.520981999929,4748.520981999929,,,,,,,,,,,,,,,up,5.429916099994443,None,None,,,P127,001,2025-02-27_12h55.43.994,posner_endo_new1,2024.2.4,60.140427904251105,2025-02-27 12h55.50.727125 +0000,
cube_l.png,0.1,-0.31,valid,50,50,0,up,2.535852500004694,None,space,0.4567408999428153,None,,,,,,,,,0,50,50,50,4748.520981999929,,,,,,,,,,,,,4748.505213900004,4748.520981999929,4748.520981999929,4748.520981999929,4751.069438799983,,,,4751.075491899974,4751.087030999945,4751.087030999945,4751.135551000014,4751.1357761999825,4751.152041599969,4751.152041599969,4751.152041599969,4751.21871159994,4751.618734700023,,,,,,,,,,,,,,,,,,,,,,up,2.535852500004694,None,space,0.4567408999428153,None,P127,001,2025-02-27_12h55.43.994,posner_endo_new1,2024.2.4,60.140427904251105,2025-02-27 12h55.50.727125 +0000,
cube_l.png,0.1,-0.31,valid,51,51,0,up,4.342574900016189,None,space,0.3600976999150589,None,,,,,,,,,0,51,51,51,4751.634667000035,,,,,,,,,,,,,4751.618908399949,4751.634667000035,4751.634667000035,4751.634667000035,4755.980480600032,,,,4755.986515299999,4755.9983230999205,4755.9983230999205,4756.047097399947,4756.047329099965,4756.063277299982,4756.063277299982,4756.063277299982,4756.130145199946,4756.430617899983,,,,,,,,,,,,,,,,,,,,,,up,4.342574900016189,None,space,0.3600976999150589,None,P127,001,2025-02-27_12h55.43.994,posner_endo_new1,2024.2.4,60.140427904251105,2025-02-27 12h55.50.727125 +0000,
cube_r.png,0.1,-0.31,invalid,52,52,0,up,1.706361599965021,None,space,0.4815701999468729,None,,,,,,,,,0,52,52,52,4756.446412199992,,,,,,,,,,,,,4756.430792000028,4756.446412199992,4756.446412199992,4756.446412199992,4758.161862000008,,,,4758.167864799965,4758.179526099935,4758.179526099935,4758.228300699964,4758.228534099995,4758.244661399978,4758.244661399978,4758.244661399978,4758.311423799954,4758.728481299942,,,,,,,,,,,,,,,,,,,,,,up,1.706361599965021,None,space,0.4815701999468729,None,P127,001,2025-02-27_12h55.43.994,posner_endo_new1,2024.2.4,60.140427904251105,2025-02-27 12h55.50.727125 +0000,
cube_l.png,0.1,-0.31,valid,53,53,0,up,6.081014100112952,None,space,0.384483200032264,None,,,,,,,,,0,53,53,53,4758.744041900034,,,,,,,,,,,,,4758.728657400003,4758.744041900034,4758.744041900034,4758.744041900034,4764.8387742999475,,,,4764.844732700032,4764.856301799999,4764.856301799999,4764.90471459995,4764.904940499924,4764.921283200034,4764.921283200034,4764.921283200034,4764.987705399981,4765.321712999954,,,,,,,,,,,,,,,,,,,,,,up,6.081014100112952,None,space,0.384483200032264,None,P127,001,2025-02-27_12h55.43.994,posner_endo_new1,2024.2.4,60.140427904251105,2025-02-27 12h55.50.727125 +0000,
cube_r.png,0.1,10,catch,54,54,0,up,6.831268900074065,None,None,,,,,,,,,,,0,54,54,54,4765.33762529993,,,,,,,,,,,,,4765.321887400001,4765.33762529993,4765.33762529993,4765.33762529993,4772.180973300012,,,,4772.187061499921,4772.198762399959,4772.198762399959,4772.247343900031,4772.2475714000175,4772.26380700001,4772.26380700001,4772.26380700001,4772.330281100003,4775.26133020001,,,,4774.345103899948,4775.277432999923,4775.277432999923,4775.277432999923,,,,,,,,,,,,,,,up,6.831268900074065,None,None,,,P127,001,2025-02-27_12h55.43.994,posner_endo_new1,2024.2.4,60.140427904251105,2025-02-27 12h55.50.727125 +0000,
cube_l.png,0.1,0.31,invalid,55,55,0,up,3.451656599994749,None,space,0.4557418000185862,None,,,,,,,,,0,55,55,55,4775.277432999923,,,,,,,,,,,,,4775.261493699974,4775.277432999923,4775.277432999923,4775.277432999923,4778.74103169993,,,,4778.747040699935,4778.758768499945,4778.758768499945,4778.807155999937,4778.807381500024,4778.823702299967,4778.823702299967,4778.823702299967,4778.890511099948,4779.290646099951,,,,,,,,,,,,,,,,,,,,,,up,3.451656599994749,None,space,0.4557418000185862,None,P127,001,2025-02-27_12h55.43.994,posner_endo_new1,2024.2.4,60.140427904251105,2025-02-27 12h55.50.727125 +0000,
cube_l.png,0.1,-0.31,valid,56,56,0,up,5.486009999993257,None,space,0.4216703000711277,None,,,,,,,,,0,56,56,56,4779.3064740999835,,,,,,,,,,,,,4779.290822800016,4779.3064740999835,4779.3064740999835,4779.3064740999835,4784.8017860000255,,,,4784.80784959998,4784.8196092,4784.8196092,4784.867201899993,4784.867427699966,4784.8842224000255,4784.8842224000255,4784.8842224000255,4784.967330400017,4785.317771399976,,,,,,,,,,,,,,,,,,,,,,up,5.486009999993257,None,space,0.4216703000711277,None,P127,001,2025-02-27_12h55.43.994,posner_endo_new1,2024.2.4,60.140427904251105,2025-02-27 12h55.50.727125 +0000,
cube_r.png,0.1,0.31,valid,57,57,0,up,16.56306980003137,None,space,0.29316819994710386,None,,,,,,,,,0,57,57,57,4785.33371139993,,,,,,,,,,,,,4785.317952699959,4785.33371139993,4785.33371139993,4785.33371139993,4801.900882199989,,,,4801.906953199999,4801.91870109993,4801.91870109993,4801.96676859993,4801.96700309997,4801.983328599948,4801.983328599948,4801.983328599948,4802.049759999965,4802.283720699954,,,,,,,,,,,,,,,,,,,,,,up,16.56306980003137,None,space,0.29316819994710386,None,P127,001,2025-02-27_12h55.43.994,posner_endo_new1,2024.2.4,60.140427904251105,2025-02-27 12h55.50.727125 +0000,
cube_r.png,0.1,-0.31,invalid,58,58,0,up,5.3333183999639004,None,space,0.43014249997213483,None,,,,,,,,,0,58,58,58,4802.299745899974,,,,,,,,,,,,,4802.28389630001,4802.299745899974,4802.299745899974,4802.299745899974,4807.644856299972,,,,4807.650921499939,4807.662464699941,4807.662464699941,4807.71080989996,4807.711036499939,4807.72753309994,4807.72753309994,4807.72753309994,4807.79391899996,4808.161276099971,,,,,,,,,,,,,,,,,,,,,,up,5.3333183999639004,None,space,0.43014249997213483,None,P127,001,2025-02-27_12h55.43.994,posner_endo_new1,2024.2.4,60.140427904251105,2025-02-27 12h55.50.727125 +0000,
cube_l.png,0.1,0.31,invalid,59,59,0,up,5.255598500021733,None,space,0.4124944000504911,None,,,,,,,,,0,59,59,59,4808.177142399945,,,,,,,,,,,,,4808.161451000022,4808.177142399945,4808.177142399945,4808.177142399945,4813.439247000031,,,,4813.451994200004,4813.4620368999895,4813.4620368999895,4813.504890699987,4813.505154000013,4813.521194999921,4813.521194999921,4813.521194999921,4813.604812499951,4813.938390900032,,,,,,,,,,,,,,,,,,,,,,up,5.255598500021733,None,space,0.4124944000504911,None,P127,001,2025-02-27_12h55.43.994,posner_endo_new1,2024.2.4,60.140427904251105,2025-02-27 12h55.50.727125 +0000,
