cue_img,cue_soa,target_y,trial,thisN,thisTrialN,thisRepN,key_control2.keys,key_control2.rt,key_control2.duration,key_resp.keys,key_resp.rt,key_resp.duration,practice.thisRepN,practice.thisTrialN,practice.thisN,practice.thisIndex,block1.thisRepN,block1.thisTrialN,block1.thisN,block1.thisIndex,block2.thisRepN,block2.thisTrialN,block2.thisN,block2.thisIndex,thisRow.t,notes,instructions.started,instructions_txt.started,key_control.started,instructions.stopped,key_control.keys,key_control.rt,key_control.duration,ready.started,ready_txt.started,ready_txt.stopped,ready.stopped,fix.started,fixation.started,key_control2.started,fixation_cross.started,fix.stopped,practice.key_control2.keys,practice.key_control2.rt,practice.key_control2.duration,cue.started,cube.started,fixation_cross_cue.started,cue.stopped,target.started,fixation_target.started,fixation_cross_target.started,key_resp.started,star.started,target.stopped,practice.key_resp.keys,practice.key_resp.rt,practice.key_resp.duration,star.stopped,fixation_target.stopped,fixation_cross_target.stopped,key_resp.stopped,block1.key_control2.keys,block1.key_control2.rt,block1.key_control2.duration,block1.key_resp.keys,block1.key_resp.rt,block1.key_resp.duration,break_2.started,text.started,key_control3.started,text.stopped,break_2.stopped,key_control3.keys,key_control3.rt,key_control3.duration,block2.key_control2.keys,block2.key_control2.rt,block2.key_control2.duration,block2.key_resp.keys,block2.key_resp.rt,block2.key_resp.duration,participant,session,date,expName,psychopyVersion,frameRate,expStart,
,,,,,,,,,,,,,,,,,,,,,,,,,,,0.00742269994225353,0.027018400025554,0.027018400025554,145.8828424999956,up,145.84992259996943,None,,,,,,,,,,,,,,,,,,,,,,,,,,,,,,,,,,,,,,,,,,,,,,,,,,p128,001,2025-02-27_14h39.28.634,posner_endo_new1,2024.2.4,60.095720464828695,2025-02-27 14h39.45.702389 +0000,
,,,,,,,,,,,,,,,,,,,,,,,,,,,,,,,,,,145.88289919996168,145.89527899993118,148.91863510000985,148.87706299999263,,,,,,,,,,,,,,,,,,,,,,,,,,,,,,,,,,,,,,,,,,,,,,p128,001,2025-02-27_14h39.28.634,posner_endo_new1,2024.2.4,60.095720464828695,2025-02-27 14h39.45.702389 +0000,
cube_l.png,0.1,-0.31,valid,0,0,0,down,42.10160460008774,None,space,0.4377689999528229,None,0,0,0,0,,,,,,,,,148.91863510000985,,,,,,,,,,,,,148.90542680001818,148.91863510000985,148.91863510000985,148.91863510000985,191.03342029999476,down,42.10160460008774,None,191.04345600004308,191.05355950002559,191.05355950002559,191.09921230003238,191.09943659999408,191.11574529996142,191.11574529996142,191.11574529996142,191.199030400021,191.56606340000872,space,0.4377689999528229,None,,,,,,,,,,,,,,,,,,,,,,,,,p128,001,2025-02-27_14h39.28.634,posner_endo_new1,2024.2.4,60.095720464828695,2025-02-27 14h39.45.702389 +0000,
cube_l.png,0.1,0.31,invalid,1,1,0,down,2.150587899959646,None,space,0.2413302999921143,None,0,1,1,1,,,,,,,,,191.5818742000265,,,,,,,,,,,,,191.56623150000814,191.5818742000265,191.5818742000265,191.5818742000265,193.74707619997207,down,2.150587899959646,None,193.75318400003016,193.76475720002782,193.76475720002782,193.81316120002884,193.81338539998978,193.82927540002856,193.82927540002856,193.82927540002856,193.89639569993597,194.08016949996818,space,0.2413302999921143,None,,,,,,,,,,,,,,,,,,,,,,,,,p128,001,2025-02-27_14h39.28.634,posner_endo_new1,2024.2.4,60.095720464828695,2025-02-27 14h39.45.702389 +0000,
cube_r.png,0.1,-0.31,invalid,2,2,0,down,4.332166299922392,None,space,0.3449533999664709,None,0,2,2,2,,,,,,,,,194.0960880999919,,,,,,,,,,,,,194.08033659996,194.0960880999919,194.0960880999919,194.0960880999919,198.44220930000301,down,4.332166299922392,None,198.4483682999853,198.4602621999802,198.4602621999802,198.5083236999344,198.50854850001633,198.52453229995444,198.52453229995444,198.52453229995444,198.59152989997528,198.87536359997466,space,0.3449533999664709,None,,,,,,,,,,,,,,,,,,,,,,,,,p128,001,2025-02-27_14h39.28.634,posner_endo_new1,2024.2.4,60.095720464828695,2025-02-27 14h39.45.702389 +0000,
cube_r.png,0.1,10,catch,3,3,0,down,6.098569400026463,None,None,,,0,3,3,3,,,,,,,,,198.89109930000268,,,,,,,,,,,,,198.87553760001902,198.89109930000268,198.89109930000268,198.89109930000268,205.00242959999014,down,6.098569400026463,None,205.00856570003089,205.0203945999965,205.0203945999965,205.06808659993112,205.06831140001304,205.08473639993463,205.08473639993463,205.08473639993463,205.16767090000212,208.08210200001486,None,,,207.1827572999755,208.09837639995385,208.09837639995385,208.09837639995385,,,,,,,,,,,,,,,,,,,,,p128,001,2025-02-27_14h39.28.634,posner_endo_new1,2024.2.4,60.095720464828695,2025-02-27 14h39.45.702389 +0000,
cube_l.png,0.1,-0.31,valid,4,4,0,down,3.8986310999607667,None,space,0.32136439997702837,None,0,4,4,4,,,,,,,,,208.09837639995385,,,,,,,,,,,,,208.08226059994195,208.09837639995385,208.09837639995385,208.09837639995385,212.0118391000433,down,3.8986310999607667,None,212.01815549994353,212.0299856000347,212.0299856000347,212.0775486000348,212.0777797999326,212.0946195999859,212.0946195999859,212.0946195999859,212.16091410000809,212.4280260000378,space,0.32136439997702837,None,,,,,,,,,,,,,,,,,,,,,,,,,p128,001,2025-02-27_14h39.28.634,posner_endo_new1,2024.2.4,60.095720464828695,2025-02-27 14h39.45.702389 +0000,
cube_l.png,0.1,0.31,invalid,5,5,0,down,5.576109100016765,None,space,0.44455829996149987,None,0,5,5,5,,,,,,,,,212.4440674999496,,,,,,,,,,,,,212.42819739994593,212.4440674999496,212.4440674999496,212.4440674999496,218.02234629995655,down,5.576109100016765,None,218.0284066000022,218.04006239993032,218.04006239993032,218.08831230003852,218.08853529999033,218.10518249997403,218.10518249997403,218.10518249997403,218.17146770004183,218.55471109994687,space,0.44455829996149987,None,,,,,,,,,,,,,,,,,,,,,,,,,p128,001,2025-02-27_14h39.28.634,posner_endo_new1,2024.2.4,60.095720464828695,2025-02-27 14h39.45.702389 +0000,
cube_r.png,0.1,-0.31,invalid,6,6,0,down,5.865569000015967,None,space,0.4111812000628561,None,0,6,6,6,,,,,,,,,218.5706799000036,,,,,,,,,,,,,218.55487989995163,218.5706799000036,218.5706799000036,218.5706799000036,224.44908669998404,down,5.865569000015967,None,224.45511630002875,224.4674110999331,224.4674110999331,224.51478560001124,224.51500749995466,224.53159030003008,224.53159030003008,224.53159030003008,224.61481659999117,224.9483628999442,space,0.4111812000628561,None,,,,,,,,,,,,,,,,,,,,,,,,,p128,001,2025-02-27_14h39.28.634,posner_endo_new1,2024.2.4,60.095720464828695,2025-02-27 14h39.45.702389 +0000,
cube_r.png,0.1,0.31,valid,7,7,0,down,1.5352969999657944,None,space,0.5514470000052825,None,0,7,7,7,,,,,,,,,224.96497690002434,,,,,,,,,,,,,224.94853539997712,224.96497690002434,224.96497690002434,224.96497690002434,226.51374810002744,down,1.5352969999657944,None,226.51983639993705,226.5315019999398,226.5315019999398,226.57963639998343,226.57985989993904,226.59631619998254,226.59631619998254,226.59631619998254,226.66233089996967,227.16304469993338,space,0.5514470000052825,None,,,,,,,,,,,,,,,,,,,,,,,,,p128,001,2025-02-27_14h39.28.634,posner_endo_new1,2024.2.4,60.095720464828695,2025-02-27 14h39.45.702389 +0000,
cube_l.png,0.1,-0.31,valid,8,8,0,down,1.545689499936998,None,space,0.34053269994910806,None,0,8,8,8,,,,,,,,,227.17898289998993,,,,,,,,,,,,,227.1632121000439,227.17898289998993,227.17898289998993,227.17898289998993,228.72765729995444,down,1.545689499936998,None,228.73368459998164,228.74525489995722,228.74525489995722,228.794048700016,228.79427319997922,228.81013040000107,228.81013040000107,228.81013040000107,228.87665380002,229.16098789998796,space,0.34053269994910806,None,,,,,,,,,,,,,,,,,,,,,,,,,p128,001,2025-02-27_14h39.28.634,posner_endo_new1,2024.2.4,60.095720464828695,2025-02-27 14h39.45.702389 +0000,
cube_r.png,0.1,-0.31,invalid,9,9,0,down,3.3327627999242395,None,space,0.3829120999434963,None,0,9,9,9,,,,,,,,,229.17690760002006,,,,,,,,,,,,,229.1611546999775,229.17690760002006,229.17690760002006,229.17690760002006,232.52418980002403,down,3.3327627999242395,None,232.53024490003008,232.54195159999654,232.54195159999654,232.5897454000078,232.58996879996266,232.60620439995546,232.60620439995546,232.60620439995546,232.67315809999127,232.99003290000837,space,0.3829120999434963,None,,,,,,,,,,,,,,,,,,,,,,,,,p128,001,2025-02-27_14h39.28.634,posner_endo_new1,2024.2.4,60.095720464828695,2025-02-27 14h39.45.702389 +0000,
cube_r.png,0.1,0.31,valid,10,10,0,down,2.4623578001046553,None,space,0.40970900002866983,None,0,10,10,10,,,,,,,,,233.00630420004018,,,,,,,,,,,,,232.99019949999638,233.00630420004018,233.00630420004018,233.00630420004018,235.47122069995385,down,2.4623578001046553,None,235.47726680000778,235.489071900025,235.489071900025,235.53700010001194,235.53722299996298,235.5537635999499,235.5537635999499,235.5537635999499,235.6203106000321,235.97060010000132,space,0.40970900002866983,None,,,,,,,,,,,,,,,,,,,,,,,,,p128,001,2025-02-27_14h39.28.634,posner_endo_new1,2024.2.4,60.095720464828695,2025-02-27 14h39.45.702389 +0000,
,,,,,,,,,,,,,,,,,,,,,,,,,,,,,,,,,,235.97071389993653,235.98607320000883,238.98707090003882,238.96766740002204,,,,,,,,,,,,,,,,,,,,,,,,,,,,,,,,,,,,,,,,,,,,,,p128,001,2025-02-27_14h39.28.634,posner_endo_new1,2024.2.4,60.095720464828695,2025-02-27 14h39.45.702389 +0000,
cube_l.png,0.1,10,catch,0,0,0,down,48.19381780002732,None,None,,,,,,,0,0,0,0,,,,,238.98707090003882,,,,,,,,,,,,,238.9783613999607,238.98707090003882,238.98707090003882,238.98707090003882,287.18463989999145,,,,287.19105399993714,287.2027648999356,287.2027648999356,287.2510455000447,287.2512765999418,287.26718399999663,287.26718399999663,287.26718399999663,287.33427939994726,290.2650868999772,,,,289.34870600001886,290.28105560003314,290.28105560003314,290.28105560003314,down,48.19381780002732,None,None,,,,,,,,,,,,,,,,,p128,001,2025-02-27_14h39.28.634,posner_endo_new1,2024.2.4,60.095720464828695,2025-02-27 14h39.45.702389 +0000,
cube_l.png,0.1,10,catch,1,1,0,down,2.443915400072001,None,None,,,,,,,0,1,1,1,,,,,290.28105560003314,,,,,,,,,,,,,290.2652529999614,290.28105560003314,290.28105560003314,290.28105560003314,292.72924589994363,,,,292.7353769999463,292.7471734000137,292.7471734000137,292.7951327000046,292.7953577999724,292.8118076999672,292.8118076999672,292.8118076999672,292.89530209999066,295.8088397999527,,,,294.90974389994517,295.824896599981,295.824896599981,295.824896599981,down,2.443915400072001,None,None,,,,,,,,,,,,,,,,,p128,001,2025-02-27_14h39.28.634,posner_endo_new1,2024.2.4,60.095720464828695,2025-02-27 14h39.45.702389 +0000,
cube_l.png,0.1,0.31,invalid,2,2,0,down,1.9635501999873668,None,space,0.3852885999949649,None,,,,,0,2,2,2,,,,,295.824896599981,,,,,,,,,,,,,295.80900519993156,295.824896599981,295.824896599981,295.824896599981,297.7909290000098,,,,297.79693019995466,297.8085520999739,297.8085520999739,297.8567716999678,297.85699510003906,297.87344100000337,297.87344100000337,297.87344100000337,297.94004370004404,298.27364020003006,,,,,,,,down,1.9635501999873668,None,space,0.3852885999949649,None,,,,,,,,,,,,,,,p128,001,2025-02-27_14h39.28.634,posner_endo_new1,2024.2.4,60.095720464828695,2025-02-27 14h39.45.702389 +0000,
cube_l.png,0.1,0.31,invalid,3,3,0,down,7.21927170001436,None,space,0.3929669000208378,None,,,,,0,3,3,3,,,,,298.28961219999474,,,,,,,,,,,,,298.2738157999702,298.28961219999474,298.28961219999474,298.28961219999474,305.51651280000806,,,,305.52260869997554,305.5344166000141,305.5344166000141,305.5821396999527,305.58237179997377,305.59881290001795,305.59881290001795,305.59881290001795,305.6822130000219,305.9993419999955,,,,,,,,down,7.21927170001436,None,space,0.3929669000208378,None,,,,,,,,,,,,,,,p128,001,2025-02-27_14h39.28.634,posner_endo_new1,2024.2.4,60.095720464828695,2025-02-27 14h39.45.702389 +0000,
cube_l.png,0.1,-0.31,valid,4,4,0,down,6.485700999968685,None,space,0.36139789992012084,None,,,,,0,4,4,4,,,,,306.0150454000104,,,,,,,,,,,,,305.9995231999783,306.0150454000104,306.0150454000104,306.0150454000104,312.50894780003,,,,312.51499019993935,312.52651490003336,312.52651490003336,312.5751741999993,312.5753990999656,312.5917153999908,312.5917153999908,312.5917153999908,312.65818949998356,312.9587631999748,,,,,,,,down,6.485700999968685,None,space,0.36139789992012084,None,,,,,,,,,,,,,,,p128,001,2025-02-27_14h39.28.634,posner_endo_new1,2024.2.4,60.095720464828695,2025-02-27 14h39.45.702389 +0000,
cube_r.png,0.1,-0.31,invalid,5,5,0,down,3.967687299940735,None,space,0.42349870002362877,None,,,,,0,5,5,5,,,,,312.9744991000043,,,,,,,,,,,,,312.95893790002447,312.9744991000043,312.9744991000043,312.9744991000043,316.9544835999841,,,,316.9606224000454,316.97297849995084,316.97297849995084,317.02062399999704,317.0208564000204,317.0367779999506,317.0367779999506,317.0367779999506,317.12047159997746,317.47088229993824,,,,,,,,down,3.967687299940735,None,space,0.42349870002362877,None,,,,,,,,,,,,,,,p128,001,2025-02-27_14h39.28.634,posner_endo_new1,2024.2.4,60.095720464828695,2025-02-27 14h39.45.702389 +0000,
cube_r.png,0.1,0.31,valid,6,6,0,down,5.9742653999710456,None,space,0.20356769999489188,None,,,,,0,6,6,6,,,,,317.4867147000041,,,,,,,,,,,,,317.4710578999948,317.4867147000041,317.4867147000041,317.4867147000041,323.46511500002816,,,,323.47118190000765,323.48286440002266,323.48286440002266,323.53075050003827,323.5309768000152,323.54695170000196,323.54695170000196,323.54695170000196,323.63041710003745,323.7643851999892,,,,,,,,down,5.9742653999710456,None,space,0.20356769999489188,None,,,,,,,,,,,,,,,p128,001,2025-02-27_14h39.28.634,posner_endo_new1,2024.2.4,60.095720464828695,2025-02-27 14h39.45.702389 +0000,
cube_r.png,0.1,-0.31,invalid,7,7,0,down,2.9046533000655472,None,space,0.3696406000526622,None,,,,,0,7,7,7,,,,,323.7803344000131,,,,,,,,,,,,,323.76456000003964,323.7803344000131,323.7803344000131,323.7803344000131,326.69461460004095,,,,326.70068759995047,326.71240750001743,326.71240750001743,326.7603622999741,326.76058639993425,326.7766397999367,326.7766397999367,326.7766397999367,326.86051769996993,327.1609672999475,,,,,,,,down,2.9046533000655472,None,space,0.3696406000526622,None,,,,,,,,,,,,,,,p128,001,2025-02-27_14h39.28.634,posner_endo_new1,2024.2.4,60.095720464828695,2025-02-27 14h39.45.702389 +0000,
cube_l.png,0.1,-0.31,valid,8,8,0,down,2.1960656999144703,None,space,0.3899143999442458,None,,,,,0,8,8,8,,,,,327.1766923000105,,,,,,,,,,,,,327.16114929993637,327.1766923000105,327.1766923000105,327.1766923000105,329.37533569999505,,,,329.38134980003815,329.39300899999216,329.39300899999216,329.44121620000806,329.441440399969,329.4572998000076,329.4572998000076,329.4572998000076,329.54058419994544,329.8580814000452,,,,,,,,down,2.1960656999144703,None,space,0.3899143999442458,None,,,,,,,,,,,,,,,p128,001,2025-02-27_14h39.28.634,posner_endo_new1,2024.2.4,60.095720464828695,2025-02-27 14h39.45.702389 +0000,
cube_r.png,0.1,-0.31,invalid,9,9,0,down,5.738871800014749,None,space,0.3412996999686584,None,,,,,0,9,9,9,,,,,329.8738931999542,,,,,,,,,,,,,329.8582554999739,329.8738931999542,329.8738931999542,329.8738931999542,335.6185855999356,,,,335.62483430001885,335.6363943000324,335.6363943000324,335.68488289997913,335.6851116999751,335.7010140999919,335.7010140999919,335.7010140999919,335.76802610000595,336.05178189999424,,,,,,,,down,5.738871800014749,None,space,0.3412996999686584,None,,,,,,,,,,,,,,,p128,001,2025-02-27_14h39.28.634,posner_endo_new1,2024.2.4,60.095720464828695,2025-02-27 14h39.45.702389 +0000,
cube_l.png,0.1,0.31,invalid,10,10,0,down,2.62618120003026,None,space,0.3297386000631377,None,,,,,0,10,10,10,,,,,336.0670925999293,,,,,,,,,,,,,336.0519541000249,336.0670925999293,336.0670925999293,336.0670925999293,338.69916349998675,,,,338.70517790003214,338.71680860000197,338.71680860000197,338.7651269999333,338.76536149997264,338.78155930002686,338.78155930002686,338.78155930002686,338.8480717999628,339.1154468000168,,,,,,,,down,2.62618120003026,None,space,0.3297386000631377,None,,,,,,,,,,,,,,,p128,001,2025-02-27_14h39.28.634,posner_endo_new1,2024.2.4,60.095720464828695,2025-02-27 14h39.45.702389 +0000,
cube_r.png,0.1,-0.31,invalid,11,11,0,down,3.7536371999885887,None,space,0.3779524000128731,None,,,,,0,11,11,11,,,,,339.13125099998433,,,,,,,,,,,,,339.1156215999508,339.13125099998433,339.13125099998433,339.13125099998433,342.89455650001764,,,,342.90059670002665,342.9123493999941,342.9123493999941,342.960802000016,342.9610327000264,342.97682929993607,342.97682929993607,342.97682929993607,343.04339190002065,343.36082269996405,,,,,,,,down,3.7536371999885887,None,space,0.3779524000128731,None,,,,,,,,,,,,,,,p128,001,2025-02-27_14h39.28.634,posner_endo_new1,2024.2.4,60.095720464828695,2025-02-27 14h39.45.702389 +0000,
cube_r.png,0.1,0.31,valid,12,12,0,down,4.683642499963753,None,space,0.29474110004957765,None,,,,,0,12,12,12,,,,,343.3769067999674,,,,,,,,,,,,,343.3609950999962,343.3769067999674,343.3769067999674,343.3769067999674,348.07253200002015,,,,348.0786016000202,348.0901467000367,348.0901467000367,348.1387832999462,348.139006900019,348.15533450001385,348.15533450001385,348.15533450001385,348.2220642999746,348.455343300011,,,,,,,,down,4.683642499963753,None,space,0.29474110004957765,None,,,,,,,,,,,,,,,p128,001,2025-02-27_14h39.28.634,posner_endo_new1,2024.2.4,60.095720464828695,2025-02-27 14h39.45.702389 +0000,
cube_l.png,0.1,10,catch,13,13,0,down,4.261281399987638,None,space,0.2995559999253601,None,,,,,0,13,13,13,,,,,348.4717004999984,,,,,,,,,,,,,348.4555160999298,348.4717004999984,348.4717004999984,348.4717004999984,352.7349184999475,,,,352.7409343000036,352.7527514999965,352.7527514999965,352.80052079993766,352.800742899999,352.8173438999802,352.8173438999802,352.8173438999802,352.88384549994953,353.13425579993054,,,,,,,,down,4.261281399987638,None,space,0.2995559999253601,None,,,,,,,,,,,,,,,p128,001,2025-02-27_14h39.28.634,posner_endo_new1,2024.2.4,60.095720464828695,2025-02-27 14h39.45.702389 +0000,
cube_r.png,0.1,-0.31,invalid,14,14,0,down,7.142458499991335,None,space,0.42866040009539574,None,,,,,0,14,14,14,,,,,353.15039590001106,,,,,,,,,,,,,353.1344320999924,353.15039590001106,353.15039590001106,353.15039590001106,360.29395880002994,,,,360.300034099957,360.31182820000686,360.31182820000686,360.3591047000373,360.35932749998756,360.37562910001725,360.37562910001725,360.37562910001725,360.45962590002455,360.80973169999197,,,,,,,,down,7.142458499991335,None,space,0.42866040009539574,None,,,,,,,,,,,,,,,p128,001,2025-02-27_14h39.28.634,posner_endo_new1,2024.2.4,60.095720464828695,2025-02-27 14h39.45.702389 +0000,
cube_l.png,0.1,-0.31,valid,15,15,0,down,4.138961700024083,None,space,0.4326254000188783,None,,,,,0,15,15,15,,,,,360.8258259999566,,,,,,,,,,,,,360.80990610003937,360.8258259999566,360.8258259999566,360.8258259999566,364.97247809998225,,,,364.978638999979,364.9905121999327,364.9905121999327,365.0382563000312,365.03847919998225,365.05486070003826,365.05486070003826,365.05486070003826,365.1381553999381,365.488638299983,,,,,,,,down,4.138961700024083,None,space,0.4326254000188783,None,,,,,,,,,,,,,,,p128,001,2025-02-27_14h39.28.634,posner_endo_new1,2024.2.4,60.095720464828695,2025-02-27 14h39.45.702389 +0000,
cube_r.png,0.1,10,catch,16,16,0,down,4.157061400008388,None,None,,,,,,,0,16,16,16,,,,,365.50421429995913,,,,,,,,,,,,,365.4888129000319,365.50421429995913,365.50421429995913,365.50421429995913,369.6697348000016,,,,369.6928683000151,369.70501489995513,369.70501489995513,369.73305689997505,369.733418699936,369.7495712999953,369.7495712999953,369.7495712999953,369.833080100012,372.7474277999718,,,,371.84775700001046,372.763336300035,372.763336300035,372.763336300035,down,4.157061400008388,None,None,,,,,,,,,,,,,,,,,p128,001,2025-02-27_14h39.28.634,posner_endo_new1,2024.2.4,60.095720464828695,2025-02-27 14h39.45.702389 +0000,
cube_r.png,0.1,10,catch,17,17,0,down,0.6177060999907553,None,None,,,,,,,0,17,17,17,,,,,372.763336300035,,,,,,,,,,,,,372.74770519998856,372.763336300035,372.763336300035,372.763336300035,373.3972927000141,,,,373.4088499000063,373.4190960000269,373.4190960000269,373.46325190004427,373.46359469997697,373.4793248999631,373.4793248999631,373.4793248999631,373.56257960002404,376.4769132999936,,,,375.57728399999905,376.49286600004416,376.49286600004416,376.49286600004416,down,0.6177060999907553,None,None,,,,,,,,,,,,,,,,,p128,001,2025-02-27_14h39.28.634,posner_endo_new1,2024.2.4,60.095720464828695,2025-02-27 14h39.45.702389 +0000,
cube_l.png,0.1,0.31,invalid,18,18,0,down,1.8640438999282196,None,space,0.397956799948588,None,,,,,0,18,18,18,,,,,376.49286600004416,,,,,,,,,,,,,376.4771019000327,376.49286600004416,376.49286600004416,376.49286600004416,378.3584139000159,,,,378.3657729999395,378.37757210002746,378.37757210002746,378.4244084999664,378.4246562999906,378.4409492999548,378.4409492999548,378.4409492999548,378.5073100000154,378.84100859996397,,,,,,,,down,1.8640438999282196,None,space,0.397956799948588,None,,,,,,,,,,,,,,,p128,001,2025-02-27_14h39.28.634,posner_endo_new1,2024.2.4,60.095720464828695,2025-02-27 14h39.45.702389 +0000,
cube_l.png,0.1,10,catch,19,19,0,down,4.067577900015749,None,None,,,,,,,0,19,19,19,,,,,378.85692859999835,,,,,,,,,,,,,378.8412263999926,378.85692859999835,378.85692859999835,378.85692859999835,382.937310099951,,,,382.94472479994874,382.9558799000224,382.9558799000224,383.00311859999783,383.0033674000297,383.0197416000301,383.0197416000301,383.0197416000301,383.08630429999903,386.01719559996855,,,,385.10078440001234,386.03338050004095,386.03338050004095,386.03338050004095,down,4.067577900015749,None,None,,,,,,,,,,,,,,,,,p128,001,2025-02-27_14h39.28.634,posner_endo_new1,2024.2.4,60.095720464828695,2025-02-27 14h39.45.702389 +0000,
cube_l.png,0.1,0.31,invalid,20,20,0,down,2.2433279999531806,None,space,0.4207783999154344,None,,,,,0,20,20,20,,,,,386.03338050004095,,,,,,,,,,,,,386.01738450000994,386.03338050004095,386.03338050004095,386.03338050004095,388.28193129994906,,,,388.28931260004174,388.30063880002126,388.30063880002126,388.34781519998796,388.3480711999582,388.36429269996006,388.36429269996006,388.36429269996006,388.4476124999346,388.79824919998646,,,,,,,,down,2.2433279999531806,None,space,0.4207783999154344,None,,,,,,,,,,,,,,,p128,001,2025-02-27_14h39.28.634,posner_endo_new1,2024.2.4,60.095720464828695,2025-02-27 14h39.45.702389 +0000,
cube_l.png,0.1,-0.31,valid,21,21,0,down,3.2788835000246763,None,space,0.4240937998984009,None,,,,,0,21,21,21,,,,,388.8138719999697,,,,,,,,,,,,,388.7984487999929,388.8138719999697,388.8138719999697,388.8138719999697,392.09486139996443,,,,392.1023120000027,392.1134072999703,392.1134072999703,392.1605386999436,392.1607938000234,392.1770093999803,392.1770093999803,392.1770093999803,392.2601911999518,392.61075290001463,,,,,,,,down,3.2788835000246763,None,space,0.4240937998984009,None,,,,,,,,,,,,,,,p128,001,2025-02-27_14h39.28.634,posner_endo_new1,2024.2.4,60.095720464828695,2025-02-27 14h39.45.702389 +0000,
cube_r.png,0.1,0.31,valid,22,22,0,down,5.042141400044784,None,space,0.3432473000138998,None,,,,,0,22,22,22,,,,,392.62648600002285,,,,,,,,,,,,,392.610957799945,392.62648600002285,392.62648600002285,392.62648600002285,397.67230279999785,,,,397.67982269998174,397.69103360001463,397.69103360001463,397.7380566999782,397.7383068000199,397.7547448000405,397.7547448000405,397.7547448000405,397.8379294000333,398.1051401000004,,,,,,,,down,5.042141400044784,None,space,0.3432473000138998,None,,,,,,,,,,,,,,,p128,001,2025-02-27_14h39.28.634,posner_endo_new1,2024.2.4,60.095720464828695,2025-02-27 14h39.45.702389 +0000,
cube_r.png,0.1,-0.31,invalid,23,23,0,down,2.612239500042051,None,space,0.3730894000036642,None,,,,,0,23,23,23,,,,,398.1209562999429,,,,,,,,,,,,,398.1053414000198,398.1209562999429,398.1209562999429,398.1209562999429,400.7359720999375,,,,400.74336530000437,400.7545314000454,400.7545314000454,400.8016367999371,400.8018963999348,400.81776699994225,400.81776699994225,400.81776699994225,400.90151360002346,401.20208920002915,,,,,,,,down,2.612239500042051,None,space,0.3730894000036642,None,,,,,,,,,,,,,,,p128,001,2025-02-27_14h39.28.634,posner_endo_new1,2024.2.4,60.095720464828695,2025-02-27 14h39.45.702389 +0000,
cube_r.png,0.1,0.31,valid,24,24,0,down,3.827729200012982,None,space,0.4663080000318587,None,,,,,0,24,24,24,,,,,401.21779959998094,,,,,,,,,,,,,401.2022870000219,401.21779959998094,401.21779959998094,401.21779959998094,405.048213699949,,,,405.0555572999874,405.06681979994755,405.06681979994755,405.1139567999635,405.1142056999961,405.1304123000009,405.1304123000009,405.1304123000009,405.21366559993476,405.59765949996654,,,,,,,,down,3.827729200012982,None,space,0.4663080000318587,None,,,,,,,,,,,,,,,p128,001,2025-02-27_14h39.28.634,posner_endo_new1,2024.2.4,60.095720464828695,2025-02-27 14h39.45.702389 +0000,
cube_r.png,0.1,-0.31,invalid,25,25,0,down,2.856016500038095,None,space,0.3465523000340909,None,,,,,0,25,25,25,,,,,405.6132468000287,,,,,,,,,,,,,405.59787579998374,405.6132468000287,405.6132468000287,405.6132468000287,408.4778917999938,,,,408.4852263999637,408.4966362999985,408.4966362999985,408.5437541999854,408.54400410002563,408.5601353000384,408.5601353000384,408.5601353000384,408.64347140002064,408.91091239999514,,,,,,,,down,2.856016500038095,None,space,0.3465523000340909,None,,,,,,,,,,,,,,,p128,001,2025-02-27_14h39.28.634,posner_endo_new1,2024.2.4,60.095720464828695,2025-02-27 14h39.45.702389 +0000,
cube_l.png,0.1,-0.31,valid,26,26,0,down,1.3500368000240996,None,space,0.3868892000755295,None,,,,,0,26,26,26,,,,,408.9265482999617,,,,,,,,,,,,,408.91111210000236,408.9265482999617,408.9265482999617,408.9265482999617,410.29249929997604,,,,410.2998546999879,410.31161580001935,410.31161580001935,410.35864400002174,410.3588939999463,410.37475820002146,410.37475820002146,410.37475820002146,410.44168139994144,410.77544090000447,,,,,,,,down,1.3500368000240996,None,space,0.3868892000755295,None,,,,,,,,,,,,,,,p128,001,2025-02-27_14h39.28.634,posner_endo_new1,2024.2.4,60.095720464828695,2025-02-27 14h39.45.702389 +0000,
cube_r.png,0.1,0.31,valid,27,27,0,down,4.654063499998301,None,space,0.3123507999116555,None,,,,,0,27,27,27,,,,,410.7909664999461,,,,,,,,,,,,,410.77563960000407,410.7909664999461,410.7909664999461,410.7909664999461,415.4539242000319,,,,415.4613062000135,415.4730963000329,415.4730963000329,415.52010700001847,415.52036530000623,415.5361069999635,415.5361069999635,415.5361069999635,415.603040899965,415.85367149999365,,,,,,,,down,4.654063499998301,None,space,0.3123507999116555,None,,,,,,,,,,,,,,,p128,001,2025-02-27_14h39.28.634,posner_endo_new1,2024.2.4,60.095720464828695,2025-02-27 14h39.45.702389 +0000,
cube_r.png,0.1,10,catch,28,28,0,down,4.719795999932103,None,None,,,,,,,0,28,28,28,,,,,415.8693553999765,,,,,,,,,,,,,415.8538806999568,415.8693553999765,415.8693553999765,415.8693553999765,420.5987678000238,,,,420.6061620999826,420.61761529999785,420.61761529999785,420.66439149994403,420.6646430999972,420.6812310999958,420.6812310999958,420.6812310999958,420.747786300024,423.67878159997053,,,,422.7623941999627,423.69475379993673,423.69475379993673,423.69475379993673,down,4.719795999932103,None,None,,,,,,,,,,,,,,,,,p128,001,2025-02-27_14h39.28.634,posner_endo_new1,2024.2.4,60.095720464828695,2025-02-27 14h39.45.702389 +0000,
cube_r.png,0.1,0.31,valid,29,29,0,down,3.5343898999271914,None,space,0.3574781999923289,None,,,,,0,29,29,29,,,,,423.69475379993673,,,,,,,,,,,,,423.6789698000066,423.69475379993673,423.69475379993673,423.69475379993673,427.2420471999794,,,,427.249496000004,427.26084929995704,427.26084929995704,427.3078838000074,427.3081322000362,427.32443539996166,427.32443539996166,427.32443539996166,427.40755460003857,427.69154449994676,,,,,,,,down,3.5343898999271914,None,space,0.3574781999923289,None,,,,,,,,,,,,,,,p128,001,2025-02-27_14h39.28.634,posner_endo_new1,2024.2.4,60.095720464828695,2025-02-27 14h39.45.702389 +0000,
cube_r.png,0.1,0.31,valid,30,30,0,down,4.993570200051181,None,space,0.35565599997062236,None,,,,,0,30,30,30,,,,,427.7074087000219,,,,,,,,,,,,,427.691742099938,427.7074087000219,427.7074087000219,427.7074087000219,432.70505730004515,,,,432.7281687000068,432.74028779997025,432.74028779997025,432.7686520999996,432.7690466999775,432.7851223000325,432.7851223000325,432.7851223000325,432.8683683000272,433.15286010003183,,,,,,,,down,4.993570200051181,None,space,0.35565599997062236,None,,,,,,,,,,,,,,,p128,001,2025-02-27_14h39.28.634,posner_endo_new1,2024.2.4,60.095720464828695,2025-02-27 14h39.45.702389 +0000,
cube_l.png,0.1,-0.31,valid,31,31,0,down,4.524876200011931,None,space,0.4081047000363469,None,,,,,0,31,31,31,,,,,433.16862809995655,,,,,,,,,,,,,433.1530926999403,433.16862809995655,433.16862809995655,433.16862809995655,437.69920879998244,,,,437.71799719997216,437.7282181000337,437.7282181000337,437.7639202999417,437.7642240000423,437.78039089997765,437.78039089997765,437.78039089997765,437.8635945999995,438.1975408999715,,,,,,,,down,4.524876200011931,None,space,0.4081047000363469,None,,,,,,,,,,,,,,,p128,001,2025-02-27_14h39.28.634,posner_endo_new1,2024.2.4,60.095720464828695,2025-02-27 14h39.45.702389 +0000,
cube_r.png,0.1,0.31,valid,32,32,0,down,4.151458200067282,None,space,0.3436904000118375,None,,,,,0,32,32,32,,,,,438.21327750000637,,,,,,,,,,,,,438.19779529992957,438.21327750000637,438.21327750000637,438.21327750000637,442.37670050002635,,,,442.38642809994053,442.3966357000172,442.3966357000172,442.442505300045,442.44281699997373,442.4589704000391,442.4589704000391,442.4589704000391,442.54219609999564,442.8095903999638,,,,,,,,down,4.151458200067282,None,space,0.3436904000118375,None,,,,,,,,,,,,,,,p128,001,2025-02-27_14h39.28.634,posner_endo_new1,2024.2.4,60.095720464828695,2025-02-27 14h39.45.702389 +0000,
cube_r.png,0.1,-0.31,invalid,33,33,0,down,5.604422000003979,None,space,0.34428979991935194,None,,,,,0,33,33,33,,,,,442.8252657999983,,,,,,,,,,,,,442.80984919995535,442.8252657999983,442.8252657999983,442.8252657999983,448.43725299998187,,,,448.4469731999561,448.45700759999454,448.45700759999454,448.5028783000307,448.5031999000348,448.519468100043,448.519468100043,448.519468100043,448.60262060002424,448.87026160000823,,,,,,,,down,5.604422000003979,None,space,0.34428979991935194,None,,,,,,,,,,,,,,,p128,001,2025-02-27_14h39.28.634,posner_endo_new1,2024.2.4,60.095720464828695,2025-02-27 14h39.45.702389 +0000,
cube_r.png,0.1,10,catch,34,34,0,down,4.927852199994959,None,None,,,,,,,0,34,34,34,,,,,448.8857001999859,,,,,,,,,,,,,448.8705210000044,448.8857001999859,448.8857001999859,448.8857001999859,453.81522009999026,,,,453.8249896999914,453.83494800003245,453.83494800003245,453.8806851999834,453.88099139998667,453.8972402999643,453.8972402999643,453.8972402999643,453.9804463000037,456.8948279999895,,,,455.9951213999884,456.9108622999629,456.9108622999629,456.9108622999629,down,4.927852199994959,None,None,,,,,,,,,,,,,,,,,p128,001,2025-02-27_14h39.28.634,posner_endo_new1,2024.2.4,60.095720464828695,2025-02-27 14h39.45.702389 +0000,
cube_r.png,0.1,0.31,valid,35,35,0,down,2.5186235000146553,None,space,0.36961089994292706,None,,,,,0,35,35,35,,,,,456.9108622999629,,,,,,,,,,,,,456.8950706999749,456.9108622999629,456.9108622999629,456.9108622999629,459.4424896000419,,,,459.4522075999994,459.4623286999995,459.4623286999995,459.5083691999316,459.5086781999562,459.5248789000325,459.5248789000325,459.5248789000325,459.60817719995975,459.9088499000063,,,,,,,,down,2.5186235000146553,None,space,0.36961089994292706,None,,,,,,,,,,,,,,,p128,001,2025-02-27_14h39.28.634,posner_endo_new1,2024.2.4,60.095720464828695,2025-02-27 14h39.45.702389 +0000,
cube_r.png,0.1,-0.31,invalid,36,36,0,down,4.320710800006054,None,space,0.3654086999595165,None,,,,,0,36,36,36,,,,,459.9244350999361,,,,,,,,,,,,,459.90911320003215,459.9244350999361,459.9244350999361,459.9244350999361,464.254207400023,,,,464.26400269998703,464.2740825000219,464.2740825000219,464.32013899995945,464.3204438999528,464.33661470003426,464.33661470003426,464.33661470003426,464.4031912999926,464.7041076000314,,,,,,,,down,4.320710800006054,None,space,0.3654086999595165,None,,,,,,,,,,,,,,,p128,001,2025-02-27_14h39.28.634,posner_endo_new1,2024.2.4,60.095720464828695,2025-02-27 14h39.45.702389 +0000,
cube_l.png,0.1,0.31,invalid,37,37,0,down,6.461150599992834,None,space,0.3002547000069171,None,,,,,0,37,37,37,,,,,464.71965049998835,,,,,,,,,,,,,464.7043730999576,464.71965049998835,464.71965049998835,464.71965049998835,471.19732679997105,,,,471.20716069999617,471.21683109994046,471.21683109994046,471.2630242999876,471.2633303999901,471.27951120003127,471.27951120003127,471.27951120003127,471.36274969996884,471.59675759996753,,,,,,,,down,6.461150599992834,None,space,0.3002547000069171,None,,,,,,,,,,,,,,,p128,001,2025-02-27_14h39.28.634,posner_endo_new1,2024.2.4,60.095720464828695,2025-02-27 14h39.45.702389 +0000,
cube_l.png,0.1,0.31,invalid,38,38,0,down,3.712877699988894,None,space,0.2984914999688044,None,,,,,0,38,38,38,,,,,471.61245469993446,,,,,,,,,,,,,471.59701909997966,471.61245469993446,471.61245469993446,471.61245469993446,475.3265382000245,,,,475.33621600002516,475.34622479998507,475.34622479998507,475.39213349996135,475.392441199976,475.40864129993133,475.40864129993133,475.40864129993133,475.491883700015,475.70944370003417,,,,,,,,down,3.712877699988894,None,space,0.2984914999688044,None,,,,,,,,,,,,,,,p128,001,2025-02-27_14h39.28.634,posner_endo_new1,2024.2.4,60.095720464828695,2025-02-27 14h39.45.702389 +0000,
cube_r.png,0.1,0.31,valid,39,39,0,down,3.544139300007373,None,space,0.33622850000392646,None,,,,,0,39,39,39,,,,,475.7248918999685,,,,,,,,,,,,,475.70969679998234,475.7248918999685,475.7248918999685,475.7248918999685,479.27233469998464,,,,479.28209100000095,479.2922499999404,479.2922499999404,479.33811639994383,479.3384209999349,479.3546332999831,479.3546332999831,479.3546332999831,479.43785360001493,479.70525500003714,,,,,,,,down,3.544139300007373,None,space,0.33622850000392646,None,,,,,,,,,,,,,,,p128,001,2025-02-27_14h39.28.634,posner_endo_new1,2024.2.4,60.095720464828695,2025-02-27 14h39.45.702389 +0000,
cube_l.png,0.1,0.31,invalid,40,40,0,down,5.980470800073817,None,space,0.399149400065653,None,,,,,0,40,40,40,,,,,479.7208709999686,,,,,,,,,,,,,479.7055139000295,479.7208709999686,479.7208709999686,479.7208709999686,485.71577499993145,,,,485.72554559994023,485.735535099986,485.735535099986,485.7814926999854,485.7817979999818,485.7979675999377,485.7979675999377,485.7979675999377,485.88124399993103,486.1988191000419,,,,,,,,down,5.980470800073817,None,space,0.399149400065653,None,,,,,,,,,,,,,,,p128,001,2025-02-27_14h39.28.634,posner_endo_new1,2024.2.4,60.095720464828695,2025-02-27 14h39.45.702389 +0000,
cube_l.png,0.1,10,catch,41,41,0,down,2.87097129994072,None,None,,,,,,,0,41,41,41,,,,,486.2142943999497,,,,,,,,,,,,,486.1990765000228,486.2142943999497,486.2142943999497,486.2142943999497,489.0955807999708,,,,489.1053144999314,489.11552869994193,489.11552869994193,489.1613775000442,489.16167850000784,489.1778903999366,489.1778903999366,489.1778903999366,489.2610861000139,492.1754958999809,,,,491.2757708999561,492.19153339997865,492.19153339997865,492.19153339997865,down,2.87097129994072,None,None,,,,,,,,,,,,,,,,,p128,001,2025-02-27_14h39.28.634,posner_endo_new1,2024.2.4,60.095720464828695,2025-02-27 14h39.45.702389 +0000,
cube_l.png,0.1,-0.31,valid,42,42,0,down,3.5420327000319958,None,space,0.3656284000026062,None,,,,,0,42,42,42,,,,,492.19153339997865,,,,,,,,,,,,,492.1757321000332,492.19153339997865,492.19153339997865,492.19153339997865,495.7389893999789,,,,495.74876210000366,495.75872799998615,495.75872799998615,495.8046382999746,495.8049451999832,495.82111190003343,495.82111190003343,495.82111190003343,495.9043280000333,496.1886535999365,,,,,,,,down,3.5420327000319958,None,space,0.3656284000026062,None,,,,,,,,,,,,,,,p128,001,2025-02-27_14h39.28.634,posner_endo_new1,2024.2.4,60.095720464828695,2025-02-27 14h39.45.702389 +0000,
cube_l.png,0.1,10,catch,43,43,0,down,4.440692999982275,None,None,,,,,,,0,43,43,43,,,,,496.2040733000031,,,,,,,,,,,,,496.18890549999196,496.2040733000031,496.2040733000031,496.2040733000031,500.6506698000012,,,,500.66062750003766,500.6706886999309,500.6706886999309,500.7162658999441,500.7165696999291,500.73281189997215,500.73281189997215,500.73281189997215,500.8160348000238,503.73028439993504,,,,502.83073749998584,503.7463193000294,503.7463193000294,503.7463193000294,down,4.440692999982275,None,None,,,,,,,,,,,,,,,,,p128,001,2025-02-27_14h39.28.634,posner_endo_new1,2024.2.4,60.095720464828695,2025-02-27 14h39.45.702389 +0000,
cube_l.png,0.1,0.31,invalid,44,44,0,down,1.4990261999191716,None,space,0.3104476999724284,None,,,,,0,44,44,44,,,,,503.7463193000294,,,,,,,,,,,,,503.73052550002467,503.7463193000294,503.7463193000294,503.7463193000294,505.26240060001146,,,,505.2720334000187,505.28176399995573,505.28176399995573,505.328185499995,505.32849200000055,505.34470399993006,505.34470399993006,505.34470399993006,505.4279610000085,505.66208489995915,,,,,,,,down,1.4990261999191716,None,space,0.3104476999724284,None,,,,,,,,,,,,,,,p128,001,2025-02-27_14h39.28.634,posner_endo_new1,2024.2.4,60.095720464828695,2025-02-27 14h39.45.702389 +0000,
cube_l.png,0.1,0.31,invalid,45,45,0,down,5.359287800034508,None,space,0.33775209996383637,None,,,,,0,45,45,45,,,,,505.6776812999742,,,,,,,,,,,,,505.6623431999469,505.6776812999742,505.6776812999742,505.6776812999742,511.0400230999803,,,,511.04993949993514,511.0599321000045,511.0599321000045,511.10560939996503,511.1059142999584,511.12215720000677,511.12215720000677,511.12215720000677,511.20543119998183,511.4727395999944,,,,,,,,down,5.359287800034508,None,space,0.33775209996383637,None,,,,,,,,,,,,,,,p128,001,2025-02-27_14h39.28.634,posner_endo_new1,2024.2.4,60.095720464828695,2025-02-27 14h39.45.702389 +0000,
cube_r.png,0.1,0.31,valid,46,46,0,down,3.348314700066112,None,space,0.3028600999386981,None,,,,,0,46,46,46,,,,,511.4885190000059,,,,,,,,,,,,,511.4729927999433,511.4885190000059,511.4885190000059,511.4885190000059,514.8526422999566,,,,514.8625576000195,514.8726639000233,514.8726639000233,514.9184137999546,514.9187177999411,514.9349043000257,514.9349043000257,514.9349043000257,515.0181965000229,515.2522440999746,,,,,,,,down,3.348314700066112,None,space,0.3028600999386981,None,,,,,,,,,,,,,,,p128,001,2025-02-27_14h39.28.634,posner_endo_new1,2024.2.4,60.095720464828695,2025-02-27 14h39.45.702389 +0000,
cube_l.png,0.1,-0.31,valid,47,47,0,down,5.53769920009654,None,space,0.3160231999354437,None,,,,,0,47,47,47,,,,,515.2679141999688,,,,,,,,,,,,,515.2524948000209,515.2679141999688,515.2679141999688,515.2679141999688,520.8133443000261,,,,520.8231663999613,520.8333198999753,520.8333198999753,520.8791996999644,520.8795125000179,520.8953667000169,520.8953667000169,520.8953667000169,520.9786960999481,521.213040899951,,,,,,,,down,5.53769920009654,None,space,0.3160231999354437,None,,,,,,,,,,,,,,,p128,001,2025-02-27_14h39.28.634,posner_endo_new1,2024.2.4,60.095720464828695,2025-02-27 14h39.45.702389 +0000,
cube_r.png,0.1,-0.31,invalid,48,48,0,down,6.954148399992846,None,space,0.30661279999185354,None,,,,,0,48,48,48,,,,,521.2284802999347,,,,,,,,,,,,,521.2132923000026,521.2284802999347,521.2284802999347,521.2284802999347,528.1890446000034,,,,528.1985763999401,528.2083055999829,528.2083055999829,528.2543406999903,528.2545683999779,528.2713975999504,528.2713975999504,528.2713975999504,528.3540742000332,528.5883092000149,,,,,,,,down,6.954148399992846,None,space,0.30661279999185354,None,,,,,,,,,,,,,,,p128,001,2025-02-27_14h39.28.634,posner_endo_new1,2024.2.4,60.095720464828695,2025-02-27 14h39.45.702389 +0000,
cube_r.png,0.1,10,catch,49,49,0,down,5.400790399988182,None,None,,,,,,,0,49,49,49,,,,,528.6043647000333,,,,,,,,,,,,,528.5884811000433,528.6043647000333,528.6043647000333,528.6043647000333,534.0179686000338,,,,534.0421730999369,534.0545855000382,534.0545855000382,534.0818646999542,534.082219599979,534.098608499975,534.098608499975,534.098608499975,534.1818235999672,537.0962470000377,,,,536.1964618000202,537.1122035000008,537.1122035000008,537.1122035000008,down,5.400790399988182,None,None,,,,,,,,,,,,,,,,,p128,001,2025-02-27_14h39.28.634,posner_endo_new1,2024.2.4,60.095720464828695,2025-02-27 14h39.45.702389 +0000,
cube_l.png,0.1,-0.31,valid,50,50,0,down,2.780687600024976,None,space,0.3915139000164345,None,,,,,0,50,50,50,,,,,537.1122035000008,,,,,,,,,,,,,537.0965187000111,537.1122035000008,537.1122035000008,537.1122035000008,539.895661199931,,,,539.9194051999366,539.9317595999455,539.9317595999455,539.9594515999779,539.9597619000124,539.9759707000339,539.9759707000339,539.9759707000339,540.0591640999774,540.3766436999431,,,,,,,,down,2.780687600024976,None,space,0.3915139000164345,None,,,,,,,,,,,,,,,p128,001,2025-02-27_14h39.28.634,posner_endo_new1,2024.2.4,60.095720464828695,2025-02-27 14h39.45.702389 +0000,
cube_l.png,0.1,-0.31,valid,51,51,0,down,6.940701300045475,None,space,0.3225991999497637,None,,,,,0,51,51,51,,,,,540.3922417999711,,,,,,,,,,,,,540.3768969000084,540.3922417999711,540.3922417999711,540.3922417999711,547.3379468999337,,,,547.3612396999961,547.3735101999482,547.3735101999482,547.4015054999618,547.4018208000343,547.4179975000443,547.4179975000443,547.4179975000443,547.5016530000139,547.7524281999795,,,,,,,,down,6.940701300045475,None,space,0.3225991999497637,None,,,,,,,,,,,,,,,p128,001,2025-02-27_14h39.28.634,posner_endo_new1,2024.2.4,60.095720464828695,2025-02-27 14h39.45.702389 +0000,
cube_r.png,0.1,-0.31,invalid,52,52,0,down,5.669505099998787,None,space,0.3686164999380708,None,,,,,0,52,52,52,,,,,547.7680071999785,,,,,,,,,,,,,547.7526833999436,547.7680071999785,547.7680071999785,547.7680071999785,553.4465608999599,,,,553.456662200042,553.4670199999819,553.4670199999819,553.5174132999964,553.5177256999305,553.5286675000098,553.5286675000098,553.5286675000098,553.6081074000103,553.9125237000408,,,,,,,,down,5.669505099998787,None,space,0.3686164999380708,None,,,,,,,,,,,,,,,p128,001,2025-02-27_14h39.28.634,posner_endo_new1,2024.2.4,60.095720464828695,2025-02-27 14h39.45.702389 +0000,
cube_l.png,0.1,-0.31,valid,53,53,0,down,5.181867799954489,None,space,0.3204688999103382,None,,,,,0,53,53,53,,,,,553.9285234999843,,,,,,,,,,,,,553.9126947999466,553.9285234999843,553.9285234999843,553.9285234999843,559.1238087000092,,,,559.1298361000372,559.1416149999714,559.1416149999714,559.189955299953,559.1901790000265,559.206440799986,559.206440799986,559.206440799986,559.2729708999395,559.5400838999776,,,,,,,,down,5.181867799954489,None,space,0.3204688999103382,None,,,,,,,,,,,,,,,p128,001,2025-02-27_14h39.28.634,posner_endo_new1,2024.2.4,60.095720464828695,2025-02-27 14h39.45.702389 +0000,
cube_r.png,0.1,10,catch,54,54,0,down,8.312761100009084,None,None,,,,,,,0,54,54,54,,,,,559.5560645000078,,,,,,,,,,,,,559.5402535999892,559.5560645000078,559.5560645000078,559.5560645000078,567.8815576999914,,,,567.8876394999679,567.8993152999319,567.8993152999319,567.9475374999456,567.94776000001,567.9643181000138,567.9643181000138,567.9643181000138,568.0468853999628,570.9626939999871,,,,570.062174599967,570.977901199949,570.977901199949,570.977901199949,down,8.312761100009084,None,None,,,,,,,,,,,,,,,,,p128,001,2025-02-27_14h39.28.634,posner_endo_new1,2024.2.4,60.095720464828695,2025-02-27 14h39.45.702389 +0000,
cube_l.png,0.1,0.31,invalid,55,55,0,down,3.9239220999879763,None,space,0.2847190999891609,None,,,,,0,55,55,55,,,,,570.977901199949,,,,,,,,,,,,,570.963263600017,570.977901199949,570.977901199949,570.977901199949,574.9099940999877,,,,574.93375690002,574.945556199993,574.945556199993,574.9733794999775,574.9737848000368,574.9898372000316,574.9898372000316,574.9898372000316,575.0730819000164,575.2910012999782,,,,,,,,down,3.9239220999879763,None,space,0.2847190999891609,None,,,,,,,,,,,,,,,p128,001,2025-02-27_14h39.28.634,posner_endo_new1,2024.2.4,60.095720464828695,2025-02-27 14h39.45.702389 +0000,
cube_l.png,0.1,-0.31,valid,56,56,0,down,6.138820599997416,None,space,0.37536479998379946,None,,,,,0,56,56,56,,,,,575.3061717000091,,,,,,,,,,,,,575.2913269000128,575.3061717000091,575.3061717000091,575.3061717000091,581.4514195999363,,,,581.464358999976,581.4743900999893,581.4743900999893,581.5170384999365,581.5173028999707,581.5336581999436,581.5336581999436,581.5336581999436,581.6167657999322,581.9174392999848,,,,,,,,down,6.138820599997416,None,space,0.37536479998379946,None,,,,,,,,,,,,,,,p128,001,2025-02-27_14h39.28.634,posner_endo_new1,2024.2.4,60.095720464828695,2025-02-27 14h39.45.702389 +0000,
cube_r.png,0.1,0.31,valid,57,57,0,down,3.680386000080034,None,space,0.3650840000482276,None,,,,,0,57,57,57,,,,,581.9332362000132,,,,,,,,,,,,,581.9176503999624,581.9332362000132,581.9332362000132,581.9332362000132,585.6303140999516,,,,585.6382345999591,585.6489421000006,585.6489421000006,585.6961835999973,585.6964444000041,585.712695299997,585.712695299997,585.712695299997,585.795878999983,586.0800556000322,,,,,,,,down,3.680386000080034,None,space,0.3650840000482276,None,,,,,,,,,,,,,,,p128,001,2025-02-27_14h39.28.634,posner_endo_new1,2024.2.4,60.095720464828695,2025-02-27 14h39.45.702389 +0000,
cube_r.png,0.1,-0.31,invalid,58,58,0,down,5.141188399982639,None,space,0.395930300001055,None,,,,,0,58,58,58,,,,,586.09556409996,,,,,,,,,,,,,586.0802673000144,586.09556409996,586.09556409996,586.09556409996,591.24132130004,,,,591.2494716999354,591.2599917999469,591.2599917999469,591.3069720999338,591.3072357999627,591.3236108999699,591.3236108999699,591.3236108999699,591.4068673000438,591.7242177999578,,,,,,,,down,5.141188399982639,None,space,0.395930300001055,None,,,,,,,,,,,,,,,p128,001,2025-02-27_14h39.28.634,posner_endo_new1,2024.2.4,60.095720464828695,2025-02-27 14h39.45.702389 +0000,
cube_l.png,0.1,0.31,invalid,59,59,0,down,3.3056589000625536,None,space,0.35919580003246665,None,,,,,0,59,59,59,,,,,591.7397929000435,,,,,,,,,,,,,591.7244321999606,591.7397929000435,591.7397929000435,591.7397929000435,595.0540344000328,,,,595.0620640999405,595.0726269000443,595.0726269000443,595.1196798000019,595.1199441000354,595.136289899936,595.136289899936,595.136289899936,595.2195782000199,595.5035586999729,,,,,,,,down,3.3056589000625536,None,space,0.35919580003246665,None,,,,,,,,,,,,,,,p128,001,2025-02-27_14h39.28.634,posner_endo_new1,2024.2.4,60.095720464828695,2025-02-27 14h39.45.702389 +0000,
,,,,,,,,,,,,,,,,,,,,,,,,,,,,,,,,,,,,,,,,,,,,,,,,,,,,,,,,,,,,,,,,,,,,,595.5036968999775,595.5192929999903,595.5192929999903,655.5243052999722,709.2554493999342,space,113.7184133999981,None,,,,,,,p128,001,2025-02-27_14h39.28.634,posner_endo_new1,2024.2.4,60.095720464828695,2025-02-27 14h39.45.702389 +0000,
,,,,,,,,,,,,,,,,,,,,,,,,,,,,,,,,,,709.2556577000069,709.2699228000129,712.2950057999697,712.2514526000014,,,,,,,,,,,,,,,,,,,,,,,,,,,,,,,,,,,,,,,,,,,,,,p128,001,2025-02-27_14h39.28.634,posner_endo_new1,2024.2.4,60.095720464828695,2025-02-27 14h39.45.702389 +0000,
cube_l.png,0.1,10,catch,0,0,0,up,5.878516800003126,None,None,,,,,,,,,,,0,0,0,0,712.2950057999697,,,,,,,,,,,,,712.2862237000372,712.2950057999697,712.2950057999697,712.2950057999697,718.178183699958,,,,718.1851401999593,718.1968394999858,718.1968394999858,718.2440721000312,718.2443169000326,718.2606121000135,718.2606121000135,718.2606121000135,718.3437319999794,721.2581181999994,,,,720.3585773999803,721.2737599000102,721.2737599000102,721.2737599000102,,,,,,,,,,,,,,,up,5.878516800003126,None,None,,,p128,001,2025-02-27_14h39.28.634,posner_endo_new1,2024.2.4,60.095720464828695,2025-02-27 14h39.45.702389 +0000,
cube_l.png,0.1,10,catch,1,1,0,up,0.9796134000644088,None,None,,,,,,,,,,,0,1,1,1,721.2737599000102,,,,,,,,,,,,,721.2582943999441,721.2737599000102,721.2737599000102,721.2737599000102,722.2571327999467,,,,722.2639335000422,722.2757589999819,722.2757589999819,722.3232655000174,722.3235017999541,722.3397791000316,722.3397791000316,722.3397791000316,722.4064833000302,725.3370966999792,,,,724.4210732999491,725.3534820999485,725.3534820999485,725.3534820999485,,,,,,,,,,,,,,,up,0.9796134000644088,None,None,,,p128,001,2025-02-27_14h39.28.634,posner_endo_new1,2024.2.4,60.095720464828695,2025-02-27 14h39.45.702389 +0000,
cube_l.png,0.1,0.31,invalid,2,2,0,up,2.747654899954796,None,space,0.38200820004567504,None,,,,,,,,,0,2,2,2,725.3534820999485,,,,,,,,,,,,,725.3372707000235,725.3534820999485,725.3534820999485,725.3534820999485,728.1179128999356,,,,728.1248547999421,728.1364518000046,728.1364518000046,728.1839828999946,728.1842058999464,728.200072000036,728.200072000036,728.200072000036,728.2670324000064,728.5842169999378,,,,,,,,,,,,,,,,,,,,,,up,2.747654899954796,None,space,0.38200820004567504,None,p128,001,2025-02-27_14h39.28.634,posner_endo_new1,2024.2.4,60.095720464828695,2025-02-27 14h39.45.702389 +0000,
cube_l.png,0.1,0.31,invalid,3,3,0,up,2.558252199902199,None,space,0.4185219000792131,None,,,,,,,,,0,3,3,3,728.600204300019,,,,,,,,,,,,,728.5843955000164,728.600204300019,728.600204300019,728.600204300019,731.1651881999569,,,,731.1712915999815,731.1829512999393,731.1829512999393,731.2306474000216,731.2308710999787,731.2472528000362,731.2472528000362,731.2472528000362,731.3305381999817,731.6809695999837,,,,,,,,,,,,,,,,,,,,,,up,2.558252199902199,None,space,0.4185219000792131,None,p128,001,2025-02-27_14h39.28.634,posner_endo_new1,2024.2.4,60.095720464828695,2025-02-27 14h39.45.702389 +0000,
cube_l.png,0.1,-0.31,valid,4,4,0,up,5.261136299930513,None,space,0.3743950999341905,None,,,,,,,,,0,4,4,4,731.6965837000171,,,,,,,,,,,,,731.6811501999618,731.6965837000171,731.6965837000171,731.6965837000171,736.9609761999454,,,,736.9841827999335,736.9965295000002,736.9965295000002,737.0244797000196,737.0248696999624,737.0409538999666,737.0409538999666,737.0409538999666,737.1242029999848,737.425242700032,,,,,,,,,,,,,,,,,,,,,,up,5.261136299930513,None,space,0.3743950999341905,None,p128,001,2025-02-27_14h39.28.634,posner_endo_new1,2024.2.4,60.095720464828695,2025-02-27 14h39.45.702389 +0000,
cube_r.png,0.1,-0.31,invalid,5,5,0,up,2.740944499964826,None,space,0.35219700005836785,None,,,,,,,,,0,5,5,5,737.4405428000027,,,,,,,,,,,,,737.4255782000255,737.4405428000027,737.4405428000027,737.4405428000027,740.189124400029,,,,740.2018074999796,740.2118504999671,740.2118504999671,740.2549307999434,740.2552074999548,740.2714436999522,740.2714436999522,740.2714436999522,740.3546559000388,740.63850859995,,,,,,,,,,,,,,,,,,,,,,up,2.740944499964826,None,space,0.35219700005836785,None,p128,001,2025-02-27_14h39.28.634,posner_endo_new1,2024.2.4,60.095720464828695,2025-02-27 14h39.45.702389 +0000,
cube_r.png,0.1,0.31,valid,6,6,0,up,2.863662299932912,None,space,0.36114110006019473,None,,,,,,,,,0,6,6,6,740.6543620999437,,,,,,,,,,,,,740.6387420999818,740.6543620999437,740.6543620999437,740.6543620999437,743.5190795999952,,,,743.5275808000006,743.5377193000168,743.5377193000168,743.5848722000374,743.5851619000314,743.6012886000099,743.6012886000099,743.6012886000099,743.6846458000364,743.968781100004,,,,,,,,,,,,,,,,,,,,,,up,2.863662299932912,None,space,0.36114110006019473,None,p128,001,2025-02-27_14h39.28.634,posner_endo_new1,2024.2.4,60.095720464828695,2025-02-27 14h39.45.702389 +0000,
cube_r.png,0.1,-0.31,invalid,7,7,0,up,13.181414499995299,None,space,0.3589967000298202,None,,,,,,,,,0,7,7,7,743.9842945999699,,,,,,,,,,,,,743.9690114000114,743.9842945999699,743.9842945999699,743.9842945999699,757.1718947000336,,,,757.1804623999633,757.1903944000369,757.1903944000369,757.2375890000258,757.2378725999733,757.2540960999904,757.2540960999904,757.2540960999904,757.3372472999617,757.621306899935,,,,,,,,,,,,,,,,,,,,,,up,13.181414499995299,None,space,0.3589967000298202,None,p128,001,2025-02-27_14h39.28.634,posner_endo_new1,2024.2.4,60.095720464828695,2025-02-27 14h39.45.702389 +0000,
cube_l.png,0.1,-0.31,valid,8,8,0,up,2.4253346000332385,None,space,0.36346720007713884,None,,,,,,,,,0,8,8,8,757.6370480000041,,,,,,,,,,,,,757.6215358999325,757.6370480000041,757.6370480000041,757.6370480000041,760.0689333999762,,,,760.077410500031,760.0874882999342,760.0874882999342,760.13449950004,760.1347737000324,760.1511281999992,760.1511281999992,760.1511281999992,760.2343660999322,760.5185713999672,,,,,,,,,,,,,,,,,,,,,,up,2.4253346000332385,None,space,0.36346720007713884,None,p128,001,2025-02-27_14h39.28.634,posner_endo_new1,2024.2.4,60.095720464828695,2025-02-27 14h39.45.702389 +0000,
cube_r.png,0.1,-0.31,invalid,9,9,0,up,7.6716559999622405,None,space,0.3291293999645859,None,,,,,,,,,0,9,9,9,760.5341130000306,,,,,,,,,,,,,760.518800699967,760.5341130000306,760.5341130000306,760.5341130000306,768.210696300026,,,,768.2192664999748,768.229321599938,768.229321599938,768.2764400000451,768.2767152000451,768.2928794999607,768.2928794999607,768.2928794999607,768.3760293000378,768.6267105999868,,,,,,,,,,,,,,,,,,,,,,up,7.6716559999622405,None,space,0.3291293999645859,None,p128,001,2025-02-27_14h39.28.634,posner_endo_new1,2024.2.4,60.095720464828695,2025-02-27 14h39.45.702389 +0000,
cube_l.png,0.1,0.31,invalid,10,10,0,up,6.443125999998301,None,space,0.3300514998845756,None,,,,,,,,,0,10,10,10,768.6423204999883,,,,,,,,,,,,,768.6269434000133,768.6423204999883,768.6423204999883,768.6423204999883,775.0867305999855,,,,775.0952548999339,775.105466100038,775.105466100038,775.1522028000327,775.1524846999673,775.1691954999696,775.1691954999696,775.1691954999696,775.2523822999792,775.5031349000055,,,,,,,,,,,,,,,,,,,,,,up,6.443125999998301,None,space,0.3300514998845756,None,p128,001,2025-02-27_14h39.28.634,posner_endo_new1,2024.2.4,60.095720464828695,2025-02-27 14h39.45.702389 +0000,
cube_r.png,0.1,-0.31,invalid,11,11,0,up,4.262566899997182,None,space,0.30476299999281764,None,,,,,,,,,0,11,11,11,775.5186728000408,,,,,,,,,,,,,775.5033701999346,775.5186728000408,775.5186728000408,775.5186728000408,779.7821481999708,,,,779.7907073999522,779.8006793999812,779.8006793999812,779.8477603000356,779.8480360000394,779.8641678999411,779.8641678999411,779.8641678999411,779.9476423000451,780.1816358999349,,,,,,,,,,,,,,,,,,,,,,up,4.262566899997182,None,space,0.30476299999281764,None,p128,001,2025-02-27_14h39.28.634,posner_endo_new1,2024.2.4,60.095720464828695,2025-02-27 14h39.45.702389 +0000,
cube_r.png,0.1,0.31,valid,12,12,0,up,3.7286899000173435,None,space,0.3774031000211835,None,,,,,,,,,0,12,12,12,780.197390699992,,,,,,,,,,,,,780.1818746000063,780.197390699992,780.197390699992,780.197390699992,783.9277694999473,,,,783.9362132999813,783.946441499982,783.946441499982,783.9933818000136,783.9936591000296,784.0100893999916,784.0100893999916,784.0100893999916,784.0932788000209,784.3942027000012,,,,,,,,,,,,,,,,,,,,,,up,3.7286899000173435,None,space,0.3774031000211835,None,p128,001,2025-02-27_14h39.28.634,posner_endo_new1,2024.2.4,60.095720464828695,2025-02-27 14h39.45.702389 +0000,
cube_l.png,0.1,10,catch,13,13,0,up,3.820461100083776,None,None,,,,,,,,,,,0,13,13,13,784.4095090000192,,,,,,,,,,,,,784.3944314999972,784.4095090000192,784.4095090000192,784.4095090000192,788.2399926999351,,,,788.2484350999584,788.2587417999748,788.2587417999748,788.3058820000151,788.306162099936,788.3223990999395,788.3223990999395,788.3223990999395,788.4055803000228,791.3198699000059,,,,790.4201898999745,791.3359306999482,791.3359306999482,791.3359306999482,,,,,,,,,,,,,,,up,3.820461100083776,None,None,,,p128,001,2025-02-27_14h39.28.634,posner_endo_new1,2024.2.4,60.095720464828695,2025-02-27 14h39.45.702389 +0000,
cube_r.png,0.1,-0.31,invalid,14,14,0,up,1.4296175999334082,None,space,0.3118979000719264,None,,,,,,,,,0,14,14,14,791.3359306999482,,,,,,,,,,,,,791.3200982999988,791.3359306999482,791.3359306999482,791.3359306999482,792.7687848999631,,,,792.7772794000339,792.7874117000028,792.7874117000028,792.8345438999822,792.83481879998,792.8509808999952,792.8509808999952,792.8509808999952,792.9343065000139,793.1684811000014,,,,,,,,,,,,,,,,,,,,,,up,1.4296175999334082,None,space,0.3118979000719264,None,p128,001,2025-02-27_14h39.28.634,posner_endo_new1,2024.2.4,60.095720464828695,2025-02-27 14h39.45.702389 +0000,
cube_l.png,0.1,-0.31,valid,15,15,0,up,13.293501600041054,None,space,0.2646489000180736,None,,,,,,,,,0,15,15,15,793.184155200026,,,,,,,,,,,,,793.1687371999724,793.184155200026,793.184155200026,793.184155200026,806.4880155000137,,,,806.4967163000256,806.5067642999347,806.5067642999347,806.5538142999867,806.554091900005,806.5704265999375,806.5704265999375,806.5704265999375,806.63707539998,806.8378718999447,,,,,,,,,,,,,,,,,,,,,,up,13.293501600041054,None,space,0.2646489000180736,None,p128,001,2025-02-27_14h39.28.634,posner_endo_new1,2024.2.4,60.095720464828695,2025-02-27 14h39.45.702389 +0000,
cube_r.png,0.1,10,catch,16,16,0,up,2.5923195999348536,None,space,0.2693223999813199,None,,,,,,,,,0,16,16,16,806.8534212999512,,,,,,,,,,,,,806.8381252000108,806.8534212999512,806.8534212999512,806.8534212999512,809.4516792999348,,,,809.4601982999593,809.4703340999549,809.4703340999549,809.5175123999361,809.5177923999727,809.5339853999903,809.5339853999903,809.5339853999903,809.6173045999603,809.8180317999795,,,,,,,,,,,,,,,,,,,,,,up,2.5923195999348536,None,space,0.2693223999813199,None,p128,001,2025-02-27_14h39.28.634,posner_endo_new1,2024.2.4,60.095720464828695,2025-02-27 14h39.45.702389 +0000,
cube_r.png,0.1,10,catch,17,17,0,up,2.7715951000573114,None,None,,,,,,,,,,,0,17,17,17,809.8338301000185,,,,,,,,,,,,,809.8182615999831,809.8338301000185,809.8338301000185,809.8338301000185,812.6152121999767,,,,812.6237015000079,812.6337858999614,812.6337858999614,812.6808466999792,812.6811238999944,812.6974793999689,812.6974793999689,812.6974793999689,812.7806494999677,815.6949140999932,,,,814.7952545000007,815.7110446000006,815.7110446000006,815.7110446000006,,,,,,,,,,,,,,,up,2.7715951000573114,None,None,,,p128,001,2025-02-27_14h39.28.634,posner_endo_new1,2024.2.4,60.095720464828695,2025-02-27 14h39.45.702389 +0000,
cube_l.png,0.1,0.31,invalid,18,18,0,up,3.0222950000315905,None,space,0.3223848999477923,None,,,,,,,,,0,18,18,18,815.7110446000006,,,,,,,,,,,,,815.6951352999313,815.7110446000006,815.7110446000006,815.7110446000006,818.7421665999573,,,,818.7506881000008,818.7608489999548,818.7608489999548,818.8079322000267,818.8082174999872,818.824479599949,818.824479599949,818.824479599949,818.907714299974,819.1584157999605,,,,,,,,,,,,,,,,,,,,,,up,3.0222950000315905,None,space,0.3223848999477923,None,p128,001,2025-02-27_14h39.28.634,posner_endo_new1,2024.2.4,60.095720464828695,2025-02-27 14h39.45.702389 +0000,
cube_l.png,0.1,10,catch,19,19,0,up,3.591518300003372,None,None,,,,,,,,,,,0,19,19,19,819.1742933000205,,,,,,,,,,,,,819.158644799958,819.1742933000205,819.1742933000205,819.1742933000205,822.7732391000027,,,,822.7963778999401,822.8070737000089,822.8070737000089,822.8368094000034,822.8371594999917,822.8533389000222,822.8533389000222,822.8533389000222,822.9368323000381,825.8513071000343,,,,824.9514228999615,825.8672070000321,825.8672070000321,825.8672070000321,,,,,,,,,,,,,,,up,3.591518300003372,None,None,,,p128,001,2025-02-27_14h39.28.634,posner_endo_new1,2024.2.4,60.095720464828695,2025-02-27 14h39.45.702389 +0000,
cube_l.png,0.1,0.31,invalid,20,20,0,up,1.0822039999766275,None,space,0.4355977999512106,None,,,,,,,,,0,20,20,20,825.8672070000321,,,,,,,,,,,,,825.8515855999431,825.8672070000321,825.8672070000321,825.8672070000321,826.9508302999893,,,,826.9624186999863,826.9725908000255,826.9725908000255,827.0162503999891,827.0166009999812,827.0326385999797,827.0326385999797,827.0326385999797,827.1158928000368,827.4834242999787,,,,,,,,,,,,,,,,,,,,,,up,1.0822039999766275,None,space,0.4355977999512106,None,p128,001,2025-02-27_14h39.28.634,posner_endo_new1,2024.2.4,60.095720464828695,2025-02-27 14h39.45.702389 +0000,
cube_l.png,0.1,-0.31,valid,21,21,0,up,5.874909900012426,None,space,0.30922430008649826,None,,,,,,,,,0,21,21,21,827.4987928000046,,,,,,,,,,,,,827.483730899985,827.4987928000046,827.4987928000046,827.4987928000046,833.3766875000438,,,,833.3831848000409,833.394799200003,833.394799200003,833.4426345999818,833.4428569000447,833.4595649000257,833.4595649000257,833.4595649000257,833.5256799999624,833.7765481999377,,,,,,,,,,,,,,,,,,,,,,up,5.874909900012426,None,space,0.30922430008649826,None,p128,001,2025-02-27_14h39.28.634,posner_endo_new1,2024.2.4,60.095720464828695,2025-02-27 14h39.45.702389 +0000,
cube_r.png,0.1,0.31,valid,22,22,0,up,4.572874999954365,None,space,0.5726103000342846,None,,,,,,,,,0,22,22,22,833.792507300037,,,,,,,,,,,,,833.776723899995,833.792507300037,833.792507300037,833.792507300037,838.3719156000298,,,,838.3784287000308,838.3901763999602,838.3901763999602,838.4379836999578,838.4382107999409,838.454504000023,838.454504000023,838.454504000023,838.5209893999854,839.0379519000417,,,,,,,,,,,,,,,,,,,,,,up,4.572874999954365,None,space,0.5726103000342846,None,p128,001,2025-02-27_14h39.28.634,posner_endo_new1,2024.2.4,60.095720464828695,2025-02-27 14h39.45.702389 +0000,
cube_r.png,0.1,-0.31,invalid,23,23,0,up,3.7201183999422938,None,space,0.37340500007849187,None,,,,,,,,,0,23,23,23,839.0537682999857,,,,,,,,,,,,,839.0381278999848,839.0537682999857,839.0537682999857,839.0537682999857,842.7840624999953,,,,842.7900587000186,842.8018252999755,842.8018252999755,842.850098200026,842.8503244000021,842.8664262000239,842.8664262000239,842.8664262000239,842.9498448999366,843.250389099936,,,,,,,,,,,,,,,,,,,,,,up,3.7201183999422938,None,space,0.37340500007849187,None,p128,001,2025-02-27_14h39.28.634,posner_endo_new1,2024.2.4,60.095720464828695,2025-02-27 14h39.45.702389 +0000,
cube_r.png,0.1,0.31,valid,24,24,0,up,6.355493500013836,None,space,0.4184063000138849,None,,,,,,,,,0,24,24,24,843.2661527999444,,,,,,,,,,,,,843.2505728999386,843.2661527999444,843.2661527999444,843.2661527999444,849.6266551000299,,,,849.6327056000009,849.6443588000257,849.6443588000257,849.6932253999403,849.6934475000016,849.7094578000251,849.7094578000251,849.7094578000251,849.7759950000327,850.1452274000039,,,,,,,,,,,,,,,,,,,,,,up,6.355493500013836,None,space,0.4184063000138849,None,p128,001,2025-02-27_14h39.28.634,posner_endo_new1,2024.2.4,60.095720464828695,2025-02-27 14h39.45.702389 +0000,
cube_r.png,0.1,-0.31,invalid,25,25,0,up,3.77443560003303,None,space,0.3935005000093952,None,,,,,,,,,0,25,25,25,850.1593294999329,,,,,,,,,,,,,850.1458445999306,850.1593294999329,850.1593294999329,850.1593294999329,853.94148639997,,,,853.9646547000157,853.9764110000106,853.9764110000106,854.0053038999904,854.0056406999938,854.0217522999737,854.0217522999737,854.0217522999737,854.1049498999491,854.4223633999936,,,,,,,,,,,,,,,,,,,,,,up,3.77443560003303,None,space,0.3935005000093952,None,p128,001,2025-02-27_14h39.28.634,posner_endo_new1,2024.2.4,60.095720464828695,2025-02-27 14h39.45.702389 +0000,
cube_l.png,0.1,-0.31,valid,26,26,0,up,5.823435999918729,None,space,0.361972099984996,None,,,,,,,,,0,26,26,26,854.4380078000249,,,,,,,,,,,,,854.422649599961,854.4380078000249,854.4380078000249,854.4380078000249,860.265770799946,,,,860.2718765999889,860.2834592999425,860.2834592999425,860.3321861999575,860.3324139999459,860.3488344999496,860.3488344999496,860.3488344999496,860.4154317999491,860.7159911999479,,,,,,,,,,,,,,,,,,,,,,up,5.823435999918729,None,space,0.361972099984996,None,p128,001,2025-02-27_14h39.28.634,posner_endo_new1,2024.2.4,60.095720464828695,2025-02-27 14h39.45.702389 +0000,
cube_r.png,0.1,0.31,valid,27,27,0,up,3.498053799965419,None,space,0.29613279993645847,None,,,,,,,,,0,27,27,27,860.7316540000029,,,,,,,,,,,,,860.716172000044,860.7316540000029,860.7316540000029,860.7316540000029,864.2455289999489,,,,864.2516177999787,864.2634280000348,864.2634280000348,864.311331099947,864.3115535000106,864.3280442999676,864.3280442999676,864.3280442999676,864.394201099989,864.6285487000132,,,,,,,,,,,,,,,,,,,,,,up,3.498053799965419,None,space,0.29613279993645847,None,p128,001,2025-02-27_14h39.28.634,posner_endo_new1,2024.2.4,60.095720464828695,2025-02-27 14h39.45.702389 +0000,
cube_r.png,0.1,10,catch,28,28,0,up,2.417467200080864,None,None,,,,,,,,,,,0,28,28,28,864.6444850999396,,,,,,,,,,,,,864.6287261999678,864.6444850999396,864.6444850999396,864.6444850999396,867.0760040000314,,,,867.0820881000254,867.0938157000346,867.0938157000346,867.1419861000031,867.1422075999435,867.1586170999799,867.1586170999799,867.1586170999799,867.2418644999852,870.1554150999291,,,,869.256354299956,870.1718139000004,870.1718139000004,870.1718139000004,,,,,,,,,,,,,,,up,2.417467200080864,None,None,,,p128,001,2025-02-27_14h39.28.634,posner_endo_new1,2024.2.4,60.095720464828695,2025-02-27 14h39.45.702389 +0000,
cube_r.png,0.1,0.31,valid,29,29,0,up,2.257970599923283,None,space,0.3759836999233812,None,,,,,,,,,0,29,29,29,870.1718139000004,,,,,,,,,,,,,870.1555837999331,870.1718139000004,870.1718139000004,870.1718139000004,872.4373566999566,,,,872.4433913000394,872.4551884999964,872.4551884999964,872.5031532000285,872.5033766999841,872.5195994999958,872.5195994999958,872.5195994999958,872.6028636000119,872.9029897999717,,,,,,,,,,,,,,,,,,,,,,up,2.257970599923283,None,space,0.3759836999233812,None,p128,001,2025-02-27_14h39.28.634,posner_endo_new1,2024.2.4,60.095720464828695,2025-02-27 14h39.45.702389 +0000,
cube_r.png,0.1,0.31,valid,30,30,0,up,2.2062706999713555,None,space,0.3426172999897972,None,,,,,,,,,0,30,30,30,872.9193007999565,,,,,,,,,,,,,872.9031716999598,872.9193007999565,872.9193007999565,872.9193007999565,875.134014399955,,,,875.1400010000216,875.1516500000143,875.1516500000143,875.2003211999545,875.2005483999383,875.2164339999435,875.2164339999435,875.2164339999435,875.2834442999447,875.5673744999804,,,,,,,,,,,,,,,,,,,,,,up,2.2062706999713555,None,space,0.3426172999897972,None,p128,001,2025-02-27_14h39.28.634,posner_endo_new1,2024.2.4,60.095720464828695,2025-02-27 14h39.45.702389 +0000,
cube_l.png,0.1,-0.31,valid,31,31,0,up,3.7342897999333218,None,space,0.3775419000303373,None,,,,,,,,,0,31,31,31,875.5832823000383,,,,,,,,,,,,,875.5675542999525,875.5832823000383,875.5832823000383,875.5832823000383,879.33018239995,,,,879.3361918999581,879.347909700009,879.347909700009,879.3956468999386,879.3958714000182,879.41212610004,879.41212610004,879.41212610004,879.4956590000074,879.7963405000046,,,,,,,,,,,,,,,,,,,,,,up,3.7342897999333218,None,space,0.3775419000303373,None,p128,001,2025-02-27_14h39.28.634,posner_endo_new1,2024.2.4,60.095720464828695,2025-02-27 14h39.45.702389 +0000,
cube_r.png,0.1,0.31,valid,32,32,0,up,2.2419939000392333,None,space,0.3199300999986008,None,,,,,,,,,0,32,32,32,879.812018699944,,,,,,,,,,,,,879.7965229999973,879.812018699944,879.812018699944,879.812018699944,882.0607133000158,,,,882.06682800001,882.0785318999551,882.0785318999551,882.1262167999521,882.1264393000165,882.1429505000124,882.1429505000124,882.1429505000124,882.2264031999512,882.4768093000166,,,,,,,,,,,,,,,,,,,,,,up,2.2419939000392333,None,space,0.3199300999986008,None,p128,001,2025-02-27_14h39.28.634,posner_endo_new1,2024.2.4,60.095720464828695,2025-02-27 14h39.45.702389 +0000,
cube_r.png,0.1,-0.31,invalid,33,33,0,up,2.464898300007917,None,space,0.23818370001390576,None,,,,,,,,,0,33,33,33,882.4922700999305,,,,,,,,,,,,,882.476994000026,882.4922700999305,882.4922700999305,882.4922700999305,884.9743000000017,,,,884.9803274000296,884.9916870000307,884.9916870000307,885.0401368000312,885.040364000015,885.0569438999519,885.0569438999519,885.0569438999519,885.1234869000036,885.3074581000255,,,,,,,,,,,,,,,,,,,,,,up,2.464898300007917,None,space,0.23818370001390576,None,p128,001,2025-02-27_14h39.28.634,posner_endo_new1,2024.2.4,60.095720464828695,2025-02-27 14h39.45.702389 +0000,
cube_r.png,0.1,10,catch,34,34,0,up,3.3791271999944,None,None,,,,,,,,,,,0,34,34,34,885.3230878999457,,,,,,,,,,,,,885.307634399971,885.3230878999457,885.3230878999457,885.3230878999457,888.703954000026,,,,888.7099649000447,888.721614100039,888.721614100039,888.7697458999464,888.7699668999994,888.7864368000301,888.7864368000301,888.7864368000301,888.8698652000166,891.7838050000137,,,,890.8842846000334,891.8000772999367,891.8000772999367,891.8000772999367,,,,,,,,,,,,,,,up,3.3791271999944,None,None,,,p128,001,2025-02-27_14h39.28.634,posner_endo_new1,2024.2.4,60.095720464828695,2025-02-27 14h39.45.702389 +0000,
cube_r.png,0.1,0.31,valid,35,35,0,up,0.7013562000356615,None,space,0.3601737000280991,None,,,,,,,,,0,35,35,35,891.8000772999367,,,,,,,,,,,,,891.7839741000207,891.8000772999367,891.8000772999367,891.8000772999367,892.5166514000157,,,,892.522679299931,892.5343663999811,892.5343663999811,892.5819816000294,892.5822107000276,892.5993375999387,892.5993375999387,892.5993375999387,892.6819234000286,892.9660852999659,,,,,,,,,,,,,,,,,,,,,,up,0.7013562000356615,None,space,0.3601737000280991,None,p128,001,2025-02-27_14h39.28.634,posner_endo_new1,2024.2.4,60.095720464828695,2025-02-27 14h39.45.702389 +0000,
cube_r.png,0.1,-0.31,invalid,36,36,0,up,3.6639124000212178,None,space,0.3685074000386521,None,,,,,,,,,0,36,36,36,892.9821380999638,,,,,,,,,,,,,892.9662673999555,892.9821380999638,892.9821380999638,892.9821380999638,896.6624692999758,,,,896.6686067000264,896.6804027999751,896.6804027999751,896.7283729999326,896.728599700029,896.7450372999301,896.7450372999301,896.7450372999301,896.8116984999506,897.1284087999957,,,,,,,,,,,,,,,,,,,,,,up,3.6639124000212178,None,space,0.3685074000386521,None,p128,001,2025-02-27_14h39.28.634,posner_endo_new1,2024.2.4,60.095720464828695,2025-02-27 14h39.45.702389 +0000,
cube_l.png,0.1,0.31,invalid,37,37,0,up,7.548823399934918,None,space,0.33291490003466606,None,,,,,,,,,0,37,37,37,897.1446498000296,,,,,,,,,,,,,897.1285936000058,897.1446498000296,897.1446498000296,897.1446498000296,904.7043066000333,,,,904.7103974999627,904.7221308000153,904.7221308000153,904.7702228999697,904.7704475999344,904.7867494999664,904.7867494999664,904.7867494999664,904.86995079997,905.12059029995,,,,,,,,,,,,,,,,,,,,,,up,7.548823399934918,None,space,0.33291490003466606,None,p128,001,2025-02-27_14h39.28.634,posner_endo_new1,2024.2.4,60.095720464828695,2025-02-27 14h39.45.702389 +0000,
cube_l.png,0.1,0.31,invalid,38,38,0,up,2.7416525000007823,None,space,0.36915249994490296,None,,,,,,,,,0,38,38,38,905.1362111000344,,,,,,,,,,,,,905.1207748999586,905.1362111000344,905.1362111000344,905.1362111000344,907.8841885000002,,,,907.8901665000012,907.9018599999836,907.9018599999836,907.9497977000428,907.9500202999916,907.9670797999715,907.9670797999715,907.9670797999715,908.0495527000166,908.3505479999585,,,,,,,,,,,,,,,,,,,,,,up,2.7416525000007823,None,space,0.36915249994490296,None,p128,001,2025-02-27_14h39.28.634,posner_endo_new1,2024.2.4,60.095720464828695,2025-02-27 14h39.45.702389 +0000,
cube_r.png,0.1,0.31,valid,39,39,0,up,2.191264700028114,None,space,0.41619539994280785,None,,,,,,,,,0,39,39,39,908.3664080000017,,,,,,,,,,,,,908.3507312999573,908.3664080000017,908.3664080000017,908.3664080000017,910.5647913999856,,,,910.5708593999734,910.582494799979,910.582494799979,910.6307763999794,910.6310037999647,910.6474104999797,910.6474104999797,910.6474104999797,910.7138685999671,911.0809563000221,,,,,,,,,,,,,,,,,,,,,,up,2.191264700028114,None,space,0.41619539994280785,None,p128,001,2025-02-27_14h39.28.634,posner_endo_new1,2024.2.4,60.095720464828695,2025-02-27 14h39.45.702389 +0000,
cube_l.png,0.1,0.31,invalid,40,40,0,up,2.260983800049871,None,space,0.35725150001235306,None,,,,,,,,,0,40,40,40,911.0969723999733,,,,,,,,,,,,,911.0811343999812,911.0969723999733,911.0969723999733,911.0969723999733,913.3621545999777,,,,913.3681803999934,913.3799173999578,913.3799173999578,913.428006800008,913.4282473999774,913.4443620999809,913.4443620999809,913.4443620999809,913.5111222999403,913.8114802000346,,,,,,,,,,,,,,,,,,,,,,up,2.260983800049871,None,space,0.35725150001235306,None,p128,001,2025-02-27_14h39.28.634,posner_endo_new1,2024.2.4,60.095720464828695,2025-02-27 14h39.45.702389 +0000,
cube_l.png,0.1,10,catch,41,41,0,up,2.586814699927345,None,None,,,,,,,,,,,0,41,41,41,913.8273310000077,,,,,,,,,,,,,913.8116578999907,913.8273310000077,913.8273310000077,913.8273310000077,916.4254336999729,,,,916.4314667000435,916.4431828999659,916.4431828999659,916.4911439999705,916.4913706999505,916.5079467999749,916.5079467999749,916.5079467999749,916.5740891000023,919.5054762000218,,,,918.5887670000084,919.5215657999506,919.5215657999506,919.5215657999506,,,,,,,,,,,,,,,up,2.586814699927345,None,None,,,p128,001,2025-02-27_14h39.28.634,posner_endo_new1,2024.2.4,60.095720464828695,2025-02-27 14h39.45.702389 +0000,
cube_l.png,0.1,-0.31,valid,42,42,0,up,2.796392200049013,None,space,0.3514754999196157,None,,,,,,,,,0,42,42,42,919.5215657999506,,,,,,,,,,,,,919.5056404999923,919.5215657999506,919.5215657999506,919.5215657999506,922.3196432000259,,,,922.3257140000351,922.3375123000005,922.3375123000005,922.3855525000254,922.3857750999741,922.4019813999766,922.4019813999766,922.4019813999766,922.4852346000262,922.769107399974,,,,,,,,,,,,,,,,,,,,,,up,2.796392200049013,None,space,0.3514754999196157,None,p128,001,2025-02-27_14h39.28.634,posner_endo_new1,2024.2.4,60.095720464828695,2025-02-27 14h39.45.702389 +0000,
cube_l.png,0.1,10,catch,43,43,0,up,2.556974299950525,None,None,,,,,,,,,,,0,43,43,43,922.7844588999869,,,,,,,,,,,,,922.7692834000336,922.7844588999869,922.7844588999869,922.7844588999869,925.349694399978,,,,925.3557108000387,925.3672569999471,925.3672569999471,925.4156329999678,925.4158603999531,925.4321914999746,925.4321914999746,925.4321914999746,925.498905699933,928.4309516999638,,,,927.513662399957,928.4460418999661,928.4460418999661,928.4460418999661,,,,,,,,,,,,,,,up,2.556974299950525,None,None,,,p128,001,2025-02-27_14h39.28.634,posner_endo_new1,2024.2.4,60.095720464828695,2025-02-27 14h39.45.702389 +0000,
cube_l.png,0.1,0.31,invalid,44,44,0,up,5.7518163999775425,None,space,0.4346446000272408,None,,,,,,,,,0,44,44,44,928.4460418999661,,,,,,,,,,,,,928.431524900021,928.4460418999661,928.4460418999661,928.4460418999661,934.209313099971,,,,934.232836500043,934.2450609999942,934.2450609999942,934.272966700024,934.2733527999371,934.2894073999487,934.2894073999487,934.2894073999487,934.3732510999544,934.7404256999725,,,,,,,,,,,,,,,,,,,,,,up,5.7518163999775425,None,space,0.4346446000272408,None,p128,001,2025-02-27_14h39.28.634,posner_endo_new1,2024.2.4,60.095720464828695,2025-02-27 14h39.45.702389 +0000,
cube_l.png,0.1,0.31,invalid,45,45,0,up,3.970003900001757,None,space,0.3266798999393359,None,,,,,,,,,0,45,45,45,934.7561055000406,,,,,,,,,,,,,934.7406541999662,934.7561055000406,934.7561055000406,934.7561055000406,938.7362463999307,,,,938.7446814000141,938.7549848000053,938.7549848000053,938.802096499945,938.8023735999595,938.8185025999555,938.8185025999555,938.8185025999555,938.9018132999772,939.1524052999448,,,,,,,,,,,,,,,,,,,,,,up,3.970003900001757,None,space,0.3266798999393359,None,p128,001,2025-02-27_14h39.28.634,posner_endo_new1,2024.2.4,60.095720464828695,2025-02-27 14h39.45.702389 +0000,
cube_r.png,0.1,0.31,valid,46,46,0,up,3.4931908000726253,None,space,0.32248680002521724,None,,,,,,,,,0,46,46,46,939.1681605000049,,,,,,,,,,,,,939.1526330999332,939.1681605000049,939.1681605000049,939.1681605000049,942.665418599965,,,,942.6739349999698,942.6842725999886,942.6842725999886,942.7313551999396,942.7316300999373,942.7479346999899,942.7479346999899,942.7479346999899,942.8143434999511,943.0818007999333,,,,,,,,,,,,,,,,,,,,,,up,3.4931908000726253,None,space,0.32248680002521724,None,p128,001,2025-02-27_14h39.28.634,posner_endo_new1,2024.2.4,60.095720464828695,2025-02-27 14h39.45.702389 +0000,
cube_l.png,0.1,-0.31,valid,47,47,0,up,4.044653900084086,None,space,0.2696713999612257,None,,,,,,,,,0,47,47,47,943.0974058000138,,,,,,,,,,,,,943.0820292000426,943.0974058000138,943.0974058000138,943.0974058000138,947.144188300008,,,,947.1527865999378,947.1629803000251,947.1629803000251,947.2100655999966,947.2103540999815,947.2266144999303,947.2266144999303,947.2266144999303,947.2931463000132,947.5106307000387,,,,,,,,,,,,,,,,,,,,,,up,4.044653900084086,None,space,0.2696713999612257,None,p128,001,2025-02-27_14h39.28.634,posner_endo_new1,2024.2.4,60.095720464828695,2025-02-27 14h39.45.702389 +0000,
cube_r.png,0.1,-0.31,invalid,48,48,0,up,5.487284599919803,None,space,0.33775529998820275,None,,,,,,,,,0,48,48,48,947.5263552999822,,,,,,,,,,,,,947.5108668999746,947.5263552999822,947.5263552999822,947.5263552999822,953.023412700044,,,,953.0466350000352,953.0587762999348,953.0587762999348,953.0870792999631,953.0874617999652,953.1035585999489,953.1035585999489,953.1035585999489,953.1870930000441,953.4547159000067,,,,,,,,,,,,,,,,,,,,,,up,5.487284599919803,None,space,0.33775529998820275,None,p128,001,2025-02-27_14h39.28.634,posner_endo_new1,2024.2.4,60.095720464828695,2025-02-27 14h39.45.702389 +0000,
cube_r.png,0.1,10,catch,49,49,0,up,3.463130100048147,None,None,,,,,,,,,,,0,49,49,49,953.4703064999776,,,,,,,,,,,,,953.4550210000016,953.4703064999776,953.4703064999776,953.4703064999776,956.9346120000118,,,,956.9461928999517,956.9563193999929,956.9563193999929,957.0000504000345,957.0003968999954,957.0165556999855,957.0165556999855,957.0165556999855,957.0997501999373,960.0143423000118,,,,959.1143313000211,960.0301481999923,960.0301481999923,960.0301481999923,,,,,,,,,,,,,,,up,3.463130100048147,None,None,,,p128,001,2025-02-27_14h39.28.634,posner_endo_new1,2024.2.4,60.095720464828695,2025-02-27 14h39.45.702389 +0000,
cube_l.png,0.1,-0.31,valid,50,50,0,up,3.392156699905172,None,space,0.3215388000244275,None,,,,,,,,,0,50,50,50,960.0301481999923,,,,,,,,,,,,,960.0146217000438,960.0301481999923,960.0301481999923,960.0301481999923,963.4279883999843,,,,963.4396798999514,963.4498549000127,963.4498549000127,963.4934002000373,963.4937475000042,963.5099039999768,963.5099039999768,963.5099039999768,963.5931557000149,963.8440736000193,,,,,,,,,,,,,,,,,,,,,,up,3.392156699905172,None,space,0.3215388000244275,None,p128,001,2025-02-27_14h39.28.634,posner_endo_new1,2024.2.4,60.095720464828695,2025-02-27 14h39.45.702389 +0000,
cube_l.png,0.1,-0.31,valid,51,51,0,up,3.9478001999668777,None,space,0.3546297999564558,None,,,,,,,,,0,51,51,51,963.8595254999818,,,,,,,,,,,,,963.8443752999883,963.8595254999818,963.8595254999818,963.8595254999818,967.8233531999867,,,,967.8348634999711,967.8451517999638,967.8451517999638,967.8889904000098,967.8893403999973,967.9054192999611,967.9054192999611,967.9054192999611,967.9887749999762,968.2730061999755,,,,,,,,,,,,,,,,,,,,,,up,3.9478001999668777,None,space,0.3546297999564558,None,p128,001,2025-02-27_14h39.28.634,posner_endo_new1,2024.2.4,60.095720464828695,2025-02-27 14h39.45.702389 +0000,
cube_r.png,0.1,-0.31,invalid,52,52,0,up,2.3652644999092445,None,space,0.5868235999951139,None,,,,,,,,,0,52,52,52,968.288411000045,,,,,,,,,,,,,968.2732999,968.288411000045,968.288411000045,968.288411000045,970.6704460999463,,,,970.682080599945,970.6920475999359,970.6920475999359,970.7360681999708,970.7364188999636,970.7525032999692,970.7525032999692,970.7525032999692,970.8357353999745,971.353060399997,,,,,,,,,,,,,,,,,,,,,,up,2.3652644999092445,None,space,0.5868235999951139,None,p128,001,2025-02-27_14h39.28.634,posner_endo_new1,2024.2.4,60.095720464828695,2025-02-27 14h39.45.702389 +0000,
cube_l.png,0.1,-0.31,valid,53,53,0,up,1.5251259999349713,None,space,0.4487659999867901,None,,,,,,,,,0,53,53,53,971.3684578000102,,,,,,,,,,,,,971.3533650999889,971.3684578000102,971.3684578000102,971.3684578000102,972.9017909000395,,,,972.9132664999925,972.9236595999682,972.9236595999682,972.9673588000005,972.9677086999873,972.983677100041,972.983677100041,972.983677100041,973.0667878999375,973.4343740999466,,,,,,,,,,,,,,,,,,,,,,up,1.5251259999349713,None,space,0.4487659999867901,None,p128,001,2025-02-27_14h39.28.634,posner_endo_new1,2024.2.4,60.095720464828695,2025-02-27 14h39.45.702389 +0000,
cube_r.png,0.1,10,catch,54,54,0,up,2.0677198000485078,None,None,,,,,,,,,,,0,54,54,54,973.4497829999309,,,,,,,,,,,,,973.4346726000076,973.4497829999309,973.4497829999309,973.4497829999309,975.5322429999942,,,,975.5466704999562,975.5570926000364,975.5570926000364,975.5977012999356,975.5979820999783,975.6142221000046,975.6142221000046,975.6142221000046,975.6974126000423,978.611808000016,,,,977.7121381999459,978.627876500017,978.627876500017,978.627876500017,,,,,,,,,,,,,,,up,2.0677198000485078,None,None,,,p128,001,2025-02-27_14h39.28.634,posner_endo_new1,2024.2.4,60.095720464828695,2025-02-27 14h39.45.702389 +0000,
cube_l.png,0.1,0.31,invalid,55,55,0,up,7.106402699952014,None,space,0.3950366999488324,None,,,,,,,,,0,55,55,55,978.627876500017,,,,,,,,,,,,,978.6120284999488,978.627876500017,978.627876500017,978.627876500017,985.7383390000323,,,,985.7469057999551,985.7569663999602,985.7569663999602,985.8040903999936,985.8043706000317,985.8205020999303,985.8205020999303,985.8205020999303,985.9039081999799,986.221255499986,,,,,,,,,,,,,,,,,,,,,,up,7.106402699952014,None,space,0.3950366999488324,None,p128,001,2025-02-27_14h39.28.634,posner_endo_new1,2024.2.4,60.095720464828695,2025-02-27 14h39.45.702389 +0000,
cube_l.png,0.1,-0.31,valid,56,56,0,up,3.432673400035128,None,space,0.39049459993839264,None,,,,,,,,,0,56,56,56,986.2369580999948,,,,,,,,,,,,,986.2214918000391,986.2369580999948,986.2369580999948,986.2369580999948,989.684189899941,,,,989.6927038000431,989.7028414999368,989.7028414999368,989.7499715000158,989.750246200012,989.7664404000388,989.7664404000388,989.7664404000388,989.849739999976,990.1671401000349,,,,,,,,,,,,,,,,,,,,,,up,3.432673400035128,None,space,0.39049459993839264,None,p128,001,2025-02-27_14h39.28.634,posner_endo_new1,2024.2.4,60.095720464828695,2025-02-27 14h39.45.702389 +0000,
cube_r.png,0.1,0.31,valid,57,57,0,up,2.592205799999647,None,space,0.3227690999628976,None,,,,,,,,,0,57,57,57,990.1827722999733,,,,,,,,,,,,,990.1673689000309,990.1827722999733,990.1827722999733,990.1827722999733,992.7809925000183,,,,992.7893989000004,992.799713299959,992.799713299959,992.8468167999526,992.8470977999968,992.8633225000231,992.8633225000231,992.8633225000231,992.9466575999977,993.1973138999892,,,,,,,,,,,,,,,,,,,,,,up,2.592205799999647,None,space,0.3227690999628976,None,p128,001,2025-02-27_14h39.28.634,posner_endo_new1,2024.2.4,60.095720464828695,2025-02-27 14h39.45.702389 +0000,
cube_r.png,0.1,-0.31,invalid,58,58,0,up,3.9217249000212178,None,space,0.38477419991977513,None,,,,,,,,,0,58,58,58,993.2126819000114,,,,,,,,,,,,,993.1975498000393,993.2126819000114,993.2126819000114,993.2126819000114,997.1431515000295,,,,997.1516212000279,997.1619279000442,997.1619279000442,997.2091586999595,997.2094499999657,997.2256511999294,997.2256511999294,997.2256511999294,997.3087819999782,997.6260379999876,,,,,,,,,,,,,,,,,,,,,,up,3.9217249000212178,None,space,0.38477419991977513,None,p128,001,2025-02-27_14h39.28.634,posner_endo_new1,2024.2.4,60.095720464828695,2025-02-27 14h39.45.702389 +0000,
cube_l.png,0.1,0.31,invalid,59,59,0,up,2.347985200001858,None,space,0.46391130005940795,None,,,,,,,,,0,59,59,59,997.6416650000028,,,,,,,,,,,,,997.6262672999874,997.6416650000028,997.6416650000028,997.6416650000028,999.990546099958,,,,999.9990030999761,1000.0089968999382,1000.0089968999382,1000.0561439000303,1000.0564201000379,1000.0726938999724,1000.0726938999724,1000.0726938999724,1000.1559161000187,1000.5397798999911,,,,,,,,,,,,,,,,,,,,,,up,2.347985200001858,None,space,0.46391130005940795,None,p128,001,2025-02-27_14h39.28.634,posner_endo_new1,2024.2.4,60.095720464828695,2025-02-27 14h39.45.702389 +0000,
