cue_img,cue_soa,target_y,trial,thisN,thisTrialN,thisRepN,key_control2.keys,key_control2.rt,key_control2.duration,key_resp.keys,key_resp.rt,key_resp.duration,practice.thisRepN,practice.thisTrialN,practice.thisN,practice.thisIndex,block1.thisRepN,block1.thisTrialN,block1.thisN,block1.thisIndex,block2.thisRepN,block2.thisTrialN,block2.thisN,block2.thisIndex,thisRow.t,notes,instructions.started,instructions_txt.started,key_control.started,instructions.stopped,key_control.keys,key_control.rt,key_control.duration,ready.started,ready_txt.started,ready_txt.stopped,ready.stopped,fix.started,fixation.started,key_control2.started,fixation_cross.started,fix.stopped,practice.key_control2.keys,practice.key_control2.rt,practice.key_control2.duration,cue.started,cube.started,fixation_cross_cue.started,cue.stopped,target.started,fixation_target.started,fixation_cross_target.started,key_resp.started,star.started,target.stopped,practice.key_resp.keys,practice.key_resp.rt,practice.key_resp.duration,star.stopped,fixation_target.stopped,fixation_cross_target.stopped,key_resp.stopped,block1.key_control2.keys,block1.key_control2.rt,block1.key_control2.duration,block1.key_resp.keys,block1.key_resp.rt,block1.key_resp.duration,break_2.started,text.started,key_control3.started,text.stopped,break_2.stopped,key_control3.keys,key_control3.rt,key_control3.duration,block2.key_control2.keys,block2.key_control2.rt,block2.key_control2.duration,block2.key_resp.keys,block2.key_resp.rt,block2.key_resp.duration,cube.stopped,fixation_cross_cue.stopped,participant,session,date,expName,psychopyVersion,frameRate,expStart,
,,,,,,,,,,,,,,,,,,,,,,,,,,,0.007447200012393296,0.025377299985848367,0.025377299985848367,22.48955149995163,up,22.452110199956223,None,,,,,,,,,,,,,,,,,,,,,,,,,,,,,,,,,,,,,,,,,,,,,,,,,,,,p129,001,2025-02-27_16h28.05.836,posner_endo_new1,2024.2.4,60.06474981785348,2025-02-27 16h28.19.615721 +0000,
,,,,,,,,,,,,,,,,,,,,,,,,,,,,,,,,,,22.489594199927524,22.503137100022286,25.50298200000543,25.48389109992422,,,,,,,,,,,,,,,,,,,,,,,,,,,,,,,,,,,,,,,,,,,,,,,,p129,001,2025-02-27_16h28.05.836,posner_endo_new1,2024.2.4,60.06474981785348,2025-02-27 16h28.19.615721 +0000,
cube_l.png,0.1,-0.31,valid,0,0,0,up,2.8310522000538185,None,space,0.47027789999265224,None,0,0,0,0,,,,,,,,,25.50298200000543,,,,,,,,,,,,,25.490776899969205,25.50298200000543,25.50298200000543,25.50298200000543,28.347688899957575,up,2.8310522000538185,None,28.357600099989213,28.367932499968447,28.367932499968447,28.413934999960475,28.414155400008895,28.43030040001031,28.43030040001031,28.43030040001031,28.51375169993844,28.91360640001949,space,0.47027789999265224,None,,,,,,,,,,,,,,,,,,,,,,,,,,,p129,001,2025-02-27_16h28.05.836,posner_endo_new1,2024.2.4,60.06474981785348,2025-02-27 16h28.19.615721 +0000,
cube_l.png,0.1,0.31,invalid,1,1,0,up,6.339731700019911,None,space,0.5215244001010433,None,0,1,1,1,,,,,,,,,28.93006309994962,,,,,,,,,,,,,28.913776500034146,28.93006309994962,28.93006309994962,28.93006309994962,35.274313600035384,up,6.339731700019911,None,35.28135880001355,35.292953299940564,35.292953299940564,35.340378399938345,35.3406092999503,35.35647009999957,35.35647009999957,35.35647009999957,35.43977569998242,35.890199100016616,space,0.5215244001010433,None,,,,,,,,,,,,,,,,,,,,,,,,,,,p129,001,2025-02-27_16h28.05.836,posner_endo_new1,2024.2.4,60.06474981785348,2025-02-27 16h28.19.615721 +0000,
cube_r.png,0.1,-0.31,invalid,2,2,0,up,6.0838232999667525,None,space,0.5012336999643594,None,0,2,2,2,,,,,,,,,35.905807000002824,,,,,,,,,,,,,35.89036670001224,35.905807000002824,35.905807000002824,35.905807000002824,42.00067239999771,up,6.0838232999667525,None,42.010994100011885,42.021174299996346,42.021174299996346,42.06639960000757,42.06671309994999,42.08321359998081,42.08321359998081,42.08321359998081,42.1665234999964,42.60030229995027,space,0.5012336999643594,None,,,,,,,,,,,,,,,,,,,,,,,,,,,p129,001,2025-02-27_16h28.05.836,posner_endo_new1,2024.2.4,60.06474981785348,2025-02-27 16h28.19.615721 +0000,
cube_r.png,0.1,10,catch,3,3,0,up,4.679015800007619,None,None,,,0,3,3,3,,,,,,,,,42.61577739997301,,,,,,,,,,,,,42.60055899992585,42.61577739997301,42.61577739997301,42.61577739997301,47.295807800022885,up,4.679015800007619,None,47.30654289992526,47.316661400021985,47.316661400021985,47.360903699998744,47.361208599992096,47.377507900004275,47.377507900004275,47.377507900004275,47.460681100026704,50.37497639993671,None,,,49.47522939997725,50.39095999998972,50.39095999998972,50.39095999998972,,,,,,,,,,,,,,,,,,,,,,,p129,001,2025-02-27_16h28.05.836,posner_endo_new1,2024.2.4,60.06474981785348,2025-02-27 16h28.19.615721 +0000,
cube_l.png,0.1,-0.31,valid,4,4,0,up,4.303263099980541,None,space,0.45817200001329184,None,0,4,4,4,,,,,,,,,50.39095999998972,,,,,,,,,,,,,50.37520389992278,50.39095999998972,50.39095999998972,50.39095999998972,54.704286099993624,up,4.303263099980541,None,54.71438809996471,54.7244675999973,54.7244675999973,54.77043939998839,54.770752399927005,54.78682019992266,54.78682019992266,54.78682019992266,54.85319619998336,55.254053900018334,space,0.45817200001329184,None,,,,,,,,,,,,,,,,,,,,,,,,,,,p129,001,2025-02-27_16h28.05.836,posner_endo_new1,2024.2.4,60.06474981785348,2025-02-27 16h28.19.615721 +0000,
cube_l.png,0.1,0.31,invalid,5,5,0,up,6.359900900046341,None,space,0.4587856000289321,None,0,5,5,5,,,,,,,,,55.26969200000167,,,,,,,,,,,,,55.25429519999307,55.26969200000167,55.26969200000167,55.26969200000167,61.63081649993546,up,6.359900900046341,None,61.64088329998776,61.651040000026114,61.651040000026114,61.69659349997528,61.69690039998386,61.71285629994236,61.71285629994236,61.71285629994236,61.796410399954766,62.18030639993958,space,0.4587856000289321,None,,,,,,,,,,,,,,,,,,,,,,,,,,,p129,001,2025-02-27_16h28.05.836,posner_endo_new1,2024.2.4,60.06474981785348,2025-02-27 16h28.19.615721 +0000,
cube_r.png,0.1,-0.31,invalid,6,6,0,up,4.873803299968131,None,space,0.5207842999370769,None,0,6,6,6,,,,,,,,,62.19569710001815,,,,,,,,,,,,,62.180553899961524,62.19569710001815,62.19569710001815,62.19569710001815,67.07506599999033,up,4.873803299968131,None,67.08577739994507,67.09584600001108,67.09584600001108,67.14068860001862,67.14099440001883,67.15737709996756,67.15737709996756,67.15737709996756,67.24053539999295,67.69106169999577,space,0.5207842999370769,None,,,,,,,,,,,,,,,,,,,,,,,,,,,p129,001,2025-02-27_16h28.05.836,posner_endo_new1,2024.2.4,60.06474981785348,2025-02-27 16h28.19.615721 +0000,
cube_r.png,0.1,0.31,valid,7,7,0,up,4.827798100071959,None,space,0.38907030003611,None,0,7,7,7,,,,,,,,,67.70666779996827,,,,,,,,,,,,,67.69132049998734,67.70666779996827,67.70666779996827,67.70666779996827,72.5361701999791,up,4.827798100071959,None,72.54617270000745,72.55623089999426,72.55623089999426,72.60226099996362,72.60256749996915,72.61829260003287,72.61829260003287,72.61829260003287,72.68491770001128,73.01886479998939,space,0.38907030003611,None,,,,,,,,,,,,,,,,,,,,,,,,,,,p129,001,2025-02-27_16h28.05.836,posner_endo_new1,2024.2.4,60.06474981785348,2025-02-27 16h28.19.615721 +0000,
cube_l.png,0.1,-0.31,valid,8,8,0,up,5.858885599998757,None,space,0.4061763999052346,None,0,8,8,8,,,,,,,,,73.03479469998274,,,,,,,,,,,,,73.01910789997783,73.03479469998274,73.03479469998274,73.03479469998274,78.89673639996909,up,5.858885599998757,None,78.90690149995498,78.9170067999512,78.9170067999512,78.96199590002652,78.96230270003434,78.9784900000086,78.9784900000086,78.9784900000086,79.06179069995414,79.3960201999871,space,0.4061763999052346,None,,,,,,,,,,,,,,,,,,,,,,,,,,,p129,001,2025-02-27_16h28.05.836,posner_endo_new1,2024.2.4,60.06474981785348,2025-02-27 16h28.19.615721 +0000,
cube_r.png,0.1,-0.31,invalid,9,9,0,up,5.218276100000367,None,space,0.4352755999425426,None,0,9,9,9,,,,,,,,,79.41146500001196,,,,,,,,,,,,,79.3962633999763,79.41146500001196,79.41146500001196,79.41146500001196,84.64073300000746,up,5.218276100000367,None,84.65081639995333,84.66104609996546,84.66104609996546,84.70609330001753,84.70639609999489,84.72258719999809,84.72258719999809,84.72258719999809,84.80584119993728,85.17353869997896,space,0.4352755999425426,None,,,,,,,,,,,,,,,,,,,,,,,,,,,p129,001,2025-02-27_16h28.05.836,posner_endo_new1,2024.2.4,60.06474981785348,2025-02-27 16h28.19.615721 +0000,
cube_r.png,0.1,0.31,valid,10,10,0,up,7.04843210009858,None,space,0.4984144000336528,None,0,10,10,10,,,,,,,,,85.18900729995221,,,,,,,,,,,,,85.17378529999405,85.18900729995221,85.18900729995221,85.18900729995221,92.24932379997335,up,7.04843210009858,None,92.2591747000115,92.26933079992887,92.26933079992887,92.31497720000334,92.31528089998756,92.33188539999537,92.33188539999537,92.33188539999537,92.39817950001452,92.8321732999757,space,0.4984144000336528,None,,,,,,,,,,,,,,,,,,,,,,,,,,,p129,001,2025-02-27_16h28.05.836,posner_endo_new1,2024.2.4,60.06474981785348,2025-02-27 16h28.19.615721 +0000,
,,,,,,,,,,,,,,,,,,,,,,,,,,,,,,,,,,92.83234800002538,92.84797739994247,95.85537799994927,95.82845159992576,,,,,,,,,,,,,,,,,,,,,,,,,,,,,,,,,,,,,,,,,,,,,,,,p129,001,2025-02-27_16h28.05.836,posner_endo_new1,2024.2.4,60.06474981785348,2025-02-27 16h28.19.615721 +0000,
cube_l.png,0.1,10,catch,0,0,0,up,2.2864373000338674,None,None,,,,,,,0,0,0,0,,,,,95.85537799994927,,,,,,,,,,,,,95.84657769999467,95.85537799994927,95.85537799994927,95.85537799994927,98.14342059998307,,,,98.14946300000884,98.16128290002234,98.16128290002234,98.20920069993008,98.20942720002495,98.2259285999462,98.2259285999462,98.2259285999462,98.30898859992158,101.2232375999447,,,,100.32381259999238,101.23897209996358,101.23897209996358,101.23897209996358,up,2.2864373000338674,None,None,,,,,,,,,,,,,,,,,,,p129,001,2025-02-27_16h28.05.836,posner_endo_new1,2024.2.4,60.06474981785348,2025-02-27 16h28.19.615721 +0000,
cube_l.png,0.1,10,catch,1,1,0,up,2.9755553000140935,None,None,,,,,,,0,1,1,1,,,,,101.23897209996358,,,,,,,,,,,,,101.22354409995023,101.23897209996358,101.23897209996358,101.23897209996358,104.22078730002977,,,,104.2338736000238,104.24390430003405,104.24390430003405,104.28642939997371,104.28669650002848,104.30252889997791,104.30252889997791,104.30252889997791,104.38617299997713,107.30040720000397,,,,106.40068810002413,107.31615899992175,107.31615899992175,107.31615899992175,up,2.9755553000140935,None,None,,,,,,,,,,,,,,,,,,,p129,001,2025-02-27_16h28.05.836,posner_endo_new1,2024.2.4,60.06474981785348,2025-02-27 16h28.19.615721 +0000,
cube_l.png,0.1,0.31,invalid,2,2,0,up,3.385402899933979,None,space,0.43975140003021806,None,,,,,0,2,2,2,,,,,107.31615899992175,,,,,,,,,,,,,107.30060319998302,107.31615899992175,107.31615899992175,107.31615899992175,110.71385249996092,,,,110.72195979999378,110.73261690000072,110.73261690000072,110.77942169993185,110.77968859998509,110.79612229997292,110.79612229997292,110.79612229997292,110.87933399993926,111.24678189994302,,,,,,,,up,3.385402899933979,None,space,0.43975140003021806,None,,,,,,,,,,,,,,,,,p129,001,2025-02-27_16h28.05.836,posner_endo_new1,2024.2.4,60.06474981785348,2025-02-27 16h28.19.615721 +0000,
cube_l.png,0.1,0.31,invalid,3,3,0,up,8.398812799947336,None,space,0.5213069999590516,None,,,,,0,3,3,3,,,,,111.26243569992948,,,,,,,,,,,,,111.24699689995032,111.26243569992948,111.26243569992948,111.26243569992948,119.67124990001321,,,,119.67926030000672,119.69004449993372,119.69004449993372,119.73731090000365,119.73757589992601,119.7535214999225,119.7535214999225,119.7535214999225,119.8200001999503,120.2875068000285,,,,,,,,up,8.398812799947336,None,space,0.5213069999590516,None,,,,,,,,,,,,,,,,,p129,001,2025-02-27_16h28.05.836,posner_endo_new1,2024.2.4,60.06474981785348,2025-02-27 16h28.19.615721 +0000,
cube_l.png,0.1,-0.31,valid,4,4,0,up,7.198860600008629,None,space,0.4967779000289738,None,,,,,0,4,4,4,,,,,120.3029428999871,,,,,,,,,,,,,120.28772190003656,120.3029428999871,120.3029428999871,120.3029428999871,127.5132671999745,,,,127.52125119999982,127.53228339995258,127.53228339995258,127.5793211000273,127.57958180003334,127.59583240002394,127.59583240002394,127.59583240002394,127.67862939997576,128.09636099997442,,,,,,,,up,7.198860600008629,None,space,0.4967779000289738,None,,,,,,,,,,,,,,,,,p129,001,2025-02-27_16h28.05.836,posner_endo_new1,2024.2.4,60.06474981785348,2025-02-27 16h28.19.615721 +0000,
cube_r.png,0.1,-0.31,invalid,5,5,0,up,6.838939699926414,None,space,0.4213457000441849,None,,,,,0,5,5,5,,,,,128.11170959996525,,,,,,,,,,,,,128.096592899994,128.11170959996525,128.11170959996525,128.11170959996525,134.95548889995553,,,,134.96399750001729,134.97493929998018,134.97493929998018,135.02184229996055,135.02210850000847,135.0378548000008,135.0378548000008,135.0378548000008,135.12134980002884,135.4716326999478,,,,,,,,up,6.838939699926414,None,space,0.4213457000441849,None,,,,,,,,,,,,,,,,,p129,001,2025-02-27_16h28.05.836,posner_endo_new1,2024.2.4,60.06474981785348,2025-02-27 16h28.19.615721 +0000,
cube_r.png,0.1,0.31,valid,6,6,0,up,7.533927400014363,None,space,0.40020789997652173,None,,,,,0,6,6,6,,,,,135.4873311999254,,,,,,,,,,,,,135.4718435999239,135.4873311999254,135.4873311999254,135.4873311999254,143.03080399997998,,,,143.03896249993704,143.04976880003233,143.04976880003233,143.0964629999362,143.0967263999628,143.1128439999884,143.1128439999884,143.1128439999884,143.19605469994713,143.5139135000063,,,,,,,,up,7.533927400014363,None,space,0.40020789997652173,None,,,,,,,,,,,,,,,,,p129,001,2025-02-27_16h28.05.836,posner_endo_new1,2024.2.4,60.06474981785348,2025-02-27 16h28.19.615721 +0000,
cube_r.png,0.1,-0.31,invalid,7,7,0,up,7.203710400033742,None,space,0.5073837999952957,None,,,,,0,7,7,7,,,,,143.52958490001038,,,,,,,,,,,,,143.51413020002656,143.52958490001038,143.52958490001038,143.52958490001038,150.7392851000186,,,,150.74763889994938,150.75863799999934,150.75863799999934,150.80557800002862,150.8058400999289,150.8217765999725,150.8217765999725,150.8217765999725,150.8887892999919,151.33874279994052,,,,,,,,up,7.203710400033742,None,space,0.5073837999952957,None,,,,,,,,,,,,,,,,,p129,001,2025-02-27_16h28.05.836,posner_endo_new1,2024.2.4,60.06474981785348,2025-02-27 16h28.19.615721 +0000,
cube_l.png,0.1,-0.31,valid,8,8,0,up,5.715437300037593,None,space,0.3616026999661699,None,,,,,0,8,8,8,,,,,151.35482080001384,,,,,,,,,,,,,151.3389651000034,151.35482080001384,151.35482080001384,151.35482080001384,157.0830369000323,,,,157.09108399995603,157.10195139993448,157.10195139993448,157.14883560000453,157.14909710001666,157.16522760002408,157.16522760002408,157.16522760002408,157.2484483999433,157.53245960001368,,,,,,,,up,5.715437300037593,None,space,0.3616026999661699,None,,,,,,,,,,,,,,,,,p129,001,2025-02-27_16h28.05.836,posner_endo_new1,2024.2.4,60.06474981785348,2025-02-27 16h28.19.615721 +0000,
cube_r.png,0.1,-0.31,invalid,9,9,0,up,4.528758600004949,None,space,0.3842311999760568,None,,,,,0,9,9,9,,,,,157.5485349999508,,,,,,,,,,,,,157.53267109999433,157.5485349999508,157.5485349999508,157.5485349999508,162.07815860002302,,,,162.0862696999684,162.09679199999664,162.09679199999664,162.14390609995462,162.14416759996675,162.16021000000183,162.16021000000183,162.16021000000183,162.24348129995633,162.56052549998276,,,,,,,,up,4.528758600004949,None,space,0.3842311999760568,None,,,,,,,,,,,,,,,,,p129,001,2025-02-27_16h28.05.836,posner_endo_new1,2024.2.4,60.06474981785348,2025-02-27 16h28.19.615721 +0000,
cube_l.png,0.1,0.31,invalid,10,10,0,up,6.51752899994608,None,space,0.5177527000196278,None,,,,,0,10,10,10,,,,,162.57663659995887,,,,,,,,,,,,,162.56073509994894,162.57663659995887,162.57663659995887,162.57663659995887,169.10387869994156,,,,169.11191949993372,169.12302840000484,169.12302840000484,169.16993370000273,169.17020339996088,169.18634899996687,169.18634899996687,169.18634899996687,169.25291189993732,169.72042179992422,,,,,,,,up,6.51752899994608,None,space,0.5177527000196278,None,,,,,,,,,,,,,,,,,p129,001,2025-02-27_16h28.05.836,posner_endo_new1,2024.2.4,60.06474981785348,2025-02-27 16h28.19.615721 +0000,
cube_r.png,0.1,-0.31,invalid,11,11,0,up,6.958222100045532,None,space,0.36127770005259663,None,,,,,0,11,11,11,,,,,169.73565069993492,,,,,,,,,,,,,169.7206338000251,169.73565069993492,169.73565069993492,169.73565069993492,176.69663929997478,,,,176.70481619995553,176.71539579995442,176.71539579995442,176.7619865000015,176.7622476000106,176.7786952999886,176.7786952999886,176.7786952999886,176.8617891999893,177.14559319999535,,,,,,,,up,6.958222100045532,None,space,0.36127770005259663,None,,,,,,,,,,,,,,,,,p129,001,2025-02-27_16h28.05.836,posner_endo_new1,2024.2.4,60.06474981785348,2025-02-27 16h28.19.615721 +0000,
cube_r.png,0.1,0.31,valid,12,12,0,up,4.404281700029969,None,space,0.38843399996403605,None,,,,,0,12,12,12,,,,,177.16169919993263,,,,,,,,,,,,,177.14580379996914,177.16169919993263,177.16169919993263,177.16169919993263,181.57448459998704,,,,181.58253319992218,181.59363309992477,181.59363309992477,181.64071649999823,181.6409787000157,181.6571042999858,181.6571042999858,181.6571042999858,181.72349230002146,182.05724300001748,,,,,,,,up,4.404281700029969,None,space,0.38843399996403605,None,,,,,,,,,,,,,,,,,p129,001,2025-02-27_16h28.05.836,posner_endo_new1,2024.2.4,60.06474981785348,2025-02-27 16h28.19.615721 +0000,
cube_l.png,0.1,10,catch,13,13,0,up,4.492526899906807,None,None,,,,,,,0,13,13,13,,,,,182.0734875999624,,,,,,,,,,,,,182.05745409999508,182.0734875999624,182.0734875999624,182.0734875999624,186.56946209992748,,,,186.57742709992453,186.58846819994505,186.58846819994505,186.63527700002305,186.63553700002376,186.65205399994738,186.65205399994738,186.65205399994738,186.7350416999543,189.64949139999226,,,,188.74965060001705,189.66543940000702,189.66543940000702,189.66543940000702,up,4.492526899906807,None,None,,,,,,,,,,,,,,,,,,,p129,001,2025-02-27_16h28.05.836,posner_endo_new1,2024.2.4,60.06474981785348,2025-02-27 16h28.19.615721 +0000,
cube_r.png,0.1,-0.31,invalid,14,14,0,up,3.4366788000334054,None,space,0.42733370000496507,None,,,,,0,14,14,14,,,,,189.66543940000702,,,,,,,,,,,,,189.64968809997663,189.66543940000702,189.66543940000702,189.66543940000702,193.11260699993,,,,193.1207938999869,193.13167479995172,193.13167479995172,193.1790214999346,193.17928079992998,193.1951062999433,193.1951062999433,193.1951062999433,193.2617128000129,193.62915569997858,,,,,,,,up,3.4366788000334054,None,space,0.42733370000496507,None,,,,,,,,,,,,,,,,,p129,001,2025-02-27_16h28.05.836,posner_endo_new1,2024.2.4,60.06474981785348,2025-02-27 16h28.19.615721 +0000,
cube_l.png,0.1,-0.31,valid,15,15,0,up,5.68140909995418,None,space,0.548010400030762,None,,,,,0,15,15,15,,,,,193.6448230999522,,,,,,,,,,,,,193.6293685999699,193.6448230999522,193.6448230999522,193.6448230999522,199.34008470003027,,,,199.34821339999326,199.35889060003683,199.35889060003683,199.40588089998346,199.40614969993476,199.4224566000048,199.4224566000048,199.4224566000048,199.50532569992356,199.9724256999325,,,,,,,,up,5.68140909995418,None,space,0.548010400030762,None,,,,,,,,,,,,,,,,,p129,001,2025-02-27_16h28.05.836,posner_endo_new1,2024.2.4,60.06474981785348,2025-02-27 16h28.19.615721 +0000,
cube_r.png,0.1,10,catch,16,16,0,up,5.746042100014165,None,None,,,,,,,0,16,16,16,,,,,199.98825619998388,,,,,,,,,,,,,199.97263919992838,199.98825619998388,199.98825619998388,199.98825619998388,205.7497194999596,,,,205.7576864999719,205.76897510001436,205.76897510001436,205.81601640000008,205.81627680000383,205.83213480003178,205.83213480003178,205.83213480003178,205.91577409999445,208.82961579994299,,,,207.93034850002732,208.8459007999627,208.8459007999627,208.8459007999627,up,5.746042100014165,None,None,,,,,,,,,,,,,,,,,,,p129,001,2025-02-27_16h28.05.836,posner_endo_new1,2024.2.4,60.06474981785348,2025-02-27 16h28.19.615721 +0000,
cube_r.png,0.1,10,catch,17,17,0,up,2.0639043000992388,None,None,,,,,,,0,17,17,17,,,,,208.8459007999627,,,,,,,,,,,,,208.82981789996848,208.8459007999627,208.8459007999627,208.8459007999627,210.91156519996002,,,,210.9196237999713,210.93032869999297,210.93032869999297,210.97740149998572,210.97766490001231,210.99381779995747,210.99381779995747,210.99381779995747,211.07680579996668,213.99134149996098,,,,213.09191049996298,214.007137699984,214.007137699984,214.007137699984,up,2.0639043000992388,None,None,,,,,,,,,,,,,,,,,,,p129,001,2025-02-27_16h28.05.836,posner_endo_new1,2024.2.4,60.06474981785348,2025-02-27 16h28.19.615721 +0000,
cube_l.png,0.1,0.31,invalid,18,18,0,up,3.73491430003196,None,space,0.5073994999984279,None,,,,,0,18,18,18,,,,,214.007137699984,,,,,,,,,,,,,213.99153929995373,214.007137699984,214.007137699984,214.007137699984,217.7543087999802,,,,217.76233860000502,217.7734243000159,217.7734243000159,217.820081199985,217.8203588000033,217.83686779998243,217.83686779998243,217.83686779998243,217.91981570003554,218.35395220003556,,,,,,,,up,3.73491430003196,None,space,0.5073994999984279,None,,,,,,,,,,,,,,,,,p129,001,2025-02-27_16h28.05.836,posner_endo_new1,2024.2.4,60.06474981785348,2025-02-27 16h28.19.615721 +0000,
cube_l.png,0.1,10,catch,19,19,0,up,5.876506199943833,None,None,,,,,,,0,19,19,19,,,,,218.36982809996698,,,,,,,,,,,,,218.3541711999569,218.36982809996698,218.36982809996698,218.36982809996698,224.24805809999816,,,,224.25605069997255,224.2667475999333,224.2667475999333,224.31342319992837,224.31368279992603,224.33026119996794,224.33026119996794,224.33026119996794,224.41370609996375,227.32742530002724,,,,226.42800169996917,227.34390560002066,227.34390560002066,227.34390560002066,up,5.876506199943833,None,None,,,,,,,,,,,,,,,,,,,p129,001,2025-02-27_16h28.05.836,posner_endo_new1,2024.2.4,60.06474981785348,2025-02-27 16h28.19.615721 +0000,
cube_l.png,0.1,0.31,invalid,20,20,0,up,11.725652399938554,None,space,0.4680335000157356,None,,,,,0,20,20,20,,,,,227.34390560002066,,,,,,,,,,,,,227.3276244000299,227.34390560002066,227.34390560002066,227.34390560002066,239.08239969995338,,,,239.09042979998048,239.10162650002167,239.10162650002167,239.14874660002533,239.1490081999218,239.16480209992733,239.16480209992733,239.16480209992733,239.248565100017,239.64885939995293,,,,,,,,up,11.725652399938554,None,space,0.4680335000157356,None,,,,,,,,,,,,,,,,,p129,001,2025-02-27_16h28.05.836,posner_endo_new1,2024.2.4,60.06474981785348,2025-02-27 16h28.19.615721 +0000,
cube_l.png,0.1,-0.31,valid,21,21,0,up,12.68480930000078,None,space,0.5253137000836432,None,,,,,0,21,21,21,,,,,239.66474589996506,,,,,,,,,,,,,239.649074499961,239.66474589996506,239.66474589996506,239.66474589996506,252.35223660001066,,,,252.36029179999605,252.3713299999945,252.3713299999945,252.41836909996346,252.41863309999462,252.43453229998704,252.43453229998704,252.43453229998704,252.5177904999582,252.9682807000354,,,,,,,,up,12.68480930000078,None,space,0.5253137000836432,None,,,,,,,,,,,,,,,,,p129,001,2025-02-27_16h28.05.836,posner_endo_new1,2024.2.4,60.06474981785348,2025-02-27 16h28.19.615721 +0000,
cube_r.png,0.1,0.31,valid,22,22,0,up,8.150158199947327,None,space,0.5722020000685006,None,,,,,0,22,22,22,,,,,252.9842881000368,,,,,,,,,,,,,252.96850129996892,252.9842881000368,252.9842881000368,252.9842881000368,261.1431467999937,,,,261.1511571999872,261.1625323999906,261.1625323999906,261.209389799973,261.20965949993115,261.225639399956,261.225639399956,261.225639399956,261.29266229993664,261.80955170001835,,,,,,,,up,8.150158199947327,None,space,0.5722020000685006,None,,,,,,,,,,,,,,,,,p129,001,2025-02-27_16h28.05.836,posner_endo_new1,2024.2.4,60.06474981785348,2025-02-27 16h28.19.615721 +0000,
cube_r.png,0.1,-0.31,invalid,23,23,0,up,6.284952700021677,None,space,0.4108053999952972,None,,,,,0,23,23,23,,,,,261.82494930003304,,,,,,,,,,,,,261.8097656000173,261.82494930003304,261.82494930003304,261.82494930003304,268.1193050999427,,,,268.12719639996067,268.13859620003495,268.13859620003495,268.18557420000434,268.185833800002,268.20195279992186,268.20195279992186,268.20195279992186,268.268407399999,268.61890430003405,,,,,,,,up,6.284952700021677,None,space,0.4108053999952972,None,,,,,,,,,,,,,,,,,p129,001,2025-02-27_16h28.05.836,posner_endo_new1,2024.2.4,60.06474981785348,2025-02-27 16h28.19.615721 +0000,
cube_r.png,0.1,0.31,valid,24,24,0,up,7.155718999914825,None,space,0.4015551999909803,None,,,,,0,24,24,24,,,,,268.634672199958,,,,,,,,,,,,,268.619114000001,268.634672199958,268.634672199958,268.634672199958,275.79489769996144,,,,275.80288219999056,275.81406050000805,275.81406050000805,275.8608841999667,275.86114299995825,275.8772631000029,275.8772631000029,275.8772631000029,275.9438283999916,276.29441079997923,,,,,,,,up,7.155718999914825,None,space,0.4015551999909803,None,,,,,,,,,,,,,,,,,p129,001,2025-02-27_16h28.05.836,posner_endo_new1,2024.2.4,60.06474981785348,2025-02-27 16h28.19.615721 +0000,
cube_r.png,0.1,-0.31,invalid,25,25,0,up,7.071277299895883,None,space,0.4866020999616012,None,,,,,0,25,25,25,,,,,276.31063159997575,,,,,,,,,,,,,276.294627700001,276.31063159997575,276.31063159997575,276.31063159997575,283.38752380001824,,,,283.40047019999474,283.4111533999676,283.4111533999676,283.4530299999751,283.4532910999842,283.46947379992343,283.46947379992343,283.46947379992343,283.5527997999452,283.9698265999323,,,,,,,,up,7.071277299895883,None,space,0.4866020999616012,None,,,,,,,,,,,,,,,,,p129,001,2025-02-27_16h28.05.836,posner_endo_new1,2024.2.4,60.06474981785348,2025-02-27 16h28.19.615721 +0000,
cube_l.png,0.1,-0.31,valid,26,26,0,up,5.444341299938969,None,space,0.4304215000011027,None,,,,,0,26,26,26,,,,,283.985894799931,,,,,,,,,,,,,283.970045199967,283.985894799931,283.985894799931,283.985894799931,289.43159289995674,,,,289.4395352000138,289.44994329998735,289.44994329998735,289.4972408999456,289.4975063999882,289.51382879994344,289.51382879994344,289.51382879994344,289.59659089997876,289.94722249999177,,,,,,,,up,5.444341299938969,None,space,0.4304215000011027,None,,,,,,,,,,,,,,,,,p129,001,2025-02-27_16h28.05.836,posner_endo_new1,2024.2.4,60.06474981785348,2025-02-27 16h28.19.615721 +0000,
cube_r.png,0.1,0.31,valid,27,27,0,up,5.931432800018229,None,space,0.3851107000373304,None,,,,,0,27,27,27,,,,,289.96291020000353,,,,,,,,,,,,,289.9474344999762,289.96291020000353,289.96291020000353,289.96291020000353,295.90801619994454,,,,295.9159287000075,295.9267191999825,295.9267191999825,295.97357479995117,295.9738460999215,295.99006350000855,295.99006350000855,295.99006350000855,296.05663070001174,296.3908174999524,,,,,,,,up,5.931432800018229,None,space,0.3851107000373304,None,,,,,,,,,,,,,,,,,p129,001,2025-02-27_16h28.05.836,posner_endo_new1,2024.2.4,60.06474981785348,2025-02-27 16h28.19.615721 +0000,
cube_r.png,0.1,10,catch,28,28,0,up,7.4156725000357255,None,None,,,,,,,0,28,28,28,,,,,296.40627159993164,,,,,,,,,,,,,296.39103679999243,296.40627159993164,296.40627159993164,296.40627159993164,303.8332199000288,,,,303.8412258999888,303.8521122999955,303.8521122999955,303.8988388000289,303.899105999968,303.91572599997744,303.91572599997744,303.91572599997744,303.9985656000208,306.9128689999925,,,,306.0135245999554,306.9290859999601,306.9290859999601,306.9290859999601,up,7.4156725000357255,None,None,,,,,,,,,,,,,,,,,,,p129,001,2025-02-27_16h28.05.836,posner_endo_new1,2024.2.4,60.06474981785348,2025-02-27 16h28.19.615721 +0000,
cube_r.png,0.1,0.31,valid,29,29,0,up,3.6771602000808343,None,space,0.46630269999150187,None,,,,,0,29,29,29,,,,,306.9290859999601,,,,,,,,,,,,,306.91306629998144,306.9290859999601,306.9290859999601,306.9290859999601,310.609426699928,,,,310.6173991999822,310.62843079993036,310.62843079993036,310.67518449993804,310.6754494999768,310.69169280002825,310.69169280002825,310.69169280002825,310.7753481999971,311.15919519995805,,,,,,,,up,3.6771602000808343,None,space,0.46630269999150187,None,,,,,,,,,,,,,,,,,p129,001,2025-02-27_16h28.05.836,posner_endo_new1,2024.2.4,60.06474981785348,2025-02-27 16h28.19.615721 +0000,
cube_r.png,0.1,0.31,valid,30,30,0,up,5.766940500005148,None,space,0.5790093000978231,None,,,,,0,30,30,30,,,,,311.1747866999358,,,,,,,,,,,,,311.159404899925,311.1747866999358,311.1747866999358,311.1747866999358,316.9530856999336,,,,316.9610127999913,316.97199039999396,316.97199039999396,317.0187066999497,317.01896989997476,317.03538849996403,317.03538849996403,317.03538849996403,317.1189097999595,317.61877309996635,,,,,,,,up,5.766940500005148,None,space,0.5790093000978231,None,,,,,,,,,,,,,,,,,p129,001,2025-02-27_16h28.05.836,posner_endo_new1,2024.2.4,60.06474981785348,2025-02-27 16h28.19.615721 +0000,
cube_l.png,0.1,-0.31,valid,31,31,0,up,6.012211000081152,None,space,0.5281693999422714,None,,,,,0,31,31,31,,,,,317.63490810000803,,,,,,,,,,,,,317.61899069999345,317.63490810000803,317.63490810000803,317.63490810000803,323.6630688000005,,,,323.67096849996597,323.68172200000845,323.68172200000845,323.7290101000108,323.7292708000168,323.7450361000374,323.7450361000374,323.7450361000374,323.8286248999648,324.2787437000079,,,,,,,,up,6.012211000081152,None,space,0.5281693999422714,None,,,,,,,,,,,,,,,,,p129,001,2025-02-27_16h28.05.836,posner_endo_new1,2024.2.4,60.06474981785348,2025-02-27 16h28.19.615721 +0000,
cube_r.png,0.1,0.31,valid,32,32,0,up,8.479780100053176,None,space,0.3937615000177175,None,,,,,0,32,32,32,,,,,324.29449020000175,,,,,,,,,,,,,324.27895319997333,324.29449020000175,324.29449020000175,324.29449020000175,332.7867242000066,,,,332.7946382999653,332.8058946999954,332.8058946999954,332.8526762999827,332.8529395000078,332.86921969999094,332.86921969999094,332.86921969999094,332.9525414999807,333.2694343000185,,,,,,,,up,8.479780100053176,None,space,0.3937615000177175,None,,,,,,,,,,,,,,,,,p129,001,2025-02-27_16h28.05.836,posner_endo_new1,2024.2.4,60.06474981785348,2025-02-27 16h28.19.615721 +0000,
cube_r.png,0.1,-0.31,invalid,33,33,0,up,5.328662099898793,None,space,0.4848994000349194,None,,,,,0,33,33,33,,,,,333.2857114999788,,,,,,,,,,,,,333.26964499999303,333.2857114999788,333.2857114999788,333.2857114999788,338.6306121000089,,,,338.6386414000299,338.64989709993824,338.64989709993824,338.69712809997145,338.69739719992504,338.71346260001883,338.71346260001883,338.71346260001883,338.78016399999615,339.2133461999474,,,,,,,,up,5.328662099898793,None,space,0.4848994000349194,None,,,,,,,,,,,,,,,,,p129,001,2025-02-27_16h28.05.836,posner_endo_new1,2024.2.4,60.06474981785348,2025-02-27 16h28.19.615721 +0000,
cube_r.png,0.1,10,catch,34,34,0,up,5.71320180001203,None,None,,,,,,,0,34,34,34,,,,,339.2293352999259,,,,,,,,,,,,,339.2135611999547,339.2293352999259,339.2293352999259,339.2293352999259,344.95752940000966,,,,344.96546139998827,344.97683609998785,344.97683609998785,345.0238037999952,345.0240270999493,345.0403715999564,345.0403715999564,345.0403715999564,345.1071048999438,348.03751099994406,,,,347.1212876000209,348.0540053999284,348.0540053999284,348.0540053999284,up,5.71320180001203,None,None,,,,,,,,,,,,,,,,,,,p129,001,2025-02-27_16h28.05.836,posner_endo_new1,2024.2.4,60.06474981785348,2025-02-27 16h28.19.615721 +0000,
cube_r.png,0.1,0.31,valid,35,35,0,up,4.480353599996306,None,space,0.43123410001862794,None,,,,,0,35,35,35,,,,,348.0540053999284,,,,,,,,,,,,,348.03767400002107,348.0540053999284,348.0540053999284,348.0540053999284,352.55051279999316,,,,352.5566053999355,352.5683418000117,352.5683418000117,352.61604150000494,352.6162653999636,352.6326390999602,352.6326390999602,352.6326390999602,352.71566039999016,353.0663019999629,,,,,,,,up,4.480353599996306,None,space,0.43123410001862794,None,,,,,,,,,,,,,,,,,p129,001,2025-02-27_16h28.05.836,posner_endo_new1,2024.2.4,60.06474981785348,2025-02-27 16h28.19.615721 +0000,
cube_r.png,0.1,-0.31,invalid,36,36,0,up,5.963827700004913,None,space,0.3849587000440806,None,,,,,0,36,36,36,,,,,353.0819995999336,,,,,,,,,,,,,353.0664771000156,353.0819995999336,353.0819995999336,353.0819995999336,359.05998549994547,,,,359.0662040000316,359.07786359998863,359.07786359998863,359.12606819998473,359.12629609997384,359.14259659999516,359.14259659999516,359.14259659999516,359.2088679999579,359.54290809994563,,,,,,,,up,5.963827700004913,None,space,0.3849587000440806,None,,,,,,,,,,,,,,,,,p129,001,2025-02-27_16h28.05.836,posner_endo_new1,2024.2.4,60.06474981785348,2025-02-27 16h28.19.615721 +0000,
cube_l.png,0.1,0.31,invalid,37,37,0,up,10.759671100066043,None,space,0.4181054999353364,None,,,,,0,37,37,37,,,,,359.5587023999542,,,,,,,,,,,,,359.5430862000212,359.5587023999542,359.5587023999542,359.5587023999542,370.33162569999695,,,,370.33773549995385,370.3493867999641,370.3493867999641,370.39797169994563,370.3981980999233,370.4145190999843,370.4145190999843,370.4145190999843,370.48051859997213,370.84804319997784,,,,,,,,up,10.759671100066043,None,space,0.4181054999353364,None,,,,,,,,,,,,,,,,,p129,001,2025-02-27_16h28.05.836,posner_endo_new1,2024.2.4,60.06474981785348,2025-02-27 16h28.19.615721 +0000,
cube_l.png,0.1,0.31,invalid,38,38,0,up,5.070058799930848,None,space,0.6605935000116006,None,,,,,0,38,38,38,,,,,370.86397499998566,,,,,,,,,,,,,370.8482238999568,370.86397499998566,370.86397499998566,370.86397499998566,375.9425210999325,,,,375.948549099965,375.96012319996953,375.96012319996953,376.0087463000091,376.0089783000294,376.0254105000058,376.0254105000058,376.0254105000058,376.0918943999568,376.69220319995657,,,,,,,,up,5.070058799930848,None,space,0.6605935000116006,None,,,,,,,,,,,,,,,,,p129,001,2025-02-27_16h28.05.836,posner_endo_new1,2024.2.4,60.06474981785348,2025-02-27 16h28.19.615721 +0000,
cube_r.png,0.1,0.31,valid,39,39,0,up,5.68215050001163,None,space,0.36466049996670336,None,,,,,0,39,39,39,,,,,376.70787899999414,,,,,,,,,,,,,376.6923766999971,376.70787899999414,376.70787899999414,376.70787899999414,382.40293380001094,,,,382.4089787999401,382.42060680000577,382.42060680000577,382.469049599953,382.4692779999459,382.48531639995053,382.48531639995053,382.48531639995053,382.55201330001,382.85228420002386,,,,,,,,up,5.68215050001163,None,space,0.36466049996670336,None,,,,,,,,,,,,,,,,,p129,001,2025-02-27_16h28.05.836,posner_endo_new1,2024.2.4,60.06474981785348,2025-02-27 16h28.19.615721 +0000,
cube_l.png,0.1,0.31,invalid,40,40,0,up,8.754153500078246,None,space,0.4176226001000032,None,,,,,0,40,40,40,,,,,382.8684909000294,,,,,,,,,,,,,382.85246329999063,382.8684909000294,382.8684909000294,382.8684909000294,391.6269728000043,,,,391.63317899999674,391.6449806999881,391.6449806999881,391.69285190000664,391.6930772999767,391.7093781000003,391.7093781000003,391.7093781000003,391.7925384999253,392.1430291000288,,,,,,,,up,8.754153500078246,None,space,0.4176226001000032,None,,,,,,,,,,,,,,,,,p129,001,2025-02-27_16h28.05.836,posner_endo_new1,2024.2.4,60.06474981785348,2025-02-27 16h28.19.615721 +0000,
cube_l.png,0.1,10,catch,41,41,0,up,5.95144109998364,None,None,,,,,,,0,41,41,41,,,,,392.15898619999643,,,,,,,,,,,,,392.1432016999461,392.15898619999643,392.15898619999643,392.15898619999643,398.12008219992276,,,,398.12616959994193,398.13762779999524,398.13762779999524,398.18586710002273,398.1860922999913,398.2027012000326,398.2027012000326,398.2027012000326,398.26917410001624,401.20004549995065,,,,400.283834700007,401.21590960002504,401.21590960002504,401.21590960002504,up,5.95144109998364,None,None,,,,,,,,,,,,,,,,,,,p129,001,2025-02-27_16h28.05.836,posner_endo_new1,2024.2.4,60.06474981785348,2025-02-27 16h28.19.615721 +0000,
cube_l.png,0.1,-0.31,valid,42,42,0,up,3.54261859995313,None,space,0.4376479000784457,None,,,,,0,42,42,42,,,,,401.21590960002504,,,,,,,,,,,,,401.2003480999265,401.21590960002504,401.21590960002504,401.21590960002504,404.76371600001585,,,,404.77665409992915,404.7866466999985,404.7866466999985,404.82896359998267,404.82923819997814,404.84579279995523,404.84579279995523,404.84579279995523,404.9289445999311,405.29619569994975,,,,,,,,up,3.54261859995313,None,space,0.4376479000784457,None,,,,,,,,,,,,,,,,,p129,001,2025-02-27_16h28.05.836,posner_endo_new1,2024.2.4,60.06474981785348,2025-02-27 16h28.19.615721 +0000,
cube_l.png,0.1,10,catch,43,43,0,up,7.326580099994317,None,None,,,,,,,0,43,43,43,,,,,405.31203849997837,,,,,,,,,,,,,405.29644019994885,405.31203849997837,405.31203849997837,405.31203849997837,412.65508980001323,,,,412.66358239995316,412.6743212000001,412.6743212000001,412.7211708999239,412.72144550003577,412.7374523000326,412.7374523000326,412.7374523000326,412.8209848999977,415.7351722000167,,,,414.835713999928,415.75135169993155,415.75135169993155,415.75135169993155,up,7.326580099994317,None,None,,,,,,,,,,,,,,,,,,,p129,001,2025-02-27_16h28.05.836,posner_endo_new1,2024.2.4,60.06474981785348,2025-02-27 16h28.19.615721 +0000,
cube_l.png,0.1,0.31,invalid,44,44,0,up,4.535332500003278,None,space,0.46661240002140403,None,,,,,0,44,44,44,,,,,415.75135169993155,,,,,,,,,,,,,415.73538129997905,415.75135169993155,415.75135169993155,415.75135169993155,420.297608199995,,,,420.306224299944,420.3163340999745,420.3163340999745,420.36351089994423,420.3637926999945,420.3799412000226,420.3799412000226,420.3799412000226,420.46283099998254,420.86332479992416,,,,,,,,up,4.535332500003278,None,space,0.46661240002140403,None,,,,,,,,,,,,,,,,,p129,001,2025-02-27_16h28.05.836,posner_endo_new1,2024.2.4,60.06474981785348,2025-02-27 16h28.19.615721 +0000,
cube_l.png,0.1,0.31,invalid,45,45,0,up,8.519192500039935,None,space,0.5000755999935791,None,,,,,0,45,45,45,,,,,420.87913120002486,,,,,,,,,,,,,420.86355529993307,420.87913120002486,420.87913120002486,420.87913120002486,429.40466050000396,,,,429.41312069993,429.4238409999525,429.4238409999525,429.47052680002525,429.47080389992334,429.48700660001487,429.48700660001487,429.48700660001487,429.5704092999222,429.98800070001744,,,,,,,,up,8.519192500039935,None,space,0.5000755999935791,None,,,,,,,,,,,,,,,,,p129,001,2025-02-27_16h28.05.836,posner_endo_new1,2024.2.4,60.06474981785348,2025-02-27 16h28.19.615721 +0000,
cube_r.png,0.1,0.31,valid,46,46,0,up,6.394554300000891,None,space,0.5037405000766739,None,,,,,0,46,46,46,,,,,430.00326159992255,,,,,,,,,,,,,429.9882300000172,430.00326159992255,430.00326159992255,430.00326159992255,436.4141780999489,,,,436.4226358999731,436.43325619993266,436.43325619993266,436.4800349000143,436.48030980001204,436.4970452999696,436.4970452999696,436.4970452999696,436.5799828999443,437.0138303999556,,,,,,,,up,6.394554300000891,None,space,0.5037405000766739,None,,,,,,,,,,,,,,,,,p129,001,2025-02-27_16h28.05.836,posner_endo_new1,2024.2.4,60.06474981785348,2025-02-27 16h28.19.615721 +0000,
cube_l.png,0.1,-0.31,valid,47,47,0,up,6.360871599987149,None,space,0.5778545000357553,None,,,,,0,47,47,47,,,,,437.02936579997186,,,,,,,,,,,,,437.01405130000785,437.02936579997186,437.02936579997186,437.02936579997186,443.40730960003566,,,,443.4159298000159,443.42607219994534,443.42607219994534,443.4728623999981,443.4731422000332,443.4897412999999,443.4897412999999,443.4897412999999,443.5731453000335,444.0730334999971,,,,,,,,up,6.360871599987149,None,space,0.5778545000357553,None,,,,,,,,,,,,,,,,,p129,001,2025-02-27_16h28.05.836,posner_endo_new1,2024.2.4,60.06474981785348,2025-02-27 16h28.19.615721 +0000,
cube_r.png,0.1,-0.31,invalid,48,48,0,up,7.870403100037947,None,space,0.4191165999509394,None,,,,,0,48,48,48,,,,,444.08872180001345,,,,,,,,,,,,,444.0732557999436,444.08872180001345,444.08872180001345,444.08872180001345,451.96499439992476,,,,451.97344959992915,451.9840463999426,451.9840463999426,452.0311366999522,452.03142110002227,452.047615999938,452.047615999938,452.047615999938,452.13061580003705,452.48111649998464,,,,,,,,up,7.870403100037947,None,space,0.4191165999509394,None,,,,,,,,,,,,,,,,,p129,001,2025-02-27_16h28.05.836,posner_endo_new1,2024.2.4,60.06474981785348,2025-02-27 16h28.19.615721 +0000,
cube_r.png,0.1,10,catch,49,49,0,up,7.661016200087033,None,None,,,,,,,0,49,49,49,,,,,452.497015299974,,,,,,,,,,,,,452.48134209995624,452.497015299974,452.497015299974,452.497015299974,460.17368849995546,,,,460.18219159997534,460.19231760001276,460.19231760001276,460.239123599953,460.23939829994924,460.2558405000018,460.2558405000018,460.2558405000018,460.3388466000324,463.253277999931,,,,462.3534303000197,463.2691345999483,463.2691345999483,463.2691345999483,up,7.661016200087033,None,None,,,,,,,,,,,,,,,,,,,p129,001,2025-02-27_16h28.05.836,posner_endo_new1,2024.2.4,60.06474981785348,2025-02-27 16h28.19.615721 +0000,
cube_l.png,0.1,-0.31,valid,50,50,0,up,7.570501600042917,None,space,0.43424970004707575,None,,,,,0,50,50,50,,,,,463.2691345999483,,,,,,,,,,,,,463.2534863000037,463.2691345999483,463.2691345999483,463.2691345999483,470.845809899969,,,,470.854393000016,470.86475019995123,470.86475019995123,470.91149139998015,470.9117723000236,470.9279712999705,470.9279712999705,470.9279712999705,471.0116035999963,471.3788982999977,,,,,,,,up,7.570501600042917,None,space,0.43424970004707575,None,,,,,,,,,,,,,,,,,p129,001,2025-02-27_16h28.05.836,posner_endo_new1,2024.2.4,60.06474981785348,2025-02-27 16h28.19.615721 +0000,
cube_l.png,0.1,-0.31,valid,51,51,0,up,8.011757299886085,None,space,0.5283252999652177,None,,,,,0,51,51,51,,,,,471.3943047999637,,,,,,,,,,,,,471.3791198999388,471.3943047999637,471.3943047999637,471.3943047999637,479.4202704000054,,,,479.42885429994203,479.43941029999405,479.43941029999405,479.48634970001876,479.48662480001803,479.50299509998877,479.50299509998877,479.50299509998877,479.58585999999195,480.0362998000346,,,,,,,,up,8.011757299886085,None,space,0.5283252999652177,None,,,,,,,,,,,,,,,,,p129,001,2025-02-27_16h28.05.836,posner_endo_new1,2024.2.4,60.06474981785348,2025-02-27 16h28.19.615721 +0000,
cube_r.png,0.1,-0.31,invalid,52,52,0,up,7.098278100020252,None,space,0.5671238999348134,None,,,,,0,52,52,52,,,,,480.05198470002506,,,,,,,,,,,,,480.0365290000336,480.05198470002506,480.05198470002506,480.05198470002506,487.16255659994204,,,,487.1711160999257,487.18148159992415,487.18148159992415,487.22822109994013,487.2284961999394,487.2449919999344,487.2449919999344,487.2449919999344,487.3279728000052,487.8285293999361,,,,,,,,up,7.098278100020252,None,space,0.5671238999348134,None,,,,,,,,,,,,,,,,,p129,001,2025-02-27_16h28.05.836,posner_endo_new1,2024.2.4,60.06474981785348,2025-02-27 16h28.19.615721 +0000,
cube_l.png,0.1,-0.31,valid,53,53,0,up,6.897810499998741,None,space,0.5985404000384733,None,,,,,0,53,53,53,,,,,487.8440284000244,,,,,,,,,,,,,487.82875179999974,487.8440284000244,487.8440284000244,487.8440284000244,494.75460390001535,,,,494.76310789992567,494.77369319996797,494.77369319996797,494.8205186999403,494.8207936999388,494.83723930001725,494.83723930001725,494.83723930001725,494.9202527999878,495.437480899971,,,,,,,,up,6.897810499998741,None,space,0.5985404000384733,None,,,,,,,,,,,,,,,,,p129,001,2025-02-27_16h28.05.836,posner_endo_new1,2024.2.4,60.06474981785348,2025-02-27 16h28.19.615721 +0000,
cube_r.png,0.1,10,catch,54,54,0,up,5.8894612999865785,None,None,,,,,,,0,54,54,54,,,,,495.45291120000184,,,,,,,,,,,,,495.4377021000255,495.45291120000184,495.45291120000184,495.45291120000184,501.34800080000423,,,,501.3564697999973,501.36686209996697,501.36686209996697,501.4136779999826,501.4139025999466,501.43074189999606,501.43074189999606,501.43074189999606,501.51379390002694,504.4279955999227,,,,503.52849729999434,504.4443518000189,504.4443518000189,504.4443518000189,up,5.8894612999865785,None,None,,,,,,,,,,,,,,,,,,,p129,001,2025-02-27_16h28.05.836,posner_endo_new1,2024.2.4,60.06474981785348,2025-02-27 16h28.19.615721 +0000,
cube_l.png,0.1,0.31,invalid,55,55,0,up,12.66574850003235,None,space,0.44648140005301684,None,,,,,0,55,55,55,,,,,504.4443518000189,,,,,,,,,,,,,504.42816190002486,504.4443518000189,504.4443518000189,504.4443518000189,517.1152831999352,,,,517.1213254999602,517.1328077999642,517.1328077999642,517.1811359999701,517.1813695000019,517.1977319000289,517.1977319000289,517.1977319000289,517.264296600013,517.6482417000225,,,,,,,,up,12.66574850003235,None,space,0.44648140005301684,None,,,,,,,,,,,,,,,,,p129,001,2025-02-27_16h28.05.836,posner_endo_new1,2024.2.4,60.06474981785348,2025-02-27 16h28.19.615721 +0000,
cube_l.png,0.1,-0.31,valid,56,56,0,up,6.662728399969637,None,space,0.5778397999238223,None,,,,,0,56,56,56,,,,,517.6638900999678,,,,,,,,,,,,,517.6484126999276,517.6638900999678,517.6638900999678,517.6638900999678,524.3415268999524,,,,524.351304700016,524.3615310000023,524.3615310000023,524.4069792999653,524.407283199951,524.4233870999888,524.4233870999888,524.4233870999888,524.5066201000009,525.0074130999856,,,,,,,,up,6.662728399969637,None,space,0.5778397999238223,None,,,,,,,,,,,,,,,,,p129,001,2025-02-27_16h28.05.836,posner_endo_new1,2024.2.4,60.06474981785348,2025-02-27 16h28.19.615721 +0000,
cube_r.png,0.1,0.31,valid,57,57,0,up,7.688402400002815,None,space,0.4477807000512257,None,,,,,0,57,57,57,,,,,525.0229849999305,,,,,,,,,,,,,525.0076613000128,525.0229849999305,525.0229849999305,525.0229849999305,532.7162487999303,,,,532.7262500999495,532.736265799962,532.736265799962,532.7818888999755,532.7821941999719,532.7985835999716,532.7985835999716,532.7985835999716,532.8817162000341,533.2493519999553,,,,,,,,up,7.688402400002815,None,space,0.4477807000512257,None,,,,,,,,,,,,,,,,,p129,001,2025-02-27_16h28.05.836,posner_endo_new1,2024.2.4,60.06474981785348,2025-02-27 16h28.19.615721 +0000,
cube_r.png,0.1,-0.31,invalid,58,58,0,up,7.318158200010657,None,space,0.44723110005725175,None,,,,,0,58,58,58,,,,,533.2647014999529,,,,,,,,,,,,,533.2496083999285,533.2647014999529,533.2647014999529,533.2647014999529,540.5915816000197,,,,540.6014513999689,540.6115646000253,540.6115646000253,540.657039099955,540.6573419999331,540.6737119000172,540.6737119000172,540.6737119000172,540.7570820000255,541.1240183999762,,,,,,,,up,7.318158200010657,None,space,0.44723110005725175,None,,,,,,,,,,,,,,,,,p129,001,2025-02-27_16h28.05.836,posner_endo_new1,2024.2.4,60.06474981785348,2025-02-27 16h28.19.615721 +0000,
cube_l.png,0.1,0.31,invalid,59,59,0,up,13.050938899978064,None,space,0.5299595999531448,None,,,,,0,59,59,59,,,,,541.1399278999306,,,,,,,,,,,,,541.1242694000248,541.1399278999306,541.1399278999306,541.1399278999306,554.1940842999611,,,,554.2038258999819,554.2139975000173,554.2139975000173,554.2598110999679,554.2601152999559,554.2765728000086,554.2765728000086,554.2765728000086,554.3428263999522,554.8101616000058,,,,,,,,up,13.050938899978064,None,space,0.5299595999531448,None,,,,,,,,,,,,,,,,,p129,001,2025-02-27_16h28.05.836,posner_endo_new1,2024.2.4,60.06474981785348,2025-02-27 16h28.19.615721 +0000,
,,,,,,,,,,,,,,,,,,,,,,,,,,,,,,,,,,,,,,,,,,,,,,,,,,,,,,,,,,,,,,,,,,,,,554.8103225999512,554.8256428999593,554.8256428999593,614.8312043999322,617.2299054999603,space,62.39645730005577,None,,,,,,,,,p129,001,2025-02-27_16h28.05.836,posner_endo_new1,2024.2.4,60.06474981785348,2025-02-27 16h28.19.615721 +0000,
,,,,,,,,,,,,,,,,,,,,,,,,,,,,,,,,,,617.2299740000162,617.2455563999247,620.2521499999566,620.2260869999882,,,,,,,,,,,,,,,,,,,,,,,,,,,,,,,,,,,,,,,,,,,,,,,,p129,001,2025-02-27_16h28.05.836,posner_endo_new1,2024.2.4,60.06474981785348,2025-02-27 16h28.19.615721 +0000,
cube_l.png,0.1,10,catch,0,0,0,down,6.690083499997854,None,None,,,,,,,,,,,0,0,0,0,620.2521499999566,,,,,,,,,,,,,620.2430786000332,620.2521499999566,620.2521499999566,620.2521499999566,626.9528906999622,,,,626.9590284000151,626.9704541999381,626.9704541999381,627.0190718999365,627.0192993999226,627.0355290999869,627.0355290999869,627.0355290999869,627.1023015999235,630.0328432000242,,,,629.1165280999849,630.0491347999778,630.0491347999778,630.0491347999778,,,,,,,,,,,,,,,down,6.690083499997854,None,None,,,,,p129,001,2025-02-27_16h28.05.836,posner_endo_new1,2024.2.4,60.06474981785348,2025-02-27 16h28.19.615721 +0000,
cube_l.png,0.1,10,catch,1,1,0,down,3.0459502999437973,None,None,,,,,,,,,,,0,1,1,1,630.0491347999778,,,,,,,,,,,,,630.0330084000016,630.0491347999778,630.0491347999778,630.0491347999778,633.0968417000258,,,,633.1028641000157,633.1145641999319,633.1145641999319,633.1626677999739,633.1628936999477,633.1794262999902,633.1794262999902,633.1794262999902,633.2625764999539,636.1768795999233,,,,635.2772046999307,636.1930017999839,636.1930017999839,636.1930017999839,,,,,,,,,,,,,,,down,3.0459502999437973,None,None,,,,,p129,001,2025-02-27_16h28.05.836,posner_endo_new1,2024.2.4,60.06474981785348,2025-02-27 16h28.19.615721 +0000,
cube_l.png,0.1,0.31,invalid,2,2,0,down,4.381509199971333,None,space,0.44997429999057204,None,,,,,,,,,0,2,2,2,636.1930017999839,,,,,,,,,,,,,636.1770434000064,636.1930017999839,636.1930017999839,636.1930017999839,640.5895817999262,,,,640.604326199973,640.6147232999792,640.6147232999792,640.6549423999386,640.6553890999639,640.6713021999458,640.6713021999458,640.6713021999458,640.7546747999731,641.1224518999225,,,,,,,,,,,,,,,,,,,,,,down,4.381509199971333,None,space,0.44997429999057204,None,,,p129,001,2025-02-27_16h28.05.836,posner_endo_new1,2024.2.4,60.06474981785348,2025-02-27 16h28.19.615721 +0000,
cube_l.png,0.1,0.31,invalid,3,3,0,down,6.940638300031424,None,space,0.6464452999643981,None,,,,,,,,,0,3,3,3,641.1375748999417,,,,,,,,,,,,,641.1227084000129,641.1375748999417,641.1375748999417,641.1375748999417,648.0815188999986,,,,648.0935709000332,648.1039372999221,648.1039372999221,648.1472359999316,648.1476698999759,648.1636468999786,648.1636468999786,648.1636468999786,648.247108599986,648.8141280999407,,,,,,,,,,,,,,,,,,,,,,down,6.940638300031424,None,space,0.6464452999643981,None,,,p129,001,2025-02-27_16h28.05.836,posner_endo_new1,2024.2.4,60.06474981785348,2025-02-27 16h28.19.615721 +0000,
cube_l.png,0.1,-0.31,valid,4,4,0,down,14.336956500075758,None,space,0.44369899993762374,None,,,,,,,,,0,4,4,4,648.830003399984,,,,,,,,,,,,,648.8143833000213,648.830003399984,648.830003399984,648.830003399984,663.1830642999848,,,,663.1928680000128,663.2029138000216,663.2029138000216,663.2483669000212,663.2486732000252,663.2653038999997,663.2653038999997,663.2653038999997,663.3484387999633,663.7155039999634,,,,,,,,,,,,,,,,,,,,,,down,14.336956500075758,None,space,0.44369899993762374,None,,,p129,001,2025-02-27_16h28.05.836,posner_endo_new1,2024.2.4,60.06474981785348,2025-02-27 16h28.19.615721 +0000,
cube_r.png,0.1,-0.31,invalid,5,5,0,down,9.507922500022687,None,space,0.411461399984546,None,,,,,,,,,0,5,5,5,663.7310253999894,,,,,,,,,,,,,663.7157596999314,663.7310253999894,663.7310253999894,663.7310253999894,673.2555606999667,,,,673.2653126999503,673.2751607999671,673.2751607999671,673.3215104999254,673.3218222999712,673.3381549000042,673.3381549000042,673.3381549000042,673.4211966999574,673.755471099983,,,,,,,,,,,,,,,,,,,,,,down,9.507922500022687,None,space,0.411461399984546,None,,,p129,001,2025-02-27_16h28.05.836,posner_endo_new1,2024.2.4,60.06474981785348,2025-02-27 16h28.19.615721 +0000,
cube_r.png,0.1,0.31,valid,6,6,0,down,7.5958047999301925,None,space,0.37186010007280856,None,,,,,,,,,0,6,6,6,673.7710720000323,,,,,,,,,,,,,673.7557307999814,673.7710720000323,673.7710720000323,673.7710720000323,681.380873200018,,,,681.3906777999364,681.4007338000229,681.4007338000229,681.4469237999292,681.4472359999781,681.4629464999307,681.4629464999307,681.4629464999307,681.5465535999974,681.8468462999444,,,,,,,,,,,,,,,,,,,,,,down,7.5958047999301925,None,space,0.37186010007280856,None,,,p129,001,2025-02-27_16h28.05.836,posner_endo_new1,2024.2.4,60.06474981785348,2025-02-27 16h28.19.615721 +0000,
cube_r.png,0.1,-0.31,invalid,7,7,0,down,7.337285399902612,None,space,0.41118809999898076,None,,,,,,,,,0,7,7,7,681.8627301999368,,,,,,,,,,,,,681.8471031999215,681.8627301999368,681.8627301999368,681.8627301999368,689.2061704000225,,,,689.2159763999516,689.2260858999798,689.2260858999798,689.2718804000178,689.2721872000257,689.2887088999851,689.2887088999851,689.2887088999851,689.3549561999971,689.7056358000264,,,,,,,,,,,,,,,,,,,,,,down,7.337285399902612,None,space,0.41118809999898076,None,,,p129,001,2025-02-27_16h28.05.836,posner_endo_new1,2024.2.4,60.06474981785348,2025-02-27 16h28.19.615721 +0000,
cube_l.png,0.1,-0.31,valid,8,8,0,down,7.1011272999458015,None,space,0.3941562999971211,None,,,,,,,,,0,8,8,8,689.7214000999229,,,,,,,,,,,,,689.7058964000316,689.7214000999229,689.7214000999229,689.7214000999229,696.8316004000371,,,,696.8413572999416,696.8515220999252,696.8515220999252,696.897829100024,696.8981331000105,696.9141898999223,696.9141898999223,696.9141898999223,696.9805843000067,697.3148717000149,,,,,,,,,,,,,,,,,,,,,,down,7.1011272999458015,None,space,0.3941562999971211,None,,,p129,001,2025-02-27_16h28.05.836,posner_endo_new1,2024.2.4,60.06474981785348,2025-02-27 16h28.19.615721 +0000,
cube_r.png,0.1,-0.31,invalid,9,9,0,down,7.692585699958727,None,space,0.47482520004268736,None,,,,,,,,,0,9,9,9,697.3300559000345,,,,,,,,,,,,,697.3151310000103,697.3300559000345,697.3300559000345,697.3300559000345,705.0235405999701,,,,705.0300287000136,705.041768199997,705.041768199997,705.0892590000294,705.0894864000147,705.1057882999303,705.1057882999303,705.1057882999303,705.189222099958,705.5889043000061,,,,,,,,,,,,,,,,,,,,,,down,7.692585699958727,None,space,0.47482520004268736,None,,,p129,001,2025-02-27_16h28.05.836,posner_endo_new1,2024.2.4,60.06474981785348,2025-02-27 16h28.19.615721 +0000,
cube_l.png,0.1,0.31,invalid,10,10,0,down,12.592897600028664,None,space,0.46070489997509867,None,,,,,,,,,0,10,10,10,705.6053191999672,,,,,,,,,,,,,705.5890850999858,705.6053191999672,705.6053191999672,705.6053191999672,718.2098721000366,,,,718.2163309999742,718.2280120999785,718.2280120999785,718.2753472999902,718.2755735999672,718.2924552999903,718.2924552999903,718.2924552999903,718.3589777000016,718.7593402999919,,,,,,,,,,,,,,,,,,,,,,down,12.592897600028664,None,space,0.46070489997509867,None,,,p129,001,2025-02-27_16h28.05.836,posner_endo_new1,2024.2.4,60.06474981785348,2025-02-27 16h28.19.615721 +0000,
cube_r.png,0.1,-0.31,invalid,11,11,0,down,10.8072714000009,None,space,0.49853510002139956,None,,,,,,,,,0,11,11,11,718.7752056999598,,,,,,,,,,,,,718.7595168999396,718.7752056999598,718.7752056999598,718.7752056999598,729.5983126999345,,,,729.6044281999348,729.6161898999708,729.6161898999708,729.6642827999312,729.6645075000124,729.6807910000207,729.6807910000207,729.6807910000207,729.7475541000022,730.1811031999532,,,,,,,,,,,,,,,,,,,,,,down,10.8072714000009,None,space,0.49853510002139956,None,,,p129,001,2025-02-27_16h28.05.836,posner_endo_new1,2024.2.4,60.06474981785348,2025-02-27 16h28.19.615721 +0000,
cube_r.png,0.1,0.31,valid,12,12,0,down,7.873862000065856,None,space,0.4989637000253424,None,,,,,,,,,0,12,12,12,730.1968922999222,,,,,,,,,,,,,730.1812827999238,730.1968922999222,730.1968922999222,730.1968922999222,738.0730564999394,,,,738.0791472999845,738.0909511999926,738.0909511999926,738.1388215000043,738.1390530000208,738.1555037000217,738.1555037000217,738.1555037000217,738.2385302999755,738.6555690999376,,,,,,,,,,,,,,,,,,,,,,down,7.873862000065856,None,space,0.4989637000253424,None,,,p129,001,2025-02-27_16h28.05.836,posner_endo_new1,2024.2.4,60.06474981785348,2025-02-27 16h28.19.615721 +0000,
cube_l.png,0.1,10,catch,13,13,0,down,7.111110900063068,None,None,,,,,,,,,,,0,13,13,13,738.6713736000238,,,,,,,,,,,,,738.6557618000079,738.6713736000238,738.6713736000238,738.6713736000238,745.7994176000357,,,,745.8187387000071,745.8297729999758,745.8297729999758,745.863754699938,745.8640390000073,745.8803036999889,745.8803036999889,745.8803036999889,745.9641239999328,748.8780568999937,,,,747.978733099997,748.8943490999518,748.8943490999518,748.8943490999518,,,,,,,,,,,,,,,down,7.111110900063068,None,None,,,,,p129,001,2025-02-27_16h28.05.836,posner_endo_new1,2024.2.4,60.06474981785348,2025-02-27 16h28.19.615721 +0000,
cube_r.png,0.1,-0.31,invalid,14,14,0,down,7.960410200059414,None,space,0.5262351999990642,None,,,,,,,,,0,14,14,14,748.8943490999518,,,,,,,,,,,,,748.8782879000064,748.8943490999518,748.8943490999518,748.8943490999518,756.8701458999421,,,,756.8791129000019,756.8891403999878,756.8891403999878,756.936222499935,756.9365101000294,756.9525022000307,756.9525022000307,756.9525022000307,757.0357078999514,757.4865091999527,,,,,,,,,,,,,,,,,,,,,,down,7.960410200059414,None,space,0.5262351999990642,None,,,p129,001,2025-02-27_16h28.05.836,posner_endo_new1,2024.2.4,60.06474981785348,2025-02-27 16h28.19.615721 +0000,
cube_l.png,0.1,-0.31,valid,15,15,0,down,13.24846780009102,None,space,0.47185780003201216,None,,,,,,,,,0,15,15,15,757.5020617999835,,,,,,,,,,,,,757.4867482000263,757.5020617999835,757.5020617999835,757.5020617999835,770.756286000018,,,,770.7624504999258,770.7744541999418,770.7744541999418,770.8220682999818,770.8222919999389,770.8388589000097,770.8388589000097,770.8388589000097,770.9214319000021,771.3222022999544,,,,,,,,,,,,,,,,,,,,,,down,13.24846780009102,None,space,0.47185780003201216,None,,,p129,001,2025-02-27_16h28.05.836,posner_endo_new1,2024.2.4,60.06474981785348,2025-02-27 16h28.19.615721 +0000,
cube_r.png,0.1,10,catch,16,16,0,down,8.300766299944371,None,None,,,,,,,,,,,0,16,16,16,771.3380591999739,,,,,,,,,,,,,771.3223762999987,771.3380591999739,771.3380591999739,771.3380591999739,779.6465760000283,,,,779.6525223000208,779.663918199949,779.663918199949,779.6968919000356,779.6971038000192,779.7127648999449,779.7127648999449,779.7127648999449,779.7962173999986,782.7103760000318,,,,781.8108591999626,782.7266074999934,782.7266074999934,782.7266074999934,,,,,,,,,,,,,,,down,8.300766299944371,None,None,,,779.7127648999449,779.7127648999449,p129,001,2025-02-27_16h28.05.836,posner_endo_new1,2024.2.4,60.06474981785348,2025-02-27 16h28.19.615721 +0000,
cube_r.png,0.1,10,catch,17,17,0,down,6.45610760001,None,None,,,,,,,,,,,0,17,17,17,782.7266074999934,,,,,,,,,,,,,782.7105415000115,782.7266074999934,782.7266074999934,782.7266074999934,789.1874080999987,,,,789.1934661000269,789.2051321000326,789.2051321000326,789.2532583000138,789.253480299958,789.2699528000085,789.2699528000085,789.2699528000085,789.3530202999245,792.2673627999611,,,,791.3676381999394,792.28337249998,792.28337249998,792.28337249998,,,,,,,,,,,,,,,down,6.45610760001,None,None,,,,,p129,001,2025-02-27_16h28.05.836,posner_endo_new1,2024.2.4,60.06474981785348,2025-02-27 16h28.19.615721 +0000,
cube_l.png,0.1,0.31,invalid,18,18,0,down,3.452928000013344,None,space,0.49800590006634593,None,,,,,,,,,0,18,18,18,792.28337249998,,,,,,,,,,,,,792.2675254000351,792.28337249998,792.28337249998,792.28337249998,795.7469744000118,,,,795.753107400029,795.7647191999713,795.7647191999713,795.8131047999486,795.8133293000283,795.8298270999221,795.8298270999221,795.8298270999221,795.8963725999929,796.3300183999818,,,,,,,,,,,,,,,,,,,,,,down,3.452928000013344,None,space,0.49800590006634593,None,,,p129,001,2025-02-27_16h28.05.836,posner_endo_new1,2024.2.4,60.06474981785348,2025-02-27 16h28.19.615721 +0000,
cube_l.png,0.1,10,catch,19,19,0,down,7.556538800010458,None,None,,,,,,,,,,,0,19,19,19,796.3459441999439,,,,,,,,,,,,,796.3301944999257,796.3459441999439,796.3459441999439,796.3459441999439,803.9056788999587,,,,803.9129073999356,803.9243236000184,803.9243236000184,803.9715058000293,803.9717163000023,803.9876229999354,803.9876229999354,803.9876229999354,804.071326599922,806.9856838999549,,,,806.0858573999722,807.0017702999758,807.0017702999758,807.0017702999758,,,,,,,,,,,,,,,down,7.556538800010458,None,None,,,,,p129,001,2025-02-27_16h28.05.836,posner_endo_new1,2024.2.4,60.06474981785348,2025-02-27 16h28.19.615721 +0000,
cube_l.png,0.1,0.31,invalid,20,20,0,down,3.0685817999765277,None,space,0.4706362000433728,None,,,,,,,,,0,20,20,20,807.0017702999758,,,,,,,,,,,,,806.9858517999528,807.0017702999758,807.0017702999758,807.0017702999758,810.0821464000037,,,,810.0880748999771,810.099676999962,810.099676999962,810.1486243000254,810.1488488999894,810.1652556000045,810.1652556000045,810.1652556000045,810.2318766999524,810.6487134000054,,,,,,,,,,,,,,,,,,,,,,down,3.0685817999765277,None,space,0.4706362000433728,None,,,p129,001,2025-02-27_16h28.05.836,posner_endo_new1,2024.2.4,60.06474981785348,2025-02-27 16h28.19.615721 +0000,
cube_l.png,0.1,-0.31,valid,21,21,0,down,5.0780877999495715,None,space,0.5765377999050543,None,,,,,,,,,0,21,21,21,810.6647643999895,,,,,,,,,,,,,810.6488886999432,810.6647643999895,810.6647643999895,810.6647643999895,815.7435684000375,,,,815.7495279000141,815.7610578000313,815.7610578000313,815.8095643999986,815.8097961000167,815.825921599986,815.825921599986,815.825921599986,815.8927938999841,816.4092978999251,,,,,,,,,,,,,,,,,,,,,,down,5.0780877999495715,None,space,0.5765377999050543,None,,,p129,001,2025-02-27_16h28.05.836,posner_endo_new1,2024.2.4,60.06474981785348,2025-02-27 16h28.19.615721 +0000,
cube_r.png,0.1,0.31,valid,22,22,0,down,6.757781799999066,None,space,0.582938399980776,None,,,,,,,,,0,22,22,22,816.4254359999904,,,,,,,,,,,,,816.4094744999893,816.4254359999904,816.4254359999904,816.4254359999904,823.1862336000195,,,,823.1991228000261,823.2091571999481,823.2091571999481,823.2515256999759,823.2519096999895,823.2680829999736,823.2680829999736,823.2680829999736,823.3512956999475,823.8522679000162,,,,,,,,,,,,,,,,,,,,,,down,6.757781799999066,None,space,0.582938399980776,None,,,p129,001,2025-02-27_16h28.05.836,posner_endo_new1,2024.2.4,60.06474981785348,2025-02-27 16h28.19.615721 +0000,
cube_r.png,0.1,-0.31,invalid,23,23,0,down,5.306988000054844,None,space,0.48847840004600585,None,,,,,,,,,0,23,23,23,823.8676891999785,,,,,,,,,,,,,823.8524952000007,823.8676891999785,823.8676891999785,823.8676891999785,829.1796462000348,,,,829.1880990000209,829.1985170999542,829.1985170999542,829.2456108999904,829.2460069999797,829.2619396999944,829.2619396999944,829.2619396999944,829.3451938999351,829.7708468999481,,,,,,,,,,,,,,,,,,,,,,down,5.306988000054844,None,space,0.48847840004600585,None,,,p129,001,2025-02-27_16h28.05.836,posner_endo_new1,2024.2.4,60.06474981785348,2025-02-27 16h28.19.615721 +0000,
cube_r.png,0.1,0.31,valid,24,24,0,down,7.0963894000742584,None,space,0.5876036999979988,None,,,,,,,,,0,24,24,24,829.7989259000169,,,,,,,,,,,,,829.7712133999448,829.7989259000169,829.7989259000169,829.7989259000169,836.9053517000284,,,,836.9182153999573,836.9282493999926,836.9282493999926,836.9708033000352,836.971062000026,836.9873898000224,836.9873898000224,836.9873898000224,837.0708233999321,837.5878796000034,,,,,,,,,,,,,,,,,,,,,,down,7.0963894000742584,None,space,0.5876036999979988,None,,,p129,001,2025-02-27_16h28.05.836,posner_endo_new1,2024.2.4,60.06474981785348,2025-02-27 16h28.19.615721 +0000,
cube_r.png,0.1,-0.31,invalid,25,25,0,down,10.291163399931975,None,space,0.468929500086233,None,,,,,,,,,0,25,25,25,837.603759199963,,,,,,,,,,,,,837.5880954000168,837.603759199963,837.603759199963,837.603759199963,847.9103508000262,,,,847.9182871999219,847.9295036999974,847.9295036999974,847.9762822999619,847.9765545999398,847.9932373999618,847.9932373999618,847.9932373999618,848.0594250999857,848.4764779999387,,,,,,,,,,,,,,,,,,,,,,down,10.291163399931975,None,space,0.468929500086233,None,,,p129,001,2025-02-27_16h28.05.836,posner_endo_new1,2024.2.4,60.06474981785348,2025-02-27 16h28.19.615721 +0000,
cube_l.png,0.1,-0.31,valid,26,26,0,down,8.506245999946259,None,space,0.44854710006620735,None,,,,,,,,,0,26,26,26,848.4922881999519,,,,,,,,,,,,,848.4766907999292,848.4922881999519,848.4922881999519,848.4922881999519,857.0012030999642,,,,857.009128900012,857.0201232000254,857.0201232000254,857.0673645000206,857.0676266999217,857.0835021999665,857.0835021999665,857.0835021999665,857.1501376000233,857.5341970999725,,,,,,,,,,,,,,,,,,,,,,down,8.506245999946259,None,space,0.44854710006620735,None,,,p129,001,2025-02-27_16h28.05.836,posner_endo_new1,2024.2.4,60.06474981785348,2025-02-27 16h28.19.615721 +0000,
cube_r.png,0.1,0.31,valid,27,27,0,down,7.993790999986231,None,space,0.4198351999511942,None,,,,,,,,,0,27,27,27,857.5496235999744,,,,,,,,,,,,,857.53440949996,857.5496235999744,857.5496235999744,857.5496235999744,865.559112799936,,,,865.5670841999818,865.5780993999215,865.5780993999215,865.6253487999784,865.6256146000233,865.64142609993,865.64142609993,865.64142609993,865.7252440999728,866.075569699984,,,,,,,,,,,,,,,,,,,,,,down,7.993790999986231,None,space,0.4198351999511942,None,,,p129,001,2025-02-27_16h28.05.836,posner_endo_new1,2024.2.4,60.06474981785348,2025-02-27 16h28.19.615721 +0000,
cube_r.png,0.1,10,catch,28,28,0,down,6.0038849000120535,None,None,,,,,,,,,,,0,28,28,28,866.0909273999278,,,,,,,,,,,,,866.0757841999875,866.0909273999278,866.0909273999278,866.0909273999278,872.1026070999214,,,,872.1104601999978,872.1214979999932,872.1214979999932,872.1681554999668,872.1684163999744,872.1849792000139,872.1849792000139,872.1849792000139,872.2685464000097,875.182146999985,,,,874.282801299938,875.1983599999221,875.1983599999221,875.1983599999221,,,,,,,,,,,,,,,down,6.0038849000120535,None,None,,,,,p129,001,2025-02-27_16h28.05.836,posner_endo_new1,2024.2.4,60.06474981785348,2025-02-27 16h28.19.615721 +0000,
cube_r.png,0.1,0.31,valid,29,29,0,down,4.512667099945247,None,space,0.36007579998113215,None,,,,,,,,,0,29,29,29,875.1983599999221,,,,,,,,,,,,,875.1823602999793,875.1983599999221,875.1983599999221,875.1983599999221,879.7118833999848,,,,879.7198122999398,879.7304024000186,879.7304024000186,879.7771356999874,879.7773975000018,879.7936869999394,879.7936869999394,879.7936869999394,879.8772173000034,880.161136199953,,,,,,,,,,,,,,,,,,,,,,down,4.512667099945247,None,space,0.36007579998113215,None,,,p129,001,2025-02-27_16h28.05.836,posner_endo_new1,2024.2.4,60.06474981785348,2025-02-27 16h28.19.615721 +0000,
cube_r.png,0.1,0.31,valid,30,30,0,down,7.1260961999651045,None,space,0.4435576000250876,None,,,,,,,,,0,30,30,30,880.1767489999766,,,,,,,,,,,,,880.1613496999489,880.1767489999766,880.1767489999766,880.1767489999766,887.3036931999959,,,,887.3116156000178,887.3226432999363,887.3226432999363,887.3696640999988,887.3699266000185,887.3861056999303,887.3861056999303,887.3861056999303,887.4696632999694,887.8366797999479,,,,,,,,,,,,,,,,,,,,,,down,7.1260961999651045,None,space,0.4435576000250876,None,,,p129,001,2025-02-27_16h28.05.836,posner_endo_new1,2024.2.4,60.06474981785348,2025-02-27 16h28.19.615721 +0000,
cube_l.png,0.1,-0.31,valid,31,31,0,down,8.283086000010371,None,space,0.6835588000249118,None,,,,,,,,,0,31,31,31,887.8524710999336,,,,,,,,,,,,,887.8368929999415,887.8524710999336,887.8524710999336,887.8524710999336,896.1446989999386,,,,896.1525935999816,896.1636187999975,896.1636187999975,896.2107672999846,896.2110294000013,896.2270870000357,896.2270870000357,896.2270870000357,896.310354199959,896.9273320999928,,,,,,,,,,,,,,,,,,,,,,down,8.283086000010371,None,space,0.6835588000249118,None,,,p129,001,2025-02-27_16h28.05.836,posner_endo_new1,2024.2.4,60.06474981785348,2025-02-27 16h28.19.615721 +0000,
cube_r.png,0.1,0.31,valid,32,32,0,down,3.441082299919799,None,space,0.45034370000939816,None,,,,,,,,,0,32,32,32,896.9428312999662,,,,,,,,,,,,,896.9275480000069,896.9428312999662,896.9428312999662,896.9428312999662,900.39064160001,,,,900.3984382000053,900.4093434999231,900.4093434999231,900.4562551999697,900.4565208000131,900.4728750999784,900.4728750999784,900.4728750999784,900.5562079999363,900.9397025000071,,,,,,,,,,,,,,,,,,,,,,down,3.441082299919799,None,space,0.45034370000939816,None,,,p129,001,2025-02-27_16h28.05.836,posner_endo_new1,2024.2.4,60.06474981785348,2025-02-27 16h28.19.615721 +0000,
cube_r.png,0.1,-0.31,invalid,33,33,0,down,7.667192499968223,None,space,0.46678080002311617,None,,,,,,,,,0,33,33,33,900.9553823999595,,,,,,,,,,,,,900.9399180000182,900.9553823999595,900.9553823999595,900.9553823999595,908.6321400000015,,,,908.640006499947,908.6509968999308,908.6509968999308,908.6975641000317,908.6978288999526,908.7145724999718,908.7145724999718,908.7145724999718,908.7974793999456,909.1982501000166,,,,,,,,,,,,,,,,,,,,,,down,7.667192499968223,None,space,0.46678080002311617,None,,,p129,001,2025-02-27_16h28.05.836,posner_endo_new1,2024.2.4,60.06474981785348,2025-02-27 16h28.19.615721 +0000,
cube_r.png,0.1,10,catch,34,34,0,down,8.177394500002265,None,None,,,,,,,,,,,0,34,34,34,909.2135665999958,,,,,,,,,,,,,909.1984668000368,909.2135665999958,909.2135665999958,909.2135665999958,917.4061489999294,,,,917.4121772999642,917.4235739000142,917.4235739000142,917.472479899996,917.4727030999493,917.4890417000279,917.4890417000279,917.4890417000279,917.5555513999425,920.4862726000138,,,,919.570129300002,920.5022373999236,920.5022373999236,920.5022373999236,,,,,,,,,,,,,,,down,8.177394500002265,None,None,,,,,p129,001,2025-02-27_16h28.05.836,posner_endo_new1,2024.2.4,60.06474981785348,2025-02-27 16h28.19.615721 +0000,
cube_r.png,0.1,0.31,valid,35,35,0,down,3.969228300033137,None,space,0.5364039000123739,None,,,,,,,,,0,35,35,35,920.5022373999236,,,,,,,,,,,,,920.4864379999926,920.5022373999236,920.5022373999236,920.5022373999236,924.4824041000102,,,,924.488432199927,924.5001705000177,924.5001705000177,924.5485445000231,924.548774600029,924.5650814999826,924.5650814999826,924.5650814999826,924.6316471999744,925.1152433999814,,,,,,,,,,,,,,,,,,,,,,down,3.969228300033137,None,space,0.5364039000123739,None,,,p129,001,2025-02-27_16h28.05.836,posner_endo_new1,2024.2.4,60.06474981785348,2025-02-27 16h28.19.615721 +0000,
cube_r.png,0.1,-0.31,invalid,36,36,0,down,5.996090300031938,None,space,0.43827949999831617,None,,,,,,,,,0,36,36,36,925.1308965999633,,,,,,,,,,,,,925.1154199999291,925.1308965999633,925.1308965999633,925.1308965999633,931.1422406999627,,,,931.1483163000084,931.1600694999797,931.1600694999797,931.2078577999491,931.2080847999314,931.2247264999896,931.2247264999896,931.2247264999896,931.291140699992,931.6751140999841,,,,,,,,,,,,,,,,,,,,,,down,5.996090300031938,None,space,0.43827949999831617,None,,,p129,001,2025-02-27_16h28.05.836,posner_endo_new1,2024.2.4,60.06474981785348,2025-02-27 16h28.19.615721 +0000,
cube_l.png,0.1,0.31,invalid,37,37,0,down,5.755568799911998,None,space,0.4256120999343693,None,,,,,,,,,0,37,37,37,931.6911854000064,,,,,,,,,,,,,931.6752909999341,931.6911854000064,931.6911854000064,931.6911854000064,937.4521556999534,,,,937.4581909999251,937.4697235999629,937.4697235999629,937.5185764000053,937.5188051000005,937.5349190999987,937.5349190999987,937.5349190999987,937.6018364999909,937.9687178999884,,,,,,,,,,,,,,,,,,,,,,down,5.755568799911998,None,space,0.4256120999343693,None,,,p129,001,2025-02-27_16h28.05.836,posner_endo_new1,2024.2.4,60.06474981785348,2025-02-27 16h28.19.615721 +0000,
cube_l.png,0.1,0.31,invalid,38,38,0,down,12.038188499980606,None,space,0.5198096999665722,None,,,,,,,,,0,38,38,38,937.9845305000199,,,,,,,,,,,,,937.9688917000312,937.9845305000199,937.9845305000199,937.9845305000199,950.0397921999684,,,,950.0527070999378,950.0623779000016,950.0623779000016,950.105669099954,950.1059338999912,950.1221092999913,950.1221092999913,950.1221092999913,950.2050301999552,950.655425200006,,,,,,,,,,,,,,,,,,,,,,down,12.038188499980606,None,space,0.5198096999665722,None,,,p129,001,2025-02-27_16h28.05.836,posner_endo_new1,2024.2.4,60.06474981785348,2025-02-27 16h28.19.615721 +0000,
cube_r.png,0.1,0.31,valid,39,39,0,down,5.551531600067392,None,space,0.3944428999675438,None,,,,,,,,,0,39,39,39,950.6716145999962,,,,,,,,,,,,,950.6556367999874,950.6716145999962,950.6716145999962,950.6716145999962,956.2334055999527,,,,956.2413737999741,956.2522843999323,956.2522843999323,956.2993934999686,956.2996561999898,956.3154960999964,956.3154960999964,956.3154960999964,956.3989969999529,956.7164034999441,,,,,,,,,,,,,,,,,,,,,,down,5.551531600067392,None,space,0.3944428999675438,None,,,p129,001,2025-02-27_16h28.05.836,posner_endo_new1,2024.2.4,60.06474981785348,2025-02-27 16h28.19.615721 +0000,
cube_l.png,0.1,0.31,invalid,40,40,0,down,7.427321800030768,None,space,0.6316006999695674,None,,,,,,,,,0,40,40,40,956.7318998000119,,,,,,,,,,,,,956.7166184999514,956.7318998000119,956.7318998000119,956.7318998000119,964.1754583999282,,,,964.1833306000335,964.1942318000365,964.1942318000365,964.2412773999386,964.2415440999903,964.2574132999871,964.2574132999871,964.2574132999871,964.3407366999891,964.8915526999626,,,,,,,,,,,,,,,,,,,,,,down,7.427321800030768,None,space,0.6316006999695674,None,,,p129,001,2025-02-27_16h28.05.836,posner_endo_new1,2024.2.4,60.06474981785348,2025-02-27 16h28.19.615721 +0000,
cube_l.png,0.1,10,catch,41,41,0,down,6.2847632999764755,None,None,,,,,,,,,,,0,41,41,41,964.9066700999392,,,,,,,,,,,,,964.8917653999524,964.9066700999392,964.9066700999392,964.9066700999392,971.2011520999949,,,,971.2090383999748,971.2201676999684,971.2201676999684,971.2674082999583,971.2676884999964,971.283853400033,971.283853400033,971.283853400033,971.350405999925,974.2811705999775,,,,973.3648069000337,974.2971450999612,974.2971450999612,974.2971450999612,,,,,,,,,,,,,,,down,6.2847632999764755,None,None,,,,,p129,001,2025-02-27_16h28.05.836,posner_endo_new1,2024.2.4,60.06474981785348,2025-02-27 16h28.19.615721 +0000,
cube_l.png,0.1,-0.31,valid,42,42,0,down,3.878057699999772,None,space,0.4047945000929758,None,,,,,,,,,0,42,42,42,974.2971450999612,,,,,,,,,,,,,974.2813699999824,974.2971450999612,974.2971450999612,974.2971450999612,978.1777449999936,,,,978.1855721999891,978.1965614999644,978.1965614999644,978.243278699927,978.2435374000343,978.2601334999781,978.2601334999781,978.2601334999781,978.3432832999388,978.6772951999446,,,,,,,,,,,,,,,,,,,,,,down,3.878057699999772,None,space,0.4047945000929758,None,,,p129,001,2025-02-27_16h28.05.836,posner_endo_new1,2024.2.4,60.06474981785348,2025-02-27 16h28.19.615721 +0000,
cube_l.png,0.1,10,catch,43,43,0,down,17.114688100060448,None,None,,,,,,,,,,,0,43,43,43,978.6931138000218,,,,,,,,,,,,,978.6775087999413,978.6931138000218,978.6931138000218,978.6931138000218,995.8096705999924,,,,995.8175687999465,995.828550199978,995.828550199978,995.8751682000002,995.875429000007,995.8916972000152,995.8916972000152,995.8916972000152,995.9749102999922,998.889199999976,,,,997.9894923999673,998.9053335000062,998.9053335000062,998.9053335000062,,,,,,,,,,,,,,,down,17.114688100060448,None,None,,,,,p129,001,2025-02-27_16h28.05.836,posner_endo_new1,2024.2.4,60.06474981785348,2025-02-27 16h28.19.615721 +0000,
cube_l.png,0.1,0.31,invalid,44,44,0,down,5.3422322999686,None,space,0.4224604000337422,None,,,,,,,,,0,44,44,44,998.9053335000062,,,,,,,,,,,,,998.8893988999771,998.9053335000062,998.9053335000062,998.9053335000062,1004.2510184999555,,,,1004.258941099979,1004.2698663999327,1004.2698663999327,1004.3168520999607,1004.3171128999675,1004.3334918000037,1004.3334918000037,1004.3334918000037,1004.4165335999569,1004.7671979999868,,,,,,,,,,,,,,,,,,,,,,down,5.3422322999686,None,space,0.4224604000337422,None,,,p129,001,2025-02-27_16h28.05.836,posner_endo_new1,2024.2.4,60.06474981785348,2025-02-27 16h28.19.615721 +0000,
cube_l.png,0.1,0.31,invalid,45,45,0,down,7.60003890004009,None,space,0.5717277999501675,None,,,,,,,,,0,45,45,45,1004.783041800023,,,,,,,,,,,,,1004.7674197999295,1004.783041800023,1004.783041800023,1004.783041800023,1012.3927511000074,,,,1012.4006691999966,1012.4116257999558,1012.4116257999558,1012.458698399947,1012.4589581999462,1012.4751322999364,1012.4751322999364,1012.4751322999364,1012.557916300022,1013.05833229993,,,,,,,,,,,,,,,,,,,,,,down,7.60003890004009,None,space,0.5717277999501675,None,,,p129,001,2025-02-27_16h28.05.836,posner_endo_new1,2024.2.4,60.06474981785348,2025-02-27 16h28.19.615721 +0000,
cube_r.png,0.1,0.31,valid,46,46,0,down,4.190184999955818,None,space,0.5210269000381231,None,,,,,,,,,0,46,46,46,1013.0742502999492,,,,,,,,,,,,,1013.0585442000302,1013.0742502999492,1013.0742502999492,1013.0742502999492,1017.2711854999652,,,,1017.2789808999514,1017.2898682999657,1017.2898682999657,1017.3371077999473,1017.3373751000036,1017.3536797999404,1017.3536797999404,1017.3536797999404,1017.4364989999449,1017.8867957999464,,,,,,,,,,,,,,,,,,,,,,down,4.190184999955818,None,space,0.5210269000381231,None,,,p129,001,2025-02-27_16h28.05.836,posner_endo_new1,2024.2.4,60.06474981785348,2025-02-27 16h28.19.615721 +0000,
cube_l.png,0.1,-0.31,valid,47,47,0,down,7.224753699963912,None,space,0.5389915999257937,None,,,,,,,,,0,47,47,47,1017.9029254999477,,,,,,,,,,,,,1017.8870074999286,1017.9029254999477,1017.9029254999477,1017.9029254999477,1025.1294477999909,,,,1025.1372780000092,1025.1484553000191,1025.1484553000191,1025.1954414999345,1025.1957030999474,1025.2117224999238,1025.2117224999238,1025.2117224999238,1025.294994099997,1025.762425199966,,,,,,,,,,,,,,,,,,,,,,down,7.224753699963912,None,space,0.5389915999257937,None,,,p129,001,2025-02-27_16h28.05.836,posner_endo_new1,2024.2.4,60.06474981785348,2025-02-27 16h28.19.615721 +0000,
cube_r.png,0.1,-0.31,invalid,48,48,0,down,7.077081800089218,None,space,0.6672226999653503,None,,,,,,,,,0,48,48,48,1025.7778094999958,,,,,,,,,,,,,1025.7626504999353,1025.7778094999958,1025.7778094999958,1025.7778094999958,1032.871793200029,,,,1032.8797144999262,1032.8905586999608,1032.8905586999608,1032.9372727000155,1032.937540099956,1032.9540599000175,1032.9540599000175,1032.9540599000175,1033.0373490999918,1033.637282499927,,,,,,,,,,,,,,,,,,,,,,down,7.077081800089218,None,space,0.6672226999653503,None,,,p129,001,2025-02-27_16h28.05.836,posner_endo_new1,2024.2.4,60.06474981785348,2025-02-27 16h28.19.615721 +0000,
cube_r.png,0.1,10,catch,49,49,0,down,10.257790300063789,None,None,,,,,,,,,,,0,49,49,49,1033.6533754999982,,,,,,,,,,,,,1033.637503099977,1033.6533754999982,1033.6533754999982,1033.6533754999982,1043.9271985000232,,,,1043.9350811999757,1043.94612889993,1043.94612889993,1043.9930244999705,1043.9932899000123,1044.0092381000286,1044.0092381000286,1044.0092381000286,1044.0928840999259,1047.0068208000157,,,,1046.1070725999307,1047.0229117999552,1047.0229117999552,1047.0229117999552,,,,,,,,,,,,,,,down,10.257790300063789,None,None,,,,,p129,001,2025-02-27_16h28.05.836,posner_endo_new1,2024.2.4,60.06474981785348,2025-02-27 16h28.19.615721 +0000,
cube_l.png,0.1,-0.31,valid,50,50,0,down,5.240402000024915,None,space,0.47776680008973926,None,,,,,,,,,0,50,50,50,1047.0229117999552,,,,,,,,,,,,,1047.007022100035,1047.0229117999552,1047.0229117999552,1047.0229117999552,1052.2683574999683,,,,1052.2762958999956,1052.2875630999915,1052.2875630999915,1052.3343577999622,1052.334621899994,1052.3506731999805,1052.3506731999805,1052.3506731999805,1052.4176768999314,1052.834895899985,,,,,,,,,,,,,,,,,,,,,,down,5.240402000024915,None,space,0.47776680008973926,None,,,p129,001,2025-02-27_16h28.05.836,posner_endo_new1,2024.2.4,60.06474981785348,2025-02-27 16h28.19.615721 +0000,
cube_l.png,0.1,-0.31,valid,51,51,0,down,7.149237700039521,None,space,0.48577729996759444,None,,,,,,,,,0,51,51,51,1052.8500932999887,,,,,,,,,,,,,1052.8351168000372,1052.8500932999887,1052.8500932999887,1052.8500932999887,1060.0106598000275,,,,1060.0185781000182,1060.0294931000099,1060.0294931000099,1060.0762463000137,1060.0765078000259,1060.0930490000173,1060.0930490000173,1060.0930490000173,1060.1760996000376,1060.593227699981,,,,,,,,,,,,,,,,,,,,,,down,7.149237700039521,None,space,0.48577729996759444,None,,,p129,001,2025-02-27_16h28.05.836,posner_endo_new1,2024.2.4,60.06474981785348,2025-02-27 16h28.19.615721 +0000,
cube_r.png,0.1,-0.31,invalid,52,52,0,down,7.2056260000681505,None,space,0.6647953999927267,None,,,,,,,,,0,52,52,52,1060.6093327000272,,,,,,,,,,,,,1060.5934406999731,1060.6093327000272,1060.6093327000272,1060.6093327000272,1067.8191703000339,,,,1067.827109499951,1067.8385412000353,1067.8385412000353,1067.8849292999366,1067.8851942999754,1067.901758800028,1067.901758800028,1067.901758800028,1067.9850422999589,1068.5684901999775,,,,,,,,,,,,,,,,,,,,,,down,7.2056260000681505,None,space,0.6647953999927267,None,,,p129,001,2025-02-27_16h28.05.836,posner_endo_new1,2024.2.4,60.06474981785348,2025-02-27 16h28.19.615721 +0000,
cube_l.png,0.1,-0.31,valid,53,53,0,down,5.951507299905643,None,space,0.4649209000635892,None,,,,,,,,,0,53,53,53,1068.5844193999656,,,,,,,,,,,,,1068.5687068999978,1068.5844193999656,1068.5844193999656,1068.5844193999656,1074.5458509000018,,,,1074.5537335999543,1074.5646589000244,1074.5646589000244,1074.611706799944,1074.6119671999477,1074.627982200007,1074.627982200007,1074.627982200007,1074.7117304999847,1075.095391599927,,,,,,,,,,,,,,,,,,,,,,down,5.951507299905643,None,space,0.4649209000635892,None,,,p129,001,2025-02-27_16h28.05.836,posner_endo_new1,2024.2.4,60.06474981785348,2025-02-27 16h28.19.615721 +0000,
cube_r.png,0.1,10,catch,54,54,0,down,6.03208849998191,None,None,,,,,,,,,,,0,54,54,54,1075.111228200025,,,,,,,,,,,,,1075.0956097999588,1075.111228200025,1075.111228200025,1075.111228200025,1081.1554021999473,,,,1081.1632322999649,1081.1745185999898,1081.1745185999898,1081.2216535999905,1081.2219186000293,1081.238014500006,1081.238014500006,1081.238014500006,1081.304906599922,1084.2356210999424,,,,1083.3193542000372,1084.2519624999259,1084.2519624999259,1084.2519624999259,,,,,,,,,,,,,,,down,6.03208849998191,None,None,,,,,p129,001,2025-02-27_16h28.05.836,posner_endo_new1,2024.2.4,60.06474981785348,2025-02-27 16h28.19.615721 +0000,
cube_l.png,0.1,0.31,invalid,55,55,0,down,5.299402399919927,None,space,0.528171099955216,None,,,,,,,,,0,55,55,55,1084.2519624999259,,,,,,,,,,,,,1084.2358196999412,1084.2519624999259,1084.2519624999259,1084.2519624999259,1089.563759499928,,,,1089.5716630999232,1089.5826706999214,1089.5826706999214,1089.6299554000143,1089.6302225999534,1089.6462734999368,1089.6462734999368,1089.6462734999368,1089.7124500999926,1090.1795461999718,,,,,,,,,,,,,,,,,,,,,,down,5.299402399919927,None,space,0.528171099955216,None,,,p129,001,2025-02-27_16h28.05.836,posner_endo_new1,2024.2.4,60.06474981785348,2025-02-27 16h28.19.615721 +0000,
cube_l.png,0.1,-0.31,valid,56,56,0,down,5.7069513000315055,None,space,0.697054999996908,None,,,,,,,,,0,56,56,56,1090.1959304999327,,,,,,,,,,,,,1090.17975999997,1090.1959304999327,1090.1959304999327,1090.1959304999327,1095.9070516999345,,,,1095.9149365000194,1095.9262296999805,1095.9262296999805,1095.973091699998,1095.9733564000344,1095.9897582000121,1095.9897582000121,1095.9897582000121,1096.0726440999424,1096.689778,,,,,,,,,,,,,,,,,,,,,,down,5.7069513000315055,None,space,0.697054999996908,None,,,p129,001,2025-02-27_16h28.05.836,posner_endo_new1,2024.2.4,60.06474981785348,2025-02-27 16h28.19.615721 +0000,
cube_r.png,0.1,0.31,valid,57,57,0,down,5.661695299902931,None,space,0.4321784999920055,None,,,,,,,,,0,57,57,57,1096.7053558999905,,,,,,,,,,,,,1096.6899978999281,1096.7053558999905,1096.7053558999905,1096.7053558999905,1102.3843161999248,,,,1102.3921665999806,1102.402924599941,1102.402924599941,1102.4497823999263,1102.4500446999446,1102.4663723999402,1102.4663723999402,1102.4663723999402,1102.5500599999214,1102.900332499994,,,,,,,,,,,,,,,,,,,,,,down,5.661695299902931,None,space,0.4321784999920055,None,,,p129,001,2025-02-27_16h28.05.836,posner_endo_new1,2024.2.4,60.06474981785348,2025-02-27 16h28.19.615721 +0000,
cube_r.png,0.1,-0.31,invalid,58,58,0,down,4.475968700018711,None,space,0.43964609992690384,None,,,,,,,,,0,58,58,58,1102.9158129999414,,,,,,,,,,,,,1102.9005507000256,1102.9158129999414,1102.9158129999414,1102.9158129999414,1107.3955798000097,,,,1107.4033766000066,1107.4143242000137,1107.4143242000137,1107.461109100026,1107.4613692000275,1107.4779289999278,1107.4779289999278,1107.4779289999278,1107.5442735999823,1107.9280842000153,,,,,,,,,,,,,,,,,,,,,,down,4.475968700018711,None,space,0.43964609992690384,None,,,p129,001,2025-02-27_16h28.05.836,posner_endo_new1,2024.2.4,60.06474981785348,2025-02-27 16h28.19.615721 +0000,
cube_l.png,0.1,0.31,invalid,59,59,0,down,6.735219800029881,None,space,0.6995398999424651,None,,,,,,,,,0,59,59,59,1107.9442607000237,,,,,,,,,,,,,1107.9282966000028,1107.9442607000237,1107.9442607000237,1107.9442607000237,1114.687754799961,,,,1114.6955960999476,1114.70697379997,1114.70697379997,1114.7538576999214,1114.7541183999274,1114.7706284000305,1114.7706284000305,1114.7706284000305,1114.8371051999275,1115.4710232999641,,,,,,,,,,,,,,,,,,,,,,down,6.735219800029881,None,space,0.6995398999424651,None,,,p129,001,2025-02-27_16h28.05.836,posner_endo_new1,2024.2.4,60.06474981785348,2025-02-27 16h28.19.615721 +0000,
