cue_img,cue_soa,target_y,trial,thisN,thisTrialN,thisRepN,key_control2.keys,key_control2.rt,key_control2.duration,key_resp.keys,key_resp.rt,key_resp.duration,practice.thisRepN,practice.thisTrialN,practice.thisN,practice.thisIndex,block1.thisRepN,block1.thisTrialN,block1.thisN,block1.thisIndex,block2.thisRepN,block2.thisTrialN,block2.thisN,block2.thisIndex,thisRow.t,notes,instructions.started,instructions_txt.started,key_control.started,instructions.stopped,key_control.keys,key_control.rt,key_control.duration,ready.started,ready_txt.started,ready_txt.stopped,ready.stopped,fix.started,fixation.started,key_control2.started,fixation_cross.started,fix.stopped,practice.key_control2.keys,practice.key_control2.rt,practice.key_control2.duration,cue.started,cube.started,fixation_cross_cue.started,cue.stopped,target.started,fixation_target.started,fixation_cross_target.started,key_resp.started,star.started,target.stopped,practice.key_resp.keys,practice.key_resp.rt,practice.key_resp.duration,star.stopped,fixation_target.stopped,fixation_cross_target.stopped,key_resp.stopped,block1.key_control2.keys,block1.key_control2.rt,block1.key_control2.duration,block1.key_resp.keys,block1.key_resp.rt,block1.key_resp.duration,break_2.started,text.started,key_control3.started,text.stopped,break_2.stopped,key_control3.keys,key_control3.rt,key_control3.duration,block2.key_control2.keys,block2.key_control2.rt,block2.key_control2.duration,block2.key_resp.keys,block2.key_resp.rt,block2.key_resp.duration,participant,session,date,expName,psychopyVersion,frameRate,expStart,
,,,,,,,,,,,,,,,,,,,,,,,,,,,0.007628500112332404,0.02877560001797974,0.02877560001797974,3.8639367000432685,up,3.8221651000203565,None,,,,,,,,,,,,,,,,,,,,,,,,,,,,,,,,,,,,,,,,,,,,,,,,,,P130,001,2025-02-28_09h17.16.299,posner_endo_new1,2024.2.4,60.01925418360969,2025-02-28 09h17.27.927980 +0000,
,,,,,,,,,,,,,,,,,,,,,,,,,,,,,,,,,,3.8639841000549495,3.8769273000070825,6.877501200069673,6.858130100066774,,,,,,,,,,,,,,,,,,,,,,,,,,,,,,,,,,,,,,,,,,,,,,P130,001,2025-02-28_09h17.16.299,posner_endo_new1,2024.2.4,60.01925418360969,2025-02-28 09h17.27.927980 +0000,
cube_l.png,0.1,-0.31,valid,0,0,0,up,23.74831599998288,None,space,0.3986728999298066,None,0,0,0,0,,,,,,,,,6.877501200069673,,,,,,,,,,,,,6.865128100034781,6.877501200069673,6.877501200069673,6.877501200069673,30.634262400097214,up,23.74831599998288,None,30.646278200089,30.656489800079726,30.656489800079726,30.700173400109634,30.700394400046207,30.71684400003869,30.71684400003869,30.71684400003869,30.783407800015993,31.117113400017843,space,0.3986728999298066,None,,,,,,,,,,,,,,,,,,,,,,,,,P130,001,2025-02-28_09h17.16.299,posner_endo_new1,2024.2.4,60.01925418360969,2025-02-28 09h17.27.927980 +0000,
cube_l.png,0.1,0.31,invalid,1,1,0,up,2.213170600007288,None,None,,,0,1,1,1,,,,,,,,,31.132697300054133,,,,,,,,,,,,,31.117279700003564,31.132697300054133,31.132697300054133,31.132697300054133,33.348313500056975,up,2.213170600007288,None,33.362593300058506,33.37271640007384,33.37271640007384,33.41382220003288,33.414209000067785,33.43013750005048,33.43013750005048,33.43013750005048,33.51353360002395,36.42793130001519,None,,,35.52807420003228,36.44388070004061,36.44388070004061,36.44388070004061,,,,,,,,,,,,,,,,,,,,,P130,001,2025-02-28_09h17.16.299,posner_endo_new1,2024.2.4,60.01925418360969,2025-02-28 09h17.27.927980 +0000,
cube_r.png,0.1,-0.31,invalid,2,2,0,up,2.6531751999864355,None,space,0.3710808999603614,None,0,2,2,2,,,,,,,,,36.44388070004061,,,,,,,,,,,,,36.42822340002749,36.44388070004061,36.44388070004061,36.44388070004061,39.10906390007585,up,2.6531751999864355,None,39.12451290001627,39.13459780008998,39.13459780008998,39.17448820010759,39.17487320001237,39.190953500103205,39.190953500103205,39.190953500103205,39.27411120000761,39.575165900052525,space,0.3710808999603614,None,,,,,,,,,,,,,,,,,,,,,,,,,P130,001,2025-02-28_09h17.16.299,posner_endo_new1,2024.2.4,60.01925418360969,2025-02-28 09h17.27.927980 +0000,
cube_r.png,0.1,10,catch,3,3,0,up,2.4435884999111295,None,None,,,0,3,3,3,,,,,,,,,39.590546200051904,,,,,,,,,,,,,39.57547170005273,39.590546200051904,39.590546200051904,39.590546200051904,42.03898690000642,up,2.4435884999111295,None,42.04778380005155,42.057799000060186,42.057799000060186,42.10492250008974,42.10531280003488,42.121230700053275,42.121230700053275,42.121230700053275,42.204634400084615,45.11921330005862,None,,,44.21920340007637,45.13486950006336,45.13486950006336,45.13486950006336,,,,,,,,,,,,,,,,,,,,,P130,001,2025-02-28_09h17.16.299,posner_endo_new1,2024.2.4,60.01925418360969,2025-02-28 09h17.27.927980 +0000,
cube_l.png,0.1,-0.31,valid,4,4,0,up,5.074193799984641,None,space,0.37754149991087615,None,0,4,4,4,,,,,,,,,45.13486950006336,,,,,,,,,,,,,45.11941760010086,45.13486950006336,45.13486950006336,45.13486950006336,50.21405010006856,up,5.074193799984641,None,50.22287530009635,50.23302840010729,50.23302840010729,50.27992450003512,50.28031430009287,50.296330100041814,50.296330100041814,50.296330100041814,50.379579100059345,50.68044320004992,space,0.37754149991087615,None,,,,,,,,,,,,,,,,,,,,,,,,,P130,001,2025-02-28_09h17.16.299,posner_endo_new1,2024.2.4,60.01925418360969,2025-02-28 09h17.27.927980 +0000,
cube_l.png,0.1,0.31,invalid,5,5,0,up,1.8891723999986425,None,space,0.3417730999644846,None,0,5,5,5,,,,,,,,,50.695961000048555,,,,,,,,,,,,,50.68075390008744,50.695961000048555,50.695961000048555,50.695961000048555,52.59528900007717,up,1.8891723999986425,None,52.60834760009311,52.61884030001238,52.61884030001238,52.660523600061424,52.660785100073554,52.67734660010319,52.67734660010319,52.67734660010319,52.760468600085005,53.02804510004353,space,0.3417730999644846,None,,,,,,,,,,,,,,,,,,,,,,,,,P130,001,2025-02-28_09h17.16.299,posner_endo_new1,2024.2.4,60.01925418360969,2025-02-28 09h17.27.927980 +0000,
cube_r.png,0.1,-0.31,invalid,6,6,0,up,2.1255622999742627,None,space,0.424194399965927,None,0,6,6,6,,,,,,,,,53.0439100000076,,,,,,,,,,,,,53.028246400062926,53.0439100000076,53.0439100000076,53.0439100000076,55.17544170003384,up,2.1255622999742627,None,55.18352010007948,55.19477710011415,55.19477710011415,55.24166600010358,55.24193090002518,55.257988600060344,55.257988600060344,55.257988600060344,55.34129390004091,55.6919452000875,space,0.424194399965927,None,,,,,,,,,,,,,,,,,,,,,,,,,P130,001,2025-02-28_09h17.16.299,posner_endo_new1,2024.2.4,60.01925418360969,2025-02-28 09h17.27.927980 +0000,
cube_r.png,0.1,0.31,valid,7,7,0,up,2.774657199974172,None,space,0.5286326999776065,None,0,7,7,7,,,,,,,,,55.70732820010744,,,,,,,,,,,,,55.69215100002475,55.70732820010744,55.70732820010744,55.70732820010744,58.48905350000132,up,2.774657199974172,None,58.49705450003967,58.508005600073375,58.508005600073375,58.55494500009809,58.55522380000912,58.57147040008567,58.57147040008567,58.57147040008567,58.65443720004987,59.104903600062244,space,0.5286326999776065,None,,,,,,,,,,,,,,,,,,,,,,,,,P130,001,2025-02-28_09h17.16.299,posner_endo_new1,2024.2.4,60.01925418360969,2025-02-28 09h17.27.927980 +0000,
cube_l.png,0.1,-0.31,valid,8,8,0,up,3.880317199975252,None,space,0.33946059993468225,None,0,8,8,8,,,,,,,,,59.120763200102374,,,,,,,,,,,,,59.105107200099155,59.120763200102374,59.120763200102374,59.120763200102374,63.01775280002039,up,3.880317199975252,None,63.02584240003489,63.03653060004581,63.03653060004581,63.083666200051084,63.08392450003885,63.10020790004637,63.10020790004637,63.10020790004637,63.18354640004691,63.45037050009705,space,0.33946059993468225,None,,,,,,,,,,,,,,,,,,,,,,,,,P130,001,2025-02-28_09h17.16.299,posner_endo_new1,2024.2.4,60.01925418360969,2025-02-28 09h17.27.927980 +0000,
cube_r.png,0.1,-0.31,invalid,9,9,0,up,1.8478366000344977,None,space,0.3804945999290794,None,0,9,9,9,,,,,,,,,63.46633780002594,,,,,,,,,,,,,63.45057000010274,63.46633780002594,63.46633780002594,63.46633780002594,65.31543990003411,up,1.8478366000344977,None,65.32354320003651,65.33421190001536,65.33421190001536,65.38097940001171,65.38124460005201,65.3975426000543,65.3975426000543,65.3975426000543,65.46433420001995,65.7813134000171,space,0.3804945999290794,None,,,,,,,,,,,,,,,,,,,,,,,,,P130,001,2025-02-28_09h17.16.299,posner_endo_new1,2024.2.4,60.01925418360969,2025-02-28 09h17.27.927980 +0000,
cube_r.png,0.1,0.31,valid,10,10,0,up,4.244346500025131,None,space,0.40058500005397946,None,0,10,10,10,,,,,,,,,65.79708470008336,,,,,,,,,,,,,65.78151250001974,65.79708470008336,65.79708470008336,65.79708470008336,70.04398270009551,up,4.244346500025131,None,70.05197640007827,70.06276060000528,70.06276060000528,70.109527700115,70.1097864001058,70.12603230006061,70.12603230006061,70.12603230006061,70.20930120011326,70.5431085000746,space,0.40058500005397946,None,,,,,,,,,,,,,,,,,,,,,,,,,P130,001,2025-02-28_09h17.16.299,posner_endo_new1,2024.2.4,60.01925418360969,2025-02-28 09h17.27.927980 +0000,
,,,,,,,,,,,,,,,,,,,,,,,,,,,,,,,,,,70.54323910002131,70.55930530000478,73.563649800024,73.54010430001654,,,,,,,,,,,,,,,,,,,,,,,,,,,,,,,,,,,,,,,,,,,,,,P130,001,2025-02-28_09h17.16.299,posner_endo_new1,2024.2.4,60.01925418360969,2025-02-28 09h17.27.927980 +0000,
cube_l.png,0.1,10,catch,0,0,0,up,5.862287299940363,None,None,,,,,,,0,0,0,0,,,,,73.563649800024,,,,,,,,,,,,,73.55478100001346,73.563649800024,73.563649800024,73.563649800024,79.43424430000596,,,,79.44039390003309,79.45198640006129,79.45198640006129,79.50021200010087,79.50043750007171,79.51649270008784,79.51649270008784,79.51649270008784,79.58342460007407,82.51423990004696,,,,81.59796370007098,82.53051150008105,82.53051150008105,82.53051150008105,up,5.862287299940363,None,None,,,,,,,,,,,,,,,,,P130,001,2025-02-28_09h17.16.299,posner_endo_new1,2024.2.4,60.01925418360969,2025-02-28 09h17.27.927980 +0000,
cube_l.png,0.1,10,catch,1,1,0,up,1.814614300034009,None,None,,,,,,,0,1,1,1,,,,,82.53051150008105,,,,,,,,,,,,,82.51440290000755,82.53051150008105,82.53051150008105,82.53051150008105,84.34587400010787,,,,84.35256680008024,84.36405340000056,84.36405340000056,84.41190440009814,84.41212730004918,84.42842980008572,84.42842980008572,84.42842980008572,84.49477290001232,87.42594880005345,,,,86.50977300002705,87.44206930010114,87.44206930010114,87.44206930010114,up,1.814614300034009,None,None,,,,,,,,,,,,,,,,,P130,001,2025-02-28_09h17.16.299,posner_endo_new1,2024.2.4,60.01925418360969,2025-02-28 09h17.27.927980 +0000,
cube_l.png,0.1,0.31,invalid,2,2,0,up,3.887908000033349,None,space,0.4103606999851763,None,,,,,0,2,2,2,,,,,87.44206930010114,,,,,,,,,,,,,87.42610980011523,87.44206930010114,87.44206930010114,87.44206930010114,91.33893650001846,,,,91.34514760004822,91.35711590002757,91.35711590002757,91.40492500003893,91.40514680009801,91.42145390005317,91.42145390005317,91.42145390005317,91.50458450010046,91.8378389000427,,,,,,,,up,3.887908000033349,None,space,0.4103606999851763,None,,,,,,,,,,,,,,,P130,001,2025-02-28_09h17.16.299,posner_endo_new1,2024.2.4,60.01925418360969,2025-02-28 09h17.27.927980 +0000,
cube_l.png,0.1,0.31,invalid,3,3,0,up,5.0031152999727055,None,space,0.36836399999447167,None,,,,,0,3,3,3,,,,,91.85431100009009,,,,,,,,,,,,,91.8380159001099,91.85431100009009,91.85431100009009,91.85431100009009,96.86632480006665,,,,96.87261690001469,96.88438770000357,96.88438770000357,96.93205090006813,96.93227610003669,96.94910430000164,96.94910430000164,96.94910430000164,97.01561490003951,97.33269240008667,,,,,,,,up,5.0031152999727055,None,space,0.36836399999447167,None,,,,,,,,,,,,,,,P130,001,2025-02-28_09h17.16.299,posner_endo_new1,2024.2.4,60.01925418360969,2025-02-28 09h17.27.927980 +0000,
cube_l.png,0.1,-0.31,valid,4,4,0,up,4.7087374000111595,None,space,0.379706299980171,None,,,,,0,4,4,4,,,,,97.34864140010905,,,,,,,,,,,,,97.33287190005649,97.34864140010905,97.34864140010905,97.34864140010905,102.06123150000349,,,,102.0676572000375,102.07954120007344,102.07954120007344,102.12719430006109,102.1274209000403,102.1437939000316,102.1437939000316,102.1437939000316,102.21033420006279,102.52729820006061,,,,,,,,up,4.7087374000111595,None,space,0.379706299980171,None,,,,,,,,,,,,,,,P130,001,2025-02-28_09h17.16.299,posner_endo_new1,2024.2.4,60.01925418360969,2025-02-28 09h17.27.927980 +0000,
cube_r.png,0.1,-0.31,invalid,5,5,0,up,7.018833699985407,None,space,0.3784860000014305,None,,,,,0,5,5,5,,,,,102.54320810001809,,,,,,,,,,,,,102.5274721001042,102.54320810001809,102.54320810001809,102.54320810001809,109.57031290000305,,,,109.5764684000751,109.58819370006677,109.58819370006677,109.6362761000637,109.63650180003606,109.65229310002178,109.65229310002178,109.65229310002178,109.73590450000484,110.03641270007938,,,,,,,,up,7.018833699985407,None,space,0.3784860000014305,None,,,,,,,,,,,,,,,P130,001,2025-02-28_09h17.16.299,posner_endo_new1,2024.2.4,60.01925418360969,2025-02-28 09h17.27.927980 +0000,
cube_r.png,0.1,0.31,valid,6,6,0,up,6.732836800045334,None,space,0.506688000052236,None,,,,,0,6,6,6,,,,,110.05237150005996,,,,,,,,,,,,,110.03658460010774,110.05237150005996,110.05237150005996,110.05237150005996,116.79621690011118,,,,116.80232840008102,116.81398550001904,116.81398550001904,116.86192310007755,116.86214690003544,116.87870250002015,116.87870250002015,116.87870250002015,116.94531780004036,117.39557270007208,,,,,,,,up,6.732836800045334,None,space,0.506688000052236,None,,,,,,,,,,,,,,,P130,001,2025-02-28_09h17.16.299,posner_endo_new1,2024.2.4,60.01925418360969,2025-02-28 09h17.27.927980 +0000,
cube_r.png,0.1,-0.31,invalid,7,7,0,up,3.38971879996825,None,space,0.3425624999217689,None,,,,,0,7,7,7,,,,,117.41152690001763,,,,,,,,,,,,,117.39574510010425,117.41152690001763,117.41152690001763,117.41152690001763,120.80856580007821,,,,120.81472200003918,120.82629720005207,120.82629720005207,120.87451530003455,120.87474040000234,120.89116900006775,120.89116900006775,120.89116900006775,120.95797660003882,121.24116340000182,,,,,,,,up,3.38971879996825,None,space,0.3425624999217689,None,,,,,,,,,,,,,,,P130,001,2025-02-28_09h17.16.299,posner_endo_new1,2024.2.4,60.01925418360969,2025-02-28 09h17.27.927980 +0000,
cube_l.png,0.1,-0.31,valid,8,8,0,up,4.112477600108832,None,space,0.3339158999733627,None,,,,,0,8,8,8,,,,,121.25735270010773,,,,,,,,,,,,,121.24133530003019,121.25735270010773,121.25735270010773,121.25735270010773,125.37055350001901,,,,125.37664250005037,125.38820220006164,125.38820220006164,125.4366121001076,125.43683750007767,125.45313260005787,125.45313260005787,125.45313260005787,125.53638210007921,125.8033851000946,,,,,,,,up,4.112477600108832,None,space,0.3339158999733627,None,,,,,,,,,,,,,,,P130,001,2025-02-28_09h17.16.299,posner_endo_new1,2024.2.4,60.01925418360969,2025-02-28 09h17.27.927980 +0000,
cube_r.png,0.1,-0.31,invalid,9,9,0,up,5.086417999933474,None,space,0.3296493000816554,None,,,,,0,9,9,9,,,,,125.81951250007842,,,,,,,,,,,,,125.80355860001873,125.81951250007842,125.81951250007842,125.81951250007842,130.91467950004153,,,,130.92077940003946,130.9323964000214,130.9323964000214,130.98050980002154,130.98073390009813,130.9974464001134,130.9974464001134,130.9974464001134,131.06410300009884,131.3315808000043,,,,,,,,up,5.086417999933474,None,space,0.3296493000816554,None,,,,,,,,,,,,,,,P130,001,2025-02-28_09h17.16.299,posner_endo_new1,2024.2.4,60.01925418360969,2025-02-28 09h17.27.927980 +0000,
cube_l.png,0.1,0.31,invalid,10,10,0,up,2.750018199905753,None,space,0.3785715000703931,None,,,,,0,10,10,10,,,,,131.3472335000988,,,,,,,,,,,,,131.33175200002734,131.3472335000988,131.3472335000988,131.3472335000988,134.1117869000882,,,,134.1179070000071,134.12938110006507,134.12938110006507,134.17774440010544,134.17796840006486,134.19427230011206,134.19427230011206,134.19427230011206,134.26081720006187,134.5778562000487,,,,,,,,up,2.750018199905753,None,space,0.3785715000703931,None,,,,,,,,,,,,,,,P130,001,2025-02-28_09h17.16.299,posner_endo_new1,2024.2.4,60.01925418360969,2025-02-28 09h17.27.927980 +0000,
cube_r.png,0.1,-0.31,invalid,11,11,0,up,3.567812900058925,None,space,0.405346899991855,None,,,,,0,11,11,11,,,,,134.59396930004004,,,,,,,,,,,,,134.57802920008544,134.59396930004004,134.59396930004004,134.59396930004004,138.17393040005118,,,,138.18041310005356,138.19193650002126,138.19193650002126,138.24050240009092,138.24072550004348,138.25685040000826,138.25685040000826,138.25685040000826,138.32326210010797,138.6736962000141,,,,,,,,up,3.567812900058925,None,space,0.405346899991855,None,,,,,,,,,,,,,,,P130,001,2025-02-28_09h17.16.299,posner_endo_new1,2024.2.4,60.01925418360969,2025-02-28 09h17.27.927980 +0000,
cube_r.png,0.1,0.31,valid,12,12,0,up,3.68825280002784,None,space,0.3082260999362916,None,,,,,0,12,12,12,,,,,138.68987390003167,,,,,,,,,,,,,138.67386710003484,138.68987390003167,138.68987390003167,138.68987390003167,142.38656940008514,,,,142.39263720007148,142.4041106000077,142.4041106000077,142.4527240000898,142.45294690004084,142.46900250006001,142.46900250006001,142.46900250006001,142.55220280005597,142.78634070011321,,,,,,,,up,3.68825280002784,None,space,0.3082260999362916,None,,,,,,,,,,,,,,,P130,001,2025-02-28_09h17.16.299,posner_endo_new1,2024.2.4,60.01925418360969,2025-02-28 09h17.27.927980 +0000,
cube_l.png,0.1,10,catch,13,13,0,up,2.3600886000785977,None,space,0.3506797000300139,None,,,,,0,13,13,13,,,,,142.80199980002362,,,,,,,,,,,,,142.78651230002288,142.80199980002362,142.80199980002362,142.80199980002362,145.1672935000388,,,,145.173422700027,145.1851187000284,145.1851187000284,145.23295270011295,145.23317650007084,145.24955470010173,145.24955470010173,145.24955470010173,145.31614360003732,145.6165971000446,,,,,,,,up,2.3600886000785977,None,space,0.3506797000300139,None,,,,,,,,,,,,,,,P130,001,2025-02-28_09h17.16.299,posner_endo_new1,2024.2.4,60.01925418360969,2025-02-28 09h17.27.927980 +0000,
cube_r.png,0.1,-0.31,invalid,14,14,0,up,3.528767800075002,None,space,0.5674707000143826,None,,,,,0,14,14,14,,,,,145.63262850011233,,,,,,,,,,,,,145.61677110008895,145.63262850011233,145.63262850011233,145.63262850011233,149.16309340007138,,,,149.1690805000253,149.1807165000355,149.1807165000355,149.22905290010385,149.22927800007164,149.24548440007493,149.24548440007493,149.24548440007493,149.32897790009156,149.8289726000512,,,,,,,,up,3.528767800075002,None,space,0.5674707000143826,None,,,,,,,,,,,,,,,P130,001,2025-02-28_09h17.16.299,posner_endo_new1,2024.2.4,60.01925418360969,2025-02-28 09h17.27.927980 +0000,
cube_l.png,0.1,-0.31,valid,15,15,0,up,1.3487637999933213,None,space,0.49628520000260323,None,,,,,0,15,15,15,,,,,149.8447412000969,,,,,,,,,,,,,149.829146000091,149.8447412000969,149.8447412000969,149.8447412000969,151.1944657000713,,,,151.2005186000606,151.21212470007595,151.21212470007595,151.26027390011586,151.26049770007376,151.27701040008105,151.27701040008105,151.27701040008105,151.36009270010982,151.7770923000062,,,,,,,,up,1.3487637999933213,None,space,0.49628520000260323,None,,,,,,,,,,,,,,,P130,001,2025-02-28_09h17.16.299,posner_endo_new1,2024.2.4,60.01925418360969,2025-02-28 09h17.27.927980 +0000,
cube_r.png,0.1,10,catch,16,16,0,up,1.4490049000596628,None,None,,,,,,,0,16,16,16,,,,,151.79285540001,,,,,,,,,,,,,151.77726840006653,151.79285540001,151.79285540001,151.79285540001,153.2425699000014,,,,153.2486081001116,153.2603100000415,153.2603100000415,153.30820010008756,153.30842590006068,153.3243867000565,153.3243867000565,153.3243867000565,153.4080342000816,156.3221448000986,,,,155.42237650009338,156.33851660008077,156.33851660008077,156.33851660008077,up,1.4490049000596628,None,None,,,,,,,,,,,,,,,,,P130,001,2025-02-28_09h17.16.299,posner_endo_new1,2024.2.4,60.01925418360969,2025-02-28 09h17.27.927980 +0000,
cube_r.png,0.1,10,catch,17,17,0,up,0.727587700006552,None,None,,,,,,,0,17,17,17,,,,,156.33851660008077,,,,,,,,,,,,,156.32230410003103,156.33851660008077,156.33851660008077,156.33851660008077,157.0712375000585,,,,157.07729860011023,157.08898640004918,157.08898640004918,157.13733500009403,157.13755870005116,157.15407910000067,157.15407910000067,157.15407910000067,157.22078020009212,160.1514069000259,,,,159.23536150006112,160.16780120006297,160.16780120006297,160.16780120006297,up,0.727587700006552,None,None,,,,,,,,,,,,,,,,,P130,001,2025-02-28_09h17.16.299,posner_endo_new1,2024.2.4,60.01925418360969,2025-02-28 09h17.27.927980 +0000,
cube_l.png,0.1,0.31,invalid,18,18,0,up,1.0667283999500796,None,space,0.4810526999644935,None,,,,,0,18,18,18,,,,,160.16780120006297,,,,,,,,,,,,,160.15156800008845,160.16780120006297,160.16780120006297,160.16780120006297,161.2506005000323,,,,161.256663300097,161.26840780000202,161.26840780000202,161.31646390003152,161.31668720010202,161.33328110002913,161.33328110002913,161.33328110002913,161.39976600010414,161.81691910000518,,,,,,,,up,1.0667283999500796,None,space,0.4810526999644935,None,,,,,,,,,,,,,,,P130,001,2025-02-28_09h17.16.299,posner_endo_new1,2024.2.4,60.01925418360969,2025-02-28 09h17.27.927980 +0000,
cube_l.png,0.1,10,catch,19,19,0,up,3.3924228999530897,None,None,,,,,,,0,19,19,19,,,,,161.83291960007045,,,,,,,,,,,,,161.81709070003126,161.83291960007045,161.83291960007045,161.83291960007045,165.2300701000495,,,,165.23616290010978,165.24811330006924,165.24811330006924,165.29594420001376,165.29616990010254,165.3127316000173,165.3127316000173,165.3127316000173,165.3790636000922,168.3097001001006,,,,167.393555900082,168.32594100001734,168.32594100001734,168.32594100001734,up,3.3924228999530897,None,None,,,,,,,,,,,,,,,,,P130,001,2025-02-28_09h17.16.299,posner_endo_new1,2024.2.4,60.01925418360969,2025-02-28 09h17.27.927980 +0000,
cube_l.png,0.1,0.31,invalid,20,20,0,up,1.6441397999878973,None,space,0.4544884000206366,None,,,,,0,20,20,20,,,,,168.32594100001734,,,,,,,,,,,,,168.30986450007185,168.32594100001734,168.32594100001734,168.32594100001734,169.97524030006025,,,,169.9813176000025,169.99287450010888,169.99287450010888,170.04095390008297,170.041181000066,170.05774680001196,170.05774680001196,170.05774680001196,170.14109090005513,170.52453550009523,,,,,,,,up,1.6441397999878973,None,space,0.4544884000206366,None,,,,,,,,,,,,,,,P130,001,2025-02-28_09h17.16.299,posner_endo_new1,2024.2.4,60.01925418360969,2025-02-28 09h17.27.927980 +0000,
cube_l.png,0.1,-0.31,valid,21,21,0,up,3.50142029998824,None,space,0.441279900027439,None,,,,,0,21,21,21,,,,,170.54061450005975,,,,,,,,,,,,,170.5247084000148,170.54061450005975,170.54061450005975,170.54061450005975,174.05398030008655,,,,174.0604936000891,174.07221930008382,174.07221930008382,174.1204439001158,174.12066600006074,174.13674320001155,174.13674320001155,174.13674320001155,174.2033359000925,174.58690470003057,,,,,,,,up,3.50142029998824,None,space,0.441279900027439,None,,,,,,,,,,,,,,,P130,001,2025-02-28_09h17.16.299,posner_endo_new1,2024.2.4,60.01925418360969,2025-02-28 09h17.27.927980 +0000,
cube_r.png,0.1,0.31,valid,22,22,0,up,3.254951700102538,None,space,0.5369859000202268,None,,,,,0,22,22,22,,,,,174.60290820000228,,,,,,,,,,,,,174.5870896000415,174.60290820000228,174.60290820000228,174.60290820000228,177.86705510003958,,,,177.8733416000614,177.88512620003894,177.88512620003894,177.933003900107,177.93323730002157,177.9495520000346,177.9495520000346,177.9495520000346,178.03279500000644,178.4999087000033,,,,,,,,up,3.254951700102538,None,space,0.5369859000202268,None,,,,,,,,,,,,,,,P130,001,2025-02-28_09h17.16.299,posner_endo_new1,2024.2.4,60.01925418360969,2025-02-28 09h17.27.927980 +0000,
cube_r.png,0.1,-0.31,invalid,23,23,0,up,3.2458702999865636,None,space,0.40940010000485927,None,,,,,0,23,23,23,,,,,178.51583890011534,,,,,,,,,,,,,178.50007990002632,178.51583890011534,178.51583890011534,178.51583890011534,181.76327570003923,,,,181.76940030010883,181.78108020010404,181.78108020010404,181.82896650000475,181.82918990007602,181.84566090011504,181.84566090011504,181.84566090011504,181.9288205000339,182.26274760009255,,,,,,,,up,3.2458702999865636,None,space,0.40940010000485927,None,,,,,,,,,,,,,,,P130,001,2025-02-28_09h17.16.299,posner_endo_new1,2024.2.4,60.01925418360969,2025-02-28 09h17.27.927980 +0000,
cube_r.png,0.1,0.31,valid,24,24,0,up,2.090850800042972,None,space,0.5139370000688359,None,,,,,0,24,24,24,,,,,182.27851930004545,,,,,,,,,,,,,182.26292060001288,182.27851930004545,182.27851930004545,182.27851930004545,184.37702770007309,,,,184.38304570002947,184.39448710007127,184.39448710007127,184.44299620005768,184.44322360004298,184.45963880000636,184.45963880000636,184.45963880000636,184.52613650006242,184.9762523000827,,,,,,,,up,2.090850800042972,None,space,0.5139370000688359,None,,,,,,,,,,,,,,,P130,001,2025-02-28_09h17.16.299,posner_endo_new1,2024.2.4,60.01925418360969,2025-02-28 09h17.27.927980 +0000,
cube_r.png,0.1,-0.31,invalid,25,25,0,up,2.761071900022216,None,space,0.39466109999921173,None,,,,,0,25,25,25,,,,,184.9925676001003,,,,,,,,,,,,,184.9764231001027,184.9925676001003,184.9925676001003,184.9925676001003,187.75715800002217,,,,187.7631511000218,187.77475510002114,187.77475510002114,187.8230656000087,187.82329250010662,187.83937739999965,187.83937739999965,187.83937739999965,187.92267980007455,188.24016050004866,,,,,,,,up,2.761071900022216,None,space,0.39466109999921173,None,,,,,,,,,,,,,,,P130,001,2025-02-28_09h17.16.299,posner_endo_new1,2024.2.4,60.01925418360969,2025-02-28 09h17.27.927980 +0000,
cube_l.png,0.1,-0.31,valid,26,26,0,up,4.154562399955466,None,space,0.40630399994552135,None,,,,,0,26,26,26,,,,,188.2555937001016,,,,,,,,,,,,,188.24033900001086,188.2555937001016,188.2555937001016,188.2555937001016,192.41899570007809,,,,192.42506760009564,192.43686230003368,192.43686230003368,192.48481580009684,192.48504470009357,192.50138300005347,192.50138300005347,192.50138300005347,192.56801050005015,192.9181693000719,,,,,,,,up,4.154562399955466,None,space,0.40630399994552135,None,,,,,,,,,,,,,,,P130,001,2025-02-28_09h17.16.299,posner_endo_new1,2024.2.4,60.01925418360969,2025-02-28 09h17.27.927980 +0000,
cube_r.png,0.1,0.31,valid,27,27,0,up,4.067254199995659,None,space,0.41700640006456524,None,,,,,0,27,27,27,,,,,192.93434910010546,,,,,,,,,,,,,192.91834250011016,192.93434910010546,192.93434910010546,192.93434910010546,197.01410250004847,,,,197.0202231000876,197.03184810001403,197.03184810001403,197.0801180000417,197.08034210000187,197.09667210001498,197.09667210001498,197.09667210001498,197.17997700010892,197.5302741000196,,,,,,,,up,4.067254199995659,None,space,0.41700640006456524,None,,,,,,,,,,,,,,,P130,001,2025-02-28_09h17.16.299,posner_endo_new1,2024.2.4,60.01925418360969,2025-02-28 09h17.27.927980 +0000,
cube_r.png,0.1,10,catch,28,28,0,up,1.8400541000301018,None,None,,,,,,,0,28,28,28,,,,,197.54615920002107,,,,,,,,,,,,,197.5304467000533,197.54615920002107,197.54615920002107,197.54615920002107,199.3950583001133,,,,199.40109630010556,199.41275850008242,199.41275850008242,199.46099270007107,199.46122300007846,199.47756210004445,199.47756210004445,199.47756210004445,199.56077490001917,202.4750958000077,,,,201.57549060008023,202.49117990001105,202.49117990001105,202.49117990001105,up,1.8400541000301018,None,None,,,,,,,,,,,,,,,,,P130,001,2025-02-28_09h17.16.299,posner_endo_new1,2024.2.4,60.01925418360969,2025-02-28 09h17.27.927980 +0000,
cube_r.png,0.1,0.31,valid,29,29,0,up,0.8070165000390261,None,space,0.42475790006574243,None,,,,,0,29,29,29,,,,,202.49117990001105,,,,,,,,,,,,,202.47525980009232,202.49117990001105,202.49117990001105,202.49117990001105,203.30773900006898,,,,203.31379790010396,203.3254203000106,203.3254203000106,203.37374270008877,203.37396580004133,203.3903327001026,203.3903327001026,203.3903327001026,203.45686590007972,203.8238904000027,,,,,,,,up,0.8070165000390261,None,space,0.42475790006574243,None,,,,,,,,,,,,,,,P130,001,2025-02-28_09h17.16.299,posner_endo_new1,2024.2.4,60.01925418360969,2025-02-28 09h17.27.927980 +0000,
cube_r.png,0.1,0.31,valid,30,30,0,up,1.9462913000024855,None,space,0.39433300006203353,None,,,,,0,30,30,30,,,,,203.83996260003187,,,,,,,,,,,,,203.82406340003945,203.83996260003187,203.83996260003187,203.83996260003187,205.78859050001483,,,,205.7946826000698,205.80637250002474,205.80637250002474,205.85433200001717,205.85455480008386,205.87087090010755,205.87087090010755,205.87087090010755,205.93776900006924,206.27151500002947,,,,,,,,up,1.9462913000024855,None,space,0.39433300006203353,None,,,,,,,,,,,,,,,P130,001,2025-02-28_09h17.16.299,posner_endo_new1,2024.2.4,60.01925418360969,2025-02-28 09h17.27.927980 +0000,
cube_l.png,0.1,-0.31,valid,31,31,0,up,3.9941103999735788,None,space,0.38085890002548695,None,,,,,0,31,31,31,,,,,206.287463100045,,,,,,,,,,,,,206.27168720006011,206.287463100045,206.287463100045,206.287463100045,210.28408390004188,,,,210.29015060001984,210.30187680001836,210.30187680001836,210.34978570009116,210.3500117000658,210.3662939000642,210.3662939000642,210.3662939000642,210.43298540008254,210.75029710005037,,,,,,,,up,3.9941103999735788,None,space,0.38085890002548695,None,,,,,,,,,,,,,,,P130,001,2025-02-28_09h17.16.299,posner_endo_new1,2024.2.4,60.01925418360969,2025-02-28 09h17.27.927980 +0000,
cube_r.png,0.1,0.31,valid,32,32,0,up,1.7396155999740586,None,space,0.42723240004852414,None,,,,,0,32,32,32,,,,,210.76613720005844,,,,,,,,,,,,,210.75047750002705,210.76613720005844,210.76613720005844,210.76613720005844,212.51512480003294,,,,212.52810170000885,212.53815980011132,212.53815980011132,212.58089860004839,212.5811565000331,212.59752030007076,212.59752030007076,212.59752030007076,212.68044010002632,213.03097030008212,,,,,,,,up,1.7396155999740586,None,space,0.42723240004852414,None,,,,,,,,,,,,,,,P130,001,2025-02-28_09h17.16.299,posner_endo_new1,2024.2.4,60.01925418360969,2025-02-28 09h17.27.927980 +0000,
cube_r.png,0.1,-0.31,invalid,33,33,0,up,1.707075700047426,None,space,0.41821859998162836,None,,,,,0,33,33,33,,,,,213.04667490010615,,,,,,,,,,,,,213.03118020005058,213.04667490010615,213.04667490010615,213.04667490010615,214.7625247000251,,,,214.77044550003484,214.78158370009623,214.78158370009623,214.82854190003127,214.82880100002512,214.84488180000335,214.84488180000335,214.84488180000335,214.91188340005465,215.27911620005034,,,,,,,,up,1.707075700047426,None,space,0.41821859998162836,None,,,,,,,,,,,,,,,P130,001,2025-02-28_09h17.16.299,posner_endo_new1,2024.2.4,60.01925418360969,2025-02-28 09h17.27.927980 +0000,
cube_r.png,0.1,10,catch,34,34,0,up,2.0113501999294385,None,None,,,,,,,0,34,34,34,,,,,215.29428370005917,,,,,,,,,,,,,215.27932530001272,215.29428370005917,215.29428370005917,215.29428370005917,217.31042990006972,,,,217.3183338000672,217.32902840001043,217.32902840001043,217.37565500009805,217.37592510005925,217.39258960005827,217.39258960005827,217.39258960005827,217.4754823000403,220.38961380010005,,,,219.49042960000224,220.40585920005105,220.40585920005105,220.40585920005105,up,2.0113501999294385,None,None,,,,,,,,,,,,,,,,,P130,001,2025-02-28_09h17.16.299,posner_endo_new1,2024.2.4,60.01925418360969,2025-02-28 09h17.27.927980 +0000,
cube_r.png,0.1,0.31,valid,35,35,0,up,2.5475837000412866,None,space,0.514861200004816,None,,,,,0,35,35,35,,,,,220.40585920005105,,,,,,,,,,,,,220.3898160000099,220.40585920005105,220.40585920005105,220.40585920005105,222.95443930011243,,,,222.96236720005982,222.9732821000507,222.9732821000507,223.02027130010538,223.0205315001076,223.03668840008322,223.03668840008322,223.03668840008322,223.11983140010852,223.55344790010713,,,,,,,,up,2.5475837000412866,None,space,0.514861200004816,None,,,,,,,,,,,,,,,P130,001,2025-02-28_09h17.16.299,posner_endo_new1,2024.2.4,60.01925418360969,2025-02-28 09h17.27.927980 +0000,
cube_r.png,0.1,-0.31,invalid,36,36,0,up,1.9040724999504164,None,space,0.45201030001044273,None,,,,,0,36,36,36,,,,,223.56945850001648,,,,,,,,,,,,,223.55366210010834,223.56945850001648,223.56945850001648,223.56945850001648,225.4852081000572,,,,225.49317150004208,225.5039179000305,225.5039179000305,225.55071390001103,225.55097690003458,225.56757410010323,225.56757410010323,225.56757410010323,225.65066560008563,226.03460300003644,,,,,,,,up,1.9040724999504164,None,space,0.45201030001044273,None,,,,,,,,,,,,,,,P130,001,2025-02-28_09h17.16.299,posner_endo_new1,2024.2.4,60.01925418360969,2025-02-28 09h17.27.927980 +0000,
cube_l.png,0.1,0.31,invalid,37,37,0,up,1.767391600064002,None,space,0.42956159997265786,None,,,,,0,37,37,37,,,,,226.0500188000733,,,,,,,,,,,,,226.0348176000407,226.0500188000733,226.0500188000733,226.0500188000733,227.83258450007997,,,,227.84058020007797,227.85169170005247,227.85169170005247,227.8982616000576,227.89852410007734,227.9149787001079,227.9149787001079,227.9149787001079,227.99804240011144,228.34865380008705,,,,,,,,up,1.767391600064002,None,space,0.42956159997265786,None,,,,,,,,,,,,,,,P130,001,2025-02-28_09h17.16.299,posner_endo_new1,2024.2.4,60.01925418360969,2025-02-28 09h17.27.927980 +0000,
cube_l.png,0.1,0.31,invalid,38,38,0,up,1.949116799980402,None,space,0.4887826000340283,None,,,,,0,38,38,38,,,,,228.36454530002084,,,,,,,,,,,,,228.34887390001677,228.36454530002084,228.36454530002084,228.36454530002084,230.3301128000021,,,,230.33799060003366,230.3489851000486,230.3489851000486,230.39577410009224,230.39603870001156,230.41261890006717,230.41261890006717,230.41261890006717,230.49587440001778,230.91285590000916,,,,,,,,up,1.949116799980402,None,space,0.4887826000340283,None,,,,,,,,,,,,,,,P130,001,2025-02-28_09h17.16.299,posner_endo_new1,2024.2.4,60.01925418360969,2025-02-28 09h17.27.927980 +0000,
cube_r.png,0.1,0.31,valid,39,39,0,up,1.8333568000234663,None,space,0.47924709995277226,None,,,,,0,39,39,39,,,,,230.9284050000133,,,,,,,,,,,,,230.91306530009024,230.9284050000133,230.9284050000133,230.9284050000133,232.77746600005776,,,,232.78533560002688,232.79646190011408,232.79646190011408,232.84327080007643,232.84352900006343,232.85996030003298,232.85996030003298,232.85996030003298,232.94298750010785,233.3435511001153,,,,,,,,up,1.8333568000234663,None,space,0.47924709995277226,None,,,,,,,,,,,,,,,P130,001,2025-02-28_09h17.16.299,posner_endo_new1,2024.2.4,60.01925418360969,2025-02-28 09h17.27.927980 +0000,
cube_l.png,0.1,0.31,invalid,40,40,0,up,7.538505299948156,None,space,0.3948984999442473,None,,,,,0,40,40,40,,,,,233.3592415000312,,,,,,,,,,,,,233.34375940007158,233.3592415000312,233.3592415000312,233.3592415000312,240.9025518000126,,,,240.91050690005068,240.92160350002814,240.92160350002814,240.96866030001547,240.96892450004816,240.98485090001486,240.98485090001486,240.98485090001486,241.0515681001125,241.3853364000097,,,,,,,,up,7.538505299948156,None,space,0.3948984999442473,None,,,,,,,,,,,,,,,P130,001,2025-02-28_09h17.16.299,posner_endo_new1,2024.2.4,60.01925418360969,2025-02-28 09h17.27.927980 +0000,
cube_l.png,0.1,10,catch,41,41,0,up,9.552905500051565,None,None,,,,,,,0,41,41,41,,,,,241.4012481000973,,,,,,,,,,,,,241.38555150001775,241.4012481000973,241.4012481000973,241.4012481000973,250.95882520009764,,,,250.966822000104,250.97784380009398,250.97784380009398,251.0248302000109,251.0250926000299,251.04142980009783,251.04142980009783,251.04142980009783,251.1077329000691,254.03888250002638,,,,253.12275770003907,254.05478390003555,254.05478390003555,254.05478390003555,up,9.552905500051565,None,None,,,,,,,,,,,,,,,,,P130,001,2025-02-28_09h17.16.299,posner_endo_new1,2024.2.4,60.01925418360969,2025-02-28 09h17.27.927980 +0000,
cube_l.png,0.1,-0.31,valid,42,42,0,up,4.050681600114331,None,space,0.4344171000411734,None,,,,,0,42,42,42,,,,,254.05478390003555,,,,,,,,,,,,,254.03908300003968,254.05478390003555,254.05478390003555,254.05478390003555,258.1183244000422,,,,258.126262600068,258.13728340005036,258.13728340005036,258.18399160006084,258.1842559000943,258.20068920007907,258.20068920007907,258.20068920007907,258.26714850007556,258.6510778000811,,,,,,,,up,4.050681600114331,None,space,0.4344171000411734,None,,,,,,,,,,,,,,,P130,001,2025-02-28_09h17.16.299,posner_endo_new1,2024.2.4,60.01925418360969,2025-02-28 09h17.27.927980 +0000,
cube_l.png,0.1,10,catch,43,43,0,up,2.6394814000232145,None,None,,,,,,,0,43,43,43,,,,,258.66670790000353,,,,,,,,,,,,,258.6512859000359,258.66670790000353,258.66670790000353,258.66670790000353,261.31545710004866,,,,261.32339510007296,261.33418170001823,261.33418170001823,261.38088280009106,261.38114180008415,261.39742110006046,261.39742110006046,261.39742110006046,261.4807070000097,264.39484680001624,,,,263.49539280007593,264.4108297000639,264.4108297000639,264.4108297000639,up,2.6394814000232145,None,None,,,,,,,,,,,,,,,,,P130,001,2025-02-28_09h17.16.299,posner_endo_new1,2024.2.4,60.01925418360969,2025-02-28 09h17.27.927980 +0000,
cube_l.png,0.1,0.31,invalid,44,44,0,up,3.8867826000787318,None,space,0.4419488999992609,None,,,,,0,44,44,44,,,,,264.4108297000639,,,,,,,,,,,,,264.3950498000486,264.4108297000639,264.4108297000639,264.4108297000639,268.30779260001145,,,,268.3157175000524,268.32676710002124,268.32676710002124,268.37382120010443,268.3740803000983,268.39046400005464,268.39046400005464,268.39046400005464,268.4736806000583,268.8405977000948,,,,,,,,up,3.8867826000787318,None,space,0.4419488999992609,None,,,,,,,,,,,,,,,P130,001,2025-02-28_09h17.16.299,posner_endo_new1,2024.2.4,60.01925418360969,2025-02-28 09h17.27.927980 +0000,
cube_l.png,0.1,0.31,invalid,45,45,0,up,4.137789800064638,None,space,0.4736123000038788,None,,,,,0,45,45,45,,,,,268.8565420000814,,,,,,,,,,,,,268.84080660005566,268.8565420000814,268.8565420000814,268.8565420000814,273.0027110000374,,,,273.0087903001113,273.02035130001605,273.02035130001605,273.069329900085,273.06955220003147,273.0857810000889,273.0857810000889,273.0857810000889,273.1524201000575,273.568896300043,,,,,,,,up,4.137789800064638,None,space,0.4736123000038788,None,,,,,,,,,,,,,,,P130,001,2025-02-28_09h17.16.299,posner_endo_new1,2024.2.4,60.01925418360969,2025-02-28 09h17.27.927980 +0000,
cube_r.png,0.1,0.31,valid,46,46,0,up,1.736590399988927,None,space,0.9169943999731913,None,,,,,0,46,46,46,,,,,273.58508180000354,,,,,,,,,,,,,273.5690660000546,273.58508180000354,273.58508180000354,273.58508180000354,275.33411360008176,,,,275.3401307000313,275.3517351000337,275.3517351000337,275.39993850002065,275.40016440011095,275.4166870000772,275.4166870000772,275.4166870000772,275.48321480001323,276.3496531000128,,,,,,,,up,1.736590399988927,None,space,0.9169943999731913,None,,,,,,,,,,,,,,,P130,001,2025-02-28_09h17.16.299,posner_endo_new1,2024.2.4,60.01925418360969,2025-02-28 09h17.27.927980 +0000,
cube_l.png,0.1,-0.31,valid,47,47,0,up,1.2046717000193894,None,space,0.4313307999400422,None,,,,,0,47,47,47,,,,,276.36559390008915,,,,,,,,,,,,,276.3498239000328,276.36559390008915,276.36559390008915,276.36559390008915,277.5818831000943,,,,277.587923000101,277.5994480000809,277.5994480000809,277.64735590002965,277.6475804001093,277.66436100006104,277.66436100006104,277.66436100006104,277.73111650010105,278.09796870010905,,,,,,,,up,1.2046717000193894,None,space,0.4313307999400422,None,,,,,,,,,,,,,,,P130,001,2025-02-28_09h17.16.299,posner_endo_new1,2024.2.4,60.01925418360969,2025-02-28 09h17.27.927980 +0000,
cube_r.png,0.1,-0.31,invalid,48,48,0,up,1.8002902999287471,None,space,0.4857316000852734,None,,,,,0,48,48,48,,,,,278.1139723000815,,,,,,,,,,,,,278.0981395000126,278.1139723000815,278.1139723000815,278.1139723000815,279.92952980007976,,,,279.9355092000915,279.9474643000867,279.9474643000867,279.99547790002543,279.99570630001836,280.0120611001039,280.0120611001039,280.0120611001039,280.078645600006,280.5122339000227,,,,,,,,up,1.8002902999287471,None,space,0.4857316000852734,None,,,,,,,,,,,,,,,P130,001,2025-02-28_09h17.16.299,posner_endo_new1,2024.2.4,60.01925418360969,2025-02-28 09h17.27.927980 +0000,
cube_r.png,0.1,10,catch,49,49,0,up,3.2500146999955177,None,None,,,,,,,0,49,49,49,,,,,280.52816740004346,,,,,,,,,,,,,280.51240170001984,280.52816740004346,280.52816740004346,280.52816740004346,283.79222330008633,,,,283.7982967001153,283.81015430006664,283.81015430006664,283.8582288000034,283.8584506000625,283.874656500062,283.874656500062,283.874656500062,283.94116610009223,286.8720744000748,,,,285.9558262000792,286.88809190003667,286.88809190003667,286.88809190003667,up,3.2500146999955177,None,None,,,,,,,,,,,,,,,,,P130,001,2025-02-28_09h17.16.299,posner_endo_new1,2024.2.4,60.01925418360969,2025-02-28 09h17.27.927980 +0000,
cube_l.png,0.1,-0.31,valid,50,50,0,up,2.1462758999550715,None,space,0.4215627999510616,None,,,,,0,50,50,50,,,,,286.88809190003667,,,,,,,,,,,,,286.87223360000644,286.88809190003667,286.88809190003667,286.88809190003667,289.0369441000512,,,,289.04295910010114,289.0546293000225,289.0546293000225,289.1028186000185,289.10304100008216,289.1193194000516,289.1193194000516,289.1193194000516,289.2021938000107,289.5527725000866,,,,,,,,up,2.1462758999550715,None,space,0.4215627999510616,None,,,,,,,,,,,,,,,P130,001,2025-02-28_09h17.16.299,posner_endo_new1,2024.2.4,60.01925418360969,2025-02-28 09h17.27.927980 +0000,
cube_l.png,0.1,-0.31,valid,51,51,0,up,1.81780840002466,None,space,0.6031842000083998,None,,,,,0,51,51,51,,,,,289.5685319000622,,,,,,,,,,,,,289.55294250010047,289.5685319000622,289.5685319000622,289.5685319000622,291.4004701001104,,,,291.4065522000892,291.41796550003346,291.41796550003346,291.46705340000335,291.46728240000084,291.4836185000604,291.4836185000604,291.4836185000604,291.55026060005184,292.1003512000898,,,,,,,,up,1.81780840002466,None,space,0.6031842000083998,None,,,,,,,,,,,,,,,P130,001,2025-02-28_09h17.16.299,posner_endo_new1,2024.2.4,60.01925418360969,2025-02-28 09h17.27.927980 +0000,
cube_r.png,0.1,-0.31,invalid,52,52,0,up,1.8132179999956861,None,space,0.4693918999982998,None,,,,,0,52,52,52,,,,,292.11636330001056,,,,,,,,,,,,,292.1005220001098,292.11636330001056,292.11636330001056,292.11636330001056,293.9319462000858,,,,293.9379148000153,293.9496144000441,293.9496144000441,293.99757330003195,293.997800800018,294.014324100106,294.014324100106,294.014324100106,294.0975052000722,294.4976591001032,,,,,,,,up,1.8132179999956861,None,space,0.4693918999982998,None,,,,,,,,,,,,,,,P130,001,2025-02-28_09h17.16.299,posner_endo_new1,2024.2.4,60.01925418360969,2025-02-28 09h17.27.927980 +0000,
cube_l.png,0.1,-0.31,valid,53,53,0,up,1.8486453000223264,None,space,0.3655121000483632,None,,,,,0,53,53,53,,,,,294.5134422000265,,,,,,,,,,,,,294.4978334000334,294.5134422000265,294.5134422000265,294.5134422000265,296.3628133001039,,,,296.3689741000999,296.3806071000872,296.3806071000872,296.4285831000889,296.42880640004296,296.4452095000306,296.4452095000306,296.4452095000306,296.5286648001056,296.8123694000533,,,,,,,,up,1.8486453000223264,None,space,0.3655121000483632,None,,,,,,,,,,,,,,,P130,001,2025-02-28_09h17.16.299,posner_endo_new1,2024.2.4,60.01925418360969,2025-02-28 09h17.27.927980 +0000,
cube_r.png,0.1,10,catch,54,54,0,up,4.8542019000742584,None,None,,,,,,,0,54,54,54,,,,,296.8280458000954,,,,,,,,,,,,,296.81254240009,296.8280458000954,296.8280458000954,296.8280458000954,301.69027240003925,,,,301.6963151000673,301.7080778001109,301.7080778001109,301.7563799000345,301.7566017000936,301.7731027000118,301.7731027000118,301.7731027000118,301.83957150008064,304.7704414000036,,,,303.8541994000552,304.7864295000909,304.7864295000909,304.7864295000909,up,4.8542019000742584,None,None,,,,,,,,,,,,,,,,,P130,001,2025-02-28_09h17.16.299,posner_endo_new1,2024.2.4,60.01925418360969,2025-02-28 09h17.27.927980 +0000,
cube_l.png,0.1,0.31,invalid,55,55,0,up,1.63136180001311,None,space,0.45977990003302693,None,,,,,0,55,55,55,,,,,304.7864295000909,,,,,,,,,,,,,304.7706073001027,304.7864295000909,304.7864295000909,304.7864295000909,306.4192904001102,,,,306.4252907000482,306.4371701000491,306.4371701000491,306.485169300111,306.485393900075,306.5015350000467,306.5015350000467,306.5015350000467,306.58502410002984,306.9684404000873,,,,,,,,up,1.63136180001311,None,space,0.45977990003302693,None,,,,,,,,,,,,,,,P130,001,2025-02-28_09h17.16.299,posner_endo_new1,2024.2.4,60.01925418360969,2025-02-28 09h17.27.927980 +0000,
cube_l.png,0.1,-0.31,valid,56,56,0,up,2.3302407999290153,None,space,0.4800716999452561,None,,,,,0,56,56,56,,,,,306.98426620010287,,,,,,,,,,,,,306.96861120010726,306.98426620010287,306.98426620010287,306.98426620010287,309.31611740007065,,,,309.32220710010733,309.3337772000814,309.3337772000814,309.38218680000864,309.38241220009513,309.3987058000639,309.3987058000639,309.3987058000639,309.481888600043,309.8821432000259,,,,,,,,up,2.3302407999290153,None,space,0.4800716999452561,None,,,,,,,,,,,,,,,P130,001,2025-02-28_09h17.16.299,posner_endo_new1,2024.2.4,60.01925418360969,2025-02-28 09h17.27.927980 +0000,
cube_r.png,0.1,0.31,valid,57,57,0,up,3.2645576000213623,None,space,0.8714436999289319,None,,,,,0,57,57,57,,,,,309.8983200000366,,,,,,,,,,,,,309.882319400087,309.8983200000366,309.8983200000366,309.8983200000366,313.1790343000321,,,,313.1850802000845,313.19692090002354,313.19692090002354,313.2442421000451,313.24446750001516,313.2614768000785,313.2614768000785,313.2614768000785,313.34460420010146,314.144570000004,,,,,,,,up,3.2645576000213623,None,space,0.8714436999289319,None,,,,,,,,,,,,,,,P130,001,2025-02-28_09h17.16.299,posner_endo_new1,2024.2.4,60.01925418360969,2025-02-28 09h17.27.927980 +0000,
cube_r.png,0.1,-0.31,invalid,58,58,0,up,2.113173699937761,None,space,0.556205700035207,None,,,,,0,58,58,58,,,,,314.16048090008553,,,,,,,,,,,,,314.14474540005904,314.16048090008553,314.16048090008553,314.16048090008553,316.2757304001134,,,,316.28173160005827,316.2933677000692,316.2933677000692,316.34181360004004,316.3420385000063,316.35829470003955,316.35829470003955,316.35829470003955,316.44155570003204,316.92500130005646,,,,,,,,up,2.113173699937761,None,space,0.556205700035207,None,,,,,,,,,,,,,,,P130,001,2025-02-28_09h17.16.299,posner_endo_new1,2024.2.4,60.01925418360969,2025-02-28 09h17.27.927980 +0000,
cube_l.png,0.1,0.31,invalid,59,59,0,up,6.045418900088407,None,space,0.5564373000524938,None,,,,,0,59,59,59,,,,,316.940830900101,,,,,,,,,,,,,316.9251712000696,316.940830900101,316.940830900101,316.940830900101,323.0016688000178,,,,323.00772930006497,323.0193634000607,323.0193634000607,323.06797890004236,323.06820320000406,323.08442850003485,323.08442850003485,323.08442850003485,323.15121690009255,323.65152140008286,,,,,,,,up,6.045418900088407,None,space,0.5564373000524938,None,,,,,,,,,,,,,,,P130,001,2025-02-28_09h17.16.299,posner_endo_new1,2024.2.4,60.01925418360969,2025-02-28 09h17.27.927980 +0000,
,,,,,,,,,,,,,,,,,,,,,,,,,,,,,,,,,,,,,,,,,,,,,,,,,,,,,,,,,,,,,,,,,,,,,323.65163630002644,323.667145500076,323.667145500076,383.67268010007683,390.53304490004666,space,66.8547433000058,None,,,,,,,P130,001,2025-02-28_09h17.16.299,posner_endo_new1,2024.2.4,60.01925418360969,2025-02-28 09h17.27.927980 +0000,
,,,,,,,,,,,,,,,,,,,,,,,,,,,,,,,,,,390.5330981001025,390.5490075000562,393.56804500008,393.5298304000171,,,,,,,,,,,,,,,,,,,,,,,,,,,,,,,,,,,,,,,,,,,,,,P130,001,2025-02-28_09h17.16.299,posner_endo_new1,2024.2.4,60.01925418360969,2025-02-28 09h17.27.927980 +0000,
cube_l.png,0.1,10,catch,0,0,0,down,8.7629031999968,None,None,,,,,,,,,,,0,0,0,0,393.56804500008,,,,,,,,,,,,,393.5585883000167,393.56804500008,393.56804500008,393.56804500008,402.33821700001135,,,,402.34860620007385,402.35878340003546,402.35878340003546,402.40375470009167,402.4040689000394,402.4201506000245,402.4201506000245,402.4201506000245,402.50329350004904,405.41787990008015,,,,404.51813220011536,405.43384570011403,405.43384570011403,405.43384570011403,,,,,,,,,,,,,,,down,8.7629031999968,None,None,,,P130,001,2025-02-28_09h17.16.299,posner_endo_new1,2024.2.4,60.01925418360969,2025-02-28 09h17.27.927980 +0000,
cube_l.png,0.1,10,catch,1,1,0,down,9.889096799888648,None,None,,,,,,,,,,,0,1,1,1,405.43384570011403,,,,,,,,,,,,,405.4181162000168,405.43384570011403,405.43384570011403,405.43384570011403,415.3244447000325,,,,415.33428800001275,415.3445860000793,415.3445860000793,415.3904392000986,415.39074180007447,415.406639700057,415.406639700057,415.406639700057,415.48988810006995,418.40416380006354,,,,417.50446420011576,418.42040590010583,418.42040590010583,418.42040590010583,,,,,,,,,,,,,,,down,9.889096799888648,None,None,,,P130,001,2025-02-28_09h17.16.299,posner_endo_new1,2024.2.4,60.01925418360969,2025-02-28 09h17.27.927980 +0000,
cube_l.png,0.1,0.31,invalid,2,2,0,down,3.2856721999123693,None,space,0.43644550000317395,None,,,,,,,,,0,2,2,2,418.42040590010583,,,,,,,,,,,,,418.4044071000535,418.42040590010583,418.42040590010583,418.42040590010583,421.71784690010827,,,,421.72759240004234,421.7381165000843,421.7381165000843,421.7836047000019,421.7839095001109,421.80044450005516,421.80044450005516,421.80044450005516,421.88332520006225,422.25119340000674,,,,,,,,,,,,,,,,,,,,,,down,3.2856721999123693,None,space,0.43644550000317395,None,P130,001,2025-02-28_09h17.16.299,posner_endo_new1,2024.2.4,60.01925418360969,2025-02-28 09h17.27.927980 +0000,
cube_l.png,0.1,0.31,invalid,3,3,0,down,1.9679802000755444,None,space,0.5380612999433652,None,,,,,,,,,0,3,3,3,422.2662728000432,,,,,,,,,,,,,422.25144490005914,422.2662728000432,422.2662728000432,422.2662728000432,424.2489998000674,,,,424.25874820002355,424.2688379000174,424.2688379000174,424.31447170011234,424.3149030000204,424.33083220000844,424.33083220000844,424.33083220000844,424.41410720010754,424.8817401000997,,,,,,,,,,,,,,,,,,,,,,down,1.9679802000755444,None,space,0.5380612999433652,None,P130,001,2025-02-28_09h17.16.299,posner_endo_new1,2024.2.4,60.01925418360969,2025-02-28 09h17.27.927980 +0000,
cube_l.png,0.1,-0.31,valid,4,4,0,down,2.497672300087288,None,space,0.4378203001106158,None,,,,,,,,,0,4,4,4,424.89693010004703,,,,,,,,,,,,,424.8821222000988,424.89693010004703,424.89693010004703,424.89693010004703,427.39561470004264,,,,427.40536120010074,427.41588150011376,427.41588150011376,427.46119000006,427.4616255000001,427.4776308001019,427.4776308001019,427.4776308001019,427.5608718000585,427.92859740008134,,,,,,,,,,,,,,,,,,,,,,down,2.497672300087288,None,space,0.4378203001106158,None,P130,001,2025-02-28_09h17.16.299,posner_endo_new1,2024.2.4,60.01925418360969,2025-02-28 09h17.27.927980 +0000,
cube_r.png,0.1,-0.31,invalid,5,5,0,down,1.7615357999457046,None,space,0.507752800011076,None,,,,,,,,,0,5,5,5,427.9442246000981,,,,,,,,,,,,,427.9288544000592,427.9442246000981,427.9442246000981,427.9442246000981,429.7098698000191,,,,429.71959540003445,429.7295392000815,429.7295392000815,429.77582670003176,429.77612840000074,429.79189960006624,429.79189960006624,429.79189960006624,429.87548010004684,430.3091770000756,,,,,,,,,,,,,,,,,,,,,,down,1.7615357999457046,None,space,0.507752800011076,None,P130,001,2025-02-28_09h17.16.299,posner_endo_new1,2024.2.4,60.01925418360969,2025-02-28 09h17.27.927980 +0000,
cube_r.png,0.1,0.31,valid,6,6,0,down,6.0777885999996215,None,space,0.4934408999979496,None,,,,,,,,,0,6,6,6,430.32482270000037,,,,,,,,,,,,,430.30943010002375,430.32482270000037,430.32482270000037,430.32482270000037,436.41939680010546,,,,436.4291333000874,436.4390156000154,436.4390156000154,436.48536690010224,436.4856764000142,436.50201380008366,436.50201380008366,436.50201380008366,436.58529110008385,437.0025697000092,,,,,,,,,,,,,,,,,,,,,,down,6.0777885999996215,None,space,0.4934408999979496,None,P130,001,2025-02-28_09h17.16.299,posner_endo_new1,2024.2.4,60.01925418360969,2025-02-28 09h17.27.927980 +0000,
cube_r.png,0.1,-0.31,invalid,7,7,0,down,1.3687307999935001,None,space,0.5431162000168115,None,,,,,,,,,0,7,7,7,437.0178260001121,,,,,,,,,,,,,437.002822700073,437.0178260001121,437.0178260001121,437.0178260001121,438.40105050010607,,,,438.4107946000295,438.42098490009084,438.42098490009084,438.4665953000076,438.4668981001014,438.4834615000291,438.4834615000291,438.4834615000291,438.56630580010824,439.0340026000049,,,,,,,,,,,,,,,,,,,,,,down,1.3687307999935001,None,space,0.5431162000168115,None,P130,001,2025-02-28_09h17.16.299,posner_endo_new1,2024.2.4,60.01925418360969,2025-02-28 09h17.27.927980 +0000,
cube_l.png,0.1,-0.31,valid,8,8,0,down,6.656789500033483,None,space,0.6294641999993473,None,,,,,,,,,0,8,8,8,439.0492561000865,,,,,,,,,,,,,439.03425680007786,439.0492561000865,439.0492561000865,439.0492561000865,445.71009550010785,,,,445.719916800037,445.7299549001036,445.7299549001036,445.7761133000022,445.77641970000695,445.7924358000746,445.7924358000746,445.7924358000746,445.8759007001063,446.42595970002003,,,,,,,,,,,,,,,,,,,,,,down,6.656789500033483,None,space,0.6294641999993473,None,P130,001,2025-02-28_09h17.16.299,posner_endo_new1,2024.2.4,60.01925418360969,2025-02-28 09h17.27.927980 +0000,
cube_r.png,0.1,-0.31,invalid,9,9,0,down,4.977195600047708,None,space,0.45561830000951886,None,,,,,,,,,0,9,9,9,446.44189700006973,,,,,,,,,,,,,446.4262134000892,446.44189700006973,446.44189700006973,446.44189700006973,451.42117890005466,,,,451.4309887000127,451.4412280000979,451.4412280000979,451.4868109000381,451.4871199000627,451.50325290008914,451.50325290008914,451.50325290008914,451.58660150005016,451.97030770010315,,,,,,,,,,,,,,,,,,,,,,down,4.977195600047708,None,space,0.45561830000951886,None,P130,001,2025-02-28_09h17.16.299,posner_endo_new1,2024.2.4,60.01925418360969,2025-02-28 09h17.27.927980 +0000,
cube_l.png,0.1,0.31,invalid,10,10,0,down,6.4401273999828845,None,space,0.6509594999952242,None,,,,,,,,,0,10,10,10,451.98592850007117,,,,,,,,,,,,,451.97056310006883,451.98592850007117,451.98592850007117,451.98592850007117,458.43072070006747,,,,458.44061440008227,458.4506004001014,458.4506004001014,458.4962219001027,458.4965256000869,458.5128440000117,458.5128440000117,458.5128440000117,458.59594750008546,459.1796890000114,,,,,,,,,,,,,,,,,,,,,,down,6.4401273999828845,None,space,0.6509594999952242,None,P130,001,2025-02-28_09h17.16.299,posner_endo_new1,2024.2.4,60.01925418360969,2025-02-28 09h17.27.927980 +0000,
cube_r.png,0.1,-0.31,invalid,11,11,0,down,1.5033916999818757,None,space,0.43156749999616295,None,,,,,,,,,0,11,11,11,459.19519860006403,,,,,,,,,,,,,459.17994950001594,459.19519860006403,459.19519860006403,459.19519860006403,460.7117119000759,,,,460.7214646000648,460.7315564000746,460.7315564000746,460.7770608001156,460.777366100112,460.79385300003923,460.79385300003923,460.79385300003923,460.87724410009105,461.2277224001009,,,,,,,,,,,,,,,,,,,,,,down,1.5033916999818757,None,space,0.43156749999616295,None,P130,001,2025-02-28_09h17.16.299,posner_endo_new1,2024.2.4,60.01925418360969,2025-02-28 09h17.27.927980 +0000,
cube_r.png,0.1,0.31,valid,12,12,0,down,1.567319400026463,None,space,0.5610347000183538,None,,,,,,,,,0,12,12,12,461.2431451000739,,,,,,,,,,,,,461.2279762000544,461.2431451000739,461.2431451000739,461.2431451000739,462.8261564000277,,,,462.83587070007343,462.84595940005966,462.84595940005966,462.89185850007925,462.8921631000703,462.90814480010886,462.90814480010886,462.90814480010886,462.99171670002397,463.4752371000359,,,,,,,,,,,,,,,,,,,,,,down,1.567319400026463,None,space,0.5610347000183538,None,P130,001,2025-02-28_09h17.16.299,posner_endo_new1,2024.2.4,60.01925418360969,2025-02-28 09h17.27.927980 +0000,
cube_l.png,0.1,10,catch,13,13,0,down,2.278972700005397,None,None,,,,,,,,,,,0,13,13,13,463.4909335001139,,,,,,,,,,,,,463.4754903001012,463.4909335001139,463.4909335001139,463.4909335001139,465.773195900023,,,,465.78299320000224,465.7932252000319,465.7932252000319,465.838902000105,465.8392031000694,465.85517780005466,465.85517780005466,465.85517780005466,465.9385838001035,468.85306560003664,,,,467.9529437000165,468.8690904000541,468.8690904000541,468.8690904000541,,,,,,,,,,,,,,,down,2.278972700005397,None,None,,,P130,001,2025-02-28_09h17.16.299,posner_endo_new1,2024.2.4,60.01925418360969,2025-02-28 09h17.27.927980 +0000,
cube_r.png,0.1,-0.31,invalid,14,14,0,down,3.084749300032854,None,space,0.41192900005262345,None,,,,,,,,,0,14,14,14,468.8690904000541,,,,,,,,,,,,,468.85331060003955,468.8690904000541,468.8690904000541,468.8690904000541,471.96672690007836,,,,471.97648120007943,471.98672880011145,471.98672880011145,472.03262920002453,472.03293390001636,472.04880940006115,472.04880940006115,472.04880940006115,472.1320076000411,472.4660539000761,,,,,,,,,,,,,,,,,,,,,,down,3.084749300032854,None,space,0.41192900005262345,None,P130,001,2025-02-28_09h17.16.299,posner_endo_new1,2024.2.4,60.01925418360969,2025-02-28 09h17.27.927980 +0000,
cube_l.png,0.1,-0.31,valid,15,15,0,down,1.4641783999977633,None,space,0.5107486000051722,None,,,,,,,,,0,15,15,15,472.48210200003814,,,,,,,,,,,,,472.4663087000372,472.48210200003814,472.48210200003814,472.48210200003814,473.94842540007085,,,,473.9584690000629,473.96855650004,473.96855650004,474.0137431001058,474.01404690009076,474.030438200105,474.030438200105,474.030438200105,474.1135674000252,474.54756240011193,,,,,,,,,,,,,,,,,,,,,,down,1.4641783999977633,None,space,0.5107486000051722,None,P130,001,2025-02-28_09h17.16.299,posner_endo_new1,2024.2.4,60.01925418360969,2025-02-28 09h17.27.927980 +0000,
cube_r.png,0.1,10,catch,16,16,0,down,3.7751806000014767,None,None,,,,,,,,,,,0,16,16,16,474.56283880001865,,,,,,,,,,,,,474.5478160000639,474.56283880001865,474.56283880001865,474.56283880001865,478.3435717000393,,,,478.3536165000405,478.3637364000315,478.3637364000315,478.40950600011274,478.4098103001015,478.4256615000777,478.4256615000777,478.4256615000777,478.50898930011317,481.42326990002766,,,,480.5235578001011,481.4396060000872,481.4396060000872,481.4396060000872,,,,,,,,,,,,,,,down,3.7751806000014767,None,None,,,P130,001,2025-02-28_09h17.16.299,posner_endo_new1,2024.2.4,60.01925418360969,2025-02-28 09h17.27.927980 +0000,
cube_r.png,0.1,10,catch,17,17,0,down,2.8026814999757335,None,None,,,,,,,,,,,0,17,17,17,481.4396060000872,,,,,,,,,,,,,481.4235099001089,481.4396060000872,481.4396060000872,481.4396060000872,484.2542250000406,,,,484.264021400013,484.27416750008706,484.27416750008706,484.3199443001067,484.32024880009703,484.3366645000642,484.3366645000642,484.3366645000642,484.41960740007926,487.3339368000161,,,,486.4341508001089,487.3499569001142,487.3499569001142,487.3499569001142,,,,,,,,,,,,,,,down,2.8026814999757335,None,None,,,P130,001,2025-02-28_09h17.16.299,posner_endo_new1,2024.2.4,60.01925418360969,2025-02-28 09h17.27.927980 +0000,
cube_l.png,0.1,0.31,invalid,18,18,0,down,1.6044774999609217,None,space,0.47738299996126443,None,,,,,,,,,0,18,18,18,487.3499569001142,,,,,,,,,,,,,487.3341745000798,487.3499569001142,487.3499569001142,487.3499569001142,488.96615880005993,,,,488.9759656001115,488.9861008001026,488.9861008001026,489.0319333000807,489.03223540005274,489.0480465000728,489.0480465000728,489.0480465000728,489.1316306000808,489.5323181001004,,,,,,,,,,,,,,,,,,,,,,down,1.6044774999609217,None,space,0.47738299996126443,None,P130,001,2025-02-28_09h17.16.299,posner_endo_new1,2024.2.4,60.01925418360969,2025-02-28 09h17.27.927980 +0000,
cube_l.png,0.1,10,catch,19,19,0,down,1.71886710007675,None,None,,,,,,,,,,,0,19,19,19,489.54792270006146,,,,,,,,,,,,,489.5325732000638,489.54792270006146,489.54792270006146,489.54792270006146,491.2805351000279,,,,491.29030480002984,491.30044760007877,491.30044760007877,491.34589970007073,491.3462020000443,491.36260690004565,491.36260690004565,491.36260690004565,491.44614730007015,494.36027630011085,,,,493.4602930000983,494.37603920011315,494.37603920011315,494.37603920011315,,,,,,,,,,,,,,,down,1.71886710007675,None,None,,,P130,001,2025-02-28_09h17.16.299,posner_endo_new1,2024.2.4,60.01925418360969,2025-02-28 09h17.27.927980 +0000,
cube_l.png,0.1,0.31,invalid,20,20,0,down,0.5781552999978885,None,space,0.4326120999176055,None,,,,,,,,,0,20,20,20,494.37603920011315,,,,,,,,,,,,,494.3605139000574,494.37603920011315,494.37603920011315,494.37603920011315,494.9597867000848,,,,494.969696000102,494.9799664000748,494.9799664000748,495.0257735000923,495.0260760000674,495.04247190000024,495.04247190000024,495.04247190000024,495.10890660004225,495.476231800043,,,,,,,,,,,,,,,,,,,,,,down,0.5781552999978885,None,space,0.4326120999176055,None,P130,001,2025-02-28_09h17.16.299,posner_endo_new1,2024.2.4,60.01925418360969,2025-02-28 09h17.27.927980 +0000,
cube_l.png,0.1,-0.31,valid,21,21,0,down,1.6785344000672922,None,space,1.1221150999190286,None,,,,,,,,,0,21,21,21,495.4918473000871,,,,,,,,,,,,,495.4764864000026,495.4918473000871,495.4918473000871,495.4918473000871,497.17420910007786,,,,497.18385680008214,497.19404080009554,497.19404080009554,497.2399358000839,497.2402421000879,497.2567450000206,497.2567450000206,497.2567450000206,497.33993310004007,498.3898520000512,,,,,,,,,,,,,,,,,,,,,,down,1.6785344000672922,None,space,1.1221150999190286,None,P130,001,2025-02-28_09h17.16.299,posner_endo_new1,2024.2.4,60.01925418360969,2025-02-28 09h17.27.927980 +0000,
cube_r.png,0.1,0.31,valid,22,22,0,down,1.2690952999982983,None,space,0.8097347000148147,None,,,,,,,,,0,22,22,22,498.4055820000358,,,,,,,,,,,,,498.39012580004055,498.4055820000358,498.4055820000358,498.4055820000358,499.68845840008,,,,499.6981859001098,499.70830950001255,499.70830950001255,499.7539366000565,499.7542403000407,499.7708490000805,499.7708490000805,499.7708490000805,499.83700540009886,500.587639400037,,,,,,,,,,,,,,,,,,,,,,down,1.2690952999982983,None,space,0.8097347000148147,None,P130,001,2025-02-28_09h17.16.299,posner_endo_new1,2024.2.4,60.01925418360969,2025-02-28 09h17.27.927980 +0000,
cube_r.png,0.1,-0.31,invalid,23,23,0,down,1.5426127000246197,None,space,0.5722222001058981,None,,,,,,,,,0,23,23,23,500.60332790005486,,,,,,,,,,,,,500.5878948000027,500.60332790005486,500.60332790005486,500.60332790005486,502.1527393000433,,,,502.16257840010803,502.17295150004793,502.17295150004793,502.21846170001663,502.21876720001455,502.2345471000299,502.2345471000299,502.2345471000299,502.3181185000576,502.818698600051,,,,,,,,,,,,,,,,,,,,,,down,1.5426127000246197,None,space,0.5722222001058981,None,P130,001,2025-02-28_09h17.16.299,posner_endo_new1,2024.2.4,60.01925418360969,2025-02-28 09h17.27.927980 +0000,
cube_r.png,0.1,0.31,valid,24,24,0,down,1.7601627999683842,None,space,0.598429900011979,None,,,,,,,,,0,24,24,24,502.8339544000337,,,,,,,,,,,,,502.81895280000754,502.8339544000337,502.8339544000337,502.8339544000337,504.60009690001607,,,,504.60986110009253,504.6201063001063,504.6201063001063,504.66598940000404,504.66629880003165,504.682464200072,504.682464200072,504.682464200072,504.76542950002477,505.28307940007653,,,,,,,,,,,,,,,,,,,,,,down,1.7601627999683842,None,space,0.598429900011979,None,P130,001,2025-02-28_09h17.16.299,posner_endo_new1,2024.2.4,60.01925418360969,2025-02-28 09h17.27.927980 +0000,
cube_r.png,0.1,-0.31,invalid,25,25,0,down,1.3683349000057206,None,space,0.6608835998922586,None,,,,,,,,,0,25,25,25,505.2981704000849,,,,,,,,,,,,,505.2833384000696,505.2981704000849,505.2981704000849,505.2981704000849,506.68140250002034,,,,506.6912107000826,506.7013486000942,506.7013486000942,506.7470259000547,506.7473284000298,506.763284600107,506.763284600107,506.763284600107,506.8465057000285,507.4302498000907,,,,,,,,,,,,,,,,,,,,,,down,1.3683349000057206,None,space,0.6608835998922586,None,P130,001,2025-02-28_09h17.16.299,posner_endo_new1,2024.2.4,60.01925418360969,2025-02-28 09h17.27.927980 +0000,
cube_l.png,0.1,-0.31,valid,26,26,0,down,1.5726058000000194,None,space,0.5602910000598058,None,,,,,,,,,0,26,26,26,507.4459340000758,,,,,,,,,,,,,507.43050240003504,507.4459340000758,507.4459340000758,507.4459340000758,509.0288581000641,,,,509.03855110006407,509.04882460006047,509.04882460006047,509.09446220006794,509.09476640005596,509.1108625000343,509.1108625000343,509.1108625000343,509.1941640001023,509.6785514000803,,,,,,,,,,,,,,,,,,,,,,down,1.5726058000000194,None,space,0.5602910000598058,None,P130,001,2025-02-28_09h17.16.299,posner_endo_new1,2024.2.4,60.01925418360969,2025-02-28 09h17.27.927980 +0000,
cube_r.png,0.1,0.31,valid,27,27,0,down,1.4690304000396281,None,space,0.6607427999842912,None,,,,,,,,,0,27,27,27,509.69361150008626,,,,,,,,,,,,,509.6788084000582,509.69361150008626,509.69361150008626,509.69361150008626,511.176538300002,,,,511.1861947000725,511.19635740004014,511.19635740004014,511.242271300056,511.24257940007374,511.2588769000722,511.2588769000722,511.2588769000722,511.32532930001616,511.9257191000506,,,,,,,,,,,,,,,,,,,,,,down,1.4690304000396281,None,space,0.6607427999842912,None,P130,001,2025-02-28_09h17.16.299,posner_endo_new1,2024.2.4,60.01925418360969,2025-02-28 09h17.27.927980 +0000,
cube_r.png,0.1,10,catch,28,28,0,down,2.8610822000773624,None,None,,,,,,,,,,,0,28,28,28,511.94134330004454,,,,,,,,,,,,,511.9259792000521,511.94134330004454,511.94134330004454,511.94134330004454,514.8062055000337,,,,514.812602500082,514.8243542000419,514.8243542000419,514.8721736000152,514.8723990001017,514.8886010000715,514.8886010000715,514.8886010000715,514.9553880000021,517.8860272000311,,,,516.9699084000895,517.9023131000577,517.9023131000577,517.9023131000577,,,,,,,,,,,,,,,down,2.8610822000773624,None,None,,,P130,001,2025-02-28_09h17.16.299,posner_endo_new1,2024.2.4,60.01925418360969,2025-02-28 09h17.27.927980 +0000,
cube_r.png,0.1,0.31,valid,29,29,0,down,1.243767499923706,None,space,0.4830541000701487,None,,,,,,,,,0,29,29,29,517.9023131000577,,,,,,,,,,,,,517.8861888000974,517.9023131000577,517.9023131000577,517.9023131000577,519.1517703999998,,,,519.1578353000805,519.1695221000118,519.1695221000118,519.2176083000377,519.2178384000435,519.2343581001041,519.2343581001041,519.2343581001041,519.3008510000072,519.7343286001123,,,,,,,,,,,,,,,,,,,,,,down,1.243767499923706,None,space,0.4830541000701487,None,P130,001,2025-02-28_09h17.16.299,posner_endo_new1,2024.2.4,60.01925418360969,2025-02-28 09h17.27.927980 +0000,
cube_r.png,0.1,0.31,valid,30,30,0,down,1.756247700075619,None,space,0.5143841999815777,None,,,,,,,,,0,30,30,30,519.7503220000071,,,,,,,,,,,,,519.7345052000601,519.7503220000071,519.7503220000071,519.7503220000071,521.5158232001122,,,,521.5219174000667,521.5336211000104,521.5336211000104,521.5815659000073,521.581795200007,521.5985098000383,521.5985098000383,521.5985098000383,521.6652297000401,522.1152270000894,,,,,,,,,,,,,,,,,,,,,,down,1.756247700075619,None,space,0.5143841999815777,None,P130,001,2025-02-28_09h17.16.299,posner_endo_new1,2024.2.4,60.01925418360969,2025-02-28 09h17.27.927980 +0000,
cube_l.png,0.1,-0.31,valid,31,31,0,down,1.6386196999810636,None,space,0.5462999999290332,None,,,,,,,,,0,31,31,31,522.1314642000943,,,,,,,,,,,,,522.1154082000721,522.1314642000943,522.1314642000943,522.1314642000943,523.7801655000076,,,,523.786163300043,523.797783200047,523.797783200047,523.8463721000589,523.8465983000351,523.8627470000647,523.8627470000647,523.8627470000647,523.9290578000946,524.4129250000697,,,,,,,,,,,,,,,,,,,,,,down,1.6386196999810636,None,space,0.5462999999290332,None,P130,001,2025-02-28_09h17.16.299,posner_endo_new1,2024.2.4,60.01925418360969,2025-02-28 09h17.27.927980 +0000,
cube_r.png,0.1,0.31,valid,32,32,0,down,1.6052909999853,None,space,0.6760434999596328,None,,,,,,,,,0,32,32,32,524.4289791000774,,,,,,,,,,,,,524.4131062000524,524.4289791000774,524.4289791000774,524.4289791000774,526.0441899000434,,,,526.0502708000131,526.0618891000049,526.0618891000049,526.1106036000419,526.1108301000204,526.1272427000804,526.1272427000804,526.1272427000804,526.1937091000145,526.810673900065,,,,,,,,,,,,,,,,,,,,,,down,1.6052909999853,None,space,0.6760434999596328,None,P130,001,2025-02-28_09h17.16.299,posner_endo_new1,2024.2.4,60.01925418360969,2025-02-28 09h17.27.927980 +0000,
cube_r.png,0.1,-0.31,invalid,33,33,0,down,1.53611860005185,None,space,0.465030699968338,None,,,,,,,,,0,33,33,33,526.826611100114,,,,,,,,,,,,,526.8108679000288,526.826611100114,526.826611100114,526.826611100114,528.3755097000394,,,,528.3815275001107,528.393001700053,528.393001700053,528.4417604000773,528.4419851000421,528.4580085000489,528.4580085000489,528.4580085000489,528.5245796000818,528.925163500011,,,,,,,,,,,,,,,,,,,,,,down,1.53611860005185,None,space,0.465030699968338,None,P130,001,2025-02-28_09h17.16.299,posner_endo_new1,2024.2.4,60.01925418360969,2025-02-28 09h17.27.927980 +0000,
cube_r.png,0.1,10,catch,34,34,0,down,3.9900408000685275,None,None,,,,,,,,,,,0,34,34,34,528.9410500000231,,,,,,,,,,,,,528.9253448001109,528.9410500000231,528.9410500000231,528.9410500000231,532.9378087000223,,,,532.9440465000225,532.9559526001103,532.9559526001103,533.0034152000444,533.0036371001042,533.0201710000401,533.0201710000401,533.0201710000401,533.1033030000981,536.0176061000675,,,,535.1177983001107,536.0335809000535,536.0335809000535,536.0335809000535,,,,,,,,,,,,,,,down,3.9900408000685275,None,None,,,P130,001,2025-02-28_09h17.16.299,posner_endo_new1,2024.2.4,60.01925418360969,2025-02-28 09h17.27.927980 +0000,
cube_r.png,0.1,0.31,valid,35,35,0,down,2.3206558999372646,None,space,0.4962044000858441,None,,,,,,,,,0,35,35,35,536.0335809000535,,,,,,,,,,,,,536.0177702000365,536.0335809000535,536.0335809000535,536.0335809000535,538.3654591001105,,,,538.3715571000939,538.3832042000722,538.3832042000722,538.4311109000118,538.4313350000884,538.4480026001111,538.4480026001111,538.4480026001111,538.5311027000425,538.9482696000487,,,,,,,,,,,,,,,,,,,,,,down,2.3206558999372646,None,space,0.4962044000858441,None,P130,001,2025-02-28_09h17.16.299,posner_endo_new1,2024.2.4,60.01925418360969,2025-02-28 09h17.27.927980 +0000,
cube_r.png,0.1,-0.31,invalid,36,36,0,down,1.4710870999842882,None,space,0.47818470001220703,None,,,,,,,,,0,36,36,36,538.9636116001057,,,,,,,,,,,,,538.9484449001029,538.9636116001057,538.9636116001057,538.9636116001057,540.4466100001009,,,,540.452689900063,540.464312300086,540.464312300086,540.5125877000391,540.512824100093,540.5290205000201,540.5290205000201,540.5290205000201,540.612487400067,541.0128198000602,,,,,,,,,,,,,,,,,,,,,,down,1.4710870999842882,None,space,0.47818470001220703,None,P130,001,2025-02-28_09h17.16.299,posner_endo_new1,2024.2.4,60.01925418360969,2025-02-28 09h17.27.927980 +0000,
cube_l.png,0.1,0.31,invalid,37,37,0,down,2.197887299931608,None,space,0.6276985000586137,None,,,,,,,,,0,37,37,37,541.0286025000969,,,,,,,,,,,,,541.0130022000521,541.0286025000969,541.0286025000969,541.0286025000969,543.2274011000991,,,,543.2333537000231,543.2451868000207,543.2451868000207,543.2930737000424,543.2932965001091,543.3096715001157,543.3096715001157,543.3096715001157,543.3929072000319,543.9430597000755,,,,,,,,,,,,,,,,,,,,,,down,2.197887299931608,None,space,0.6276985000586137,None,P130,001,2025-02-28_09h17.16.299,posner_endo_new1,2024.2.4,60.01925418360969,2025-02-28 09h17.27.927980 +0000,
cube_l.png,0.1,0.31,invalid,38,38,0,down,1.3322618999518454,None,space,0.6202475000172853,None,,,,,,,,,0,38,38,38,543.9587892000563,,,,,,,,,,,,,543.9432355000172,543.9587892000563,543.9587892000563,543.9587892000563,545.3083986000856,,,,545.3144299000269,545.3259928000625,545.3259928000625,545.3743179000448,545.3745395001024,545.3907765001059,545.3907765001059,545.3907765001059,545.4741527000442,546.0241573000094,,,,,,,,,,,,,,,,,,,,,,down,1.3322618999518454,None,space,0.6202475000172853,None,P130,001,2025-02-28_09h17.16.299,posner_endo_new1,2024.2.4,60.01925418360969,2025-02-28 09h17.27.927980 +0000,
cube_r.png,0.1,0.31,valid,39,39,0,down,1.5000621000071988,None,space,1.0751056000590324,None,,,,,,,,,0,39,39,39,546.0397247000365,,,,,,,,,,,,,546.0243338000728,546.0397247000365,546.0397247000365,546.0397247000365,547.5559943000553,,,,547.5619984000223,547.5737576000392,547.5737576000392,547.6221417000052,547.6223634000635,547.6386513001053,547.6386513001053,547.6386513001053,547.7052942001028,548.7216346000787,,,,,,,,,,,,,,,,,,,,,,down,1.5000621000071988,None,space,1.0751056000590324,None,P130,001,2025-02-28_09h17.16.299,posner_endo_new1,2024.2.4,60.01925418360969,2025-02-28 09h17.27.927980 +0000,
cube_l.png,0.1,0.31,invalid,40,40,0,down,0.8885874999687076,None,space,0.4679918000474572,None,,,,,,,,,0,40,40,40,548.7375824000919,,,,,,,,,,,,,548.7218159000622,548.7375824000919,548.7375824000919,548.7375824000919,549.6372961000307,,,,549.6433096000692,549.6548979000654,549.6548979000654,549.703017800115,549.7032429000828,549.7199340000516,549.7199340000516,549.7199340000516,549.8029395000776,550.2034170000115,,,,,,,,,,,,,,,,,,,,,,down,0.8885874999687076,None,space,0.4679918000474572,None,P130,001,2025-02-28_09h17.16.299,posner_endo_new1,2024.2.4,60.01925418360969,2025-02-28 09h17.27.927980 +0000,
cube_l.png,0.1,10,catch,41,41,0,down,1.9270961999427527,None,None,,,,,,,,,,,0,41,41,41,550.2190939000575,,,,,,,,,,,,,550.2035913000582,550.2190939000575,550.2190939000575,550.2190939000575,552.1514664000133,,,,552.1574653000571,552.1691370001063,552.1691370001063,552.2175121000037,552.2177347000688,552.2339560000692,552.2339560000692,552.2339560000692,552.3168746000156,555.2313567000674,,,,554.3316714001121,555.2474076000508,555.2474076000508,555.2474076000508,,,,,,,,,,,,,,,down,1.9270961999427527,None,None,,,P130,001,2025-02-28_09h17.16.299,posner_endo_new1,2024.2.4,60.01925418360969,2025-02-28 09h17.27.927980 +0000,
cube_l.png,0.1,-0.31,valid,42,42,0,down,2.090642499970272,None,space,0.6411270999815315,None,,,,,,,,,0,42,42,42,555.2474076000508,,,,,,,,,,,,,555.2315186000196,555.2474076000508,555.2474076000508,555.2474076000508,557.3461953001097,,,,557.3524578000652,557.3642546000192,557.3642546000192,557.4119893000461,557.4122142000124,557.4286262000678,557.4286262000678,557.4286262000678,557.4951482000761,558.0785056001041,,,,,,,,,,,,,,,,,,,,,,down,2.090642499970272,None,space,0.6411270999815315,None,P130,001,2025-02-28_09h17.16.299,posner_endo_new1,2024.2.4,60.01925418360969,2025-02-28 09h17.27.927980 +0000,
cube_l.png,0.1,10,catch,43,43,0,down,1.3552975000347942,None,None,,,,,,,,,,,0,43,43,43,558.0946528000059,,,,,,,,,,,,,558.078683800064,558.0946528000059,558.0946528000059,558.0946528000059,559.460608900059,,,,559.4666188000701,559.4782296000049,559.4782296000049,559.5267085001105,559.5269316000631,559.5432418000419,559.5432418000419,559.5432418000419,559.6097235000925,562.5402975000907,,,,561.6244360000128,562.5563977001002,562.5563977001002,562.5563977001002,,,,,,,,,,,,,,,down,1.3552975000347942,None,None,,,P130,001,2025-02-28_09h17.16.299,posner_endo_new1,2024.2.4,60.01925418360969,2025-02-28 09h17.27.927980 +0000,
cube_l.png,0.1,0.31,invalid,44,44,0,down,2.3662912000436336,None,space,0.46377449994906783,None,,,,,,,,,0,44,44,44,562.5563977001002,,,,,,,,,,,,,562.5404601000482,562.5563977001002,562.5563977001002,562.5563977001002,564.9383202000754,,,,564.9443149000872,564.9557510000886,564.9557510000886,565.0041500000516,565.0043729000026,565.0209551000735,565.0209551000735,565.0209551000735,565.1035886000609,565.4878409000812,,,,,,,,,,,,,,,,,,,,,,down,2.3662912000436336,None,space,0.46377449994906783,None,P130,001,2025-02-28_09h17.16.299,posner_endo_new1,2024.2.4,60.01925418360969,2025-02-28 09h17.27.927980 +0000,
cube_l.png,0.1,0.31,invalid,45,45,0,down,1.4670866000233218,None,space,0.48703210009261966,None,,,,,,,,,0,45,45,45,565.5035961000249,,,,,,,,,,,,,565.4880138000008,565.5035961000249,565.5035961000249,565.5035961000249,566.9857725000475,,,,566.9918861000333,567.0034021000611,567.0034021000611,567.0520870001055,567.052311000065,567.0685695001157,567.0685695001157,567.0685695001157,567.1351137000602,567.5685363000957,,,,,,,,,,,,,,,,,,,,,,down,1.4670866000233218,None,space,0.48703210009261966,None,P130,001,2025-02-28_09h17.16.299,posner_endo_new1,2024.2.4,60.01925418360969,2025-02-28 09h17.27.927980 +0000,
cube_r.png,0.1,0.31,valid,46,46,0,down,4.657059599994682,None,space,0.4527505999431014,None,,,,,,,,,0,46,46,46,567.5849151000148,,,,,,,,,,,,,567.5687167000724,567.5849151000148,567.5849151000148,567.5849151000148,572.247752700001,,,,572.2538432000438,572.2655935001094,572.2655935001094,572.3131340000546,572.3133600000292,572.3300954001024,572.3300954001024,572.3300954001024,572.4131527000573,572.7970560000977,,,,,,,,,,,,,,,,,,,,,,down,4.657059599994682,None,space,0.4527505999431014,None,P130,001,2025-02-28_09h17.16.299,posner_endo_new1,2024.2.4,60.01925418360969,2025-02-28 09h17.27.927980 +0000,
cube_l.png,0.1,-0.31,valid,47,47,0,down,2.0693184999981895,None,space,0.5788135000038892,None,,,,,,,,,0,47,47,47,572.812973500113,,,,,,,,,,,,,572.7972346000606,572.812973500113,572.812973500113,572.812973500113,574.8947650000919,,,,574.9008400000166,574.9124391000951,574.9124391000951,574.9606794000138,574.9609013000736,574.9770515001146,574.9770515001146,574.9770515001146,575.0434682000196,575.5604747000616,,,,,,,,,,,,,,,,,,,,,,down,2.0693184999981895,None,space,0.5788135000038892,None,P130,001,2025-02-28_09h17.16.299,posner_endo_new1,2024.2.4,60.01925418360969,2025-02-28 09h17.27.927980 +0000,
cube_r.png,0.1,-0.31,invalid,48,48,0,down,3.4970740999560803,None,space,0.5063044000416994,None,,,,,,,,,0,48,48,48,575.5768681000918,,,,,,,,,,,,,575.5606565000489,575.5768681000918,575.5768681000918,575.5768681000918,579.0906364000402,,,,579.0973666000646,579.1090610000538,579.1090610000538,579.1563120000064,579.1565380000975,579.1729784000199,579.1729784000199,579.1729784000199,579.2560980000999,579.6895346000092,,,,,,,,,,,,,,,,,,,,,,down,3.4970740999560803,None,space,0.5063044000416994,None,P130,001,2025-02-28_09h17.16.299,posner_endo_new1,2024.2.4,60.01925418360969,2025-02-28 09h17.27.927980 +0000,
cube_r.png,0.1,10,catch,49,49,0,down,1.9042840000474826,None,None,,,,,,,,,,,0,49,49,49,579.7057865000097,,,,,,,,,,,,,579.689707600046,579.7057865000097,579.7057865000097,579.7057865000097,581.6212302000495,,,,581.6274091000669,581.6391143000219,581.6391143000219,581.68670630001,581.6869287000736,581.7039112000493,581.7039112000493,581.7039112000493,581.7870793000329,584.7012664000504,,,,583.8017192000989,584.7171806000406,584.7171806000406,584.7171806000406,,,,,,,,,,,,,,,down,1.9042840000474826,None,None,,,P130,001,2025-02-28_09h17.16.299,posner_endo_new1,2024.2.4,60.01925418360969,2025-02-28 09h17.27.927980 +0000,
cube_l.png,0.1,-0.31,valid,50,50,0,down,1.6053765999386087,None,space,0.4600958999944851,None,,,,,,,,,0,50,50,50,584.7171806000406,,,,,,,,,,,,,584.7014320000308,584.7171806000406,584.7171806000406,584.7171806000406,586.3331327000633,,,,586.3395519000478,586.3514329000609,586.3514329000609,586.3989946000511,586.3992273000767,586.4156788000837,586.4156788000837,586.4156788000837,586.4821370000718,586.8826977000572,,,,,,,,,,,,,,,,,,,,,,down,1.6053765999386087,None,space,0.4600958999944851,None,P130,001,2025-02-28_09h17.16.299,posner_endo_new1,2024.2.4,60.01925418360969,2025-02-28 09h17.27.927980 +0000,
cube_l.png,0.1,-0.31,valid,51,51,0,down,3.1598073999630287,None,space,0.4753984999842942,None,,,,,,,,,0,51,51,51,586.8985091000795,,,,,,,,,,,,,586.8828704000916,586.8985091000795,586.8985091000795,586.8985091000795,590.0627804000396,,,,590.0693186999997,590.0812665000558,590.0812665000558,590.1285503000254,590.1287739000982,590.1450568001019,590.1450568001019,590.1450568001019,590.2283023000928,590.6287559000775,,,,,,,,,,,,,,,,,,,,,,down,3.1598073999630287,None,space,0.4753984999842942,None,P130,001,2025-02-28_09h17.16.299,posner_endo_new1,2024.2.4,60.01925418360969,2025-02-28 09h17.27.927980 +0000,
cube_r.png,0.1,-0.31,invalid,52,52,0,down,1.7265813000267372,None,space,0.40915550000499934,None,,,,,,,,,0,52,52,52,590.6446787000168,,,,,,,,,,,,,590.6289312000154,590.6446787000168,590.6446787000168,590.6446787000168,592.3769566001138,,,,592.3830383000895,592.3947512001032,592.3947512001032,592.4428042001091,592.4430276000639,592.4595159000019,592.4595159000019,592.4595159000019,592.5260842000134,592.8763835000573,,,,,,,,,,,,,,,,,,,,,,down,1.7265813000267372,None,space,0.40915550000499934,None,P130,001,2025-02-28_09h17.16.299,posner_endo_new1,2024.2.4,60.01925418360969,2025-02-28 09h17.27.927980 +0000,
cube_l.png,0.1,-0.31,valid,53,53,0,down,3.3185978999827057,None,space,0.45805170002859086,None,,,,,,,,,0,53,53,53,592.8922679000534,,,,,,,,,,,,,592.876558200107,592.8922679000534,592.8922679000534,592.8922679000534,596.2229874000186,,,,596.2291822000407,596.2411040000152,596.2411040000152,596.2891093000071,596.289344400051,596.3054142000619,596.3054142000619,596.3054142000619,596.3719616000308,596.7725836000172,,,,,,,,,,,,,,,,,,,,,,down,3.3185978999827057,None,space,0.45805170002859086,None,P130,001,2025-02-28_09h17.16.299,posner_endo_new1,2024.2.4,60.01925418360969,2025-02-28 09h17.27.927980 +0000,
cube_r.png,0.1,10,catch,54,54,0,down,2.047232700046152,None,None,,,,,,,,,,,0,54,54,54,596.7884258000413,,,,,,,,,,,,,596.7727558000479,596.7884258000413,596.7884258000413,596.7884258000413,598.8372890000464,,,,598.8502415000694,598.8603409000207,598.8603409000207,598.9027473001042,598.9031301001087,598.919213800109,598.919213800109,598.919213800109,599.0023577000247,601.9169544000179,,,,601.0170325000072,601.9326492000837,601.9326492000837,601.9326492000837,,,,,,,,,,,,,,,down,2.047232700046152,None,None,,,P130,001,2025-02-28_09h17.16.299,posner_endo_new1,2024.2.4,60.01925418360969,2025-02-28 09h17.27.927980 +0000,
cube_l.png,0.1,0.31,invalid,55,55,0,down,1.8533720000414178,None,space,0.4834177999291569,None,,,,,,,,,0,55,55,55,601.9326492000837,,,,,,,,,,,,,601.9172601000173,601.9326492000837,601.9326492000837,601.9326492000837,603.7986887000734,,,,603.8118193000555,603.8219043000136,603.8219043000136,603.8642056001117,603.8645869001048,603.8807100000558,603.8807100000558,603.8807100000558,603.9639598000795,604.3813670000527,,,,,,,,,,,,,,,,,,,,,,down,1.8533720000414178,None,space,0.4834177999291569,None,P130,001,2025-02-28_09h17.16.299,posner_endo_new1,2024.2.4,60.01925418360969,2025-02-28 09h17.27.927980 +0000,
cube_l.png,0.1,-0.31,valid,56,56,0,down,1.5495987000176683,None,space,0.7011085000121966,None,,,,,,,,,0,56,56,56,604.3968300000997,,,,,,,,,,,,,604.3816982000135,604.3968300000997,604.3968300000997,604.3968300000997,605.9627946000546,,,,605.9713859000476,605.9818900000537,605.9818900000537,606.0286841000197,606.0290668000234,606.0452990001068,606.0452990001068,606.0452990001068,606.1116931000724,606.7625209001126,,,,,,,,,,,,,,,,,,,,,,down,1.5495987000176683,None,space,0.7011085000121966,None,P130,001,2025-02-28_09h17.16.299,posner_endo_new1,2024.2.4,60.01925418360969,2025-02-28 09h17.27.927980 +0000,
cube_r.png,0.1,0.31,valid,57,57,0,down,1.4724757999647409,None,space,0.5952568000648171,None,,,,,,,,,0,57,57,57,606.7776753000217,,,,,,,,,,,,,606.762851400068,606.7776753000217,606.7776753000217,606.7776753000217,608.2607910000952,,,,608.2738448000746,608.284285300062,608.284285300062,608.3262809000444,608.3266743000131,608.3429474000586,608.3429474000586,608.3429474000586,608.426078400109,608.9435799000785,,,,,,,,,,,,,,,,,,,,,,down,1.4724757999647409,None,space,0.5952568000648171,None,P130,001,2025-02-28_09h17.16.299,posner_endo_new1,2024.2.4,60.01925418360969,2025-02-28 09h17.27.927980 +0000,
cube_r.png,0.1,-0.31,invalid,58,58,0,down,3.6757726999931037,None,space,0.8905875999480486,None,,,,,,,,,0,58,58,58,608.9588014000328,,,,,,,,,,,,,608.943907000008,608.9588014000328,608.9588014000328,608.9588014000328,612.6398039000342,,,,612.6530418000184,612.663125900086,612.663125900086,612.7051718001021,612.7055605000351,612.721597100026,612.721597100026,612.721597100026,612.8050260000164,613.6220427000662,,,,,,,,,,,,,,,,,,,,,,down,3.6757726999931037,None,space,0.8905875999480486,None,P130,001,2025-02-28_09h17.16.299,posner_endo_new1,2024.2.4,60.01925418360969,2025-02-28 09h17.27.927980 +0000,
cube_l.png,0.1,0.31,invalid,59,59,0,down,1.81306279997807,None,space,0.4817499000346288,None,,,,,,,,,0,59,59,59,613.637436900055,,,,,,,,,,,,,613.622378100059,613.637436900055,613.637436900055,613.637436900055,615.4536621000152,,,,615.4666060000891,615.47662760003,615.47662760003,615.5192815000191,615.5195517000975,615.5355285000987,615.5355285000987,615.5355285000987,615.6188784000697,616.0194310001098,,,,,,,,,,,,,,,,,,,,,,down,1.81306279997807,None,space,0.4817499000346288,None,P130,001,2025-02-28_09h17.16.299,posner_endo_new1,2024.2.4,60.01925418360969,2025-02-28 09h17.27.927980 +0000,
