cue_img,cue_soa,target_y,trial,thisN,thisTrialN,thisRepN,key_control2.keys,key_control2.rt,key_control2.duration,key_resp.keys,key_resp.rt,key_resp.duration,practice.thisRepN,practice.thisTrialN,practice.thisN,practice.thisIndex,block1.thisRepN,block1.thisTrialN,block1.thisN,block1.thisIndex,block2.thisRepN,block2.thisTrialN,block2.thisN,block2.thisIndex,thisRow.t,notes,instructions.started,instructions_txt.started,key_control.started,instructions.stopped,key_control.keys,key_control.rt,key_control.duration,ready.started,ready_txt.started,ready_txt.stopped,ready.stopped,fix.started,fixation.started,key_control2.started,fixation_cross.started,fix.stopped,practice.key_control2.keys,practice.key_control2.rt,practice.key_control2.duration,cue.started,cube.started,fixation_cross_cue.started,cue.stopped,target.started,fixation_target.started,fixation_cross_target.started,key_resp.started,star.started,target.stopped,practice.key_resp.keys,practice.key_resp.rt,practice.key_resp.duration,star.stopped,fixation_target.stopped,fixation_cross_target.stopped,key_resp.stopped,block1.key_control2.keys,block1.key_control2.rt,block1.key_control2.duration,block1.key_resp.keys,block1.key_resp.rt,block1.key_resp.duration,break_2.started,text.started,key_control3.started,text.stopped,break_2.stopped,key_control3.keys,key_control3.rt,key_control3.duration,block2.key_control2.keys,block2.key_control2.rt,block2.key_control2.duration,block2.key_resp.keys,block2.key_resp.rt,block2.key_resp.duration,participant,session,date,expName,psychopyVersion,frameRate,expStart,
,,,,,,,,,,,,,,,,,,,,,,,,,,,0.007672999985516071,0.022221500054001808,0.022221500054001808,9.689719900023192,up,9.642601099913009,None,,,,,,,,,,,,,,,,,,,,,,,,,,,,,,,,,,,,,,,,,,,,,,,,,,P131,001,2025-02-28_14h12.29.087,posner_endo_new1,2024.2.4,60.03770365746171,2025-02-28 14h12.37.405724 +0000,
,,,,,,,,,,,,,,,,,,,,,,,,,,,,,,,,,,9.689872200018726,9.711671400000341,12.71992359997239,12.678057500044815,,,,,,,,,,,,,,,,,,,,,,,,,,,,,,,,,,,,,,,,,,,,,,P131,001,2025-02-28_14h12.29.087,posner_endo_new1,2024.2.4,60.03770365746171,2025-02-28 14h12.37.405724 +0000,
cube_l.png,0.1,-0.31,valid,0,0,0,down,11.240562599967234,None,space,0.5177234000293538,None,0,0,0,0,,,,,,,,,12.71992359997239,,,,,,,,,,,,,12.705601699999534,12.71992359997239,12.71992359997239,12.71992359997239,23.966048500034958,down,11.240562599967234,None,23.976547900005244,23.986656600027345,23.986656600027345,24.031900500063784,24.03212029999122,24.04845560004469,24.04845560004469,24.04845560004469,24.131649799994193,24.581928299972787,space,0.5177234000293538,None,,,,,,,,,,,,,,,,,,,,,,,,,P131,001,2025-02-28_14h12.29.087,posner_endo_new1,2024.2.4,60.03770365746171,2025-02-28 14h12.37.405724 +0000,
cube_l.png,0.1,0.31,invalid,1,1,0,down,6.939085199963301,None,space,0.37292930006515235,None,0,1,1,1,,,,,,,,,24.597862599999644,,,,,,,,,,,,,24.582092600059696,24.597862599999644,24.597862599999644,24.597862599999644,31.541572300018743,down,6.939085199963301,None,31.548789500026032,31.560245000058785,31.560245000058785,31.60739120002836,31.60790220007766,31.623793000006117,31.623793000006117,31.623793000006117,31.707433599978685,32.008151500020176,space,0.37292930006515235,None,,,,,,,,,,,,,,,,,,,,,,,,,P131,001,2025-02-28_14h12.29.087,posner_endo_new1,2024.2.4,60.03770365746171,2025-02-28 14h12.37.405724 +0000,
cube_r.png,0.1,-0.31,invalid,2,2,0,down,5.569309299928136,None,space,0.4104722999036312,None,0,2,2,2,,,,,,,,,32.02365720004309,,,,,,,,,,,,,32.00843210006133,32.02365720004309,32.02365720004309,32.02365720004309,37.60234179999679,down,5.569309299928136,None,37.61301209998783,37.62271270004567,37.62271270004567,37.667970600072294,37.66821140004322,37.68449130002409,37.68449130002409,37.68449130002409,37.76773159997538,38.10139720002189,space,0.4104722999036312,None,,,,,,,,,,,,,,,,,,,,,,,,,P131,001,2025-02-28_14h12.29.087,posner_endo_new1,2024.2.4,60.03770365746171,2025-02-28 14h12.37.405724 +0000,
cube_r.png,0.1,10,catch,3,3,0,down,6.443361899931915,None,None,,,0,3,3,3,,,,,,,,,38.11739290005062,,,,,,,,,,,,,38.10158080002293,38.11739290005062,38.11739290005062,38.11739290005062,44.56164740002714,down,6.443361899931915,None,44.56878319999669,44.58028120000381,44.58028120000381,44.6275204999838,44.62807149998844,44.64395459997468,44.64395459997468,44.64395459997468,44.72718430007808,47.64201139996294,None,,,46.741806800011545,47.65751529997215,47.65751529997215,47.65751529997215,,,,,,,,,,,,,,,,,,,,,P131,001,2025-02-28_14h12.29.087,posner_endo_new1,2024.2.4,60.03770365746171,2025-02-28 14h12.37.405724 +0000,
cube_l.png,0.1,-0.31,valid,4,4,0,down,0.9115423000184819,None,space,0.3773235999979079,None,0,4,4,4,,,,,,,,,47.65751529997215,,,,,,,,,,,,,47.64243550004903,47.65751529997215,47.65751529997215,47.65751529997215,48.575352899963036,down,0.9115423000184819,None,48.59426539996639,48.605621200054884,48.605621200054884,48.64013309997972,48.64067800005432,48.656562600051984,48.656562600051984,48.656562600051984,48.73978319996968,49.041552699985914,space,0.3773235999979079,None,,,,,,,,,,,,,,,,,,,,,,,,,P131,001,2025-02-28_14h12.29.087,posner_endo_new1,2024.2.4,60.03770365746171,2025-02-28 14h12.37.405724 +0000,
cube_l.png,0.1,0.31,invalid,5,5,0,down,4.352783199981786,None,space,0.40292759996373206,None,0,5,5,5,,,,,,,,,49.05608630005736,,,,,,,,,,,,,49.04200650006533,49.05608630005736,49.05608630005736,49.05608630005736,53.41964820004068,down,4.352783199981786,None,53.43128720007371,53.44155770004727,53.44155770004727,53.48520330002066,53.48554690007586,53.50170959997922,53.50170959997922,53.50170959997922,53.58500009996351,53.91914740006905,space,0.40292759996373206,None,,,,,,,,,,,,,,,,,,,,,,,,,P131,001,2025-02-28_14h12.29.087,posner_endo_new1,2024.2.4,60.03770365746171,2025-02-28 14h12.37.405724 +0000,
cube_r.png,0.1,-0.31,invalid,6,6,0,down,6.4260720000602305,None,space,0.38383649999741465,None,0,6,6,6,,,,,,,,,53.934595400001854,,,,,,,,,,,,,53.91943080001511,53.934595400001854,53.934595400001854,53.934595400001854,60.362771400017664,down,6.4260720000602305,None,60.3744823000161,60.38463139999658,60.38463139999658,60.42811640002765,60.428462699986994,60.44464430003427,60.44464430003427,60.44464430003427,60.5278268000111,60.84539610007778,space,0.38383649999741465,None,,,,,,,,,,,,,,,,,,,,,,,,,P131,001,2025-02-28_14h12.29.087,posner_endo_new1,2024.2.4,60.03770365746171,2025-02-28 14h12.37.405724 +0000,
cube_r.png,0.1,0.31,valid,7,7,0,down,6.14008600008674,None,space,0.43064219993539155,None,0,7,7,7,,,,,,,,,60.86086949997116,,,,,,,,,,,,,60.84567389998119,60.86086949997116,60.86086949997116,60.86086949997116,67.00522920000367,down,6.14008600008674,None,67.01216090004891,67.02355829998851,67.02355829998851,67.07110279996414,67.07131550007034,67.08719350001775,67.08719350001775,67.08719350001775,67.15376010001637,67.52128870005254,space,0.43064219993539155,None,,,,,,,,,,,,,,,,,,,,,,,,,P131,001,2025-02-28_14h12.29.087,posner_endo_new1,2024.2.4,60.03770365746171,2025-02-28 14h12.37.405724 +0000,
cube_l.png,0.1,-0.31,valid,8,8,0,down,5.520438399980776,None,space,0.30482339998707175,None,0,8,8,8,,,,,,,,,67.53689330001362,,,,,,,,,,,,,67.52145440003369,67.53689330001362,67.53689330001362,67.53689330001362,73.06549169996288,down,5.520438399980776,None,73.07150890002958,73.08315890002996,73.08315890002996,73.13181579997763,73.13204130006488,73.14826320006978,73.14826320006978,73.14826320006978,73.21485300001223,73.46537560003344,space,0.30482339998707175,None,,,,,,,,,,,,,,,,,,,,,,,,,P131,001,2025-02-28_14h12.29.087,posner_endo_new1,2024.2.4,60.03770365746171,2025-02-28 14h12.37.405724 +0000,
cube_r.png,0.1,-0.31,invalid,9,9,0,down,4.608241600100882,None,space,0.4165633999509737,None,0,9,9,9,,,,,,,,,73.48129520006478,,,,,,,,,,,,,73.46553929999936,73.48129520006478,73.48129520006478,73.48129520006478,78.09401620004792,down,4.608241600100882,None,78.10007410007529,78.1116804999765,78.1116804999765,78.15993590001017,78.16016029997263,78.17646099999547,78.17646099999547,78.17646099999547,78.24316710000858,78.60997310001403,space,0.4165633999509737,None,,,,,,,,,,,,,,,,,,,,,,,,,P131,001,2025-02-28_14h12.29.087,posner_endo_new1,2024.2.4,60.03770365746171,2025-02-28 14h12.37.405724 +0000,
cube_r.png,0.1,0.31,valid,10,10,0,down,5.351207499974407,None,space,0.30510270001832396,None,0,10,10,10,,,,,,,,,78.62590470002033,,,,,,,,,,,,,78.61013809998985,78.62590470002033,78.62590470002033,78.62590470002033,83.98787439998705,down,5.351207499974407,None,83.9939228000585,84.00543600006495,84.00543600006495,84.05389680003282,84.05412019998766,84.07044080004562,84.07044080004562,84.07044080004562,84.13710210006684,84.38734839996323,space,0.30510270001832396,None,,,,,,,,,,,,,,,,,,,,,,,,,P131,001,2025-02-28_14h12.29.087,posner_endo_new1,2024.2.4,60.03770365746171,2025-02-28 14h12.37.405724 +0000,
,,,,,,,,,,,,,,,,,,,,,,,,,,,,,,,,,,84.38745759997983,84.40331389999483,87.40398349997122,87.38010489998851,,,,,,,,,,,,,,,,,,,,,,,,,,,,,,,,,,,,,,,,,,,,,,P131,001,2025-02-28_14h12.29.087,posner_endo_new1,2024.2.4,60.03770365746171,2025-02-28 14h12.37.405724 +0000,
cube_l.png,0.1,10,catch,0,0,0,down,6.540618799976073,None,None,,,,,,,0,0,0,0,,,,,87.40398349997122,,,,,,,,,,,,,87.39186780003365,87.40398349997122,87.40398349997122,87.40398349997122,93.96116780000739,,,,93.96725129999686,93.97889909998048,93.97889909998048,94.02713090006728,94.02735820005182,94.04357560002245,94.04357560002245,94.04357560002245,94.12695170007646,97.04105890006758,,,,96.14155080006458,97.05725589999929,97.05725589999929,97.05725589999929,down,6.540618799976073,None,None,,,,,,,,,,,,,,,,,P131,001,2025-02-28_14h12.29.087,posner_endo_new1,2024.2.4,60.03770365746171,2025-02-28 14h12.37.405724 +0000,
cube_l.png,0.1,10,catch,1,1,0,down,0.9037043999414891,None,None,,,,,,,0,1,1,1,,,,,97.05725589999929,,,,,,,,,,,,,97.04121940000914,97.05725589999929,97.05725589999929,97.05725589999929,97.97373890003655,,,,97.97968180000316,97.99127560004126,97.99127560004126,98.0395201999927,98.03974490007386,98.05616350006312,98.05616350006312,98.05616350006312,98.12266480003018,101.0536702000536,,,,100.13732119998895,101.06962369999383,101.06962369999383,101.06962369999383,down,0.9037043999414891,None,None,,,,,,,,,,,,,,,,,P131,001,2025-02-28_14h12.29.087,posner_endo_new1,2024.2.4,60.03770365746171,2025-02-28 14h12.37.405724 +0000,
cube_l.png,0.1,0.31,invalid,2,2,0,down,1.3154838000191376,None,space,0.4398815000895411,None,,,,,0,2,2,2,,,,,101.06962369999383,,,,,,,,,,,,,101.05383009999059,101.06962369999383,101.06962369999383,101.06962369999383,102.38594479998574,,,,102.39201599999797,102.40383419999853,102.40383419999853,102.45178720005788,102.45200920000207,102.46828520006966,102.46828520006966,102.46828520006966,102.55152840004303,102.91841050004587,,,,,,,,down,1.3154838000191376,None,space,0.4398815000895411,None,,,,,,,,,,,,,,,P131,001,2025-02-28_14h12.29.087,posner_endo_new1,2024.2.4,60.03770365746171,2025-02-28 14h12.37.405724 +0000,
cube_l.png,0.1,0.31,invalid,3,3,0,down,5.12283969996497,None,space,0.3779474999755621,None,,,,,0,3,3,3,,,,,102.9345355000114,,,,,,,,,,,,,102.91858509997837,102.9345355000114,102.9345355000114,102.9345355000114,108.06352580001112,,,,108.06963140005246,108.08142239996232,108.08142239996232,108.12938499997836,108.12961329997052,108.14585710002575,108.14585710002575,108.14585710002575,108.21243910002522,108.52957850007806,,,,,,,,down,5.12283969996497,None,space,0.3779474999755621,None,,,,,,,,,,,,,,,P131,001,2025-02-28_14h12.29.087,posner_endo_new1,2024.2.4,60.03770365746171,2025-02-28 14h12.37.405724 +0000,
cube_l.png,0.1,-0.31,valid,4,4,0,down,12.079217999940738,None,space,0.45777199999429286,None,,,,,0,4,4,4,,,,,108.54534710000735,,,,,,,,,,,,,108.52975840005092,108.54534710000735,108.54534710000735,108.54534710000735,120.63364630006254,,,,120.64007309998851,120.65179230005015,120.65179230005015,120.69952370005194,120.69996730005369,120.71595690003596,120.71595690003596,120.71595690003596,120.79923120001331,121.1836662000278,,,,,,,,down,12.079217999940738,None,space,0.45777199999429286,None,,,,,,,,,,,,,,,P131,001,2025-02-28_14h12.29.087,posner_endo_new1,2024.2.4,60.03770365746171,2025-02-28 14h12.37.405724 +0000,
cube_r.png,0.1,-0.31,invalid,5,5,0,down,11.514104699948803,None,space,0.4085039000492543,None,,,,,0,5,5,5,,,,,121.19930119998753,,,,,,,,,,,,,121.18392560002394,121.19930119998753,121.19930119998753,121.19930119998753,132.72195160004776,,,,132.73186180007178,132.7420558000449,132.7420558000449,132.78751230007038,132.787821099977,132.80401550000533,132.80401550000533,132.80401550000533,132.88722889998462,133.22135170002002,,,,,,,,down,11.514104699948803,None,space,0.4085039000492543,None,,,,,,,,,,,,,,,P131,001,2025-02-28_14h12.29.087,posner_endo_new1,2024.2.4,60.03770365746171,2025-02-28 14h12.37.405724 +0000,
cube_r.png,0.1,0.31,valid,6,6,0,down,11.40392700000666,None,space,0.39447330008260906,None,,,,,0,6,6,6,,,,,133.23688660003245,,,,,,,,,,,,,133.22161060001235,133.23688660003245,133.23688660003245,133.23688660003245,144.6430825999705,,,,144.65292710007634,144.6631037000334,144.6631037000334,144.70857670006808,144.70888559997547,144.7251513999654,144.7251513999654,144.7251513999654,144.80839620006736,145.12595120002516,,,,,,,,down,11.40392700000666,None,space,0.39447330008260906,None,,,,,,,,,,,,,,,P131,001,2025-02-28_14h12.29.087,posner_endo_new1,2024.2.4,60.03770365746171,2025-02-28 14h12.37.405724 +0000,
cube_r.png,0.1,-0.31,invalid,7,7,0,down,4.595901499968022,None,space,0.42770409991499037,None,,,,,0,7,7,7,,,,,145.14139950007666,,,,,,,,,,,,,145.12620529998094,145.14139950007666,145.14139950007666,145.14139950007666,149.75427819998004,,,,149.76399540004786,149.77393240004312,149.77393240004312,149.82005179999396,149.82036290003452,149.83661860006396,149.83661860006396,149.83661860006396,149.91989010001998,150.27041730005294,,,,,,,,down,4.595901499968022,None,space,0.42770409991499037,None,,,,,,,,,,,,,,,P131,001,2025-02-28_14h12.29.087,posner_endo_new1,2024.2.4,60.03770365746171,2025-02-28 14h12.37.405724 +0000,
cube_l.png,0.1,-0.31,valid,8,8,0,down,7.058678000001237,None,space,0.522683099959977,None,,,,,0,8,8,8,,,,,150.28611940005794,,,,,,,,,,,,,150.27067060000263,150.28611940005794,150.28611940005794,150.28611940005794,157.34683619998395,,,,157.3569068000652,157.36706299998332,157.36706299998332,157.4124089999823,157.41271940001752,157.42883980006445,157.42883980006445,157.42883980006445,157.51214120001532,157.96266590000596,,,,,,,,down,7.058678000001237,None,space,0.522683099959977,None,,,,,,,,,,,,,,,P131,001,2025-02-28_14h12.29.087,posner_endo_new1,2024.2.4,60.03770365746171,2025-02-28 14h12.37.405724 +0000,
cube_r.png,0.1,-0.31,invalid,9,9,0,down,7.3910029999678954,None,space,0.4065559000009671,None,,,,,0,9,9,9,,,,,157.978264400037,,,,,,,,,,,,,157.96291920007206,157.978264400037,157.978264400037,157.978264400037,165.3717952000443,,,,165.38136840006337,165.39106910000555,165.39106910000555,165.43742870003916,165.43765430001076,165.45394430006854,165.45394430006854,165.45394430006854,165.5370975000551,165.8709044000134,,,,,,,,down,7.3910029999678954,None,space,0.4065559000009671,None,,,,,,,,,,,,,,,P131,001,2025-02-28_14h12.29.087,posner_endo_new1,2024.2.4,60.03770365746171,2025-02-28 14h12.37.405724 +0000,
cube_l.png,0.1,0.31,invalid,10,10,0,down,7.810583300073631,None,space,0.437987899989821,None,,,,,0,10,10,10,,,,,165.88687479996588,,,,,,,,,,,,,165.8710767000448,165.88687479996588,165.88687479996588,165.88687479996588,173.71285410004202,,,,173.71886240004096,173.7298398000421,173.7298398000421,173.77879740006756,173.7793127000332,173.79525009996723,173.79525009996723,173.79525009996723,173.87850830005482,174.24662810005248,,,,,,,,down,7.810583300073631,None,space,0.437987899989821,None,,,,,,,,,,,,,,,P131,001,2025-02-28_14h12.29.087,posner_endo_new1,2024.2.4,60.03770365746171,2025-02-28 14h12.37.405724 +0000,
cube_r.png,0.1,-0.31,invalid,11,11,0,down,5.947345099993981,None,space,0.38365249999333173,None,,,,,0,11,11,11,,,,,174.26142110000364,,,,,,,,,,,,,174.2470639999956,174.26142110000364,174.26142110000364,174.26142110000364,180.22339329996612,,,,180.23275960003957,180.24250330007635,180.24250330007635,180.28899410006125,180.28922759997658,180.30556790006813,180.30556790006813,180.30556790006813,180.38865940005053,180.7057004000526,,,,,,,,down,5.947345099993981,None,space,0.38365249999333173,None,,,,,,,,,,,,,,,P131,001,2025-02-28_14h12.29.087,posner_endo_new1,2024.2.4,60.03770365746171,2025-02-28 14h12.37.405724 +0000,
cube_r.png,0.1,0.31,valid,12,12,0,down,7.831501299981028,None,space,0.5172509000403807,None,,,,,0,12,12,12,,,,,180.721605299972,,,,,,,,,,,,,180.70588260004297,180.721605299972,180.721605299972,180.721605299972,188.56436029996257,,,,188.5712972000474,188.5829575000098,188.5829575000098,188.63043080002535,188.63066400005482,188.64685680007096,188.64685680007096,188.64685680007096,188.71358129999135,189.18053110002074,,,,,,,,down,7.831501299981028,None,space,0.5172509000403807,None,,,,,,,,,,,,,,,P131,001,2025-02-28_14h12.29.087,posner_endo_new1,2024.2.4,60.03770365746171,2025-02-28 14h12.37.405724 +0000,
cube_l.png,0.1,10,catch,13,13,0,down,5.652374200057238,None,None,,,,,,,0,13,13,13,,,,,189.19634410005528,,,,,,,,,,,,,189.18071290000807,189.19634410005528,189.19634410005528,189.19634410005528,194.8578832000494,,,,194.8648059000261,194.8764711000258,194.8764711000258,194.92408580007032,194.92430870002136,194.94051220000256,194.94051220000256,194.94051220000256,195.0071195999626,197.9380265000509,,,,197.02181649999693,197.95422569999937,197.95422569999937,197.95422569999937,down,5.652374200057238,None,None,,,,,,,,,,,,,,,,,P131,001,2025-02-28_14h12.29.087,posner_endo_new1,2024.2.4,60.03770365746171,2025-02-28 14h12.37.405724 +0000,
cube_r.png,0.1,-0.31,invalid,14,14,0,down,3.7985221999697387,None,space,0.4322193000698462,None,,,,,0,14,14,14,,,,,197.95422569999937,,,,,,,,,,,,,197.93819490005262,197.95422569999937,197.95422569999937,197.95422569999937,201.76829679997172,,,,201.7800516000716,201.79028379998636,201.79028379998636,201.8336328000296,201.83397749997675,201.8501809000736,201.8501809000736,201.8501809000736,201.93331009999383,202.28445659996942,,,,,,,,down,3.7985221999697387,None,space,0.4322193000698462,None,,,,,,,,,,,,,,,P131,001,2025-02-28_14h12.29.087,posner_endo_new1,2024.2.4,60.03770365746171,2025-02-28 14h12.37.405724 +0000,
cube_l.png,0.1,-0.31,valid,15,15,0,down,5.877044799970463,None,space,0.4541112999431789,None,,,,,0,15,15,15,,,,,202.29969530005474,,,,,,,,,,,,,202.28475440002512,202.29969530005474,202.29969530005474,202.29969530005474,208.17784190003294,,,,208.18439179996494,208.1959888000274,208.1959888000274,208.24367190001067,208.2438960999716,208.26050500001293,208.26050500001293,208.26050500001293,208.34351749997586,208.72717990004458,,,,,,,,down,5.877044799970463,None,space,0.4541112999431789,None,,,,,,,,,,,,,,,P131,001,2025-02-28_14h12.29.087,posner_endo_new1,2024.2.4,60.03770365746171,2025-02-28 14h12.37.405724 +0000,
cube_r.png,0.1,10,catch,16,16,0,down,7.754029000061564,None,None,,,,,,,0,16,16,16,,,,,208.7430883999914,,,,,,,,,,,,,208.72735309996642,208.7430883999914,208.7430883999914,208.7430883999914,216.50255670002662,,,,216.50862330000382,216.52031409996562,216.52031409996562,216.56848340004217,216.56870740000159,216.58512489998247,216.58512489998247,216.58512489998247,216.65168899996206,219.58251390000805,,,,218.66614610003307,219.59864420001395,219.59864420001395,219.59864420001395,down,7.754029000061564,None,None,,,,,,,,,,,,,,,,,P131,001,2025-02-28_14h12.29.087,posner_endo_new1,2024.2.4,60.03770365746171,2025-02-28 14h12.37.405724 +0000,
cube_r.png,0.1,10,catch,17,17,0,down,2.299159299931489,None,None,,,,,,,0,17,17,17,,,,,219.59864420001395,,,,,,,,,,,,,219.58267460006755,219.59864420001395,219.59864420001395,219.59864420001395,221.91363850003108,,,,221.9197145999642,221.93153080006596,221.93153080006596,221.9795769000193,221.98008030001074,221.9959696000442,221.9959696000442,221.9959696000442,222.07926230004523,224.9936765000457,,,,224.0941310999915,225.0097834999906,225.0097834999906,225.0097834999906,down,2.299159299931489,None,None,,,,,,,,,,,,,,,,,P131,001,2025-02-28_14h12.29.087,posner_endo_new1,2024.2.4,60.03770365746171,2025-02-28 14h12.37.405724 +0000,
cube_l.png,0.1,0.31,invalid,18,18,0,down,7.736086499993689,None,space,0.44939319998957217,None,,,,,0,18,18,18,,,,,225.0097834999906,,,,,,,,,,,,,224.99385400000028,225.0097834999906,225.0097834999906,225.0097834999906,232.75270640000235,,,,232.75968220003415,232.7715573000023,232.7715573000023,232.81858750001993,232.81882779998705,232.83504020003602,232.83504020003602,232.83504020003602,232.91836160002276,233.28545800002757,,,,,,,,down,7.736086499993689,None,space,0.44939319998957217,None,,,,,,,,,,,,,,,P131,001,2025-02-28_14h12.29.087,posner_endo_new1,2024.2.4,60.03770365746171,2025-02-28 14h12.37.405724 +0000,
cube_l.png,0.1,10,catch,19,19,0,down,4.947549800039269,None,None,,,,,,,0,19,19,19,,,,,233.3012640000088,,,,,,,,,,,,,233.28564929997083,233.3012640000088,233.3012640000088,233.3012640000088,238.26362189999782,,,,238.27061140001751,238.28235520003363,238.28235520003363,238.32969529996626,238.32992260006722,238.34620280005038,238.34620280005038,238.34620280005038,238.4127676000353,241.343515100074,,,,240.42731439997442,241.35980600002222,241.35980600002222,241.35980600002222,down,4.947549800039269,None,None,,,,,,,,,,,,,,,,,P131,001,2025-02-28_14h12.29.087,posner_endo_new1,2024.2.4,60.03770365746171,2025-02-28 14h12.37.405724 +0000,
cube_l.png,0.1,0.31,invalid,20,20,0,down,1.409220299916342,None,space,0.4302455000579357,None,,,,,0,20,20,20,,,,,241.35980600002222,,,,,,,,,,,,,241.34367380000185,241.35980600002222,241.35980600002222,241.35980600002222,242.77564740006346,,,,242.78177280002274,242.79363099997863,242.79363099997863,242.84154070005752,242.8417656000238,242.85819409997202,242.85819409997202,242.85819409997202,242.9248434000183,243.29195930005517,,,,,,,,down,1.409220299916342,None,space,0.4302455000579357,None,,,,,,,,,,,,,,,P131,001,2025-02-28_14h12.29.087,posner_endo_new1,2024.2.4,60.03770365746171,2025-02-28 14h12.37.405724 +0000,
cube_l.png,0.1,-0.31,valid,21,21,0,down,9.32543089997489,None,space,0.430280499975197,None,,,,,0,21,21,21,,,,,243.30768550001085,,,,,,,,,,,,,243.29213169997092,243.30768550001085,243.30768550001085,243.30768550001085,252.6493612000486,,,,252.6604292000411,252.6703414999647,252.6703414999647,252.71500149997883,252.7153304000385,252.7315624000039,252.7315624000039,252.7315624000039,252.81477100006305,253.16562049998902,,,,,,,,down,9.32543089997489,None,space,0.430280499975197,None,,,,,,,,,,,,,,,P131,001,2025-02-28_14h12.29.087,posner_endo_new1,2024.2.4,60.03770365746171,2025-02-28 14h12.37.405724 +0000,
cube_r.png,0.1,0.31,valid,22,22,0,down,6.0763128999387845,None,space,0.3534970000619069,None,,,,,0,22,22,22,,,,,253.18082240002695,,,,,,,,,,,,,253.16591410001274,253.18082240002695,253.18082240002695,253.18082240002695,259.25948290003,,,,259.2705780999968,259.2808194999816,259.2808194999816,259.32488460000604,259.3252232000232,259.3413953999989,259.3413953999989,259.3413953999989,259.42467790003866,259.7087601000676,,,,,,,,down,6.0763128999387845,None,space,0.3534970000619069,None,,,,,,,,,,,,,,,P131,001,2025-02-28_14h12.29.087,posner_endo_new1,2024.2.4,60.03770365746171,2025-02-28 14h12.37.405724 +0000,
cube_r.png,0.1,-0.31,invalid,23,23,0,down,7.821204200037755,None,space,0.4388696000678465,None,,,,,0,23,23,23,,,,,259.7243912999984,,,,,,,,,,,,,259.7090473000426,259.7243912999984,259.7243912999984,259.7243912999984,267.5507248999784,,,,267.5635608000448,267.5735835999949,267.5735835999949,267.61596259998623,267.6163485000143,267.63244570000097,267.63244570000097,267.63244570000097,267.7156518000411,268.08337570005096,,,,,,,,down,7.821204200037755,None,space,0.4388696000678465,None,,,,,,,,,,,,,,,P131,001,2025-02-28_14h12.29.087,posner_endo_new1,2024.2.4,60.03770365746171,2025-02-28 14h12.37.405724 +0000,
cube_r.png,0.1,0.31,valid,24,24,0,down,8.046629399992526,None,space,0.34528749994933605,None,,,,,0,24,24,24,,,,,268.09861960005946,,,,,,,,,,,,,268.08370219997596,268.09861960005946,268.09861960005946,268.09861960005946,276.1584308000747,,,,276.16693140007555,276.1771782999858,276.1771782999858,276.22417279996444,276.224452399998,276.2407162999734,276.2407162999734,276.2407162999734,276.32394080003724,276.5913555000443,,,,,,,,down,8.046629399992526,None,space,0.34528749994933605,None,,,,,,,,,,,,,,,P131,001,2025-02-28_14h12.29.087,posner_endo_new1,2024.2.4,60.03770365746171,2025-02-28 14h12.37.405724 +0000,
cube_r.png,0.1,-0.31,invalid,25,25,0,down,6.36211609991733,None,space,0.35787700000219047,None,,,,,0,25,25,25,,,,,276.60707969998475,,,,,,,,,,,,,276.5915874000639,276.60707969998475,276.60707969998475,276.60707969998475,282.9848681000294,,,,282.9933920999756,283.00348750001285,283.00348750001285,283.0506032999838,283.0508819000097,283.06713290000334,283.06713290000334,283.06713290000334,283.15037519996986,283.4344150000252,,,,,,,,down,6.36211609991733,None,space,0.35787700000219047,None,,,,,,,,,,,,,,,P131,001,2025-02-28_14h12.29.087,posner_endo_new1,2024.2.4,60.03770365746171,2025-02-28 14h12.37.405724 +0000,
cube_l.png,0.1,-0.31,valid,26,26,0,down,8.295175699982792,None,space,0.39088249998167157,None,,,,,0,26,26,26,,,,,283.4500837000087,,,,,,,,,,,,,283.4346399999922,283.4500837000087,283.4500837000087,283.4500837000087,291.75911560002714,,,,291.76764420000836,291.7777926999843,291.7777926999843,291.8249792000279,291.82526980002876,291.84155120002106,291.84155120002106,291.84155120002106,291.92473400000017,292.2421489000553,,,,,,,,down,8.295175699982792,None,space,0.39088249998167157,None,,,,,,,,,,,,,,,P131,001,2025-02-28_14h12.29.087,posner_endo_new1,2024.2.4,60.03770365746171,2025-02-28 14h12.37.405724 +0000,
cube_r.png,0.1,0.31,valid,27,27,0,down,12.623113199952058,None,space,0.43782819993793964,None,,,,,0,27,27,27,,,,,292.25777640007436,,,,,,,,,,,,,292.2423771000467,292.25777640007436,292.25777640007436,292.25777640007436,304.89577249996364,,,,304.90426310000475,304.91415910003707,304.91415910003707,304.9614266999997,304.9619628000073,304.9779042999726,304.9779042999726,304.9779042999726,305.0610936000012,305.429252400063,,,,,,,,down,12.623113199952058,None,space,0.43782819993793964,None,,,,,,,,,,,,,,,P131,001,2025-02-28_14h12.29.087,posner_endo_new1,2024.2.4,60.03770365746171,2025-02-28 14h12.37.405724 +0000,
cube_r.png,0.1,10,catch,28,28,0,down,5.517030899995007,None,None,,,,,,,0,28,28,28,,,,,305.4440831000684,,,,,,,,,,,,,305.42971120006405,305.4440831000684,305.4440831000684,305.4440831000684,310.97308300004806,,,,310.98472409998067,310.9951042999746,310.9951042999746,311.03875040006824,311.0391026000725,311.05533160001505,311.05533160001505,311.05533160001505,311.13851550000254,314.05294039996807,,,,313.1532513999846,314.06885400007013,314.06885400007013,314.06885400007013,down,5.517030899995007,None,None,,,,,,,,,,,,,,,,,P131,001,2025-02-28_14h12.29.087,posner_endo_new1,2024.2.4,60.03770365746171,2025-02-28 14h12.37.405724 +0000,
cube_r.png,0.1,0.31,valid,29,29,0,down,3.0445020999759436,None,space,0.3452055000234395,None,,,,,0,29,29,29,,,,,314.06885400007013,,,,,,,,,,,,,314.05320980004035,314.06885400007013,314.06885400007013,314.06885400007013,317.1169316000305,,,,317.12851179996505,317.1388324999716,317.1388324999716,317.18250980006997,317.1828546000179,317.19889780005906,317.19889780005906,317.19889780005906,317.2824845999712,317.5499281999655,,,,,,,,down,3.0445020999759436,None,space,0.3452055000234395,None,,,,,,,,,,,,,,,P131,001,2025-02-28_14h12.29.087,posner_endo_new1,2024.2.4,60.03770365746171,2025-02-28 14h12.37.405724 +0000,
cube_r.png,0.1,0.31,valid,30,30,0,down,6.435903499950655,None,space,0.34407350001856685,None,,,,,0,30,30,30,,,,,317.56533500005025,,,,,,,,,,,,,317.55022430000827,317.56533500005025,317.56533500005025,317.56533500005025,324.010006000055,,,,324.0215344000608,324.03173350007273,324.03173350007273,324.07544699998107,324.07580930006225,324.0918808999704,324.0918808999704,324.0918808999704,324.1751560000703,324.44273310003337,,,,,,,,down,6.435903499950655,None,space,0.34407350001856685,None,,,,,,,,,,,,,,,P131,001,2025-02-28_14h12.29.087,posner_endo_new1,2024.2.4,60.03770365746171,2025-02-28 14h12.37.405724 +0000,
cube_l.png,0.1,-0.31,valid,31,31,0,down,9.807548600016162,None,space,0.46462460001930594,None,,,,,0,31,31,31,,,,,324.4581766000483,,,,,,,,,,,,,324.44304210005794,324.4581766000483,324.4581766000483,324.4581766000483,334.282564299996,,,,334.2943103000289,334.3042713999748,334.3042713999748,334.348340400029,334.34869030001573,334.36481459997594,334.36481459997594,334.36481459997594,334.44814670004416,334.8322281000437,,,,,,,,down,9.807548600016162,None,space,0.46462460001930594,None,,,,,,,,,,,,,,,P131,001,2025-02-28_14h12.29.087,posner_endo_new1,2024.2.4,60.03770365746171,2025-02-28 14h12.37.405724 +0000,
cube_r.png,0.1,0.31,valid,32,32,0,down,5.161526200012304,None,space,0.38581150001846254,None,,,,,0,32,32,32,,,,,334.8476837000344,,,,,,,,,,,,,334.83252250007354,334.8476837000344,334.8476837000344,334.8476837000344,340.0104660000652,,,,340.0219128000317,340.03218860004563,340.03218860004563,340.07573969999794,340.0760839000577,340.09227670007385,340.09227670007385,340.09227670007385,340.1754995000083,340.4930069000693,,,,,,,,down,5.161526200012304,None,space,0.38581150001846254,None,,,,,,,,,,,,,,,P131,001,2025-02-28_14h12.29.087,posner_endo_new1,2024.2.4,60.03770365746171,2025-02-28 14h12.37.405724 +0000,
cube_r.png,0.1,-0.31,invalid,33,33,0,down,14.485123499995098,None,space,0.41668389993719757,None,,,,,0,33,33,33,,,,,340.5085664000362,,,,,,,,,,,,,340.49329939996824,340.5085664000362,340.5085664000362,340.5085664000362,354.99502510007005,,,,355.00658759998623,355.01689750002697,355.01689750002697,355.06050170003437,355.0608542000409,355.0767511000158,355.0767511000158,355.0767511000158,355.1602905000327,355.49461110006087,,,,,,,,down,14.485123499995098,None,space,0.41668389993719757,None,,,,,,,,,,,,,,,P131,001,2025-02-28_14h12.29.087,posner_endo_new1,2024.2.4,60.03770365746171,2025-02-28 14h12.37.405724 +0000,
cube_r.png,0.1,10,catch,34,34,0,down,17.548094299971126,None,None,,,,,,,0,34,34,34,,,,,355.50996569998097,,,,,,,,,,,,,355.49490920000244,355.50996569998097,355.50996569998097,355.50996569998097,373.06009759998415,,,,373.0715904000681,373.08183519996237,373.08183519996237,373.12538900005165,373.12573780003004,373.141722499975,373.141722499975,373.141722499975,373.2252212000312,376.1393440000247,,,,375.2397027000552,376.15539139998145,376.15539139998145,376.15539139998145,down,17.548094299971126,None,None,,,,,,,,,,,,,,,,,P131,001,2025-02-28_14h12.29.087,posner_endo_new1,2024.2.4,60.03770365746171,2025-02-28 14h12.37.405724 +0000,
cube_r.png,0.1,0.31,valid,35,35,0,down,6.414028599974699,None,space,0.4886895000236109,None,,,,,0,35,35,35,,,,,376.15539139998145,,,,,,,,,,,,,376.1396178000141,376.15539139998145,376.15539139998145,376.15539139998145,382.5832538000541,,,,382.5948713000398,382.60530789999757,382.60530789999757,382.64878789999057,382.6490367000224,382.66549190005753,382.66549190005753,382.66549190005753,382.7485593999736,383.16611800005194,,,,,,,,down,6.414028599974699,None,space,0.4886895000236109,None,,,,,,,,,,,,,,,P131,001,2025-02-28_14h12.29.087,posner_endo_new1,2024.2.4,60.03770365746171,2025-02-28 14h12.37.405724 +0000,
cube_r.png,0.1,-0.31,invalid,36,36,0,down,5.484208000008948,None,space,0.4123252999270335,None,,,,,0,36,36,36,,,,,383.18156679999083,,,,,,,,,,,,,383.1664119999623,383.18156679999083,383.18156679999083,383.18156679999083,388.6774025000632,,,,388.688980899984,388.6993577000685,388.6993577000685,388.7427367999917,388.7430822000606,388.7591768000275,388.7591768000275,388.7591768000275,388.8423741000006,389.1766340000322,,,,,,,,down,5.484208000008948,None,space,0.4123252999270335,None,,,,,,,,,,,,,,,P131,001,2025-02-28_14h12.29.087,posner_endo_new1,2024.2.4,60.03770365746171,2025-02-28 14h12.37.405724 +0000,
cube_l.png,0.1,0.31,invalid,37,37,0,down,2.657898999983445,None,space,0.42649290000554174,None,,,,,0,37,37,37,,,,,389.1922064999817,,,,,,,,,,,,,389.1769350999966,389.1922064999817,389.1922064999817,389.1922064999817,391.85710020002443,,,,391.8687220000429,391.8790749000618,391.8790749000618,391.9228571000276,391.9232064000098,391.9392729999963,391.9392729999963,391.9392729999963,392.0225306999637,392.3734456000384,,,,,,,,down,2.657898999983445,None,space,0.42649290000554174,None,,,,,,,,,,,,,,,P131,001,2025-02-28_14h12.29.087,posner_endo_new1,2024.2.4,60.03770365746171,2025-02-28 14h12.37.405724 +0000,
cube_l.png,0.1,0.31,invalid,38,38,0,down,5.380288599990308,None,space,0.3821758000412956,None,,,,,0,38,38,38,,,,,392.388934000046,,,,,,,,,,,,,392.3737458999967,392.388934000046,392.388934000046,392.388934000046,397.78442210005596,,,,397.79381000006106,397.80356430006213,397.80356430006213,397.8498915999662,397.85013729997445,397.8663679000456,397.8663679000456,397.8663679000456,397.9497199000325,398.2503807999892,,,,,,,,down,5.380288599990308,None,space,0.3821758000412956,None,,,,,,,,,,,,,,,P131,001,2025-02-28_14h12.29.087,posner_endo_new1,2024.2.4,60.03770365746171,2025-02-28 14h12.37.405724 +0000,
cube_r.png,0.1,0.31,valid,39,39,0,down,11.126874399953522,None,space,0.6077815999742597,None,,,,,0,39,39,39,,,,,398.2661115999799,,,,,,,,,,,,,398.25056990003213,398.2661115999799,398.2661115999799,398.2661115999799,409.4055807000259,,,,409.41253510001116,409.4241649999749,409.4241649999749,409.47138420003466,409.4716075999895,409.4881063000066,409.4881063000066,409.4881063000066,409.5712638000259,410.10480970004573,,,,,,,,down,11.126874399953522,None,space,0.6077815999742597,None,,,,,,,,,,,,,,,P131,001,2025-02-28_14h12.29.087,posner_endo_new1,2024.2.4,60.03770365746171,2025-02-28 14h12.37.405724 +0000,
cube_l.png,0.1,0.31,invalid,40,40,0,down,9.41725860000588,None,space,0.43103690003044903,None,,,,,0,40,40,40,,,,,410.12064159999136,,,,,,,,,,,,,410.1049888000125,410.12064159999136,410.12064159999136,410.12064159999136,419.54559240001254,,,,419.5571313999826,419.56743150006514,419.56743150006514,419.6112428000197,419.61159089999273,419.6275959999766,419.6275959999766,419.6275959999766,419.7109437000472,420.0616310000187,,,,,,,,down,9.41725860000588,None,space,0.43103690003044903,None,,,,,,,,,,,,,,,P131,001,2025-02-28_14h12.29.087,posner_endo_new1,2024.2.4,60.03770365746171,2025-02-28 14h12.37.405724 +0000,
cube_l.png,0.1,10,catch,41,41,0,down,2.708115699933842,None,None,,,,,,,0,41,41,41,,,,,420.07723150006495,,,,,,,,,,,,,420.0619192000013,420.07723150006495,420.07723150006495,420.07723150006495,422.7923416000558,,,,422.8037294000387,422.81397819996346,422.81397819996346,422.8578169000102,422.85816299996804,422.8744660000084,422.8744660000084,422.8744660000084,422.9576556000393,425.87201240006834,,,,424.97219270002097,425.8878879999975,425.8878879999975,425.8878879999975,down,2.708115699933842,None,None,,,,,,,,,,,,,,,,,P131,001,2025-02-28_14h12.29.087,posner_endo_new1,2024.2.4,60.03770365746171,2025-02-28 14h12.37.405724 +0000,
cube_l.png,0.1,-0.31,valid,42,42,0,down,1.2819220999954268,None,space,0.5155187000054866,None,,,,,0,42,42,42,,,,,425.8878879999975,,,,,,,,,,,,,425.8722876000684,425.8878879999975,425.8878879999975,425.8878879999975,427.1712851000484,,,,427.1829485000344,427.19338279997464,427.19338279997464,427.23663669999223,427.236889300053,427.2529761000769,427.2529761000769,427.2529761000769,427.33632600004785,427.770184300025,,,,,,,,down,1.2819220999954268,None,space,0.5155187000054866,None,,,,,,,,,,,,,,,P131,001,2025-02-28_14h12.29.087,posner_endo_new1,2024.2.4,60.03770365746171,2025-02-28 14h12.37.405724 +0000,
cube_l.png,0.1,10,catch,43,43,0,down,3.78395690000616,None,None,,,,,,,0,43,43,43,,,,,427.7858833000064,,,,,,,,,,,,,427.7703835000284,427.7858833000064,427.7858833000064,427.7858833000064,431.5827272000024,,,,431.59022680006456,431.60167730005924,431.60167730005924,431.64870470005553,431.64895429997705,431.6653881999664,431.6653881999664,431.6653881999664,431.7317177000223,434.6625605999725,,,,433.7464662999846,434.6787345999619,434.6787345999619,434.6787345999619,down,3.78395690000616,None,None,,,,,,,,,,,,,,,,,P131,001,2025-02-28_14h12.29.087,posner_endo_new1,2024.2.4,60.03770365746171,2025-02-28 14h12.37.405724 +0000,
cube_l.png,0.1,0.31,invalid,44,44,0,down,0.7226766999810934,None,space,0.5036834999918938,None,,,,,0,44,44,44,,,,,434.6787345999619,,,,,,,,,,,,,434.66274860000703,434.6787345999619,434.6787345999619,434.6787345999619,435.41219669999555,,,,435.41960200003814,435.4311416000128,435.4311416000128,435.47812900005374,435.47837709996384,435.49464759998955,435.49464759998955,435.49464759998955,435.56123550003394,436.01166069996543,,,,,,,,down,0.7226766999810934,None,space,0.5036834999918938,None,,,,,,,,,,,,,,,P131,001,2025-02-28_14h12.29.087,posner_endo_new1,2024.2.4,60.03770365746171,2025-02-28 14h12.37.405724 +0000,
cube_l.png,0.1,0.31,invalid,45,45,0,down,4.949902100022882,None,space,0.39811910002026707,None,,,,,0,45,45,45,,,,,436.0273596000625,,,,,,,,,,,,,436.01185959996656,436.0273596000625,436.0273596000625,436.0273596000625,440.9897680999711,,,,440.9971276000142,441.0089194000466,441.0089194000466,441.05574189999606,441.0562381000491,441.07221580005717,441.07221580005717,441.07221580005717,441.1554698999971,441.4738616000395,,,,,,,,down,4.949902100022882,None,space,0.39811910002026707,None,,,,,,,,,,,,,,,P131,001,2025-02-28_14h12.29.087,posner_endo_new1,2024.2.4,60.03770365746171,2025-02-28 14h12.37.405724 +0000,
cube_r.png,0.1,0.31,valid,46,46,0,down,4.881676500081085,None,space,0.41634829994291067,None,,,,,0,46,46,46,,,,,441.48843819997273,,,,,,,,,,,,,441.4743188000284,441.48843819997273,441.48843819997273,441.48843819997273,446.3842720000539,,,,446.39050019998103,446.40300539997406,446.40300539997406,446.4502417000476,446.4507381999865,446.46666969999205,446.46666969999205,446.46666969999205,446.5332913000602,446.88459839997813,,,,,,,,down,4.881676500081085,None,space,0.41634829994291067,None,,,,,,,,,,,,,,,P131,001,2025-02-28_14h12.29.087,posner_endo_new1,2024.2.4,60.03770365746171,2025-02-28 14h12.37.405724 +0000,
cube_l.png,0.1,-0.31,valid,47,47,0,down,4.085352499969304,None,space,0.3489434999646619,None,,,,,0,47,47,47,,,,,446.8997210999951,,,,,,,,,,,,,446.8848842000589,446.8997210999951,446.8997210999951,446.8997210999951,450.99672000005376,,,,451.00812100002076,451.01856690004934,451.01856690004934,451.06245640001725,451.06280050007626,451.0789527000161,451.0789527000161,451.0789527000161,451.1622973000631,451.4300914000487,,,,,,,,down,4.085352499969304,None,space,0.3489434999646619,None,,,,,,,,,,,,,,,P131,001,2025-02-28_14h12.29.087,posner_endo_new1,2024.2.4,60.03770365746171,2025-02-28 14h12.37.405724 +0000,
cube_r.png,0.1,-0.31,invalid,48,48,0,down,5.340699800057337,None,space,0.4286050000227988,None,,,,,0,48,48,48,,,,,451.44515499996487,,,,,,,,,,,,,451.43037740001455,451.44515499996487,451.44515499996487,451.44515499996487,456.7909603000153,,,,456.80247530003544,456.81288049998693,456.81288049998693,456.85642830003053,456.8567790000234,456.8729452000698,456.8729452000698,456.8729452000698,456.95624229998793,457.30700809997506,,,,,,,,down,5.340699800057337,None,space,0.4286050000227988,None,,,,,,,,,,,,,,,P131,001,2025-02-28_14h12.29.087,posner_endo_new1,2024.2.4,60.03770365746171,2025-02-28 14h12.37.405724 +0000,
cube_r.png,0.1,10,catch,49,49,0,down,3.5515512001002207,None,None,,,,,,,0,49,49,49,,,,,457.3225260999752,,,,,,,,,,,,,457.307301199995,457.3225260999752,457.3225260999752,457.3225260999752,460.8867986999685,,,,460.8982246000087,460.90859500004444,460.90859500004444,460.9522185999667,460.9525639000349,460.9687828000169,460.9687828000169,460.9687828000169,461.0519750000676,463.9663860000437,,,,463.06667229998857,463.982367199962,463.982367199962,463.982367199962,down,3.5515512001002207,None,None,,,,,,,,,,,,,,,,,P131,001,2025-02-28_14h12.29.087,posner_endo_new1,2024.2.4,60.03770365746171,2025-02-28 14h12.37.405724 +0000,
cube_l.png,0.1,-0.31,valid,50,50,0,down,0.9078454000409693,None,space,0.45447689993306994,None,,,,,0,50,50,50,,,,,463.982367199962,,,,,,,,,,,,,463.966663600062,463.982367199962,463.982367199962,463.982367199962,464.8992743999697,,,,464.9107536000665,464.9211338000605,464.9211338000605,464.9648306000745,464.96518569998443,464.98142880003434,464.98142880003434,464.98142880003434,465.0646301000379,465.4487643999746,,,,,,,,down,0.9078454000409693,None,space,0.45447689993306994,None,,,,,,,,,,,,,,,P131,001,2025-02-28_14h12.29.087,posner_endo_new1,2024.2.4,60.03770365746171,2025-02-28 14h12.37.405724 +0000,
cube_l.png,0.1,-0.31,valid,51,51,0,down,4.417142399935983,None,space,0.32293329993262887,None,,,,,0,51,51,51,,,,,465.46419860003516,,,,,,,,,,,,,465.4490569999907,465.46419860003516,465.46419860003516,465.46419860003516,469.8941549999872,,,,469.9055609999923,469.91586469998583,469.91586469998583,469.95977329998277,469.96012090006843,469.97625990002416,469.97625990002416,469.97625990002416,470.0594810000621,470.31044200004544,,,,,,,,down,4.417142399935983,None,space,0.32293329993262887,None,,,,,,,,,,,,,,,P131,001,2025-02-28_14h12.29.087,posner_endo_new1,2024.2.4,60.03770365746171,2025-02-28 14h12.37.405724 +0000,
cube_r.png,0.1,-0.31,invalid,52,52,0,down,4.956466399948113,None,space,0.41555789997801185,None,,,,,0,52,52,52,,,,,470.32583670003805,,,,,,,,,,,,,470.3107353000669,470.32583670003805,470.32583670003805,470.32583670003805,475.288727200008,,,,475.30015300004743,475.3104493999854,475.3104493999854,475.35408239997923,475.35433460003696,475.3705143000698,475.3705143000698,475.3705143000698,475.45376110007055,475.78776930004824,,,,,,,,down,4.956466399948113,None,space,0.41555789997801185,None,,,,,,,,,,,,,,,P131,001,2025-02-28_14h12.29.087,posner_endo_new1,2024.2.4,60.03770365746171,2025-02-28 14h12.37.405724 +0000,
cube_l.png,0.1,-0.31,valid,53,53,0,down,4.334400699939579,None,space,0.4209783000405878,None,,,,,0,53,53,53,,,,,475.8034997000359,,,,,,,,,,,,,475.78796540002804,475.8034997000359,475.8034997000359,475.8034997000359,480.1499652999919,,,,480.1573314999696,480.1687162000453,480.1687162000453,480.2156808000291,480.21593000006396,480.2322863000445,480.2322863000445,480.2322863000445,480.31555160006974,480.6660355000058,,,,,,,,down,4.334400699939579,None,space,0.4209783000405878,None,,,,,,,,,,,,,,,P131,001,2025-02-28_14h12.29.087,posner_endo_new1,2024.2.4,60.03770365746171,2025-02-28 14h12.37.405724 +0000,
cube_r.png,0.1,10,catch,54,54,0,down,4.735926299938001,None,None,,,,,,,0,54,54,54,,,,,480.68178690003697,,,,,,,,,,,,,480.66623019997496,480.68178690003697,480.68178690003697,480.68178690003697,485.42776039999444,,,,485.43513590004295,485.44663320004474,485.44663320004474,485.49382360000163,485.49407999997493,485.5102995999623,485.5102995999623,485.5102995999623,485.5769341000123,488.5075383000076,,,,487.5916104000062,488.52381929999683,488.52381929999683,488.52381929999683,down,4.735926299938001,None,None,,,,,,,,,,,,,,,,,P131,001,2025-02-28_14h12.29.087,posner_endo_new1,2024.2.4,60.03770365746171,2025-02-28 14h12.37.405724 +0000,
cube_l.png,0.1,0.31,invalid,55,55,0,down,2.478025699965656,None,space,0.44136799999978393,None,,,,,0,55,55,55,,,,,488.52381929999683,,,,,,,,,,,,,488.50772550003603,488.52381929999683,488.52381929999683,488.52381929999683,491.00552860007156,,,,491.01283090002835,491.02434500004165,491.02434500004165,491.0713957999833,491.0716544999741,491.08798080007546,491.08798080007546,491.08798080007546,491.17120219999924,491.53831830003764,,,,,,,,down,2.478025699965656,None,space,0.44136799999978393,None,,,,,,,,,,,,,,,P131,001,2025-02-28_14h12.29.087,posner_endo_new1,2024.2.4,60.03770365746171,2025-02-28 14h12.37.405724 +0000,
cube_l.png,0.1,-0.31,valid,56,56,0,down,4.6396676999283955,None,space,0.3204070000210777,None,,,,,0,56,56,56,,,,,491.55414330004714,,,,,,,,,,,,,491.5385168000357,491.55414330004714,491.55414330004714,491.55414330004714,496.199942599982,,,,496.2073174000252,496.21909190004226,496.21909190004226,496.2660387000069,496.2662897000555,496.2825303999707,496.2825303999707,496.2825303999707,496.34923900000285,496.6163981000427,,,,,,,,down,4.6396676999283955,None,space,0.3204070000210777,None,,,,,,,,,,,,,,,P131,001,2025-02-28_14h12.29.087,posner_endo_new1,2024.2.4,60.03770365746171,2025-02-28 14h12.37.405724 +0000,
cube_r.png,0.1,0.31,valid,57,57,0,down,4.305603199987672,None,space,0.42757290008012205,None,,,,,0,57,57,57,,,,,496.6322187000187,,,,,,,,,,,,,496.61659200000577,496.6322187000187,496.6322187000187,496.6322187000187,500.9452908000676,,,,500.9526560000377,500.96412210003473,500.96412210003473,501.0111534000607,501.011403099983,501.027615900035,501.027615900035,501.027615900035,501.11083050002344,501.461510400055,,,,,,,,down,4.305603199987672,None,space,0.42757290008012205,None,,,,,,,,,,,,,,,P131,001,2025-02-28_14h12.29.087,posner_endo_new1,2024.2.4,60.03770365746171,2025-02-28 14h12.37.405724 +0000,
cube_r.png,0.1,-0.31,invalid,58,58,0,down,4.628671700018458,None,space,0.3576494000153616,None,,,,,0,58,58,58,,,,,501.4772505000001,,,,,,,,,,,,,501.46170500002336,501.4772505000001,501.4772505000001,501.4772505000001,506.1068742000498,,,,506.1142127000494,506.12549969996326,506.12549969996326,506.17262990004383,506.17288029997144,506.1892398999771,506.1892398999771,506.1892398999771,506.2723309000721,506.55626800004393,,,,,,,,down,4.628671700018458,None,space,0.3576494000153616,None,,,,,,,,,,,,,,,P131,001,2025-02-28_14h12.29.087,posner_endo_new1,2024.2.4,60.03770365746171,2025-02-28 14h12.37.405724 +0000,
cube_l.png,0.1,0.31,invalid,59,59,0,down,4.094830699963495,None,space,0.25065609999001026,None,,,,,0,59,59,59,,,,,506.5719630999956,,,,,,,,,,,,,506.5564599999925,506.5719630999956,506.5719630999956,506.5719630999956,510.668663199991,,,,510.67602020001505,510.6871213000268,510.6871213000268,510.7345926000271,510.73510010004975,510.75100990000647,510.75100990000647,510.75100990000647,510.83422690001316,511.01911690004636,,,,,,,,down,4.094830699963495,None,space,0.25065609999001026,None,,,,,,,,,,,,,,,P131,001,2025-02-28_14h12.29.087,posner_endo_new1,2024.2.4,60.03770365746171,2025-02-28 14h12.37.405724 +0000,
,,,,,,,,,,,,,,,,,,,,,,,,,,,,,,,,,,,,,,,,,,,,,,,,,,,,,,,,,,,,,,,,,,,,,511.0193903000327,511.03400380001403,511.03400380001403,571.0397526000161,589.7881211000495,space,78.75184329994954,None,,,,,,,P131,001,2025-02-28_14h12.29.087,posner_endo_new1,2024.2.4,60.03770365746171,2025-02-28 14h12.37.405724 +0000,
,,,,,,,,,,,,,,,,,,,,,,,,,,,,,,,,,,589.7881950000301,589.8037292000372,592.8119979000185,592.784545600065,,,,,,,,,,,,,,,,,,,,,,,,,,,,,,,,,,,,,,,,,,,,,,P131,001,2025-02-28_14h12.29.087,posner_endo_new1,2024.2.4,60.03770365746171,2025-02-28 14h12.37.405724 +0000,
cube_l.png,0.1,10,catch,0,0,0,up,11.998255699989386,None,None,,,,,,,,,,,0,0,0,0,592.8119979000185,,,,,,,,,,,,,592.80301100004,592.8119979000185,592.8119979000185,592.8119979000185,604.8227825000649,,,,604.8330098000588,604.8432037000312,604.8432037000312,604.8885193000315,604.8888323999709,604.9050784000428,604.9050784000428,604.9050784000428,604.9882841999643,607.9025139000732,,,,607.002905900008,607.9186555000488,607.9186555000488,607.9186555000488,,,,,,,,,,,,,,,up,11.998255699989386,None,None,,,P131,001,2025-02-28_14h12.29.087,posner_endo_new1,2024.2.4,60.03770365746171,2025-02-28 14h12.37.405724 +0000,
cube_l.png,0.1,10,catch,1,1,0,up,1.2986391000449657,None,None,,,,,,,,,,,0,1,1,1,607.9186555000488,,,,,,,,,,,,,607.9027609999757,607.9186555000488,607.9186555000488,607.9186555000488,609.2183978999965,,,,609.2281185999746,609.2382239999715,609.2382239999715,609.2840492000105,609.284361600061,609.3005555999698,609.3005555999698,609.3005555999698,609.3838063000003,612.298150000046,,,,611.3983436999843,612.314158400055,612.314158400055,612.314158400055,,,,,,,,,,,,,,,up,1.2986391000449657,None,None,,,P131,001,2025-02-28_14h12.29.087,posner_endo_new1,2024.2.4,60.03770365746171,2025-02-28 14h12.37.405724 +0000,
cube_l.png,0.1,0.31,invalid,2,2,0,up,3.2959035999374464,None,space,0.4788162999320775,None,,,,,,,,,0,2,2,2,612.314158400055,,,,,,,,,,,,,612.2983896000078,612.314158400055,612.314158400055,612.314158400055,615.6119436000008,,,,615.6214456000598,615.6311016000109,615.6311016000109,615.6775231000502,615.6777576999739,615.694152400014,615.694152400014,615.694152400014,615.7772681000642,616.1777088000672,,,,,,,,,,,,,,,,,,,,,,up,3.2959035999374464,None,space,0.4788162999320775,None,P131,001,2025-02-28_14h12.29.087,posner_endo_new1,2024.2.4,60.03770365746171,2025-02-28 14h12.37.405724 +0000,
cube_l.png,0.1,0.31,invalid,3,3,0,up,4.2080413000658154,None,space,0.3997647000942379,None,,,,,,,,,0,3,3,3,616.1934908999829,,,,,,,,,,,,,616.1778838000027,616.1934908999829,616.1934908999829,616.1934908999829,620.4066975000314,,,,620.41302550002,620.4246587000089,620.4246587000089,620.4723986000754,620.4726272000698,620.4891232000664,620.4891232000664,620.4891232000664,620.5722409000155,620.8896121999715,,,,,,,,,,,,,,,,,,,,,,up,4.2080413000658154,None,space,0.3997647000942379,None,P131,001,2025-02-28_14h12.29.087,posner_endo_new1,2024.2.4,60.03770365746171,2025-02-28 14h12.37.405724 +0000,
cube_l.png,0.1,-0.31,valid,4,4,0,up,4.016319200047292,None,space,0.4671977999387309,None,,,,,,,,,0,4,4,4,620.9052814000752,,,,,,,,,,,,,620.8897888000356,620.9052814000752,620.9052814000752,620.9052814000752,624.9353463000152,,,,624.9413254000247,624.9527111999923,624.9527111999923,625.0008572000079,625.0012494999683,625.0173637999687,625.0173637999687,625.0173637999687,625.1005626000697,625.5015195000451,,,,,,,,,,,,,,,,,,,,,,up,4.016319200047292,None,space,0.4671977999387309,None,P131,001,2025-02-28_14h12.29.087,posner_endo_new1,2024.2.4,60.03770365746171,2025-02-28 14h12.37.405724 +0000,
cube_r.png,0.1,-0.31,invalid,5,5,0,up,3.8608989000786096,None,space,0.5152458000229672,None,,,,,,,,,0,5,5,5,625.5168108000653,,,,,,,,,,,,,625.5018524000188,625.5168108000653,625.5168108000653,625.5168108000653,629.3809502000222,,,,629.3893714000005,629.3996231000638,629.3996231000638,629.4467145999661,629.4469920999836,629.4632004000014,629.4632004000014,629.4632004000014,629.5464978000382,629.9804969000397,,,,,,,,,,,,,,,,,,,,,,up,3.8608989000786096,None,space,0.5152458000229672,None,P131,001,2025-02-28_14h12.29.087,posner_endo_new1,2024.2.4,60.03770365746171,2025-02-28 14h12.37.405724 +0000,
cube_r.png,0.1,0.31,valid,6,6,0,up,3.6623466999735683,None,space,0.43515350006055087,None,,,,,,,,,0,6,6,6,629.9960788000608,,,,,,,,,,,,,629.9807245000266,629.9960788000608,629.9960788000608,629.9960788000608,633.6600242999848,,,,633.6684657000005,633.6783475000411,633.6783475000411,633.7255051999819,633.7258022000315,633.742127000005,633.742127000005,633.742127000005,633.8255121000111,634.1926534000086,,,,,,,,,,,,,,,,,,,,,,up,3.6623466999735683,None,space,0.43515350006055087,None,P131,001,2025-02-28_14h12.29.087,posner_endo_new1,2024.2.4,60.03770365746171,2025-02-28 14h12.37.405724 +0000,
cube_r.png,0.1,-0.31,invalid,7,7,0,up,5.841148199979216,None,space,0.40661880001425743,None,,,,,,,,,0,7,7,7,634.2082636000123,,,,,,,,,,,,,634.1928810999962,634.2082636000123,634.2082636000123,634.2082636000123,640.0533673000755,,,,640.0619438000722,640.0720355999656,640.0720355999656,640.1192019999726,640.119484600029,640.1356716000009,640.1356716000009,640.1356716000009,640.2189716000576,640.5528361999895,,,,,,,,,,,,,,,,,,,,,,up,5.841148199979216,None,space,0.40661880001425743,None,P131,001,2025-02-28_14h12.29.087,posner_endo_new1,2024.2.4,60.03770365746171,2025-02-28 14h12.37.405724 +0000,
cube_l.png,0.1,-0.31,valid,8,8,0,up,3.0651660000439733,None,space,0.3688774999463931,None,,,,,,,,,0,8,8,8,640.5685897000367,,,,,,,,,,,,,640.553062299965,640.5685897000367,640.5685897000367,640.5685897000367,643.649712900049,,,,643.6580928000621,643.6683832000708,643.6683832000708,643.7153789000586,643.7158834000584,643.7318340999773,643.7318340999773,643.7318340999773,643.8150747000473,644.1165141999954,,,,,,,,,,,,,,,,,,,,,,up,3.0651660000439733,None,space,0.3688774999463931,None,P131,001,2025-02-28_14h12.29.087,posner_endo_new1,2024.2.4,60.03770365746171,2025-02-28 14h12.37.405724 +0000,
cube_r.png,0.1,-0.31,invalid,9,9,0,up,6.150564500014298,None,space,0.3811027000192553,None,,,,,,,,,0,9,9,9,644.131429900066,,,,,,,,,,,,,644.1169602000155,644.131429900066,644.131429900066,644.131429900066,650.2931313000154,,,,650.3028248000192,650.3125129999826,650.3125129999826,650.358666999964,650.3589055000339,650.3751179999672,650.3751179999672,650.3751179999672,650.4584274999797,650.7589011000236,,,,,,,,,,,,,,,,,,,,,,up,6.150564500014298,None,space,0.3811027000192553,None,P131,001,2025-02-28_14h12.29.087,posner_endo_new1,2024.2.4,60.03770365746171,2025-02-28 14h12.37.405724 +0000,
cube_l.png,0.1,0.31,invalid,10,10,0,up,4.05163130001165,None,space,0.4960820999694988,None,,,,,,,,,0,10,10,10,650.7747013000771,,,,,,,,,,,,,650.7590884000529,650.7747013000771,650.7747013000771,650.7747013000771,654.8381197999697,,,,654.8450142999645,654.8567210000474,654.8567210000474,654.90393400006,654.9044364000438,654.9203544000629,654.9203544000629,654.9203544000629,655.0036489000777,655.4212656000163,,,,,,,,,,,,,,,,,,,,,,up,4.05163130001165,None,space,0.4960820999694988,None,P131,001,2025-02-28_14h12.29.087,posner_endo_new1,2024.2.4,60.03770365746171,2025-02-28 14h12.37.405724 +0000,
cube_r.png,0.1,-0.31,invalid,11,11,0,up,4.7177398999920115,None,space,0.5369794999714941,None,,,,,,,,,0,11,11,11,655.4367634999799,,,,,,,,,,,,,655.4215668999823,655.4367634999799,655.4367634999799,655.4367634999799,660.1664462999906,,,,660.175324800075,660.1852436000481,660.1852436000481,660.2318610000657,660.2321095999796,660.2483578000683,660.2483578000683,660.2483578000683,660.3316223999718,660.7987444000319,,,,,,,,,,,,,,,,,,,,,,up,4.7177398999920115,None,space,0.5369794999714941,None,P131,001,2025-02-28_14h12.29.087,posner_endo_new1,2024.2.4,60.03770365746171,2025-02-28 14h12.37.405724 +0000,
cube_r.png,0.1,0.31,valid,12,12,0,up,10.228110900032334,None,space,0.4023837000131607,None,,,,,,,,,0,12,12,12,660.8144383999752,,,,,,,,,,,,,660.7989440000383,660.8144383999752,660.8144383999752,660.8144383999752,671.0548305000411,,,,671.0621967000188,671.0737175999675,671.0737175999675,671.1207451999653,671.1210059999721,671.1373003000626,671.1373003000626,671.1373003000626,671.2039626999758,671.5544060000684,,,,,,,,,,,,,,,,,,,,,,up,10.228110900032334,None,space,0.4023837000131607,None,P131,001,2025-02-28_14h12.29.087,posner_endo_new1,2024.2.4,60.03770365746171,2025-02-28 14h12.37.405724 +0000,
cube_l.png,0.1,10,catch,13,13,0,up,4.599709200090729,None,None,,,,,,,,,,,0,13,13,13,671.5702290000627,,,,,,,,,,,,,671.5546045000665,671.5702290000627,671.5702290000627,671.5702290000627,676.1828126000473,,,,676.1901917000068,676.2019907999784,676.2019907999784,676.2489065000555,676.2491561999777,676.265281900065,676.265281900065,676.265281900065,676.3318566000089,679.2630465000402,,,,678.346619399963,679.2789133000188,679.2789133000188,679.2789133000188,,,,,,,,,,,,,,,up,4.599709200090729,None,None,,,P131,001,2025-02-28_14h12.29.087,posner_endo_new1,2024.2.4,60.03770365746171,2025-02-28 14h12.37.405724 +0000,
cube_r.png,0.1,-0.31,invalid,14,14,0,up,1.643580500036478,None,space,0.4308034999994561,None,,,,,,,,,0,14,14,14,679.2789133000188,,,,,,,,,,,,,679.2632414000109,679.2789133000188,679.2789133000188,679.2789133000188,680.9281561999815,,,,680.9355209000641,680.9469534000382,680.9469534000382,680.9939503000351,680.9942012999672,681.0105886000674,681.0105886000674,681.0105886000674,681.0936072000768,681.4441944999853,,,,,,,,,,,,,,,,,,,,,,up,1.643580500036478,None,space,0.4308034999994561,None,P131,001,2025-02-28_14h12.29.087,posner_endo_new1,2024.2.4,60.03770365746171,2025-02-28 14h12.37.405724 +0000,
cube_l.png,0.1,-0.31,valid,15,15,0,up,4.126179300015792,None,space,0.5031537000322714,None,,,,,,,,,0,15,15,15,681.4600954999914,,,,,,,,,,,,,681.4443963000085,681.4600954999914,681.4600954999914,681.4600954999914,685.5899501000531,,,,685.5973305000225,685.6088676999789,685.6088676999789,685.6558837000048,685.6561322000343,685.6725205000257,685.6725205000257,685.6725205000257,685.7390851000091,686.1894070999697,,,,,,,,,,,,,,,,,,,,,,up,4.126179300015792,None,space,0.5031537000322714,None,P131,001,2025-02-28_14h12.29.087,posner_endo_new1,2024.2.4,60.03770365746171,2025-02-28 14h12.37.405724 +0000,
cube_r.png,0.1,10,catch,16,16,0,up,6.876590700005181,None,None,,,,,,,,,,,0,16,16,16,686.2051227000775,,,,,,,,,,,,,686.1896088999929,686.2051227000775,686.2051227000775,686.2051227000775,693.0826369000133,,,,693.0899956000503,693.1011245000409,693.1011245000409,693.148233700078,693.1487332000397,693.164615000016,693.164615000016,693.164615000016,693.2478769000154,696.162398400018,,,,695.2630098999944,696.1784611999756,696.1784611999756,696.1784611999756,,,,,,,,,,,,,,,up,6.876590700005181,None,None,,,P131,001,2025-02-28_14h12.29.087,posner_endo_new1,2024.2.4,60.03770365746171,2025-02-28 14h12.37.405724 +0000,
cube_r.png,0.1,10,catch,17,17,0,up,2.3192661999491975,None,None,,,,,,,,,,,0,17,17,17,696.1784611999756,,,,,,,,,,,,,696.1626787000569,696.1784611999756,696.1784611999756,696.1784611999756,698.5107383000432,,,,698.5222191000357,698.5325694000348,698.5325694000348,698.5762516000541,698.5765987000195,698.5925678999629,698.5925678999629,698.5925678999629,698.6759507000679,701.590288400068,,,,700.6905564999906,701.6062496000668,701.6062496000668,701.6062496000668,,,,,,,,,,,,,,,up,2.3192661999491975,None,None,,,P131,001,2025-02-28_14h12.29.087,posner_endo_new1,2024.2.4,60.03770365746171,2025-02-28 14h12.37.405724 +0000,
cube_l.png,0.1,0.31,invalid,18,18,0,up,3.1475280000595376,None,space,0.44763459998648614,None,,,,,,,,,0,18,18,18,701.6062496000668,,,,,,,,,,,,,701.5905744000338,701.6062496000668,701.6062496000668,701.6062496000668,704.7705846000463,,,,704.7821390000172,704.7922927000327,704.7922927000327,704.8364378999686,704.8367900999729,704.8529983999906,704.8529983999906,704.8529983999906,704.9362416999647,705.3036992000416,,,,,,,,,,,,,,,,,,,,,,up,3.1475280000595376,None,space,0.44763459998648614,None,P131,001,2025-02-28_14h12.29.087,posner_endo_new1,2024.2.4,60.03770365746171,2025-02-28 14h12.37.405724 +0000,
cube_l.png,0.1,10,catch,19,19,0,up,5.626897200010717,None,None,,,,,,,,,,,0,19,19,19,705.3191478999797,,,,,,,,,,,,,705.3039919000585,705.3191478999797,705.3191478999797,705.3191478999797,710.9480564000551,,,,710.9595200000331,710.9697961000493,710.9697961000493,711.013486300013,711.0138311999617,711.0299434000626,711.0299434000626,711.0299434000626,711.1132154000225,714.027652699966,,,,713.1278099999763,714.0435521000763,714.0435521000763,714.0435521000763,,,,,,,,,,,,,,,up,5.626897200010717,None,None,,,P131,001,2025-02-28_14h12.29.087,posner_endo_new1,2024.2.4,60.03770365746171,2025-02-28 14h12.37.405724 +0000,
cube_l.png,0.1,0.31,invalid,20,20,0,up,2.4307627000380307,None,space,0.454973200103268,None,,,,,,,,,0,20,20,20,714.0435521000763,,,,,,,,,,,,,714.0279259000672,714.0435521000763,714.0435521000763,714.0435521000763,716.4757816999918,,,,716.4845226000762,716.4942350999918,716.4942350999918,716.541049899999,716.5412894000765,716.557597200037,716.557597200037,716.557597200037,716.6409149999963,717.0244906999869,,,,,,,,,,,,,,,,,,,,,,up,2.4307627000380307,None,space,0.454973200103268,None,P131,001,2025-02-28_14h12.29.087,posner_endo_new1,2024.2.4,60.03770365746171,2025-02-28 14h12.37.405724 +0000,
cube_l.png,0.1,-0.31,valid,21,21,0,up,4.609754099976271,None,space,0.4389873999170959,None,,,,,,,,,0,21,21,21,717.040518200025,,,,,,,,,,,,,717.0246845000656,717.040518200025,717.040518200025,717.040518200025,721.6530136000365,,,,721.6601005999837,721.671811999986,721.671811999986,721.7190320000518,721.7192713000113,721.7355534000089,721.7355534000089,721.7355534000089,721.8023165999912,722.1859094999963,,,,,,,,,,,,,,,,,,,,,,up,4.609754099976271,None,space,0.4389873999170959,None,P131,001,2025-02-28_14h12.29.087,posner_endo_new1,2024.2.4,60.03770365746171,2025-02-28 14h12.37.405724 +0000,
cube_r.png,0.1,0.31,valid,22,22,0,up,3.9525242999661714,None,space,0.4036544000264257,None,,,,,,,,,0,22,22,22,722.2017150999745,,,,,,,,,,,,,722.1860975000309,722.2017150999745,722.2017150999745,722.2017150999745,726.1657944000326,,,,726.1749720000662,726.1846946000587,726.1846946000587,726.2310561999911,726.2313052000245,726.2475940000731,726.2475940000731,726.2475940000731,726.3308381000534,726.664754300029,,,,,,,,,,,,,,,,,,,,,,up,3.9525242999661714,None,space,0.4036544000264257,None,P131,001,2025-02-28_14h12.29.087,posner_endo_new1,2024.2.4,60.03770365746171,2025-02-28 14h12.37.405724 +0000,
cube_r.png,0.1,-0.31,invalid,23,23,0,up,5.465899399947375,None,space,0.371969599975273,None,,,,,,,,,0,23,23,23,726.6806519000093,,,,,,,,,,,,,726.6649553000461,726.6806519000093,726.6806519000093,726.6806519000093,732.1591816999717,,,,732.1666217000457,732.1774804000743,732.1774804000743,732.2249696999788,732.2254899999825,732.241402600077,732.241402600077,732.241402600077,732.3245993000455,732.6258233999833,,,,,,,,,,,,,,,,,,,,,,up,5.465899399947375,None,space,0.371969599975273,None,P131,001,2025-02-28_14h12.29.087,posner_endo_new1,2024.2.4,60.03770365746171,2025-02-28 14h12.37.405724 +0000,
cube_r.png,0.1,0.31,valid,24,24,0,up,4.928578899940476,None,space,0.4203323000110686,None,,,,,,,,,0,24,24,24,732.6412373000057,,,,,,,,,,,,,732.6261197000276,732.6412373000057,732.6412373000057,732.6412373000057,737.5708436999703,,,,737.5813236000249,737.5914388999809,737.5914388999809,737.6363587999949,737.6366624999791,737.6527704000473,737.6527704000473,737.6527704000473,737.7361018999945,738.0867425000761,,,,,,,,,,,,,,,,,,,,,,up,4.928578899940476,None,space,0.4203323000110686,None,P131,001,2025-02-28_14h12.29.087,posner_endo_new1,2024.2.4,60.03770365746171,2025-02-28 14h12.37.405724 +0000,
cube_r.png,0.1,-0.31,invalid,25,25,0,up,4.28357580001466,None,space,0.39574559999164194,None,,,,,,,,,0,25,25,25,738.1022673000116,,,,,,,,,,,,,738.0870016000699,738.1022673000116,738.1022673000116,738.1022673000116,742.398877199972,,,,742.4087986999657,742.4190518000396,742.4190518000396,742.4645748999901,742.4648840000154,742.4811076000333,742.4811076000333,742.4811076000333,742.5644449000247,742.8816282000626,,,,,,,,,,,,,,,,,,,,,,up,4.28357580001466,None,space,0.39574559999164194,None,P131,001,2025-02-28_14h12.29.087,posner_endo_new1,2024.2.4,60.03770365746171,2025-02-28 14h12.37.405724 +0000,
cube_l.png,0.1,-0.31,valid,26,26,0,up,5.168552900082432,None,space,0.37937620002776384,None,,,,,,,,,0,26,26,26,742.8977903000778,,,,,,,,,,,,,742.8818094000453,742.8977903000778,742.8977903000778,742.8977903000778,748.0760218000505,,,,748.0822173999622,748.0938658000669,748.0938658000669,748.1420031000162,748.142251500045,748.1584928999655,748.1584928999655,748.1584928999655,748.2253041999647,748.5424680999713,,,,,,,,,,,,,,,,,,,,,,up,5.168552900082432,None,space,0.37937620002776384,None,P131,001,2025-02-28_14h12.29.087,posner_endo_new1,2024.2.4,60.03770365746171,2025-02-28 14h12.37.405724 +0000,
cube_r.png,0.1,0.31,valid,27,27,0,up,6.163761600037105,None,space,0.47420079994481057,None,,,,,,,,,0,27,27,27,748.5582345000003,,,,,,,,,,,,,748.5426672999747,748.5582345000003,748.5582345000003,748.5582345000003,754.7363845000509,,,,754.7480345000513,754.7582712000003,754.7582712000003,754.8020059000701,754.8023539000424,754.8185374999885,754.8185374999885,754.8185374999885,754.9018357000314,755.3026492999634,,,,,,,,,,,,,,,,,,,,,,up,6.163761600037105,None,space,0.47420079994481057,None,P131,001,2025-02-28_14h12.29.087,posner_endo_new1,2024.2.4,60.03770365746171,2025-02-28 14h12.37.405724 +0000,
cube_r.png,0.1,10,catch,28,28,0,up,5.0135885999770835,None,None,,,,,,,,,,,0,28,28,28,755.3180431000656,,,,,,,,,,,,,755.3029432999901,755.3180431000656,755.3180431000656,755.3180431000656,760.3473551999778,,,,760.3592635999667,760.3695608000271,760.3695608000271,760.4129976000404,760.4133435999975,760.4295295999618,760.4295295999618,760.4295295999618,760.5127713000402,763.4271565000527,,,,762.5273332999786,763.4430887000635,763.4430887000635,763.4430887000635,,,,,,,,,,,,,,,up,5.0135885999770835,None,None,,,P131,001,2025-02-28_14h12.29.087,posner_endo_new1,2024.2.4,60.03770365746171,2025-02-28 14h12.37.405724 +0000,
cube_r.png,0.1,0.31,valid,29,29,0,up,2.071214900002815,None,space,0.3620708999224007,None,,,,,,,,,0,29,29,29,763.4430887000635,,,,,,,,,,,,,763.4274309000466,763.4430887000635,763.4430887000635,763.4430887000635,765.5254243999952,,,,765.5346184000373,765.5443007000722,765.5443007000722,765.590921199997,765.5911679000128,765.6075696999906,765.6075696999906,765.6075696999906,765.6908115000697,765.9745298000053,,,,,,,,,,,,,,,,,,,,,,up,2.071214900002815,None,space,0.3620708999224007,None,P131,001,2025-02-28_14h12.29.087,posner_endo_new1,2024.2.4,60.03770365746171,2025-02-28 14h12.37.405724 +0000,
cube_r.png,0.1,0.31,valid,30,30,0,up,5.675893199979328,None,space,0.46324439998716116,None,,,,,,,,,0,30,30,30,765.9904770000139,,,,,,,,,,,,,765.9747222000733,765.9904770000139,765.9904770000139,765.9904770000139,771.6689368999796,,,,771.6759537999751,771.6877570999786,771.6877570999786,771.7345838000765,771.7348084000405,771.7511015000055,771.7511015000055,771.7511015000055,771.8345857000677,772.2181506999768,,,,,,,,,,,,,,,,,,,,,,up,5.675893199979328,None,space,0.46324439998716116,None,P131,001,2025-02-28_14h12.29.087,posner_endo_new1,2024.2.4,60.03770365746171,2025-02-28 14h12.37.405724 +0000,
cube_l.png,0.1,-0.31,valid,31,31,0,up,6.0245810999767855,None,space,0.31315529998391867,None,,,,,,,,,0,31,31,31,772.2339602999855,,,,,,,,,,,,,772.2183301000623,772.2339602999855,772.2339602999855,772.2339602999855,778.2623019000748,,,,778.2685316000134,778.2803122000769,778.2803122000769,778.3280911999755,778.3283144000452,778.3445478000212,778.3445478000212,778.3445478000212,778.4276697000023,778.6615293000359,,,,,,,,,,,,,,,,,,,,,,up,6.0245810999767855,None,space,0.31315529998391867,None,P131,001,2025-02-28_14h12.29.087,posner_endo_new1,2024.2.4,60.03770365746171,2025-02-28 14h12.37.405724 +0000,
cube_r.png,0.1,0.31,valid,32,32,0,up,6.484807900036685,None,space,0.4601420999970287,None,,,,,,,,,0,32,32,32,778.677348199999,,,,,,,,,,,,,778.6617135000415,778.677348199999,778.677348199999,778.677348199999,785.1714656000258,,,,785.1776525999885,785.1887043999741,785.1887043999741,785.2375277000247,785.2380291000009,785.2539163000183,785.2539163000183,785.2539163000183,785.320424900041,785.7215237000491,,,,,,,,,,,,,,,,,,,,,,up,6.484807900036685,None,space,0.4601420999970287,None,P131,001,2025-02-28_14h12.29.087,posner_endo_new1,2024.2.4,60.03770365746171,2025-02-28 14h12.37.405724 +0000,
cube_r.png,0.1,-0.31,invalid,33,33,0,up,3.6415934999240562,None,space,0.5366591999772936,None,,,,,,,,,0,33,33,33,785.7368307000725,,,,,,,,,,,,,785.7218233000021,785.7368307000725,785.7368307000725,785.7368307000725,789.384557500016,,,,789.3961294000037,789.4064529000316,789.4064529000316,789.4500549000222,789.4504059000174,789.4665305999806,789.4665305999806,789.4665305999806,789.5497358000139,790.017096000025,,,,,,,,,,,,,,,,,,,,,,up,3.6415934999240562,None,space,0.5366591999772936,None,P131,001,2025-02-28_14h12.29.087,posner_endo_new1,2024.2.4,60.03770365746171,2025-02-28 14h12.37.405724 +0000,
cube_r.png,0.1,10,catch,34,34,0,up,4.961171399918385,None,None,,,,,,,,,,,0,34,34,34,790.0325555000454,,,,,,,,,,,,,790.0173910000594,790.0325555000454,790.0325555000454,790.0325555000454,794.9954605000094,,,,795.0070123000769,795.0172870999668,795.0172870999668,795.0609596000286,795.0613080000039,795.0773534000618,795.0773534000618,795.0773534000618,795.1606563000241,798.0750616000732,,,,797.1752399000106,798.0910868999781,798.0910868999781,798.0910868999781,,,,,,,,,,,,,,,up,4.961171399918385,None,None,,,P131,001,2025-02-28_14h12.29.087,posner_endo_new1,2024.2.4,60.03770365746171,2025-02-28 14h12.37.405724 +0000,
cube_r.png,0.1,0.31,valid,35,35,0,up,2.6946335999527946,None,space,0.38209319999441504,None,,,,,,,,,0,35,35,35,798.0910868999781,,,,,,,,,,,,,798.0753384999698,798.0910868999781,798.0910868999781,798.0910868999781,800.7894981000572,,,,800.8011458000401,800.811313400045,800.811313400045,800.8549963000696,800.8553408000153,800.8713866000762,800.8713866000762,800.8713866000762,800.9548845000099,801.2557300999761,,,,,,,,,,,,,,,,,,,,,,up,2.6946335999527946,None,space,0.38209319999441504,None,P131,001,2025-02-28_14h12.29.087,posner_endo_new1,2024.2.4,60.03770365746171,2025-02-28 14h12.37.405724 +0000,
cube_r.png,0.1,-0.31,invalid,36,36,0,up,5.0185423999791965,None,space,0.41727500001434237,None,,,,,,,,,0,36,36,36,801.2711359000532,,,,,,,,,,,,,801.2560266000219,801.2711359000532,801.2711359000532,801.2711359000532,806.3000541999936,,,,806.3060966000194,806.3177506000502,806.3177506000502,806.3659470999846,806.3661785000004,806.3823969999794,806.3823969999794,806.3823969999794,806.4492353000678,806.8162357000401,,,,,,,,,,,,,,,,,,,,,,up,5.0185423999791965,None,space,0.41727500001434237,None,P131,001,2025-02-28_14h12.29.087,posner_endo_new1,2024.2.4,60.03770365746171,2025-02-28 14h12.37.405724 +0000,
cube_l.png,0.1,0.31,invalid,37,37,0,up,5.178284000023268,None,space,0.3449485000455752,None,,,,,,,,,0,37,37,37,806.8320805999683,,,,,,,,,,,,,806.8164097999688,806.8320805999683,806.8320805999683,806.8320805999683,812.0110827999888,,,,812.0171545000048,812.0287626000354,812.0287626000354,812.076745999977,812.0769692000467,812.0931944000768,812.0931944000768,812.0931944000768,812.1767166999634,812.4436073000543,,,,,,,,,,,,,,,,,,,,,,up,5.178284000023268,None,space,0.3449485000455752,None,P131,001,2025-02-28_14h12.29.087,posner_endo_new1,2024.2.4,60.03770365746171,2025-02-28 14h12.37.405724 +0000,
cube_l.png,0.1,0.31,invalid,38,38,0,up,5.6463239000877365,None,space,0.3858534999890253,None,,,,,,,,,0,38,38,38,812.4596011000685,,,,,,,,,,,,,812.4437824999914,812.4596011000685,812.4596011000685,812.4596011000685,818.1211305999896,,,,818.1273354999721,818.1391642000526,818.1391642000526,818.187210300006,818.1874358999776,818.2038332000375,818.2038332000375,818.2038332000375,818.2703904999653,818.6039671000326,,,,,,,,,,,,,,,,,,,,,,up,5.6463239000877365,None,space,0.3858534999890253,None,P131,001,2025-02-28_14h12.29.087,posner_endo_new1,2024.2.4,60.03770365746171,2025-02-28 14h12.37.405724 +0000,
cube_r.png,0.1,0.31,valid,39,39,0,up,4.934251199942082,None,space,0.42414530005771667,None,,,,,,,,,0,39,39,39,818.6200225000503,,,,,,,,,,,,,818.6041423999704,818.6200225000503,818.6200225000503,818.6200225000503,823.5660464999964,,,,823.5809157000622,823.5912884999998,823.5912884999998,823.6313788000261,823.6318136000773,823.647854699986,823.647854699986,823.647854699986,823.7310738000087,824.0821431999793,,,,,,,,,,,,,,,,,,,,,,up,4.934251199942082,None,space,0.42414530005771667,None,P131,001,2025-02-28_14h12.29.087,posner_endo_new1,2024.2.4,60.03770365746171,2025-02-28 14h12.37.405724 +0000,
cube_l.png,0.1,0.31,invalid,40,40,0,up,5.105488300090656,None,space,0.40638830000534654,None,,,,,,,,,0,40,40,40,824.0977555999998,,,,,,,,,,,,,824.0824026999762,824.0977555999998,824.0977555999998,824.0977555999998,829.2102582000662,,,,829.2202029000036,829.2303834999911,829.2303834999911,829.275945100002,829.2762546000304,829.292453299975,829.292453299975,829.292453299975,829.3757531000301,829.7097695000703,,,,,,,,,,,,,,,,,,,,,,up,5.105488300090656,None,space,0.40638830000534654,None,P131,001,2025-02-28_14h12.29.087,posner_endo_new1,2024.2.4,60.03770365746171,2025-02-28 14h12.37.405724 +0000,
cube_l.png,0.1,10,catch,41,41,0,up,3.4370283000171185,None,None,,,,,,,,,,,0,41,41,41,829.725363500067,,,,,,,,,,,,,829.7100359000033,829.725363500067,829.725363500067,829.725363500067,833.1728742000414,,,,833.1821536000352,833.1917647999944,833.1917647999944,833.238463900052,833.2386982999742,833.2551105000312,833.2551105000312,833.2551105000312,833.3382295999909,836.2523971999763,,,,835.3530988000566,836.2686142000603,836.2686142000603,836.2686142000603,,,,,,,,,,,,,,,up,3.4370283000171185,None,None,,,P131,001,2025-02-28_14h12.29.087,posner_endo_new1,2024.2.4,60.03770365746171,2025-02-28 14h12.37.405724 +0000,
cube_l.png,0.1,-0.31,valid,42,42,0,up,1.7740504000103101,None,space,0.3186320000095293,None,,,,,,,,,0,42,42,42,836.2686142000603,,,,,,,,,,,,,836.2525621000677,836.2686142000603,836.2686142000603,836.2686142000603,838.0508772999747,,,,838.0573461999884,838.069152800017,838.069152800017,838.1169225000776,838.1171485000523,838.1334267000202,838.1334267000202,838.1334267000202,838.1999154000077,838.4671926000156,,,,,,,,,,,,,,,,,,,,,,up,1.7740504000103101,None,space,0.3186320000095293,None,P131,001,2025-02-28_14h12.29.087,posner_endo_new1,2024.2.4,60.03770365746171,2025-02-28 14h12.37.405724 +0000,
cube_l.png,0.1,10,catch,43,43,0,up,5.766765000065789,None,None,,,,,,,,,,,0,43,43,43,838.4832533000736,,,,,,,,,,,,,838.4673679000698,838.4832533000736,838.4832533000736,838.4832533000736,844.2616170999827,,,,844.2677655000007,844.2794368000468,844.2794368000468,844.3271991000511,844.3274257000303,844.3437723000534,844.3437723000534,844.3437723000534,844.4269867000403,847.3410936000291,,,,846.4414655000437,847.3573379999725,847.3573379999725,847.3573379999725,,,,,,,,,,,,,,,up,5.766765000065789,None,None,,,P131,001,2025-02-28_14h12.29.087,posner_endo_new1,2024.2.4,60.03770365746171,2025-02-28 14h12.37.405724 +0000,
cube_l.png,0.1,0.31,invalid,44,44,0,up,1.6930589999537915,None,space,0.445683499914594,None,,,,,,,,,0,44,44,44,847.3573379999725,,,,,,,,,,,,,847.341257299995,847.3573379999725,847.3573379999725,847.3573379999725,849.0561371999793,,,,849.0622674999759,849.0741453999653,849.0741453999653,849.1221825999673,849.12269009999,849.1386226000031,849.1386226000031,849.1386226000031,849.2052091000369,849.5897279999917,,,,,,,,,,,,,,,,,,,,,,up,1.6930589999537915,None,space,0.445683499914594,None,P131,001,2025-02-28_14h12.29.087,posner_endo_new1,2024.2.4,60.03770365746171,2025-02-28 14h12.37.405724 +0000,
cube_l.png,0.1,0.31,invalid,45,45,0,up,4.653216199949384,None,space,0.4136154999723658,None,,,,,,,,,0,45,45,45,849.6049442000221,,,,,,,,,,,,,849.5900326999836,849.6049442000221,849.6049442000221,849.6049442000221,854.2681298999814,,,,854.2797773999628,854.2901395000517,854.2901395000517,854.3337781999726,854.3341281000758,854.3502846000483,854.3502846000483,854.3502846000483,854.4334216000279,854.7677540000295,,,,,,,,,,,,,,,,,,,,,,up,4.653216199949384,None,space,0.4136154999723658,None,P131,001,2025-02-28_14h12.29.087,posner_endo_new1,2024.2.4,60.03770365746171,2025-02-28 14h12.37.405724 +0000,
cube_r.png,0.1,0.31,valid,46,46,0,up,4.834954199963249,None,space,0.395757699967362,None,,,,,,,,,0,46,46,46,854.783239100012,,,,,,,,,,,,,854.7680534999818,854.783239100012,854.783239100012,854.783239100012,859.6293112999992,,,,859.6408975999802,859.6512242000317,859.6512242000317,859.6949551000725,859.6953128000023,859.7114611000288,859.7114611000288,859.7114611000288,859.7946788000409,860.112026900053,,,,,,,,,,,,,,,,,,,,,,up,4.834954199963249,None,space,0.395757699967362,None,P131,001,2025-02-28_14h12.29.087,posner_endo_new1,2024.2.4,60.03770365746171,2025-02-28 14h12.37.405724 +0000,
cube_l.png,0.1,-0.31,valid,47,47,0,up,4.923466200008988,None,space,0.4240075000561774,None,,,,,,,,,0,47,47,47,860.127607600065,,,,,,,,,,,,,860.1123263000045,860.127607600065,860.127607600065,860.127607600065,865.0566687000683,,,,865.0631853999803,865.074982900056,865.074982900056,865.1225309000583,865.1227546000155,865.139150400064,865.139150400064,865.139150400064,865.205770200002,865.5727852999698,,,,,,,,,,,,,,,,,,,,,,up,4.923466200008988,None,space,0.4240075000561774,None,P131,001,2025-02-28_14h12.29.087,posner_endo_new1,2024.2.4,60.03770365746171,2025-02-28 14h12.37.405724 +0000,
cube_r.png,0.1,-0.31,invalid,48,48,0,up,4.981738299946301,None,space,0.44484529993496835,None,,,,,,,,,0,48,48,48,865.5887664000038,,,,,,,,,,,,,865.5729688999709,865.5887664000038,865.5887664000038,865.5887664000038,870.5848685000092,,,,870.5941705000587,870.6037722000619,870.6037722000619,870.6504062999738,870.6506428000284,870.6668461000081,870.6668461000081,870.6668461000081,870.7500939000165,871.1171757000266,,,,,,,,,,,,,,,,,,,,,,up,4.981738299946301,None,space,0.44484529993496835,None,P131,001,2025-02-28_14h12.29.087,posner_endo_new1,2024.2.4,60.03770365746171,2025-02-28 14h12.37.405724 +0000,
cube_r.png,0.1,10,catch,49,49,0,up,4.236761200008914,None,None,,,,,,,,,,,0,49,49,49,871.1329601000762,,,,,,,,,,,,,871.1173647000687,871.1329601000762,871.1329601000762,871.1329601000762,875.3795621000463,,,,875.3865497000515,875.3978285000194,875.3978285000194,875.4453138000099,875.4458176000044,875.4617381000426,875.4617381000426,875.4617381000426,875.5450030000648,878.4597237000708,,,,877.5598406000063,878.4756810000399,878.4756810000399,878.4756810000399,,,,,,,,,,,,,,,up,4.236761200008914,None,None,,,P131,001,2025-02-28_14h12.29.087,posner_endo_new1,2024.2.4,60.03770365746171,2025-02-28 14h12.37.405724 +0000,
cube_l.png,0.1,-0.31,valid,50,50,0,up,1.262240800075233,None,space,0.46646709996275604,None,,,,,,,,,0,50,50,50,878.4756810000399,,,,,,,,,,,,,878.4599995000754,878.4756810000399,878.4756810000399,878.4756810000399,879.7420457999688,,,,879.7536282000365,879.7642507000128,879.7642507000128,879.8076908000512,879.8080421000486,879.8242085999809,879.8242085999809,879.8242085999809,879.907499599969,880.2918574999785,,,,,,,,,,,,,,,,,,,,,,up,1.262240800075233,None,space,0.46646709996275604,None,P131,001,2025-02-28_14h12.29.087,posner_endo_new1,2024.2.4,60.03770365746171,2025-02-28 14h12.37.405724 +0000,
cube_l.png,0.1,-0.31,valid,51,51,0,up,5.5510136999655515,None,space,0.3805598000762984,None,,,,,,,,,0,51,51,51,880.3070966000669,,,,,,,,,,,,,880.2921609000769,880.3070966000669,880.3070966000669,880.3070966000669,885.8691098999698,,,,885.8807683000341,885.8911652000388,885.8911652000388,885.934740900062,885.9350910000503,885.9513435000554,885.9513435000554,885.9513435000554,886.0345242000185,886.3354608999798,,,,,,,,,,,,,,,,,,,,,,up,5.5510136999655515,None,space,0.3805598000762984,None,P131,001,2025-02-28_14h12.29.087,posner_endo_new1,2024.2.4,60.03770365746171,2025-02-28 14h12.37.405724 +0000,
cube_r.png,0.1,-0.31,invalid,52,52,0,up,4.914951300015673,None,space,0.4680214000400156,None,,,,,,,,,0,52,52,52,886.3509367000079,,,,,,,,,,,,,886.3357555000111,886.3509367000079,886.3509367000079,886.3509367000079,891.2803337000078,,,,891.2917942999629,891.3022638000548,891.3022638000548,891.345929000061,891.3462828999618,891.3623858999927,891.3623858999927,891.3623858999927,891.4455831999658,891.8463808000088,,,,,,,,,,,,,,,,,,,,,,up,4.914951300015673,None,space,0.4680214000400156,None,P131,001,2025-02-28_14h12.29.087,posner_endo_new1,2024.2.4,60.03770365746171,2025-02-28 14h12.37.405724 +0000,
cube_l.png,0.1,-0.31,valid,53,53,0,up,5.052639600005932,None,space,0.4041467000497505,None,,,,,,,,,0,53,53,53,891.8617795000318,,,,,,,,,,,,,891.846678800066,891.8617795000318,891.8617795000318,891.8617795000318,896.9245948999887,,,,896.9343899000669,896.9441350999987,896.9441350999987,896.9899250000017,896.9901731000282,897.0065376000712,897.0065376000712,897.0065376000712,897.0896304000635,897.4235138000222,,,,,,,,,,,,,,,,,,,,,,up,5.052639600005932,None,space,0.4041467000497505,None,P131,001,2025-02-28_14h12.29.087,posner_endo_new1,2024.2.4,60.03770365746171,2025-02-28 14h12.37.405724 +0000,
cube_r.png,0.1,10,catch,54,54,0,up,5.90669600002002,None,None,,,,,,,,,,,0,54,54,54,897.4395469999872,,,,,,,,,,,,,897.4237195000751,897.4395469999872,897.4395469999872,897.4395469999872,903.3509298000718,,,,903.3582675000653,903.3697496000677,903.3697496000677,903.4167616000632,903.4170126999961,903.4334088000469,903.4334088000469,903.4334088000469,903.5164944999851,906.4307718999917,,,,905.5311760000186,906.4469520000275,906.4469520000275,906.4469520000275,,,,,,,,,,,,,,,up,5.90669600002002,None,None,,,P131,001,2025-02-28_14h12.29.087,posner_endo_new1,2024.2.4,60.03770365746171,2025-02-28 14h12.37.405724 +0000,
cube_l.png,0.1,0.31,invalid,55,55,0,up,6.394920399994589,None,space,0.41568680002819747,None,,,,,,,,,0,55,55,55,906.4469520000275,,,,,,,,,,,,,906.4309595000232,906.4469520000275,906.4469520000275,906.4469520000275,912.857822000049,,,,912.8652492000256,912.8767001000233,912.8767001000233,912.9236432000762,912.9238936000038,912.9401733999839,912.9401733999839,912.9401733999839,913.0234787999652,913.3575360999675,,,,,,,,,,,,,,,,,,,,,,up,6.394920399994589,None,space,0.41568680002819747,None,P131,001,2025-02-28_14h12.29.087,posner_endo_new1,2024.2.4,60.03770365746171,2025-02-28 14h12.37.405724 +0000,
cube_l.png,0.1,-0.31,valid,56,56,0,up,5.476848200079985,None,space,0.41339500003959984,None,,,,,,,,,0,56,56,56,913.373021400068,,,,,,,,,,,,,913.3577355999732,913.373021400068,913.373021400068,913.373021400068,918.851660400047,,,,918.8590262000216,918.8705758000724,918.8705758000724,918.9176689999877,918.9179216000484,918.9339922000654,918.9339922000654,918.9339922000654,919.000791599974,919.351239999989,,,,,,,,,,,,,,,,,,,,,,up,5.476848200079985,None,space,0.41339500003959984,None,P131,001,2025-02-28_14h12.29.087,posner_endo_new1,2024.2.4,60.03770365746171,2025-02-28 14h12.37.405724 +0000,
cube_r.png,0.1,0.31,valid,57,57,0,up,4.755164799978957,None,space,0.34654349996708333,None,,,,,,,,,0,57,57,57,919.3672984000295,,,,,,,,,,,,,919.3514498000732,919.3672984000295,919.3672984000295,919.3672984000295,924.1294925999828,,,,924.1355796999997,924.1467074999819,924.1467074999819,924.1955257999944,924.1960447999882,924.2119114999659,924.2119114999659,924.2119114999659,924.295148300007,924.5636027000146,,,,,,,,,,,,,,,,,,,,,,up,4.755164799978957,None,space,0.34654349996708333,None,P131,001,2025-02-28_14h12.29.087,posner_endo_new1,2024.2.4,60.03770365746171,2025-02-28 14h12.37.405724 +0000,
cube_r.png,0.1,-0.31,invalid,58,58,0,up,5.167902899906039,None,space,0.6541031000670046,None,,,,,,,,,0,58,58,58,924.5782008999959,,,,,,,,,,,,,924.5640602000058,924.5782008999959,924.5782008999959,924.5782008999959,929.7576641000342,,,,929.7691432000138,929.779415099998,929.779415099998,929.8232645000098,929.8236084000673,929.8397408999735,929.8397408999735,929.8397408999735,929.9230776000768,930.506866700016,,,,,,,,,,,,,,,,,,,,,,up,5.167902899906039,None,space,0.6541031000670046,None,P131,001,2025-02-28_14h12.29.087,posner_endo_new1,2024.2.4,60.03770365746171,2025-02-28 14h12.37.405724 +0000,
cube_l.png,0.1,0.31,invalid,59,59,0,up,4.744001699960791,None,space,0.4895768000278622,None,,,,,,,,,0,59,59,59,930.5225362000056,,,,,,,,,,,,,930.5071603000397,930.5225362000056,930.5225362000056,930.5225362000056,935.2687025000341,,,,935.2801778999856,935.2904761000536,935.2904761000536,935.3343021000037,935.3346485999646,935.3507603000617,935.3507603000617,935.3507603000617,935.4341103000334,935.8515142999822,,,,,,,,,,,,,,,,,,,,,,up,4.744001699960791,None,space,0.4895768000278622,None,P131,001,2025-02-28_14h12.29.087,posner_endo_new1,2024.2.4,60.03770365746171,2025-02-28 14h12.37.405724 +0000,
