cue_img,cue_soa,target_y,trial,thisN,thisTrialN,thisRepN,key_control2.keys,key_control2.rt,key_control2.duration,key_resp.keys,key_resp.rt,key_resp.duration,practice.thisRepN,practice.thisTrialN,practice.thisN,practice.thisIndex,block1.thisRepN,block1.thisTrialN,block1.thisN,block1.thisIndex,block2.thisRepN,block2.thisTrialN,block2.thisN,block2.thisIndex,thisRow.t,notes,instructions.started,instructions_txt.started,key_control.started,instructions.stopped,key_control.keys,key_control.rt,key_control.duration,ready.started,ready_txt.started,ready_txt.stopped,ready.stopped,fix.started,fixation.started,key_control2.started,fixation_cross.started,fix.stopped,practice.key_control2.keys,practice.key_control2.rt,practice.key_control2.duration,cue.started,cube.started,fixation_cross_cue.started,cue.stopped,target.started,fixation_target.started,fixation_cross_target.started,key_resp.started,star.started,target.stopped,practice.key_resp.keys,practice.key_resp.rt,practice.key_resp.duration,star.stopped,fixation_target.stopped,fixation_cross_target.stopped,key_resp.stopped,block1.key_control2.keys,block1.key_control2.rt,block1.key_control2.duration,block1.key_resp.keys,block1.key_resp.rt,block1.key_resp.duration,break_2.started,text.started,key_control3.started,text.stopped,break_2.stopped,key_control3.keys,key_control3.rt,key_control3.duration,block2.key_control2.keys,block2.key_control2.rt,block2.key_control2.duration,block2.key_resp.keys,block2.key_resp.rt,block2.key_resp.duration,participant,session,date,expName,psychopyVersion,frameRate,expStart,
,,,,,,,,,,,,,,,,,,,,,,,,,,,0.007393199950456619,0.023056000005453825,0.023056000005453825,6.506157299969345,up,6.471249700058252,None,,,,,,,,,,,,,,,,,,,,,,,,,,,,,,,,,,,,,,,,,,,,,,,,,,P132,001,2025-03-06_11h17.36.190,posner_endo_new1,2024.2.4,60.00718890199849,2025-03-06 11h18.13.147259 +0000,
,,,,,,,,,,,,,,,,,,,,,,,,,,,,,,,,,,6.506226799916476,6.518129399977624,9.521144200116396,9.498059300007299,,,,,,,,,,,,,,,,,,,,,,,,,,,,,,,,,,,,,,,,,,,,,,P132,001,2025-03-06_11h17.36.190,posner_endo_new1,2024.2.4,60.00718890199849,2025-03-06 11h18.13.147259 +0000,
cube_l.png,0.1,-0.31,valid,0,0,0,down,11.230317099951208,None,space,0.7046845001168549,None,0,0,0,0,,,,,,,,,9.521144200116396,,,,,,,,,,,,,9.509588500019163,9.521144200116396,9.521144200116396,9.521144200116396,20.75401209993288,down,11.230317099951208,None,20.772061200113967,20.783013300038874,20.783013300038874,20.819381800014526,20.819607899989933,20.836008199956268,20.836008199956268,20.836008199956268,20.91915290011093,21.55261019989848,space,0.7046845001168549,None,,,,,,,,,,,,,,,,,,,,,,,,,P132,001,2025-03-06_11h17.36.190,posner_endo_new1,2024.2.4,60.00718890199849,2025-03-06 11h18.13.147259 +0000,
cube_l.png,0.1,0.31,invalid,1,1,0,down,5.48609480005689,None,space,0.42126039997674525,None,0,1,1,1,,,,,,,,,21.568489799974486,,,,,,,,,,,,,21.552777600008994,21.568489799974486,21.568489799974486,21.568489799974486,27.06403149990365,down,5.48609480005689,None,27.075667399913073,27.0858418000862,27.0858418000862,27.129554900107905,27.129872699966654,27.146143600111827,27.146143600111827,27.146143600111827,27.229456699918956,27.58008769992739,space,0.42126039997674525,None,,,,,,,,,,,,,,,,,,,,,,,,,P132,001,2025-03-06_11h17.36.190,posner_endo_new1,2024.2.4,60.00718890199849,2025-03-06 11h18.13.147259 +0000,
cube_r.png,0.1,-0.31,invalid,2,2,0,down,4.5629213999491185,None,space,0.4329967999365181,None,0,2,2,2,,,,,,,,,27.59576730011031,,,,,,,,,,,,,27.580334600061178,27.59576730011031,27.59576730011031,27.59576730011031,32.1754642999731,down,4.5629213999491185,None,32.18813559995033,32.19799880008213,32.19799880008213,32.24115790007636,32.24147529993206,32.25764860003255,32.25764860003255,32.25764860003255,32.34090789989568,32.69170510000549,space,0.4329967999365181,None,,,,,,,,,,,,,,,,,,,,,,,,,P132,001,2025-03-06_11h17.36.190,posner_endo_new1,2024.2.4,60.00718890199849,2025-03-06 11h18.13.147259 +0000,
cube_r.png,0.1,10,catch,3,3,0,down,5.2588986998889595,None,None,,,0,3,3,3,,,,,,,,,32.707179700024426,,,,,,,,,,,,,32.6919501000084,32.707179700024426,32.707179700024426,32.707179700024426,37.96953470003791,down,5.2588986998889595,None,37.97868059994653,37.98845489998348,37.98845489998348,38.03505229996517,38.0352811999619,38.05164880002849,38.05164880002849,38.05164880002849,38.134923399891704,41.04893979988992,None,,,40.1493961000815,41.06521359994076,41.06521359994076,41.06521359994076,,,,,,,,,,,,,,,,,,,,,P132,001,2025-03-06_11h17.36.190,posner_endo_new1,2024.2.4,60.00718890199849,2025-03-06 11h18.13.147259 +0000,
cube_l.png,0.1,-0.31,valid,4,4,0,down,1.0612967999186367,None,space,0.37816740013659,None,0,4,4,4,,,,,,,,,41.06521359994076,,,,,,,,,,,,,41.0490967000369,41.06521359994076,41.06521359994076,41.06521359994076,42.13202130002901,down,1.0612967999186367,None,42.14286189991981,42.15291550010443,42.15291550010443,42.19762749993242,42.19793980009854,42.21404460002668,42.21404460002668,42.21404460002668,42.29739210009575,42.59814819996245,space,0.37816740013659,None,,,,,,,,,,,,,,,,,,,,,,,,,P132,001,2025-03-06_11h17.36.190,posner_endo_new1,2024.2.4,60.00718890199849,2025-03-06 11h18.13.147259 +0000,
cube_l.png,0.1,0.31,invalid,5,5,0,down,3.937150200130418,None,space,0.3960901000536978,None,0,5,5,5,,,,,,,,,42.613752600038424,,,,,,,,,,,,,42.598390500061214,42.613752600038424,42.613752600038424,42.613752600038424,46.56074719992466,down,3.937150200130418,None,46.571855100104585,46.5819107000716,46.5819107000716,46.626448600087315,46.626762999920174,46.64283349993639,46.64283349993639,46.64283349993639,46.726232500048354,47.043169300071895,space,0.3960901000536978,None,,,,,,,,,,,,,,,,,,,,,,,,,P132,001,2025-03-06_11h17.36.190,posner_endo_new1,2024.2.4,60.00718890199849,2025-03-06 11h18.13.147259 +0000,
cube_r.png,0.1,-0.31,invalid,6,6,0,down,3.7795111001469195,None,space,0.4594980999827385,None,0,6,6,6,,,,,,,,,47.05914300004952,,,,,,,,,,,,,47.04333969997242,47.05914300004952,47.05914300004952,47.05914300004952,50.83939599990845,down,3.7795111001469195,None,50.8467687999364,50.858123200014234,50.858123200014234,50.90528690000065,50.90551700000651,50.92186770006083,50.92186770006083,50.92186770006083,50.98846590006724,51.38863929989748,space,0.4594980999827385,None,,,,,,,,,,,,,,,,,,,,,,,,,P132,001,2025-03-06_11h17.36.190,posner_endo_new1,2024.2.4,60.00718890199849,2025-03-06 11h18.13.147259 +0000,
cube_r.png,0.1,0.31,valid,7,7,0,down,4.0415387998800725,None,space,0.5716618001461029,None,0,7,7,7,,,,,,,,,51.404701200081035,,,,,,,,,,,,,51.388806000119075,51.404701200081035,51.404701200081035,51.404701200081035,55.45132840005681,down,4.0415387998800725,None,55.45801359997131,55.46979449992068,55.46979449992068,55.51726459991187,55.517495200037956,55.53376189991832,55.53376189991832,55.53376189991832,55.60042789997533,56.11736520007253,space,0.5716618001461029,None,,,,,,,,,,,,,,,,,,,,,,,,,P132,001,2025-03-06_11h17.36.190,posner_endo_new1,2024.2.4,60.00718890199849,2025-03-06 11h18.13.147259 +0000,
cube_l.png,0.1,-0.31,valid,8,8,0,down,4.0010896001476794,None,space,0.34461720008403063,None,0,8,8,8,,,,,,,,,56.13319809990935,,,,,,,,,,,,,56.11753059993498,56.13319809990935,56.13319809990935,56.13319809990935,60.14652210008353,down,4.0010896001476794,None,60.15343099995516,60.16508390009403,60.16508390009403,60.212386100087315,60.21261620009318,60.22883230005391,60.22883230005391,60.22883230005391,60.29551269998774,60.57935300003737,space,0.34461720008403063,None,,,,,,,,,,,,,,,,,,,,,,,,,P132,001,2025-03-06_11h17.36.190,posner_endo_new1,2024.2.4,60.00718890199849,2025-03-06 11h18.13.147259 +0000,
cube_r.png,0.1,-0.31,invalid,9,9,0,down,4.603136399993673,None,space,0.5027895998209715,None,0,9,9,9,,,,,,,,,60.59526599990204,,,,,,,,,,,,,60.57952230004594,60.59526599990204,60.59526599990204,60.59526599990204,65.20830400008708,down,4.603136399993673,None,65.21943640010431,65.2296798999887,65.2296798999887,65.27400290011428,65.27431849995628,65.29051459999755,65.29051459999755,65.29051459999755,65.37381989997812,65.8078000000678,space,0.5027895998209715,None,,,,,,,,,,,,,,,,,,,,,,,,,P132,001,2025-03-06_11h17.36.190,posner_endo_new1,2024.2.4,60.00718890199849,2025-03-06 11h18.13.147259 +0000,
cube_r.png,0.1,0.31,valid,10,10,0,down,3.495055199833587,None,space,0.37718679988756776,None,0,10,10,10,,,,,,,,,65.82339860009961,,,,,,,,,,,,,65.8080410999246,65.82339860009961,65.82339860009961,65.82339860009961,69.32085349992849,down,3.495055199833587,None,69.33162469998933,69.34168569999747,69.34168569999747,69.38643499999307,69.38675000006333,69.40298960008658,69.40298960008658,69.40298960008658,69.4861500998959,69.78716240008362,space,0.37718679988756776,None,,,,,,,,,,,,,,,,,,,,,,,,,P132,001,2025-03-06_11h17.36.190,posner_endo_new1,2024.2.4,60.00718890199849,2025-03-06 11h18.13.147259 +0000,
,,,,,,,,,,,,,,,,,,,,,,,,,,,,,,,,,,69.78732130001299,69.80249990010634,72.81196049996652,72.78344450006261,,,,,,,,,,,,,,,,,,,,,,,,,,,,,,,,,,,,,,,,,,,,,,P132,001,2025-03-06_11h17.36.190,posner_endo_new1,2024.2.4,60.00718890199849,2025-03-06 11h18.13.147259 +0000,
cube_l.png,0.1,10,catch,0,0,0,down,3.4663992000278085,None,None,,,,,,,0,0,0,0,,,,,72.81196049996652,,,,,,,,,,,,,72.80272029992193,72.81196049996652,72.81196049996652,72.81196049996652,76.28018829994835,,,,76.28695899993181,76.29864270007238,76.29864270007238,76.34596369997598,76.34620000002906,76.36260819993913,76.36260819993913,76.36260819993913,76.44580029998906,79.35993009991944,,,,78.46023859991692,79.37607720005326,79.37607720005326,79.37607720005326,down,3.4663992000278085,None,None,,,,,,,,,,,,,,,,,P132,001,2025-03-06_11h17.36.190,posner_endo_new1,2024.2.4,60.00718890199849,2025-03-06 11h18.13.147259 +0000,
cube_l.png,0.1,10,catch,1,1,0,down,0.47066679992713034,None,None,,,,,,,0,1,1,1,,,,,79.37607720005326,,,,,,,,,,,,,79.36009450000711,79.37607720005326,79.37607720005326,79.37607720005326,79.85964470007457,,,,79.86634949990548,79.87797480006702,79.87797480006702,79.92575570009649,79.92598830000497,79.94216470001265,79.94216470001265,79.94216470001265,80.00880039995536,82.93980469997041,,,,82.02338430006057,82.95578319998458,82.95578319998458,82.95578319998458,down,0.47066679992713034,None,None,,,,,,,,,,,,,,,,,P132,001,2025-03-06_11h17.36.190,posner_endo_new1,2024.2.4,60.00718890199849,2025-03-06 11h18.13.147259 +0000,
cube_l.png,0.1,0.31,invalid,2,2,0,down,0.7711461000144482,None,space,0.40413769986480474,None,,,,,0,2,2,2,,,,,82.95578319998458,,,,,,,,,,,,,82.94007740006782,82.95578319998458,82.95578319998458,82.95578319998458,83.73942070011981,,,,83.75181880011223,83.76224129996262,83.76224129996262,83.80501049989834,83.80526400008239,83.82153919991106,83.82153919991106,83.82153919991106,83.90474770008586,84.23850929993205,,,,,,,,down,0.7711461000144482,None,space,0.40413769986480474,None,,,,,,,,,,,,,,,P132,001,2025-03-06_11h17.36.190,posner_endo_new1,2024.2.4,60.00718890199849,2025-03-06 11h18.13.147259 +0000,
cube_l.png,0.1,0.31,invalid,3,3,0,down,3.888075500028208,None,space,0.4773861998692155,None,,,,,0,3,3,3,,,,,84.25423189997673,,,,,,,,,,,,,84.23871139995754,84.25423189997673,84.25423189997673,84.25423189997673,88.15184319997206,,,,88.16400009999052,88.17426100000739,88.17426100000739,88.21719949995168,88.21745839994401,88.23370240000077,88.23370240000077,88.23370240000077,88.31683419994079,88.71697379997931,,,,,,,,down,3.888075500028208,None,space,0.4773861998692155,None,,,,,,,,,,,,,,,P132,001,2025-03-06_11h17.36.190,posner_endo_new1,2024.2.4,60.00718890199849,2025-03-06 11h18.13.147259 +0000,
cube_l.png,0.1,-0.31,valid,4,4,0,down,3.4569963000249118,None,space,0.4288874000776559,None,,,,,0,4,4,4,,,,,88.7330767000094,,,,,,,,,,,,,88.71718270005658,88.7330767000094,88.7330767000094,88.7330767000094,92.19694779999554,,,,92.20488109998405,92.21581460000016,92.21581460000016,92.262877299916,92.263131899992,92.27931730006821,92.27931730006821,92.27931730006821,92.34611729998142,92.71322109992616,,,,,,,,down,3.4569963000249118,None,space,0.4288874000776559,None,,,,,,,,,,,,,,,P132,001,2025-03-06_11h17.36.190,posner_endo_new1,2024.2.4,60.00718890199849,2025-03-06 11h18.13.147259 +0000,
cube_r.png,0.1,-0.31,invalid,5,5,0,down,4.813168599968776,None,space,0.38085730001330376,None,,,,,0,5,5,5,,,,,92.72909629996866,,,,,,,,,,,,,92.71341950003989,92.72909629996866,92.72909629996866,92.72909629996866,97.55836990009993,,,,97.56659740000032,97.57702749990858,97.57702749990858,97.62412420008332,97.62464749999344,97.64055299991742,97.64055299991742,97.64055299991742,97.72380709997378,98.02547840005718,,,,,,,,down,4.813168599968776,None,space,0.38085730001330376,None,,,,,,,,,,,,,,,P132,001,2025-03-06_11h17.36.190,posner_endo_new1,2024.2.4,60.00718890199849,2025-03-06 11h18.13.147259 +0000,
cube_r.png,0.1,0.31,valid,6,6,0,down,4.422767100157216,None,space,0.39971130015328526,None,,,,,0,6,6,6,,,,,98.04013439989649,,,,,,,,,,,,,98.02591650001705,98.04013439989649,98.04013439989649,98.04013439989649,102.470398100093,,,,102.47980670002289,102.4896521999035,102.4896521999035,102.53571740002371,102.53597460011952,102.55240599997342,102.55240599997342,102.55240599997342,102.63545800000429,102.95295280008577,,,,,,,,down,4.422767100157216,None,space,0.39971130015328526,None,,,,,,,,,,,,,,,P132,001,2025-03-06_11h17.36.190,posner_endo_new1,2024.2.4,60.00718890199849,2025-03-06 11h18.13.147259 +0000,
cube_r.png,0.1,-0.31,invalid,7,7,0,down,4.574401099933311,None,space,0.47262859996408224,None,,,,,0,7,7,7,,,,,102.96860940009356,,,,,,,,,,,,,102.95315279997885,102.96860940009356,102.96860940009356,102.96860940009356,107.54820109996945,,,,107.55599620006979,107.56681200000457,107.56681200000457,107.61393320001662,107.61445449991152,107.63031819998287,107.63031819998287,107.63031819998287,107.7136315999087,108.11494289990515,,,,,,,,down,4.574401099933311,None,space,0.47262859996408224,None,,,,,,,,,,,,,,,P132,001,2025-03-06_11h17.36.190,posner_endo_new1,2024.2.4,60.00718890199849,2025-03-06 11h18.13.147259 +0000,
cube_l.png,0.1,-0.31,valid,8,8,0,down,3.5813259000424296,None,space,0.46031730016693473,None,,,,,0,8,8,8,,,,,108.12986880005337,,,,,,,,,,,,,108.11538579990156,108.12986880005337,108.12986880005337,108.12986880005337,111.72758880001493,,,,111.73909990000539,111.74902119999751,111.74902119999751,111.79321809997782,111.79355979990214,111.80976619990543,111.80976619990543,111.80976619990543,111.8930116998963,112.27700449991971,,,,,,,,down,3.5813259000424296,None,space,0.46031730016693473,None,,,,,,,,,,,,,,,P132,001,2025-03-06_11h17.36.190,posner_endo_new1,2024.2.4,60.00718890199849,2025-03-06 11h18.13.147259 +0000,
cube_r.png,0.1,-0.31,invalid,9,9,0,down,4.137816300150007,None,space,0.4174383000936359,None,,,,,0,9,9,9,,,,,112.29262809990905,,,,,,,,,,,,,112.27728529996239,112.29262809990905,112.29262809990905,112.29262809990905,116.43938799994066,,,,116.45097199990414,116.46128130005673,116.46128130005673,116.50509390002117,116.50544059998356,116.5218197000213,116.5218197000213,116.5218197000213,116.6048433999531,116.95571579993702,,,,,,,,down,4.137816300150007,None,space,0.4174383000936359,None,,,,,,,,,,,,,,,P132,001,2025-03-06_11h17.36.190,posner_endo_new1,2024.2.4,60.00718890199849,2025-03-06 11h18.13.147259 +0000,
cube_l.png,0.1,0.31,invalid,10,10,0,down,3.076025300193578,None,space,0.4842688001226634,None,,,,,0,10,10,10,,,,,116.97101729991846,,,,,,,,,,,,,116.95599370007403,116.97101729991846,116.97101729991846,116.97101729991846,120.05228760000318,,,,120.06399110006168,120.07426530006342,120.07426530006342,120.11793869989924,120.11829130002297,120.13452650001273,120.13452650001273,120.13452650001273,120.21783440001309,120.63521700003184,,,,,,,,down,3.076025300193578,None,space,0.4842688001226634,None,,,,,,,,,,,,,,,P132,001,2025-03-06_11h17.36.190,posner_endo_new1,2024.2.4,60.00718890199849,2025-03-06 11h18.13.147259 +0000,
cube_r.png,0.1,-0.31,invalid,11,11,0,down,4.3793788000475615,None,space,0.3933789001312107,None,,,,,0,11,11,11,,,,,120.6506429000292,,,,,,,,,,,,,120.63549789995886,120.6506429000292,120.6506429000292,120.6506429000292,125.04718209989369,,,,125.05885939998552,125.06909070000984,125.06909070000984,125.11291550006717,125.11325819999911,125.12936359993182,125.12936359993182,125.12936359993182,125.21256919996813,125.53001140011474,,,,,,,,down,4.3793788000475615,None,space,0.3933789001312107,None,,,,,,,,,,,,,,,P132,001,2025-03-06_11h17.36.190,posner_endo_new1,2024.2.4,60.00718890199849,2025-03-06 11h18.13.147259 +0000,
cube_r.png,0.1,0.31,valid,12,12,0,down,4.412802199833095,None,space,0.38575809984467924,None,,,,,0,12,12,12,,,,,125.54573930008337,,,,,,,,,,,,,125.53028950002044,125.54573930008337,125.54573930008337,125.54573930008337,129.97551680007018,,,,129.98713160003535,129.99704960011877,129.99704960011877,130.04119660006836,130.04154250002466,130.0577996999491,130.0577996999491,130.0577996999491,130.14096269989386,130.45850219996646,,,,,,,,down,4.412802199833095,None,space,0.38575809984467924,None,,,,,,,,,,,,,,,P132,001,2025-03-06_11h17.36.190,posner_endo_new1,2024.2.4,60.00718890199849,2025-03-06 11h18.13.147259 +0000,
cube_l.png,0.1,10,catch,13,13,0,down,4.805697200121358,None,None,,,,,,,0,13,13,13,,,,,130.4738763999194,,,,,,,,,,,,,130.4587818,130.4738763999194,130.4738763999194,130.4738763999194,135.2867046999745,,,,135.29749769996852,135.307051199954,135.307051199954,135.35231580003165,135.35256000002846,135.36890610004775,135.36890610004775,135.36890610004775,135.45206080004573,138.3662795999553,,,,137.46677460009232,138.38239459996112,138.38239459996112,138.38239459996112,down,4.805697200121358,None,None,,,,,,,,,,,,,,,,,P132,001,2025-03-06_11h17.36.190,posner_endo_new1,2024.2.4,60.00718890199849,2025-03-06 11h18.13.147259 +0000,
cube_r.png,0.1,-0.31,invalid,14,14,0,down,2.832713200012222,None,space,0.5233764001168311,None,,,,,0,14,14,14,,,,,138.38239459996112,,,,,,,,,,,,,138.36645570001565,138.38239459996112,138.38239459996112,138.38239459996112,141.23019940010272,,,,141.23795869993046,141.2488496999722,141.2488496999722,141.29633960011415,141.29658539989032,141.31271540001035,141.31271540001035,141.31271540001035,141.37944240006618,141.84640010003932,,,,,,,,down,2.832713200012222,None,space,0.5233764001168311,None,,,,,,,,,,,,,,,P132,001,2025-03-06_11h17.36.190,posner_endo_new1,2024.2.4,60.00718890199849,2025-03-06 11h18.13.147259 +0000,
cube_l.png,0.1,-0.31,valid,15,15,0,down,4.0480762999504805,None,space,0.43421849980950356,None,,,,,0,15,15,15,,,,,141.8622944999952,,,,,,,,,,,,,141.84658990008757,141.8622944999952,141.8622944999952,141.8622944999952,145.92553839995526,,,,145.93288340000436,145.94434059993364,145.94434059993364,145.99133439990692,145.99157790001482,146.00798880006187,146.00798880006187,146.00798880006187,146.07469210005365,146.4584162000101,,,,,,,,down,4.0480762999504805,None,space,0.43421849980950356,None,,,,,,,,,,,,,,,P132,001,2025-03-06_11h17.36.190,posner_endo_new1,2024.2.4,60.00718890199849,2025-03-06 11h18.13.147259 +0000,
cube_r.png,0.1,10,catch,16,16,0,down,4.572336100041866,None,None,,,,,,,0,16,16,16,,,,,146.4740705001168,,,,,,,,,,,,,146.4586034999229,146.4740705001168,146.4740705001168,146.4740705001168,151.05351560004056,,,,151.0608632999938,151.07257619989105,151.07257619989105,151.11951610003598,151.12003999995068,151.13589249993674,151.13589249993674,151.13589249993674,151.21914490009658,154.13357360009104,,,,153.23406099993736,154.1496278999839,154.1496278999839,154.1496278999839,down,4.572336100041866,None,None,,,,,,,,,,,,,,,,,P132,001,2025-03-06_11h17.36.190,posner_endo_new1,2024.2.4,60.00718890199849,2025-03-06 11h18.13.147259 +0000,
cube_r.png,0.1,10,catch,17,17,0,down,2.1924179999623448,None,None,,,,,,,0,17,17,17,,,,,154.1496278999839,,,,,,,,,,,,,154.13373650005087,154.1496278999839,154.1496278999839,154.1496278999839,156.34820390003733,,,,156.35528489993885,156.36689820000902,156.36689820000902,156.41422870010138,156.41445869999006,156.43067910009995,156.43067910009995,156.43067910009995,156.497290099971,159.42819510004483,,,,158.51199209992774,159.4442155000288,159.4442155000288,159.4442155000288,down,2.1924179999623448,None,None,,,,,,,,,,,,,,,,,P132,001,2025-03-06_11h17.36.190,posner_endo_new1,2024.2.4,60.00718890199849,2025-03-06 11h18.13.147259 +0000,
cube_l.png,0.1,0.31,invalid,18,18,0,down,1.906817700015381,None,space,0.5236208999995142,None,,,,,0,18,18,18,,,,,159.4442155000288,,,,,,,,,,,,,159.42835929989815,159.4442155000288,159.4442155000288,159.4442155000288,161.35983370011672,,,,161.36663939990103,161.37832179991528,161.37832179991528,161.4257167999167,161.42594680003822,161.44229470007122,161.44229470007122,161.44229470007122,161.50879550003447,161.97575079998933,,,,,,,,down,1.906817700015381,None,space,0.5236208999995142,None,,,,,,,,,,,,,,,P132,001,2025-03-06_11h17.36.190,posner_endo_new1,2024.2.4,60.00718890199849,2025-03-06 11h18.13.147259 +0000,
cube_l.png,0.1,10,catch,19,19,0,down,3.847045199945569,None,None,,,,,,,0,19,19,19,,,,,161.99154930002987,,,,,,,,,,,,,161.97592659993097,161.99154930002987,161.99154930002987,161.99154930002987,165.85507529997267,,,,165.86183280008845,165.87338229990564,165.87338229990564,165.92102700006217,165.92125719995238,165.93753889994696,165.93753889994696,165.93753889994696,166.00424379995093,168.93511279998347,,,,168.0193098001182,168.95130049996078,168.95130049996078,168.95130049996078,down,3.847045199945569,None,None,,,,,,,,,,,,,,,,,P132,001,2025-03-06_11h17.36.190,posner_endo_new1,2024.2.4,60.00718890199849,2025-03-06 11h18.13.147259 +0000,
cube_l.png,0.1,0.31,invalid,20,20,0,down,2.183934099972248,None,space,0.4686912000179291,None,,,,,0,20,20,20,,,,,168.95130049996078,,,,,,,,,,,,,168.93527700006962,168.95130049996078,168.95130049996078,168.95130049996078,171.14982750010677,,,,171.15619889996015,171.16823579999618,171.16823579999618,171.21580059989356,171.21602989989333,171.23235419997945,171.23235419997945,171.23235419997945,171.29879719996825,171.71583759994246,,,,,,,,down,2.183934099972248,None,space,0.4686912000179291,None,,,,,,,,,,,,,,,P132,001,2025-03-06_11h17.36.190,posner_endo_new1,2024.2.4,60.00718890199849,2025-03-06 11h18.13.147259 +0000,
cube_l.png,0.1,-0.31,valid,21,21,0,down,4.203466099919751,None,space,0.41586360009387136,None,,,,,0,21,21,21,,,,,171.7316002000589,,,,,,,,,,,,,171.71601180010475,171.7316002000589,171.7316002000589,171.7316002000589,175.94477270008065,,,,175.95117429993115,175.96300480002537,175.96300480002537,176.01074959989637,176.0109810999129,176.02733539999463,176.02733539999463,176.02733539999463,176.09387529990636,176.44432869995944,,,,,,,,down,4.203466099919751,None,space,0.41586360009387136,None,,,,,,,,,,,,,,,P132,001,2025-03-06_11h17.36.190,posner_endo_new1,2024.2.4,60.00718890199849,2025-03-06 11h18.13.147259 +0000,
cube_r.png,0.1,0.31,valid,22,22,0,down,4.498427500016987,None,space,0.5599776001181453,None,,,,,0,22,22,22,,,,,176.46022249991074,,,,,,,,,,,,,176.44451220007613,176.46022249991074,176.46022249991074,176.46022249991074,180.97344750002958,,,,180.98856489988975,180.99905860004947,180.99905860004947,181.03872140008025,181.03916950011626,181.0551672000438,181.0551672000438,181.0551672000438,181.13879640004598,181.62267519999295,,,,,,,,down,4.498427500016987,None,space,0.5599776001181453,None,,,,,,,,,,,,,,,P132,001,2025-03-06_11h17.36.190,posner_endo_new1,2024.2.4,60.00718890199849,2025-03-06 11h18.13.147259 +0000,
cube_r.png,0.1,-0.31,invalid,23,23,0,down,4.00834279996343,None,space,0.5662042999174446,None,,,,,0,23,23,23,,,,,181.63822619989514,,,,,,,,,,,,,181.62293029995635,181.63822619989514,181.63822619989514,181.63822619989514,185.65191880008206,,,,185.6619174000807,185.67215800005943,185.67215800005943,185.71763919992372,185.717955699889,185.73408049996942,185.73408049996942,185.73408049996942,185.81730860006064,186.30134520004503,,,,,,,,down,4.00834279996343,None,space,0.5662042999174446,None,,,,,,,,,,,,,,,P132,001,2025-03-06_11h17.36.190,posner_endo_new1,2024.2.4,60.00718890199849,2025-03-06 11h18.13.147259 +0000,
cube_r.png,0.1,0.31,valid,24,24,0,down,4.625841800123453,None,space,0.6210936999414116,None,,,,,0,24,24,24,,,,,186.31688840012066,,,,,,,,,,,,,186.3015986001119,186.31688840012066,186.31688840012066,186.31688840012066,190.94628409994766,,,,190.95240329997614,190.96421339991502,190.96421339991502,191.01213559997268,191.0123670999892,191.0286453999579,191.0286453999579,191.0286453999579,191.09516740008257,191.6620269000996,,,,,,,,down,4.625841800123453,None,space,0.6210936999414116,None,,,,,,,,,,,,,,,P132,001,2025-03-06_11h17.36.190,posner_endo_new1,2024.2.4,60.00718890199849,2025-03-06 11h18.13.147259 +0000,
cube_r.png,0.1,-0.31,invalid,25,25,0,down,4.064393900102004,None,space,0.4401322999037802,None,,,,,0,25,25,25,,,,,191.67804910009727,,,,,,,,,,,,,191.66220690007322,191.67804910009727,191.67804910009727,191.67804910009727,195.75785490009002,,,,195.76394929992966,195.77550249989145,195.77550249989145,195.82378170010634,195.82401280011982,195.84043490001932,195.84043490001932,195.84043490001932,195.9070111999754,196.2907287001144,,,,,,,,down,4.064393900102004,None,space,0.4401322999037802,None,,,,,,,,,,,,,,,P132,001,2025-03-06_11h17.36.190,posner_endo_new1,2024.2.4,60.00718890199849,2025-03-06 11h18.13.147259 +0000,
cube_l.png,0.1,-0.31,valid,26,26,0,down,5.235728699946776,None,space,0.32914169994182885,None,,,,,0,26,26,26,,,,,196.30665059993044,,,,,,,,,,,,,196.29090270004235,196.30665059993044,196.30665059993044,196.30665059993044,201.5520136000123,,,,201.55814930005,201.5698428999167,201.5698428999167,201.6180442001205,201.61828089994378,201.63457769993693,201.63457769993693,201.63457769993693,201.7009952000808,201.96833240007982,,,,,,,,down,5.235728699946776,None,space,0.32914169994182885,None,,,,,,,,,,,,,,,P132,001,2025-03-06_11h17.36.190,posner_endo_new1,2024.2.4,60.00718890199849,2025-03-06 11h18.13.147259 +0000,
cube_r.png,0.1,0.31,valid,27,27,0,down,5.542616399936378,None,space,0.35224949987605214,None,,,,,0,27,27,27,,,,,201.98405300010927,,,,,,,,,,,,,201.96850540000014,201.98405300010927,201.98405300010927,201.98405300010927,207.5293797000777,,,,207.53573850006796,207.5474477999378,207.5474477999378,207.59520699991845,207.5954466999974,207.61168990004808,207.61168990004808,207.61168990004808,207.6950844998937,207.97868439997546,,,,,,,,down,5.542616399936378,None,space,0.35224949987605214,None,,,,,,,,,,,,,,,P132,001,2025-03-06_11h17.36.190,posner_endo_new1,2024.2.4,60.00718890199849,2025-03-06 11h18.13.147259 +0000,
cube_r.png,0.1,10,catch,28,28,0,down,9.547618000069633,None,None,,,,,,,0,28,28,28,,,,,207.99470770009793,,,,,,,,,,,,,207.97886739997193,207.99470770009793,207.99470770009793,207.99470770009793,217.5521450000815,,,,217.55830310005695,217.5701446000021,217.5701446000021,217.61827119998634,217.61850299988873,217.63476440007798,217.63476440007798,217.63476440007798,217.7014248999767,220.63210840011016,,,,219.71599759999663,220.64836809993722,220.64836809993722,220.64836809993722,down,9.547618000069633,None,None,,,,,,,,,,,,,,,,,P132,001,2025-03-06_11h17.36.190,posner_endo_new1,2024.2.4,60.00718890199849,2025-03-06 11h18.13.147259 +0000,
cube_r.png,0.1,0.31,valid,29,29,0,down,1.8944282000884414,None,space,0.4128715998958796,None,,,,,0,29,29,29,,,,,220.64836809993722,,,,,,,,,,,,,220.63227110006846,220.64836809993722,220.64836809993722,220.64836809993722,222.54709900007583,,,,222.55330889998004,222.56490159989335,222.56490159989335,222.6132459999062,222.61347529990599,222.62977540004067,222.62977540004067,222.62977540004067,222.696272399975,223.04684130009264,,,,,,,,down,1.8944282000884414,None,space,0.4128715998958796,None,,,,,,,,,,,,,,,P132,001,2025-03-06_11h17.36.190,posner_endo_new1,2024.2.4,60.00718890199849,2025-03-06 11h18.13.147259 +0000,
cube_r.png,0.1,0.31,valid,30,30,0,down,3.2322931999806315,None,space,0.4498518998734653,None,,,,,0,30,30,30,,,,,223.06258790008724,,,,,,,,,,,,,223.04701499990188,223.06258790008724,223.06258790008724,223.06258790008724,226.31014769989997,,,,226.31635700003244,226.32811630005017,226.32811630005017,226.37597519997507,226.37620600010268,226.392617699923,226.392617699923,226.392617699923,226.4592510999646,226.85945579991676,,,,,,,,down,3.2322931999806315,None,space,0.4498518998734653,None,,,,,,,,,,,,,,,P132,001,2025-03-06_11h17.36.190,posner_endo_new1,2024.2.4,60.00718890199849,2025-03-06 11h18.13.147259 +0000,
cube_l.png,0.1,-0.31,valid,31,31,0,down,3.8513734999578446,None,space,0.3522528999019414,None,,,,,0,31,31,31,,,,,226.87522389995866,,,,,,,,,,,,,226.85963879991323,226.87522389995866,226.87522389995866,226.87522389995866,230.73875269992277,,,,230.7448793000076,230.75655809999444,230.75655809999444,230.80472519993782,230.80495429993607,230.8213055001106,230.8213055001106,230.8213055001106,230.88791979989037,231.18840310000814,,,,,,,,down,3.8513734999578446,None,space,0.3522528999019414,None,,,,,,,,,,,,,,,P132,001,2025-03-06_11h17.36.190,posner_endo_new1,2024.2.4,60.00718890199849,2025-03-06 11h18.13.147259 +0000,
cube_r.png,0.1,0.31,valid,32,32,0,down,3.970642300089821,None,space,0.3730697000864893,None,,,,,0,32,32,32,,,,,231.20433370000683,,,,,,,,,,,,,231.18857620004565,231.20433370000683,231.20433370000683,231.20433370000683,235.1840772998985,,,,235.1901680000592,235.2019328000024,235.2019328000024,235.25019829999655,235.25042830011807,235.26689790003002,235.26689790003002,235.26689790003002,235.33350670011714,235.65064419992268,,,,,,,,down,3.970642300089821,None,space,0.3730697000864893,None,,,,,,,,,,,,,,,P132,001,2025-03-06_11h17.36.190,posner_endo_new1,2024.2.4,60.00718890199849,2025-03-06 11h18.13.147259 +0000,
cube_r.png,0.1,-0.31,invalid,33,33,0,down,4.436650200048462,None,space,0.4222915999125689,None,,,,,0,33,33,33,,,,,235.66633550007828,,,,,,,,,,,,,235.65081760007888,235.66633550007828,235.66633550007828,235.66633550007828,240.11260939994827,,,,240.11862939991988,240.13022019993514,240.13022019993514,240.17860629991628,240.17883799993433,240.19506169995293,240.19506169995293,240.19506169995293,240.261777699925,240.62865659990348,,,,,,,,down,4.436650200048462,None,space,0.4222915999125689,None,,,,,,,,,,,,,,,P132,001,2025-03-06_11h17.36.190,posner_endo_new1,2024.2.4,60.00718890199849,2025-03-06 11h18.13.147259 +0000,
cube_r.png,0.1,10,catch,34,34,0,down,3.4978612000122666,None,None,,,,,,,0,34,34,34,,,,,240.6445897000376,,,,,,,,,,,,,240.62883440009318,240.6445897000376,240.6445897000376,240.6445897000376,244.1583791000303,,,,244.16453969990835,244.1771120999474,244.1771120999474,244.224390800111,244.22485510003753,244.24103010003455,244.24103010003455,244.24103010003455,244.30770080001093,247.23857129993849,,,,246.32215450005606,247.2546091999393,247.2546091999393,247.2546091999393,down,3.4978612000122666,None,None,,,,,,,,,,,,,,,,,P132,001,2025-03-06_11h17.36.190,posner_endo_new1,2024.2.4,60.00718890199849,2025-03-06 11h18.13.147259 +0000,
cube_r.png,0.1,0.31,valid,35,35,0,down,1.12002360005863,None,space,0.44866210012696683,None,,,,,0,35,35,35,,,,,247.2546091999393,,,,,,,,,,,,,247.23884589993395,247.2546091999393,247.2546091999393,247.2546091999393,248.3883424999658,,,,248.3983374000527,248.40803660009988,248.40803660009988,248.45322820008732,248.45347069995478,248.4700219000224,248.4700219000224,248.4700219000224,248.55323869991116,248.92048570001498,,,,,,,,down,1.12002360005863,None,space,0.44866210012696683,None,,,,,,,,,,,,,,,P132,001,2025-03-06_11h17.36.190,posner_endo_new1,2024.2.4,60.00718890199849,2025-03-06 11h18.13.147259 +0000,
cube_r.png,0.1,-0.31,invalid,36,36,0,down,2.9029683000408113,None,space,0.4133935999125242,None,,,,,0,36,36,36,,,,,248.9361294999253,,,,,,,,,,,,,248.92067650007084,248.9361294999253,248.9361294999253,248.9361294999253,251.85070149996318,,,,251.85770620009862,251.86935890000314,251.86935890000314,251.91662069992162,251.91686820005998,251.93318989989348,251.93318989989348,251.93318989989348,251.99970160005614,252.35018589999527,,,,,,,,down,2.9029683000408113,None,space,0.4133935999125242,None,,,,,,,,,,,,,,,P132,001,2025-03-06_11h17.36.190,posner_endo_new1,2024.2.4,60.00718890199849,2025-03-06 11h18.13.147259 +0000,
cube_l.png,0.1,0.31,invalid,37,37,0,down,4.201237199828029,None,space,0.4634955998044461,None,,,,,0,37,37,37,,,,,252.3658821999561,,,,,,,,,,,,,252.35038150008768,252.3658821999561,252.3658821999561,252.3658821999561,256.5792340999469,,,,256.58636950002983,256.5982592999935,256.5982592999935,256.6449504001066,256.6451956999954,256.6615468999371,256.6615468999371,256.6615468999371,256.7449350999668,257.1286901999265,,,,,,,,down,4.201237199828029,None,space,0.4634955998044461,None,,,,,,,,,,,,,,,P132,001,2025-03-06_11h17.36.190,posner_endo_new1,2024.2.4,60.00718890199849,2025-03-06 11h18.13.147259 +0000,
cube_l.png,0.1,0.31,invalid,38,38,0,down,3.3502642998937517,None,space,0.407751000020653,None,,,,,0,38,38,38,,,,,257.14440739993006,,,,,,,,,,,,,257.1288842000067,257.14440739993006,257.14440739993006,257.14440739993006,260.5085861000698,,,,260.51593249989673,260.5274525999557,260.5274525999557,260.5744602999184,260.5747138001025,260.59105499996804,260.59105499996804,260.59105499996804,260.67415610002354,261.0079743999522,,,,,,,,down,3.3502642998937517,None,space,0.407751000020653,None,,,,,,,,,,,,,,,P132,001,2025-03-06_11h17.36.190,posner_endo_new1,2024.2.4,60.00718890199849,2025-03-06 11h18.13.147259 +0000,
cube_r.png,0.1,0.31,valid,39,39,0,down,3.5033890001941472,None,space,0.36047119996510446,None,,,,,0,39,39,39,,,,,261.02349509997293,,,,,,,,,,,,,261.0081585999578,261.02349509997293,261.02349509997293,261.02349509997293,264.5382284000516,,,,264.5498228999786,264.5601850000676,264.5601850000676,264.60361579991877,264.6039750999771,264.6202334999107,264.6202334999107,264.6202334999107,264.7033716000151,264.98769639991224,,,,,,,,down,3.5033890001941472,None,space,0.36047119996510446,None,,,,,,,,,,,,,,,P132,001,2025-03-06_11h17.36.190,posner_endo_new1,2024.2.4,60.00718890199849,2025-03-06 11h18.13.147259 +0000,
cube_l.png,0.1,0.31,invalid,40,40,0,down,8.387747900094837,None,space,0.4329045000486076,None,,,,,0,40,40,40,,,,,265.0031459000893,,,,,,,,,,,,,264.9880005000159,265.0031459000893,265.0031459000893,265.0031459000893,273.3958614000585,,,,273.4074885000009,273.4178029000759,273.4178029000759,273.4613693000283,273.461728699971,273.47771189990453,273.47771189990453,273.47771189990453,273.5611020999495,273.91220699995756,,,,,,,,down,8.387747900094837,None,space,0.4329045000486076,None,,,,,,,,,,,,,,,P132,001,2025-03-06_11h17.36.190,posner_endo_new1,2024.2.4,60.00718890199849,2025-03-06 11h18.13.147259 +0000,
cube_l.png,0.1,10,catch,41,41,0,down,4.3921833001077175,None,None,,,,,,,0,41,41,41,,,,,273.927328000078,,,,,,,,,,,,,273.91249709995463,273.927328000078,273.927328000078,273.927328000078,278.32420810009353,,,,278.3358932000119,278.346222900087,278.346222900087,278.3896077000536,278.389960499946,278.40609880001284,278.40609880001284,278.40609880001284,278.4894844999071,281.4037709000986,,,,280.50390510004945,281.4196568999905,281.4196568999905,281.4196568999905,down,4.3921833001077175,None,None,,,,,,,,,,,,,,,,,P132,001,2025-03-06_11h17.36.190,posner_endo_new1,2024.2.4,60.00718890199849,2025-03-06 11h18.13.147259 +0000,
cube_l.png,0.1,-0.31,valid,42,42,0,down,1.4834543999750167,None,space,0.528156999964267,None,,,,,0,42,42,42,,,,,281.4196568999905,,,,,,,,,,,,,281.4040492998902,281.4196568999905,281.4196568999905,281.4196568999905,282.9193802999798,,,,282.9283940999303,282.9379676999524,282.9379676999524,282.98476890008897,282.98501159995794,283.0014522999991,283.0014522999991,283.0014522999991,283.0846496000886,283.53499520011246,,,,,,,,down,1.4834543999750167,None,space,0.528156999964267,None,,,,,,,,,,,,,,,P132,001,2025-03-06_11h17.36.190,posner_endo_new1,2024.2.4,60.00718890199849,2025-03-06 11h18.13.147259 +0000,
cube_l.png,0.1,10,catch,43,43,0,down,3.576199600007385,None,None,,,,,,,0,43,43,43,,,,,283.5507463000249,,,,,,,,,,,,,283.53518510004506,283.5507463000249,283.5507463000249,283.5507463000249,287.1312897000462,,,,287.1383785000071,287.1500401000958,287.1500401000958,287.19731210009195,287.1975434999913,287.21362400008366,287.21362400008366,287.21362400008366,287.28028790000826,290.2112469000276,,,,289.2950460999273,290.2273053000681,290.2273053000681,290.2273053000681,down,3.576199600007385,None,None,,,,,,,,,,,,,,,,,P132,001,2025-03-06_11h17.36.190,posner_endo_new1,2024.2.4,60.00718890199849,2025-03-06 11h18.13.147259 +0000,
cube_l.png,0.1,0.31,invalid,44,44,0,down,1.3720589000731707,None,space,0.5602911999449134,None,,,,,0,44,44,44,,,,,290.2273053000681,,,,,,,,,,,,,290.2114087000955,290.2273053000681,290.2273053000681,290.2273053000681,291.61002500006,,,,291.61614049994387,291.6278498999309,291.6278498999309,291.67596739996225,291.67619820008986,291.6925079000648,291.6925079000648,291.6925079000648,291.7590697000269,292.25953959999606,,,,,,,,down,1.3720589000731707,None,space,0.5602911999449134,None,,,,,,,,,,,,,,,P132,001,2025-03-06_11h17.36.190,posner_endo_new1,2024.2.4,60.00718890199849,2025-03-06 11h18.13.147259 +0000,
cube_l.png,0.1,0.31,invalid,45,45,0,down,3.2442471999675035,None,space,0.7488320998381823,None,,,,,0,45,45,45,,,,,292.27512430003844,,,,,,,,,,,,,292.25971319992095,292.27512430003844,292.27512430003844,292.27512430003844,295.52296849992126,,,,295.5290640001185,295.540758300107,295.540758300107,295.588586299913,295.58881619991735,295.605164000066,295.605164000066,295.605164000066,295.68834379990585,296.3553200000897,,,,,,,,down,3.2442471999675035,None,space,0.7488320998381823,None,,,,,,,,,,,,,,,P132,001,2025-03-06_11h17.36.190,posner_endo_new1,2024.2.4,60.00718890199849,2025-03-06 11h18.13.147259 +0000,
cube_r.png,0.1,0.31,valid,46,46,0,down,5.8919796999543905,None,space,0.519566599978134,None,,,,,0,46,46,46,,,,,296.3710739999078,,,,,,,,,,,,,296.3554982000496,296.3710739999078,296.3710739999078,296.3710739999078,302.2658061000984,,,,302.2722684000619,302.28399699996226,302.28399699996226,302.3318614999298,302.33209530008025,302.34833090007305,302.34833090007305,302.34833090007305,302.4149682999123,302.8819864001125,,,,,,,,down,5.8919796999543905,None,space,0.519566599978134,None,,,,,,,,,,,,,,,P132,001,2025-03-06_11h17.36.190,posner_endo_new1,2024.2.4,60.00718890199849,2025-03-06 11h18.13.147259 +0000,
cube_l.png,0.1,-0.31,valid,47,47,0,down,3.060927400132641,None,space,0.4673608001321554,None,,,,,0,47,47,47,,,,,302.8976195999421,,,,,,,,,,,,,302.88216200005263,302.8976195999421,302.8976195999421,302.8976195999421,305.9621451999992,,,,305.9682505999226,305.97997549991123,305.97997549991123,306.0279389999341,306.02817149995826,306.0444491999224,306.0444491999224,306.0444491999224,306.12781449989416,306.5276957000606,,,,,,,,down,3.060927400132641,None,space,0.4673608001321554,None,,,,,,,,,,,,,,,P132,001,2025-03-06_11h17.36.190,posner_endo_new1,2024.2.4,60.00718890199849,2025-03-06 11h18.13.147259 +0000,
cube_r.png,0.1,-0.31,invalid,48,48,0,down,5.126838600030169,None,space,0.6650695998687297,None,,,,,0,48,48,48,,,,,306.5440311001148,,,,,,,,,,,,,306.52786840009503,306.5440311001148,306.5440311001148,306.5440311001148,311.6733570001088,,,,311.6849940000102,311.6953920999076,311.6953920999076,311.7387926001102,311.73914829990827,311.755352600012,311.755352600012,311.755352600012,311.83860639994964,312.4226238001138,,,,,,,,down,5.126838600030169,None,space,0.6650695998687297,None,,,,,,,,,,,,,,,P132,001,2025-03-06_11h17.36.190,posner_endo_new1,2024.2.4,60.00718890199849,2025-03-06 11h18.13.147259 +0000,
cube_r.png,0.1,10,catch,49,49,0,down,2.969101499998942,None,None,,,,,,,0,49,49,49,,,,,312.4380304000806,,,,,,,,,,,,,312.4229220999405,312.4380304000806,312.4380304000806,312.4380304000806,315.4196087999735,,,,315.4311579999048,315.44146930007264,315.44146930007264,315.48509260010906,315.48544550011866,315.50160300009884,315.50160300009884,315.50160300009884,315.5847932000179,318.4993771999143,,,,317.5994774000719,318.515158199938,318.515158199938,318.515158199938,down,2.969101499998942,None,None,,,,,,,,,,,,,,,,,P132,001,2025-03-06_11h17.36.190,posner_endo_new1,2024.2.4,60.00718890199849,2025-03-06 11h18.13.147259 +0000,
cube_l.png,0.1,-0.31,valid,50,50,0,down,3.37196769984439,None,space,0.41162979998625815,None,,,,,0,50,50,50,,,,,318.515158199938,,,,,,,,,,,,,318.49965499993414,318.515158199938,318.515158199938,318.515158199938,321.89617100008763,,,,321.90775460004807,321.9181758998893,321.9181758998893,321.9615237999242,321.96177750010975,321.97816279996186,321.97816279996186,321.97816279996186,322.0612864999566,322.39546609995887,,,,,,,,down,3.37196769984439,None,space,0.41162979998625815,None,,,,,,,,,,,,,,,P132,001,2025-03-06_11h17.36.190,posner_endo_new1,2024.2.4,60.00718890199849,2025-03-06 11h18.13.147259 +0000,
cube_l.png,0.1,-0.31,valid,51,51,0,down,4.1876825001090765,None,space,0.4805054999887943,None,,,,,0,51,51,51,,,,,322.41115300008096,,,,,,,,,,,,,322.3956645000726,322.41115300008096,322.41115300008096,322.41115300008096,326.6082325000316,,,,326.61981189996004,326.630223599961,326.630223599961,326.67359440005384,326.67395740002394,326.6901537999511,326.6901537999511,326.6901537999511,326.7733605001122,327.1742144001182,,,,,,,,down,4.1876825001090765,None,space,0.4805054999887943,None,,,,,,,,,,,,,,,P132,001,2025-03-06_11h17.36.190,posner_endo_new1,2024.2.4,60.00718890199849,2025-03-06 11h18.13.147259 +0000,
cube_r.png,0.1,-0.31,invalid,52,52,0,down,4.072910999879241,None,space,0.637604899937287,None,,,,,0,52,52,52,,,,,327.18975730007514,,,,,,,,,,,,,327.1745074999053,327.18975730007514,327.18975730007514,327.18975730007514,331.269853600068,,,,331.28135899989866,331.291725799907,331.291725799907,331.3354642998893,331.3357218001038,331.3519411999732,331.3519411999732,331.3519411999732,331.4350986999925,332.0022070000414,,,,,,,,down,4.072910999879241,None,space,0.637604899937287,None,,,,,,,,,,,,,,,P132,001,2025-03-06_11h17.36.190,posner_endo_new1,2024.2.4,60.00718890199849,2025-03-06 11h18.13.147259 +0000,
cube_l.png,0.1,-0.31,valid,53,53,0,down,5.029821600066498,None,space,0.353738300036639,None,,,,,0,53,53,53,,,,,332.0179822000209,,,,,,,,,,,,,332.00240319990553,332.0179822000209,332.0179822000209,332.0179822000209,337.0635232999921,,,,337.0710678999312,337.0823637000285,337.0823637000285,337.1293399001006,337.1295932000503,337.14620009995997,337.14620009995997,337.14620009995997,337.22936440003105,337.5130545999855,,,,,,,,down,5.029821600066498,None,space,0.353738300036639,None,,,,,,,,,,,,,,,P132,001,2025-03-06_11h17.36.190,posner_endo_new1,2024.2.4,60.00718890199849,2025-03-06 11h18.13.147259 +0000,
cube_r.png,0.1,10,catch,54,54,0,down,4.325804400024936,None,None,,,,,,,0,54,54,54,,,,,337.52890560007654,,,,,,,,,,,,,337.51325049996376,337.52890560007654,337.52890560007654,337.52890560007654,341.8586959000677,,,,341.86616409989074,341.87746350001544,341.87746350001544,341.92440779996105,341.92467040009797,341.9410129999742,341.9410129999742,341.9410129999742,342.00759870000184,344.9384258000646,,,,344.02238329988904,344.95478789997287,344.95478789997287,344.95478789997287,down,4.325804400024936,None,None,,,,,,,,,,,,,,,,,P132,001,2025-03-06_11h17.36.190,posner_endo_new1,2024.2.4,60.00718890199849,2025-03-06 11h18.13.147259 +0000,
cube_l.png,0.1,0.31,invalid,55,55,0,down,2.8126582999248058,None,space,0.5078105998691171,None,,,,,0,55,55,55,,,,,344.95478789997287,,,,,,,,,,,,,344.93861710000783,344.95478789997287,344.95478789997287,344.95478789997287,347.7695637999568,,,,347.77701710001566,347.7880774999503,347.7880774999503,347.83513980009593,347.83540720003657,347.85167329991236,347.85167329991236,347.85167329991236,347.9349525999278,348.3688576000277,,,,,,,,down,2.8126582999248058,None,space,0.5078105998691171,None,,,,,,,,,,,,,,,P132,001,2025-03-06_11h17.36.190,posner_endo_new1,2024.2.4,60.00718890199849,2025-03-06 11h18.13.147259 +0000,
cube_l.png,0.1,-0.31,valid,56,56,0,down,4.430994600057602,None,space,0.7041204997804016,None,,,,,0,56,56,56,,,,,348.3844427000731,,,,,,,,,,,,,348.3690530001186,348.3844427000731,348.3844427000731,348.3844427000731,352.830872700084,,,,352.8383283999283,352.849720899947,352.849720899947,352.89683509990573,352.89739320008084,352.9132107999176,352.9132107999176,352.9132107999176,352.9964616999496,353.6310382001102,,,,,,,,down,4.430994600057602,None,space,0.7041204997804016,None,,,,,,,,,,,,,,,P132,001,2025-03-06_11h17.36.190,posner_endo_new1,2024.2.4,60.00718890199849,2025-03-06 11h18.13.147259 +0000,
cube_r.png,0.1,0.31,valid,57,57,0,down,4.768593100132421,None,space,0.35728399991057813,None,,,,,0,57,57,57,,,,,353.6457805999089,,,,,,,,,,,,,353.6315172999166,353.6457805999089,353.6457805999089,353.6457805999089,358.4256388999056,,,,358.4372473000549,358.4476159000769,358.4476159000769,358.4910820000805,358.4914416000247,358.50771329994313,358.50771329994313,358.50771329994313,358.5907920000609,358.87502630008385,,,,,,,,down,4.768593100132421,None,space,0.35728399991057813,None,,,,,,,,,,,,,,,P132,001,2025-03-06_11h17.36.190,posner_endo_new1,2024.2.4,60.00718890199849,2025-03-06 11h18.13.147259 +0000,
cube_r.png,0.1,-0.31,invalid,58,58,0,down,3.0842840999830514,None,space,0.39098450005985796,None,,,,,0,58,58,58,,,,,358.89055139990523,,,,,,,,,,,,,358.87531680008397,358.89055139990523,358.89055139990523,358.89055139990523,361.9885728000663,,,,362.0001433000434,362.0104652000591,362.0104652000591,362.0541821999941,362.0545363998972,362.0705460999161,362.0705460999161,362.0705460999161,362.1539419000037,362.47139440011233,,,,,,,,down,3.0842840999830514,None,space,0.39098450005985796,None,,,,,,,,,,,,,,,P132,001,2025-03-06_11h17.36.190,posner_endo_new1,2024.2.4,60.00718890199849,2025-03-06 11h18.13.147259 +0000,
cube_l.png,0.1,0.31,invalid,59,59,0,down,4.752178200054914,None,space,0.3708460000343621,None,,,,,0,59,59,59,,,,,362.4869152000174,,,,,,,,,,,,,362.47168769990094,362.4869152000174,362.4869152000174,362.4869152000174,367.24983590003103,,,,367.2588325000834,367.26872420008294,367.26872420008294,367.3151660999283,367.31542370002717,367.33194450009614,367.33194450009614,367.33194450009614,367.4151695999317,367.7155794999562,,,,,,,,down,4.752178200054914,None,space,0.3708460000343621,None,,,,,,,,,,,,,,,P132,001,2025-03-06_11h17.36.190,posner_endo_new1,2024.2.4,60.00718890199849,2025-03-06 11h18.13.147259 +0000,
,,,,,,,,,,,,,,,,,,,,,,,,,,,,,,,,,,,,,,,,,,,,,,,,,,,,,,,,,,,,,,,,,,,,,367.71570760011673,367.7313010999933,367.7313010999933,427.7366766000632,448.6494259000756,space,80.90741309989244,None,,,,,,,P132,001,2025-03-06_11h17.36.190,posner_endo_new1,2024.2.4,60.00718890199849,2025-03-06 11h18.13.147259 +0000,
,,,,,,,,,,,,,,,,,,,,,,,,,,,,,,,,,,448.6494853000622,448.66535270004533,451.66920139989816,451.646031399956,,,,,,,,,,,,,,,,,,,,,,,,,,,,,,,,,,,,,,,,,,,,,,P132,001,2025-03-06_11h17.36.190,posner_endo_new1,2024.2.4,60.00718890199849,2025-03-06 11h18.13.147259 +0000,
cube_l.png,0.1,10,catch,0,0,0,up,11.938112400006503,None,None,,,,,,,,,,,0,0,0,0,451.66920139989816,,,,,,,,,,,,,451.6603584000841,451.66920139989816,451.66920139989816,451.66920139989816,463.61823910009116,,,,463.6301386000123,463.6405495000072,463.6405495000072,463.6836679999251,463.6840319999028,463.70015079993755,463.70015079993755,463.70015079993755,463.78346200007945,466.6977496999316,,,,465.7979252000805,466.7136701999698,466.7136701999698,466.7136701999698,,,,,,,,,,,,,,,up,11.938112400006503,None,None,,,P132,001,2025-03-06_11h17.36.190,posner_endo_new1,2024.2.4,60.00718890199849,2025-03-06 11h18.13.147259 +0000,
cube_l.png,0.1,10,catch,1,1,0,up,3.2377884001471102,None,None,,,,,,,,,,,0,1,1,1,466.7136701999698,,,,,,,,,,,,,466.69802849995904,466.7136701999698,466.7136701999698,466.7136701999698,469.9615458000917,,,,469.97308690007776,469.9834376000799,469.9834376000799,470.02726339991204,470.0276252999902,470.0436726999469,470.0436726999469,470.0436726999469,470.12687849998474,473.04130919999443,,,,472.14151050010696,473.0572575000115,473.0572575000115,473.0572575000115,,,,,,,,,,,,,,,up,3.2377884001471102,None,None,,,P132,001,2025-03-06_11h17.36.190,posner_endo_new1,2024.2.4,60.00718890199849,2025-03-06 11h18.13.147259 +0000,
cube_l.png,0.1,0.31,invalid,2,2,0,up,3.3343609999865294,None,space,0.7131286999210715,None,,,,,,,,,0,2,2,2,473.0572575000115,,,,,,,,,,,,,473.0415854000021,473.0572575000115,473.0572575000115,473.0572575000115,476.40506389993243,,,,476.4166669999249,476.42693369998597,476.42693369998597,476.4705018000677,476.4708567999769,476.48710909998044,476.48710909998044,476.48710909998044,476.5705154999159,477.20430619991384,,,,,,,,,,,,,,,,,,,,,,up,3.3343609999865294,None,space,0.7131286999210715,None,P132,001,2025-03-06_11h17.36.190,posner_endo_new1,2024.2.4,60.00718890199849,2025-03-06 11h18.13.147259 +0000,
cube_l.png,0.1,0.31,invalid,3,3,0,up,5.804640299873427,None,space,0.3954617001581937,None,,,,,,,,,0,3,3,3,477.2197092999704,,,,,,,,,,,,,477.2046060001012,477.2197092999704,477.2197092999704,477.2197092999704,483.03172069997527,,,,483.0433165000286,483.05382089992054,483.05382089992054,483.09705769992433,483.0974171999842,483.11365940002725,483.11365940002725,483.11365940002725,483.19692140002735,483.5145465999376,,,,,,,,,,,,,,,,,,,,,,up,5.804640299873427,None,space,0.3954617001581937,None,P132,001,2025-03-06_11h17.36.190,posner_endo_new1,2024.2.4,60.00718890199849,2025-03-06 11h18.13.147259 +0000,
cube_l.png,0.1,-0.31,valid,4,4,0,up,8.50967749999836,None,space,0.33942399988882244,None,,,,,,,,,0,4,4,4,483.52982609998435,,,,,,,,,,,,,483.51484460011125,483.52982609998435,483.52982609998435,483.52982609998435,492.0557641000487,,,,492.0673124000896,492.0775228999555,492.0775228999555,492.12116870004684,492.12142150010914,492.1375655999873,492.1375655999873,492.1375655999873,492.2210882001091,492.48863900010474,,,,,,,,,,,,,,,,,,,,,,up,8.50967749999836,None,space,0.33942399988882244,None,P132,001,2025-03-06_11h17.36.190,posner_endo_new1,2024.2.4,60.00718890199849,2025-03-06 11h18.13.147259 +0000,
cube_r.png,0.1,-0.31,invalid,5,5,0,up,4.783003699965775,None,space,0.3641995000652969,None,,,,,,,,,0,5,5,5,492.5041096000932,,,,,,,,,,,,,492.4889380999375,492.5041096000932,492.5041096000932,492.5041096000932,497.30030560004525,,,,497.30914829997346,497.31899700011127,497.31899700011127,497.36579880001955,497.3660516999662,497.3821213999763,497.3821213999763,497.3821213999763,497.4655291000381,497.7493187999353,,,,,,,,,,,,,,,,,,,,,,up,4.783003699965775,None,space,0.3641995000652969,None,P132,001,2025-03-06_11h17.36.190,posner_endo_new1,2024.2.4,60.00718890199849,2025-03-06 11h18.13.147259 +0000,
cube_r.png,0.1,0.31,valid,6,6,0,up,4.897591100074351,None,space,0.3633195001166314,None,,,,,,,,,0,6,6,6,497.765302099986,,,,,,,,,,,,,497.7495182000566,497.765302099986,497.765302099986,497.765302099986,502.677694800077,,,,502.6851313000079,502.69644089997746,502.69644089997746,502.74366679997183,502.7439282000996,502.7601338000968,502.7601338000968,502.7601338000968,502.82663020002656,503.12731310003437,,,,,,,,,,,,,,,,,,,,,,up,4.897591100074351,None,space,0.3633195001166314,None,P132,001,2025-03-06_11h17.36.190,posner_endo_new1,2024.2.4,60.00718890199849,2025-03-06 11h18.13.147259 +0000,
cube_r.png,0.1,-0.31,invalid,7,7,0,up,3.6317423000000417,None,space,0.3661030000075698,None,,,,,,,,,0,7,7,7,503.1429810000118,,,,,,,,,,,,,503.1275182000827,503.1429810000118,503.1429810000118,503.1429810000118,506.7902108998969,,,,506.7976641000714,506.80899260006845,506.80899260006845,506.8560738998931,506.8565992000513,506.8724925001152,506.8724925001152,506.8724925001152,506.95573260006495,507.24068049993366,,,,,,,,,,,,,,,,,,,,,,up,3.6317423000000417,None,space,0.3661030000075698,None,P132,001,2025-03-06_11h17.36.190,posner_endo_new1,2024.2.4,60.00718890199849,2025-03-06 11h18.13.147259 +0000,
cube_l.png,0.1,-0.31,valid,8,8,0,up,4.487954800017178,None,space,0.28892070008441806,None,,,,,,,,,0,8,8,8,507.25540199992247,,,,,,,,,,,,,507.2411229000427,507.25540199992247,507.25540199992247,507.25540199992247,511.75241510011256,,,,511.7634465000592,511.7737461000215,511.7737461000215,511.8178588000592,511.81819580006413,511.8343400999438,511.8343400999438,511.8343400999438,511.9175205999054,512.1352218999527,,,,,,,,,,,,,,,,,,,,,,up,4.487954800017178,None,space,0.28892070008441806,None,P132,001,2025-03-06_11h17.36.190,posner_endo_new1,2024.2.4,60.00718890199849,2025-03-06 11h18.13.147259 +0000,
cube_r.png,0.1,-0.31,invalid,9,9,0,up,5.68804550007917,None,space,0.37035039998590946,None,,,,,,,,,0,9,9,9,512.1506896000355,,,,,,,,,,,,,512.1355041000061,512.1506896000355,512.1506896000355,512.1506896000355,517.8458871000912,,,,517.8569948000368,517.8671993000899,517.8671993000899,517.9115442999173,517.9118888000958,517.9281117001083,517.9281117001083,517.9281117001083,518.011352499947,518.3121462999843,,,,,,,,,,,,,,,,,,,,,,up,5.68804550007917,None,space,0.37035039998590946,None,P132,001,2025-03-06_11h17.36.190,posner_endo_new1,2024.2.4,60.00718890199849,2025-03-06 11h18.13.147259 +0000,
cube_l.png,0.1,0.31,invalid,10,10,0,up,4.33580969995819,None,space,0.4516508001834154,None,,,,,,,,,0,10,10,10,518.3277584000025,,,,,,,,,,,,,518.3124337999616,518.3277584000025,518.3277584000025,518.3277584000025,522.674585300032,,,,522.6856380000245,522.6958486000076,522.6958486000076,522.7400032998994,522.7403412000276,522.7565737999976,522.7565737999976,522.7565737999976,522.8397333000321,523.2239206999075,,,,,,,,,,,,,,,,,,,,,,up,4.33580969995819,None,space,0.4516508001834154,None,P132,001,2025-03-06_11h17.36.190,posner_endo_new1,2024.2.4,60.00718890199849,2025-03-06 11h18.13.147259 +0000,
cube_r.png,0.1,-0.31,invalid,11,11,0,up,4.583922399906442,None,space,0.4487224000040442,None,,,,,,,,,0,11,11,11,523.2393245000858,,,,,,,,,,,,,523.224232400069,523.2393245000858,523.2393245000858,523.2393245000858,527.8352238999214,,,,527.841185899917,527.852276999969,527.852276999969,527.9012366000097,527.9017598000355,527.9176185000688,527.9176185000688,527.9176185000688,527.9842558000237,528.3687603001017,,,,,,,,,,,,,,,,,,,,,,up,4.583922399906442,None,space,0.4487224000040442,None,P132,001,2025-03-06_11h17.36.190,posner_endo_new1,2024.2.4,60.00718890199849,2025-03-06 11h18.13.147259 +0000,
cube_r.png,0.1,0.31,valid,12,12,0,up,9.638984799850732,None,space,0.4104907000437379,None,,,,,,,,,0,12,12,12,528.3839851999655,,,,,,,,,,,,,528.3690571000334,528.3839851999655,528.3839851999655,528.3839851999655,538.0253240000457,,,,538.0370451998897,538.0474445999134,538.0474445999134,538.0910769999027,538.0914425998926,538.1074846999254,538.1074846999254,538.1074846999254,538.1906190000009,538.5249242000282,,,,,,,,,,,,,,,,,,,,,,up,9.638984799850732,None,space,0.4104907000437379,None,P132,001,2025-03-06_11h17.36.190,posner_endo_new1,2024.2.4,60.00718890199849,2025-03-06 11h18.13.147259 +0000,
cube_l.png,0.1,10,catch,13,13,0,up,4.378516499884427,None,None,,,,,,,,,,,0,13,13,13,538.5403942998964,,,,,,,,,,,,,538.5252193999477,538.5403942998964,538.5403942998964,538.5403942998964,542.920514000114,,,,542.9320453000255,542.9424056001008,542.9424056001008,542.9861049000174,542.9864626999479,543.0024715000764,543.0024715000764,543.0024715000764,543.0857164000627,546.0002089000773,,,,545.1003896999173,546.0160213001072,546.0160213001072,546.0160213001072,,,,,,,,,,,,,,,up,4.378516499884427,None,None,,,P132,001,2025-03-06_11h17.36.190,posner_endo_new1,2024.2.4,60.00718890199849,2025-03-06 11h18.13.147259 +0000,
cube_r.png,0.1,-0.31,invalid,14,14,0,up,1.151128700003028,None,space,0.4321536000352353,None,,,,,,,,,0,14,14,14,546.0160213001072,,,,,,,,,,,,,546.0004978000652,546.0160213001072,546.0160213001072,546.0160213001072,547.1827513000462,,,,547.1944756999146,547.2048055999912,547.2048055999912,547.2481724000536,547.2485277999658,547.2647971000988,547.2647971000988,547.2647971000988,547.3480293999892,547.6989881000482,,,,,,,,,,,,,,,,,,,,,,up,1.151128700003028,None,space,0.4321536000352353,None,P132,001,2025-03-06_11h17.36.190,posner_endo_new1,2024.2.4,60.00718890199849,2025-03-06 11h18.13.147259 +0000,
cube_l.png,0.1,-0.31,valid,15,15,0,up,4.076960999984294,None,space,0.5043362998403609,None,,,,,,,,,0,15,15,15,547.7143166000023,,,,,,,,,,,,,547.699286099989,547.7143166000023,547.7143166000023,547.7143166000023,551.794717800105,,,,551.806273400085,551.8165841000155,551.8165841000155,551.8601053999737,551.8603644999675,551.8766211001202,551.8766211001202,551.8766211001202,551.9597312998958,552.3936187999789,,,,,,,,,,,,,,,,,,,,,,up,4.076960999984294,None,space,0.5043362998403609,None,P132,001,2025-03-06_11h17.36.190,posner_endo_new1,2024.2.4,60.00718890199849,2025-03-06 11h18.13.147259 +0000,
cube_r.png,0.1,10,catch,16,16,0,up,5.302472100127488,None,None,,,,,,,,,,,0,16,16,16,552.4092896000948,,,,,,,,,,,,,552.3938190999907,552.4092896000948,552.4092896000948,552.4092896000948,557.7215466999914,,,,557.728997200029,557.740378400078,557.740378400078,557.7873388999142,557.7875944001134,557.8039458000567,557.8039458000567,557.8039458000567,557.8872561000753,560.8013836001046,,,,559.9017553001177,560.8174175999593,560.8174175999593,560.8174175999593,,,,,,,,,,,,,,,up,5.302472100127488,None,None,,,P132,001,2025-03-06_11h17.36.190,posner_endo_new1,2024.2.4,60.00718890199849,2025-03-06 11h18.13.147259 +0000,
cube_r.png,0.1,10,catch,17,17,0,up,2.2378008000086993,None,None,,,,,,,,,,,0,17,17,17,560.8174175999593,,,,,,,,,,,,,560.8015721999109,560.8174175999593,560.8174175999593,560.8174175999593,563.0659713998903,,,,563.0733684999868,563.0848717999179,563.0848717999179,563.1319138000254,563.1321688001044,563.1485119001009,563.1485119001009,563.1485119001009,563.2148961999919,566.1459582000971,,,,565.2296784000937,566.162026300095,566.162026300095,566.162026300095,,,,,,,,,,,,,,,up,2.2378008000086993,None,None,,,P132,001,2025-03-06_11h17.36.190,posner_endo_new1,2024.2.4,60.00718890199849,2025-03-06 11h18.13.147259 +0000,
cube_l.png,0.1,0.31,invalid,18,18,0,up,2.3094154000282288,None,space,0.4677425001282245,None,,,,,,,,,0,18,18,18,566.162026300095,,,,,,,,,,,,,566.1461549999658,566.162026300095,566.162026300095,566.162026300095,568.4771491999272,,,,568.4845801000483,568.4959803000093,568.4959803000093,568.5430954999756,568.5433507999405,568.5596217000857,568.5596217000857,568.5596217000857,568.6429560000543,569.0432412000373,,,,,,,,,,,,,,,,,,,,,,up,2.3094154000282288,None,space,0.4677425001282245,None,P132,001,2025-03-06_11h17.36.190,posner_endo_new1,2024.2.4,60.00718890199849,2025-03-06 11h18.13.147259 +0000,
cube_l.png,0.1,10,catch,19,19,0,up,4.54763919999823,None,None,,,,,,,,,,,0,19,19,19,569.0591929999646,,,,,,,,,,,,,569.0434437999502,569.0591929999646,569.0591929999646,569.0591929999646,573.6218224999029,,,,573.6292359998915,573.6407759001013,573.6407759001013,573.6878603999503,573.6881160999183,573.7042531999759,573.7042531999759,573.7042531999759,573.7874686000869,576.7018514000811,,,,575.8021565000527,576.7178060000297,576.7178060000297,576.7178060000297,,,,,,,,,,,,,,,up,4.54763919999823,None,None,,,P132,001,2025-03-06_11h17.36.190,posner_endo_new1,2024.2.4,60.00718890199849,2025-03-06 11h18.13.147259 +0000,
cube_l.png,0.1,0.31,invalid,20,20,0,up,2.1218004999682307,None,space,0.4655816999729723,None,,,,,,,,,0,20,20,20,576.7178060000297,,,,,,,,,,,,,576.7020388999954,576.7178060000297,576.7178060000297,576.7178060000297,578.8499272000045,,,,578.8573396999855,578.8687112999614,578.8687112999614,578.9157360999379,578.9159635000397,578.9324169999454,578.9324169999454,578.9324169999454,578.9991142998915,579.3995626000687,,,,,,,,,,,,,,,,,,,,,,up,2.1218004999682307,None,space,0.4655816999729723,None,P132,001,2025-03-06_11h17.36.190,posner_endo_new1,2024.2.4,60.00718890199849,2025-03-06 11h18.13.147259 +0000,
cube_l.png,0.1,-0.31,valid,21,21,0,up,4.4478835999034345,None,space,0.4777986998669803,None,,,,,,,,,0,21,21,21,579.4154618000612,,,,,,,,,,,,,579.3997388000134,579.4154618000612,579.4154618000612,579.4154618000612,583.8781175001059,,,,583.884089600062,583.895690199919,583.895690199919,583.9440369000658,583.9442646000534,583.9606439000927,583.9606439000927,583.9606439000927,584.027376400074,584.44412739994,,,,,,,,,,,,,,,,,,,,,,up,4.4478835999034345,None,space,0.4777986998669803,None,P132,001,2025-03-06_11h17.36.190,posner_endo_new1,2024.2.4,60.00718890199849,2025-03-06 11h18.13.147259 +0000,
cube_r.png,0.1,0.31,valid,22,22,0,up,5.650790400104597,None,space,0.6933528999798,None,,,,,,,,,0,22,22,22,584.4599860999733,,,,,,,,,,,,,584.4443049998954,584.4599860999733,584.4599860999733,584.4599860999733,590.1216063001193,,,,590.1276171999052,590.1393102000002,590.1393102000002,590.1877341999207,590.1879674000666,590.20416510012,590.20416510012,590.20416510012,590.2707507000305,590.9042410000693,,,,,,,,,,,,,,,,,,,,,,up,5.650790400104597,None,space,0.6933528999798,None,P132,001,2025-03-06_11h17.36.190,posner_endo_new1,2024.2.4,60.00718890199849,2025-03-06 11h18.13.147259 +0000,
cube_r.png,0.1,-0.31,invalid,23,23,0,up,7.4555873000063,None,space,0.6816467000171542,None,,,,,,,,,0,23,23,23,590.9201422999613,,,,,,,,,,,,,590.904418699909,590.9201422999613,590.9201422999613,590.9201422999613,598.380009500077,,,,598.3860645999666,598.3977659998927,598.3977659998927,598.4458637000062,598.4461024000775,598.462335200049,598.462335200049,598.462335200049,598.545776499901,599.1459796000272,,,,,,,,,,,,,,,,,,,,,,up,7.4555873000063,None,space,0.6816467000171542,None,P132,001,2025-03-06_11h17.36.190,posner_endo_new1,2024.2.4,60.00718890199849,2025-03-06 11h18.13.147259 +0000,
cube_r.png,0.1,0.31,valid,24,24,0,up,4.021726100007072,None,space,0.4415100999176502,None,,,,,,,,,0,24,24,24,599.161828600103,,,,,,,,,,,,,599.1461551999673,599.161828600103,599.161828600103,599.161828600103,603.191674400121,,,,603.1976787000895,603.2092852999922,603.2092852999922,603.2577931999695,603.2580258999951,603.2742157999892,603.2742157999892,603.2742157999892,603.3407789000776,603.724375900114,,,,,,,,,,,,,,,,,,,,,,up,4.021726100007072,None,space,0.4415100999176502,None,P132,001,2025-03-06_11h17.36.190,posner_endo_new1,2024.2.4,60.00718890199849,2025-03-06 11h18.13.147259 +0000,
cube_r.png,0.1,-0.31,invalid,25,25,0,up,7.339324499946088,None,space,0.5502406000159681,None,,,,,,,,,0,25,25,25,603.7403041999787,,,,,,,,,,,,,603.72455179994,603.7403041999787,603.7403041999787,603.7403041999787,611.0841808000114,,,,611.094254600117,611.1045798999257,611.1045798999257,611.1496745999902,611.1499858999159,611.1661580000073,611.1661580000073,611.1661580000073,611.2494018001016,611.7333752000704,,,,,,,,,,,,,,,,,,,,,,up,7.339324499946088,None,space,0.5502406000159681,None,P132,001,2025-03-06_11h17.36.190,posner_endo_new1,2024.2.4,60.00718890199849,2025-03-06 11h18.13.147259 +0000,
cube_l.png,0.1,-0.31,valid,26,26,0,up,5.922441199887544,None,space,0.43105829996056855,None,,,,,,,,,0,26,26,26,611.7488875999115,,,,,,,,,,,,,611.7336321000475,611.7488875999115,611.7488875999115,611.7488875999115,617.6772308999207,,,,617.6870723001193,617.6973300001118,617.6973300001118,617.7429367001168,617.7432488000486,617.7594190998934,617.7594190998934,617.7594190998934,617.8427746000234,618.1933973999694,,,,,,,,,,,,,,,,,,,,,,up,5.922441199887544,None,space,0.43105829996056855,None,P132,001,2025-03-06_11h17.36.190,posner_endo_new1,2024.2.4,60.00718890199849,2025-03-06 11h18.13.147259 +0000,
cube_r.png,0.1,0.31,valid,27,27,0,up,7.494714400032535,None,space,0.328389200149104,None,,,,,,,,,0,27,27,27,618.208944400074,,,,,,,,,,,,,618.1936546999495,618.208944400074,618.208944400074,618.208944400074,625.7190322000533,,,,625.728872800013,625.7390070001129,625.7390070001129,625.7847253999207,625.7850424000062,625.8012087999377,625.8012087999377,625.8012087999377,625.8844971000217,626.1353915999644,,,,,,,,,,,,,,,,,,,,,,up,7.494714400032535,None,space,0.328389200149104,None,P132,001,2025-03-06_11h17.36.190,posner_endo_new1,2024.2.4,60.00718890199849,2025-03-06 11h18.13.147259 +0000,
cube_r.png,0.1,10,catch,28,28,0,up,4.089510400081053,None,None,,,,,,,,,,,0,28,28,28,626.1508289999329,,,,,,,,,,,,,626.1356514999643,626.1508289999329,626.1508289999329,626.1508289999329,630.2477025000844,,,,630.2577529000118,630.2679870999418,630.2679870999418,630.3134332001209,630.313749599969,630.3299839000683,630.3299839000683,630.3299839000683,630.4131988999434,633.3275367000606,,,,632.4277723999694,633.3435023999773,633.3435023999773,633.3435023999773,,,,,,,,,,,,,,,up,4.089510400081053,None,None,,,P132,001,2025-03-06_11h17.36.190,posner_endo_new1,2024.2.4,60.00718890199849,2025-03-06 11h18.13.147259 +0000,
cube_r.png,0.1,0.31,valid,29,29,0,up,1.7438173999544233,None,space,0.3851375998929143,None,,,,,,,,,0,29,29,29,633.3435023999773,,,,,,,,,,,,,633.3277759000193,633.3435023999773,633.3435023999773,633.3435023999773,635.0926834000275,,,,635.1023689999711,635.1125445999205,635.1125445999205,635.1584312000778,635.1587579001207,635.1749660000205,635.1749660000205,635.1749660000205,635.2582839999814,635.575683800038,,,,,,,,,,,,,,,,,,,,,,up,1.7438173999544233,None,space,0.3851375998929143,None,P132,001,2025-03-06_11h17.36.190,posner_endo_new1,2024.2.4,60.00718890199849,2025-03-06 11h18.13.147259 +0000,
cube_r.png,0.1,0.31,valid,30,30,0,up,4.0169716000091285,None,space,0.3963919999077916,None,,,,,,,,,0,30,30,30,635.5911147999577,,,,,,,,,,,,,635.5759423000272,635.5911147999577,635.5911147999577,635.5911147999577,639.6214582000393,,,,639.6312784999609,639.6415452999063,639.6415452999063,639.6872368999757,639.6875547999516,639.7036609000061,639.7036609000061,639.7036609000061,639.7869750000536,640.1043809000403,,,,,,,,,,,,,,,,,,,,,,up,4.0169716000091285,None,space,0.3963919999077916,None,P132,001,2025-03-06_11h17.36.190,posner_endo_new1,2024.2.4,60.00718890199849,2025-03-06 11h18.13.147259 +0000,
cube_l.png,0.1,-0.31,valid,31,31,0,up,6.070892699994147,None,space,0.4203321000095457,None,,,,,,,,,0,31,31,31,640.1200153999962,,,,,,,,,,,,,640.1046390000265,640.1200153999962,640.1200153999962,640.1200153999962,646.1980944999959,,,,646.2078496001195,646.2179219000973,646.2179219000973,646.2637523000594,646.264071200043,646.2803007001057,646.2803007001057,646.2803007001057,646.3635450000875,646.7142769000493,,,,,,,,,,,,,,,,,,,,,,up,6.070892699994147,None,space,0.4203321000095457,None,P132,001,2025-03-06_11h17.36.190,posner_endo_new1,2024.2.4,60.00718890199849,2025-03-06 11h18.13.147259 +0000,
cube_r.png,0.1,0.31,valid,32,32,0,up,5.126384099945426,None,space,0.38209689990617335,None,,,,,,,,,0,32,32,32,646.729928500019,,,,,,,,,,,,,646.7145485000219,646.729928500019,646.729928500019,646.729928500019,651.8588527000975,,,,651.8648389000446,651.8764114999212,651.8764114999212,651.9247226999141,651.9249529000372,651.9411478000693,651.9411478000693,651.9411478000693,652.0241785999388,652.3249035999179,,,,,,,,,,,,,,,,,,,,,,up,5.126384099945426,None,space,0.38209689990617335,None,P132,001,2025-03-06_11h17.36.190,posner_endo_new1,2024.2.4,60.00718890199849,2025-03-06 11h18.13.147259 +0000,
cube_r.png,0.1,-0.31,invalid,33,33,0,up,5.930951500078663,None,space,0.4112557000480592,None,,,,,,,,,0,33,33,33,652.3408035999164,,,,,,,,,,,,,652.3250905000605,652.3408035999164,652.3408035999164,652.3408035999164,658.2852584999055,,,,658.2912904000841,658.3030016999692,658.3030016999692,658.351271700114,658.3514992999844,658.3678743001074,658.3678743001074,658.3678743001074,658.4344715001062,658.7848261001054,,,,,,,,,,,,,,,,,,,,,,up,5.930951500078663,None,space,0.4112557000480592,None,P132,001,2025-03-06_11h17.36.190,posner_endo_new1,2024.2.4,60.00718890199849,2025-03-06 11h18.13.147259 +0000,
cube_r.png,0.1,10,catch,34,34,0,up,6.366302300011739,None,None,,,,,,,,,,,0,34,34,34,658.8007650000509,,,,,,,,,,,,,658.7850021999329,658.8007650000509,658.8007650000509,658.8007650000509,665.17815469997,,,,665.1841768999584,665.1971026000101,665.1971026000101,665.2443007000256,665.2448183998931,665.260649099946,665.260649099946,665.260649099946,665.3272843000013,668.2585283000953,,,,667.342148900032,668.2746103000827,668.2746103000827,668.2746103000827,,,,,,,,,,,,,,,up,6.366302300011739,None,None,,,P132,001,2025-03-06_11h17.36.190,posner_endo_new1,2024.2.4,60.00718890199849,2025-03-06 11h18.13.147259 +0000,
cube_r.png,0.1,0.31,valid,35,35,0,up,2.405038099968806,None,space,0.43533270014449954,None,,,,,,,,,0,35,35,35,668.2746103000827,,,,,,,,,,,,,668.25880709989,668.2746103000827,668.2746103000827,668.2746103000827,670.689289300004,,,,670.6955806000624,670.7072995000053,670.7072995000053,670.7553991000168,670.7556340000592,670.7718700999394,670.7718700999394,670.7718700999394,670.8381405000109,671.2220924000721,,,,,,,,,,,,,,,,,,,,,,up,2.405038099968806,None,space,0.43533270014449954,None,P132,001,2025-03-06_11h17.36.190,posner_endo_new1,2024.2.4,60.00718890199849,2025-03-06 11h18.13.147259 +0000,
cube_r.png,0.1,-0.31,invalid,36,36,0,up,5.033003400079906,None,space,0.3642394000198692,None,,,,,,,,,0,36,36,36,671.2381200999953,,,,,,,,,,,,,671.2222726999316,671.2381200999953,671.2381200999953,671.2381200999953,676.2837167000398,,,,676.2898224000819,676.3014712000731,676.3014712000731,676.3496880000457,676.349922799971,676.3661801998969,676.3661801998969,676.3661801998969,676.4326621000655,676.7331695000175,,,,,,,,,,,,,,,,,,,,,,up,5.033003400079906,None,space,0.3642394000198692,None,P132,001,2025-03-06_11h17.36.190,posner_endo_new1,2024.2.4,60.00718890199849,2025-03-06 11h18.13.147259 +0000,
cube_l.png,0.1,0.31,invalid,37,37,0,up,6.074560800101608,None,space,0.43114160001277924,None,,,,,,,,,0,37,37,37,676.7488973001018,,,,,,,,,,,,,676.7333460000809,676.7488973001018,676.7488973001018,676.7488973001018,682.8270229001064,,,,682.8331518999767,682.844920600066,682.844920600066,682.8928592000157,682.8930913000368,682.9095515999943,682.9095515999943,682.9095515999943,682.9926785998978,683.343219500035,,,,,,,,,,,,,,,,,,,,,,up,6.074560800101608,None,space,0.43114160001277924,None,P132,001,2025-03-06_11h17.36.190,posner_endo_new1,2024.2.4,60.00718890199849,2025-03-06 11h18.13.147259 +0000,
cube_l.png,0.1,0.31,invalid,38,38,0,up,5.32806560001336,None,space,0.4390370000619441,None,,,,,,,,,0,38,38,38,683.3589290000964,,,,,,,,,,,,,683.3433946999721,683.3589290000964,683.3589290000964,683.3589290000964,688.687843099935,,,,688.6940595000051,688.7059005999472,688.7059005999472,688.7536015999503,688.7538308999501,688.7702156000305,688.7702156000305,688.7702156000305,688.8533077999018,689.2204998000525,,,,,,,,,,,,,,,,,,,,,,up,5.32806560001336,None,space,0.4390370000619441,None,P132,001,2025-03-06_11h17.36.190,posner_endo_new1,2024.2.4,60.00718890199849,2025-03-06 11h18.13.147259 +0000,
cube_r.png,0.1,0.31,valid,39,39,0,up,6.379432799993083,None,space,0.34659940004348755,None,,,,,,,,,0,39,39,39,689.2363934000023,,,,,,,,,,,,,689.2206737000961,689.2363934000023,689.2363934000023,689.2363934000023,695.6305668998975,,,,695.6369225000963,695.6487845999654,695.6487845999654,695.6964537999593,695.6966862000991,695.7130317001138,695.7130317001138,695.7130317001138,695.7797193999868,696.0634387999307,,,,,,,,,,,,,,,,,,,,,,up,6.379432799993083,None,space,0.34659940004348755,None,P132,001,2025-03-06_11h17.36.190,posner_endo_new1,2024.2.4,60.00718890199849,2025-03-06 11h18.13.147259 +0000,
cube_l.png,0.1,0.31,invalid,40,40,0,up,6.703604300040752,None,space,0.38324179989285767,None,,,,,,,,,0,40,40,40,696.0794534001034,,,,,,,,,,,,,696.0636134000961,696.0794534001034,696.0794534001034,696.0794534001034,702.7902989999857,,,,702.8019848000258,702.8124249000102,702.8124249000102,702.8561410999391,702.8565008000005,702.8725131999236,702.8725131999236,702.8725131999236,702.9556700999383,703.2569397001062,,,,,,,,,,,,,,,,,,,,,,up,6.703604300040752,None,space,0.38324179989285767,None,P132,001,2025-03-06_11h17.36.190,posner_endo_new1,2024.2.4,60.00718890199849,2025-03-06 11h18.13.147259 +0000,
cube_l.png,0.1,10,catch,41,41,0,up,10.840321499854326,None,None,,,,,,,,,,,0,41,41,41,703.2720441999845,,,,,,,,,,,,,703.2572373999283,703.2720441999845,703.2720441999845,703.2720441999845,714.1282959000673,,,,714.1349404999055,714.1467226000968,714.1467226000968,714.1940333999228,714.1945019999985,714.2104678000323,714.2104678000323,714.2104678000323,714.2937566000037,717.2083538000006,,,,716.3086928999983,717.2244911000598,717.2244911000598,717.2244911000598,,,,,,,,,,,,,,,up,10.840321499854326,None,None,,,P132,001,2025-03-06_11h17.36.190,posner_endo_new1,2024.2.4,60.00718890199849,2025-03-06 11h18.13.147259 +0000,
cube_l.png,0.1,-0.31,valid,42,42,0,up,1.6952907000668347,None,space,0.4061237000860274,None,,,,,,,,,0,42,42,42,717.2244911000598,,,,,,,,,,,,,717.2086032999214,717.2244911000598,717.2244911000598,717.2244911000598,718.9236413000617,,,,718.9302346000914,718.9420751999132,718.9420751999132,718.9895279998891,718.9897586998995,719.005809500115,719.005809500115,719.005809500115,719.0891815999057,719.422853600001,,,,,,,,,,,,,,,,,,,,,,up,1.6952907000668347,None,space,0.4061237000860274,None,P132,001,2025-03-06_11h17.36.190,posner_endo_new1,2024.2.4,60.00718890199849,2025-03-06 11h18.13.147259 +0000,
cube_l.png,0.1,10,catch,43,43,0,up,9.272467599948868,None,None,,,,,,,,,,,0,43,43,43,719.4387489999644,,,,,,,,,,,,,719.4230299000628,719.4387489999644,719.4387489999644,719.4387489999644,728.7139779999852,,,,728.7249835000839,728.735199799994,728.735199799994,728.7794427999761,728.7797572999261,728.7959813000634,728.7959813000634,728.7959813000634,728.8792308000848,731.7936354998965,,,,730.8939201000612,731.8095164000988,731.8095164000988,731.8095164000988,,,,,,,,,,,,,,,up,9.272467599948868,None,None,,,P132,001,2025-03-06_11h17.36.190,posner_endo_new1,2024.2.4,60.00718890199849,2025-03-06 11h18.13.147259 +0000,
cube_l.png,0.1,0.31,invalid,44,44,0,up,2.461705799913034,None,space,0.424852600088343,None,,,,,,,,,0,44,44,44,731.8095164000988,,,,,,,,,,,,,731.7938786000013,731.8095164000988,731.8095164000988,731.8095164000988,734.2743611000478,,,,734.2809639000334,734.2926549999975,734.2926549999975,734.3403340000659,734.3405623999424,734.356900600018,734.356900600018,734.356900600018,734.4234829000197,734.7904682999942,,,,,,,,,,,,,,,,,,,,,,up,2.461705799913034,None,space,0.424852600088343,None,P132,001,2025-03-06_11h17.36.190,posner_endo_new1,2024.2.4,60.00718890199849,2025-03-06 11h18.13.147259 +0000,
cube_l.png,0.1,0.31,invalid,45,45,0,up,4.704712100094184,None,space,0.3988306000828743,None,,,,,,,,,0,45,45,45,734.8064767001197,,,,,,,,,,,,,734.7906508001033,734.8064767001197,734.8064767001197,734.8064767001197,739.519303600071,,,,739.5265494000632,739.5382302999496,739.5382302999496,739.5850166999735,739.5852471000981,739.6016210999805,739.6016210999805,739.6016210999805,739.6848643000703,740.0020389999263,,,,,,,,,,,,,,,,,,,,,,up,4.704712100094184,None,space,0.3988306000828743,None,P132,001,2025-03-06_11h17.36.190,posner_endo_new1,2024.2.4,60.00718890199849,2025-03-06 11h18.13.147259 +0000,
cube_r.png,0.1,0.31,valid,46,46,0,up,5.373781299917027,None,space,0.3673286000266671,None,,,,,,,,,0,46,46,46,740.01775060012,,,,,,,,,,,,,740.0022138999775,740.01775060012,740.01775060012,740.01775060012,745.3965427000076,,,,745.4035209000576,745.4152269999031,745.4152269999031,745.4623773999047,745.4626170000993,745.4787896999624,745.4787896999624,745.4787896999624,745.5621684000362,745.8625131999142,,,,,,,,,,,,,,,,,,,,,,up,5.373781299917027,None,space,0.3673286000266671,None,P132,001,2025-03-06_11h17.36.190,posner_endo_new1,2024.2.4,60.00718890199849,2025-03-06 11h18.13.147259 +0000,
cube_l.png,0.1,-0.31,valid,47,47,0,up,4.577351300045848,None,space,0.38777410006150603,None,,,,,,,,,0,47,47,47,745.8785294999834,,,,,,,,,,,,,745.8626888999715,745.8785294999834,745.8785294999834,745.8785294999834,750.457942100009,,,,750.4653560000006,750.4771058999468,750.4771058999468,750.5238268999383,750.5240587999579,750.5403960999101,750.5403960999101,750.5403960999101,750.6070324999746,750.9408356000204,,,,,,,,,,,,,,,,,,,,,,up,4.577351300045848,None,space,0.38777410006150603,None,P132,001,2025-03-06_11h17.36.190,posner_endo_new1,2024.2.4,60.00718890199849,2025-03-06 11h18.13.147259 +0000,
cube_r.png,0.1,-0.31,invalid,48,48,0,up,5.635551400016993,None,space,0.40994970011524856,None,,,,,,,,,0,48,48,48,750.9566440999042,,,,,,,,,,,,,750.941015599994,750.9566440999042,750.9566440999042,750.9566440999042,756.6018427999225,,,,756.6126496999059,756.6228149998933,756.6228149998933,756.6677697999403,756.6680817001034,756.6842712000944,756.6842712000944,756.6842712000944,756.7674539999571,757.1014489000663,,,,,,,,,,,,,,,,,,,,,,up,5.635551400016993,None,space,0.40994970011524856,None,P132,001,2025-03-06_11h17.36.190,posner_endo_new1,2024.2.4,60.00718890199849,2025-03-06 11h18.13.147259 +0000,
cube_r.png,0.1,10,catch,49,49,0,up,4.683013899950311,None,None,,,,,,,,,,,0,49,49,49,757.1171681999695,,,,,,,,,,,,,757.1017042000312,757.1171681999695,757.1171681999695,757.1171681999695,761.8132301999722,,,,761.8239178999793,761.834023399977,761.834023399977,761.878911399981,761.8792290999554,761.8954853999894,761.8954853999894,761.8954853999894,761.9786960000638,764.8930919000413,,,,763.9933903000783,764.9091680001002,764.9091680001002,764.9091680001002,,,,,,,,,,,,,,,up,4.683013899950311,None,None,,,P132,001,2025-03-06_11h17.36.190,posner_endo_new1,2024.2.4,60.00718890199849,2025-03-06 11h18.13.147259 +0000,
cube_l.png,0.1,-0.31,valid,50,50,0,up,2.506555400090292,None,space,0.5263193999417126,None,,,,,,,,,0,50,50,50,764.9091680001002,,,,,,,,,,,,,764.8933323998936,764.9091680001002,764.9091680001002,764.9091680001002,767.4243805001024,,,,767.4351908999961,767.4453155999072,767.4453155999072,767.4899049999658,767.4902190000284,767.5064262999222,767.5064262999222,767.5064262999222,767.5896505001001,768.0400821999647,,,,,,,,,,,,,,,,,,,,,,up,2.506555400090292,None,space,0.5263193999417126,None,P132,001,2025-03-06_11h17.36.190,posner_endo_new1,2024.2.4,60.00718890199849,2025-03-06 11h18.13.147259 +0000,
cube_l.png,0.1,-0.31,valid,51,51,0,up,4.703278899891302,None,space,0.42404870013706386,None,,,,,,,,,0,51,51,51,768.0560107999481,,,,,,,,,,,,,768.0403448001016,768.0560107999481,768.0560107999481,768.0560107999481,772.7687230999582,,,,772.7795001000632,772.7896487999242,772.7896487999242,772.8345182999037,772.834829499945,772.851054900093,772.851054900093,772.851054900093,772.9342565999832,773.2849481001031,,,,,,,,,,,,,,,,,,,,,,up,4.703278899891302,None,space,0.42404870013706386,None,P132,001,2025-03-06_11h17.36.190,posner_endo_new1,2024.2.4,60.00718890199849,2025-03-06 11h18.13.147259 +0000,
cube_r.png,0.1,-0.31,invalid,52,52,0,up,4.634919999865815,None,space,0.5917551999446005,None,,,,,,,,,0,52,52,52,773.3004854000174,,,,,,,,,,,,,773.2852072999813,773.3004854000174,773.3004854000174,773.3004854000174,777.9468505999539,,,,777.9567289000843,777.966247000033,777.966247000033,778.0124760000035,778.0127119000535,778.0290516000241,778.0290516000241,778.0290516000241,778.1123009000439,778.6293142999057,,,,,,,,,,,,,,,,,,,,,,up,4.634919999865815,None,space,0.5917551999446005,None,P132,001,2025-03-06_11h17.36.190,posner_endo_new1,2024.2.4,60.00718890199849,2025-03-06 11h18.13.147259 +0000,
cube_l.png,0.1,-0.31,valid,53,53,0,up,3.0745669999159873,None,space,0.5312699000351131,None,,,,,,,,,0,53,53,53,778.6449599000625,,,,,,,,,,,,,778.6294919999782,778.6449599000625,778.6449599000625,778.6449599000625,781.7260296000168,,,,781.7328802999109,781.7439319000114,781.7439319000114,781.7918656999245,781.7923749000765,781.8082793999929,781.8082793999929,781.8082793999929,781.8919466999359,782.3424772000872,,,,,,,,,,,,,,,,,,,,,,up,3.0745669999159873,None,space,0.5312699000351131,None,P132,001,2025-03-06_11h17.36.190,posner_endo_new1,2024.2.4,60.00718890199849,2025-03-06 11h18.13.147259 +0000,
cube_r.png,0.1,10,catch,54,54,0,up,2.706193899968639,None,None,,,,,,,,,,,0,54,54,54,782.3579476999585,,,,,,,,,,,,,782.3427820000798,782.3579476999585,782.3579476999585,782.3579476999585,785.0729507000651,,,,785.0852991999127,785.0956953000277,785.0956953000277,785.138625399908,785.1389808000531,785.1550799999386,785.1550799999386,785.1550799999386,785.2383276999462,788.1528036999516,,,,787.2529357001185,788.1687417000066,788.1687417000066,788.1687417000066,,,,,,,,,,,,,,,up,2.706193899968639,None,None,,,P132,001,2025-03-06_11h17.36.190,posner_endo_new1,2024.2.4,60.00718890199849,2025-03-06 11h18.13.147259 +0000,
cube_l.png,0.1,0.31,invalid,55,55,0,up,2.286901199957356,None,space,0.6185011998750269,None,,,,,,,,,0,55,55,55,788.1687417000066,,,,,,,,,,,,,788.153080600081,788.1687417000066,788.1687417000066,788.1687417000066,790.4674881999381,,,,790.4797469999176,790.490213500103,790.490213500103,790.5327522999141,790.5330113000236,790.5493296999484,790.5493296999484,790.5493296999484,790.6326623999048,791.1827606000006,,,,,,,,,,,,,,,,,,,,,,up,2.286901199957356,None,space,0.6185011998750269,None,P132,001,2025-03-06_11h17.36.190,posner_endo_new1,2024.2.4,60.00718890199849,2025-03-06 11h18.13.147259 +0000,
cube_l.png,0.1,-0.31,valid,56,56,0,up,5.721399700036272,None,space,0.3614365002140403,None,,,,,,,,,0,56,56,56,791.1989370000083,,,,,,,,,,,,,791.1829631000292,791.1989370000083,791.1989370000083,791.1989370000083,796.9270379000809,,,,796.9343932999764,796.9462238999549,796.9462238999549,796.9930718999822,796.9933041001204,797.0094779999927,797.0094779999927,797.0094779999927,797.0762000000104,797.376607199898,,,,,,,,,,,,,,,,,,,,,,up,5.721399700036272,None,space,0.3614365002140403,None,P132,001,2025-03-06_11h17.36.190,posner_endo_new1,2024.2.4,60.00718890199849,2025-03-06 11h18.13.147259 +0000,
cube_r.png,0.1,0.31,valid,57,57,0,up,5.695243699941784,None,space,0.371114999987185,None,,,,,,,,,0,57,57,57,797.392603199929,,,,,,,,,,,,,797.3767872001044,797.392603199929,797.392603199929,797.392603199929,803.104189200094,,,,803.1108824000694,803.1227039000951,803.1227039000951,803.1700844001025,803.1703182000201,803.1866900001187,803.1866900001187,803.1866900001187,803.253396499902,803.5702100000344,,,,,,,,,,,,,,,,,,,,,,up,5.695243699941784,None,space,0.371114999987185,None,P132,001,2025-03-06_11h17.36.190,posner_endo_new1,2024.2.4,60.00718890199849,2025-03-06 11h18.13.147259 +0000,
cube_r.png,0.1,-0.31,invalid,58,58,0,up,5.3574243998155,None,space,0.39299389999359846,None,,,,,,,,,0,58,58,58,803.5862861999776,,,,,,,,,,,,,803.5703841000795,803.5862861999776,803.5862861999776,803.5862861999776,808.9484951999038,,,,808.9594656999689,808.9696357999928,808.9696357999928,809.0141586998943,809.0144704999402,809.0306637000758,809.0306637000758,809.0306637000758,809.1138486999553,809.4313550000079,,,,,,,,,,,,,,,,,,,,,,up,5.3574243998155,None,space,0.39299389999359846,None,P132,001,2025-03-06_11h17.36.190,posner_endo_new1,2024.2.4,60.00718890199849,2025-03-06 11h18.13.147259 +0000,
cube_l.png,0.1,0.31,invalid,59,59,0,up,5.121598899830133,None,space,0.43444609991274774,None,,,,,,,,,0,59,59,59,809.4470130000263,,,,,,,,,,,,,809.4316155000124,809.4470130000263,809.4470130000263,809.4470130000263,814.5761257999111,,,,814.5866008999292,814.5963157999795,814.5963157999795,814.6416668000165,814.6418965000194,814.6584246999118,814.6584246999118,814.6584246999118,814.7415915001184,815.1085648001172,,,,,,,,,,,,,,,,,,,,,,up,5.121598899830133,None,space,0.43444609991274774,None,P132,001,2025-03-06_11h17.36.190,posner_endo_new1,2024.2.4,60.00718890199849,2025-03-06 11h18.13.147259 +0000,
