cue_img,cue_soa,target_y,trial,thisN,thisTrialN,thisRepN,key_control2.keys,key_control2.rt,key_control2.duration,key_resp.keys,key_resp.rt,key_resp.duration,practice.thisRepN,practice.thisTrialN,practice.thisN,practice.thisIndex,block1.thisRepN,block1.thisTrialN,block1.thisN,block1.thisIndex,block2.thisRepN,block2.thisTrialN,block2.thisN,block2.thisIndex,thisRow.t,notes,instructions.started,instructions_txt.started,key_control.started,instructions.stopped,key_control.keys,key_control.rt,key_control.duration,ready.started,ready_txt.started,ready_txt.stopped,ready.stopped,fix.started,fixation.started,key_control2.started,fixation_cross.started,fix.stopped,practice.key_control2.keys,practice.key_control2.rt,practice.key_control2.duration,cue.started,cube.started,fixation_cross_cue.started,cue.stopped,target.started,fixation_target.started,fixation_cross_target.started,key_resp.started,star.started,star.stopped,fixation_target.stopped,fixation_cross_target.stopped,key_resp.stopped,target.stopped,practice.key_resp.keys,practice.key_resp.rt,practice.key_resp.duration,block1.key_control2.keys,block1.key_control2.rt,block1.key_control2.duration,block1.key_resp.keys,block1.key_resp.rt,block1.key_resp.duration,break_2.started,text.started,key_control3.started,text.stopped,break_2.stopped,key_control3.keys,key_control3.rt,key_control3.duration,block2.key_control2.keys,block2.key_control2.rt,block2.key_control2.duration,block2.key_resp.keys,block2.key_resp.rt,block2.key_resp.duration,participant,session,date,expName,psychopyVersion,frameRate,expStart,
,,,,,,,,,,,,,,,,,,,,,,,,,,,0.007544300053268671,0.0252704001031816,0.0252704001031816,503.5143218000885,up,503.47977009997703,None,,,,,,,,,,,,,,,,,,,,,,,,,,,,,,,,,,,,,,,,,,,,,,,,,,P133,001,2025-03-26_10h57.10.446,posner_endo_new1,2024.2.4,60.044156459386414,2025-03-26 10h57.49.618825 +0000,
,,,,,,,,,,,,,,,,,,,,,,,,,,,,,,,,,,503.5143703999929,503.52724299998954,506.55027840007097,506.5090425000526,,,,,,,,,,,,,,,,,,,,,,,,,,,,,,,,,,,,,,,,,,,,,,P133,001,2025-03-26_10h57.10.446,posner_endo_new1,2024.2.4,60.044156459386414,2025-03-26 10h57.49.618825 +0000,
cube_r.png,0.1,10,catch,0,0,0,up,21.026618200121447,None,None,,,0,0,0,3,,,,,,,,,506.55027840007097,,,,,,,,,,,,,506.53777340007946,506.55027840007097,506.55027840007097,506.55027840007097,527.5870489000808,up,21.026618200121447,None,527.6036203000695,527.6144632999785,527.6144632999785,527.6527656998951,527.6530758999288,527.6693259999156,527.6693259999156,527.6693259999156,527.7525537998881,529.7674296998885,530.6828169000801,530.6828169000801,530.6828169000801,530.6667641999666,None,,,,,,,,,,,,,,,,,,,,,,,P133,001,2025-03-26_10h57.10.446,posner_endo_new1,2024.2.4,60.044156459386414,2025-03-26 10h57.49.618825 +0000,
cube_r.png,0.1,-0.31,invalid,1,1,0,up,5.110578499967232,None,space,0.4660565999802202,None,0,1,1,9,,,,,,,,,530.6828169000801,,,,,,,,,,,,,530.6669860000256,530.6828169000801,530.6828169000801,530.6828169000801,535.7951885999646,up,5.110578499967232,None,535.8015274000354,535.8133646000642,535.8133646000642,535.8610310999211,535.8612526999786,535.8775947999675,535.8775947999675,535.8775947999675,535.9607750999276,,,,,536.3446551000234,space,0.4660565999802202,None,,,,,,,,,,,,,,,,,,,,,P133,001,2025-03-26_10h57.10.446,posner_endo_new1,2024.2.4,60.044156459386414,2025-03-26 10h57.49.618825 +0000,
cube_l.png,0.1,-0.31,valid,2,2,0,up,4.2246788998600096,None,space,0.2242266999091953,None,0,2,2,8,,,,,,,,,536.3603332000785,,,,,,,,,,,,,536.3448165000882,536.3603332000785,536.3603332000785,536.3603332000785,540.590543899918,up,4.2246788998600096,None,540.6004099999554,540.6104681999423,540.6104681999423,540.6560923000798,540.6563945999369,540.6726786000654,540.6726786000654,540.6726786000654,540.7558333999477,,,,,540.9067341000773,space,0.2242266999091953,None,,,,,,,,,,,,,,,,,,,,,P133,001,2025-03-26_10h57.10.446,posner_endo_new1,2024.2.4,60.044156459386414,2025-03-26 10h57.49.618825 +0000,
cube_r.png,0.1,-0.31,invalid,3,3,0,up,5.5265760000329465,None,space,0.24365509999915957,None,0,3,3,2,,,,,,,,,540.9224735000171,,,,,,,,,,,,,540.9069753999356,540.9224735000171,540.9224735000171,540.9224735000171,546.4511770000681,up,5.5265760000329465,None,546.4608529000543,546.4709441000596,546.4709441000596,546.5168729999568,546.5171813999768,546.5332514001057,546.5332514001057,546.5332514001057,546.616536000045,,,,,546.7840231000446,space,0.24365509999915957,None,,,,,,,,,,,,,,,,,,,,,P133,001,2025-03-26_10h57.10.446,posner_endo_new1,2024.2.4,60.044156459386414,2025-03-26 10h57.49.618825 +0000,
cube_r.png,0.1,-0.31,invalid,4,4,0,up,4.465109300101176,None,space,0.38764630001969635,None,0,4,4,6,,,,,,,,,546.7996896000113,,,,,,,,,,,,,546.7842592999805,546.7996896000113,546.7996896000113,546.7996896000113,551.2791679000948,up,4.465109300101176,None,551.2851585000753,551.296758600045,551.296758600045,551.3450766000897,551.3452985000331,551.3616440999322,551.3616440999322,551.3616440999322,551.4285593000241,,,,,551.7618863000534,space,0.38764630001969635,None,,,,,,,,,,,,,,,,,,,,,P133,001,2025-03-26_10h57.10.446,posner_endo_new1,2024.2.4,60.044156459386414,2025-03-26 10h57.49.618825 +0000,
cube_l.png,0.1,0.31,invalid,5,5,0,up,6.350836799945682,None,space,0.28927460010163486,None,0,5,5,5,,,,,,,,,551.7780049000867,,,,,,,,,,,,,551.762051000027,551.7780049000867,551.7780049000867,551.7780049000867,558.1391215000767,up,6.350836799945682,None,558.1487734999973,558.1589321999345,558.1589321999345,558.2049122001044,558.2052203998901,558.2213369999081,558.2213369999081,558.2213369999081,558.3045818998944,,,,,558.5220063999295,space,0.28927460010163486,None,,,,,,,,,,,,,,,,,,,,,P133,001,2025-03-26_10h57.10.446,posner_endo_new1,2024.2.4,60.044156459386414,2025-03-26 10h57.49.618825 +0000,
cube_l.png,0.1,-0.31,valid,6,6,0,up,6.582982199965045,None,space,0.3101751001086086,None,0,6,6,0,,,,,,,,,558.5376458000392,,,,,,,,,,,,,558.5222434001043,558.5376458000392,558.5376458000392,558.5376458000392,565.1318010999821,up,6.582982199965045,None,565.1414667000063,565.1515726998914,565.1515726998914,565.1976681000087,565.197968200082,565.214211500017,565.214211500017,565.214211500017,565.2807811999228,,,,,565.5314815000165,space,0.3101751001086086,None,,,,,,,,,,,,,,,,,,,,,P133,001,2025-03-26_10h57.10.446,posner_endo_new1,2024.2.4,60.044156459386414,2025-03-26 10h57.49.618825 +0000,
cube_l.png,0.1,0.31,invalid,7,7,0,up,7.349748500157148,None,space,0.27511760010384023,None,0,7,7,1,,,,,,,,,565.5471614000853,,,,,,,,,,,,,565.5317184000742,565.5471614000853,565.5471614000853,565.5471614000853,572.907488200115,up,7.349748500157148,None,572.9171466999687,572.9271923999768,572.9271923999768,572.9730316998903,572.9733331000898,572.9895884001162,572.9895884001162,572.9895884001162,573.0727313999087,,,,,573.2739194000605,space,0.27511760010384023,None,,,,,,,,,,,,,,,,,,,,,P133,001,2025-03-26_10h57.10.446,posner_endo_new1,2024.2.4,60.044156459386414,2025-03-26 10h57.49.618825 +0000,
cube_r.png,0.1,0.31,valid,8,8,0,up,6.560350500047207,None,space,0.27763460017740726,None,0,8,8,7,,,,,,,,,573.2893703998998,,,,,,,,,,,,,573.2741586000193,573.2893703998998,573.2893703998998,573.2893703998998,579.8667677999474,up,6.560350500047207,None,579.8763689999469,579.8861700000707,579.8861700000707,579.9326359999832,579.9329379000701,579.9491218999028,579.9491218999028,579.9491218999028,580.0324047999457,,,,,580.2333746999502,space,0.27763460017740726,None,,,,,,,,,,,,,,,,,,,,,P133,001,2025-03-26_10h57.10.446,posner_endo_new1,2024.2.4,60.044156459386414,2025-03-26 10h57.49.618825 +0000,
cube_r.png,0.1,0.31,valid,9,9,0,up,6.8802479999139905,None,space,0.4087850998621434,None,0,9,9,10,,,,,,,,,580.2487206000369,,,,,,,,,,,,,580.2336144999135,580.2487206000369,580.2487206000369,580.2487206000369,587.1426536999643,up,6.8802479999139905,None,587.1508118999191,587.1615971000865,587.1615971000865,587.20879100007,587.2093541999348,587.2249974000733,587.2249974000733,587.2249974000733,587.3082475999836,,,,,587.6431664999109,space,0.4087850998621434,None,,,,,,,,,,,,,,,,,,,,,P133,001,2025-03-26_10h57.10.446,posner_endo_new1,2024.2.4,60.044156459386414,2025-03-26 10h57.49.618825 +0000,
cube_l.png,0.1,-0.31,valid,10,10,0,up,9.023021999979392,None,space,0.3452930999919772,None,0,10,10,4,,,,,,,,,587.6579003001098,,,,,,,,,,,,,587.6436117999256,587.6579003001098,587.6579003001098,587.6579003001098,596.6840721000917,up,9.023021999979392,None,596.702738400083,596.7140367000829,596.7140367000829,596.7487004001159,596.749004600104,596.7655744999647,596.7655744999647,596.7655744999647,596.8484934000298,,,,,597.117033699993,space,0.3452930999919772,None,,,,,,,,,,,,,,,,,,,,,P133,001,2025-03-26_10h57.10.446,posner_endo_new1,2024.2.4,60.044156459386414,2025-03-26 10h57.49.618825 +0000,
,,,,,,,,,,,,,,,,,,,,,,,,,,,,,,,,,,597.1173252000008,597.1314838000108,600.1430224999785,600.1124201000202,,,,,,,,,,,,,,,,,,,,,,,,,,,,,,,,,,,,,,,,,,,,,,P133,001,2025-03-26_10h57.10.446,posner_endo_new1,2024.2.4,60.044156459386414,2025-03-26 10h57.49.618825 +0000,
cube_l.png,0.1,10,catch,0,0,0,up,59.034459199989215,None,None,,,,,,,0,0,0,0,,,,,600.1430224999785,,,,,,,,,,,,,600.1338456000667,600.1430224999785,600.1430224999785,600.1430224999785,659.1852915000636,,,,659.1913288999349,659.2029468999244,659.2029468999244,659.2513820000459,659.2518871999346,659.2678004000336,659.2678004000336,659.2678004000336,659.334424499888,661.3490091001149,662.2813957000617,662.2813957000617,662.2813957000617,662.2658581000287,,,,up,59.034459199989215,None,None,,,,,,,,,,,,,,,,,P133,001,2025-03-26_10h57.10.446,posner_endo_new1,2024.2.4,60.044156459386414,2025-03-26 10h57.49.618825 +0000,
cube_l.png,0.1,10,catch,1,1,0,up,1.9359043999575078,None,space,0.3032265000510961,None,,,,,0,1,1,1,,,,,662.2813957000617,,,,,,,,,,,,,662.2662641999777,662.2813957000617,662.2813957000617,662.2813957000617,664.2306991999503,,,,664.2422130999621,664.2523668999784,664.2523668999784,664.2962007001042,664.2965416999068,664.3128684998956,664.3128684998956,664.3128684998956,664.3960259000305,,,,,664.6304236000869,,,,up,1.9359043999575078,None,space,0.3032265000510961,None,,,,,,,,,,,,,,,P133,001,2025-03-26_10h57.10.446,posner_endo_new1,2024.2.4,60.044156459386414,2025-03-26 10h57.49.618825 +0000,
cube_l.png,0.1,0.31,invalid,2,2,0,up,4.114991999929771,None,space,0.3663510999176651,None,,,,,0,2,2,2,,,,,664.6457517999224,,,,,,,,,,,,,664.6307129999623,664.6457517999224,664.6457517999224,664.6457517999224,668.7760048999917,,,,668.7875383000355,668.7977615001146,668.7977615001146,668.8416418000124,668.8419814000372,668.8580757000018,668.8580757000018,668.8580757000018,668.9414387000725,,,,,669.2257852000184,,,,up,4.114991999929771,None,space,0.3663510999176651,None,,,,,,,,,,,,,,,P133,001,2025-03-26_10h57.10.446,posner_endo_new1,2024.2.4,60.044156459386414,2025-03-26 10h57.49.618825 +0000,
cube_l.png,0.1,0.31,invalid,3,3,0,up,11.159878100035712,None,space,0.3548703999258578,None,,,,,0,3,3,3,,,,,669.2410444999114,,,,,,,,,,,,,669.226081199944,669.2410444999114,669.2410444999114,669.2410444999114,680.4139352000784,,,,680.4226655999664,680.432595100021,680.432595100021,680.4798904000781,680.480429999996,680.4962192000821,680.4962192000821,680.4962192000821,680.5794734999072,,,,,680.8643851000816,,,,up,11.159878100035712,None,space,0.3548703999258578,None,,,,,,,,,,,,,,,P133,001,2025-03-26_10h57.10.446,posner_endo_new1,2024.2.4,60.044156459386414,2025-03-26 10h57.49.618825 +0000,
cube_l.png,0.1,-0.31,valid,4,4,0,up,6.698370099999011,None,space,0.3840824000071734,None,,,,,0,4,4,4,,,,,680.8791600000113,,,,,,,,,,,,,680.8648459999822,680.8791600000113,680.8791600000113,680.8791600000113,687.5908246000763,,,,687.6095155999064,687.620958799962,687.620958799962,687.6556969999801,687.6559768000152,687.6722339000553,687.6722339000553,687.6722339000553,687.7554583998863,,,,,688.0735235998873,,,,up,6.698370099999011,None,space,0.3840824000071734,None,,,,,,,,,,,,,,,P133,001,2025-03-26_10h57.10.446,posner_endo_new1,2024.2.4,60.044156459386414,2025-03-26 10h57.49.618825 +0000,
cube_r.png,0.1,-0.31,invalid,5,5,0,up,4.680856400169432,None,space,0.4810681000817567,None,,,,,0,5,5,5,,,,,688.0884533999488,,,,,,,,,,,,,688.0740082000848,688.0884533999488,688.0884533999488,688.0884533999488,692.785511800088,,,,692.8041795999743,692.815297299996,692.815297299996,692.8503547001164,692.8506952000316,692.8668959001079,692.8668959001079,692.8668959001079,692.9500184999779,,,,,693.3509786999784,,,,up,4.680856400169432,None,space,0.4810681000817567,None,,,,,,,,,,,,,,,P133,001,2025-03-26_10h57.10.446,posner_endo_new1,2024.2.4,60.044156459386414,2025-03-26 10h57.49.618825 +0000,
cube_r.png,0.1,0.31,valid,6,6,0,up,3.362843699986115,None,space,0.3283401997759938,None,,,,,0,6,6,6,,,,,693.3663242000621,,,,,,,,,,,,,693.3512659000698,693.3663242000621,693.3663242000621,693.3663242000621,696.731003300054,,,,696.7413908999879,696.7510198000818,696.7510198000818,696.7965536999982,696.7967966001015,696.8131496999413,696.8131496999413,696.8131496999413,696.8961787000299,,,,,697.1477667000145,,,,up,3.362843699986115,None,space,0.3283401997759938,None,,,,,,,,,,,,,,,P133,001,2025-03-26_10h57.10.446,posner_endo_new1,2024.2.4,60.044156459386414,2025-03-26 10h57.49.618825 +0000,
cube_r.png,0.1,-0.31,invalid,7,7,0,up,9.446179100079462,None,space,0.38368749991059303,None,,,,,0,7,7,7,,,,,697.1624960000627,,,,,,,,,,,,,697.1482339000795,697.1624960000627,697.1624960000627,697.1624960000627,706.6206288998947,,,,706.6323428999167,706.6425240999088,706.6425240999088,706.6861851001158,706.6865262000356,706.7027032999322,706.7027032999322,706.7027032999322,706.7859223999549,,,,,707.1033115999307,,,,up,9.446179100079462,None,space,0.38368749991059303,None,,,,,,,,,,,,,,,P133,001,2025-03-26_10h57.10.446,posner_endo_new1,2024.2.4,60.044156459386414,2025-03-26 10h57.49.618825 +0000,
cube_l.png,0.1,-0.31,valid,8,8,0,up,8.290171900065616,None,space,0.33617800008505583,None,,,,,0,8,8,8,,,,,707.1189862000756,,,,,,,,,,,,,707.1036181000527,707.1189862000756,707.1189862000756,707.1189862000756,715.4117910000496,,,,715.4233880999964,715.4334303000942,715.4334303000942,715.4772089999169,715.4775501999538,715.4937473000027,715.4937473000027,715.4937473000027,715.5769428000785,,,,,715.8444898999296,,,,up,8.290171900065616,None,space,0.33617800008505583,None,,,,,,,,,,,,,,,P133,001,2025-03-26_10h57.10.446,posner_endo_new1,2024.2.4,60.044156459386414,2025-03-26 10h57.49.618825 +0000,
cube_r.png,0.1,-0.31,invalid,9,9,0,up,7.710460999980569,None,space,0.3456087000668049,None,,,,,0,9,9,9,,,,,715.8599815999623,,,,,,,,,,,,,715.8447763000149,715.8599815999623,715.8599815999623,715.8599815999623,723.5865251999348,,,,723.5982226999477,723.6082852000836,723.6082852000836,723.6521318000741,723.6524781000335,723.668605200015,723.668605200015,723.668605200015,723.7518464000896,,,,,724.0195959000848,,,,up,7.710460999980569,None,space,0.3456087000668049,None,,,,,,,,,,,,,,,P133,001,2025-03-26_10h57.10.446,posner_endo_new1,2024.2.4,60.044156459386414,2025-03-26 10h57.49.618825 +0000,
cube_l.png,0.1,0.31,invalid,10,10,0,up,7.885614800034091,None,space,0.3721399998757988,None,,,,,0,10,10,10,,,,,724.035031599924,,,,,,,,,,,,,724.0198816000484,724.035031599924,724.035031599924,724.035031599924,731.9280797999818,,,,731.9396871000063,731.9497803000268,731.9497803000268,731.993662300054,731.9940041000955,732.0102291998919,732.0102291998919,732.0102291998919,732.0933207001071,,,,,732.3943223999813,,,,up,7.885614800034091,None,space,0.3721399998757988,None,,,,,,,,,,,,,,,P133,001,2025-03-26_10h57.10.446,posner_endo_new1,2024.2.4,60.044156459386414,2025-03-26 10h57.49.618825 +0000,
cube_r.png,0.1,-0.31,invalid,11,11,0,up,3.543857599841431,None,space,0.3458956000395119,None,,,,,0,11,11,11,,,,,732.4097474999726,,,,,,,,,,,,,732.3946175000165,732.4097474999726,732.4097474999726,732.4097474999726,735.957254299894,,,,735.9687856999226,735.978867799975,735.978867799975,736.0229215999134,736.0232704000082,736.03944949992,736.03944949992,736.03944949992,736.1226123999804,,,,,736.3903514998965,,,,up,3.543857599841431,None,space,0.3458956000395119,None,,,,,,,,,,,,,,,P133,001,2025-03-26_10h57.10.446,posner_endo_new1,2024.2.4,60.044156459386414,2025-03-26 10h57.49.618825 +0000,
cube_r.png,0.1,0.31,valid,12,12,0,up,5.483626999892294,None,space,0.36074699996970594,None,,,,,0,12,12,12,,,,,736.405690100044,,,,,,,,,,,,,736.3906368999742,736.405690100044,736.405690100044,736.405690100044,741.9011502999347,,,,741.9127452999819,741.9229218000546,741.9229218000546,741.9667728000786,741.967113400111,741.9833084000275,741.9833084000275,741.9833084000275,742.0666664000601,,,,,742.3507429999299,,,,up,5.483626999892294,None,space,0.36074699996970594,None,,,,,,,,,,,,,,,P133,001,2025-03-26_10h57.10.446,posner_endo_new1,2024.2.4,60.044156459386414,2025-03-26 10h57.49.618825 +0000,
cube_l.png,0.1,10,catch,13,13,0,up,5.546931399963796,None,None,,,,,,,0,13,13,13,,,,,742.3662091998849,,,,,,,,,,,,,742.3510336999316,742.3662091998849,742.3662091998849,742.3662091998849,747.9284411999397,,,,747.9400402999017,747.9501996000763,747.9501996000763,747.9939983000513,747.9943393999711,748.010358999949,748.010358999949,748.010358999949,748.0936561999843,750.1082017000299,751.0240774000995,751.0240774000995,751.0240774000995,751.0081207999028,,,,up,5.546931399963796,None,None,,,,,,,,,,,,,,,,,P133,001,2025-03-26_10h57.10.446,posner_endo_new1,2024.2.4,60.044156459386414,2025-03-26 10h57.49.618825 +0000,
cube_r.png,0.1,-0.31,invalid,14,14,0,up,11.25688000000082,None,space,0.37068419996649027,None,,,,,0,14,14,14,,,,,751.0240774000995,,,,,,,,,,,,,751.0084186999593,751.0240774000995,751.0240774000995,751.0240774000995,762.2969585000537,,,,762.3086292999797,762.3187917999458,762.3187917999458,762.3626757001039,762.3630244000815,762.3790130000561,762.3790130000561,762.3790130000561,762.4623875999823,,,,,762.7630855001044,,,,up,11.25688000000082,None,space,0.37068419996649027,None,,,,,,,,,,,,,,,P133,001,2025-03-26_10h57.10.446,posner_endo_new1,2024.2.4,60.044156459386414,2025-03-26 10h57.49.618825 +0000,
cube_l.png,0.1,-0.31,valid,15,15,0,up,7.534248099895194,None,space,0.38890689983963966,None,,,,,0,15,15,15,,,,,762.7786016999744,,,,,,,,,,,,,762.7633710000664,762.7786016999744,762.7786016999744,762.7786016999744,770.3215958001092,,,,770.3283641999587,770.3401071000844,770.3401071000844,770.3877061000094,770.3879259000532,770.4037510000635,770.4037510000635,770.4037510000635,770.4708251999691,,,,,770.8044704999775,,,,up,7.534248099895194,None,space,0.38890689983963966,None,,,,,,,,,,,,,,,P133,001,2025-03-26_10h57.10.446,posner_endo_new1,2024.2.4,60.044156459386414,2025-03-26 10h57.49.618825 +0000,
cube_r.png,0.1,10,catch,16,16,0,up,4.965176800033078,None,None,,,,,,,0,16,16,16,,,,,770.8203730001114,,,,,,,,,,,,,770.8046393000986,770.8203730001114,770.8203730001114,770.8203730001114,775.7994486999232,,,,775.8059358999599,775.8177845999599,775.8177845999599,775.8654503999278,775.8656731001101,775.8819977000821,775.8819977000821,775.8819977000821,775.9652740000747,777.9797116001137,778.8952188999392,778.8952188999392,778.8952188999392,778.8792274999432,,,,up,4.965176800033078,None,None,,,,,,,,,,,,,,,,,P133,001,2025-03-26_10h57.10.446,posner_endo_new1,2024.2.4,60.044156459386414,2025-03-26 10h57.49.618825 +0000,
cube_r.png,0.1,10,catch,17,17,0,up,2.705380499828607,None,None,,,,,,,0,17,17,17,,,,,778.8952188999392,,,,,,,,,,,,,778.8793929999229,778.8952188999392,778.8952188999392,778.8952188999392,781.6104258000851,,,,781.6211695999373,781.6312450999394,781.6312450999394,781.6761340000667,781.6764360999223,781.6926557999104,781.6926557999104,781.6926557999104,781.7758078000043,783.7904487999622,784.7062482999172,784.7062482999172,784.7062482999172,784.6901787999086,,,,up,2.705380499828607,None,None,,,,,,,,,,,,,,,,,P133,001,2025-03-26_10h57.10.446,posner_endo_new1,2024.2.4,60.044156459386414,2025-03-26 10h57.49.618825 +0000,
cube_l.png,0.1,0.31,invalid,18,18,0,up,3.775075700134039,None,space,0.41514469985850155,None,,,,,0,18,18,18,,,,,784.7062482999172,,,,,,,,,,,,,784.6904140999541,784.7062482999172,784.7062482999172,784.7062482999172,788.4866734999232,,,,788.4976079999469,788.5075226000044,788.5075226000044,788.5524410998914,788.5527417999692,788.5689214998856,788.5689214998856,788.5689214998856,788.6521691998933,,,,,788.9863144000992,,,,up,3.775075700134039,None,space,0.41514469985850155,None,,,,,,,,,,,,,,,P133,001,2025-03-26_10h57.10.446,posner_endo_new1,2024.2.4,60.044156459386414,2025-03-26 10h57.49.618825 +0000,
cube_l.png,0.1,10,catch,19,19,0,up,6.351209799991921,None,None,,,,,,,0,19,19,19,,,,,789.0017736998852,,,,,,,,,,,,,788.9865613000002,789.0017736998852,789.0017736998852,789.0017736998852,795.362899000058,,,,795.3736956999637,795.3836856000125,795.3836856000125,795.4286984000355,795.4290098000783,795.4452623999678,795.4452623999678,795.4452623999678,795.5284804000985,797.543017799966,798.4588182000443,798.4588182000443,798.4588182000443,798.4427676999476,,,,up,6.351209799991921,None,None,,,,,,,,,,,,,,,,,P133,001,2025-03-26_10h57.10.446,posner_endo_new1,2024.2.4,60.044156459386414,2025-03-26 10h57.49.618825 +0000,
cube_l.png,0.1,0.31,invalid,20,20,0,up,2.9425638001412153,None,space,0.45133700012229383,None,,,,,0,20,20,20,,,,,798.4588182000443,,,,,,,,,,,,,798.4430056000128,798.4588182000443,798.4588182000443,798.4588182000443,801.4068428000901,,,,801.4177077999339,801.4276046000887,801.4276046000887,801.4725405999925,801.4728429000825,801.4890773000661,801.4890773000661,801.4890773000661,801.5722310999408,,,,,801.9563043001108,,,,up,2.9425638001412153,None,space,0.45133700012229383,None,,,,,,,,,,,,,,,P133,001,2025-03-26_10h57.10.446,posner_endo_new1,2024.2.4,60.044156459386414,2025-03-26 10h57.49.618825 +0000,
cube_l.png,0.1,-0.31,valid,21,21,0,up,6.869793999940157,None,space,0.4249655001331121,None,,,,,0,21,21,21,,,,,801.9718526999932,,,,,,,,,,,,,801.9565608999692,801.9718526999932,801.9718526999932,801.9718526999932,808.8492360999808,,,,808.859952900093,808.8698523000348,808.8698523000348,808.914886200102,808.9151890999638,808.9313964000903,808.9313964000903,808.9313964000903,808.9982034000568,,,,,809.3654163000174,,,,up,6.869793999940157,None,space,0.4249655001331121,None,,,,,,,,,,,,,,,P133,001,2025-03-26_10h57.10.446,posner_endo_new1,2024.2.4,60.044156459386414,2025-03-26 10h57.49.618825 +0000,
cube_r.png,0.1,0.31,valid,22,22,0,up,7.5158769998233765,None,space,0.38554099993780255,None,,,,,0,22,22,22,,,,,809.3809982999228,,,,,,,,,,,,,809.3656665999442,809.3809982999228,809.3809982999228,809.3809982999228,816.9076793000568,,,,816.919011299964,816.9311969000846,816.9311969000846,816.9737941001076,816.9744500000961,816.9901391000021,816.9901391000021,816.9901391000021,817.0733904000372,,,,,817.39208530006,,,,up,7.5158769998233765,None,space,0.38554099993780255,None,,,,,,,,,,,,,,,P133,001,2025-03-26_10h57.10.446,posner_endo_new1,2024.2.4,60.044156459386414,2025-03-26 10h57.49.618825 +0000,
cube_r.png,0.1,-0.31,invalid,23,23,0,up,4.106559700099751,None,space,0.4532143999822438,None,,,,,0,23,23,23,,,,,817.4063734998927,,,,,,,,,,,,,817.3927060998976,817.4063734998927,817.4063734998927,817.4063734998927,821.5212785000913,,,,821.5424816999584,821.5527689000592,821.5527689000592,821.5850070999004,821.5853915000334,821.601395699894,821.601395699894,821.601395699894,821.6846537999809,,,,,822.0689079998992,,,,up,4.106559700099751,None,space,0.4532143999822438,None,,,,,,,,,,,,,,,P133,001,2025-03-26_10h57.10.446,posner_endo_new1,2024.2.4,60.044156459386414,2025-03-26 10h57.49.618825 +0000,
cube_r.png,0.1,0.31,valid,24,24,0,up,4.717103299917653,None,space,0.36918779998086393,None,,,,,0,24,24,24,,,,,822.0842339999508,,,,,,,,,,,,,822.0692312000319,822.0842339999508,822.0842339999508,822.0842339999508,826.8140366999432,,,,826.827774599893,826.8377592999022,826.8377592999022,826.8795249001123,826.8799068001099,826.8960070998874,826.8960070998874,826.8960070998874,826.9792390000075,,,,,827.2802740000188,,,,up,4.717103299917653,None,space,0.36918779998086393,None,,,,,,,,,,,,,,,P133,001,2025-03-26_10h57.10.446,posner_endo_new1,2024.2.4,60.044156459386414,2025-03-26 10h57.49.618825 +0000,
cube_r.png,0.1,-0.31,invalid,25,25,0,up,5.625210300087929,None,space,0.3888928999658674,None,,,,,0,25,25,25,,,,,827.2955720999744,,,,,,,,,,,,,827.2806009000633,827.2955720999744,827.2955720999744,827.2955720999744,832.924688299885,,,,832.934244700009,832.9438217999414,832.9438217999414,832.9902554000728,832.9907505998854,833.0066988999024,833.0066988999024,833.0066988999024,833.0899553000927,,,,,833.4075249999296,,,,up,5.625210300087929,None,space,0.3888928999658674,None,,,,,,,,,,,,,,,P133,001,2025-03-26_10h57.10.446,posner_endo_new1,2024.2.4,60.044156459386414,2025-03-26 10h57.49.618825 +0000,
cube_l.png,0.1,-0.31,valid,26,26,0,up,4.618260900024325,None,space,0.3333064999897033,None,,,,,0,26,26,26,,,,,833.4231501000468,,,,,,,,,,,,,833.4078166000545,833.4231501000468,833.4231501000468,833.4231501000468,838.0527586999815,,,,838.0645488998853,838.0745157001074,838.0745157001074,838.1182522000745,838.118581000017,838.1348470000084,838.1348470000084,838.1348470000084,838.2180468000006,,,,,838.4692772000562,,,,up,4.618260900024325,None,space,0.3333064999897033,None,,,,,,,,,,,,,,,P133,001,2025-03-26_10h57.10.446,posner_endo_new1,2024.2.4,60.044156459386414,2025-03-26 10h57.49.618825 +0000,
cube_r.png,0.1,0.31,valid,27,27,0,up,5.964992699911818,None,space,0.28927750000730157,None,,,,,0,27,27,27,,,,,838.4845602000132,,,,,,,,,,,,,838.469549600035,838.4845602000132,838.4845602000132,838.4845602000132,844.4628602000885,,,,844.4746075000148,844.4846034999937,844.4846034999937,844.5284734999295,844.528799300082,844.5450099001173,844.5450099001173,844.5450099001173,844.6281546999235,,,,,844.845828199992,,,,up,5.964992699911818,None,space,0.28927750000730157,None,,,,,,,,,,,,,,,P133,001,2025-03-26_10h57.10.446,posner_endo_new1,2024.2.4,60.044156459386414,2025-03-26 10h57.49.618825 +0000,
cube_r.png,0.1,10,catch,28,28,0,up,5.292520300019532,None,None,,,,,,,0,28,28,28,,,,,844.8613142000977,,,,,,,,,,,,,844.8461001000833,844.8613142000977,844.8613142000977,844.8613142000977,850.1569656999782,,,,850.1687451000325,850.1789826001041,850.1789826001041,850.2227793999482,850.2231042000931,850.2391560000833,850.2391560000833,850.2391560000833,850.322404100094,852.336998200044,853.252725899918,853.252725899918,853.252725899918,853.2368175000884,,,,up,5.292520300019532,None,None,,,,,,,,,,,,,,,,,P133,001,2025-03-26_10h57.10.446,posner_endo_new1,2024.2.4,60.044156459386414,2025-03-26 10h57.49.618825 +0000,
cube_r.png,0.1,0.31,valid,29,29,0,up,1.2204081998206675,None,space,0.3499352000653744,None,,,,,0,29,29,29,,,,,853.252725899918,,,,,,,,,,,,,853.2370790001005,853.252725899918,853.252725899918,853.252725899918,854.4859140000772,,,,854.4974557000678,854.5075985000003,854.5075985000003,854.5515556999017,854.5518801999278,854.5680221999064,854.5680221999064,854.5680221999064,854.6513636999298,,,,,854.9191074001137,,,,up,1.2204081998206675,None,space,0.3499352000653744,None,,,,,,,,,,,,,,,P133,001,2025-03-26_10h57.10.446,posner_endo_new1,2024.2.4,60.044156459386414,2025-03-26 10h57.49.618825 +0000,
cube_r.png,0.1,0.31,valid,30,30,0,up,3.2350523001514375,None,space,0.34049950004555285,None,,,,,0,30,30,30,,,,,854.9343306999654,,,,,,,,,,,,,854.9193774999585,854.9343306999654,854.9343306999654,854.9343306999654,858.1822315000463,,,,858.1937341000885,858.2038290998898,858.2038290998898,858.2478463998996,858.2481756999623,858.2646329000127,858.2646329000127,858.2646329000127,858.3475772999227,,,,,858.6150477000047,,,,up,3.2350523001514375,None,space,0.34049950004555285,None,,,,,,,,,,,,,,,P133,001,2025-03-26_10h57.10.446,posner_endo_new1,2024.2.4,60.044156459386414,2025-03-26 10h57.49.618825 +0000,
cube_l.png,0.1,-0.31,valid,31,31,0,up,4.010509700048715,None,space,0.3604439999908209,None,,,,,0,31,31,31,,,,,858.6306477999315,,,,,,,,,,,,,858.6153237998951,858.6306477999315,858.6306477999315,858.6306477999315,862.6442791000009,,,,862.6558829999994,862.6659184999298,862.6659184999298,862.7099425999913,862.7102749000769,862.7264284000266,862.7264284000266,862.7264284000266,862.8096654999536,,,,,863.0939553999342,,,,up,4.010509700048715,None,space,0.3604439999908209,None,,,,,,,,,,,,,,,P133,001,2025-03-26_10h57.10.446,posner_endo_new1,2024.2.4,60.044156459386414,2025-03-26 10h57.49.618825 +0000,
cube_r.png,0.1,0.31,valid,32,32,0,up,8.348131699953228,None,space,0.339578399900347,None,,,,,0,32,32,32,,,,,863.109369300073,,,,,,,,,,,,,863.094227500027,863.109369300073,863.109369300073,863.109369300073,871.4685414999258,,,,871.4802258000709,871.4903708999045,871.4903708999045,871.5341970999725,871.5345298999455,871.550667299889,871.550667299889,871.550667299889,871.6339499999303,,,,,871.901423299918,,,,up,8.348131699953228,None,space,0.339578399900347,None,,,,,,,,,,,,,,,P133,001,2025-03-26_10h57.10.446,posner_endo_new1,2024.2.4,60.044156459386414,2025-03-26 10h57.49.618825 +0000,
cube_r.png,0.1,-0.31,invalid,33,33,0,up,5.412062600022182,None,space,0.41089969989843667,None,,,,,0,33,33,33,,,,,871.9169638999738,,,,,,,,,,,,,871.901694699889,871.9169638999738,871.9169638999738,871.9169638999738,877.3459218000062,,,,877.357831900008,877.3676183000207,877.3676183000207,877.4115156999324,877.4118435999844,877.4279583001044,877.4279583001044,877.4279583001044,877.5113421999849,,,,,877.8454557999503,,,,up,5.412062600022182,None,space,0.41089969989843667,None,,,,,,,,,,,,,,,P133,001,2025-03-26_10h57.10.446,posner_endo_new1,2024.2.4,60.044156459386414,2025-03-26 10h57.49.618825 +0000,
cube_r.png,0.1,10,catch,34,34,0,up,5.220472399843857,None,None,,,,,,,0,34,34,34,,,,,877.8608097999822,,,,,,,,,,,,,877.8457283000462,877.8608097999822,877.8608097999822,877.8608097999822,883.0900542999152,,,,883.1009094000328,883.1104419000912,883.1104419000912,883.1556806999724,883.155912599992,883.1720219000708,883.1720219000708,883.1720219000708,883.2557081999257,885.270162000088,886.1859734999016,886.1859734999016,886.1859734999016,886.1706743000541,,,,up,5.220472399843857,None,None,,,,,,,,,,,,,,,,,P133,001,2025-03-26_10h57.10.446,posner_endo_new1,2024.2.4,60.044156459386414,2025-03-26 10h57.49.618825 +0000,
cube_r.png,0.1,0.31,valid,35,35,0,up,3.3509188999887556,None,space,0.3637804000172764,None,,,,,0,35,35,35,,,,,886.1859734999016,,,,,,,,,,,,,886.1712179998867,886.1859734999016,886.1859734999016,886.1859734999016,889.5515658999793,,,,889.5762072999496,889.5870368999895,889.5870368999895,889.6153005999513,889.6156315999106,889.6317390000913,889.6317390000913,889.6317390000913,889.715440900065,,,,,889.9998246000614,,,,up,3.3509188999887556,None,space,0.3637804000172764,None,,,,,,,,,,,,,,,P133,001,2025-03-26_10h57.10.446,posner_endo_new1,2024.2.4,60.044156459386414,2025-03-26 10h57.49.618825 +0000,
cube_r.png,0.1,-0.31,invalid,36,36,0,up,3.850570100126788,None,space,0.34336749999783933,None,,,,,0,36,36,36,,,,,890.0151146000717,,,,,,,,,,,,,890.0000968000386,890.0151146000717,890.0151146000717,890.0151146000717,893.8789844999555,,,,893.8900504999328,893.9002032000571,893.9002032000571,893.9447981999256,893.9451262999792,893.9611514001153,893.9611514001153,893.9611514001153,894.0443559999112,,,,,894.3119016999844,,,,up,3.850570100126788,None,space,0.34336749999783933,None,,,,,,,,,,,,,,,P133,001,2025-03-26_10h57.10.446,posner_endo_new1,2024.2.4,60.044156459386414,2025-03-26 10h57.49.618825 +0000,
cube_l.png,0.1,0.31,invalid,37,37,0,up,2.929487399989739,None,space,0.3585979000199586,None,,,,,0,37,37,37,,,,,894.3273998999503,,,,,,,,,,,,,894.3121881000698,894.3273998999503,894.3273998999503,894.3273998999503,897.258974700002,,,,897.2705023000017,897.2806885999162,897.2806885999162,897.324555200059,897.3249003998935,897.3410074999556,897.3410074999556,897.3410074999556,897.424207800068,,,,,897.7084480000194,,,,up,2.929487399989739,None,space,0.3585979000199586,None,,,,,,,,,,,,,,,P133,001,2025-03-26_10h57.10.446,posner_endo_new1,2024.2.4,60.044156459386414,2025-03-26 10h57.49.618825 +0000,
cube_l.png,0.1,0.31,invalid,38,38,0,up,10.596881400095299,None,space,0.333189400145784,None,,,,,0,38,38,38,,,,,897.723869800102,,,,,,,,,,,,,897.7087586000562,897.723869800102,897.723869800102,897.723869800102,908.3307747000363,,,,908.3424517998938,908.3526459999848,908.3526459999848,908.3964752000757,908.3967323000543,908.4129119999707,908.4129119999707,908.4129119999707,908.4962166000623,,,,,908.747025199933,,,,up,10.596881400095299,None,space,0.333189400145784,None,,,,,,,,,,,,,,,P133,001,2025-03-26_10h57.10.446,posner_endo_new1,2024.2.4,60.044156459386414,2025-03-26 10h57.49.618825 +0000,
cube_r.png,0.1,0.31,valid,39,39,0,up,7.878796099917963,None,space,0.32312020007520914,None,,,,,0,39,39,39,,,,,908.7624816999305,,,,,,,,,,,,,908.7472204000223,908.7624816999305,908.7624816999305,908.7624816999305,916.6556818000972,,,,916.6672634000424,916.6773586000782,916.6773586000782,916.7212165999226,916.7215569999535,916.7378589001019,916.7378589001019,916.7378589001019,916.8208796998952,,,,,917.0719125999603,,,,up,7.878796099917963,None,space,0.32312020007520914,None,,,,,,,,,,,,,,,P133,001,2025-03-26_10h57.10.446,posner_endo_new1,2024.2.4,60.044156459386414,2025-03-26 10h57.49.618825 +0000,
cube_l.png,0.1,0.31,invalid,40,40,0,up,5.353586699813604,None,space,0.3136606998741627,None,,,,,0,40,40,40,,,,,917.0874336999841,,,,,,,,,,,,,917.0721966999117,917.0874336999841,917.0874336999841,917.0874336999841,922.4497795000207,,,,922.4604789000005,922.4699488999322,922.4699488999322,922.5154105001129,922.5156489999499,922.5319177999627,922.5319177999627,922.5319177999627,922.6151447000448,,,,,922.8492258999031,,,,up,5.353586699813604,None,space,0.3136606998741627,None,,,,,,,,,,,,,,,P133,001,2025-03-26_10h57.10.446,posner_endo_new1,2024.2.4,60.044156459386414,2025-03-26 10h57.49.618825 +0000,
cube_l.png,0.1,10,catch,41,41,0,up,3.736704699927941,None,None,,,,,,,0,41,41,41,,,,,922.8647765999194,,,,,,,,,,,,,922.8494086000137,922.8647765999194,922.8647765999194,922.8647765999194,926.6118872999214,,,,926.61872030003,926.6305106000509,926.6305106000509,926.6778378998861,926.6780773000792,926.694241899997,926.694241899997,926.694241899997,926.7609029000159,928.7754858999979,929.7079596000258,929.7079596000258,929.7079596000258,929.691619399935,,,,up,3.736704699927941,None,None,,,,,,,,,,,,,,,,,P133,001,2025-03-26_10h57.10.446,posner_endo_new1,2024.2.4,60.044156459386414,2025-03-26 10h57.49.618825 +0000,
cube_l.png,0.1,-0.31,valid,42,42,0,up,9.708811799995601,None,space,0.39958509989082813,None,,,,,0,42,42,42,,,,,929.7079596000258,,,,,,,,,,,,,929.6917890999466,929.7079596000258,929.7079596000258,929.7079596000258,939.4323718999512,,,,939.4416342000477,939.4513803999871,939.4513803999871,939.4979697000235,939.4982084999792,939.5144847999327,939.5144847999327,939.5144847999327,939.5973845000844,,,,,939.9151081999298,,,,up,9.708811799995601,None,space,0.39958509989082813,None,,,,,,,,,,,,,,,P133,001,2025-03-26_10h57.10.446,posner_endo_new1,2024.2.4,60.044156459386414,2025-03-26 10h57.49.618825 +0000,
cube_l.png,0.1,10,catch,43,43,0,up,5.517896499950439,None,None,,,,,,,0,43,43,43,,,,,939.9308398999274,,,,,,,,,,,,,939.9152901000343,939.9308398999274,939.9308398999274,939.9308398999274,945.4603504000697,,,,945.4791395999491,945.4904853999615,945.4904853999615,945.5251114000566,945.5254528000951,945.5415519999806,945.5415519999806,945.5415519999806,945.6249063999858,947.639447200112,948.5551887000911,948.5551887000911,948.5551887000911,948.5392706000712,,,,up,5.517896499950439,None,None,,,,,,,,,,,,,,,,,P133,001,2025-03-26_10h57.10.446,posner_endo_new1,2024.2.4,60.044156459386414,2025-03-26 10h57.49.618825 +0000,
cube_l.png,0.1,0.31,invalid,44,44,0,up,0.42143179988488555,None,space,0.3520948998630047,None,,,,,0,44,44,44,,,,,948.5551887000911,,,,,,,,,,,,,948.5395402999129,948.5551887000911,948.5551887000911,948.5551887000911,948.9891902999952,,,,949.0006923999172,949.0107319999952,949.0107319999952,949.0548618000466,949.0551998999435,949.0713106999174,949.0713106999174,949.0713106999174,949.154650399927,,,,,949.4387592999265,,,,up,0.42143179988488555,None,space,0.3520948998630047,None,,,,,,,,,,,,,,,P133,001,2025-03-26_10h57.10.446,posner_endo_new1,2024.2.4,60.044156459386414,2025-03-26 10h57.49.618825 +0000,
cube_l.png,0.1,0.31,invalid,45,45,0,up,4.0748187999706715,None,space,0.3556861998513341,None,,,,,0,45,45,45,,,,,949.4543248000555,,,,,,,,,,,,,949.4390432001092,949.4543248000555,949.4543248000555,949.4543248000555,953.5347287999466,,,,953.5434667000081,953.5533394000959,953.5533394000959,953.6003481000662,953.6005732999183,953.6166437000502,953.6166437000502,953.6166437000502,953.6997426999733,,,,,953.9838833000977,,,,up,4.0748187999706715,None,space,0.3556861998513341,None,,,,,,,,,,,,,,,P133,001,2025-03-26_10h57.10.446,posner_endo_new1,2024.2.4,60.044156459386414,2025-03-26 10h57.49.618825 +0000,
cube_r.png,0.1,0.31,valid,46,46,0,up,4.137525899801403,None,space,0.4043514998629689,None,,,,,0,46,46,46,,,,,953.9997062000912,,,,,,,,,,,,,953.9840512999799,953.9997062000912,953.9997062000912,953.9997062000912,958.1472324999049,,,,958.1660235999152,958.1773665000219,958.1773665000219,958.2121878000908,958.212720700074,958.2286759000272,958.2286759000272,958.2286759000272,958.3118805000558,,,,,958.6467931000516,,,,up,4.137525899801403,None,space,0.4043514998629689,None,,,,,,,,,,,,,,,P133,001,2025-03-26_10h57.10.446,posner_endo_new1,2024.2.4,60.044156459386414,2025-03-26 10h57.49.618825 +0000,
cube_l.png,0.1,-0.31,valid,47,47,0,up,6.18793600006029,None,space,0.33716679993085563,None,,,,,0,47,47,47,,,,,958.6615351000801,,,,,,,,,,,,,958.6472587001044,958.6615351000801,958.6615351000801,958.6615351000801,964.8561460999772,,,,964.8630637000315,964.8749750000425,964.8749750000425,964.9219533998985,964.9221814000048,964.9384737000801,964.9384737000801,964.9384737000801,965.0217637000605,,,,,965.2888446999714,,,,up,6.18793600006029,None,space,0.33716679993085563,None,,,,,,,,,,,,,,,P133,001,2025-03-26_10h57.10.446,posner_endo_new1,2024.2.4,60.044156459386414,2025-03-26 10h57.49.618825 +0000,
cube_r.png,0.1,-0.31,invalid,48,48,0,up,11.015808399999514,None,space,0.3517868001945317,None,,,,,0,48,48,48,,,,,965.3049498000182,,,,,,,,,,,,,965.2890131999739,965.3049498000182,965.3049498000182,965.3049498000182,976.3287837000098,,,,976.3504123000894,976.3617388999555,976.3617388999555,976.393141000066,976.3934832001105,976.409645000007,976.409645000007,976.409645000007,976.4932786000427,,,,,976.7774481000379,,,,up,11.015808399999514,None,space,0.3517868001945317,None,,,,,,,,,,,,,,,P133,001,2025-03-26_10h57.10.446,posner_endo_new1,2024.2.4,60.044156459386414,2025-03-26 10h57.49.618825 +0000,
cube_r.png,0.1,10,catch,49,49,0,up,3.544414199888706,None,None,,,,,,,0,49,49,49,,,,,976.7930483000819,,,,,,,,,,,,,976.7777273000684,976.7930483000819,976.7930483000819,976.7930483000819,980.340542800026,,,,980.3530669000465,980.3631645999849,980.3631645999849,980.4061358000617,980.4063814000692,980.4226653999649,980.4226653999649,980.4226653999649,980.5059750000946,982.5205637000035,983.4361191999633,983.4361191999633,983.4361191999633,983.419999799924,,,,up,3.544414199888706,None,None,,,,,,,,,,,,,,,,,P133,001,2025-03-26_10h57.10.446,posner_endo_new1,2024.2.4,60.044156459386414,2025-03-26 10h57.49.618825 +0000,
cube_l.png,0.1,-0.31,valid,50,50,0,up,1.436982600018382,None,space,0.38083210005424917,None,,,,,0,50,50,50,,,,,983.4361191999633,,,,,,,,,,,,,983.4201823999174,983.4361191999633,983.4361191999633,983.4361191999633,984.8857144999783,,,,984.893644799944,984.9043727999087,984.9043727999087,984.9514882999938,984.9517328999937,984.967915300047,984.967915300047,984.967915300047,985.0513311000541,,,,,985.3516720999032,,,,up,1.436982600018382,None,space,0.38083210005424917,None,,,,,,,,,,,,,,,P133,001,2025-03-26_10h57.10.446,posner_endo_new1,2024.2.4,60.044156459386414,2025-03-26 10h57.49.618825 +0000,
cube_l.png,0.1,-0.31,valid,51,51,0,up,11.04917909996584,None,space,0.35290380008518696,None,,,,,0,51,51,51,,,,,985.3676181000192,,,,,,,,,,,,,985.3518646000884,985.3676181000192,985.3676181000192,985.3676181000192,996.423500200035,,,,996.4300385999959,996.4414307000116,996.4414307000116,996.489592900034,996.4900972000323,996.5060322000645,996.5060322000645,996.5060322000645,996.572622000007,,,,,996.8740685000084,,,,up,11.04917909996584,None,space,0.35290380008518696,None,,,,,,,,,,,,,,,P133,001,2025-03-26_10h57.10.446,posner_endo_new1,2024.2.4,60.044156459386414,2025-03-26 10h57.49.618825 +0000,
cube_r.png,0.1,-0.31,invalid,52,52,0,up,4.072595899924636,None,space,0.4011192999314517,None,,,,,0,52,52,52,,,,,996.8889407999814,,,,,,,,,,,,,996.8744934001006,996.8889407999814,996.8889407999814,996.8889407999814,1000.9708416999783,,,,1000.9961981999222,1001.0072212000377,1001.0072212000377,1001.0345298999455,1001.0348344999366,1001.0510029001161,1001.0510029001161,1001.0510029001161,1001.134732699953,,,,,1001.4687844000291,,,,up,4.072595899924636,None,space,0.4011192999314517,None,,,,,,,,,,,,,,,P133,001,2025-03-26_10h57.10.446,posner_endo_new1,2024.2.4,60.044156459386414,2025-03-26 10h57.49.618825 +0000,
cube_l.png,0.1,-0.31,valid,53,53,0,up,3.9171792999841273,None,space,0.3611762998625636,None,,,,,0,53,53,53,,,,,1001.4843232000712,,,,,,,,,,,,,1001.4690310999285,1001.4843232000712,1001.4843232000712,1001.4843232000712,1005.4146223000716,,,,1005.4259484000504,1005.4359329999425,1005.4359329999425,1005.4804301001132,1005.4807408000343,1005.4969885000028,1005.4969885000028,1005.4969885000028,1005.580139900092,,,,,1005.8642905000597,,,,up,3.9171792999841273,None,space,0.3611762998625636,None,,,,,,,,,,,,,,,P133,001,2025-03-26_10h57.10.446,posner_endo_new1,2024.2.4,60.044156459386414,2025-03-26 10h57.49.618825 +0000,
cube_r.png,0.1,10,catch,54,54,0,up,4.697368500055745,None,None,,,,,,,0,54,54,54,,,,,1005.8799147000536,,,,,,,,,,,,,1005.8645423999988,1005.8799147000536,1005.8799147000536,1005.8799147000536,1010.5927446000278,,,,1010.6019057999365,1010.6115655999165,1010.6115655999165,1010.6584123000503,1010.6586325000972,1010.6751898000948,1010.6751898000948,1010.6751898000948,1010.7581575000659,1012.7728840999771,1013.688569100108,1013.688569100108,1013.688569100108,1013.6723696000408,,,,up,4.697368500055745,None,None,,,,,,,,,,,,,,,,,P133,001,2025-03-26_10h57.10.446,posner_endo_new1,2024.2.4,60.044156459386414,2025-03-26 10h57.49.618825 +0000,
cube_l.png,0.1,0.31,invalid,55,55,0,up,0.9045180000830442,None,space,0.37036279984749854,None,,,,,0,55,55,55,,,,,1013.688569100108,,,,,,,,,,,,,1013.6725244000554,1013.688569100108,1013.688569100108,1013.688569100108,1014.6049836000893,,,,1014.6118085999042,1014.6234627999365,1014.6234627999365,1014.6710425000638,1014.6712654998992,1014.6874955999665,1014.6874955999665,1014.6874955999665,1014.7540565000381,,,,,1015.071145700058,,,,up,0.9045180000830442,None,space,0.37036279984749854,None,,,,,,,,,,,,,,,P133,001,2025-03-26_10h57.10.446,posner_endo_new1,2024.2.4,60.044156459386414,2025-03-26 10h57.49.618825 +0000,
cube_l.png,0.1,-0.31,valid,56,56,0,up,6.018592400010675,None,space,0.4341426999308169,None,,,,,0,56,56,56,,,,,1015.0869654000271,,,,,,,,,,,,,1015.0713128000498,1015.0869654000271,1015.0869654000271,1015.0869654000271,1021.1151608999353,,,,1021.1215347999241,1021.1332533999812,1021.1332533999812,1021.1809978999663,1021.181216099998,1021.1975253999699,1021.1975253999699,1021.1975253999699,1021.2807994999457,,,,,1021.6478178000543,,,,up,6.018592400010675,None,space,0.4341426999308169,None,,,,,,,,,,,,,,,P133,001,2025-03-26_10h57.10.446,posner_endo_new1,2024.2.4,60.044156459386414,2025-03-26 10h57.49.618825 +0000,
cube_r.png,0.1,0.31,valid,57,57,0,up,3.600851699942723,None,space,0.4214528000447899,None,,,,,0,57,57,57,,,,,1021.6638009999879,,,,,,,,,,,,,1021.6479855000507,1021.6638009999879,1021.6638009999879,1021.6638009999879,1025.2778117998969,,,,1025.289350300096,1025.2993020000868,1025.2993020000868,1025.343490799889,1025.3437936999835,1025.3599626000505,1025.3599626000505,1025.3599626000505,1025.4432733999565,,,,,1025.793848299887,,,,up,3.600851699942723,None,space,0.4214528000447899,None,,,,,,,,,,,,,,,P133,001,2025-03-26_10h57.10.446,posner_endo_new1,2024.2.4,60.044156459386414,2025-03-26 10h57.49.618825 +0000,
cube_r.png,0.1,-0.31,invalid,58,58,0,up,4.4401047001592815,None,space,0.3403205999638885,None,,,,,0,58,58,58,,,,,1025.8094514000695,,,,,,,,,,,,,1025.7940950000193,1025.8094514000695,1025.8094514000695,1025.8094514000695,1030.255984599935,,,,1030.2670617999975,1030.277013400104,1030.277013400104,1030.3216880999971,1030.3219890000764,1030.338241700083,1030.338241700083,1030.338241700083,1030.420895599993,,,,,1030.688859200105,,,,up,4.4401047001592815,None,space,0.3403205999638885,None,,,,,,,,,,,,,,,P133,001,2025-03-26_10h57.10.446,posner_endo_new1,2024.2.4,60.044156459386414,2025-03-26 10h57.49.618825 +0000,
cube_l.png,0.1,0.31,invalid,59,59,0,up,5.800166400149465,None,space,0.3717118001077324,None,,,,,0,59,59,59,,,,,1030.704435300082,,,,,,,,,,,,,1030.6891059000045,1030.704435300082,1030.704435300082,1030.704435300082,1036.515692600049,,,,1036.5234153999481,1036.5349043998867,1036.5349043998867,1036.581911599962,1036.582138699945,1036.5984604000114,1036.5984604000114,1036.5984604000114,1036.6650914000347,,,,,1036.9819948000368,,,,up,5.800166400149465,None,space,0.3717118001077324,None,,,,,,,,,,,,,,,P133,001,2025-03-26_10h57.10.446,posner_endo_new1,2024.2.4,60.044156459386414,2025-03-26 10h57.49.618825 +0000,
,,,,,,,,,,,,,,,,,,,,,,,,,,,,,,,,,,,,,,,,,,,,,,,,,,,,,,,,,,,,,,,,,,,,,1036.9821027000435,1036.9980097999796,1036.9980097999796,1097.0031260000542,1106.6113748000935,space,69.61121110012755,None,,,,,,,P133,001,2025-03-26_10h57.10.446,posner_endo_new1,2024.2.4,60.044156459386414,2025-03-26 10h57.49.618825 +0000,
,,,,,,,,,,,,,,,,,,,,,,,,,,,,,,,,,,1106.6114654999692,1106.6267717001028,1109.69925220008,1109.6077411998995,,,,,,,,,,,,,,,,,,,,,,,,,,,,,,,,,,,,,,,,,,,,,,P133,001,2025-03-26_10h57.10.446,posner_endo_new1,2024.2.4,60.044156459386414,2025-03-26 10h57.49.618825 +0000,
cube_l.png,0.1,10,catch,0,0,0,down,10.285747499903664,None,None,,,,,,,,,,,0,0,0,0,1109.69925220008,,,,,,,,,,,,,1109.6910616001114,1109.69925220008,1109.69925220008,1109.69925220008,1119.9972023998853,,,,1120.0044390999246,1120.0162889000494,1120.0162889000494,1120.0631619999185,1120.0633890000172,1120.0797755999956,1120.0797755999956,1120.0797755999956,1120.1460021000821,1122.1609811000526,1123.0933127999306,1123.0933127999306,1123.0933127999306,1123.0773167998996,,,,,,,,,,,,,,,,,,down,10.285747499903664,None,None,,,P133,001,2025-03-26_10h57.10.446,posner_endo_new1,2024.2.4,60.044156459386414,2025-03-26 10h57.49.618825 +0000,
cube_l.png,0.1,10,catch,1,1,0,down,1.7236470999196172,None,None,,,,,,,,,,,0,1,1,1,1123.0933127999306,,,,,,,,,,,,,1123.0775337000377,1123.0933127999306,1123.0933127999306,1123.0933127999306,1124.8258108000737,,,,1124.8352177999914,1124.844833200099,1124.844833200099,1124.8916821000166,1124.8922431000974,1124.9080900000408,1124.9080900000408,1124.9080900000408,1124.9913274000864,1127.0059440999757,1127.921673499979,1127.921673499979,1127.921673499979,1127.9062952999957,,,,,,,,,,,,,,,,,,down,1.7236470999196172,None,None,,,P133,001,2025-03-26_10h57.10.446,posner_endo_new1,2024.2.4,60.044156459386414,2025-03-26 10h57.49.618825 +0000,
cube_l.png,0.1,0.31,invalid,2,2,0,down,5.495231800014153,None,space,0.41584360017441213,None,,,,,,,,,0,2,2,2,1127.921673499979,,,,,,,,,,,,,1127.906731999945,1127.921673499979,1127.921673499979,1127.921673499979,1133.4344804999419,,,,1133.4519358000252,1133.4618073999882,1133.4618073999882,1133.4994731999468,1133.4998236000538,1133.5159301999956,1133.5159301999956,1133.5159301999956,1133.599160199985,,,,,1133.9334644000046,,,,,,,,,,,,,,,,,,down,5.495231800014153,None,space,0.41584360017441213,None,P133,001,2025-03-26_10h57.10.446,posner_endo_new1,2024.2.4,60.044156459386414,2025-03-26 10h57.49.618825 +0000,
cube_l.png,0.1,0.31,invalid,3,3,0,down,1.8601057000923902,None,space,0.43081209994852543,None,,,,,,,,,0,3,3,3,1133.9487777999602,,,,,,,,,,,,,1133.933763399953,1133.9487777999602,1133.9487777999602,1133.9487777999602,1135.8148407000117,,,,1135.8267061000224,1135.8368708000053,1135.8368708000053,1135.8802980999462,1135.8806380000897,1135.8967919999268,1135.8967919999268,1135.8967919999268,1135.9800859999377,,,,,1136.3308258999605,,,,,,,,,,,,,,,,,,down,1.8601057000923902,None,space,0.43081209994852543,None,P133,001,2025-03-26_10h57.10.446,posner_endo_new1,2024.2.4,60.044156459386414,2025-03-26 10h57.49.618825 +0000,
cube_l.png,0.1,-0.31,valid,4,4,0,down,7.119402900105342,None,space,0.6465855999849737,None,,,,,,,,,0,4,4,4,1136.3462946999352,,,,,,,,,,,,,1136.331115799956,1136.3462946999352,1136.3462946999352,1136.3462946999352,1143.473634300055,,,,1143.485889500007,1143.4958917999174,1143.4958917999174,1143.5391100000124,1143.5394498000387,1143.5557174000423,1143.5557174000423,1143.5557174000423,1143.6389532000758,,,,,1144.2064217000734,,,,,,,,,,,,,,,,,,down,7.119402900105342,None,space,0.6465855999849737,None,P133,001,2025-03-26_10h57.10.446,posner_endo_new1,2024.2.4,60.044156459386414,2025-03-26 10h57.49.618825 +0000,
cube_r.png,0.1,-0.31,invalid,5,5,0,down,1.9396280001383275,None,space,0.36971860006451607,None,,,,,,,,,0,5,5,5,1144.2217238000594,,,,,,,,,,,,,1144.2067118999548,1144.2217238000594,1144.2217238000594,1144.2217238000594,1146.1707433999982,,,,1146.1827380000614,1146.1928769000806,1146.1928769000806,1146.236389900092,1146.2366400000174,1146.2530020000413,1146.2530020000413,1146.2530020000413,1146.336122599896,,,,,1146.6367198000662,,,,,,,,,,,,,,,,,,down,1.9396280001383275,None,space,0.36971860006451607,None,P133,001,2025-03-26_10h57.10.446,posner_endo_new1,2024.2.4,60.044156459386414,2025-03-26 10h57.49.618825 +0000,
cube_r.png,0.1,0.31,valid,6,6,0,down,4.124307799851522,None,space,0.3175943000242114,None,,,,,,,,,0,6,6,6,1146.6525971000083,,,,,,,,,,,,,1146.6369201999623,1146.6525971000083,1146.6525971000083,1146.6525971000083,1150.7823234999087,,,,1150.7885191999376,1150.7999875999521,1150.7999875999521,1150.848354900023,1150.8486188999377,1150.8648445999715,1150.8648445999715,1150.8648445999715,1150.9314737000968,,,,,1151.1985170999542,,,,,,,,,,,,,,,,,,down,4.124307799851522,None,space,0.3175943000242114,None,P133,001,2025-03-26_10h57.10.446,posner_endo_new1,2024.2.4,60.044156459386414,2025-03-26 10h57.49.618825 +0000,
cube_r.png,0.1,-0.31,invalid,7,7,0,down,2.426178799942136,None,space,0.35451980005018413,None,,,,,,,,,0,7,7,7,1151.214413400041,,,,,,,,,,,,,1151.198721199995,1151.214413400041,1151.214413400041,1151.214413400041,1153.6463484999258,,,,1153.6540429000743,1153.6648347999435,1153.6648347999435,1153.712104599923,1153.7123513000552,1153.7286704001017,1153.7286704001017,1153.7286704001017,1153.8118207000662,,,,,1154.0958108000923,,,,,,,,,,,,,,,,,,down,2.426178799942136,None,space,0.35451980005018413,None,P133,001,2025-03-26_10h57.10.446,posner_endo_new1,2024.2.4,60.044156459386414,2025-03-26 10h57.49.618825 +0000,
cube_l.png,0.1,-0.31,valid,8,8,0,down,5.849061099812388,None,space,0.28399759996682405,None,,,,,,,,,0,8,8,8,1154.1115272999741,,,,,,,,,,,,,1154.0960063000675,1154.1115272999741,1154.1115272999741,1154.1115272999741,1159.973378200084,,,,1159.9858860999811,1159.996006600093,1159.996006600093,1160.0388823000249,1160.0391279000323,1160.055396300042,1160.055396300042,1160.055396300042,1160.138386500068,,,,,1160.355942199938,,,,,,,,,,,,,,,,,,down,5.849061099812388,None,space,0.28399759996682405,None,P133,001,2025-03-26_10h57.10.446,posner_endo_new1,2024.2.4,60.044156459386414,2025-03-26 10h57.49.618825 +0000,
cube_r.png,0.1,-0.31,invalid,9,9,0,down,3.1007796998601407,None,space,0.2764598000794649,None,,,,,,,,,0,9,9,9,1160.371981699951,,,,,,,,,,,,,1160.3561390000395,1160.371981699951,1160.371981699951,1160.371981699951,1163.4861926999874,,,,1163.4938835001085,1163.5050019999035,1163.5050019999035,1163.5520516000688,1163.5522739000153,1163.5685493999626,1163.5685493999626,1163.5685493999626,1163.6517715998925,,,,,1163.8531986000016,,,,,,,,,,,,,,,,,,down,3.1007796998601407,None,space,0.2764598000794649,None,P133,001,2025-03-26_10h57.10.446,posner_endo_new1,2024.2.4,60.044156459386414,2025-03-26 10h57.49.618825 +0000,
cube_l.png,0.1,0.31,invalid,10,10,0,down,2.094148699892685,None,space,0.3096654999535531,None,,,,,,,,,0,10,10,10,1163.8680525000673,,,,,,,,,,,,,1163.8536342999432,1163.8680525000673,1163.8680525000673,1163.8680525000673,1165.9673305000179,,,,1165.979216299951,1165.989232199965,1165.989232199965,1166.0328293999191,1166.033173300093,1166.049288700102,1166.049288700102,1166.049288700102,1166.1324948000256,,,,,1166.3669203999452,,,,,,,,,,,,,,,,,,down,2.094148699892685,None,space,0.3096654999535531,None,P133,001,2025-03-26_10h57.10.446,posner_endo_new1,2024.2.4,60.044156459386414,2025-03-26 10h57.49.618825 +0000,
cube_r.png,0.1,-0.31,invalid,11,11,0,down,4.05849610012956,None,space,0.3125122000928968,None,,,,,,,,,0,11,11,11,1166.3823031000793,,,,,,,,,,,,,1166.3672110000625,1166.3823031000793,1166.3823031000793,1166.3823031000793,1170.4460060999263,,,,1170.4580622001085,1170.4681800999679,1170.4681800999679,1170.5114547000267,1170.51180019998,1170.5280502000824,1170.5280502000824,1170.5280502000824,1170.6113593000919,,,,,1170.8456703999545,,,,,,,,,,,,,,,,,,down,4.05849610012956,None,space,0.3125122000928968,None,P133,001,2025-03-26_10h57.10.446,posner_endo_new1,2024.2.4,60.044156459386414,2025-03-26 10h57.49.618825 +0000,
cube_r.png,0.1,0.31,valid,12,12,0,down,3.619529200019315,None,space,0.29949490004219115,None,,,,,,,,,0,12,12,12,1170.8610300999135,,,,,,,,,,,,,1170.8459612000734,1170.8610300999135,1170.8610300999135,1170.8610300999135,1174.491815000074,,,,1174.5037851999514,1174.51378690009,1174.51378690009,1174.5575618001167,1174.5579037000425,1174.573866300052,1174.573866300052,1174.573866300052,1174.6571484999731,,,,,1174.874998500105,,,,,,,,,,,,,,,,,,down,3.619529200019315,None,space,0.29949490004219115,None,P133,001,2025-03-26_10h57.10.446,posner_endo_new1,2024.2.4,60.044156459386414,2025-03-26 10h57.49.618825 +0000,
cube_l.png,0.1,10,catch,13,13,0,down,2.038947500055656,None,None,,,,,,,,,,,0,13,13,13,1174.8902080999687,,,,,,,,,,,,,1174.8752919000108,1174.8902080999687,1174.8902080999687,1174.8902080999687,1176.9392665999476,,,,1176.9512088999618,1176.9612068999559,1176.9612068999559,1177.0049982001074,1177.0053457000758,1177.0214168000966,1177.0214168000966,1177.0214168000966,1177.104672000045,1179.1191583001055,1180.034873999888,1180.034873999888,1180.034873999888,1180.0190298000816,,,,,,,,,,,,,,,,,,down,2.038947500055656,None,None,,,P133,001,2025-03-26_10h57.10.446,posner_endo_new1,2024.2.4,60.044156459386414,2025-03-26 10h57.49.618825 +0000,
cube_r.png,0.1,-0.31,invalid,14,14,0,down,3.1499607001896948,None,space,0.35602040006779134,None,,,,,,,,,0,14,14,14,1180.034873999888,,,,,,,,,,,,,1180.019311199896,1180.034873999888,1180.034873999888,1180.034873999888,1183.199567799922,,,,1183.2114973000716,1183.2216749000363,1183.2216749000363,1183.2655523999128,1183.2658963000868,1183.2815123999026,1183.2815123999026,1183.2815123999026,1183.3649315999355,,,,,1183.6490899999626,,,,,,,,,,,,,,,,,,down,3.1499607001896948,None,space,0.35602040006779134,None,P133,001,2025-03-26_10h57.10.446,posner_endo_new1,2024.2.4,60.044156459386414,2025-03-26 10h57.49.618825 +0000,
cube_l.png,0.1,-0.31,valid,15,15,0,down,6.112327500013635,None,space,0.33799999998882413,None,,,,,,,,,0,15,15,15,1183.6646241000853,,,,,,,,,,,,,1183.649382200092,1183.6646241000853,1183.6646241000853,1183.6646241000853,1189.7926179999486,,,,1189.7988561999518,1189.810502700042,1189.810502700042,1189.8582307999022,1189.858452500077,1189.8749681999907,1189.8749681999907,1189.8749681999907,1189.9580798000097,,,,,1190.2264256000053,,,,,,,,,,,,,,,,,,down,6.112327500013635,None,space,0.33799999998882413,None,P133,001,2025-03-26_10h57.10.446,posner_endo_new1,2024.2.4,60.044156459386414,2025-03-26 10h57.49.618825 +0000,
cube_r.png,0.1,10,catch,16,16,0,down,3.5118082999251783,None,None,,,,,,,,,,,0,16,16,16,1190.2411174001172,,,,,,,,,,,,,1190.2268674999941,1190.2411174001172,1190.2411174001172,1190.2411174001172,1193.755551500013,,,,1193.7674648000393,1193.777733700117,1193.777733700117,1193.8209766999353,1193.8213204001077,1193.837552400073,1193.837552400073,1193.837552400073,1193.9207061000634,1195.9352613999508,1196.8510813999455,1196.8510813999455,1196.8510813999455,1196.8350972998887,,,,,,,,,,,,,,,,,,down,3.5118082999251783,None,None,,,P133,001,2025-03-26_10h57.10.446,posner_endo_new1,2024.2.4,60.044156459386414,2025-03-26 10h57.49.618825 +0000,
cube_r.png,0.1,10,catch,17,17,0,down,4.245757499942556,None,None,,,,,,,,,,,0,17,17,17,1196.8510813999455,,,,,,,,,,,,,1196.8353685999755,1196.8510813999455,1196.8510813999455,1196.8510813999455,1201.0980130000971,,,,1201.1099962999579,1201.1201615999453,1201.1201615999453,1201.1634863000363,1201.1637206999585,1201.1801112999674,1201.1801112999674,1201.1801112999674,1201.2632295000367,1203.2778696999885,1204.1937462999485,1204.1937462999485,1204.1937462999485,1204.1776350999717,,,,,,,,,,,,,,,,,,down,4.245757499942556,None,None,,,P133,001,2025-03-26_10h57.10.446,posner_endo_new1,2024.2.4,60.044156459386414,2025-03-26 10h57.49.618825 +0000,
cube_l.png,0.1,0.31,invalid,18,18,0,down,3.3268458999227732,None,space,0.4080328999552876,None,,,,,,,,,0,18,18,18,1204.1937462999485,,,,,,,,,,,,,1204.1778100000229,1204.1937462999485,1204.1937462999485,1204.1937462999485,1207.5244243999477,,,,1207.5318338000216,1207.5433074000757,1207.5433074000757,1207.590345799923,1207.5905683001038,1207.606809699908,1207.606809699908,1207.606809699908,1207.6735519000795,,,,,1208.0236241999082,,,,,,,,,,,,,,,,,,down,3.3268458999227732,None,space,0.4080328999552876,None,P133,001,2025-03-26_10h57.10.446,posner_endo_new1,2024.2.4,60.044156459386414,2025-03-26 10h57.49.618825 +0000,
cube_l.png,0.1,10,catch,19,19,0,down,3.145534999901429,None,None,,,,,,,,,,,0,19,19,19,1208.0397238000296,,,,,,,,,,,,,1208.023802000098,1208.0397238000296,1208.0397238000296,1208.0397238000296,1211.188246600097,,,,1211.2061326999683,1211.2168862000108,1211.2168862000108,1211.2531632001046,1211.2535045999102,1211.2697544000112,1211.2697544000112,1211.2697544000112,1211.3529334000777,1213.3675607000478,1214.2832452000584,1214.2832452000584,1214.2832452000584,1214.2677605999634,,,,,,,,,,,,,,,,,,down,3.145534999901429,None,None,,,P133,001,2025-03-26_10h57.10.446,posner_endo_new1,2024.2.4,60.044156459386414,2025-03-26 10h57.49.618825 +0000,
cube_l.png,0.1,0.31,invalid,20,20,0,down,4.42160589993,None,space,0.32948970003053546,None,,,,,,,,,0,20,20,20,1214.2832452000584,,,,,,,,,,,,,1214.2680327999406,1214.2832452000584,1214.2832452000584,1214.2832452000584,1218.7132689999416,,,,1218.7252247999422,1218.7352408000734,1218.7352408000734,1218.778815299971,1218.7791550999973,1218.7952461000532,1218.7952461000532,1218.7952461000532,1218.8785234999377,,,,,1219.1295465999283,,,,,,,,,,,,,,,,,,down,4.42160589993,None,space,0.32948970003053546,None,P133,001,2025-03-26_10h57.10.446,posner_endo_new1,2024.2.4,60.044156459386414,2025-03-26 10h57.49.618825 +0000,
cube_l.png,0.1,-0.31,valid,21,21,0,down,5.663828100077808,None,space,0.3767741001211107,None,,,,,,,,,0,21,21,21,1219.1448985000607,,,,,,,,,,,,,1219.1298370999284,1219.1448985000607,1219.1448985000607,1219.1448985000607,1224.8232332000043,,,,1224.8298714000266,1224.8416669999715,1224.8416669999715,1224.8893347000703,1224.8895558000077,1224.9056889999192,1224.9056889999192,1224.9056889999192,1224.972330499906,,,,,1225.2893538000062,,,,,,,,,,,,,,,,,,down,5.663828100077808,None,space,0.3767741001211107,None,P133,001,2025-03-26_10h57.10.446,posner_endo_new1,2024.2.4,60.044156459386414,2025-03-26 10h57.49.618825 +0000,
cube_r.png,0.1,0.31,valid,22,22,0,down,7.32068150001578,None,space,0.3260487001389265,None,,,,,,,,,0,22,22,22,1225.3055161999073,,,,,,,,,,,,,1225.2895301999524,1225.3055161999073,1225.3055161999073,1225.3055161999073,1232.6321620000526,,,,1232.6388197999913,1232.6506793999579,1232.6506793999579,1232.697777699912,1232.6979996999726,1232.7142694001086,1232.7142694001086,1232.7142694001086,1232.781042000046,,,,,1233.0481887001079,,,,,,,,,,,,,,,,,,down,7.32068150001578,None,space,0.3260487001389265,None,P133,001,2025-03-26_10h57.10.446,posner_endo_new1,2024.2.4,60.044156459386414,2025-03-26 10h57.49.618825 +0000,
cube_r.png,0.1,-0.31,invalid,23,23,0,down,5.192842800170183,None,space,0.34374010004103184,None,,,,,,,,,0,23,23,23,1233.0641278999392,,,,,,,,,,,,,1233.0483780000359,1233.0641278999392,1233.0641278999392,1233.0641278999392,1238.2600612000097,,,,1238.2712580000516,1238.2808008999564,1238.2808008999564,1238.3254217000213,1238.3256568000652,1238.3419973000418,1238.3419973000418,1238.3419973000418,1238.4255262999795,,,,,1238.6924531999975,,,,,,,,,,,,,,,,,,down,5.192842800170183,None,space,0.34374010004103184,None,P133,001,2025-03-26_10h57.10.446,posner_endo_new1,2024.2.4,60.044156459386414,2025-03-26 10h57.49.618825 +0000,
cube_r.png,0.1,0.31,valid,24,24,0,down,4.212571500102058,None,space,0.35397060005925596,None,,,,,,,,,0,24,24,24,1238.708304299973,,,,,,,,,,,,,1238.6926394000184,1238.708304299973,1238.708304299973,1238.708304299973,1242.9236105999444,,,,1242.948258300079,1242.9583997000009,1242.9583997000009,1242.9869570999872,1242.987284899922,1243.0035329998937,1243.0035329998937,1243.0035329998937,1243.0872867999133,,,,,1243.3713616000023,,,,,,,,,,,,,,,,,,down,4.212571500102058,None,space,0.35397060005925596,None,P133,001,2025-03-26_10h57.10.446,posner_endo_new1,2024.2.4,60.044156459386414,2025-03-26 10h57.49.618825 +0000,
cube_r.png,0.1,-0.31,invalid,25,25,0,down,4.814515999983996,None,space,0.42614650004543364,None,,,,,,,,,0,25,25,25,1243.3869553999975,,,,,,,,,,,,,1243.3716529998928,1243.3869553999975,1243.3869553999975,1243.3869553999975,1248.2161550999153,,,,1248.229563199915,1248.239559599897,1248.239559599897,1248.2816190999001,1248.2820045999251,1248.2980925999582,1248.2980925999582,1248.2980925999582,1248.381341499975,,,,,1248.7324614999816,,,,,,,,,,,,,,,,,,down,4.814515999983996,None,space,0.42614650004543364,None,P133,001,2025-03-26_10h57.10.446,posner_endo_new1,2024.2.4,60.044156459386414,2025-03-26 10h57.49.618825 +0000,
cube_l.png,0.1,-0.31,valid,26,26,0,down,7.629416200099513,None,None,,,,,,,,,,,0,26,26,26,1248.7476278000977,,,,,,,,,,,,,1248.7327866998967,1248.7476278000977,1248.7476278000977,1248.7476278000977,1256.3912060000002,,,,1256.400087899994,1256.4102099998854,1256.4102099998854,1256.4568954000715,1256.4573955000378,1256.473334300099,1256.473334300099,1256.473334300099,1256.556587500032,1258.5712794999126,1259.487049800111,1259.487049800111,1259.487049800111,1259.471114099957,,,,,,,,,,,,,,,,,,down,7.629416200099513,None,None,,,P133,001,2025-03-26_10h57.10.446,posner_endo_new1,2024.2.4,60.044156459386414,2025-03-26 10h57.49.618825 +0000,
cube_r.png,0.1,0.31,valid,27,27,0,down,0.586175600066781,None,space,0.336418200051412,None,,,,,,,,,0,27,27,27,1259.487049800111,,,,,,,,,,,,,1259.4713844000362,1259.487049800111,1259.487049800111,1259.487049800111,1260.0875611999072,,,,1260.1001210999675,1260.1102324998938,1260.1102324998938,1260.153175600106,1260.1535126001108,1260.1696464999113,1260.1696464999113,1260.1696464999113,1260.252812199993,,,,,1260.5204636000562,,,,,,,,,,,,,,,,,,down,0.586175600066781,None,space,0.336418200051412,None,P133,001,2025-03-26_10h57.10.446,posner_endo_new1,2024.2.4,60.044156459386414,2025-03-26 10h57.49.618825 +0000,
cube_r.png,0.1,10,catch,28,28,0,down,4.161649500019848,None,None,,,,,,,,,,,0,28,28,28,1260.5359396999702,,,,,,,,,,,,,1260.520762699889,1260.5359396999702,1260.5359396999702,1260.5359396999702,1264.6996049000882,,,,1264.7116262000054,1264.7217651000246,1264.7217651000246,1264.7656954000704,1264.7659436000977,1264.7816298999824,1264.7816298999824,1264.7816298999824,1264.864911600016,1266.8793784000445,1267.795219700085,1267.795219700085,1267.795219700085,1267.77927859989,,,,,,,,,,,,,,,,,,down,4.161649500019848,None,None,,,P133,001,2025-03-26_10h57.10.446,posner_endo_new1,2024.2.4,60.044156459386414,2025-03-26 10h57.49.618825 +0000,
cube_r.png,0.1,0.31,valid,29,29,0,down,0.3494541998952627,None,space,0.39937120000831783,None,,,,,,,,,0,29,29,29,1267.795219700085,,,,,,,,,,,,,1267.7795510999858,1267.795219700085,1267.795219700085,1267.795219700085,1268.1461022000294,,,,1268.1579730000813,1268.1681295000017,1268.1681295000017,1268.211656200001,1268.212008500006,1268.2281118999235,1268.2281118999235,1268.2281118999235,1268.3112506000325,,,,,1268.6290458999574,,,,,,,,,,,,,,,,,,down,0.3494541998952627,None,space,0.39937120000831783,None,P133,001,2025-03-26_10h57.10.446,posner_endo_new1,2024.2.4,60.044156459386414,2025-03-26 10h57.49.618825 +0000,
cube_r.png,0.1,0.31,valid,30,30,0,down,5.708828300004825,None,space,0.3655834000092,None,,,,,,,,,0,30,30,30,1268.6443137999158,,,,,,,,,,,,,1268.6293399001006,1268.6443137999158,1268.6443137999158,1268.6443137999158,1274.3563105000649,,,,1274.368264199933,1274.3783980000298,1274.3783980000298,1274.4219239999074,1274.4222677999642,1274.4383129999042,1274.4383129999042,1274.4383129999042,1274.52163870004,,,,,1274.806043599965,,,,,,,,,,,,,,,,,,down,5.708828300004825,None,space,0.3655834000092,None,P133,001,2025-03-26_10h57.10.446,posner_endo_new1,2024.2.4,60.044156459386414,2025-03-26 10h57.49.618825 +0000,
cube_l.png,0.1,-0.31,valid,31,31,0,down,4.348109599901363,None,space,0.3981536999344826,None,,,,,,,,,0,31,31,31,1274.8213100000285,,,,,,,,,,,,,1274.806345500052,1274.8213100000285,1274.8213100000285,1274.8213100000285,1279.1847192000132,,,,1279.1949579000939,1279.2045829000417,1279.2045829000417,1279.2502709000837,1279.2505173000973,1279.267345600063,1279.267345600063,1279.267345600063,1279.3501905000303,,,,,1279.6673071999103,,,,,,,,,,,,,,,,,,down,4.348109599901363,None,space,0.3981536999344826,None,P133,001,2025-03-26_10h57.10.446,posner_endo_new1,2024.2.4,60.044156459386414,2025-03-26 10h57.49.618825 +0000,
cube_r.png,0.1,0.31,valid,32,32,0,down,7.278686899924651,None,space,0.3338608001358807,None,,,,,,,,,0,32,32,32,1279.6830764999613,,,,,,,,,,,,,1279.6675231999252,1279.6830764999613,1279.6830764999613,1279.6830764999613,1286.9764870000072,,,,1286.9841167998966,1286.9952175000217,1286.9952175000217,1287.0422187999357,1287.0424625999294,1287.0588662000373,1287.0588662000373,1287.0588662000373,1287.1420976000372,,,,,1287.4094718999695,,,,,,,,,,,,,,,,,,down,7.278686899924651,None,space,0.3338608001358807,None,P133,001,2025-03-26_10h57.10.446,posner_endo_new1,2024.2.4,60.044156459386414,2025-03-26 10h57.49.618825 +0000,
cube_r.png,0.1,-0.31,invalid,33,33,0,down,4.191512899938971,None,space,0.3634738000109792,None,,,,,,,,,0,33,33,33,1287.4252303999383,,,,,,,,,,,,,1287.409670599969,1287.4252303999383,1287.4252303999383,1287.4252303999383,1291.6220752999652,,,,1291.6340838000178,1291.6441633000504,1291.6441633000504,1291.6875440001022,1291.6878925000783,1291.7040023000445,1291.7040023000445,1291.7040023000445,1291.7872027999256,,,,,1292.0718543000985,,,,,,,,,,,,,,,,,,down,4.191512899938971,None,space,0.3634738000109792,None,P133,001,2025-03-26_10h57.10.446,posner_endo_new1,2024.2.4,60.044156459386414,2025-03-26 10h57.49.618825 +0000,
cube_r.png,0.1,10,catch,34,34,0,down,5.138034499948844,None,None,,,,,,,,,,,0,34,34,34,1292.0870417999104,,,,,,,,,,,,,1292.0721535999328,1292.0870417999104,1292.0870417999104,1292.0870417999104,1297.2326080999337,,,,1297.2405509999953,1297.25117589999,1297.25117589999,1297.2985590999015,1297.2991033999715,1297.3149929998908,1297.3149929998908,1297.3149929998908,1297.398240499897,1299.4127718000673,1300.3285018000752,1300.3285018000752,1300.3285018000752,1300.3130320000928,,,,,,,,,,,,,,,,,,down,5.138034499948844,None,None,,,P133,001,2025-03-26_10h57.10.446,posner_endo_new1,2024.2.4,60.044156459386414,2025-03-26 10h57.49.618825 +0000,
cube_r.png,0.1,0.31,valid,35,35,0,down,5.8887835999485105,None,space,0.36033089994452894,None,,,,,,,,,0,35,35,35,1300.3285018000752,,,,,,,,,,,,,1300.3134707999416,1300.3285018000752,1300.3285018000752,1300.3285018000752,1306.2247184000444,,,,1306.2442884999327,1306.2559152999893,1306.2559152999893,1306.289236099925,1306.2895283000544,1306.3058392000385,1306.3058392000385,1306.3058392000385,1306.389032700099,,,,,1306.6741659999825,,,,,,,,,,,,,,,,,,down,5.8887835999485105,None,space,0.36033089994452894,None,P133,001,2025-03-26_10h57.10.446,posner_endo_new1,2024.2.4,60.044156459386414,2025-03-26 10h57.49.618825 +0000,
cube_r.png,0.1,-0.31,invalid,36,36,0,down,2.376410099910572,None,space,0.392076900228858,None,,,,,,,,,0,36,36,36,1306.688729000045,,,,,,,,,,,,,1306.674643700011,1306.688729000045,1306.688729000045,1306.688729000045,1309.0716723001096,,,,1309.0913343001157,1309.103225799976,1309.103225799976,1309.136365100043,1309.1366467000917,1309.1528145000339,1309.1528145000339,1309.1528145000339,1309.2361335000023,,,,,1309.5534540999215,,,,,,,,,,,,,,,,,,down,2.376410099910572,None,space,0.392076900228858,None,P133,001,2025-03-26_10h57.10.446,posner_endo_new1,2024.2.4,60.044156459386414,2025-03-26 10h57.49.618825 +0000,
cube_l.png,0.1,0.31,invalid,37,37,0,down,1.608122200006619,None,space,0.33693749993108213,None,,,,,,,,,0,37,37,37,1309.5691386999097,,,,,,,,,,,,,1309.5536863999441,1309.5691386999097,1309.5691386999097,1309.5691386999097,1311.1852522001136,,,,1311.1973914001137,1311.207556999987,1311.207556999987,1311.2507639001124,1311.25100989989,1311.2675606999546,1311.2675606999546,1311.2675606999546,1311.3506165000144,,,,,1311.617869199952,,,,,,,,,,,,,,,,,,down,1.608122200006619,None,space,0.33693749993108213,None,P133,001,2025-03-26_10h57.10.446,posner_endo_new1,2024.2.4,60.044156459386414,2025-03-26 10h57.49.618825 +0000,
cube_l.png,0.1,0.31,invalid,38,38,0,down,1.687576700001955,None,space,0.27265270007774234,None,,,,,,,,,0,38,38,38,1311.6335899000987,,,,,,,,,,,,,1311.6180676000658,1311.6335899000987,1311.6335899000987,1311.6335899000987,1313.332807800034,,,,1313.3405706000049,1313.351485399995,1313.351485399995,1313.3986895000562,1313.3989099001046,1313.4152542001102,1313.4152542001102,1313.4152542001102,1313.4984126999043,,,,,1313.7001034000423,,,,,,,,,,,,,,,,,,down,1.687576700001955,None,space,0.27265270007774234,None,P133,001,2025-03-26_10h57.10.446,posner_endo_new1,2024.2.4,60.044156459386414,2025-03-26 10h57.49.618825 +0000,
cube_r.png,0.1,0.31,valid,39,39,0,down,2.5418230001814663,None,space,0.38792720017954707,None,,,,,,,,,0,39,39,39,1313.714866100112,,,,,,,,,,,,,1313.7005789999384,1313.714866100112,1313.714866100112,1313.714866100112,1316.2643391001038,,,,1316.2837990000844,1316.2951179998927,1316.2951179998927,1316.3290540999733,1316.3293934999965,1316.3454203000292,1316.3454203000292,1316.3454203000292,1316.4287380999885,,,,,1316.7462977999821,,,,,,,,,,,,,,,,,,down,2.5418230001814663,None,space,0.38792720017954707,None,P133,001,2025-03-26_10h57.10.446,posner_endo_new1,2024.2.4,60.044156459386414,2025-03-26 10h57.49.618825 +0000,
cube_l.png,0.1,0.31,invalid,40,40,0,down,5.279862799914554,None,space,0.3605631000827998,None,,,,,,,,,0,40,40,40,1316.7616753000766,,,,,,,,,,,,,1316.7465884999838,1316.7616753000766,1316.7616753000766,1316.7616753000766,1322.0574956999626,,,,1322.0702639000956,1322.0803725998849,1322.0803725998849,1322.1230311999097,1322.1233759000897,1322.139689899981,1322.139689899981,1322.139689899981,1322.2227664999664,,,,,1322.507073600078,,,,,,,,,,,,,,,,,,down,5.279862799914554,None,space,0.3605631000827998,None,P133,001,2025-03-26_10h57.10.446,posner_endo_new1,2024.2.4,60.044156459386414,2025-03-26 10h57.49.618825 +0000,
cube_l.png,0.1,10,catch,41,41,0,down,4.0863789999857545,None,None,,,,,,,,,,,0,41,41,41,1322.522544000065,,,,,,,,,,,,,1322.507373600034,1322.522544000065,1322.522544000065,1322.522544000065,1326.6194080000278,,,,1326.6313988999464,1326.641551000066,1326.641551000066,1326.685086299898,1326.685343600111,1326.7015424999408,1326.7015424999408,1326.7015424999408,1326.78503239993,1328.7994977000635,1329.7152855000459,1329.7152855000459,1329.7152855000459,1329.699020900065,,,,,,,,,,,,,,,,,,down,4.0863789999857545,None,None,,,P133,001,2025-03-26_10h57.10.446,posner_endo_new1,2024.2.4,60.044156459386414,2025-03-26 10h57.49.618825 +0000,
cube_l.png,0.1,-0.31,valid,42,42,0,down,3.1097431001253426,None,space,0.3344714001286775,None,,,,,,,,,0,42,42,42,1329.7152855000459,,,,,,,,,,,,,1329.699205599958,1329.7152855000459,1329.7152855000459,1329.7152855000459,1332.829422000097,,,,1332.8355954000726,1332.8473215999547,1332.8473215999547,1332.895174199948,1332.895610800013,1332.9116185000166,1332.9116185000166,1332.9116185000166,1332.9948493998963,,,,,1333.2625577000435,,,,,,,,,,,,,,,,,,down,3.1097431001253426,None,space,0.3344714001286775,None,P133,001,2025-03-26_10h57.10.446,posner_endo_new1,2024.2.4,60.044156459386414,2025-03-26 10h57.49.618825 +0000,
cube_l.png,0.1,10,catch,43,43,0,down,3.6507776000071317,None,None,,,,,,,,,,,0,43,43,43,1333.278206499992,,,,,,,,,,,,,1333.262809399981,1333.278206499992,1333.278206499992,1333.278206499992,1336.9421111999545,,,,1336.9526738000568,1336.9626128999516,1336.9626128999516,1337.0078573001083,1337.0081619000994,1337.0243458000477,1337.0243458000477,1337.0243458000477,1337.1076030998956,1339.1221783999354,1340.0378378001042,1340.0378378001042,1340.0378378001042,1340.0218736999668,,,,,,,,,,,,,,,,,,down,3.6507776000071317,None,None,,,P133,001,2025-03-26_10h57.10.446,posner_endo_new1,2024.2.4,60.044156459386414,2025-03-26 10h57.49.618825 +0000,
cube_l.png,0.1,0.31,invalid,44,44,0,down,4.1152145999949425,None,space,0.33557879994623363,None,,,,,,,,,0,44,44,44,1340.0378378001042,,,,,,,,,,,,,1340.0221092000138,1340.0378378001042,1340.0378378001042,1340.0378378001042,1344.16805940005,,,,1344.178579099942,1344.1885985999834,1344.1885985999834,1344.2336699001025,1344.2339826999232,1344.2502349000424,1344.2502349000424,1344.2502349000424,1344.3335426999256,,,,,1344.6010573999956,,,,,,,,,,,,,,,,,,down,4.1152145999949425,None,space,0.33557879994623363,None,P133,001,2025-03-26_10h57.10.446,posner_endo_new1,2024.2.4,60.044156459386414,2025-03-26 10h57.49.618825 +0000,
cube_l.png,0.1,0.31,invalid,45,45,0,down,6.456324300030246,None,space,0.3798434000927955,None,,,,,,,,,0,45,45,45,1344.6165903001092,,,,,,,,,,,,,1344.6013110999484,1344.6165903001092,1344.6165903001092,1344.6165903001092,1351.077866599895,,,,1351.087634399999,1351.0977910000365,1351.0977910000365,1351.1433854000643,1351.1436888999306,1351.159877799917,1351.159877799917,1351.159877799917,1351.24304630002,,,,,1351.5440191999078,,,,,,,,,,,,,,,,,,down,6.456324300030246,None,space,0.3798434000927955,None,P133,001,2025-03-26_10h57.10.446,posner_endo_new1,2024.2.4,60.044156459386414,2025-03-26 10h57.49.618825 +0000,
cube_r.png,0.1,0.31,valid,46,46,0,down,5.769085800042376,None,space,0.306443199981004,None,,,,,,,,,0,46,46,46,1351.5596280000173,,,,,,,,,,,,,1351.5442711000796,1351.5596280000173,1351.5596280000173,1351.5596280000173,1357.3378000000957,,,,1357.3474602999631,1357.3576400999445,1357.3576400999445,1357.4036765999626,1357.403978300048,1357.420138699934,1357.420138699934,1357.420138699934,1357.5033577999566,,,,,1357.737423399929,,,,,,,,,,,,,,,,,,down,5.769085800042376,None,space,0.306443199981004,None,P133,001,2025-03-26_10h57.10.446,posner_endo_new1,2024.2.4,60.044156459386414,2025-03-26 10h57.49.618825 +0000,
cube_l.png,0.1,-0.31,valid,47,47,0,down,3.7517166999168694,None,space,0.329583200160414,None,,,,,,,,,0,47,47,47,1357.7531723000575,,,,,,,,,,,,,1357.7376804000232,1357.7531723000575,1357.7531723000575,1357.7531723000575,1361.5168981000315,,,,1361.5265772999264,1361.5366537999362,1361.5366537999362,1361.582691400079,1361.5829978999682,1361.5991400999483,1361.5991400999483,1361.5991400999483,1361.6824831000995,,,,,1361.9334998999257,,,,,,,,,,,,,,,,,,down,3.7517166999168694,None,space,0.329583200160414,None,P133,001,2025-03-26_10h57.10.446,posner_endo_new1,2024.2.4,60.044156459386414,2025-03-26 10h57.49.618825 +0000,
cube_r.png,0.1,-0.31,invalid,48,48,0,down,2.636333999922499,None,space,0.5335413001012057,None,,,,,,,,,0,48,48,48,1361.948867399944,,,,,,,,,,,,,1361.9337659999728,1361.948867399944,1361.948867399944,1361.948867399944,1364.5968826001044,,,,1364.603056400083,1364.6146070999093,1364.6146070999093,1364.662819799967,1364.663321299944,1364.6792083000764,1364.6792083000764,1364.6792083000764,1364.7459990999196,,,,,1365.229928100016,,,,,,,,,,,,,,,,,,down,2.636333999922499,None,space,0.5335413001012057,None,P133,001,2025-03-26_10h57.10.446,posner_endo_new1,2024.2.4,60.044156459386414,2025-03-26 10h57.49.618825 +0000,
cube_r.png,0.1,10,catch,49,49,0,down,3.4758701999671757,None,None,,,,,,,,,,,0,49,49,49,1365.2454150000121,,,,,,,,,,,,,1365.2302045000251,1365.2454150000121,1365.2454150000121,1365.2454150000121,1368.726262900047,,,,1368.7378376999404,1368.7479461000767,1368.7479461000767,1368.7920129999984,1368.7923451999668,1368.8084738000762,1368.8084738000762,1368.8084738000762,1368.8917735998984,1370.906293499982,1371.8219552999362,1371.8219552999362,1371.8219552999362,1371.8061601999216,,,,,,,,,,,,,,,,,,down,3.4758701999671757,None,None,,,P133,001,2025-03-26_10h57.10.446,posner_endo_new1,2024.2.4,60.044156459386414,2025-03-26 10h57.49.618825 +0000,
cube_l.png,0.1,-0.31,valid,50,50,0,down,3.4354483999777585,None,space,0.3953710999339819,None,,,,,,,,,0,50,50,50,1371.8219552999362,,,,,,,,,,,,,1371.8064210000448,1371.8219552999362,1371.8219552999362,1371.8219552999362,1375.2699490999803,,,,1375.2813764999155,1375.291536899982,1375.291536899982,1375.3352379999124,1375.3355707998853,1375.3517771998886,1375.3517771998886,1375.3517771998886,1375.435054600006,,,,,1375.7524892000947,,,,,,,,,,,,,,,,,,down,3.4354483999777585,None,space,0.3953710999339819,None,P133,001,2025-03-26_10h57.10.446,posner_endo_new1,2024.2.4,60.044156459386414,2025-03-26 10h57.49.618825 +0000,
cube_l.png,0.1,-0.31,valid,51,51,0,down,6.25669760000892,None,space,0.3645630001556128,None,,,,,,,,,0,51,51,51,1375.768351699924,,,,,,,,,,,,,1375.7527666001115,1375.768351699924,1375.768351699924,1375.768351699924,1382.0295778000727,,,,1382.0411376000848,1382.051189800026,1382.051189800026,1382.095042699948,1382.095280499896,1382.111514700111,1382.111514700111,1382.111514700111,1382.1947878000792,,,,,1382.4791933998931,,,,,,,,,,,,,,,,,,down,6.25669760000892,None,space,0.3645630001556128,None,P133,001,2025-03-26_10h57.10.446,posner_endo_new1,2024.2.4,60.044156459386414,2025-03-26 10h57.49.618825 +0000,
cube_r.png,0.1,-0.31,invalid,52,52,0,down,5.562721100170165,None,space,0.3396584000438452,None,,,,,,,,,0,52,52,52,1382.494517599931,,,,,,,,,,,,,1382.4794713999145,1382.494517599931,1382.494517599931,1382.494517599931,1388.0732267999556,,,,1388.085091700079,1388.0951785000507,1388.0951785000507,1388.1389500000514,1388.1392946001142,1388.1553338000085,1388.1553338000085,1388.1553338000085,1388.2386501999572,,,,,1388.5060248998925,,,,,,,,,,,,,,,,,,down,5.562721100170165,None,space,0.3396584000438452,None,P133,001,2025-03-26_10h57.10.446,posner_endo_new1,2024.2.4,60.044156459386414,2025-03-26 10h57.49.618825 +0000,
cube_l.png,0.1,-0.31,valid,53,53,0,down,6.895352500025183,None,space,0.3446674000006169,None,,,,,,,,,0,53,53,53,1388.521653600037,,,,,,,,,,,,,1388.5063038999215,1388.521653600037,1388.521653600037,1388.521653600037,1395.432165300008,,,,1395.445608299924,1395.4556394999381,1395.4556394999381,1395.497626400087,1395.4980389999691,1395.5141068000812,1395.5141068000812,1395.5141068000812,1395.597355300095,,,,,1395.8652049999218,,,,,,,,,,,,,,,,,,down,6.895352500025183,None,space,0.3446674000006169,None,P133,001,2025-03-26_10h57.10.446,posner_endo_new1,2024.2.4,60.044156459386414,2025-03-26 10h57.49.618825 +0000,
cube_r.png,0.1,10,catch,54,54,0,down,4.464517500018701,None,None,,,,,,,,,,,0,54,54,54,1395.8803912999574,,,,,,,,,,,,,1395.8655312000774,1395.8803912999574,1395.8803912999574,1395.8803912999574,1400.3604409000836,,,,1400.3747562000062,1400.384771300014,1400.384771300014,1400.42649480002,1400.4267424000427,1400.4427624000236,1400.4427624000236,1400.4427624000236,1400.526086299913,1402.5406426999252,1403.4559778000694,1403.4559778000694,1403.4559778000694,1403.440146500012,,,,,,,,,,,,,,,,,,down,4.464517500018701,None,None,,,P133,001,2025-03-26_10h57.10.446,posner_endo_new1,2024.2.4,60.044156459386414,2025-03-26 10h57.49.618825 +0000,
cube_l.png,0.1,0.31,invalid,55,55,0,down,3.4971360999625176,None,space,0.32581830001436174,None,,,,,,,,,0,55,55,55,1403.4559778000694,,,,,,,,,,,,,1403.4404567000456,1403.4559778000694,1403.4559778000694,1403.4559778000694,1406.9702258000616,,,,1406.9839625998866,1406.9940708000213,1406.9940708000213,1407.0361925999168,1407.0364518999122,1407.0528235000093,1407.0528235000093,1407.0528235000093,1407.119561499916,,,,,1407.3867724998854,,,,,,,,,,,,,,,,,,down,3.4971360999625176,None,space,0.32581830001436174,None,P133,001,2025-03-26_10h57.10.446,posner_endo_new1,2024.2.4,60.044156459386414,2025-03-26 10h57.49.618825 +0000,
cube_l.png,0.1,-0.31,valid,56,56,0,down,2.2308122999966145,None,space,0.7179664999712259,None,,,,,,,,,0,56,56,56,1407.4019379999954,,,,,,,,,,,,,1407.3870979999192,1407.4019379999954,1407.4019379999954,1407.4019379999954,1409.6344403000548,,,,1409.6478190000635,1409.6579217999242,1409.6579217999242,1409.70031320001,1409.7005753000267,1409.7166540001053,1409.7166540001053,1409.7166540001053,1409.7832961999811,,,,,1410.4502316000871,,,,,,,,,,,,,,,,,,down,2.2308122999966145,None,space,0.7179664999712259,None,P133,001,2025-03-26_10h57.10.446,posner_endo_new1,2024.2.4,60.044156459386414,2025-03-26 10h57.49.618825 +0000,
cube_r.png,0.1,0.31,valid,57,57,0,down,5.119319600053132,None,space,0.43328920006752014,None,,,,,,,,,0,57,57,57,1410.465469900053,,,,,,,,,,,,,1410.450567400083,1410.465469900053,1410.465469900053,1410.465469900053,1415.5949583000038,,,,1415.6032416000962,1415.613538699923,1415.613538699923,1415.6611105001066,1415.6617998001166,1415.6774351000786,1415.6774351000786,1415.6774351000786,1415.744063799968,,,,,1416.1130488000344,,,,,,,,,,,,,,,,,,down,5.119319600053132,None,space,0.43328920006752014,None,P133,001,2025-03-26_10h57.10.446,posner_endo_new1,2024.2.4,60.044156459386414,2025-03-26 10h57.49.618825 +0000,
cube_r.png,0.1,-0.31,invalid,58,58,0,down,5.210043299943209,None,space,0.3501860999967903,None,,,,,,,,,0,58,58,58,1416.1271522000898,,,,,,,,,,,,,1416.113639099989,1416.1271522000898,1416.1271522000898,1416.1271522000898,1421.3409589000512,,,,1421.3625173999462,1421.3727122999262,1421.3727122999262,1421.4044963999186,1421.404903100105,1421.4210143999662,1421.4210143999662,1421.4210143999662,1421.5041501000524,,,,,1421.7883856999688,,,,,,,,,,,,,,,,,,down,5.210043299943209,None,space,0.3501860999967903,None,P133,001,2025-03-26_10h57.10.446,posner_endo_new1,2024.2.4,60.044156459386414,2025-03-26 10h57.49.618825 +0000,
cube_l.png,0.1,0.31,invalid,59,59,0,down,1.95728259999305,None,space,0.5911134998314083,None,,,,,,,,,0,59,59,59,1421.803834500024,,,,,,,,,,,,,1421.7887166000437,1421.803834500024,1421.803834500024,1421.803834500024,1423.7697616999503,,,,1423.783063000068,1423.7931888999883,1423.7931888999883,1423.8352932000998,1423.8356816000305,1423.8517684000544,1423.8517684000544,1423.8517684000544,1423.935016399948,,,,,1424.4524834998883,,,,,,,,,,,,,,,,,,down,1.95728259999305,None,space,0.5911134998314083,None,P133,001,2025-03-26_10h57.10.446,posner_endo_new1,2024.2.4,60.044156459386414,2025-03-26 10h57.49.618825 +0000,
