cue_img,cue_soa,target_y,trial,thisN,thisTrialN,thisRepN,key_control2.keys,key_control2.rt,key_control2.duration,key_resp.keys,key_resp.rt,key_resp.duration,practice.thisRepN,practice.thisTrialN,practice.thisN,practice.thisIndex,block1.thisRepN,block1.thisTrialN,block1.thisN,block1.thisIndex,block2.thisRepN,block2.thisTrialN,block2.thisN,block2.thisIndex,thisRow.t,notes,instructions.started,instructions_txt.started,key_control.started,instructions.stopped,key_control.keys,key_control.rt,key_control.duration,ready.started,ready_txt.started,ready_txt.stopped,ready.stopped,fix.started,fixation.started,key_control2.started,fixation_cross.started,fix.stopped,practice.key_control2.keys,practice.key_control2.rt,practice.key_control2.duration,cue.started,cube.started,fixation_cross_cue.started,cue.stopped,target.started,fixation_target.started,fixation_cross_target.started,key_resp.started,star.started,star.stopped,fixation_target.stopped,fixation_cross_target.stopped,key_resp.stopped,target.stopped,practice.key_resp.keys,block1.key_control2.keys,block1.key_control2.rt,block1.key_control2.duration,block1.key_resp.keys,block1.key_resp.rt,block1.key_resp.duration,break_2.started,text.started,key_control3.started,break_2.stopped,key_control3.keys,key_control3.rt,key_control3.duration,block2.key_control2.keys,block2.key_control2.rt,block2.key_control2.duration,block2.key_resp.keys,participant,session,date,expName,psychopyVersion,frameRate,expStart,
,,,,,,,,,,,,,,,,,,,,,,,,,,,0.007540599908679724,0.023482699878513813,0.023482699878513813,300.78685149992816,up,300.753280099947,None,,,,,,,,,,,,,,,,,,,,,,,,,,,,,,,,,,,,,,,,,,,,,P134,001,2025-03-26_12h54.28.233,posner_endo_new1,2024.2.4,60.067311424260566,2025-03-26 12h54.33.785696 +0000,
,,,,,,,,,,,,,,,,,,,,,,,,,,,,,,,,,,300.7869004998356,300.7996715998743,303.8001744998619,303.78056779992767,,,,,,,,,,,,,,,,,,,,,,,,,,,,,,,,,,,,,,,,,P134,001,2025-03-26_12h54.28.233,posner_endo_new1,2024.2.4,60.067311424260566,2025-03-26 12h54.33.785696 +0000,
cube_l.png,0.1,-0.31,valid,0,0,0,up,22.241317000007257,None,None,,,0,0,0,0,,,,,,,,,303.8001744998619,,,,,,,,,,,,,303.7878179999534,303.8001744998619,303.8001744998619,303.8001744998619,326.05834129988216,up,22.241317000007257,None,326.07476560003124,326.0874059998896,326.0874059998896,326.1240816998761,326.12430729996413,326.14044840005226,326.14044840005226,326.14044840005226,326.224205999868,328.23841729993,329.15416499995627,329.15416499995627,329.15416499995627,329.1378526999615,None,,,,,,,,,,,,,,,,,,P134,001,2025-03-26_12h54.28.233,posner_endo_new1,2024.2.4,60.067311424260566,2025-03-26 12h54.33.785696 +0000,
cube_l.png,0.1,0.31,invalid,1,1,0,up,3.1826723001431674,None,None,,,0,1,1,5,,,,,,,,,329.15416499995627,,,,,,,,,,,,,329.13801070000045,329.15416499995627,329.15416499995627,329.15416499995627,332.35156049998477,up,3.1826723001431674,None,332.3578377000522,332.36972209997475,332.36972209997475,332.41766149993055,332.4178899000399,332.4340088998433,332.4340088998433,332.4340088998433,332.500603399938,334.5152950999327,335.44777069985867,335.44777069985867,335.44777069985867,335.43154759984463,None,,,,,,,,,,,,,,,,,,P134,001,2025-03-26_12h54.28.233,posner_endo_new1,2024.2.4,60.067311424260566,2025-03-26 12h54.33.785696 +0000,
cube_l.png,0.1,-0.31,valid,2,2,0,up,3.737000900087878,None,None,,,0,2,2,8,,,,,,,,,335.44777069985867,,,,,,,,,,,,,335.43170149996877,335.44777069985867,335.44777069985867,335.44777069985867,339.19500269996934,up,3.737000900087878,None,339.2076403000392,339.2180369000416,339.2180369000416,339.2605798000004,339.2608300000429,339.2768740998581,339.2768740998581,339.2768740998581,339.3601706000045,341.3748242999427,342.2906809998676,342.2906809998676,342.2906809998676,342.27448669984005,None,,,,,,,,,,,,,,,,,,P134,001,2025-03-26_12h54.28.233,posner_endo_new1,2024.2.4,60.067311424260566,2025-03-26 12h54.33.785696 +0000,
cube_l.png,0.1,-0.31,valid,3,3,0,up,2.9912829000968486,None,None,,,0,3,3,4,,,,,,,,,342.2906809998676,,,,,,,,,,,,,342.274663799908,342.2906809998676,342.2906809998676,342.2906809998676,345.28883340000175,up,2.9912829000968486,None,345.3007400999777,345.3109758000355,345.3109758000355,345.35438449983485,345.3547274998855,345.37075049988925,345.37075049988925,345.37075049988925,345.4541060999036,347.46868130005896,348.38441960001364,348.38441960001364,348.38441960001364,348.3685202000197,None,,,,,,,,,,,,,,,,,,P134,001,2025-03-26_12h54.28.233,posner_endo_new1,2024.2.4,60.067311424260566,2025-03-26 12h54.33.785696 +0000,
cube_r.png,0.1,-0.31,invalid,4,4,0,up,2.936980600003153,None,None,,,0,4,4,2,,,,,,,,,348.38441960001364,,,,,,,,,,,,,348.3687783998903,348.38441960001364,348.38441960001364,348.38441960001364,351.3325364999473,up,2.936980600003153,None,351.34451079997234,351.35479440004565,351.35479440004565,351.3981675999239,351.3985206000507,351.4147218998987,351.4147218998987,351.4147218998987,351.49787019984797,353.51251829997636,354.4282656998839,354.4282656998839,354.4282656998839,354.41231639985926,None,,,,,,,,,,,,,,,,,,P134,001,2025-03-26_12h54.28.233,posner_endo_new1,2024.2.4,60.067311424260566,2025-03-26 12h54.33.785696 +0000,
cube_r.png,0.1,-0.31,invalid,5,5,0,up,2.2211655999999493,None,None,,,0,5,5,9,,,,,,,,,354.4282656998839,,,,,,,,,,,,,354.41257159993984,354.4282656998839,354.4282656998839,354.4282656998839,356.66048019984737,up,2.2211655999999493,None,356.6725729999598,356.6828701000195,356.6828701000195,356.72592539992183,356.72626719996333,356.74252159986645,356.74252159986645,356.74252159986645,356.8257666998543,358.8404685999267,359.75616710004397,359.75616710004397,359.75616710004397,359.7402182999067,None,,,,,,,,,,,,,,,,,,P134,001,2025-03-26_12h54.28.233,posner_endo_new1,2024.2.4,60.067311424260566,2025-03-26 12h54.33.785696 +0000,
cube_r.png,0.1,-0.31,invalid,6,6,0,up,3.829199600033462,None,None,,,0,6,6,6,,,,,,,,,359.75616710004397,,,,,,,,,,,,,359.74047229997814,359.75616710004397,359.75616710004397,359.75616710004397,363.58691819990054,up,3.829199600033462,None,363.59979139990173,363.61007909988984,363.61007909988984,363.6523467998486,363.6526861998718,363.668746399926,363.668746399926,363.668746399926,363.7520667000208,365.76666929991916,366.682455400005,366.682455400005,366.682455400005,366.6665837999899,None,,,,,,,,,,,,,,,,,,P134,001,2025-03-26_12h54.28.233,posner_endo_new1,2024.2.4,60.067311424260566,2025-03-26 12h54.33.785696 +0000,
cube_r.png,0.1,0.31,valid,7,7,0,up,4.12672260007821,None,None,,,0,7,7,7,,,,,,,,,366.682455400005,,,,,,,,,,,,,366.66684159985743,366.682455400005,366.682455400005,366.682455400005,370.81272599985823,up,4.12672260007821,None,370.82462919992395,370.83493809984066,370.83493809984066,370.87806729995646,370.8783158999868,370.89462489984,370.89462489984,370.89462489984,370.97795039997436,372.9926320000086,373.9082317999564,373.9082317999564,373.9082317999564,373.89213249995373,None,,,,,,,,,,,,,,,,,,P134,001,2025-03-26_12h54.28.233,posner_endo_new1,2024.2.4,60.067311424260566,2025-03-26 12h54.33.785696 +0000,
cube_r.png,0.1,10,catch,8,8,0,up,1.5168852000497282,None,None,,,0,8,8,3,,,,,,,,,373.9082317999564,,,,,,,,,,,,,373.89230909990147,373.9082317999564,373.9082317999564,373.9082317999564,375.44088909984566,up,1.5168852000497282,None,375.4489506999962,375.45967320003547,375.45967320003547,375.5068649998866,375.5071101000067,375.5233391998336,375.5233391998336,375.5233391998336,375.58998929988593,377.6044809999876,378.53691320004873,378.53691320004873,378.53691320004873,378.52077139983885,None,,,,,,,,,,,,,,,,,,P134,001,2025-03-26_12h54.28.233,posner_endo_new1,2024.2.4,60.067311424260566,2025-03-26 12h54.33.785696 +0000,
cube_r.png,0.1,0.31,valid,9,9,0,up,2.2643393999896944,None,None,,,0,9,9,10,,,,,,,,,378.53691320004873,,,,,,,,,,,,,378.5209449999966,378.53691320004873,378.53691320004873,378.53691320004873,380.80261729983613,up,2.2643393999896944,None,380.81440509995446,380.8245439999737,380.8245439999737,380.86794360005297,380.8682889000047,380.8844957998954,380.8844957998954,380.8844957998954,380.96774549991824,382.98241129983217,383.8981359999161,383.8981359999161,383.8981359999161,383.88222759985365,None,,,,,,,,,,,,,,,,,,P134,001,2025-03-26_12h54.28.233,posner_endo_new1,2024.2.4,60.067311424260566,2025-03-26 12h54.33.785696 +0000,
cube_l.png,0.1,0.31,invalid,10,10,0,up,1.3351773000322282,None,None,,,0,10,10,1,,,,,,,,,383.8981359999161,,,,,,,,,,,,,383.882480799919,383.8981359999161,383.8981359999161,383.8981359999161,385.24783009989187,up,1.3351773000322282,None,385.2596666000318,385.27008139993995,385.27008139993995,385.3134460998699,385.31378649990074,385.3300079999026,385.3300079999026,385.3300079999026,385.41318190004677,387.42766409995966,388.3435857000295,388.3435857000295,388.3435857000295,388.3273795999121,None,,,,,,,,,,,,,,,,,,P134,001,2025-03-26_12h54.28.233,posner_endo_new1,2024.2.4,60.067311424260566,2025-03-26 12h54.33.785696 +0000,
,,,,,,,,,,,,,,,,,,,,,,,,,,,,,,,,,,388.3274788998533,388.3435857000295,391.36231959983706,391.3242391999811,,,,,,,,,,,,,,,,,,,,,,,,,,,,,,,,,,,,,,,,,P134,001,2025-03-26_12h54.28.233,posner_endo_new1,2024.2.4,60.067311424260566,2025-03-26 12h54.33.785696 +0000,
cube_l.png,0.1,10,catch,0,0,0,up,17.271586999995634,None,None,,,,,,,0,0,0,0,,,,,391.36231959983706,,,,,,,,,,,,,391.3518087998964,391.36231959983706,391.36231959983706,391.36231959983706,408.6405251000542,,,,408.6510111000389,408.6610935998615,408.6610935998615,408.7061234000139,408.7064084999729,408.72269079997204,408.72269079997204,408.72269079997204,408.8058116999455,410.8205283000134,411.7361575998366,411.7361575998366,411.7361575998366,411.7201713998802,,up,17.271586999995634,None,None,,,,,,,,,,,,,,P134,001,2025-03-26_12h54.28.233,posner_endo_new1,2024.2.4,60.067311424260566,2025-03-26 12h54.33.785696 +0000,
cube_l.png,0.1,10,catch,1,1,0,up,2.185163199901581,None,None,,,,,,,0,1,1,1,,,,,411.7361575998366,,,,,,,,,,,,,411.72039449983276,411.7361575998366,411.7361575998366,411.7361575998366,413.9348970998544,,,,413.9442726999987,413.95419499999844,413.95419499999844,414.0005297998432,414.0008161000442,414.0172103999648,414.0172103999648,414.0172103999648,414.1009745998308,416.1149778000545,417.0307581999805,417.0307581999805,417.0307581999805,417.0147683999967,,up,2.185163199901581,None,None,,,,,,,,,,,,,,P134,001,2025-03-26_12h54.28.233,posner_endo_new1,2024.2.4,60.067311424260566,2025-03-26 12h54.33.785696 +0000,
cube_l.png,0.1,0.31,invalid,2,2,0,up,1.2429482000879943,None,None,,,,,,,0,2,2,2,,,,,417.0307581999805,,,,,,,,,,,,,417.01499329996295,417.0307581999805,417.0307581999805,417.0307581999805,418.2806426999159,,,,418.2899269000627,418.30001610005274,418.30001610005274,418.34634869988076,418.34662920003757,418.36281039984897,418.36281039984897,418.36281039984897,418.4460789998993,420.4606714998372,421.3763655000366,421.3763655000366,421.3763655000366,421.36019909987226,,up,1.2429482000879943,None,None,,,,,,,,,,,,,,P134,001,2025-03-26_12h54.28.233,posner_endo_new1,2024.2.4,60.067311424260566,2025-03-26 12h54.33.785696 +0000,
cube_l.png,0.1,0.31,invalid,3,3,0,up,1.1683726999908686,None,None,,,,,,,0,3,3,3,,,,,421.3763655000366,,,,,,,,,,,,,421.36042369995266,421.3763655000366,421.3763655000366,421.3763655000366,422.5593644999899,,,,422.5682504000142,422.5783261000179,422.5783261000179,422.62525619985536,422.62553899991326,422.6416292998474,422.6416292998474,422.6416292998474,422.72502779983915,424.73961000004783,425.6552101999987,425.6552101999987,425.6552101999987,425.639283800032,,up,1.1683726999908686,None,None,,,,,,,,,,,,,,P134,001,2025-03-26_12h54.28.233,posner_endo_new1,2024.2.4,60.067311424260566,2025-03-26 12h54.33.785696 +0000,
cube_l.png,0.1,-0.31,valid,4,4,0,up,0.5376172000542283,None,None,,,,,,,0,4,4,4,,,,,425.6552101999987,,,,,,,,,,,,,425.6394992999267,425.6552101999987,425.6552101999987,425.6552101999987,426.20573299983516,,,,426.2146185999736,426.2246973000001,426.2246973000001,426.2715425998904,426.2718366999179,426.28810640005395,426.28810640005395,426.28810640005395,426.37126439996064,428.3858395998832,429.30167889990844,429.30167889990844,429.30167889990844,429.285644199932,,up,0.5376172000542283,None,None,,,,,,,,,,,,,,P134,001,2025-03-26_12h54.28.233,posner_endo_new1,2024.2.4,60.067311424260566,2025-03-26 12h54.33.785696 +0000,
cube_r.png,0.1,-0.31,invalid,5,5,0,up,2.931374700041488,None,None,,,,,,,0,5,5,5,,,,,429.30167889990844,,,,,,,,,,,,,429.2858680000063,429.30167889990844,429.30167889990844,429.30167889990844,432.2496446999721,,,,432.25859189988114,432.268408899894,432.268408899894,432.3153514000587,432.31563590001315,432.33177709998563,432.33177709998563,432.33177709998563,432.4150525999721,434.42964159999974,435.34542769985273,435.34542769985273,435.34542769985273,435.3293127999641,,up,2.931374700041488,None,None,,,,,,,,,,,,,,P134,001,2025-03-26_12h54.28.233,posner_endo_new1,2024.2.4,60.067311424260566,2025-03-26 12h54.33.785696 +0000,
cube_r.png,0.1,0.31,valid,6,6,0,up,3.1839490002021194,None,None,,,,,,,0,6,6,6,,,,,435.34542769985273,,,,,,,,,,,,,435.32953880005516,435.34542769985273,435.34542769985273,435.34542769985273,438.54309409996495,,,,438.5519911998417,438.56192979984917,438.56192979984917,438.6088578000199,438.6090776999481,438.62536569987424,438.62536569987424,438.62536569987424,438.7086455998942,440.72331869998015,441.639068499906,441.639068499906,441.639068499906,441.62277480005287,,up,3.1839490002021194,None,None,,,,,,,,,,,,,,P134,001,2025-03-26_12h54.28.233,posner_endo_new1,2024.2.4,60.067311424260566,2025-03-26 12h54.33.785696 +0000,
cube_r.png,0.1,-0.31,invalid,7,7,0,up,0.8836461999453604,None,None,,,,,,,0,7,7,7,,,,,441.639068499906,,,,,,,,,,,,,441.62294219993055,441.639068499906,441.639068499906,441.639068499906,442.5388251999393,,,,442.54488239996135,442.5567121999338,442.5567121999338,442.60442780004814,442.6046488999855,442.62128039984964,442.62128039984964,442.62128039984964,442.68799580005,444.702591399895,445.63491449994035,445.63491449994035,445.63491449994035,445.61868119984865,,up,0.8836461999453604,None,None,,,,,,,,,,,,,,P134,001,2025-03-26_12h54.28.233,posner_endo_new1,2024.2.4,60.067311424260566,2025-03-26 12h54.33.785696 +0000,
cube_l.png,0.1,-0.31,valid,8,8,0,up,2.158270899904892,None,None,,,,,,,0,8,8,8,,,,,445.63491449994035,,,,,,,,,,,,,445.6188409999013,445.63491449994035,445.63491449994035,445.63491449994035,447.79995939997025,,,,447.80607489985414,447.8175470000133,447.8175470000133,447.8660091999918,447.86623140005395,447.88259839988314,447.88259839988314,447.88259839988314,447.949219299946,449.9639130998403,450.8962318999693,450.8962318999693,450.8962318999693,450.88003390002996,,up,2.158270899904892,None,None,,,,,,,,,,,,,,P134,001,2025-03-26_12h54.28.233,posner_endo_new1,2024.2.4,60.067311424260566,2025-03-26 12h54.33.785696 +0000,
cube_r.png,0.1,-0.31,invalid,9,9,0,up,3.168716700049117,None,None,,,,,,,0,9,9,9,,,,,450.8962318999693,,,,,,,,,,,,,450.88019789988175,450.8962318999693,450.8962318999693,450.8962318999693,454.07697479985654,,,,454.08307739999145,454.09480289998464,454.09480289998464,454.14287139987573,454.1430970998481,454.1595624999609,454.1595624999609,454.1595624999609,454.22621700004674,456.240682200063,457.1731801999267,457.1731801999267,457.1731801999267,457.1570053000469,,up,3.168716700049117,None,None,,,,,,,,,,,,,,P134,001,2025-03-26_12h54.28.233,posner_endo_new1,2024.2.4,60.067311424260566,2025-03-26 12h54.33.785696 +0000,
cube_l.png,0.1,0.31,invalid,10,10,0,up,3.363852299982682,None,None,,,,,,,0,10,10,10,,,,,457.1731801999267,,,,,,,,,,,,,457.1571726000402,457.1731801999267,457.1731801999267,457.1731801999267,460.5539690000005,,,,460.5599876998458,460.5714054000564,460.5714054000564,460.61967090005055,460.6198905999772,460.6362683000043,460.6362683000043,460.6362683000043,460.7194866000209,462.7341545999516,463.64991339994594,463.64991339994594,463.64991339994594,463.63369000004604,,up,3.363852299982682,None,None,,,,,,,,,,,,,,P134,001,2025-03-26_12h54.28.233,posner_endo_new1,2024.2.4,60.067311424260566,2025-03-26 12h54.33.785696 +0000,
cube_r.png,0.1,-0.31,invalid,11,11,0,up,3.535342799965292,None,None,,,,,,,0,11,11,11,,,,,463.64991339994594,,,,,,,,,,,,,463.63385430001654,463.64991339994594,463.64991339994594,463.64991339994594,467.1967843999155,,,,467.202773099998,467.2144001999404,467.2144001999404,467.2628490999341,467.26307019987144,467.27945869998075,467.27945869998075,467.27945869998075,467.3459814998787,469.360765399877,470.29312999988906,470.29312999988906,470.29312999988906,470.27672840002924,,up,3.535342799965292,None,None,,,,,,,,,,,,,,P134,001,2025-03-26_12h54.28.233,posner_endo_new1,2024.2.4,60.067311424260566,2025-03-26 12h54.33.785696 +0000,
cube_r.png,0.1,0.31,valid,12,12,0,up,2.0197777999565005,None,space,1.7331766998395324,None,,,,,0,12,12,12,,,,,470.29312999988906,,,,,,,,,,,,,470.2768880999647,470.29312999988906,470.29312999988906,470.29312999988906,472.3251273999922,,,,472.3313426999375,472.3430405999534,472.3430405999534,472.3910334999673,472.3912551999092,472.4074293000158,472.4074293000158,472.4074293000158,472.4907048000023,,,,,474.1565324999392,,up,2.0197777999565005,None,space,1.7331766998395324,None,,,,,,,,,,,,P134,001,2025-03-26_12h54.28.233,posner_endo_new1,2024.2.4,60.067311424260566,2025-03-26 12h54.33.785696 +0000,
cube_l.png,0.1,10,catch,13,13,0,up,3.7883882999885827,None,None,,,,,,,0,13,13,13,,,,,474.1724366999697,,,,,,,,,,,,,474.15670339995995,474.1724366999697,474.1724366999697,474.1724366999697,477.9689878998324,,,,477.97503229998983,477.9866098999046,477.9866098999046,478.035036199959,478.03525569988415,478.0517539998982,478.0517539998982,478.0517539998982,478.11795419990085,480.1329848000314,481.06533059990034,481.06533059990034,481.06533059990034,481.0491511998698,,up,3.7883882999885827,None,None,,,,,,,,,,,,,,P134,001,2025-03-26_12h54.28.233,posner_endo_new1,2024.2.4,60.067311424260566,2025-03-26 12h54.33.785696 +0000,
cube_r.png,0.1,-0.31,invalid,14,14,0,up,3.2077551998663694,None,None,,,,,,,0,14,14,14,,,,,481.06533059990034,,,,,,,,,,,,,481.0493149999529,481.06533059990034,481.06533059990034,481.06533059990034,484.27925379993394,,,,484.2853246999439,484.29705649986863,484.29705649986863,484.3454147998709,484.34563830005936,484.36182809993625,484.36182809993625,484.36182809993625,484.42856219992973,486.4432683000341,487.3755440998357,487.3755440998357,487.3755440998357,487.35936710005626,,up,3.2077551998663694,None,None,,,,,,,,,,,,,,P134,001,2025-03-26_12h54.28.233,posner_endo_new1,2024.2.4,60.067311424260566,2025-03-26 12h54.33.785696 +0000,
cube_l.png,0.1,-0.31,valid,15,15,0,up,1.6496613998897374,None,None,,,,,,,0,15,15,15,,,,,487.3755440998357,,,,,,,,,,,,,487.3595275999978,487.3755440998357,487.3755440998357,487.3755440998357,489.0411562998779,,,,489.0474109998904,489.05904709990136,489.05904709990136,489.10716889984906,489.107393699931,489.1236072999891,489.1236072999891,489.1236072999891,489.19044209993444,491.20498479995877,492.1373091998976,492.1373091998976,492.1373091998976,492.1210870000068,,up,1.6496613998897374,None,None,,,,,,,,,,,,,,P134,001,2025-03-26_12h54.28.233,posner_endo_new1,2024.2.4,60.067311424260566,2025-03-26 12h54.33.785696 +0000,
cube_r.png,0.1,10,catch,16,16,0,up,2.655359100084752,None,None,,,,,,,0,16,16,16,,,,,492.1373091998976,,,,,,,,,,,,,492.12124520004727,492.1373091998976,492.1373091998976,492.1373091998976,494.80202479986474,,,,494.8083001000341,494.82013739994727,494.82013739994727,494.8680582998786,494.8682778000366,494.88448560005054,494.88448560005054,494.88448560005054,494.96770789986476,496.9822334998753,497.89804590004496,497.89804590004496,497.89804590004496,497.8819959999528,,up,2.655359100084752,None,None,,,,,,,,,,,,,,P134,001,2025-03-26_12h54.28.233,posner_endo_new1,2024.2.4,60.067311424260566,2025-03-26 12h54.33.785696 +0000,
cube_r.png,0.1,10,catch,17,17,0,up,2.2868227001745254,None,None,,,,,,,0,17,17,17,,,,,497.89804590004496,,,,,,,,,,,,,497.8821614999324,497.89804590004496,497.89804590004496,497.89804590004496,500.1963748000562,,,,500.2026770999655,500.2145771998912,500.2145771998912,500.26224919990636,500.2624720998574,500.27906650002114,500.27906650002114,500.27906650002114,500.34555649990216,502.3601092000026,503.29266559984535,503.29266559984535,503.29266559984535,503.2764445999637,,up,2.2868227001745254,None,None,,,,,,,,,,,,,,P134,001,2025-03-26_12h54.28.233,posner_endo_new1,2024.2.4,60.067311424260566,2025-03-26 12h54.33.785696 +0000,
cube_l.png,0.1,0.31,invalid,18,18,0,up,1.2528186000417918,None,None,,,,,,,0,18,18,18,,,,,503.29266559984535,,,,,,,,,,,,,503.276602699887,503.29266559984535,503.29266559984535,503.29266559984535,504.5586883998476,,,,504.56495409994386,504.5766408999916,504.5766408999916,504.6248363999184,504.6250581999775,504.6410995000042,504.6410995000042,504.6410995000042,504.7078690000344,506.72253039991483,507.65480719995685,507.65480719995685,507.65480719995685,507.6386275999248,,up,1.2528186000417918,None,None,,,,,,,,,,,,,,P134,001,2025-03-26_12h54.28.233,posner_endo_new1,2024.2.4,60.067311424260566,2025-03-26 12h54.33.785696 +0000,
cube_l.png,0.1,10,catch,19,19,0,up,3.850505899870768,None,None,,,,,,,0,19,19,19,,,,,507.65480719995685,,,,,,,,,,,,,507.63878639996983,507.65480719995685,507.65480719995685,507.65480719995685,511.51813809992746,,,,511.52442030003294,511.53599160001613,511.53599160001613,511.58424140000716,511.58446519984864,511.6008025999181,511.6008025999181,511.6008025999181,511.6671879000496,513.6819437998347,514.6139443998691,514.6139443998691,514.6139443998691,514.5985012999736,,up,3.850505899870768,None,None,,,,,,,,,,,,,,P134,001,2025-03-26_12h54.28.233,posner_endo_new1,2024.2.4,60.067311424260566,2025-03-26 12h54.33.785696 +0000,
cube_l.png,0.1,0.31,invalid,20,20,0,up,4.37891330011189,None,None,,,,,,,0,20,20,20,,,,,514.6139443998691,,,,,,,,,,,,,514.5986589998938,514.6139443998691,514.6139443998691,514.6139443998691,518.9939315000083,,,,519.0009395000525,519.01261659991,519.01261659991,519.0596398999915,519.0600769999437,519.0760361999273,519.0760361999273,519.0760361999273,519.1593196999747,521.1742203999311,522.0899695998523,522.0899695998523,522.0899695998523,522.0740674999543,,up,4.37891330011189,None,None,,,,,,,,,,,,,,P134,001,2025-03-26_12h54.28.233,posner_endo_new1,2024.2.4,60.067311424260566,2025-03-26 12h54.33.785696 +0000,
cube_l.png,0.1,-0.31,valid,21,21,0,up,3.03919930011034,None,None,,,,,,,0,21,21,21,,,,,522.0899695998523,,,,,,,,,,,,,522.0743100999389,522.0899695998523,522.0899695998523,522.0899695998523,525.1378571998794,,,,525.1488723999355,525.1589858999941,525.1589858999941,525.203651299933,525.2039514000062,525.2200690000318,525.2200690000318,525.2200690000318,525.3032792999875,527.3179552999791,528.2336140999105,528.2336140999105,528.2336140999105,528.2176113000605,,up,3.03919930011034,None,None,,,,,,,,,,,,,,P134,001,2025-03-26_12h54.28.233,posner_endo_new1,2024.2.4,60.067311424260566,2025-03-26 12h54.33.785696 +0000,
cube_r.png,0.1,0.31,valid,22,22,0,up,3.264735700096935,None,None,,,,,,,0,22,22,22,,,,,528.2336140999105,,,,,,,,,,,,,528.2178481998853,528.2336140999105,528.2336140999105,528.2336140999105,531.5147573999129,,,,531.5239711999893,531.5332726000343,531.5332726000343,531.5802595999558,531.5804820999037,531.5974536999129,531.5974536999129,531.5974536999129,531.6803559998516,533.6948062998708,534.6105557999108,534.6105557999108,534.6105557999108,534.5942585999146,,up,3.264735700096935,None,None,,,,,,,,,,,,,,P134,001,2025-03-26_12h54.28.233,posner_endo_new1,2024.2.4,60.067311424260566,2025-03-26 12h54.33.785696 +0000,
cube_r.png,0.1,-0.31,invalid,23,23,0,up,3.9025483999866992,None,None,,,,,,,0,23,23,23,,,,,534.6105557999108,,,,,,,,,,,,,534.5944182998501,534.6105557999108,534.6105557999108,534.6105557999108,538.523837500019,,,,538.5306172999553,538.5422970999498,538.5422970999498,538.5900305998512,538.5902635999955,538.6062612999231,538.6062612999231,538.6062612999231,538.6730191998649,540.6876238998957,541.6200206999201,541.6200206999201,541.6200206999201,541.6038716998883,,up,3.9025483999866992,None,None,,,,,,,,,,,,,,P134,001,2025-03-26_12h54.28.233,posner_endo_new1,2024.2.4,60.067311424260566,2025-03-26 12h54.33.785696 +0000,
cube_r.png,0.1,0.31,valid,24,24,0,up,3.9009838001802564,None,None,,,,,,,0,24,24,24,,,,,541.6200206999201,,,,,,,,,,,,,541.6040298000444,541.6200206999201,541.6200206999201,541.6200206999201,545.5334284999408,,,,545.5397574000526,545.551514599938,545.551514599938,545.5995247999672,545.5997454999015,545.6159695999231,545.6159695999231,545.6159695999231,545.6825202000327,547.697091500042,548.629418999888,548.629418999888,548.629418999888,548.6133812000044,,up,3.9009838001802564,None,None,,,,,,,,,,,,,,P134,001,2025-03-26_12h54.28.233,posner_endo_new1,2024.2.4,60.067311424260566,2025-03-26 12h54.33.785696 +0000,
cube_r.png,0.1,-0.31,invalid,25,25,0,up,3.3473391998559237,None,None,,,,,,,0,25,25,25,,,,,548.629418999888,,,,,,,,,,,,,548.6135410999414,548.629418999888,548.629418999888,548.629418999888,551.9935200000182,,,,552.0011252998374,552.0123141000513,552.0123141000513,552.0595104999375,552.0597322999965,552.0759068999905,552.0759068999905,552.0759068999905,552.1592740998603,554.1737484000623,555.0894803998526,555.0894803998526,555.0894803998526,555.0732630998828,,up,3.3473391998559237,None,None,,,,,,,,,,,,,,P134,001,2025-03-26_12h54.28.233,posner_endo_new1,2024.2.4,60.067311424260566,2025-03-26 12h54.33.785696 +0000,
cube_l.png,0.1,-0.31,valid,26,26,0,up,4.919328100048006,None,None,,,,,,,0,26,26,26,,,,,555.0894803998526,,,,,,,,,,,,,555.0734236000571,555.0894803998526,555.0894803998526,555.0894803998526,560.0185616998933,,,,560.0250211998355,560.036838100059,560.036838100059,560.0843994999304,560.084630300058,560.1013305999804,560.1013305999804,560.1013305999804,560.167737999931,562.1823586998507,563.1147300999146,563.1147300999146,563.1147300999146,563.0989993999247,,up,4.919328100048006,None,None,,,,,,,,,,,,,,P134,001,2025-03-26_12h54.28.233,posner_endo_new1,2024.2.4,60.067311424260566,2025-03-26 12h54.33.785696 +0000,
cube_r.png,0.1,0.31,valid,27,27,0,up,4.575016900198534,None,None,,,,,,,0,27,27,27,,,,,563.1147300999146,,,,,,,,,,,,,563.0991610998753,563.1147300999146,563.1147300999146,563.1147300999146,567.6940164999105,,,,567.7002783999778,567.7121723999735,567.7121723999735,567.7599996998906,567.7602222999558,567.7766460999846,567.7766460999846,567.7766460999846,567.8430897998624,569.8578162998892,570.7901413999498,570.7901413999498,570.7901413999498,570.7740521999076,,up,4.575016900198534,None,None,,,,,,,,,,,,,,P134,001,2025-03-26_12h54.28.233,posner_endo_new1,2024.2.4,60.067311424260566,2025-03-26 12h54.33.785696 +0000,
cube_r.png,0.1,10,catch,28,28,0,up,5.019344500033185,None,None,,,,,,,0,28,28,28,,,,,570.7901413999498,,,,,,,,,,,,,570.77421149984,570.7901413999498,570.7901413999498,570.7901413999498,575.8191368000116,,,,575.8257223998662,575.8375494000502,575.8375494000502,575.8851850999054,575.8854218998458,575.9016024000011,575.9016024000011,575.9016024000011,575.9848805998918,577.9995834999718,578.9153062000405,578.9153062000405,578.9153062000405,578.8990124999546,,up,5.019344500033185,None,None,,,,,,,,,,,,,,P134,001,2025-03-26_12h54.28.233,posner_endo_new1,2024.2.4,60.067311424260566,2025-03-26 12h54.33.785696 +0000,
cube_r.png,0.1,0.31,valid,29,29,0,up,2.3911953000351787,None,None,,,,,,,0,29,29,29,,,,,578.9153062000405,,,,,,,,,,,,,578.8991719998885,578.9153062000405,578.9153062000405,578.9153062000405,581.313402300002,,,,581.3197915998753,581.3315628999844,581.3315628999844,581.379423599923,581.3796435999684,581.3960122000426,581.3960122000426,581.3960122000426,581.4625353000592,583.4772679999005,584.40960610006,584.40960610006,584.40960610006,584.3933671999257,,up,2.3911953000351787,None,None,,,,,,,,,,,,,,P134,001,2025-03-26_12h54.28.233,posner_endo_new1,2024.2.4,60.067311424260566,2025-03-26 12h54.33.785696 +0000,
cube_r.png,0.1,0.31,valid,30,30,0,up,20.943456100067124,None,None,,,,,,,0,30,30,30,,,,,584.40960610006,,,,,,,,,,,,,584.3935244998429,584.40960610006,584.40960610006,584.40960610006,605.3556587998755,,,,605.3626210000366,605.3745978998486,605.3745978998486,605.4210818998981,605.4213115000166,605.4380745999515,605.4380745999515,605.4380745999515,605.5213577998802,607.5357520999387,608.4515098000411,608.4515098000411,608.4515098000411,608.4354498998728,,up,20.943456100067124,None,None,,,,,,,,,,,,,,P134,001,2025-03-26_12h54.28.233,posner_endo_new1,2024.2.4,60.067311424260566,2025-03-26 12h54.33.785696 +0000,
cube_l.png,0.1,-0.31,valid,31,31,0,up,3.1574919999111444,None,None,,,,,,,0,31,31,31,,,,,608.4515098000411,,,,,,,,,,,,,608.4356096999254,608.4515098000411,608.4515098000411,608.4515098000411,611.6157207000069,,,,611.6224666999187,611.6342066000216,611.6342066000216,611.6818655000534,611.6820894998964,611.6982457998674,611.6982457998674,611.6982457998674,611.7649976999965,613.77933319984,614.7118323999457,614.7118323999457,614.7118323999457,614.6958604999818,,up,3.1574919999111444,None,None,,,,,,,,,,,,,,P134,001,2025-03-26_12h54.28.233,posner_endo_new1,2024.2.4,60.067311424260566,2025-03-26 12h54.33.785696 +0000,
cube_r.png,0.1,0.31,valid,32,32,0,up,5.089514299994335,None,None,,,,,,,0,32,32,32,,,,,614.7118323999457,,,,,,,,,,,,,614.6960207999218,614.7118323999457,614.7118323999457,614.7118323999457,619.807500399882,,,,619.814106100006,619.825773099903,619.825773099903,619.8733147999737,619.8735425998457,619.889946699841,619.889946699841,619.889946699841,619.9731501999777,621.9878197000362,622.9035533999559,622.9035533999559,622.9035533999559,622.8872932998929,,up,5.089514299994335,None,None,,,,,,,,,,,,,,P134,001,2025-03-26_12h54.28.233,posner_endo_new1,2024.2.4,60.067311424260566,2025-03-26 12h54.33.785696 +0000,
cube_r.png,0.1,-0.31,invalid,33,33,0,up,3.369084600126371,None,None,,,,,,,0,33,33,33,,,,,622.9035533999559,,,,,,,,,,,,,622.8874534999486,622.9035533999559,622.9035533999559,622.9035533999559,626.2842401999515,,,,626.2905311998911,626.3022983998526,626.3022983998526,626.3500711000524,626.3502923999913,626.3666445000563,626.3666445000563,626.3666445000563,626.4331061998382,628.4477428998798,629.3802022000309,629.3802022000309,629.3802022000309,629.3641162000131,,up,3.369084600126371,None,None,,,,,,,,,,,,,,P134,001,2025-03-26_12h54.28.233,posner_endo_new1,2024.2.4,60.067311424260566,2025-03-26 12h54.33.785696 +0000,
cube_r.png,0.1,10,catch,34,34,0,up,2.9410025000106543,None,None,,,,,,,0,34,34,34,,,,,629.3802022000309,,,,,,,,,,,,,629.3642845998984,629.3802022000309,629.3802022000309,629.3802022000309,632.3280245000497,,,,632.3343789000064,632.3461257999297,632.3461257999297,632.3939710999839,632.3941941000521,632.4105087998323,632.4105087998323,632.4105087998323,632.4770321999677,634.4915430999827,635.4238622998819,635.4238622998819,635.4238622998819,635.4077554000542,,up,2.9410025000106543,None,None,,,,,,,,,,,,,,P134,001,2025-03-26_12h54.28.233,posner_endo_new1,2024.2.4,60.067311424260566,2025-03-26 12h54.33.785696 +0000,
cube_r.png,0.1,0.31,valid,35,35,0,up,4.137466500047594,None,None,,,,,,,0,35,35,35,,,,,635.4238622998819,,,,,,,,,,,,,635.4079181998968,635.4238622998819,635.4238622998819,635.4238622998819,639.5705166999251,,,,639.5769000998698,639.588589400053,639.588589400053,639.6364213000052,639.6366448998451,639.6529893998522,639.6529893998522,639.6529893998522,639.7195804000366,641.7341564998496,642.6665221999865,642.6665221999865,642.6665221999865,642.6504228999838,,up,4.137466500047594,None,None,,,,,,,,,,,,,,P134,001,2025-03-26_12h54.28.233,posner_endo_new1,2024.2.4,60.067311424260566,2025-03-26 12h54.33.785696 +0000,
cube_r.png,0.1,-0.31,invalid,36,36,0,up,2.782742900075391,None,None,,,,,,,0,36,36,36,,,,,642.6665221999865,,,,,,,,,,,,,642.6505809000228,642.6665221999865,642.6665221999865,642.6665221999865,645.4644971999805,,,,645.4713806998916,645.4832754998934,645.4832754998934,645.5304506998509,645.5306762000546,645.5468887998722,645.5468887998722,645.5468887998722,645.6137755999807,647.6281856999267,648.5606579000596,648.5606579000596,648.5606579000596,648.5443219000008,,up,2.782742900075391,None,None,,,,,,,,,,,,,,P134,001,2025-03-26_12h54.28.233,posner_endo_new1,2024.2.4,60.067311424260566,2025-03-26 12h54.33.785696 +0000,
cube_l.png,0.1,0.31,invalid,37,37,0,up,3.440379499923438,None,None,,,,,,,0,37,37,37,,,,,648.5606579000596,,,,,,,,,,,,,648.5444855999667,648.5606579000596,648.5606579000596,648.5606579000596,652.0078658000566,,,,652.0148620000109,652.0269859000109,652.0269859000109,652.0736217999365,652.073851400055,652.0903959998395,652.0903959998395,652.0903959998395,652.1569083000068,654.1714617998805,655.1039080999326,655.1039080999326,655.1039080999326,655.0876815000083,,up,3.440379499923438,None,None,,,,,,,,,,,,,,P134,001,2025-03-26_12h54.28.233,posner_endo_new1,2024.2.4,60.067311424260566,2025-03-26 12h54.33.785696 +0000,
cube_l.png,0.1,0.31,invalid,38,38,0,up,2.2252556001767516,None,None,,,,,,,0,38,38,38,,,,,655.1039080999326,,,,,,,,,,,,,655.0878401000518,655.1039080999326,655.1039080999326,655.1039080999326,657.335758500034,,,,657.3421894998755,657.353766300017,657.353766300017,657.4016370999161,657.4018571998458,657.418142999988,657.418142999988,657.418142999988,657.4848533000331,659.4993667998351,660.4315899000503,660.4315899000503,660.4315899000503,660.4154831999913,,up,2.2252556001767516,None,None,,,,,,,,,,,,,,P134,001,2025-03-26_12h54.28.233,posner_endo_new1,2024.2.4,60.067311424260566,2025-03-26 12h54.33.785696 +0000,
cube_r.png,0.1,0.31,valid,39,39,0,up,2.5536052000243217,None,None,,,,,,,0,39,39,39,,,,,660.4315899000503,,,,,,,,,,,,,660.4156499998644,660.4315899000503,660.4315899000503,660.4315899000503,662.9966084000189,,,,663.0038637998514,663.0155165998731,663.0155165998731,663.0624209998641,663.0626449000556,663.0789075000212,663.0789075000212,663.0789075000212,663.1455911998637,665.1602143000346,666.0925692999735,666.0925692999735,666.0925692999735,666.0765712999273,,up,2.5536052000243217,None,None,,,,,,,,,,,,,,P134,001,2025-03-26_12h54.28.233,posner_endo_new1,2024.2.4,60.067311424260566,2025-03-26 12h54.33.785696 +0000,
cube_l.png,0.1,0.31,invalid,40,40,0,up,2.6042665999848396,None,None,,,,,,,0,40,40,40,,,,,666.0925692999735,,,,,,,,,,,,,666.0767337998841,666.0925692999735,666.0925692999735,666.0925692999735,668.7074088000227,,,,668.7148704999126,668.7264650999568,668.7264650999568,668.7734051998705,668.7736265000422,668.7899793998804,668.7899793998804,668.7899793998804,668.8563675999176,670.8711669000331,671.8035388998687,671.8035388998687,671.8035388998687,671.7873058000114,,up,2.6042665999848396,None,None,,,,,,,,,,,,,,P134,001,2025-03-26_12h54.28.233,posner_endo_new1,2024.2.4,60.067311424260566,2025-03-26 12h54.33.785696 +0000,
cube_l.png,0.1,10,catch,41,41,0,up,0.9572178998496383,None,None,,,,,,,0,41,41,41,,,,,671.8035388998687,,,,,,,,,,,,,671.787472799886,671.8035388998687,671.8035388998687,671.8035388998687,672.7698834999464,,,,672.7761378998403,672.7878769000527,672.7878769000527,672.8358109998517,672.8360345999245,672.8524698000401,672.8524698000401,672.8524698000401,672.935483600013,674.9501910998952,675.8658781999256,675.8658781999256,675.8658781999256,675.8496803999878,,up,0.9572178998496383,None,None,,,,,,,,,,,,,,P134,001,2025-03-26_12h54.28.233,posner_endo_new1,2024.2.4,60.067311424260566,2025-03-26 12h54.33.785696 +0000,
cube_l.png,0.1,-0.31,valid,42,42,0,up,1.6628683002199978,None,None,,,,,,,0,42,42,42,,,,,675.8658781999256,,,,,,,,,,,,,675.8498402999248,675.8658781999256,675.8658781999256,675.8658781999256,677.5315252998844,,,,677.537805999862,677.5495001999661,677.5495001999661,677.5979531998746,677.5981751000509,677.6142599000596,677.6142599000596,677.6142599000596,677.680874499958,679.6954371000174,680.6278125999961,680.6278125999961,680.6278125999961,680.6117525999434,,up,1.6628683002199978,None,None,,,,,,,,,,,,,,P134,001,2025-03-26_12h54.28.233,posner_endo_new1,2024.2.4,60.067311424260566,2025-03-26 12h54.33.785696 +0000,
cube_l.png,0.1,10,catch,43,43,0,up,1.461272899992764,None,None,,,,,,,0,43,43,43,,,,,680.6278125999961,,,,,,,,,,,,,680.6119093999732,680.6278125999961,680.6278125999961,680.6278125999961,682.0933534000069,,,,682.0998802999966,682.1115390998311,682.1115390998311,682.1595189999789,682.1597410000395,682.1761820998508,682.1761820998508,682.1761820998508,682.2428100998513,684.2573683999944,685.1897352000233,685.1897352000233,685.1897352000233,685.1736184998881,,up,1.461272899992764,None,None,,,,,,,,,,,,,,P134,001,2025-03-26_12h54.28.233,posner_endo_new1,2024.2.4,60.067311424260566,2025-03-26 12h54.33.785696 +0000,
cube_l.png,0.1,0.31,invalid,44,44,0,up,1.2996060999576002,None,None,,,,,,,0,44,44,44,,,,,685.1897352000233,,,,,,,,,,,,,685.1737788999453,685.1897352000233,685.1897352000233,685.1897352000233,686.5062088998966,,,,686.5216325998772,686.5317557998933,686.5317557998933,686.5717497998849,686.5720414000098,686.5881898000371,686.5881898000371,686.5881898000371,686.6715235998854,688.6861272999085,689.6020333999768,689.6020333999768,689.6020333999768,689.5856703999452,,up,1.2996060999576002,None,None,,,,,,,,,,,,,,P134,001,2025-03-26_12h54.28.233,posner_endo_new1,2024.2.4,60.067311424260566,2025-03-26 12h54.33.785696 +0000,
cube_l.png,0.1,0.31,invalid,45,45,0,up,0.8866511001251638,None,None,,,,,,,0,45,45,45,,,,,689.6020333999768,,,,,,,,,,,,,689.5858850998338,689.6020333999768,689.6020333999768,689.6020333999768,690.5018835999072,,,,690.5113031999208,690.521381800063,690.521381800063,690.5676984998863,690.5679800999351,690.5842261000071,690.5842261000071,690.5842261000071,690.6674555998761,692.6820606000256,693.5981002000626,693.5981002000626,693.5981002000626,693.581603899831,,up,0.8866511001251638,None,None,,,,,,,,,,,,,,P134,001,2025-03-26_12h54.28.233,posner_endo_new1,2024.2.4,60.067311424260566,2025-03-26 12h54.33.785696 +0000,
cube_r.png,0.1,0.31,valid,46,46,0,up,1.5710815999191254,None,None,,,,,,,0,46,46,46,,,,,693.5981002000626,,,,,,,,,,,,,693.5818250000011,693.5981002000626,693.5981002000626,693.5981002000626,695.1804994000122,,,,695.1909759999253,695.201249799924,695.201249799924,695.2462907000445,695.2465935999062,695.2628068998456,695.2628068998456,695.2628068998456,695.345967900008,697.3605742000509,698.2762143998407,698.2762143998407,698.2762143998407,698.2602820999455,,up,1.5710815999191254,None,None,,,,,,,,,,,,,,P134,001,2025-03-26_12h54.28.233,posner_endo_new1,2024.2.4,60.067311424260566,2025-03-26 12h54.33.785696 +0000,
cube_l.png,0.1,-0.31,valid,47,47,0,up,0.701257900102064,None,None,,,,,,,0,47,47,47,,,,,698.2762143998407,,,,,,,,,,,,,698.2605130998418,698.2762143998407,698.2762143998407,698.2762143998407,698.9933297999669,,,,699.0042395000346,699.0143649999518,699.0143649999518,699.0589918999467,699.0592968000565,699.0754927999806,699.0754927999806,699.0754927999806,699.1586930998601,701.1734219000209,702.089019499952,702.089019499952,702.089019499952,702.0731420998927,,up,0.701257900102064,None,None,,,,,,,,,,,,,,P134,001,2025-03-26_12h54.28.233,posner_endo_new1,2024.2.4,60.067311424260566,2025-03-26 12h54.33.785696 +0000,
cube_r.png,0.1,-0.31,invalid,48,48,0,up,1.3442818000912666,None,None,,,,,,,0,48,48,48,,,,,702.089019499952,,,,,,,,,,,,,702.0733826998621,702.089019499952,702.089019499952,702.089019499952,703.4388750998769,,,,703.4501791000366,703.4602854000404,703.4602854000404,703.5043760000262,703.5046784998849,703.5209853998385,703.5209853998385,703.5209853998385,703.6041015998926,705.6188018999528,706.5345413999166,706.5345413999166,706.5345413999166,706.5184871000238,,up,1.3442818000912666,None,None,,,,,,,,,,,,,,P134,001,2025-03-26_12h54.28.233,posner_endo_new1,2024.2.4,60.067311424260566,2025-03-26 12h54.33.785696 +0000,
cube_r.png,0.1,10,catch,49,49,0,up,2.2110054998192936,None,None,,,,,,,0,49,49,49,,,,,706.5345413999166,,,,,,,,,,,,,706.5187144000083,706.5345413999166,706.5345413999166,706.5345413999166,708.7501512998715,,,,708.7608097998891,708.7708594999276,708.7708594999276,708.8156628999859,708.8159664999694,708.8322260999121,708.8322260999121,708.8322260999121,708.9154159000609,710.9300873999018,711.8458457000088,711.8458457000088,711.8458457000088,711.8298384998925,,up,2.2110054998192936,None,None,,,,,,,,,,,,,,P134,001,2025-03-26_12h54.28.233,posner_endo_new1,2024.2.4,60.067311424260566,2025-03-26 12h54.33.785696 +0000,
cube_l.png,0.1,-0.31,valid,50,50,0,up,2.3235222999937832,None,None,,,,,,,0,50,50,50,,,,,711.8458457000088,,,,,,,,,,,,,711.8300669000018,711.8458457000088,711.8458457000088,711.8458457000088,714.1777867998462,,,,714.1887993998826,714.1990004000254,714.1990004000254,714.2434340000618,714.2437378000468,714.2599994998891,714.2599994998891,714.2599994998891,714.3432914000005,716.3578498999123,717.2735671000555,717.2735671000555,717.2735671000555,717.2577104999218,,up,2.3235222999937832,None,None,,,,,,,,,,,,,,P134,001,2025-03-26_12h54.28.233,posner_endo_new1,2024.2.4,60.067311424260566,2025-03-26 12h54.33.785696 +0000,
cube_l.png,0.1,-0.31,valid,51,51,0,up,1.7275977998506278,None,None,,,,,,,0,51,51,51,,,,,717.2735671000555,,,,,,,,,,,,,717.257944499841,717.2735671000555,717.2735671000555,717.2735671000555,719.0059795000125,,,,719.0163125998806,719.0264159999788,719.0264159999788,719.0718832998537,719.0721998000517,719.0884487000294,719.0884487000294,719.0884487000294,719.1549314998556,721.169714699965,722.1022454998456,722.1022454998456,722.1022454998456,722.0859063998796,,up,1.7275977998506278,None,None,,,,,,,,,,,,,,P134,001,2025-03-26_12h54.28.233,posner_endo_new1,2024.2.4,60.067311424260566,2025-03-26 12h54.33.785696 +0000,
cube_r.png,0.1,-0.31,invalid,52,52,0,up,2.362937099998817,None,None,,,,,,,0,52,52,52,,,,,722.1022454998456,,,,,,,,,,,,,722.0860705999658,722.1022454998456,722.1022454998456,722.1022454998456,724.4670487998519,,,,724.4733789998572,724.4851950998418,724.4851950998418,724.5329324000049,724.5331530000549,724.5490659999195,724.5490659999195,724.5490659999195,724.6160565000027,726.630560599966,727.5630985000171,727.5630985000171,727.5630985000171,727.5469645999838,,up,2.362937099998817,None,None,,,,,,,,,,,,,,P134,001,2025-03-26_12h54.28.233,posner_endo_new1,2024.2.4,60.067311424260566,2025-03-26 12h54.33.785696 +0000,
cube_l.png,0.1,-0.31,valid,53,53,0,up,2.5265239998698235,None,None,,,,,,,0,53,53,53,,,,,727.5630985000171,,,,,,,,,,,,,727.5471216000151,727.5630985000171,727.5630985000171,727.5630985000171,730.0945429999847,,,,730.1010210998356,730.112746699946,730.112746699946,730.1605275999755,730.1607524999417,730.1769316999707,730.1769316999707,730.1769316999707,730.2436702998821,732.2582872998901,733.1906093999278,733.1906093999278,733.1906093999278,733.1744446000084,,up,2.5265239998698235,None,None,,,,,,,,,,,,,,P134,001,2025-03-26_12h54.28.233,posner_endo_new1,2024.2.4,60.067311424260566,2025-03-26 12h54.33.785696 +0000,
cube_r.png,0.1,10,catch,54,54,0,up,1.5146212000399828,None,None,,,,,,,0,54,54,54,,,,,733.1906093999278,,,,,,,,,,,,,733.1746175999288,733.1906093999278,733.1906093999278,733.1906093999278,734.7066416000016,,,,734.7133466999512,734.7251029999461,734.7251029999461,734.7724021999165,734.772623399971,734.7890643000137,734.7890643000137,734.7890643000137,734.8721294000279,736.8869534998666,737.8026201999746,737.8026201999746,737.8026201999746,737.7864112998359,,up,1.5146212000399828,None,None,,,,,,,,,,,,,,P134,001,2025-03-26_12h54.28.233,posner_endo_new1,2024.2.4,60.067311424260566,2025-03-26 12h54.33.785696 +0000,
cube_l.png,0.1,0.31,invalid,55,55,0,up,1.6622109001036733,None,None,,,,,,,0,55,55,55,,,,,737.8026201999746,,,,,,,,,,,,,737.786568999989,737.8026201999746,737.8026201999746,737.8026201999746,739.4684504999314,,,,739.4757894999348,739.4869625000283,739.4869625000283,739.5343058998697,739.534525899915,739.5508921998553,739.5508921998553,739.5508921998553,739.6175265999045,741.6316124000587,742.5643127998337,742.5643127998337,742.5643127998337,742.5483373999596,,up,1.6622109001036733,None,None,,,,,,,,,,,,,,P134,001,2025-03-26_12h54.28.233,posner_endo_new1,2024.2.4,60.067311424260566,2025-03-26 12h54.33.785696 +0000,
cube_l.png,0.1,-0.31,valid,56,56,0,up,1.6447509999852628,None,None,,,,,,,0,56,56,56,,,,,742.5643127998337,,,,,,,,,,,,,742.5485705998726,742.5643127998337,742.5643127998337,742.5643127998337,744.2136917999014,,,,744.2232015000191,744.2329386000056,744.2329386000056,744.2792435998563,744.2794726998545,744.2959447000176,744.2959447000176,744.2959447000176,744.3790827000048,746.3937707999721,747.3094168999232,747.3094168999232,747.3094168999232,747.2933672999498,,up,1.6447509999852628,None,None,,,,,,,,,,,,,,P134,001,2025-03-26_12h54.28.233,posner_endo_new1,2024.2.4,60.067311424260566,2025-03-26 12h54.33.785696 +0000,
cube_r.png,0.1,0.31,valid,57,57,0,up,1.2595276001375169,None,None,,,,,,,0,57,57,57,,,,,747.3094168999232,,,,,,,,,,,,,747.2935275998898,747.3094168999232,747.3094168999232,747.3094168999232,748.5756945998874,,,,748.5824587999377,748.5943893999793,748.5943893999793,748.641528399894,748.6420262998436,748.6579740999732,748.6579740999732,748.6579740999732,748.7412052999716,750.7559211000334,751.6716716999654,751.6716716999654,751.6716716999654,751.6557332999073,,up,1.2595276001375169,None,None,,,,,,,,,,,,,,P134,001,2025-03-26_12h54.28.233,posner_endo_new1,2024.2.4,60.067311424260566,2025-03-26 12h54.33.785696 +0000,
cube_r.png,0.1,-0.31,invalid,58,58,0,up,1.8090301000047475,None,None,,,,,,,0,58,58,58,,,,,751.6716716999654,,,,,,,,,,,,,751.6560058000032,751.6716716999654,751.6716716999654,751.6716716999654,753.4875788998324,,,,753.4999178999569,753.5102490000427,753.5102490000427,753.5532167998608,753.5535641000606,753.5698050998617,753.5698050998617,753.5698050998617,753.6530387999956,755.667684199987,756.5833315998316,756.5833315998316,756.5833315998316,756.5673016000073,,up,1.8090301000047475,None,None,,,,,,,,,,,,,,P134,001,2025-03-26_12h54.28.233,posner_endo_new1,2024.2.4,60.067311424260566,2025-03-26 12h54.33.785696 +0000,
cube_l.png,0.1,0.31,invalid,59,59,0,up,2.329528799979016,None,None,,,,,,,0,59,59,59,,,,,756.5833315998316,,,,,,,,,,,,,756.5675621000119,756.5833315998316,756.5833315998316,756.5833315998316,758.9156086000148,,,,758.9253483000211,758.9351556999609,758.9351556999609,758.9810941000469,758.9813465999905,758.9975101999007,758.9975101999007,758.9975101999007,759.0807345998473,761.0954877999611,762.0110789998434,762.0110789998434,762.0110789998434,761.9949715000112,,up,2.329528799979016,None,None,,,,,,,,,,,,,,P134,001,2025-03-26_12h54.28.233,posner_endo_new1,2024.2.4,60.067311424260566,2025-03-26 12h54.33.785696 +0000,
,,,,,,,,,,,,,,,,,,,,,,,,,,,,,,,,,,,,,,,,,,,,,,,,,,,,,,,,,,,,,,,,,,,761.9950766998809,762.0110789998434,762.0110789998434,819.8361608998384,space,57.81340320012532,None,,,,,P134,001,2025-03-26_12h54.28.233,posner_endo_new1,2024.2.4,60.067311424260566,2025-03-26 12h54.33.785696 +0000,
,,,,,,,,,,,,,,,,,,,,,,,,,,,,,,,,,,819.8362167000305,819.8517246998381,822.9171666000038,822.8326930999756,,,,,,,,,,,,,,,,,,,,,,,,,,,,,,,,,,,,,,,,,P134,001,2025-03-26_12h54.28.233,posner_endo_new1,2024.2.4,60.067311424260566,2025-03-26 12h54.33.785696 +0000,
cube_l.png,0.1,10,catch,0,0,0,down,10.476557799847797,None,None,,,,,,,,,,,0,0,0,0,822.9171666000038,,,,,,,,,,,,,822.9090326998848,822.9171666000038,822.9171666000038,822.9171666000038,833.405599599937,,,,833.4134577000514,833.424592499854,833.424592499854,833.4714760999195,833.4717162000015,833.4880279998761,833.4880279998761,833.4880279998761,833.5545735999476,835.5692392999772,836.501624800032,836.501624800032,836.501624800032,836.4856682999525,,,,,,,,,,,,,,,down,10.476557799847797,None,None,P134,001,2025-03-26_12h54.28.233,posner_endo_new1,2024.2.4,60.067311424260566,2025-03-26 12h54.33.785696 +0000,
cube_l.png,0.1,10,catch,1,1,0,down,2.6112995001021773,None,None,,,,,,,,,,,0,1,1,1,836.501624800032,,,,,,,,,,,,,836.4858366998378,836.501624800032,836.501624800032,836.501624800032,839.1165785000194,,,,839.1238881000318,839.1353507000022,839.1353507000022,839.1822132999077,839.1824360999744,839.1989231999032,839.1989231999032,839.1989231999032,839.2820977999363,841.2967228998896,842.2122792999726,842.2122792999726,842.2122792999726,842.1963765998371,,,,,,,,,,,,,,,down,2.6112995001021773,None,None,P134,001,2025-03-26_12h54.28.233,posner_endo_new1,2024.2.4,60.067311424260566,2025-03-26 12h54.33.785696 +0000,
cube_l.png,0.1,0.31,invalid,2,2,0,down,5.0459603001363575,None,None,,,,,,,,,,,0,2,2,2,842.2122792999726,,,,,,,,,,,,,842.1965367000084,842.2122792999726,842.2122792999726,842.2122792999726,847.2746011000127,,,,847.2819572000299,847.2933374999557,847.2933374999557,847.3406762999948,847.3408969000448,847.3571384998504,847.3571384998504,847.3571384998504,847.423761999933,849.4382782999892,850.370827900013,850.370827900013,850.370827900013,850.3547377998475,,,,,,,,,,,,,,,down,5.0459603001363575,None,None,P134,001,2025-03-26_12h54.28.233,posner_endo_new1,2024.2.4,60.067311424260566,2025-03-26 12h54.33.785696 +0000,
cube_l.png,0.1,0.31,invalid,3,3,0,down,2.3822238999418914,None,None,,,,,,,,,,,0,3,3,3,850.370827900013,,,,,,,,,,,,,850.3550084000453,850.370827900013,850.370827900013,850.370827900013,852.7695003999397,,,,852.7813019999303,852.7912339998875,852.7912339998875,852.8350215998944,852.8353671999648,852.8514447999187,852.8514447999187,852.8514447999187,852.9347528000362,854.9494018999394,855.8651825999841,855.8651825999841,855.8651825999841,855.8490643999539,,,,,,,,,,,,,,,down,2.3822238999418914,None,None,P134,001,2025-03-26_12h54.28.233,posner_endo_new1,2024.2.4,60.067311424260566,2025-03-26 12h54.33.785696 +0000,
cube_l.png,0.1,-0.31,valid,4,4,0,down,2.00861610006541,None,None,,,,,,,,,,,0,4,4,4,855.8651825999841,,,,,,,,,,,,,855.8493319998961,855.8651825999841,855.8651825999841,855.8651825999841,857.8808522999752,,,,857.8928381998558,857.9030589999165,857.9030589999165,857.946397599997,857.9467465998605,857.9630386000499,857.9630386000499,857.9630386000499,858.0462137998547,860.0607272998895,860.9765254999511,860.9765254999511,860.9765254999511,860.9606240999419,,,,,,,,,,,,,,,down,2.00861610006541,None,None,P134,001,2025-03-26_12h54.28.233,posner_endo_new1,2024.2.4,60.067311424260566,2025-03-26 12h54.33.785696 +0000,
cube_r.png,0.1,-0.31,invalid,5,5,0,down,1.4803918001707643,None,None,,,,,,,,,,,0,5,5,5,860.9765254999511,,,,,,,,,,,,,860.9608948000241,860.9765254999511,860.9765254999511,860.9765254999511,862.4596891000401,,,,862.4721601998899,862.4824095000513,862.4824095000513,862.5251261000521,862.5254687999841,862.5415246000048,862.5415246000048,862.5415246000048,862.6248202999122,864.6395143000409,865.5550647999626,865.5550647999626,865.5550647999626,865.5391524999868,,,,,,,,,,,,,,,down,1.4803918001707643,None,None,P134,001,2025-03-26_12h54.28.233,posner_endo_new1,2024.2.4,60.067311424260566,2025-03-26 12h54.33.785696 +0000,
cube_r.png,0.1,0.31,valid,6,6,0,down,1.143156399950385,None,None,,,,,,,,,,,0,6,6,6,865.5550647999626,,,,,,,,,,,,,865.5393133999314,865.5550647999626,865.5550647999626,865.5550647999626,866.7049026999157,,,,866.7115968998987,866.7234477999154,866.7234477999154,866.7706974998582,866.7709194000345,866.7873455998488,866.7873455998488,866.7873455998488,866.8538042998407,868.8684204998426,869.8007143998984,869.8007143998984,869.8007143998984,869.7847857000306,,,,,,,,,,,,,,,down,1.143156399950385,None,None,P134,001,2025-03-26_12h54.28.233,posner_endo_new1,2024.2.4,60.067311424260566,2025-03-26 12h54.33.785696 +0000,
cube_r.png,0.1,-0.31,invalid,7,7,0,down,2.17691219993867,None,None,,,,,,,,,,,0,7,7,7,869.8007143998984,,,,,,,,,,,,,869.7849450998474,869.8007143998984,869.8007143998984,869.8007143998984,871.9826191000175,,,,871.9893700999673,872.0012313998304,872.0012313998304,872.0486305998638,872.0488537999336,872.0651515999343,872.0651515999343,872.0651515999343,872.1318145999685,874.146235199878,875.078703599982,875.078703599982,875.078703599982,875.0626050999854,,,,,,,,,,,,,,,down,2.17691219993867,None,None,P134,001,2025-03-26_12h54.28.233,posner_endo_new1,2024.2.4,60.067311424260566,2025-03-26 12h54.33.785696 +0000,
cube_l.png,0.1,-0.31,valid,8,8,0,down,1.6664538998156786,None,None,,,,,,,,,,,0,8,8,8,875.078703599982,,,,,,,,,,,,,875.0627649999224,875.078703599982,875.078703599982,875.078703599982,876.7610192999709,,,,876.7679280999582,876.7797454998363,876.7797454998363,876.8272142000496,876.827439500019,876.8435068000108,876.8435068000108,876.8435068000108,876.9102999998722,878.9248041999526,879.8572807000019,879.8572807000019,879.8572807000019,879.8411532999016,,,,,,,,,,,,,,,down,1.6664538998156786,None,None,P134,001,2025-03-26_12h54.28.233,posner_endo_new1,2024.2.4,60.067311424260566,2025-03-26 12h54.33.785696 +0000,
cube_r.png,0.1,-0.31,invalid,9,9,0,down,2.359793899813667,None,None,,,,,,,,,,,0,9,9,9,879.8572807000019,,,,,,,,,,,,,879.8413120999467,879.8572807000019,879.8572807000019,879.8572807000019,882.222255300032,,,,882.2298836000264,882.2412886999082,882.2412886999082,882.2881066000555,882.2883273998741,882.3045842999127,882.3045842999127,882.3045842999127,882.3707393000368,884.3859768998809,885.3183583999053,885.3183583999053,885.3183583999053,885.3021467998624,,,,,,,,,,,,,,,down,2.359793899813667,None,None,P134,001,2025-03-26_12h54.28.233,posner_endo_new1,2024.2.4,60.067311424260566,2025-03-26 12h54.33.785696 +0000,
cube_l.png,0.1,0.31,invalid,10,10,0,down,1.6034425001125783,None,None,,,,,,,,,,,0,10,10,10,885.3183583999053,,,,,,,,,,,,,885.302314599976,885.3183583999053,885.3183583999053,885.3183583999053,886.9339878999162,,,,886.9402548000216,886.9520075998735,886.9520075998735,886.9999754000455,887.0001961998641,887.0166672000196,887.0166672000196,887.0166672000196,887.0830635998864,889.0981970999856,890.0302246999927,890.0302246999927,890.0302246999927,890.0139248999767,,,,,,,,,,,,,,,down,1.6034425001125783,None,None,P134,001,2025-03-26_12h54.28.233,posner_endo_new1,2024.2.4,60.067311424260566,2025-03-26 12h54.33.785696 +0000,
cube_r.png,0.1,-0.31,invalid,11,11,0,down,3.2350675999186933,None,None,,,,,,,,,,,0,11,11,11,890.0302246999927,,,,,,,,,,,,,890.0140851000324,890.0302246999927,890.0302246999927,890.0302246999927,893.277565700002,,,,893.2848572998773,893.2965597000439,893.2965597000439,893.343345799949,893.3435676998924,893.3600691000465,893.3600691000465,893.3600691000465,893.4267068000045,895.4413938999642,896.3734857998788,896.3734857998788,896.3734857998788,896.3574846999254,,,,,,,,,,,,,,,down,3.2350675999186933,None,None,P134,001,2025-03-26_12h54.28.233,posner_endo_new1,2024.2.4,60.067311424260566,2025-03-26 12h54.33.785696 +0000,
cube_r.png,0.1,0.31,valid,12,12,0,down,4.260107799898833,None,None,,,,,,,,,,,0,12,12,12,896.3734857998788,,,,,,,,,,,,,896.3576445998624,896.3734857998788,896.3734857998788,896.3734857998788,900.6366496998817,,,,900.6429240000434,900.6547103999183,900.6547103999183,900.7025543998461,900.7027793999296,900.7192992998753,900.7192992998753,900.7192992998753,900.7857963000424,902.800413500052,903.7327153999358,903.7327153999358,903.7327153999358,903.7167370999232,,,,,,,,,,,,,,,down,4.260107799898833,None,None,P134,001,2025-03-26_12h54.28.233,posner_endo_new1,2024.2.4,60.067311424260566,2025-03-26 12h54.33.785696 +0000,
cube_l.png,0.1,10,catch,13,13,0,down,7.38870200002566,None,None,,,,,,,,,,,0,13,13,13,903.7327153999358,,,,,,,,,,,,,903.716898099985,903.7327153999358,903.7327153999358,903.7327153999358,911.1259053999092,,,,911.132254099939,911.1437131999992,911.1437131999992,911.1918713999912,911.1923730999697,911.2083176998422,911.2083176998422,911.2083176998422,911.2915512998588,913.3063105000183,914.2219733998645,914.2219733998645,914.2219733998645,914.2059245998971,,,,,,,,,,,,,,,down,7.38870200002566,None,None,P134,001,2025-03-26_12h54.28.233,posner_endo_new1,2024.2.4,60.067311424260566,2025-03-26 12h54.33.785696 +0000,
cube_r.png,0.1,-0.31,invalid,14,14,0,down,2.2433523999061435,None,None,,,,,,,,,,,0,14,14,14,914.2219733998645,,,,,,,,,,,,,914.2060916998889,914.2219733998645,914.2219733998645,914.2219733998645,916.4706118998583,,,,916.476997199934,916.4889241999481,916.4889241999481,916.536354499869,916.536578200059,916.5529602000024,916.5529602000024,916.5529602000024,916.6362566000316,918.6508551000152,919.5665434000548,919.5665434000548,919.5665434000548,919.5504662999883,,,,,,,,,,,,,,,down,2.2433523999061435,None,None,P134,001,2025-03-26_12h54.28.233,posner_endo_new1,2024.2.4,60.067311424260566,2025-03-26 12h54.33.785696 +0000,
cube_l.png,0.1,-0.31,valid,15,15,0,down,0.6028165000025183,None,None,,,,,,,,,,,0,15,15,15,919.5665434000548,,,,,,,,,,,,,919.550626500044,919.5665434000548,919.5665434000548,919.5665434000548,920.1833178000525,,,,920.1907883000094,920.2026749998331,920.2026749998331,920.2494189999998,920.2496386999264,920.265754400054,920.265754400054,920.265754400054,920.3324196999893,922.3471439999994,923.2794399999548,923.2794399999548,923.2794399999548,923.2631945998874,,,,,,,,,,,,,,,down,0.6028165000025183,None,None,P134,001,2025-03-26_12h54.28.233,posner_endo_new1,2024.2.4,60.067311424260566,2025-03-26 12h54.33.785696 +0000,
cube_r.png,0.1,10,catch,16,16,0,down,1.6339829000644386,None,None,,,,,,,,,,,0,16,16,16,923.2794399999548,,,,,,,,,,,,,923.2633598998655,923.2794399999548,923.2794399999548,923.2794399999548,924.9284582999535,,,,924.9350131999236,924.9466502999421,924.9466502999421,924.9944807998836,924.9947124000173,925.0110251000151,925.0110251000151,925.0110251000151,925.0776785998605,927.0923120998777,928.0245800998528,928.0245800998528,928.0245800998528,928.0082808998413,,,,,,,,,,,,,,,down,1.6339829000644386,None,None,P134,001,2025-03-26_12h54.28.233,posner_endo_new1,2024.2.4,60.067311424260566,2025-03-26 12h54.33.785696 +0000,
cube_r.png,0.1,10,catch,17,17,0,down,1.0641109000425786,None,None,,,,,,,,,,,0,17,17,17,928.0245800998528,,,,,,,,,,,,,928.0084525998682,928.0245800998528,928.0245800998528,928.0245800998528,929.0908780000173,,,,929.0973584000021,929.1092922999524,929.1092922999524,929.1568040999118,929.1570265998598,929.173654000042,929.173654000042,929.173654000042,929.2399082998745,931.2545821999665,932.1868894000072,932.1868894000072,932.1868894000072,932.1706892999355,,,,,,,,,,,,,,,down,1.0641109000425786,None,None,P134,001,2025-03-26_12h54.28.233,posner_endo_new1,2024.2.4,60.067311424260566,2025-03-26 12h54.33.785696 +0000,
cube_l.png,0.1,0.31,invalid,18,18,0,down,1.2142370999790728,None,None,,,,,,,,,,,0,18,18,18,932.1868894000072,,,,,,,,,,,,,932.1708500999957,932.1868894000072,932.1868894000072,932.1868894000072,933.4032083000056,,,,933.4097704000305,933.4214528000448,933.4214528000448,933.4690932999365,933.4693141998723,933.4856602000073,933.4856602000073,933.4856602000073,933.5522894999012,935.5670610000379,936.499326699879,936.499326699879,936.499326699879,936.483107100008,,,,,,,,,,,,,,,down,1.2142370999790728,None,None,P134,001,2025-03-26_12h54.28.233,posner_endo_new1,2024.2.4,60.067311424260566,2025-03-26 12h54.33.785696 +0000,
cube_l.png,0.1,10,catch,19,19,0,down,0.11758079985156655,None,None,,,,,,,,,,,0,19,19,19,936.499326699879,,,,,,,,,,,,,936.4832679999527,936.499326699879,936.499326699879,936.499326699879,936.6331585999578,,,,936.6395419000182,936.6512060998939,936.6512060998939,936.6992782999296,936.6995006999932,936.7156708999537,936.7156708999537,936.7156708999537,936.7823526998982,938.796939099906,939.7291264999658,939.7291264999658,939.7291264999658,939.71315960004,,,,,,,,,,,,,,,down,0.11758079985156655,None,None,P134,001,2025-03-26_12h54.28.233,posner_endo_new1,2024.2.4,60.067311424260566,2025-03-26 12h54.33.785696 +0000,
cube_l.png,0.1,0.31,invalid,20,20,0,down,3.7201951001770794,None,None,,,,,,,,,,,0,20,20,20,939.7291264999658,,,,,,,,,,,,,939.7133176999632,939.7291264999658,939.7291264999658,939.7291264999658,943.4595086998306,,,,943.4662657999434,943.4779355998617,943.4779355998617,943.5255499999039,943.5257699999493,943.5420841998421,943.5420841998421,943.5420841998421,943.608608199982,945.6232399998698,946.5555503000505,946.5555503000505,946.5555503000505,946.5396940999199,,,,,,,,,,,,,,,down,3.7201951001770794,None,None,P134,001,2025-03-26_12h54.28.233,posner_endo_new1,2024.2.4,60.067311424260566,2025-03-26 12h54.33.785696 +0000,
cube_l.png,0.1,-0.31,valid,21,21,0,down,4.390145899960771,None,None,,,,,,,,,,,0,21,21,21,946.5555503000505,,,,,,,,,,,,,946.5399253000505,946.5555503000505,946.5555503000505,946.5555503000505,950.9521931000054,,,,950.9627817999572,950.9728709000628,950.9728709000628,951.0177698999178,951.0180708998814,951.0343253000174,951.0343253000174,951.0343253000174,951.1175152000505,953.132229299983,954.0479724998586,954.0479724998586,954.0479724998586,954.0319002999458,,,,,,,,,,,,,,,down,4.390145899960771,None,None,P134,001,2025-03-26_12h54.28.233,posner_endo_new1,2024.2.4,60.067311424260566,2025-03-26 12h54.33.785696 +0000,
cube_r.png,0.1,0.31,valid,22,22,0,down,4.273500999901444,None,None,,,,,,,,,,,0,22,22,22,954.0479724998586,,,,,,,,,,,,,954.0321334998589,954.0479724998586,954.0479724998586,954.0479724998586,958.3280219999142,,,,958.3394792999607,958.3495108999778,958.3495108999778,958.3935791999102,958.3938799998723,958.4101135998499,958.4101135998499,958.4101135998499,958.4933598998468,960.5079101000447,961.4236753999721,961.4236753999721,961.4236753999721,961.4077375999186,,,,,,,,,,,,,,,down,4.273500999901444,None,None,P134,001,2025-03-26_12h54.28.233,posner_endo_new1,2024.2.4,60.067311424260566,2025-03-26 12h54.33.785696 +0000,
cube_r.png,0.1,-0.31,invalid,23,23,0,down,4.0016028000973165,None,None,,,,,,,,,,,0,23,23,23,961.4236753999721,,,,,,,,,,,,,961.4079725998454,961.4236753999721,961.4236753999721,961.4236753999721,965.4372135000303,,,,965.4478163998574,965.4578773998655,965.4578773998655,965.5030467999168,965.5033594998531,965.5194691000506,965.5194691000506,965.5194691000506,965.6027824999765,967.6174087999389,968.5330386999995,968.5330386999995,968.5330386999995,968.5170509000309,,,,,,,,,,,,,,,down,4.0016028000973165,None,None,P134,001,2025-03-26_12h54.28.233,posner_endo_new1,2024.2.4,60.067311424260566,2025-03-26 12h54.33.785696 +0000,
cube_r.png,0.1,0.31,valid,24,24,0,down,1.2836124000605196,None,None,,,,,,,,,,,0,24,24,24,968.5330386999995,,,,,,,,,,,,,968.5172842000611,968.5330386999995,968.5330386999995,968.5330386999995,969.8326832000166,,,,969.8439423998352,969.8539082000498,969.8539082000498,969.8985035999212,969.8988109999336,969.914994499879,969.914994499879,969.914994499879,969.9982576000039,972.0128625999205,972.9286289999727,972.9286289999727,972.9286289999727,972.912514799973,,,,,,,,,,,,,,,down,1.2836124000605196,None,None,P134,001,2025-03-26_12h54.28.233,posner_endo_new1,2024.2.4,60.067311424260566,2025-03-26 12h54.33.785696 +0000,
cube_r.png,0.1,-0.31,invalid,25,25,0,down,0.8962960001081228,None,None,,,,,,,,,,,0,25,25,25,972.9286289999727,,,,,,,,,,,,,972.9127515999135,972.9286289999727,972.9286289999727,972.9286289999727,973.8287315999623,,,,973.8392544998787,973.8491866998374,973.8491866998374,973.894363099942,973.894667699933,973.9109084999654,973.9109084999654,973.9109084999654,973.9941421998665,976.0088007999584,976.9244680998381,976.9244680998381,976.9244680998381,976.9084180998616,,,,,,,,,,,,,,,down,0.8962960001081228,None,None,P134,001,2025-03-26_12h54.28.233,posner_endo_new1,2024.2.4,60.067311424260566,2025-03-26 12h54.33.785696 +0000,
cube_l.png,0.1,-0.31,valid,26,26,0,down,3.044725999934599,None,None,,,,,,,,,,,0,26,26,26,976.9244680998381,,,,,,,,,,,,,976.9086525000166,976.9244680998381,976.9244680998381,976.9244680998381,979.972546499921,,,,979.9831115000416,979.9932081999723,979.9932081999723,980.0380744999275,980.0383782999124,980.054665699834,980.054665699834,980.054665699834,980.137877299916,982.1525538000278,983.0683009999339,983.0683009999339,983.0683009999339,983.0520862999838,,,,,,,,,,,,,,,down,3.044725999934599,None,None,P134,001,2025-03-26_12h54.28.233,posner_endo_new1,2024.2.4,60.067311424260566,2025-03-26 12h54.33.785696 +0000,
cube_r.png,0.1,0.31,valid,27,27,0,down,2.205092400079593,None,None,,,,,,,,,,,0,27,27,27,983.0683009999339,,,,,,,,,,,,,983.0522459999193,983.0683009999339,983.0683009999339,983.0683009999339,985.2833803999238,,,,985.2897029998712,985.3014777000062,985.3014777000062,985.3494214999955,985.3496409000363,985.3659677000251,985.3659677000251,985.3659677000251,985.4324435000308,987.4470960998442,988.3794906998519,988.3794906998519,988.3794906998519,988.3632409998681,,,,,,,,,,,,,,,down,2.205092400079593,None,None,P134,001,2025-03-26_12h54.28.233,posner_endo_new1,2024.2.4,60.067311424260566,2025-03-26 12h54.33.785696 +0000,
cube_r.png,0.1,10,catch,28,28,0,down,0.7898805001750588,None,None,,,,,,,,,,,0,28,28,28,988.3794906998519,,,,,,,,,,,,,988.363401700044,988.3794906998519,988.3794906998519,988.3794906998519,989.1792931000236,,,,989.1857098999899,989.1975397998467,989.1975397998467,989.2453151999507,989.2455406999215,989.261936099967,989.261936099967,989.261936099967,989.3285445000511,991.34309079987,992.2755289999768,992.2755289999768,992.2755289999768,992.2593735998962,,,,,,,,,,,,,,,down,0.7898805001750588,None,None,P134,001,2025-03-26_12h54.28.233,posner_endo_new1,2024.2.4,60.067311424260566,2025-03-26 12h54.33.785696 +0000,
cube_r.png,0.1,0.31,valid,29,29,0,down,1.9657833001110703,None,None,,,,,,,,,,,0,29,29,29,992.2755289999768,,,,,,,,,,,,,992.2595390998758,992.2755289999768,992.2755289999768,992.2755289999768,994.2577229000162,,,,994.2712323998567,994.2809776999056,994.2809776999056,994.3231397999916,994.3235267999116,994.3395960999187,994.3395960999187,994.3395960999187,994.4228495999705,996.4374599999283,997.3531865000259,997.3531865000259,997.3531865000259,997.3373213000596,,,,,,,,,,,,,,,down,1.9657833001110703,None,None,P134,001,2025-03-26_12h54.28.233,posner_endo_new1,2024.2.4,60.067311424260566,2025-03-26 12h54.33.785696 +0000,
cube_r.png,0.1,0.31,valid,30,30,0,down,1.2881067001726478,None,None,,,,,,,,,,,0,30,30,30,997.3531865000259,,,,,,,,,,,,,997.3376416999381,997.3531865000259,997.3531865000259,997.3531865000259,998.6531851999462,,,,998.6667537998874,998.6768940000329,998.6768940000329,998.7190614000428,998.7193114999682,998.7354834999423,998.7354834999423,998.7354834999423,998.8187716000248,1000.8329530998599,1001.7486856000032,1001.7486856000032,1001.7486856000032,1001.7328394998331,,,,,,,,,,,,,,,down,1.2881067001726478,None,None,P134,001,2025-03-26_12h54.28.233,posner_endo_new1,2024.2.4,60.067311424260566,2025-03-26 12h54.33.785696 +0000,
cube_l.png,0.1,-0.31,valid,31,31,0,down,2.5007985001429915,None,None,,,,,,,,,,,0,31,31,31,1001.7486856000032,,,,,,,,,,,,,1001.7331530998927,1001.7486856000032,1001.7486856000032,1001.7486856000032,1004.2640976000112,,,,1004.2789775999263,1004.2890405999497,1004.2890405999497,1004.3298933999613,1004.330142499879,1004.3465388000477,1004.3465388000477,1004.3465388000477,1004.4131167999003,1006.4276928999461,1007.3601305999327,1007.3601305999327,1007.3601305999327,1007.3438703999855,,,,,,,,,,,,,,,down,2.5007985001429915,None,None,P134,001,2025-03-26_12h54.28.233,posner_endo_new1,2024.2.4,60.067311424260566,2025-03-26 12h54.33.785696 +0000,
cube_r.png,0.1,0.31,valid,32,32,0,down,2.6575702000409365,None,None,,,,,,,,,,,0,32,32,32,1007.3601305999327,,,,,,,,,,,,,1007.3440624000505,1007.3601305999327,1007.3601305999327,1007.3601305999327,1010.024629799882,,,,1010.0323661998846,1010.0436076000333,1010.0436076000333,1010.0907208998688,1010.0909438000526,1010.1071798000485,1010.1071798000485,1010.1071798000485,1010.1737693999894,1012.1885402000044,1013.1209014998749,1013.1209014998749,1013.1209014998749,1013.1045438998844,,,,,,,,,,,,,,,down,2.6575702000409365,None,None,P134,001,2025-03-26_12h54.28.233,posner_endo_new1,2024.2.4,60.067311424260566,2025-03-26 12h54.33.785696 +0000,
cube_r.png,0.1,-0.31,invalid,33,33,0,down,3.080656799953431,None,None,,,,,,,,,,,0,33,33,33,1013.1209014998749,,,,,,,,,,,,,1013.1047080999706,1013.1209014998749,1013.1209014998749,1013.1209014998749,1016.2182302998845,,,,1016.2244883999228,1016.2360922000371,1016.2360922000371,1016.2845046999864,1016.2847293999512,1016.3008965000045,1016.3008965000045,1016.3008965000045,1016.3673961998429,1018.3820080999285,1019.3146164999343,1019.3146164999343,1019.3146164999343,1019.298389100004,,,,,,,,,,,,,,,down,3.080656799953431,None,None,P134,001,2025-03-26_12h54.28.233,posner_endo_new1,2024.2.4,60.067311424260566,2025-03-26 12h54.33.785696 +0000,
cube_r.png,0.1,10,catch,34,34,0,down,2.0786284001078457,None,None,,,,,,,,,,,0,34,34,34,1019.3146164999343,,,,,,,,,,,,,1019.2985502998345,1019.3146164999343,1019.3146164999343,1019.3146164999343,1021.3961004000157,,,,1021.4030309000518,1021.4146515000612,1021.4146515000612,1021.4623228998389,1021.4625484999269,1021.478896799963,1021.478896799963,1021.478896799963,1021.5454080000054,1023.5601846999489,1024.4925844999962,1024.4925844999962,1024.4925844999962,1024.4763539999258,,,,,,,,,,,,,,,down,2.0786284001078457,None,None,P134,001,2025-03-26_12h54.28.233,posner_endo_new1,2024.2.4,60.067311424260566,2025-03-26 12h54.33.785696 +0000,
cube_r.png,0.1,0.31,valid,35,35,0,down,0.0043292001355439425,None,None,,,,,,,,,,,0,35,35,35,1024.4925844999962,,,,,,,,,,,,,1024.47652619984,1024.4925844999962,1024.4925844999962,1024.4925844999962,1024.5100795000326,,,,1024.516421600012,1024.528213399928,1024.528213399928,1024.5759568000212,1024.5761947999708,1024.592379000038,1024.592379000038,1024.592379000038,1024.6756595000625,1026.690249899868,1027.605863200035,1027.605863200035,1027.605863200035,1027.5898162999656,,,,,,,,,,,,,,,down,0.0043292001355439425,None,None,P134,001,2025-03-26_12h54.28.233,posner_endo_new1,2024.2.4,60.067311424260566,2025-03-26 12h54.33.785696 +0000,
cube_r.png,0.1,-0.31,invalid,36,36,0,down,2.779318100074306,None,None,,,,,,,,,,,0,36,36,36,1027.605863200035,,,,,,,,,,,,,1027.5899773999117,1027.605863200035,1027.605863200035,1027.605863200035,1030.3873749000486,,,,1030.3948091999628,1030.4062542999163,1030.4062542999163,1030.4531973998528,1030.4534193999134,1030.4697534998413,1030.4697534998413,1030.4697534998413,1030.5527753999922,1032.5674508998636,1033.4832261998672,1033.4832261998672,1033.4832261998672,1033.4669969999231,,,,,,,,,,,,,,,down,2.779318100074306,None,None,P134,001,2025-03-26_12h54.28.233,posner_endo_new1,2024.2.4,60.067311424260566,2025-03-26 12h54.33.785696 +0000,
cube_l.png,0.1,0.31,invalid,37,37,0,down,3.6856639001052827,None,None,,,,,,,,,,,0,37,37,37,1033.4832261998672,,,,,,,,,,,,,1033.467157999985,1033.4832261998672,1033.4832261998672,1033.4832261998672,1037.1802947998513,,,,1037.1868332999293,1037.1986435998697,1037.1986435998697,1037.246322199935,1037.2465428998694,1037.2626624999102,1037.2626624999102,1037.2626624999102,1037.3459884000476,1039.3606910998933,1040.2763818998355,1040.2763818998355,1040.2763818998355,1040.2603484999854,,,,,,,,,,,,,,,down,3.6856639001052827,None,None,P134,001,2025-03-26_12h54.28.233,posner_endo_new1,2024.2.4,60.067311424260566,2025-03-26 12h54.33.785696 +0000,
cube_l.png,0.1,0.31,invalid,38,38,0,down,2.701096700038761,None,None,,,,,,,,,,,0,38,38,38,1040.2763818998355,,,,,,,,,,,,,1040.2605093000457,1040.2763818998355,1040.2763818998355,1040.2763818998355,1042.990933699999,,,,1042.9974181000143,1043.0091816999484,1043.0091816999484,1043.0569209000096,1043.0571413999423,1043.0736336000264,1043.0736336000264,1043.0736336000264,1043.1400967999361,1045.1546910000034,1046.087163399905,1046.087163399905,1046.087163399905,1046.0709585999139,,,,,,,,,,,,,,,down,2.701096700038761,None,None,P134,001,2025-03-26_12h54.28.233,posner_endo_new1,2024.2.4,60.067311424260566,2025-03-26 12h54.33.785696 +0000,
cube_r.png,0.1,0.31,valid,39,39,0,down,3.049507899908349,None,None,,,,,,,,,,,0,39,39,39,1046.087163399905,,,,,,,,,,,,,1046.071124699898,1046.087163399905,1046.087163399905,1046.087163399905,1049.1514730998315,,,,1049.1578073999844,1049.1695977000054,1049.1695977000054,1049.2173641000409,1049.2175886998884,1049.2337827999145,1049.2337827999145,1049.2337827999145,1049.3005516000558,1051.3150249999017,1052.2473949999548,1052.2473949999548,1052.2473949999548,1052.2314613999333,,,,,,,,,,,,,,,down,3.049507899908349,None,None,P134,001,2025-03-26_12h54.28.233,posner_endo_new1,2024.2.4,60.067311424260566,2025-03-26 12h54.33.785696 +0000,
cube_l.png,0.1,0.31,invalid,40,40,0,down,1.3216927000321448,None,None,,,,,,,,,,,0,40,40,40,1052.2473949999548,,,,,,,,,,,,,1052.2316292999312,1052.2473949999548,1052.2473949999548,1052.2473949999548,1053.5801291000098,,,,1053.58646339993,1053.59843919985,1053.59843919985,1053.6461449000053,1053.6463665000629,1053.6626730000135,1053.6626730000135,1053.6626730000135,1053.7292547000106,1055.7438425999135,1056.6761074999813,1056.6761074999813,1056.6761074999813,1056.6599470998626,,,,,,,,,,,,,,,down,1.3216927000321448,None,None,P134,001,2025-03-26_12h54.28.233,posner_endo_new1,2024.2.4,60.067311424260566,2025-03-26 12h54.33.785696 +0000,
cube_l.png,0.1,10,catch,41,41,0,down,0.03745760000310838,None,None,,,,,,,,,,,0,41,41,41,1056.6761074999813,,,,,,,,,,,,,1056.660108699929,1056.6761074999813,1056.6761074999813,1056.6761074999813,1056.7268033998553,,,,1056.733640999999,1056.7453309998382,1056.7453309998382,1056.7928114000242,1056.7930324999616,1056.8094689999707,1056.8094689999707,1056.8094689999707,1056.8761303999927,1058.890720800031,1059.8230703000445,1059.8230703000445,1059.8230703000445,1059.8068842999637,,,,,,,,,,,,,,,down,0.03745760000310838,None,None,P134,001,2025-03-26_12h54.28.233,posner_endo_new1,2024.2.4,60.067311424260566,2025-03-26 12h54.33.785696 +0000,
cube_l.png,0.1,-0.31,valid,42,42,0,down,1.6098256001714617,None,None,,,,,,,,,,,0,42,42,42,1059.8230703000445,,,,,,,,,,,,,1059.8070495000575,1059.8230703000445,1059.8230703000445,1059.8230703000445,1061.4386998999398,,,,1061.4449745998718,1061.456707400037,1061.456707400037,1061.504769399995,1061.5049914000556,1061.5211829999462,1061.5211829999462,1061.5211829999462,1061.5879744000267,1063.6023021000437,1064.5349492998794,1064.5349492998794,1064.5349492998794,1064.5188124999404,,,,,,,,,,,,,,,down,1.6098256001714617,None,None,P134,001,2025-03-26_12h54.28.233,posner_endo_new1,2024.2.4,60.067311424260566,2025-03-26 12h54.33.785696 +0000,
cube_l.png,0.1,10,catch,43,43,0,down,0.4180709000211209,None,None,,,,,,,,,,,0,43,43,43,1064.5349492998794,,,,,,,,,,,,,1064.5189707998652,1064.5349492998794,1064.5349492998794,1064.5349492998794,1064.9686475999188,,,,1064.9749467000365,1064.9863070000429,1064.9863070000429,1065.0342242999468,1065.0346543998457,1065.0506670998875,1065.0506670998875,1065.0506670998875,1065.1339081998449,1067.1487836998422,1068.0646623999346,1068.0646623999346,1068.0646623999346,1068.0484543000348,,,,,,,,,,,,,,,down,0.4180709000211209,None,None,P134,001,2025-03-26_12h54.28.233,posner_endo_new1,2024.2.4,60.067311424260566,2025-03-26 12h54.33.785696 +0000,
cube_l.png,0.1,0.31,invalid,44,44,0,down,0.5443475998472422,None,None,,,,,,,,,,,0,44,44,44,1068.0646623999346,,,,,,,,,,,,,1068.048687200062,1068.0646623999346,1068.0646623999346,1068.0646623999346,1068.6151022999547,,,,1068.6266309998464,1068.6367094998714,1068.6367094998714,1068.6807831998449,1068.681088999845,1068.6971415998414,1068.6971415998414,1068.6971415998414,1068.7805826999247,1070.7949852000456,1071.7108117998578,1071.7108117998578,1071.7108117998578,1071.6947943998966,,,,,,,,,,,,,,,down,0.5443475998472422,None,None,P134,001,2025-03-26_12h54.28.233,posner_endo_new1,2024.2.4,60.067311424260566,2025-03-26 12h54.33.785696 +0000,
cube_l.png,0.1,0.31,invalid,45,45,0,down,2.0029931999742985,None,None,,,,,,,,,,,0,45,45,45,1071.7108117998578,,,,,,,,,,,,,1071.69502809993,1071.7108117998578,1071.7108117998578,1071.7108117998578,1073.7264767000452,,,,1073.7369361999445,1073.7470283999573,1073.7470283999573,1073.7921802999917,1073.7924816999584,1073.8086578999646,1073.8086578999646,1073.8086578999646,1073.8919041999616,1075.9064994999208,1076.8222757000476,1076.8222757000476,1076.8222757000476,1076.8061387999915,,,,,,,,,,,,,,,down,2.0029931999742985,None,None,P134,001,2025-03-26_12h54.28.233,posner_endo_new1,2024.2.4,60.067311424260566,2025-03-26 12h54.33.785696 +0000,
cube_r.png,0.1,0.31,valid,46,46,0,down,2.298692899988964,None,None,,,,,,,,,,,0,46,46,46,1076.8222757000476,,,,,,,,,,,,,1076.8063693000004,1076.8222757000476,1076.8222757000476,1076.8222757000476,1079.1375937999692,,,,1079.1483346999157,1079.1580914000515,1079.1580914000515,1079.2033181998413,1079.203622000059,1079.2198040999938,1079.2198040999938,1079.2198040999938,1079.3030801999848,1081.3176968998741,1082.2334590998944,1082.2334590998944,1082.2334590998944,1082.2173710998613,,,,,,,,,,,,,,,down,2.298692899988964,None,None,P134,001,2025-03-26_12h54.28.233,posner_endo_new1,2024.2.4,60.067311424260566,2025-03-26 12h54.33.785696 +0000,
cube_l.png,0.1,-0.31,valid,47,47,0,down,4.344946600031108,None,None,,,,,,,,,,,0,47,47,47,1082.2334590998944,,,,,,,,,,,,,1082.2176093000453,1082.2334590998944,1082.2334590998944,1082.2334590998944,1086.5801178999245,,,,1086.5907051998656,1086.6010206998326,1086.6010206998326,1086.6456799998414,1086.6459849998355,1086.6621119999327,1086.6621119999327,1086.6621119999327,1086.7453548000194,1088.760085699847,1089.6757306999061,1089.6757306999061,1089.6757306999061,1089.6598658000585,,,,,,,,,,,,,,,down,4.344946600031108,None,None,P134,001,2025-03-26_12h54.28.233,posner_endo_new1,2024.2.4,60.067311424260566,2025-03-26 12h54.33.785696 +0000,
cube_r.png,0.1,-0.31,invalid,48,48,0,down,3.8215055000036955,None,None,,,,,,,,,,,0,48,48,48,1089.6757306999061,,,,,,,,,,,,,1089.6601135998499,1089.6757306999061,1089.6757306999061,1089.6757306999061,1093.505801500054,,,,1093.512653999962,1093.5243657999672,1093.5243657999672,1093.5719995999243,1093.5722216998693,1093.5884910998866,1093.5884910998866,1093.5884910998866,1093.6549998000264,1095.6696965999436,1096.6021675998345,1096.6021675998345,1096.6021675998345,1096.5857881000265,,,,,,,,,,,,,,,down,3.8215055000036955,None,None,P134,001,2025-03-26_12h54.28.233,posner_endo_new1,2024.2.4,60.067311424260566,2025-03-26 12h54.33.785696 +0000,
cube_r.png,0.1,10,catch,49,49,0,down,0.07939630001783371,None,None,,,,,,,,,,,0,49,49,49,1096.6021675998345,,,,,,,,,,,,,1096.5859644999728,1096.6021675998345,1096.6021675998345,1096.6021675998345,1096.685880200006,,,,1096.692392299883,1096.7040866999887,1096.7040866999887,1096.7519779999275,1096.752205699915,1096.7685118999798,1096.7685118999798,1096.7685118999798,1096.8352218999062,1098.8497083999682,1099.7821591000538,1099.7821591000538,1099.7821591000538,1099.7659390000626,,,,,,,,,,,,,,,down,0.07939630001783371,None,None,P134,001,2025-03-26_12h54.28.233,posner_endo_new1,2024.2.4,60.067311424260566,2025-03-26 12h54.33.785696 +0000,
cube_l.png,0.1,-0.31,valid,50,50,0,down,0.5866640000604093,None,None,,,,,,,,,,,0,50,50,50,1099.7821591000538,,,,,,,,,,,,,1099.7661009998992,1099.7821591000538,1099.7821591000538,1099.7821591000538,1100.3822259998415,,,,1100.3886122000404,1100.4003291998524,1100.4003291998524,1100.4482298998628,1100.4484500999097,1100.4647573998664,1100.4647573998664,1100.4647573998664,1100.5312826000154,1102.545933800051,1103.4783699999098,1103.4783699999098,1103.4783699999098,1103.4621084998362,,,,,,,,,,,,,,,down,0.5866640000604093,None,None,P134,001,2025-03-26_12h54.28.233,posner_endo_new1,2024.2.4,60.067311424260566,2025-03-26 12h54.33.785696 +0000,
cube_l.png,0.1,-0.31,valid,51,51,0,down,0.3311707000248134,None,None,,,,,,,,,,,0,51,51,51,1103.4783699999098,,,,,,,,,,,,,1103.4622688998934,1103.4783699999098,1103.4783699999098,1103.4783699999098,1103.8121608998626,,,,1103.8196357998531,1103.8308422998525,1103.8308422998525,1103.8778246999718,1103.8780475000385,1103.894609699957,1103.894609699957,1103.894609699957,1103.9778833999299,1105.9924240000546,1106.9081538999453,1106.9081538999453,1106.9081538999453,1106.8918938999996,,,,,,,,,,,,,,,down,0.3311707000248134,None,None,P134,001,2025-03-26_12h54.28.233,posner_endo_new1,2024.2.4,60.067311424260566,2025-03-26 12h54.33.785696 +0000,
cube_r.png,0.1,-0.31,invalid,52,52,0,down,0.20469789998605847,None,None,,,,,,,,,,,0,52,52,52,1106.9081538999453,,,,,,,,,,,,,1106.8920551000629,1106.9081538999453,1106.9081538999453,1106.9081538999453,1107.1253649999853,,,,1107.1318039000034,1107.1435501000378,1107.1435501000378,1107.1912654000334,1107.1914860999677,1107.2080261998344,1107.2080261998344,1107.2080261998344,1107.2743949999567,1109.2889801999554,1110.2215710999444,1110.2215710999444,1110.2215710999444,1110.205136799952,,,,,,,,,,,,,,,down,0.20469789998605847,None,None,P134,001,2025-03-26_12h54.28.233,posner_endo_new1,2024.2.4,60.067311424260566,2025-03-26 12h54.33.785696 +0000,
cube_l.png,0.1,-0.31,valid,53,53,0,down,2.2600405998528004,None,None,,,,,,,,,,,0,53,53,53,1110.2215710999444,,,,,,,,,,,,,1110.2053040999454,1110.2215710999444,1110.2215710999444,1110.2215710999444,1112.4865814000368,,,,1112.494154999964,1112.5171602999326,1112.5171602999326,1112.552648199955,1112.5528720999137,1112.5690726998728,1112.5690726998728,1112.5690726998728,1112.6357042000163,1114.6504058998544,1115.5825900998898,1115.5825900998898,1115.5825900998898,1115.5665008998476,,,,,,,,,,,,,,,down,2.2600405998528004,None,None,P134,001,2025-03-26_12h54.28.233,posner_endo_new1,2024.2.4,60.067311424260566,2025-03-26 12h54.33.785696 +0000,
cube_r.png,0.1,10,catch,54,54,0,down,5.779046099865809,None,None,,,,,,,,,,,0,54,54,54,1115.5825900998898,,,,,,,,,,,,,1115.566659099888,1115.5825900998898,1115.5825900998898,1115.5825900998898,1121.3774612999987,,,,1121.3835950999055,1121.395190199837,1121.395190199837,1121.443340400001,1121.4435653998516,1121.4600263000466,1121.4600263000466,1121.4600263000466,1121.5264113000594,1123.541145999916,1124.4735081000254,1124.4735081000254,1124.4735081000254,1124.4573067999445,,,,,,,,,,,,,,,down,5.779046099865809,None,None,P134,001,2025-03-26_12h54.28.233,posner_endo_new1,2024.2.4,60.067311424260566,2025-03-26 12h54.33.785696 +0000,
cube_l.png,0.1,0.31,invalid,55,55,0,down,0.6311693999450654,None,None,,,,,,,,,,,0,55,55,55,1124.4735081000254,,,,,,,,,,,,,1124.4574663999956,1124.4735081000254,1124.4735081000254,1124.4735081000254,1125.1071088998578,,,,1125.1130941999145,1125.1246233999263,1125.1246233999263,1125.1728743999265,1125.1730980998836,1125.1894376999699,1125.1894376999699,1125.1894376999699,1125.2727868999355,1127.2873352998868,1128.203019599896,1128.203019599896,1128.203019599896,1128.1868425998837,,,,,,,,,,,,,,,down,0.6311693999450654,None,None,P134,001,2025-03-26_12h54.28.233,posner_endo_new1,2024.2.4,60.067311424260566,2025-03-26 12h54.33.785696 +0000,
cube_l.png,0.1,-0.31,valid,56,56,0,down,0.5742663000710309,None,None,,,,,,,,,,,0,56,56,56,1128.203019599896,,,,,,,,,,,,,1128.187003500061,1128.203019599896,1128.203019599896,1128.203019599896,1128.7865527998656,,,,1128.7929626000114,1128.8045703999233,1128.8045703999233,1128.8525626999326,1128.852784199873,1128.8690640998539,1128.8690640998539,1128.8690640998539,1128.9355921999086,1130.9503396998625,1131.8826374998316,1131.8826374998316,1131.8826374998316,1131.8665404999629,,,,,,,,,,,,,,,down,0.5742663000710309,None,None,P134,001,2025-03-26_12h54.28.233,posner_endo_new1,2024.2.4,60.067311424260566,2025-03-26 12h54.33.785696 +0000,
cube_r.png,0.1,0.31,valid,57,57,0,down,0.2786661998834461,None,None,,,,,,,,,,,0,57,57,57,1131.8826374998316,,,,,,,,,,,,,1131.866700799903,1131.8826374998316,1131.8826374998316,1131.8826374998316,1132.1664878998417,,,,1132.1725512000266,1132.1842324000318,1132.1842324000318,1132.232259399956,1132.2324800998904,1132.24889659998,1132.24889659998,1132.24889659998,1132.315418999875,1134.3301325000357,1135.262567800004,1135.262567800004,1135.262567800004,1135.246308799833,,,,,,,,,,,,,,,down,0.2786661998834461,None,None,P134,001,2025-03-26_12h54.28.233,posner_endo_new1,2024.2.4,60.067311424260566,2025-03-26 12h54.33.785696 +0000,
cube_r.png,0.1,-0.31,invalid,58,58,0,down,2.106245799921453,None,None,,,,,,,,,,,0,58,58,58,1135.262567800004,,,,,,,,,,,,,1135.2464723999146,1135.262567800004,1135.262567800004,1135.262567800004,1137.3777188998647,,,,1137.3837222999427,1137.3953962000087,1137.3953962000087,1137.4437942998484,1137.4440235998482,1137.460300900042,1137.460300900042,1137.460300900042,1137.526958100032,1139.5415252000093,1140.4739059000276,1140.4739059000276,1140.4739059000276,1140.4576946999878,,,,,,,,,,,,,,,down,2.106245799921453,None,None,P134,001,2025-03-26_12h54.28.233,posner_endo_new1,2024.2.4,60.067311424260566,2025-03-26 12h54.33.785696 +0000,
cube_l.png,0.1,0.31,invalid,59,59,0,down,3.951202399795875,None,None,,,,,,,,,,,0,59,59,59,1140.4739059000276,,,,,,,,,,,,,1140.457855500048,1140.4739059000276,1140.4739059000276,1140.4739059000276,1144.4371700999327,,,,1144.44334109989,1144.4550113999285,1144.4550113999285,1144.5031568000559,1144.5033784999978,1144.5195687999949,1144.5195687999949,1144.5195687999949,1144.5863852999173,1146.6009688000195,1147.533352700062,1147.533352700062,1147.533352700062,1147.5170076999348,,,,,,,,,,,,,,,down,3.951202399795875,None,None,P134,001,2025-03-26_12h54.28.233,posner_endo_new1,2024.2.4,60.067311424260566,2025-03-26 12h54.33.785696 +0000,
