cue_img,cue_soa,target_y,trial,thisN,thisTrialN,thisRepN,key_control2.keys,key_control2.rt,key_control2.duration,key_resp.keys,key_resp.rt,key_resp.duration,practice.thisRepN,practice.thisTrialN,practice.thisN,practice.thisIndex,block1.thisRepN,block1.thisTrialN,block1.thisN,block1.thisIndex,block2.thisRepN,block2.thisTrialN,block2.thisN,block2.thisIndex,thisRow.t,notes,instructions.started,instructions_txt.started,key_control.started,instructions.stopped,key_control.keys,key_control.rt,key_control.duration,ready.started,ready_txt.started,ready_txt.stopped,ready.stopped,fix.started,fixation.started,key_control2.started,fixation_cross.started,fix.stopped,practice.key_control2.keys,practice.key_control2.rt,practice.key_control2.duration,cue.started,cube.started,fixation_cross_cue.started,cue.stopped,target.started,fixation_target.started,fixation_cross_target.started,key_resp.started,star.started,target.stopped,practice.key_resp.keys,practice.key_resp.rt,practice.key_resp.duration,star.stopped,fixation_target.stopped,fixation_cross_target.stopped,key_resp.stopped,block1.key_control2.keys,block1.key_control2.rt,block1.key_control2.duration,block1.key_resp.keys,block1.key_resp.rt,block1.key_resp.duration,break_2.started,text.started,key_control3.started,text.stopped,break_2.stopped,key_control3.keys,key_control3.rt,key_control3.duration,block2.key_control2.keys,block2.key_control2.rt,block2.key_control2.duration,block2.key_resp.keys,block2.key_resp.rt,block2.key_resp.duration,participant,session,date,expName,psychopyVersion,frameRate,expStart,
,,,,,,,,,,,,,,,,,,,,,,,,,,,0.007451299810782075,0.021597599843516946,0.021597599843516946,357.7434518998489,up,357.7030309000984,None,,,,,,,,,,,,,,,,,,,,,,,,,,,,,,,,,,,,,,,,,,,,,,,,,,P135,001,2025-03-26_14h57.56.544,posner_endo_new1,2024.2.4,60.016840672067296,2025-03-26 14h58.02.805675 +0000,
,,,,,,,,,,,,,,,,,,,,,,,,,,,,,,,,,,357.7435029000044,357.7562857000157,360.7832050998695,360.73807019996457,,,,,,,,,,,,,,,,,,,,,,,,,,,,,,,,,,,,,,,,,,,,,,P135,001,2025-03-26_14h57.56.544,posner_endo_new1,2024.2.4,60.016840672067296,2025-03-26 14h58.02.805675 +0000,
cube_r.png,0.1,0.31,valid,0,0,0,down,18.061542300041765,None,space,0.713048999896273,None,0,0,0,10,,,,,,,,,360.7832050998695,,,,,,,,,,,,,360.76630609994754,360.7832050998695,360.7832050998695,360.7832050998695,378.85439280001447,down,18.061542300041765,None,378.89500200003386,378.90587859996594,378.90587859996594,378.90608419990167,378.90639159991406,378.9185309999157,378.9185309999157,378.9185309999157,379.0179920999799,379.6351319998503,space,0.713048999896273,None,,,,,,,,,,,,,,,,,,,,,,,,,P135,001,2025-03-26_14h57.56.544,posner_endo_new1,2024.2.4,60.016840672067296,2025-03-26 14h58.02.805675 +0000,
cube_l.png,0.1,-0.31,valid,1,1,0,down,6.729805100010708,None,space,0.4930793000385165,None,0,1,1,0,,,,,,,,,379.6505646998994,,,,,,,,,,,,,379.635371199809,379.6505646998994,379.6505646998994,379.6505646998994,386.394803899806,down,6.729805100010708,None,386.40466420003213,386.4148264999967,386.4148264999967,386.4604127998464,386.46072779991664,386.4769927999005,386.4769927999005,386.4769927999005,386.56020179996267,386.97739159991033,space,0.4930793000385165,None,,,,,,,,,,,,,,,,,,,,,,,,,P135,001,2025-03-26_14h57.56.544,posner_endo_new1,2024.2.4,60.016840672067296,2025-03-26 14h58.02.805675 +0000,
cube_l.png,0.1,-0.31,valid,2,2,0,down,6.4352142999414355,None,space,0.30557180009782314,None,0,2,2,4,,,,,,,,,386.9932150999084,,,,,,,,,,,,,386.9776304999832,386.9932150999084,386.9932150999084,386.9932150999084,393.437462199945,down,6.4352142999414355,None,393.4472151999362,393.45740229985677,393.45740229985677,393.5032671999652,393.50357749988325,393.5197441999335,393.5197441999335,393.5197441999335,393.603067799937,393.8371599998791,space,0.30557180009782314,None,,,,,,,,,,,,,,,,,,,,,,,,,P135,001,2025-03-26_14h57.56.544,posner_endo_new1,2024.2.4,60.016840672067296,2025-03-26 14h58.02.805675 +0000,
cube_l.png,0.1,0.31,invalid,3,3,0,down,3.0406680000014603,None,space,0.4061443000100553,None,0,3,3,5,,,,,,,,,393.85271569993347,,,,,,,,,,,,,393.8374010999687,393.85271569993347,393.85271569993347,393.85271569993347,396.9007317000069,down,3.0406680000014603,None,396.9104453998152,396.920606700005,396.920606700005,396.96637059981003,396.96667869994417,396.9829309999477,396.9829309999477,396.9829309999477,397.0660703999456,397.4001566998195,space,0.4061443000100553,None,,,,,,,,,,,,,,,,,,,,,,,,,P135,001,2025-03-26_14h57.56.544,posner_endo_new1,2024.2.4,60.016840672067296,2025-03-26 14h58.02.805675 +0000,
cube_r.png,0.1,10,catch,4,4,0,down,3.3653986998833716,None,None,,,0,4,4,3,,,,,,,,,397.41576400003396,,,,,,,,,,,,,397.40039119985886,397.41576400003396,397.41576400003396,397.41576400003396,400.7965937999543,down,3.3653986998833716,None,400.80621149996296,400.8164358998183,400.8164358998183,400.8623776999302,400.86269039986655,400.87892759987153,400.87892759987153,400.87892759987153,400.962138999952,403.8764927999582,None,,,402.9768266999163,403.89258400001563,403.89258400001563,403.89258400001563,,,,,,,,,,,,,,,,,,,,,P135,001,2025-03-26_14h57.56.544,posner_endo_new1,2024.2.4,60.016840672067296,2025-03-26 14h58.02.805675 +0000,
cube_r.png,0.1,-0.31,invalid,5,5,0,down,0.6324114999733865,None,space,0.43345250003039837,None,0,5,5,6,,,,,,,,,403.89258400001563,,,,,,,,,,,,,403.8767219998408,403.89258400001563,403.89258400001563,403.89258400001563,404.52629059995525,down,0.6324114999733865,None,404.5360013998579,404.54623969993554,404.54623969993554,404.5918448998127,404.59215629985556,404.60851019993424,404.60851019993424,404.60851019993424,404.6916576998774,405.05892809992656,space,0.43345250003039837,None,,,,,,,,,,,,,,,,,,,,,,,,,P135,001,2025-03-26_14h57.56.544,posner_endo_new1,2024.2.4,60.016840672067296,2025-03-26 14h58.02.805675 +0000,
cube_r.png,0.1,-0.31,invalid,6,6,0,down,6.370590399950743,None,space,0.23439320013858378,None,0,6,6,2,,,,,,,,,405.0745625998825,,,,,,,,,,,,,405.0591647999827,405.0745625998825,405.0745625998825,405.0745625998825,411.4523375998251,down,6.370590399950743,None,411.4620570000261,411.4721115999855,411.4721115999855,411.5183162998874,411.5186206998769,411.534660999896,411.534660999896,411.534660999896,411.6178825998213,411.78548630001023,space,0.23439320013858378,None,,,,,,,,,,,,,,,,,,,,,,,,,P135,001,2025-03-26_14h57.56.544,posner_endo_new1,2024.2.4,60.016840672067296,2025-03-26 14h58.02.805675 +0000,
cube_l.png,0.1,0.31,invalid,7,7,0,down,3.331515100086108,None,space,0.4464004000183195,None,0,7,7,1,,,,,,,,,411.8010776999872,,,,,,,,,,,,,411.7857217998244,411.8010776999872,411.8010776999872,411.8010776999872,415.14866299997084,down,3.331515100086108,None,415.1583096999675,415.16841259994544,415.16841259994544,415.21443279995583,415.2147422998678,415.23091259994544,415.23091259994544,415.23091259994544,415.3141877998132,415.681738599902,space,0.4464004000183195,None,,,,,,,,,,,,,,,,,,,,,,,,,P135,001,2025-03-26_14h57.56.544,posner_endo_new1,2024.2.4,60.016840672067296,2025-03-26 14h58.02.805675 +0000,
cube_l.png,0.1,-0.31,valid,8,8,0,down,2.347576699918136,None,space,0.5459000000264496,None,0,8,8,8,,,,,,,,,415.6970279000234,,,,,,,,,,,,,415.68197839986533,415.6970279000234,415.6970279000234,415.6970279000234,418.04553819983266,down,2.347576699918136,None,418.0515809999779,418.0634021998849,418.0634021998849,418.1112581999041,418.11177499988116,418.12768129981123,418.12768129981123,418.12768129981123,418.2109203999862,418.67861019982956,space,0.5459000000264496,None,,,,,,,,,,,,,,,,,,,,,,,,,P135,001,2025-03-26_14h57.56.544,posner_endo_new1,2024.2.4,60.016840672067296,2025-03-26 14h58.02.805675 +0000,
cube_r.png,0.1,-0.31,invalid,9,9,0,down,3.3349025000352412,None,space,0.5018763998523355,None,0,9,9,9,,,,,,,,,418.6940420998726,,,,,,,,,,,,,418.6788800000213,418.6940420998726,418.6940420998726,418.6940420998726,422.04177739983425,down,3.3349025000352412,None,422.0531621000264,422.0634895998519,422.0634895998519,422.1073374999687,422.10768099990673,422.12374029983766,422.12374029983766,422.12374029983766,422.20719489990734,422.6411286999937,space,0.5018763998523355,None,,,,,,,,,,,,,,,,,,,,,,,,,P135,001,2025-03-26_14h57.56.544,posner_endo_new1,2024.2.4,60.016840672067296,2025-03-26 14h58.02.805675 +0000,
cube_r.png,0.1,0.31,valid,10,10,0,down,3.444181099999696,None,space,0.3758485000580549,None,0,10,10,7,,,,,,,,,422.6565777999349,,,,,,,,,,,,,422.6414099999238,422.6565777999349,422.6565777999349,422.6565777999349,426.10437009995803,down,3.444181099999696,None,426.11435199994594,426.1242094000336,426.1242094000336,426.16965809999965,426.16990639991127,426.18613739986904,426.18613739986904,426.18613739986904,426.2694863998331,426.5701599998865,space,0.3758485000580549,None,,,,,,,,,,,,,,,,,,,,,,,,,P135,001,2025-03-26_14h57.56.544,posner_endo_new1,2024.2.4,60.016840672067296,2025-03-26 14h58.02.805675 +0000,
,,,,,,,,,,,,,,,,,,,,,,,,,,,,,,,,,,426.5702932998538,426.5855527999811,429.58927079988644,429.566610599868,,,,,,,,,,,,,,,,,,,,,,,,,,,,,,,,,,,,,,,,,,,,,,P135,001,2025-03-26_14h57.56.544,posner_endo_new1,2024.2.4,60.016840672067296,2025-03-26 14h58.02.805675 +0000,
cube_l.png,0.1,10,catch,0,0,0,down,10.57575420010835,None,None,,,,,,,0,0,0,0,,,,,429.58927079988644,,,,,,,,,,,,,429.58057619980536,429.58927079988644,429.58927079988644,429.58927079988644,440.1727892998606,,,,440.180215699831,440.19161490001716,440.19161490001716,440.2387504000217,440.23898299993016,440.25536919990554,440.25536919990554,440.25536919990554,440.32182640000246,443.2531863998156,,,,442.33635519980453,443.2687361999415,443.2687361999415,443.2687361999415,down,10.57575420010835,None,None,,,,,,,,,,,,,,,,,P135,001,2025-03-26_14h57.56.544,posner_endo_new1,2024.2.4,60.016840672067296,2025-03-26 14h58.02.805675 +0000,
cube_l.png,0.1,10,catch,1,1,0,down,1.327898799907416,None,None,,,,,,,0,1,1,1,,,,,443.2687361999415,,,,,,,,,,,,,443.25361759983934,443.2687361999415,443.2687361999415,443.2687361999415,444.60279329982586,,,,444.62107029999606,444.6315232999623,444.6315232999623,444.66761879995465,444.6679683998227,444.6840834999457,444.6840834999457,444.6840834999457,444.7673912998289,447.6818366998341,,,,446.78197219991125,447.69769990001805,447.69769990001805,447.69769990001805,down,1.327898799907416,None,None,,,,,,,,,,,,,,,,,P135,001,2025-03-26_14h57.56.544,posner_endo_new1,2024.2.4,60.016840672067296,2025-03-26 14h58.02.805675 +0000,
cube_l.png,0.1,0.31,invalid,2,2,0,down,0.5388495000079274,None,space,0.4079528998117894,None,,,,,0,2,2,2,,,,,447.69769990001805,,,,,,,,,,,,,447.6821013998706,447.69769990001805,447.69769990001805,447.69769990001805,448.24827339989133,,,,448.2598364998121,448.2700630000327,448.2700630000327,448.3139376998879,448.3142882999964,448.33030719985254,448.33030719985254,448.33030719985254,448.41372079984285,448.74775719991885,,,,,,,,down,0.5388495000079274,None,space,0.4079528998117894,None,,,,,,,,,,,,,,,P135,001,2025-03-26_14h57.56.544,posner_endo_new1,2024.2.4,60.016840672067296,2025-03-26 14h58.02.805675 +0000,
cube_l.png,0.1,0.31,invalid,3,3,0,down,2.0729926999192685,None,space,0.36027700011618435,None,,,,,0,3,3,3,,,,,448.7632360998541,,,,,,,,,,,,,448.74805519985966,448.7632360998541,448.7632360998541,448.7632360998541,450.84556059981696,,,,450.85709599987604,450.86730139981955,450.86730139981955,450.91124239983037,450.91159019991755,450.92773370002396,450.92773370002396,450.92773370002396,451.0109782998916,451.2952648999635,,,,,,,,down,2.0729926999192685,None,space,0.36027700011618435,None,,,,,,,,,,,,,,,P135,001,2025-03-26_14h57.56.544,posner_endo_new1,2024.2.4,60.016840672067296,2025-03-26 14h58.02.805675 +0000,
cube_l.png,0.1,-0.31,valid,4,4,0,down,7.214450000086799,None,space,0.30540150008164346,None,,,,,0,4,4,4,,,,,451.31061219982803,,,,,,,,,,,,,451.29555299994536,451.31061219982803,451.31061219982803,451.31061219982803,458.53775499993935,,,,458.54634339991026,458.5563580999151,458.5563580999151,458.60333830001764,458.6035664998926,458.6197087999899,458.6197087999899,458.6197087999899,458.70303629990667,458.93679189984687,,,,,,,,down,7.214450000086799,None,space,0.30540150008164346,None,,,,,,,,,,,,,,,P135,001,2025-03-26_14h57.56.544,posner_endo_new1,2024.2.4,60.016840672067296,2025-03-26 14h58.02.805675 +0000,
cube_r.png,0.1,-0.31,invalid,5,5,0,down,3.0364934999961406,None,space,0.4336308999918401,None,,,,,0,5,5,5,,,,,458.95271270000376,,,,,,,,,,,,,458.93696870002896,458.95271270000376,458.95271270000376,458.95271270000376,462.000203399919,,,,462.0061974998098,462.01784989982843,462.01784989982843,462.0664472999051,462.0666726999916,462.08291079988703,462.08291079988703,462.08291079988703,462.1495506998617,462.5333145998884,,,,,,,,down,3.0364934999961406,None,space,0.4336308999918401,None,,,,,,,,,,,,,,,P135,001,2025-03-26_14h57.56.544,posner_endo_new1,2024.2.4,60.016840672067296,2025-03-26 14h58.02.805675 +0000,
cube_r.png,0.1,0.31,valid,6,6,0,down,2.4952430000994354,None,space,0.44054699991829693,None,,,,,0,6,6,6,,,,,462.54920289991423,,,,,,,,,,,,,462.5334909998346,462.54920289991423,462.54920289991423,462.54920289991423,465.04710639989935,,,,465.0530727999285,465.06480429996736,465.06480429996736,465.11318919993937,465.113413099898,465.1297676998656,465.1297676998656,465.1297676998656,465.1962278999854,465.5800885998178,,,,,,,,down,2.4952430000994354,None,space,0.44054699991829693,None,,,,,,,,,,,,,,,P135,001,2025-03-26_14h57.56.544,posner_endo_new1,2024.2.4,60.016840672067296,2025-03-26 14h58.02.805675 +0000,
cube_r.png,0.1,-0.31,invalid,7,7,0,down,3.6564882998354733,None,space,0.3947334000840783,None,,,,,0,7,7,7,,,,,465.59593329997733,,,,,,,,,,,,,465.5802641999908,465.59593329997733,465.59593329997733,465.59593329997733,469.25998279987834,,,,469.2716955000069,469.28205449995585,469.28205449995585,469.3256392998155,469.3259839999955,469.3421978999395,469.3421978999395,469.3421978999395,469.4253677998204,469.7431199999992,,,,,,,,down,3.6564882998354733,None,space,0.3947334000840783,None,,,,,,,,,,,,,,,P135,001,2025-03-26_14h57.56.544,posner_endo_new1,2024.2.4,60.016840672067296,2025-03-26 14h58.02.805675 +0000,
cube_l.png,0.1,-0.31,valid,8,8,0,down,3.5266251999419183,None,space,0.39056630013510585,None,,,,,0,8,8,8,,,,,469.7584959999658,,,,,,,,,,,,,469.7434033998288,469.7584959999658,469.7584959999658,469.7584959999658,473.2894191998057,,,,473.3010464999825,473.31133789988235,473.31133789988235,473.35486499988474,473.35521820001304,473.3713223999366,473.3713223999366,473.3713223999366,473.45461879996583,473.7721181998495,,,,,,,,down,3.5266251999419183,None,space,0.39056630013510585,None,,,,,,,,,,,,,,,P135,001,2025-03-26_14h57.56.544,posner_endo_new1,2024.2.4,60.016840672067296,2025-03-26 14h58.02.805675 +0000,
cube_r.png,0.1,-0.31,invalid,9,9,0,down,3.6889329999685287,None,space,0.39730199985206127,None,,,,,0,9,9,9,,,,,473.7876099999994,,,,,,,,,,,,,473.7724069999531,473.7876099999994,473.7876099999994,473.7876099999994,477.4843466000166,,,,477.49048599996604,477.5021923999302,477.5021923999302,477.5504125999287,477.5509234999772,477.56737089995295,477.56737089995295,477.56737089995295,477.6336230998859,477.9678593999706,,,,,,,,down,3.6889329999685287,None,space,0.39730199985206127,None,,,,,,,,,,,,,,,P135,001,2025-03-26_14h57.56.544,posner_endo_new1,2024.2.4,60.016840672067296,2025-03-26 14h58.02.805675 +0000,
cube_l.png,0.1,0.31,invalid,10,10,0,down,3.2771113999187946,None,space,0.37043639994226396,None,,,,,0,10,10,10,,,,,477.9831733999308,,,,,,,,,,,,,477.96814489993267,477.9831733999308,477.9831733999308,477.9831733999308,481.2645282000303,,,,481.27634179987945,481.28693269984797,481.28693269984797,481.3300620999653,481.33041189983487,481.34647779981606,481.34647779981606,481.34647779981606,481.42975429981016,481.73065589996986,,,,,,,,down,3.2771113999187946,None,space,0.37043639994226396,None,,,,,,,,,,,,,,,P135,001,2025-03-26_14h57.56.544,posner_endo_new1,2024.2.4,60.016840672067296,2025-03-26 14h58.02.805675 +0000,
cube_r.png,0.1,-0.31,invalid,11,11,0,down,3.8022986000869423,None,space,0.34210909996181726,None,,,,,0,11,11,11,,,,,481.7461363999173,,,,,,,,,,,,,481.7309685999062,481.7461363999173,481.7461363999173,481.7461363999173,485.56010449980386,,,,485.5716746998951,485.5822184998542,485.5822184998542,485.6256858999841,485.62603139993735,485.64210449997336,485.64210449997336,485.64210449997336,485.7253701000009,485.99298169999383,,,,,,,,down,3.8022986000869423,None,space,0.34210909996181726,None,,,,,,,,,,,,,,,P135,001,2025-03-26_14h57.56.544,posner_endo_new1,2024.2.4,60.016840672067296,2025-03-26 14h58.02.805675 +0000,
cube_r.png,0.1,0.31,valid,12,12,0,down,3.507856300100684,None,space,0.3765424001030624,None,,,,,0,12,12,12,,,,,486.00847160001285,,,,,,,,,,,,,485.9932724998798,486.00847160001285,486.00847160001285,486.00847160001285,489.52272249991074,,,,489.53315229993314,489.5426682999823,489.5426682999823,489.58826739992946,489.58850449998863,489.6048647998832,489.6048647998832,489.6048647998832,489.68794459989294,489.9881052998826,,,,,,,,down,3.507856300100684,None,space,0.3765424001030624,None,,,,,,,,,,,,,,,P135,001,2025-03-26_14h57.56.544,posner_endo_new1,2024.2.4,60.016840672067296,2025-03-26 14h58.02.805675 +0000,
cube_l.png,0.1,10,catch,13,13,0,down,4.2802850001025945,None,None,,,,,,,0,13,13,13,,,,,490.00434489990585,,,,,,,,,,,,,489.9882887999993,490.00434489990585,490.00434489990585,490.00434489990585,494.30081649986096,,,,494.3078562000301,494.31953229987994,494.31953229987994,494.36666599987075,494.3668903999496,494.3832820998505,494.3832820998505,494.3832820998505,494.46641629980877,497.3806633998174,,,,496.48112679994665,497.39674779982306,497.39674779982306,497.39674779982306,down,4.2802850001025945,None,None,,,,,,,,,,,,,,,,,P135,001,2025-03-26_14h57.56.544,posner_endo_new1,2024.2.4,60.016840672067296,2025-03-26 14h58.02.805675 +0000,
cube_r.png,0.1,-0.31,invalid,14,14,0,down,3.3044507999438792,None,space,0.41786690009757876,None,,,,,0,14,14,14,,,,,497.39674779982306,,,,,,,,,,,,,497.380822799867,497.39674779982306,497.39674779982306,497.39674779982306,500.7107738999184,,,,500.7168498998508,500.7286498998292,500.7286498998292,500.7766445998568,500.7768676998094,500.7933592000045,500.7933592000045,500.7933592000045,500.85996269993484,501.22695319983177,,,,,,,,down,3.3044507999438792,None,space,0.41786690009757876,None,,,,,,,,,,,,,,,P135,001,2025-03-26_14h57.56.544,posner_endo_new1,2024.2.4,60.016840672067296,2025-03-26 14h58.02.805675 +0000,
cube_l.png,0.1,-0.31,valid,15,15,0,down,5.793716200161725,None,space,0.45178850018419325,None,,,,,0,15,15,15,,,,,501.24265119992197,,,,,,,,,,,,,501.22712169983424,501.24265119992197,501.24265119992197,501.24265119992197,507.03828179999255,,,,507.0498502999544,507.06028259987943,507.06028259987943,507.1036389998626,507.1039934998844,507.1202196998056,507.1202196998056,507.1202196998056,507.2034361998085,507.58741599996574,,,,,,,,down,5.793716200161725,None,space,0.45178850018419325,None,,,,,,,,,,,,,,,P135,001,2025-03-26_14h57.56.544,posner_endo_new1,2024.2.4,60.016840672067296,2025-03-26 14h58.02.805675 +0000,
cube_r.png,0.1,10,catch,16,16,0,down,2.577779100043699,None,None,,,,,,,0,16,16,16,,,,,507.6029176998418,,,,,,,,,,,,,507.5877115998883,507.6029176998418,507.6029176998418,507.6029176998418,510.18502869992517,,,,510.1965920999646,510.20690069999546,510.20690069999546,510.2504376999568,510.25079149985686,510.26695369998924,510.26695369998924,510.26695369998924,510.3501613999251,513.2645846998785,,,,512.364824899938,513.2805492999032,513.2805492999032,513.2805492999032,down,2.577779100043699,None,None,,,,,,,,,,,,,,,,,P135,001,2025-03-26_14h57.56.544,posner_endo_new1,2024.2.4,60.016840672067296,2025-03-26 14h58.02.805675 +0000,
cube_r.png,0.1,10,catch,17,17,0,down,0.18851130013354123,None,None,,,,,,,0,17,17,17,,,,,513.2805492999032,,,,,,,,,,,,,513.2648663998116,513.2805492999032,513.2805492999032,513.2805492999032,513.4814344998449,,,,513.4930107998662,513.5033013999928,513.5033013999928,513.5470257999841,513.5473706999328,513.563589300029,513.563589300029,513.563589300029,513.6468209999148,516.5613769998308,,,,515.6614222999196,516.5772734999191,516.5772734999191,516.5772734999191,down,0.18851130013354123,None,None,,,,,,,,,,,,,,,,,P135,001,2025-03-26_14h57.56.544,posner_endo_new1,2024.2.4,60.016840672067296,2025-03-26 14h58.02.805675 +0000,
cube_l.png,0.1,0.31,invalid,18,18,0,down,3.6600571000017226,None,space,0.3927662998903543,None,,,,,0,18,18,18,,,,,516.5772734999191,,,,,,,,,,,,,516.5616530999541,516.5772734999191,516.5772734999191,516.5772734999191,520.2413666998036,,,,520.2530251999851,520.2633392999414,520.2633392999414,520.306849999819,520.3071967998985,520.3233182998374,520.3233182998374,520.3233182998374,520.4065802998375,520.7241544998251,,,,,,,,down,3.6600571000017226,None,space,0.3927662998903543,None,,,,,,,,,,,,,,,P135,001,2025-03-26_14h57.56.544,posner_endo_new1,2024.2.4,60.016840672067296,2025-03-26 14h58.02.805675 +0000,
cube_l.png,0.1,10,catch,19,19,0,down,5.321738400030881,None,None,,,,,,,0,19,19,19,,,,,520.7395525998436,,,,,,,,,,,,,520.7244477998465,520.7395525998436,520.7395525998436,520.7395525998436,526.06870409986,,,,526.0803231999744,526.090648900019,526.090648900019,526.134236099897,526.1345877998974,526.1506717000157,526.1506717000157,526.1506717000157,526.2339446998667,529.1483728999738,,,,528.2485940998886,529.1642320000101,529.1642320000101,529.1642320000101,down,5.321738400030881,None,None,,,,,,,,,,,,,,,,,P135,001,2025-03-26_14h57.56.544,posner_endo_new1,2024.2.4,60.016840672067296,2025-03-26 14h58.02.805675 +0000,
cube_l.png,0.1,0.31,invalid,20,20,0,down,0.16035680007189512,None,space,0.4283119000028819,None,,,,,0,20,20,20,,,,,529.1642320000101,,,,,,,,,,,,,529.1486426999327,529.1642320000101,529.1642320000101,529.1642320000101,529.3318725998979,,,,529.3434800999239,529.3537267998327,529.3537267998327,529.3974305999,529.3977822999004,529.4140657999087,529.4140657999087,529.4140657999087,529.4973292998038,529.8481283998117,,,,,,,,down,0.16035680007189512,None,space,0.4283119000028819,None,,,,,,,,,,,,,,,P135,001,2025-03-26_14h57.56.544,posner_endo_new1,2024.2.4,60.016840672067296,2025-03-26 14h58.02.805675 +0000,
cube_l.png,0.1,-0.31,valid,21,21,0,down,5.292984300060198,None,space,0.6038806000724435,None,,,,,0,21,21,21,,,,,529.8636566998903,,,,,,,,,,,,,529.8484396999702,529.8636566998903,529.8636566998903,529.8636566998903,535.1594336999115,,,,535.1709961998276,535.1812894998584,535.1812894998584,535.2249272998888,535.2252747998573,535.2413531998172,535.2413531998172,535.2413531998172,535.3247689998243,535.8586356998421,,,,,,,,down,5.292984300060198,None,space,0.6038806000724435,None,,,,,,,,,,,,,,,P135,001,2025-03-26_14h57.56.544,posner_endo_new1,2024.2.4,60.016840672067296,2025-03-26 14h58.02.805675 +0000,
cube_r.png,0.1,0.31,valid,22,22,0,down,3.418547500157729,None,space,1.0305492000188679,None,,,,,0,22,22,22,,,,,535.8741735999938,,,,,,,,,,,,,535.8589311998803,535.8741735999938,535.8741735999938,535.8741735999938,539.3045993000269,,,,539.3105867998675,539.3223401999567,539.3223401999567,539.3707198998891,539.3709473998751,539.387061299989,539.387061299989,539.387061299989,539.4536125999875,540.4203513998073,,,,,,,,down,3.418547500157729,None,space,1.0305492000188679,None,,,,,,,,,,,,,,,P135,001,2025-03-26_14h57.56.544,posner_endo_new1,2024.2.4,60.016840672067296,2025-03-26 14h58.02.805675 +0000,
cube_r.png,0.1,-0.31,invalid,23,23,0,down,3.232730299932882,None,space,0.5934123999904841,None,,,,,0,23,23,23,,,,,540.436141599901,,,,,,,,,,,,,540.4205236998387,540.436141599901,540.436141599901,540.436141599901,543.683952299878,,,,543.6954554999247,543.7058792999014,543.7058792999014,543.7495200999547,543.7498719999567,543.7660415999126,543.7660415999126,543.7660415999126,543.8492652999703,544.3663679999299,,,,,,,,down,3.232730299932882,None,space,0.5934123999904841,None,,,,,,,,,,,,,,,P135,001,2025-03-26_14h57.56.544,posner_endo_new1,2024.2.4,60.016840672067296,2025-03-26 14h58.02.805675 +0000,
cube_r.png,0.1,0.31,valid,24,24,0,down,3.2146513999905437,None,space,0.4461465999484062,None,,,,,0,24,24,24,,,,,544.3820725998376,,,,,,,,,,,,,544.3666536998935,544.3820725998376,544.3820725998376,544.3820725998376,547.613252799958,,,,547.6249290998094,547.6348498999141,547.6348498999141,547.678776799934,547.6791213999968,547.6953391998541,547.6953391998541,547.6953391998541,547.7784151998349,548.1460655999836,,,,,,,,down,3.2146513999905437,None,space,0.4461465999484062,None,,,,,,,,,,,,,,,P135,001,2025-03-26_14h57.56.544,posner_endo_new1,2024.2.4,60.016840672067296,2025-03-26 14h58.02.805675 +0000,
cube_r.png,0.1,-0.31,invalid,25,25,0,down,3.451405300060287,None,space,0.4104657999705523,None,,,,,0,25,25,25,,,,,548.1614804000128,,,,,,,,,,,,,548.1463560999837,548.1614804000128,548.1614804000128,548.1614804000128,551.625851099845,,,,551.6349956998602,551.6447299998254,551.6447299998254,551.6913733999245,551.6916114999913,551.707824899815,551.707824899815,551.707824899815,551.7910250998102,552.1248073999304,,,,,,,,down,3.451405300060287,None,space,0.4104657999705523,None,,,,,,,,,,,,,,,P135,001,2025-03-26_14h57.56.544,posner_endo_new1,2024.2.4,60.016840672067296,2025-03-26 14h58.02.805675 +0000,
cube_l.png,0.1,-0.31,valid,26,26,0,down,3.3361873999238014,None,space,0.3777231997810304,None,,,,,0,26,26,26,,,,,552.1407443999778,,,,,,,,,,,,,552.12499079993,552.1407443999778,552.1407443999778,552.1407443999778,555.4881213998888,,,,555.495082499925,555.506641099928,555.506641099928,555.5539000998251,555.5544101998676,555.5703510998283,555.5703510998283,555.5703510998283,555.6535946999211,555.9550320999697,,,,,,,,down,3.3361873999238014,None,space,0.3777231997810304,None,,,,,,,,,,,,,,,P135,001,2025-03-26_14h57.56.544,posner_endo_new1,2024.2.4,60.016840672067296,2025-03-26 14h58.02.805675 +0000,
cube_r.png,0.1,0.31,valid,27,27,0,down,3.5151240997947752,None,space,0.4075235000345856,None,,,,,0,27,27,27,,,,,555.96993809985,,,,,,,,,,,,,555.9554636999965,555.96993809985,555.96993809985,555.96993809985,559.5010024998337,,,,559.512083399808,559.5223071998917,559.5223071998917,559.5666637998074,559.5670011998154,559.583236000035,559.583236000035,559.583236000035,559.6664807999041,560.0004963998217,,,,,,,,down,3.5151240997947752,None,space,0.4075235000345856,None,,,,,,,,,,,,,,,P135,001,2025-03-26_14h57.56.544,posner_endo_new1,2024.2.4,60.016840672067296,2025-03-26 14h58.02.805675 +0000,
cube_r.png,0.1,10,catch,28,28,0,down,3.8206050998996943,None,None,,,,,,,0,28,28,28,,,,,560.0160574000329,,,,,,,,,,,,,560.0007960000075,560.0160574000329,560.0160574000329,560.0160574000329,563.8465680999216,,,,563.8575583999045,563.8677631998435,563.8677631998435,563.9122102998663,563.9125414998271,563.9286460999865,563.9286460999865,563.9286460999865,564.011945999926,566.926299299812,,,,566.0265224999748,566.9423926998861,566.9423926998861,566.9423926998861,down,3.8206050998996943,None,None,,,,,,,,,,,,,,,,,P135,001,2025-03-26_14h57.56.544,posner_endo_new1,2024.2.4,60.016840672067296,2025-03-26 14h58.02.805675 +0000,
cube_r.png,0.1,0.31,valid,29,29,0,down,0.2943170000799,None,space,0.4962132000364363,None,,,,,0,29,29,29,,,,,566.9423926998861,,,,,,,,,,,,,566.9265615998302,566.9423926998861,566.9423926998861,566.9423926998861,567.2430710999761,,,,567.2540282998234,567.26419479982,567.26419479982,567.3087432999164,567.3090758000035,567.3252109999303,567.3252109999303,567.3252109999303,567.4084421999287,567.8258028998971,,,,,,,,down,0.2943170000799,None,space,0.4962132000364363,None,,,,,,,,,,,,,,,P135,001,2025-03-26_14h57.56.544,posner_endo_new1,2024.2.4,60.016840672067296,2025-03-26 14h58.02.805675 +0000,
cube_r.png,0.1,0.31,valid,30,30,0,down,6.266866599908099,None,space,0.4355127001181245,None,,,,,0,30,30,30,,,,,567.8413706999272,,,,,,,,,,,,,567.8260740998667,567.8413706999272,567.8413706999272,567.8413706999272,574.1193087999709,,,,574.1304210999515,574.1405923999846,574.1405923999846,574.1849155998789,574.185253100004,574.2015388000291,574.2015388000291,574.2015388000291,574.2847252998035,574.652129399823,,,,,,,,down,6.266866599908099,None,space,0.4355127001181245,None,,,,,,,,,,,,,,,P135,001,2025-03-26_14h57.56.544,posner_endo_new1,2024.2.4,60.016840672067296,2025-03-26 14h58.02.805675 +0000,
cube_l.png,0.1,-0.31,valid,31,31,0,down,3.3928282000124454,None,space,0.4747915000189096,None,,,,,0,31,31,31,,,,,574.6677441999782,,,,,,,,,,,,,574.6524002999067,574.6677441999782,574.6677441999782,574.6677441999782,578.065601499984,,,,578.0766523999628,578.086846599821,578.086846599821,578.1309823000338,578.131313999882,578.14747909992,578.14747909992,578.14747909992,578.2307292998303,578.6313999998383,,,,,,,,down,3.3928282000124454,None,space,0.4747915000189096,None,,,,,,,,,,,,,,,P135,001,2025-03-26_14h57.56.544,posner_endo_new1,2024.2.4,60.016840672067296,2025-03-26 14h58.02.805675 +0000,
cube_r.png,0.1,0.31,valid,32,32,0,down,3.2375963001977652,None,space,0.4297641001176089,None,,,,,0,32,32,32,,,,,578.6469455999322,,,,,,,,,,,,,578.6316713998094,578.6469455999322,578.6469455999322,578.6469455999322,581.894792499952,,,,581.9040355000179,581.9138338998891,581.9138338998891,581.960359599907,581.9605998999905,581.9769351999275,581.9769351999275,581.9769351999275,582.0602072000038,582.4106054999866,,,,,,,,down,3.2375963001977652,None,space,0.4297641001176089,None,,,,,,,,,,,,,,,P135,001,2025-03-26_14h57.56.544,posner_endo_new1,2024.2.4,60.016840672067296,2025-03-26 14h58.02.805675 +0000,
cube_r.png,0.1,-0.31,invalid,33,33,0,down,3.593969900161028,None,space,0.3918792000040412,None,,,,,0,33,33,33,,,,,582.4263319999445,,,,,,,,,,,,,582.4108072998933,582.4263319999445,582.4263319999445,582.4263319999445,586.0237481999211,,,,586.0334764998406,586.0436166999862,586.0436166999862,586.0894553998951,586.0897617998999,586.1059850999154,586.1059850999154,586.1059850999154,586.1894012999255,586.506691499846,,,,,,,,down,3.593969900161028,None,space,0.3918792000040412,None,,,,,,,,,,,,,,,P135,001,2025-03-26_14h57.56.544,posner_endo_new1,2024.2.4,60.016840672067296,2025-03-26 14h58.02.805675 +0000,
cube_r.png,0.1,10,catch,34,34,0,down,3.9069964000955224,None,None,,,,,,,0,34,34,34,,,,,586.522233299911,,,,,,,,,,,,,586.5069440000225,586.522233299911,586.522233299911,586.522233299911,590.4359420998953,,,,590.445613999851,590.4558659000322,590.4558659000322,590.5017005000263,590.5020124998409,590.518182199914,590.518182199914,590.518182199914,590.6012773998082,593.5158122999128,,,,592.6159961998928,593.5316055000294,593.5316055000294,593.5316055000294,down,3.9069964000955224,None,None,,,,,,,,,,,,,,,,,P135,001,2025-03-26_14h57.56.544,posner_endo_new1,2024.2.4,60.016840672067296,2025-03-26 14h58.02.805675 +0000,
cube_r.png,0.1,0.31,valid,35,35,0,down,0.5855769000481814,None,space,0.39347700006328523,None,,,,,0,35,35,35,,,,,593.5316055000294,,,,,,,,,,,,,593.516040999908,593.5316055000294,593.5316055000294,593.5316055000294,594.1321545999963,,,,594.1417689998634,594.1519410000183,594.1519410000183,594.1978565999307,594.1981686998624,594.2144855998922,594.2144855998922,594.2144855998922,594.2975538999308,594.615013099974,,,,,,,,down,0.5855769000481814,None,space,0.39347700006328523,None,,,,,,,,,,,,,,,P135,001,2025-03-26_14h57.56.544,posner_endo_new1,2024.2.4,60.016840672067296,2025-03-26 14h58.02.805675 +0000,
cube_r.png,0.1,-0.31,invalid,36,36,0,down,2.9498174998443574,None,space,0.5477127998601645,None,,,,,0,36,36,36,,,,,594.6305994000286,,,,,,,,,,,,,594.6152617998887,594.6305994000286,594.6305994000286,594.6305994000286,597.5951890998986,,,,597.6047686999664,597.6149585999083,597.6149585999083,597.6610739999451,597.6613966999575,597.6775156999938,597.6775156999938,597.6775156999938,597.7607905999757,598.2281217998825,,,,,,,,down,2.9498174998443574,None,space,0.5477127998601645,None,,,,,,,,,,,,,,,P135,001,2025-03-26_14h57.56.544,posner_endo_new1,2024.2.4,60.016840672067296,2025-03-26 14h58.02.805675 +0000,
cube_l.png,0.1,0.31,invalid,37,37,0,down,6.392826399998739,None,space,0.5161039000377059,None,,,,,0,37,37,37,,,,,598.2435695999302,,,,,,,,,,,,,598.2283828000072,598.2435695999302,598.2435695999302,598.2435695999302,604.6381850999314,,,,604.6478963999543,604.6580705998931,604.6580705998931,604.70386579982,604.7041724999435,604.7203240999952,604.7203240999952,604.7203240999952,604.8035716000013,605.237637899816,,,,,,,,down,6.392826399998739,None,space,0.5161039000377059,None,,,,,,,,,,,,,,,P135,001,2025-03-26_14h57.56.544,posner_endo_new1,2024.2.4,60.016840672067296,2025-03-26 14h58.02.805675 +0000,
cube_l.png,0.1,0.31,invalid,38,38,0,down,3.7600744999945164,None,space,0.4687717999331653,None,,,,,0,38,38,38,,,,,605.2531500000041,,,,,,,,,,,,,605.2378860998433,605.2531500000041,605.2531500000041,605.2531500000041,609.0170964000281,,,,609.0268182000145,609.0371511999983,609.0371511999983,609.0826885998249,609.0829950999469,609.0991477998905,609.0991477998905,609.0991477998905,609.1825083999429,609.5831690998748,,,,,,,,down,3.7600744999945164,None,space,0.4687717999331653,None,,,,,,,,,,,,,,,P135,001,2025-03-26_14h57.56.544,posner_endo_new1,2024.2.4,60.016840672067296,2025-03-26 14h58.02.805675 +0000,
cube_r.png,0.1,0.31,valid,39,39,0,down,2.9261373998597264,None,space,0.49409900000318885,None,,,,,0,39,39,39,,,,,609.5986251998693,,,,,,,,,,,,,609.5834230999462,609.5986251998693,609.5986251998693,609.5986251998693,612.529925899813,,,,612.5395460999571,612.5497276999522,612.5497276999522,612.5956560999621,612.5959621998481,612.6123034998309,612.6123034998309,612.6123034998309,612.6954622999765,613.1128080999479,,,,,,,,down,2.9261373998597264,None,space,0.49409900000318885,None,,,,,,,,,,,,,,,P135,001,2025-03-26_14h57.56.544,posner_endo_new1,2024.2.4,60.016840672067296,2025-03-26 14h58.02.805675 +0000,
cube_l.png,0.1,0.31,invalid,40,40,0,down,2.2600624000187963,None,space,0.45063269999809563,None,,,,,0,40,40,40,,,,,613.1283891999628,,,,,,,,,,,,,613.1130666998215,613.1283891999628,613.1283891999628,613.1283891999628,615.3937252999749,,,,615.4033637999091,615.413662099978,615.413662099978,615.4594980999827,615.4598044999875,615.4759861999191,615.4759861999191,615.4759861999191,615.5592379998416,615.9432210000232,,,,,,,,down,2.2600624000187963,None,space,0.45063269999809563,None,,,,,,,,,,,,,,,P135,001,2025-03-26_14h57.56.544,posner_endo_new1,2024.2.4,60.016840672067296,2025-03-26 14h58.02.805675 +0000,
cube_l.png,0.1,10,catch,41,41,0,down,3.5900012000929564,None,None,,,,,,,0,41,41,41,,,,,615.9586840998381,,,,,,,,,,,,,615.9434672999196,615.9586840998381,615.9586840998381,615.9586840998381,619.5561473998241,,,,619.5658829000313,619.5760299998801,619.5760299998801,619.621865699999,619.6221799999475,619.6383312998805,619.6383312998805,619.6383312998805,619.7215676000342,622.6359377999324,,,,621.7363528998103,622.6519901999272,622.6519901999272,622.6519901999272,down,3.5900012000929564,None,None,,,,,,,,,,,,,,,,,P135,001,2025-03-26_14h57.56.544,posner_endo_new1,2024.2.4,60.016840672067296,2025-03-26 14h58.02.805675 +0000,
cube_l.png,0.1,-0.31,valid,42,42,0,down,0.25700840004719794,None,space,0.6909314000513405,None,,,,,0,42,42,42,,,,,622.6519901999272,,,,,,,,,,,,,622.6361789000221,622.6519901999272,622.6519901999272,622.6519901999272,622.9191572000273,,,,622.9286995998118,622.9389857000206,622.9389857000206,622.9850990998093,622.9854027999099,623.0016105999239,623.0016105999239,623.0016105999239,623.0848081000149,623.7018858999945,,,,,,,,down,0.25700840004719794,None,space,0.6909314000513405,None,,,,,,,,,,,,,,,P135,001,2025-03-26_14h57.56.544,posner_endo_new1,2024.2.4,60.016840672067296,2025-03-26 14h58.02.805675 +0000,
cube_l.png,0.1,10,catch,43,43,0,down,3.007506199879572,None,None,,,,,,,0,43,43,43,,,,,623.7175463999156,,,,,,,,,,,,,623.7021404998377,623.7175463999156,623.7175463999156,623.7175463999156,626.7321343999356,,,,626.7419540998526,626.7520767999813,626.7520767999813,626.7978445999324,626.798155499855,626.8143292998429,626.8143292998429,626.8143292998429,626.897599299904,629.8119338999968,,,,628.9122611999046,629.8279203998391,629.8279203998391,629.8279203998391,down,3.007506199879572,None,None,,,,,,,,,,,,,,,,,P135,001,2025-03-26_14h57.56.544,posner_endo_new1,2024.2.4,60.016840672067296,2025-03-26 14h58.02.805675 +0000,
cube_l.png,0.1,0.31,invalid,44,44,0,down,1.7685794001445174,None,space,0.3934619000647217,None,,,,,0,44,44,44,,,,,629.8279203998391,,,,,,,,,,,,,629.8121698999312,629.8279203998391,629.8279203998391,629.8279203998391,631.6105233000126,,,,631.6202334999107,631.6304474000353,631.6304474000353,631.6761735000182,631.6764822998084,631.6927650999278,631.6927650999278,631.6927650999278,631.7759789000265,632.0933572999202,,,,,,,,down,1.7685794001445174,None,space,0.3934619000647217,None,,,,,,,,,,,,,,,P135,001,2025-03-26_14h57.56.544,posner_endo_new1,2024.2.4,60.016840672067296,2025-03-26 14h58.02.805675 +0000,
cube_l.png,0.1,0.31,invalid,45,45,0,down,3.503742900211364,None,space,0.5988184998277575,None,,,,,0,45,45,45,,,,,632.10891239997,,,,,,,,,,,,,632.0936090999749,632.10891239997,632.10891239997,632.10891239997,635.6228057998233,,,,635.6320974999107,635.6418645998929,635.6418645998929,635.6886408999562,635.6888647999149,635.7052451998461,635.7052451998461,635.7052451998461,635.788384999847,636.3055143000092,,,,,,,,down,3.503742900211364,None,space,0.5988184998277575,None,,,,,,,,,,,,,,,P135,001,2025-03-26_14h57.56.544,posner_endo_new1,2024.2.4,60.016840672067296,2025-03-26 14h58.02.805675 +0000,
cube_r.png,0.1,0.31,valid,46,46,0,down,3.2590099999215454,None,space,0.4866082000080496,None,,,,,0,46,46,46,,,,,636.3212903998792,,,,,,,,,,,,,636.3056871998124,636.3212903998792,636.3212903998792,636.3212903998792,639.5853593999054,,,,639.5929562998936,639.6041711999569,639.6041711999569,639.651338199852,639.6518851998262,639.6677147999872,639.6677147999872,639.6677147999872,639.7509896999691,640.1692096998449,,,,,,,,down,3.2590099999215454,None,space,0.4866082000080496,None,,,,,,,,,,,,,,,P135,001,2025-03-26_14h57.56.544,posner_endo_new1,2024.2.4,60.016840672067296,2025-03-26 14h58.02.805675 +0000,
cube_l.png,0.1,-0.31,valid,47,47,0,down,5.740559600060806,None,space,0.3677424001507461,None,,,,,0,47,47,47,,,,,640.1838712999597,,,,,,,,,,,,,640.1696782999206,640.1838712999597,640.1838712999597,640.1838712999597,645.9301127998624,,,,645.9489931999706,645.9597208998166,645.9597208998166,645.994817599887,645.9951327999588,646.0113091999665,646.0113091999665,646.0113091999665,646.0946157998405,646.3952438000124,,,,,,,,down,5.740559600060806,None,space,0.3677424001507461,None,,,,,,,,,,,,,,,P135,001,2025-03-26_14h57.56.544,posner_endo_new1,2024.2.4,60.016840672067296,2025-03-26 14h58.02.805675 +0000,
cube_r.png,0.1,-0.31,invalid,48,48,0,down,2.842010100139305,None,space,0.4175342998933047,None,,,,,0,48,48,48,,,,,646.4109266998712,,,,,,,,,,,,,646.3954987998586,646.4109266998712,646.4109266998712,646.4109266998712,649.2590832000133,,,,649.2689441000111,649.2792153998744,649.2792153998744,649.3247878998518,649.3250992000103,649.3412874999922,649.3412874999922,649.3412874999922,649.4245352998842,649.7754993999843,,,,,,,,down,2.842010100139305,None,space,0.4175342998933047,None,,,,,,,,,,,,,,,P135,001,2025-03-26_14h57.56.544,posner_endo_new1,2024.2.4,60.016840672067296,2025-03-26 14h58.02.805675 +0000,
cube_r.png,0.1,10,catch,49,49,0,down,3.0056740001309663,None,None,,,,,,,0,49,49,49,,,,,649.7908218000084,,,,,,,,,,,,,649.7757537998259,649.7908218000084,649.7908218000084,649.7908218000084,652.8064236999489,,,,652.8251612999011,652.8366209999658,652.8366209999658,652.8711414998397,652.8716936998535,652.8875498999842,652.8875498999842,652.8875498999842,652.9707470999565,655.8856074998621,,,,654.9853747999296,655.901148499921,655.901148499921,655.901148499921,down,3.0056740001309663,None,None,,,,,,,,,,,,,,,,,P135,001,2025-03-26_14h57.56.544,posner_endo_new1,2024.2.4,60.016840672067296,2025-03-26 14h58.02.805675 +0000,
cube_l.png,0.1,-0.31,valid,50,50,0,down,0.3837711000815034,None,space,0.4391737999394536,None,,,,,0,50,50,50,,,,,655.901148499921,,,,,,,,,,,,,655.88604449993,655.901148499921,655.901148499921,655.901148499921,656.3024774999358,,,,656.321250599809,656.3320310998242,656.3320310998242,656.3675658998545,656.3679110999219,656.3840626999736,656.3840626999736,656.3840626999736,656.4671612998936,656.8348792998586,,,,,,,,down,0.3837711000815034,None,space,0.4391737999394536,None,,,,,,,,,,,,,,,P135,001,2025-03-26_14h57.56.544,posner_endo_new1,2024.2.4,60.016840672067296,2025-03-26 14h58.02.805675 +0000,
cube_l.png,0.1,-0.31,valid,51,51,0,down,4.794068699935451,None,space,0.47540070000104606,None,,,,,0,51,51,51,,,,,656.8502791000064,,,,,,,,,,,,,656.8351816998329,656.8502791000064,656.8502791000064,656.8502791000064,661.6462491999846,,,,661.653121399926,661.6650584999006,661.6650584999006,661.7121702998411,661.7123987998348,661.728604399832,661.728604399832,661.728604399832,661.7952782998327,662.2122330998536,,,,,,,,down,4.794068699935451,None,space,0.47540070000104606,None,,,,,,,,,,,,,,,P135,001,2025-03-26_14h57.56.544,posner_endo_new1,2024.2.4,60.016840672067296,2025-03-26 14h58.02.805675 +0000,
cube_r.png,0.1,-0.31,invalid,52,52,0,down,3.152328799944371,None,space,0.42706599994562566,None,,,,,0,52,52,52,,,,,662.2281977999955,,,,,,,,,,,,,662.2124018999748,662.2281977999955,662.2281977999955,662.2281977999955,665.3921597998124,,,,665.3981955000199,665.4100023999345,665.4100023999345,665.4580633000005,665.45828599995,665.4749524998479,665.4749524998479,665.4749524998479,665.5413456999231,665.9082875000313,,,,,,,,down,3.152328799944371,None,space,0.42706599994562566,None,,,,,,,,,,,,,,,P135,001,2025-03-26_14h57.56.544,posner_endo_new1,2024.2.4,60.016840672067296,2025-03-26 14h58.02.805675 +0000,
cube_l.png,0.1,-0.31,valid,53,53,0,down,4.75232580001466,None,space,0.626327499980107,None,,,,,0,53,53,53,,,,,665.9243147999514,,,,,,,,,,,,,665.9084597998299,665.9243147999514,665.9243147999514,665.9243147999514,670.687159499852,,,,670.7018689999823,670.7124449999537,670.7124449999537,670.7525629999582,670.7530153999105,670.7689528998453,670.7689528998453,670.7689528998453,670.8522202998865,671.4033258999698,,,,,,,,down,4.75232580001466,None,space,0.626327499980107,None,,,,,,,,,,,,,,,P135,001,2025-03-26_14h57.56.544,posner_endo_new1,2024.2.4,60.016840672067296,2025-03-26 14h58.02.805675 +0000,
cube_r.png,0.1,10,catch,54,54,0,down,2.8340660999529064,None,None,,,,,,,0,54,54,54,,,,,671.4183058999479,,,,,,,,,,,,,671.4037099999841,671.4183058999479,671.4183058999479,671.4183058999479,674.2667733998969,,,,674.276670999825,674.2867295998149,674.2867295998149,674.3325487999246,674.3328553999308,674.3490595999174,674.3490595999174,674.3490595999174,674.4322430999018,677.3465030998923,,,,676.4469482998829,677.3626141999848,677.3626141999848,677.3626141999848,down,2.8340660999529064,None,None,,,,,,,,,,,,,,,,,P135,001,2025-03-26_14h57.56.544,posner_endo_new1,2024.2.4,60.016840672067296,2025-03-26 14h58.02.805675 +0000,
cube_l.png,0.1,0.31,invalid,55,55,0,down,0.2900947998277843,None,space,0.41682690009474754,None,,,,,0,55,55,55,,,,,677.3626141999848,,,,,,,,,,,,,677.346746899886,677.3626141999848,677.3626141999848,677.3626141999848,677.6633649999276,,,,677.673221899895,677.6833853998687,677.6833853998687,677.7290950999595,677.7294023998547,677.745665699942,677.745665699942,677.745665699942,677.8289474998601,678.179356199922,,,,,,,,down,0.2900947998277843,None,space,0.41682690009474754,None,,,,,,,,,,,,,,,P135,001,2025-03-26_14h57.56.544,posner_endo_new1,2024.2.4,60.016840672067296,2025-03-26 14h58.02.805675 +0000,
cube_l.png,0.1,-0.31,valid,56,56,0,down,3.2892900998704135,None,space,0.47115460014902055,None,,,,,0,56,56,56,,,,,678.1950810998678,,,,,,,,,,,,,678.1796204999555,678.1950810998678,678.1950810998678,678.1950810998678,681.4928182000294,,,,681.5020569998305,681.5116591998376,681.5116591998376,681.5585078999866,681.5587315999437,681.574846799951,681.574846799951,681.574846799951,681.6582503998652,682.058531699935,,,,,,,,down,3.2892900998704135,None,space,0.47115460014902055,None,,,,,,,,,,,,,,,P135,001,2025-03-26_14h57.56.544,posner_endo_new1,2024.2.4,60.016840672067296,2025-03-26 14h58.02.805675 +0000,
cube_r.png,0.1,0.31,valid,57,57,0,down,3.1700858999975026,None,space,0.3770951998885721,None,,,,,0,57,57,57,,,,,682.0743658998981,,,,,,,,,,,,,682.0587153998204,682.0743658998981,682.0743658998981,682.0743658998981,685.2551608998328,,,,685.2616474998649,685.273221799871,685.273221799871,685.3212662998121,685.3214938999154,685.3378985000309,685.3378985000309,685.3378985000309,685.4043680999894,685.7217241998296,,,,,,,,down,3.1700858999975026,None,space,0.3770951998885721,None,,,,,,,,,,,,,,,P135,001,2025-03-26_14h57.56.544,posner_endo_new1,2024.2.4,60.016840672067296,2025-03-26 14h58.02.805675 +0000,
cube_r.png,0.1,-0.31,invalid,58,58,0,down,4.4357231999747455,None,space,0.6198636000044644,None,,,,,0,58,58,58,,,,,685.7372734998353,,,,,,,,,,,,,685.7218971999828,685.7372734998353,685.7372734998353,685.7372734998353,690.1836093999445,,,,690.1896324998233,690.2012761000078,690.2012761000078,690.2495072998572,690.2497284999117,690.2661027999129,690.2661027999129,690.2661027999129,690.3328072999138,690.899407699937,,,,,,,,down,4.4357231999747455,None,space,0.6198636000044644,None,,,,,,,,,,,,,,,P135,001,2025-03-26_14h57.56.544,posner_endo_new1,2024.2.4,60.016840672067296,2025-03-26 14h58.02.805675 +0000,
cube_l.png,0.1,0.31,invalid,59,59,0,down,3.601288100006059,None,space,0.45390600012615323,None,,,,,0,59,59,59,,,,,690.91544110002,,,,,,,,,,,,,690.8995794998482,690.91544110002,690.91544110002,690.91544110002,694.5299101998098,,,,694.5471744998358,694.5588829999324,694.5588829999324,694.5950757998507,694.5953700998798,694.6115457999986,694.6115457999986,694.6115457999986,694.6948828999884,695.0790313000325,,,,,,,,down,3.601288100006059,None,space,0.45390600012615323,None,,,,,,,,,,,,,,,P135,001,2025-03-26_14h57.56.544,posner_endo_new1,2024.2.4,60.016840672067296,2025-03-26 14h58.02.805675 +0000,
,,,,,,,,,,,,,,,,,,,,,,,,,,,,,,,,,,,,,,,,,,,,,,,,,,,,,,,,,,,,,,,,,,,,,695.0791855999269,695.094267499866,695.094267499866,755.0997678998392,760.5119545999914,space,65.41442389995791,None,,,,,,,P135,001,2025-03-26_14h57.56.544,posner_endo_new1,2024.2.4,60.016840672067296,2025-03-26 14h58.02.805675 +0000,
,,,,,,,,,,,,,,,,,,,,,,,,,,,,,,,,,,760.5120400998276,760.5273901999462,763.6077074999921,763.508522799937,,,,,,,,,,,,,,,,,,,,,,,,,,,,,,,,,,,,,,,,,,,,,,P135,001,2025-03-26_14h57.56.544,posner_endo_new1,2024.2.4,60.016840672067296,2025-03-26 14h58.02.805675 +0000,
cube_l.png,0.1,10,catch,0,0,0,up,5.636483199894428,None,None,,,,,,,,,,,0,0,0,0,763.6077074999921,,,,,,,,,,,,,763.599431599956,763.6077074999921,763.6077074999921,763.6077074999921,769.2526560998522,,,,769.2586893998086,769.2702320998069,769.2702320998069,769.3186429999769,769.3188715998549,769.3351928999182,769.3351928999182,769.3351928999182,769.4018410998397,772.3326636999846,,,,771.41640249989,772.3486762999091,772.3486762999091,772.3486762999091,,,,,,,,,,,,,,,up,5.636483199894428,None,None,,,P135,001,2025-03-26_14h57.56.544,posner_endo_new1,2024.2.4,60.016840672067296,2025-03-26 14h58.02.805675 +0000,
cube_l.png,0.1,10,catch,1,1,0,up,0.039608099963516,None,None,,,,,,,,,,,0,1,1,1,772.3486762999091,,,,,,,,,,,,,772.3328261999413,772.3486762999091,772.3486762999091,772.3486762999091,772.3994183000177,,,,772.4054107998963,772.4169848999009,772.4169848999009,772.4652876998298,772.4655178999528,772.4819247999694,772.4819247999694,772.4819247999694,772.548529200023,775.4792011999525,,,,774.5629908998962,775.4954766000155,775.4954766000155,775.4954766000155,,,,,,,,,,,,,,,up,0.039608099963516,None,None,,,P135,001,2025-03-26_14h57.56.544,posner_endo_new1,2024.2.4,60.016840672067296,2025-03-26 14h58.02.805675 +0000,
cube_l.png,0.1,0.31,invalid,2,2,0,up,3.8140874998643994,None,space,0.4525854999665171,None,,,,,,,,,0,2,2,2,775.4954766000155,,,,,,,,,,,,,775.4793599999975,775.4954766000155,775.4954766000155,775.4954766000155,779.3261193998624,,,,779.3342889000196,779.344536599936,779.344536599936,779.3916713998187,779.3922263998538,779.4080824998673,779.4080824998673,779.4080824998673,779.4913047999144,779.8763347000349,,,,,,,,,,,,,,,,,,,,,,up,3.8140874998643994,None,space,0.4525854999665171,None,P135,001,2025-03-26_14h57.56.544,posner_endo_new1,2024.2.4,60.016840672067296,2025-03-26 14h58.02.805675 +0000,
cube_l.png,0.1,0.31,invalid,3,3,0,up,2.8255282000172883,None,space,0.45581199997104704,None,,,,,,,,,0,3,3,3,779.8909056999255,,,,,,,,,,,,,779.8768247999251,779.8909056999255,779.8909056999255,779.8909056999255,782.7232574999798,,,,782.7417417999823,782.753541899845,782.753541899845,782.7881192998029,782.7884118999355,782.8046881998889,782.8046881998889,782.8046881998889,782.8880311998073,783.2716446998529,,,,,,,,,,,,,,,,,,,,,,up,2.8255282000172883,None,space,0.45581199997104704,None,P135,001,2025-03-26_14h57.56.544,posner_endo_new1,2024.2.4,60.016840672067296,2025-03-26 14h58.02.805675 +0000,
cube_l.png,0.1,-0.31,valid,4,4,0,up,3.3973455999512225,None,space,0.44258969998918474,None,,,,,,,,,0,4,4,4,783.287467799848,,,,,,,,,,,,,783.271877199877,783.287467799848,783.287467799848,783.287467799848,786.7024111000355,,,,786.72093579988,786.7318197998684,786.7318197998684,786.7674364999402,786.7679921998642,786.7838675000239,786.7838675000239,786.7838675000239,786.867124899989,787.2355193998665,,,,,,,,,,,,,,,,,,,,,,up,3.3973455999512225,None,space,0.44258969998918474,None,P135,001,2025-03-26_14h57.56.544,posner_endo_new1,2024.2.4,60.016840672067296,2025-03-26 14h58.02.805675 +0000,
cube_r.png,0.1,-0.31,invalid,5,5,0,up,3.4747691999655217,None,space,0.4542741000186652,None,,,,,,,,,0,5,5,5,787.2500546998344,,,,,,,,,,,,,787.2360007998068,787.2500546998344,787.2500546998344,787.2500546998344,790.7318559000269,,,,790.7504532998428,790.7617309000343,790.7617309000343,790.79676930001,790.7971216000151,790.8131679999642,790.8131679999642,790.8131679999642,790.8964668000117,791.280533199897,,,,,,,,,,,,,,,,,,,,,,up,3.4747691999655217,None,space,0.4542741000186652,None,P135,001,2025-03-26_14h57.56.544,posner_endo_new1,2024.2.4,60.016840672067296,2025-03-26 14h58.02.805675 +0000,
cube_r.png,0.1,0.31,valid,6,6,0,up,4.389029199955985,None,space,0.5208823999855667,None,,,,,,,,,0,6,6,6,791.2960200000089,,,,,,,,,,,,,791.2808207999915,791.2960200000089,791.2960200000089,791.2960200000089,795.6933205998503,,,,795.7115360000171,795.7219268998597,795.7219268998597,795.7584035999607,795.7587490000296,795.7747761998326,795.7747761998326,795.7747761998326,795.8580420999788,796.3087507998571,,,,,,,,,,,,,,,,,,,,,,up,4.389029199955985,None,space,0.5208823999855667,None,P135,001,2025-03-26_14h57.56.544,posner_endo_new1,2024.2.4,60.016840672067296,2025-03-26 14h58.02.805675 +0000,
cube_r.png,0.1,-0.31,invalid,7,7,0,up,4.280351400142536,None,space,0.5140841999091208,None,,,,,,,,,0,7,7,7,796.3242713999934,,,,,,,,,,,,,796.3090476000216,796.3242713999934,796.3242713999934,796.3242713999934,800.6215925000142,,,,800.6402250998653,800.6510012999643,800.6510012999643,800.6865596999414,800.687101099873,800.7029559998773,800.7029559998773,800.7029559998773,800.7861817998346,801.2211688000243,,,,,,,,,,,,,,,,,,,,,,up,4.280351400142536,None,space,0.5140841999091208,None,P135,001,2025-03-26_14h57.56.544,posner_endo_new1,2024.2.4,60.016840672067296,2025-03-26 14h58.02.805675 +0000,
cube_l.png,0.1,-0.31,valid,8,8,0,up,8.024989699944854,None,space,0.3670854000374675,None,,,,,,,,,0,8,8,8,801.2357526000123,,,,,,,,,,,,,801.2216413998976,801.2357526000123,801.2357526000123,801.2357526000123,809.263106700033,,,,809.2816782000009,809.2930515999906,809.2930515999906,809.3277500998229,809.3280976999085,809.3442461998202,809.3442461998202,809.3442461998202,809.4275199999101,809.7281878998037,,,,,,,,,,,,,,,,,,,,,,up,8.024989699944854,None,space,0.3670854000374675,None,P135,001,2025-03-26_14h57.56.544,posner_endo_new1,2024.2.4,60.016840672067296,2025-03-26 14h58.02.805675 +0000,
cube_r.png,0.1,-0.31,invalid,9,9,0,up,2.9568341998383403,None,space,0.46192790009081364,None,,,,,,,,,0,9,9,9,809.7438866000157,,,,,,,,,,,,,809.7284956998192,809.7438866000157,809.7438866000157,809.7438866000157,812.7093265999574,,,,812.7278032000177,812.7391061999369,812.7391061999369,812.7741417998914,812.7746957999188,812.7905941000208,812.7905941000208,812.7905941000208,812.8738388000056,813.2587009000126,,,,,,,,,,,,,,,,,,,,,,up,2.9568341998383403,None,space,0.46192790009081364,None,P135,001,2025-03-26_14h57.56.544,posner_endo_new1,2024.2.4,60.016840672067296,2025-03-26 14h58.02.805675 +0000,
cube_l.png,0.1,0.31,invalid,10,10,0,up,3.771899899933487,None,space,0.390899799996987,None,,,,,,,,,0,10,10,10,813.2734161999542,,,,,,,,,,,,,813.2591870999895,813.2734161999542,813.2734161999542,813.2734161999542,817.0551501999144,,,,817.0736389998347,817.0850068000145,817.0850068000145,817.1197281000204,817.1202765998896,817.136151699815,817.136151699815,817.136151699815,817.2193706999533,817.5376839998644,,,,,,,,,,,,,,,,,,,,,,up,3.771899899933487,None,space,0.390899799996987,None,P135,001,2025-03-26_14h57.56.544,posner_endo_new1,2024.2.4,60.016840672067296,2025-03-26 14h58.02.805675 +0000,
cube_r.png,0.1,-0.31,invalid,11,11,0,up,3.6208270001225173,None,space,0.42875860002823174,None,,,,,,,,,0,11,11,11,817.5523284999654,,,,,,,,,,,,,817.5381889999844,817.5523284999654,817.5523284999654,817.5523284999654,821.1840454998892,,,,821.2026419998147,821.2142997998744,821.2142997998744,821.2487949000206,821.2490842000116,821.2652906998992,821.2652906998992,821.2652906998992,821.3484358999413,821.7000721998047,,,,,,,,,,,,,,,,,,,,,,up,3.6208270001225173,None,space,0.42875860002823174,None,P135,001,2025-03-26_14h57.56.544,posner_endo_new1,2024.2.4,60.016840672067296,2025-03-26 14h58.02.805675 +0000,
cube_r.png,0.1,0.31,valid,12,12,0,up,4.946485300082713,None,space,0.39614480012096465,None,,,,,,,,,0,12,12,12,821.7147543998435,,,,,,,,,,,,,821.7005423000082,821.7147543998435,821.7147543998435,821.7147543998435,826.6783055998385,,,,826.6969912999775,826.7090300999116,826.7090300999116,826.7430942000356,826.7433779998682,826.759642199846,826.759642199846,826.759642199846,826.842901899945,827.1602512998506,,,,,,,,,,,,,,,,,,,,,,up,4.946485300082713,None,space,0.39614480012096465,None,P135,001,2025-03-26_14h57.56.544,posner_endo_new1,2024.2.4,60.016840672067296,2025-03-26 14h58.02.805675 +0000,
cube_l.png,0.1,10,catch,13,13,0,up,4.50101160001941,None,None,,,,,,,,,,,0,13,13,13,827.1758703999221,,,,,,,,,,,,,827.1604926998261,827.1758703999221,827.1758703999221,827.1758703999221,831.6889316998422,,,,831.6976685000118,831.7078368999064,831.7078368999064,831.7548732999712,831.7551590998191,831.7711860998534,831.7711860998534,831.7711860998534,831.8544689998962,834.7692316998728,,,,833.8690186999738,834.7847476999741,834.7847476999741,834.7847476999741,,,,,,,,,,,,,,,up,4.50101160001941,None,None,,,P135,001,2025-03-26_14h57.56.544,posner_endo_new1,2024.2.4,60.016840672067296,2025-03-26 14h58.02.805675 +0000,
cube_r.png,0.1,-0.31,invalid,14,14,0,up,0.03601899999193847,None,space,0.43830999988131225,None,,,,,,,,,0,14,14,14,834.7847476999741,,,,,,,,,,,,,834.7696912998799,834.7847476999741,834.7847476999741,834.7847476999741,834.8365771998651,,,,834.8552397999447,834.8670265998226,834.8670265998226,834.9016877999529,834.9020290998742,834.9180703000166,834.9180703000166,834.9180703000166,835.0013576999772,835.3688850000035,,,,,,,,,,,,,,,,,,,,,,up,0.03601899999193847,None,space,0.43830999988131225,None,P135,001,2025-03-26_14h57.56.544,posner_endo_new1,2024.2.4,60.016840672067296,2025-03-26 14h58.02.805675 +0000,
cube_l.png,0.1,-0.31,valid,15,15,0,up,4.284401500131935,None,space,0.3593219998292625,None,,,,,,,,,0,15,15,15,835.3842741998378,,,,,,,,,,,,,835.3691727998666,835.3842741998378,835.3842741998378,835.3842741998378,839.6810555998236,,,,839.6925243998412,839.7028000999708,839.7028000999708,839.7465519998223,839.7468975000083,839.7631464998703,839.7631464998703,839.7631464998703,839.8462490998209,840.1307723999489,,,,,,,,,,,,,,,,,,,,,,up,4.284401500131935,None,space,0.3593219998292625,None,P135,001,2025-03-26_14h57.56.544,posner_endo_new1,2024.2.4,60.016840672067296,2025-03-26 14h58.02.805675 +0000,
cube_r.png,0.1,10,catch,16,16,0,up,3.210598299978301,None,None,,,,,,,,,,,0,16,16,16,840.1460056998767,,,,,,,,,,,,,840.1310673998669,840.1460056998767,840.1460056998767,840.1460056998767,843.3607663998846,,,,843.3722981999163,843.3826348998118,843.3826348998118,843.4261760998052,843.4265295998193,843.4426873999182,843.4426873999182,843.4426873999182,843.5259431998711,846.440380099928,,,,845.5405287998728,846.4562724998686,846.4562724998686,846.4562724998686,,,,,,,,,,,,,,,up,3.210598299978301,None,None,,,P135,001,2025-03-26_14h57.56.544,posner_endo_new1,2024.2.4,60.016840672067296,2025-03-26 14h58.02.805675 +0000,
cube_r.png,0.1,10,catch,17,17,0,up,2.1565235999878496,None,None,,,,,,,,,,,0,17,17,17,846.4562724998686,,,,,,,,,,,,,846.4406583998352,846.4562724998686,846.4562724998686,846.4562724998686,848.621910299873,,,,848.633398299804,848.6437933999114,848.6437933999114,848.6874333999585,848.6877855998464,848.7040305000264,848.7040305000264,848.7040305000264,848.7871902999468,851.7016111998819,,,,850.8017805998679,851.7175786998123,851.7175786998123,851.7175786998123,,,,,,,,,,,,,,,up,2.1565235999878496,None,None,,,P135,001,2025-03-26_14h57.56.544,posner_endo_new1,2024.2.4,60.016840672067296,2025-03-26 14h58.02.805675 +0000,
cube_l.png,0.1,0.31,invalid,18,18,0,up,0.03881049994379282,None,space,0.47746020019985735,None,,,,,,,,,0,18,18,18,851.7175786998123,,,,,,,,,,,,,851.701886099996,851.7175786998123,851.7175786998123,851.7175786998123,851.7686403999105,,,,851.7802033999469,851.7904919998255,851.7904919998255,851.8342124999035,851.834563100012,851.8508321000263,851.8508321000263,851.8508321000263,851.9339562000241,852.3347562998533,,,,,,,,,,,,,,,,,,,,,,up,0.03881049994379282,None,space,0.47746020019985735,None,P135,001,2025-03-26_14h57.56.544,posner_endo_new1,2024.2.4,60.016840672067296,2025-03-26 14h58.02.805675 +0000,
cube_l.png,0.1,10,catch,19,19,0,up,3.431393099948764,None,None,,,,,,,,,,,0,19,19,19,852.3502306998707,,,,,,,,,,,,,852.3350553000346,852.3502306998707,852.3502306998707,852.3502306998707,855.7978081000037,,,,855.8092886998784,855.8196727000177,855.8196727000177,855.8633663998917,855.8637147999834,855.8799282999244,855.8799282999244,855.8799282999244,855.9631317998283,858.8776213999372,,,,857.9778491999023,858.8935173999052,858.8935173999052,858.8935173999052,,,,,,,,,,,,,,,up,3.431393099948764,None,None,,,P135,001,2025-03-26_14h57.56.544,posner_endo_new1,2024.2.4,60.016840672067296,2025-03-26 14h58.02.805675 +0000,
cube_l.png,0.1,0.31,invalid,20,20,0,up,0.8074231001082808,None,space,0.6262052000965923,None,,,,,,,,,0,20,20,20,858.8935173999052,,,,,,,,,,,,,858.8778903000057,858.8935173999052,858.8935173999052,858.8935173999052,859.7103010998107,,,,859.7220002999529,859.7323654999491,859.7323654999491,859.7762766999658,859.7766197000165,859.7925224998035,859.7925224998035,859.7925224998035,859.875809899997,860.4263853000011,,,,,,,,,,,,,,,,,,,,,,up,0.8074231001082808,None,space,0.6262052000965923,None,P135,001,2025-03-26_14h57.56.544,posner_endo_new1,2024.2.4,60.016840672067296,2025-03-26 14h58.02.805675 +0000,
cube_l.png,0.1,-0.31,valid,21,21,0,up,3.978617599932477,None,space,0.5227713000494987,None,,,,,,,,,0,21,21,21,860.4419197000097,,,,,,,,,,,,,860.4266890999861,860.4419197000097,860.4419197000097,860.4419197000097,864.4225645000115,,,,864.4340287998784,864.4442894000094,864.4442894000094,864.4878552998416,864.4882006999105,864.5044435998425,864.5044435998425,864.5044435998425,864.5877173999324,865.0384531999007,,,,,,,,,,,,,,,,,,,,,,up,3.978617599932477,None,space,0.5227713000494987,None,P135,001,2025-03-26_14h57.56.544,posner_endo_new1,2024.2.4,60.016840672067296,2025-03-26 14h58.02.805675 +0000,
cube_r.png,0.1,0.31,valid,22,22,0,up,4.9025214000139385,None,space,0.46153079997748137,None,,,,,,,,,0,22,22,22,865.0538653000258,,,,,,,,,,,,,865.0387507998385,865.0538653000258,865.0538653000258,865.0538653000258,869.9662078998517,,,,869.972112499876,869.9837008998729,869.9837008998729,870.0322451998945,870.0324714998715,870.0487712000031,870.0487712000031,870.0487712000031,870.1153064998798,870.5156878998969,,,,,,,,,,,,,,,,,,,,,,up,4.9025214000139385,None,space,0.46153079997748137,None,P135,001,2025-03-26_14h57.56.544,posner_endo_new1,2024.2.4,60.016840672067296,2025-03-26 14h58.02.805675 +0000,
cube_r.png,0.1,-0.31,invalid,23,23,0,up,3.105493300128728,None,space,0.7116680999752134,None,,,,,,,,,0,23,23,23,870.5315486998297,,,,,,,,,,,,,870.5158609999344,870.5315486998297,870.5315486998297,870.5315486998297,873.6465838998556,,,,873.6636320999824,873.6746449000202,873.6746449000202,873.7119574998505,873.7124558999203,873.7280850999523,873.7280850999523,873.7280850999523,873.8113501998596,874.4453896998893,,,,,,,,,,,,,,,,,,,,,,up,3.105493300128728,None,space,0.7116680999752134,None,P135,001,2025-03-26_14h57.56.544,posner_endo_new1,2024.2.4,60.016840672067296,2025-03-26 14h58.02.805675 +0000,
cube_r.png,0.1,0.31,valid,24,24,0,up,6.351416500052437,None,space,0.6119299000129104,None,,,,,,,,,0,24,24,24,874.4610186999198,,,,,,,,,,,,,874.445683100028,874.4610186999198,874.4610186999198,874.4610186999198,880.8222552000079,,,,880.8337862999178,880.8441533998121,880.8441533998121,880.8876135998871,880.8878632998094,880.9043019998353,880.9043019998353,880.9043019998353,880.98742569983,881.521450900007,,,,,,,,,,,,,,,,,,,,,,up,6.351416500052437,None,space,0.6119299000129104,None,P135,001,2025-03-26_14h57.56.544,posner_endo_new1,2024.2.4,60.016840672067296,2025-03-26 14h58.02.805675 +0000,
cube_r.png,0.1,-0.31,invalid,25,25,0,up,2.0517977999988943,None,space,0.5364409000612795,None,,,,,,,,,0,25,25,25,881.5370355998166,,,,,,,,,,,,,881.5217477998231,881.5370355998166,881.5370355998166,881.5370355998166,883.6023368998431,,,,883.6137444998603,883.6234956998378,883.6234956998378,883.6681674998254,883.6684156998526,883.68473670003,883.68473670003,883.68473670003,883.7679524999112,884.2350065999199,,,,,,,,,,,,,,,,,,,,,,up,2.0517977999988943,None,space,0.5364409000612795,None,P135,001,2025-03-26_14h57.56.544,posner_endo_new1,2024.2.4,60.016840672067296,2025-03-26 14h58.02.805675 +0000,
cube_l.png,0.1,-0.31,valid,26,26,0,up,1.866411400027573,None,space,0.39156560017727315,None,,,,,,,,,0,26,26,26,884.2507537000347,,,,,,,,,,,,,884.2352136999834,884.2507537000347,884.2507537000347,884.2507537000347,886.1330867998768,,,,886.1404341999441,886.1633527998347,886.1633527998347,886.1993076999206,886.1999925000127,886.2157018999569,886.2157018999569,886.2157018999569,886.282257999992,886.6176006000023,,,,,,,,,,,,,,,,,,,,,,up,1.866411400027573,None,space,0.39156560017727315,None,P135,001,2025-03-26_14h57.56.544,posner_endo_new1,2024.2.4,60.016840672067296,2025-03-26 14h58.02.805675 +0000,
cube_r.png,0.1,0.31,valid,27,27,0,up,3.7805842999368906,None,space,0.3555351998656988,None,,,,,,,,,0,27,27,27,886.6319858999923,,,,,,,,,,,,,886.6181933998596,886.6319858999923,886.6319858999923,886.6319858999923,890.4302470998373,,,,890.4520974999759,890.4618487998378,890.4618487998378,890.4941620999016,890.4945544998627,890.5106495998334,890.5106495998334,890.5106495998334,890.5938950998243,890.8782420998905,,,,,,,,,,,,,,,,,,,,,,up,3.7805842999368906,None,space,0.3555351998656988,None,P135,001,2025-03-26_14h57.56.544,posner_endo_new1,2024.2.4,60.016840672067296,2025-03-26 14h58.02.805675 +0000,
cube_r.png,0.1,10,catch,28,28,0,up,3.1515581000130624,None,None,,,,,,,,,,,0,28,28,28,890.8935980999377,,,,,,,,,,,,,890.8785802000202,890.8935980999377,890.8935980999377,890.8935980999377,894.0584141998552,,,,894.0668452000245,894.0770820998587,894.0770820998587,894.1242617999669,894.1245372998528,894.1408236999996,894.1408236999996,894.1408236999996,894.2073831998277,897.1382593000308,,,,896.2219108999707,897.1542725998443,897.1542725998443,897.1542725998443,,,,,,,,,,,,,,,up,3.1515581000130624,None,None,,,P135,001,2025-03-26_14h57.56.544,posner_endo_new1,2024.2.4,60.016840672067296,2025-03-26 14h58.02.805675 +0000,
cube_r.png,0.1,0.31,valid,29,29,0,up,6.530433200066909,None,space,0.3286472999025136,None,,,,,,,,,0,29,29,29,897.1542725998443,,,,,,,,,,,,,897.1384681998752,897.1542725998443,897.1542725998443,897.1542725998443,903.6984651000239,,,,903.7068992999848,903.7172326999716,903.7172326999716,903.7643885000143,903.7646672998089,903.7810168999713,903.7810168999713,903.7810168999713,903.8474826999009,904.1146273999475,,,,,,,,,,,,,,,,,,,,,,up,6.530433200066909,None,space,0.3286472999025136,None,P135,001,2025-03-26_14h57.56.544,posner_endo_new1,2024.2.4,60.016840672067296,2025-03-26 14h58.02.805675 +0000,
cube_r.png,0.1,0.31,valid,30,30,0,up,2.4822488999925554,None,space,0.5716002001427114,None,,,,,,,,,0,30,30,30,904.1306352999527,,,,,,,,,,,,,904.1148520000279,904.1306352999527,904.1306352999527,904.1306352999527,906.6288771999534,,,,906.6372563999612,906.6475456999615,906.6475456999615,906.6945944000036,906.6951073999517,906.7110798999202,906.7110798999202,906.7110798999202,906.7945061998907,907.2951662999112,,,,,,,,,,,,,,,,,,,,,,up,2.4822488999925554,None,space,0.5716002001427114,None,P135,001,2025-03-26_14h57.56.544,posner_endo_new1,2024.2.4,60.016840672067296,2025-03-26 14h58.02.805675 +0000,
cube_l.png,0.1,-0.31,valid,31,31,0,up,2.8144422001205385,None,space,0.36225100001320243,None,,,,,,,,,0,31,31,31,907.3106244998053,,,,,,,,,,,,,907.2954636998475,907.3106244998053,907.3106244998053,907.3106244998053,910.1418176000006,,,,910.1479803000111,910.1595143999439,910.1595143999439,910.2076814000029,910.2081997999921,910.2241081998218,910.2241081998218,910.2241081998218,910.3073472999968,910.5918395000044,,,,,,,,,,,,,,,,,,,,,,up,2.8144422001205385,None,space,0.36225100001320243,None,P135,001,2025-03-26_14h57.56.544,posner_endo_new1,2024.2.4,60.016840672067296,2025-03-26 14h58.02.805675 +0000,
cube_r.png,0.1,0.31,valid,32,32,0,up,3.3011815999634564,None,space,0.3574020001105964,None,,,,,,,,,0,32,32,32,910.6073040999472,,,,,,,,,,,,,910.5921491000336,910.6073040999472,910.6073040999472,910.6073040999472,913.9218252999708,,,,913.9335955998395,913.9439884999301,913.9439884999301,913.9872748998459,913.9876294999849,914.003788099857,914.003788099857,914.003788099857,914.0870521999896,914.3713215999305,,,,,,,,,,,,,,,,,,,,,,up,3.3011815999634564,None,space,0.3574020001105964,None,P135,001,2025-03-26_14h57.56.544,posner_endo_new1,2024.2.4,60.016840672067296,2025-03-26 14h58.02.805675 +0000,
cube_r.png,0.1,-0.31,invalid,33,33,0,up,4.833905099891126,None,space,0.3933796000201255,None,,,,,,,,,0,33,33,33,914.3867385999765,,,,,,,,,,,,,914.3716247000266,914.3867385999765,914.3867385999765,914.3867385999765,919.2330417998601,,,,919.2446971000172,919.2549866999034,919.2549866999034,919.298515799921,919.2988604998682,919.3149812999181,919.3149812999181,919.3149812999181,919.3981887998525,919.7157305998262,,,,,,,,,,,,,,,,,,,,,,up,4.833905099891126,None,space,0.3933796000201255,None,P135,001,2025-03-26_14h57.56.544,posner_endo_new1,2024.2.4,60.016840672067296,2025-03-26 14h58.02.805675 +0000,
cube_r.png,0.1,10,catch,34,34,0,up,2.769420700147748,None,None,,,,,,,,,,,0,34,34,34,919.7313316999935,,,,,,,,,,,,,919.7160296998918,919.7313316999935,919.7313316999935,919.7313316999935,922.5129519000184,,,,922.5236016998533,922.5332545998972,922.5332545998972,922.5788498998154,922.5790876999963,922.5949166999198,922.5949166999198,922.5949166999198,922.6781911998987,925.5922921998426,,,,924.6927771000192,925.6084541999735,925.6084541999735,925.6084541999735,,,,,,,,,,,,,,,up,2.769420700147748,None,None,,,P135,001,2025-03-26_14h57.56.544,posner_endo_new1,2024.2.4,60.016840672067296,2025-03-26 14h58.02.805675 +0000,
cube_r.png,0.1,0.31,valid,35,35,0,up,2.0921694999560714,None,space,0.3996057000476867,None,,,,,,,,,0,35,35,35,925.6084541999735,,,,,,,,,,,,,925.5924684999045,925.6084541999735,925.6084541999735,925.6084541999735,927.7072047998663,,,,927.714314899873,927.7261731999461,927.7261731999461,927.7731669999193,927.7734126998112,927.7896034999285,927.7896034999285,927.7896034999285,927.8563208999112,928.190196499927,,,,,,,,,,,,,,,,,,,,,,up,2.0921694999560714,None,space,0.3996057000476867,None,P135,001,2025-03-26_14h57.56.544,posner_endo_new1,2024.2.4,60.016840672067296,2025-03-26 14h58.02.805675 +0000,
cube_r.png,0.1,-0.31,invalid,36,36,0,up,2.0390143000986427,None,space,0.4880262999795377,None,,,,,,,,,0,36,36,36,928.2058269998524,,,,,,,,,,,,,928.19038429996,928.2058269998524,928.2058269998524,928.2058269998524,930.2546381999273,,,,930.2617577000055,930.2734578999225,930.2734578999225,930.320507099852,930.3207449000329,930.3371319998987,930.3371319998987,930.3371319998987,930.4203383999411,930.8372180999722,,,,,,,,,,,,,,,,,,,,,,up,2.0390143000986427,None,space,0.4880262999795377,None,P135,001,2025-03-26_14h57.56.544,posner_endo_new1,2024.2.4,60.016840672067296,2025-03-26 14h58.02.805675 +0000,
cube_l.png,0.1,0.31,invalid,37,37,0,up,9.231152599910274,None,space,0.3693715000990778,None,,,,,,,,,0,37,37,37,930.8531950998586,,,,,,,,,,,,,930.8374025998637,930.8531950998586,930.8531950998586,930.8531950998586,940.0962495999411,,,,940.1198811999056,940.1320690999273,940.1320690999273,940.1600413999986,940.1604286998045,940.176501599839,940.176501599839,940.176501599839,940.2597542000003,940.5607807999477,,,,,,,,,,,,,,,,,,,,,,up,9.231152599910274,None,space,0.3693715000990778,None,P135,001,2025-03-26_14h57.56.544,posner_endo_new1,2024.2.4,60.016840672067296,2025-03-26 14h58.02.805675 +0000,
cube_l.png,0.1,0.31,invalid,38,38,0,up,2.9001492001116276,None,space,0.3538422998972237,None,,,,,,,,,0,38,38,38,940.5760941999033,,,,,,,,,,,,,940.561107999878,940.5760941999033,940.5760941999033,940.5760941999033,943.4910151998047,,,,943.4989632999059,943.5098357999232,943.5098357999232,943.5569020998664,943.5574256000109,943.5733111000154,943.5733111000154,943.5733111000154,943.6565307998098,943.9413860000204,,,,,,,,,,,,,,,,,,,,,,up,2.9001492001116276,None,space,0.3538422998972237,None,P135,001,2025-03-26_14h57.56.544,posner_endo_new1,2024.2.4,60.016840672067296,2025-03-26 14h58.02.805675 +0000,
cube_r.png,0.1,0.31,valid,39,39,0,up,2.6882813000120223,None,space,0.36529859993606806,None,,,,,,,,,0,39,39,39,943.9562388998456,,,,,,,,,,,,,943.9418171998113,943.9562388998456,943.9562388998456,943.9562388998456,946.6549145998433,,,,946.6667324998416,946.6771054998972,946.6771054998972,946.7205182998441,946.7208644000348,946.736985999858,946.736985999858,946.736985999858,946.8201569998637,947.1045285,,,,,,,,,,,,,,,,,,,,,,up,2.6882813000120223,None,space,0.36529859993606806,None,P135,001,2025-03-26_14h57.56.544,posner_endo_new1,2024.2.4,60.016840672067296,2025-03-26 14h58.02.805675 +0000,
cube_l.png,0.1,0.31,invalid,40,40,0,up,1.797436200082302,None,space,0.39883940014988184,None,,,,,,,,,0,40,40,40,947.1198925999925,,,,,,,,,,,,,947.104828499956,947.1198925999925,947.1198925999925,947.1198925999925,948.9193510999903,,,,948.9311809998471,948.9414484999143,948.9414484999143,948.9848587999586,948.9852079998236,949.0013073999435,949.0013073999435,949.0013073999435,949.0846484999638,949.4021731999237,,,,,,,,,,,,,,,,,,,,,,up,1.797436200082302,None,space,0.39883940014988184,None,P135,001,2025-03-26_14h57.56.544,posner_endo_new1,2024.2.4,60.016840672067296,2025-03-26 14h58.02.805675 +0000,
cube_l.png,0.1,10,catch,41,41,0,up,2.9949056999757886,None,None,,,,,,,,,,,0,41,41,41,949.4175517000258,,,,,,,,,,,,,949.4024646999314,949.4175517000258,949.4175517000258,949.4175517000258,952.4155935999006,,,,952.4273147999775,952.4375114999712,952.4375114999712,952.4811893999577,952.4815491999034,952.4977392000146,952.4977392000146,952.4977392000146,952.581173399929,955.4954347999301,,,,954.5955884000286,955.5113244999666,955.5113244999666,955.5113244999666,,,,,,,,,,,,,,,up,2.9949056999757886,None,None,,,P135,001,2025-03-26_14h57.56.544,posner_endo_new1,2024.2.4,60.016840672067296,2025-03-26 14h58.02.805675 +0000,
cube_l.png,0.1,-0.31,valid,42,42,0,up,0.4211856001056731,None,space,0.387992300093174,None,,,,,,,,,0,42,42,42,955.5113244999666,,,,,,,,,,,,,955.4957075999118,955.5113244999666,955.5113244999666,955.5113244999666,955.9453157999087,,,,955.9571541999467,955.9675513999537,955.9675513999537,956.0109823998064,956.011324999854,956.0272941999137,956.0272941999137,956.0272941999137,956.0940456998069,956.4283173999283,,,,,,,,,,,,,,,,,,,,,,up,0.4211856001056731,None,space,0.387992300093174,None,P135,001,2025-03-26_14h57.56.544,posner_endo_new1,2024.2.4,60.016840672067296,2025-03-26 14h58.02.805675 +0000,
cube_l.png,0.1,10,catch,43,43,0,up,3.545353600056842,None,None,,,,,,,,,,,0,43,43,43,956.4437783998437,,,,,,,,,,,,,956.4286056999117,956.4437783998437,956.4437783998437,956.4437783998437,959.9911837999243,,,,960.0032744999044,960.0136651999783,960.0136651999783,960.0568474999163,960.0571973999031,960.0733212998603,960.0733212998603,960.0733212998603,960.1565993998665,963.0709611999337,,,,962.1712876998354,963.0867750998586,963.0867750998586,963.0867750998586,,,,,,,,,,,,,,,up,3.545353600056842,None,None,,,P135,001,2025-03-26_14h57.56.544,posner_endo_new1,2024.2.4,60.016840672067296,2025-03-26 14h58.02.805675 +0000,
cube_l.png,0.1,0.31,invalid,44,44,0,up,15.685917899943888,None,space,0.5126626999117434,None,,,,,,,,,0,44,44,44,963.0867750998586,,,,,,,,,,,,,963.0712291998789,963.0867750998586,963.0867750998586,963.0867750998586,978.788638100028,,,,978.8007773999125,978.8110157998744,978.8110157998744,978.8542362998705,978.8545849998482,978.8707571998239,978.8707571998239,978.8707571998239,978.9540120998863,979.3881550999358,,,,,,,,,,,,,,,,,,,,,,up,15.685917899943888,None,space,0.5126626999117434,None,P135,001,2025-03-26_14h57.56.544,posner_endo_new1,2024.2.4,60.016840672067296,2025-03-26 14h58.02.805675 +0000,
cube_l.png,0.1,0.31,invalid,45,45,0,up,2.7134634000249207,None,space,0.6416495000012219,None,,,,,,,,,0,45,45,45,979.4035072999541,,,,,,,,,,,,,979.3884593998082,979.4035072999541,979.4035072999541,979.4035072999541,982.1187711998355,,,,982.1308851998765,982.1412225998938,982.1412225998938,982.18411989999,982.1843695999123,982.2006622999907,982.2006622999907,982.2006622999907,982.2838323998731,982.85072509991,,,,,,,,,,,,,,,,,,,,,,up,2.7134634000249207,None,space,0.6416495000012219,None,P135,001,2025-03-26_14h57.56.544,posner_endo_new1,2024.2.4,60.016840672067296,2025-03-26 14h58.02.805675 +0000,
cube_r.png,0.1,0.31,valid,46,46,0,up,3.4984166000504047,None,space,0.6183061001356691,None,,,,,,,,,0,46,46,46,982.866526799975,,,,,,,,,,,,,982.850922399899,982.866526799975,982.866526799975,982.866526799975,986.3805390999187,,,,986.3884093000088,986.3992119999602,986.3992119999602,986.4465499999933,986.4468037998304,986.4629395999946,986.4629395999946,986.4629395999946,986.5295172999613,987.0972470999695,,,,,,,,,,,,,,,,,,,,,,up,3.4984166000504047,None,space,0.6183061001356691,None,P135,001,2025-03-26_14h57.56.544,posner_endo_new1,2024.2.4,60.016840672067296,2025-03-26 14h58.02.805675 +0000,
cube_l.png,0.1,-0.31,valid,47,47,0,up,2.996665299870074,None,space,0.5293701998889446,None,,,,,,,,,0,47,47,47,987.1120570998173,,,,,,,,,,,,,987.0976823999081,987.1120570998173,987.1120570998173,987.1120570998173,990.1108758999035,,,,990.1289041999262,990.1399598999415,990.1399598999415,990.1758113999385,990.1760941999964,990.1923310998827,990.1923310998827,990.1923310998827,990.2756446998101,990.7270127998199,,,,,,,,,,,,,,,,,,,,,,up,2.996665299870074,None,space,0.5293701998889446,None,P135,001,2025-03-26_14h57.56.544,posner_endo_new1,2024.2.4,60.016840672067296,2025-03-26 14h58.02.805675 +0000,
cube_r.png,0.1,-0.31,invalid,48,48,0,up,1.9587330999784172,None,space,0.5312755999621004,None,,,,,,,,,0,48,48,48,990.7416818998754,,,,,,,,,,,,,990.7274637999944,990.7416818998754,990.7416818998754,990.7416818998754,992.7080590999685,,,,992.726066299947,992.7371016999241,992.7371016999241,992.7731552999467,992.7736591999419,992.7895553999115,992.7895553999115,992.7895553999115,992.8728473000228,993.3243623999879,,,,,,,,,,,,,,,,,,,,,,up,1.9587330999784172,None,space,0.5312755999621004,None,P135,001,2025-03-26_14h57.56.544,posner_endo_new1,2024.2.4,60.016840672067296,2025-03-26 14h58.02.805675 +0000,
cube_r.png,0.1,10,catch,49,49,0,up,3.19324510009028,None,None,,,,,,,,,,,0,49,49,49,993.339016799815,,,,,,,,,,,,,993.3247976999264,993.339016799815,993.339016799815,993.339016799815,996.5366650000215,,,,996.5429906998761,996.5545784998685,996.5545784998685,996.6025791999418,996.6028046000283,996.6191585999914,996.6191585999914,996.6191585999914,996.6858158998657,999.6168945999816,,,,998.7004537999164,999.6328910999,999.6328910999,999.6328910999,,,,,,,,,,,,,,,up,3.19324510009028,None,None,,,P135,001,2025-03-26_14h57.56.544,posner_endo_new1,2024.2.4,60.016840672067296,2025-03-26 14h58.02.805675 +0000,
cube_l.png,0.1,-0.31,valid,50,50,0,up,0.13197760004550219,None,space,0.5158358998596668,None,,,,,,,,,0,50,50,50,999.6328910999,,,,,,,,,,,,,999.6171630998142,999.6328910999,999.6328910999,999.6328910999,999.767353199888,,,,999.7763551999815,999.7861492999364,999.7861492999364,999.8328976000194,999.8331200999673,999.8492876000237,999.8492876000237,999.8492876000237,999.9325178000145,1000.3662441999186,,,,,,,,,,,,,,,,,,,,,,up,0.13197760004550219,None,space,0.5158358998596668,None,P135,001,2025-03-26_14h57.56.544,posner_endo_new1,2024.2.4,60.016840672067296,2025-03-26 14h58.02.805675 +0000,
cube_l.png,0.1,-0.31,valid,51,51,0,up,1.798125599976629,None,space,0.5406074000056833,None,,,,,,,,,0,51,51,51,1000.3820342998952,,,,,,,,,,,,,1000.3664157998282,1000.3820342998952,1000.3820342998952,1000.3820342998952,1002.1809411998838,,,,1002.1871865999419,1002.1989632998593,1002.1989632998593,1002.2469577998854,1002.2471802998334,1002.2633871999569,1002.2633871999569,1002.2633871999569,1002.3300110998098,1002.8136370999273,,,,,,,,,,,,,,,,,,,,,,up,1.798125599976629,None,space,0.5406074000056833,None,P135,001,2025-03-26_14h57.56.544,posner_endo_new1,2024.2.4,60.016840672067296,2025-03-26 14h58.02.805675 +0000,
cube_r.png,0.1,-0.31,invalid,52,52,0,up,2.294915299862623,None,space,0.4210397000424564,None,,,,,,,,,0,52,52,52,1002.8295038999058,,,,,,,,,,,,,1002.8138113999739,1002.8295038999058,1002.8295038999058,1002.8295038999058,1005.1284701998811,,,,1005.1437311999034,1005.1541805998422,1005.1541805998422,1005.1935993998777,1005.194034999935,1005.2100268998183,1005.2100268998183,1005.2100268998183,1005.2936221999116,1005.6442712999415,,,,,,,,,,,,,,,,,,,,,,up,2.294915299862623,None,space,0.4210397000424564,None,P135,001,2025-03-26_14h57.56.544,posner_endo_new1,2024.2.4,60.016840672067296,2025-03-26 14h58.02.805675 +0000,
cube_l.png,0.1,-0.31,valid,53,53,0,up,1.6729709999635816,None,space,0.48095500003546476,None,,,,,,,,,0,53,53,53,1005.6599274999462,,,,,,,,,,,,,1005.6445077999961,1005.6599274999462,1005.6599274999462,1005.6599274999462,1007.3425088999793,,,,1007.3517713998444,1007.3618133999407,1007.3618133999407,1007.4082984998822,1007.4085852999706,1007.424845200032,1007.424845200032,1007.424845200032,1007.5081247999333,1007.9086306998506,,,,,,,,,,,,,,,,,,,,,,up,1.6729709999635816,None,space,0.48095500003546476,None,P135,001,2025-03-26_14h57.56.544,posner_endo_new1,2024.2.4,60.016840672067296,2025-03-26 14h58.02.805675 +0000,
cube_r.png,0.1,10,catch,54,54,0,up,2.4326265000272542,None,None,,,,,,,,,,,0,54,54,54,1007.9242763998918,,,,,,,,,,,,,1007.90886519989,1007.9242763998918,1007.9242763998918,1007.9242763998918,1010.372787399916,,,,1010.3822200000286,1010.3923013999593,1010.3923013999593,1010.4385291999206,1010.4390810998157,1010.454971899977,1010.454971899977,1010.454971899977,1010.538187299855,1013.4529990998562,,,,1012.5528078998905,1013.4685392000247,1013.4685392000247,1013.4685392000247,,,,,,,,,,,,,,,up,2.4326265000272542,None,None,,,P135,001,2025-03-26_14h57.56.544,posner_endo_new1,2024.2.4,60.016840672067296,2025-03-26 14h58.02.805675 +0000,
cube_l.png,0.1,0.31,invalid,55,55,0,up,0.8638161001726985,None,space,0.4303084001876414,None,,,,,,,,,0,55,55,55,1013.4685392000247,,,,,,,,,,,,,1013.4534340999089,1013.4685392000247,1013.4685392000247,1013.4685392000247,1014.3363959998824,,,,1014.3562588999048,1014.3676138999872,1014.3676138999872,1014.4011873998679,1014.4017313998193,1014.4175730999559,1014.4175730999559,1014.4175730999559,1014.500836199848,1014.852611299837,,,,,,,,,,,,,,,,,,,,,,up,0.8638161001726985,None,space,0.4303084001876414,None,P135,001,2025-03-26_14h57.56.544,posner_endo_new1,2024.2.4,60.016840672067296,2025-03-26 14h58.02.805675 +0000,
cube_l.png,0.1,-0.31,valid,56,56,0,up,3.2814868001732975,None,space,0.5452411998994648,None,,,,,,,,,0,56,56,56,1014.8671152999159,,,,,,,,,,,,,1014.8530901998747,1014.8671152999159,1014.8671152999159,1014.8671152999159,1018.1656112000346,,,,1018.1849791998975,1018.1961336999666,1018.1961336999666,1018.2304777000099,1018.2307640998624,1018.2469782999251,1018.2469782999251,1018.2469782999251,1018.3302686000243,1018.7983858999796,,,,,,,,,,,,,,,,,,,,,,up,3.2814868001732975,None,space,0.5452411998994648,None,P135,001,2025-03-26_14h57.56.544,posner_endo_new1,2024.2.4,60.016840672067296,2025-03-26 14h58.02.805675 +0000,
cube_r.png,0.1,0.31,valid,57,57,0,up,3.319193599978462,None,space,0.7472812999039888,None,,,,,,,,,0,57,57,57,1018.8130776998587,,,,,,,,,,,,,1018.7988850998227,1018.8130776998587,1018.8130776998587,1018.8130776998587,1022.1448560999706,,,,1022.1645629999693,1022.1760079998057,1022.1760079998057,1022.2098182998598,1022.2101747998968,1022.2263533999212,1022.2263533999212,1022.2263533999212,1022.3095867999364,1022.9768140998203,,,,,,,,,,,,,,,,,,,,,,up,3.319193599978462,None,space,0.7472812999039888,None,P135,001,2025-03-26_14h57.56.544,posner_endo_new1,2024.2.4,60.016840672067296,2025-03-26 14h58.02.805675 +0000,
cube_r.png,0.1,-0.31,invalid,58,58,0,up,3.1879851000849158,None,space,0.4179934000130743,None,,,,,,,,,0,58,58,58,1022.9922413998283,,,,,,,,,,,,,1022.9771081998479,1022.9922413998283,1022.9922413998283,1022.9922413998283,1026.189774399856,,,,1026.197324699955,1026.2080605998635,1026.2080605998635,1026.2555575999431,1026.2560727000237,1026.2720033000223,1026.2720033000223,1026.2720033000223,1026.3552313998807,1026.706646000035,,,,,,,,,,,,,,,,,,,,,,up,3.1879851000849158,None,space,0.4179934000130743,None,P135,001,2025-03-26_14h57.56.544,posner_endo_new1,2024.2.4,60.016840672067296,2025-03-26 14h58.02.805675 +0000,
cube_l.png,0.1,0.31,invalid,59,59,0,up,3.290818699868396,None,space,0.5533382000867277,None,,,,,,,,,0,59,59,59,1026.7215414999519,,,,,,,,,,,,,1026.707090899814,1026.7215414999519,1026.7215414999519,1026.7215414999519,1030.0196022000164,,,,1030.031348399818,1030.041639899835,1030.041639899835,1030.085147100035,1030.0854956998955,1030.1016668998636,1030.1016668998636,1030.1016668998636,1030.1849785000086,1030.6689406000078,,,,,,,,,,,,,,,,,,,,,,up,3.290818699868396,None,space,0.5533382000867277,None,P135,001,2025-03-26_14h57.56.544,posner_endo_new1,2024.2.4,60.016840672067296,2025-03-26 14h58.02.805675 +0000,
