cue_img,cue_soa,target_y,trial,thisN,thisTrialN,thisRepN,key_control2.keys,key_control2.rt,key_control2.duration,key_resp.keys,key_resp.rt,key_resp.duration,practice.thisRepN,practice.thisTrialN,practice.thisN,practice.thisIndex,block1.thisRepN,block1.thisTrialN,block1.thisN,block1.thisIndex,block2.thisRepN,block2.thisTrialN,block2.thisN,block2.thisIndex,thisRow.t,notes,instructions.started,instructions_txt.started,key_control.started,instructions.stopped,key_control.keys,key_control.rt,key_control.duration,ready.started,ready_txt.started,ready_txt.stopped,ready.stopped,fix.started,fixation.started,key_control2.started,fixation_cross.started,fix.stopped,practice.key_control2.keys,practice.key_control2.rt,practice.key_control2.duration,cue.started,cube.started,fixation_cross_cue.started,cue.stopped,target.started,fixation_target.started,fixation_cross_target.started,key_resp.started,star.started,target.stopped,practice.key_resp.keys,practice.key_resp.rt,practice.key_resp.duration,block1.key_control2.keys,block1.key_control2.rt,block1.key_control2.duration,star.stopped,fixation_target.stopped,fixation_cross_target.stopped,key_resp.stopped,block1.key_resp.keys,block1.key_resp.rt,block1.key_resp.duration,break_2.started,text.started,key_control3.started,text.stopped,break_2.stopped,key_control3.keys,key_control3.rt,key_control3.duration,block2.key_control2.keys,block2.key_control2.rt,block2.key_control2.duration,block2.key_resp.keys,block2.key_resp.rt,block2.key_resp.duration,participant,session,date,expName,psychopyVersion,frameRate,expStart,
,,,,,,,,,,,,,,,,,,,,,,,,,,,0.007382699986919761,0.02045189985074103,0.02045189985074103,450.8309067999944,up,450.8018462001346,None,,,,,,,,,,,,,,,,,,,,,,,,,,,,,,,,,,,,,,,,,,,,,,,,,,P136,001,2025-03-26_15h47.11.717,posner_endo_new1,2024.2.4,60.05565961763483,2025-03-26 15h47.16.067255 +0000,
,,,,,,,,,,,,,,,,,,,,,,,,,,,,,,,,,,450.83096409984864,450.84290299983695,453.8587038998958,453.8245331000071,,,,,,,,,,,,,,,,,,,,,,,,,,,,,,,,,,,,,,,,,,,,,,P136,001,2025-03-26_15h47.11.717,posner_endo_new1,2024.2.4,60.05565961763483,2025-03-26 15h47.16.067255 +0000,
cube_r.png,0.1,-0.31,invalid,0,0,0,down,23.62763680005446,None,space,0.4079349001403898,None,0,0,0,6,,,,,,,,,453.8587038998958,,,,,,,,,,,,,453.84558419999667,453.8587038998958,453.8587038998958,453.8587038998958,477.5000550998375,down,23.62763680005446,None,477.5360640999861,477.5500828998629,477.5500828998629,477.5502913999371,477.5506019999739,477.5652582999319,477.5652582999319,477.5652582999319,477.6490842998028,477.98327419999987,space,0.4079349001403898,None,,,,,,,,,,,,,,,,,,,,,,,,,P136,001,2025-03-26_15h47.11.717,posner_endo_new1,2024.2.4,60.05565961763483,2025-03-26 15h47.16.067255 +0000,
cube_l.png,0.1,-0.31,valid,1,1,0,down,6.079549199901521,None,space,0.4158895998261869,None,0,1,1,8,,,,,,,,,477.9983352997806,,,,,,,,,,,,,477.98351169982925,477.9983352997806,477.9983352997806,477.9983352997806,484.0949923999142,down,6.079549199901521,None,484.11969699990004,484.1312543998938,484.1312543998938,484.15900220000185,484.1594297999982,484.17547219991684,484.17547219991684,484.17547219991684,484.258638799889,484.5929703998845,space,0.4158895998261869,None,,,,,,,,,,,,,,,,,,,,,,,,,P136,001,2025-03-26_15h47.11.717,posner_endo_new1,2024.2.4,60.05565961763483,2025-03-26 15h47.16.067255 +0000,
cube_r.png,0.1,-0.31,invalid,2,2,0,down,7.077472599921748,None,space,0.6062775000464171,None,0,2,2,9,,,,,,,,,484.608362799976,,,,,,,,,,,,,484.5932083998341,484.608362799976,484.608362799976,484.608362799976,491.702021199977,down,7.077472599921748,None,491.71243739989586,491.7222825998906,491.7222825998906,491.76791529986076,491.7682154998183,491.78434649994597,491.78434649994597,491.78434649994597,491.85135099990293,492.40138139994815,space,0.6062775000464171,None,,,,,,,,,,,,,,,,,,,,,,,,,P136,001,2025-03-26_15h47.11.717,posner_endo_new1,2024.2.4,60.05565961763483,2025-03-26 15h47.16.067255 +0000,
cube_l.png,0.1,0.31,invalid,3,3,0,down,5.853418400045484,None,space,0.35369790019467473,None,0,3,3,1,,,,,,,,,492.41722089983523,,,,,,,,,,,,,492.40162009978667,492.41722089983523,492.41722089983523,492.41722089983523,498.27899579983205,down,5.853418400045484,None,498.28958209999837,498.29985219985247,498.29985219985247,498.34438239992596,498.34468849981204,498.36089329980314,498.36089329980314,498.36089329980314,498.444522799924,498.72863189992495,space,0.35369790019467473,None,,,,,,,,,,,,,,,,,,,,,,,,,P136,001,2025-03-26_15h47.11.717,posner_endo_new1,2024.2.4,60.05565961763483,2025-03-26 15h47.16.067255 +0000,
cube_r.png,0.1,-0.31,invalid,4,4,0,down,5.134683300042525,None,space,0.3260440998710692,None,0,4,4,2,,,,,,,,,498.74380229995586,,,,,,,,,,,,,498.7288705999963,498.74380229995586,498.74380229995586,498.74380229995586,503.8895498998463,down,5.134683300042525,None,503.8997757998295,503.9099949998781,503.9099949998781,503.9557486998383,503.95605159993283,503.9722037999891,503.9722037999891,503.9722037999891,504.0388329999987,504.306149299955,space,0.3260440998710692,None,,,,,,,,,,,,,,,,,,,,,,,,,P136,001,2025-03-26_15h47.11.717,posner_endo_new1,2024.2.4,60.05565961763483,2025-03-26 15h47.16.067255 +0000,
cube_l.png,0.1,-0.31,valid,5,5,0,down,6.052342599956319,None,space,0.28436870011501014,None,0,5,5,4,,,,,,,,,504.32181139988825,,,,,,,,,,,,,504.3063890999183,504.32181139988825,504.32181139988825,504.32181139988825,510.38344179978594,down,6.052342599956319,None,510.39341049990617,510.40299739991315,510.40299739991315,510.448684199946,510.4489058998879,510.46519879996777,510.46519879996777,510.46519879996777,510.54900309978984,510.7661066998262,space,0.28436870011501014,None,,,,,,,,,,,,,,,,,,,,,,,,,P136,001,2025-03-26_15h47.11.717,posner_endo_new1,2024.2.4,60.05565961763483,2025-03-26 15h47.16.067255 +0000,
cube_l.png,0.1,-0.31,valid,6,6,0,down,4.832553300075233,None,space,0.35472419997677207,None,0,6,6,0,,,,,,,,,510.7820576999802,,,,,,,,,,,,,510.76626619999297,510.7820576999802,510.7820576999802,510.7820576999802,515.6277703999076,down,4.832553300075233,None,515.641630299855,515.6516168999951,515.6516168999951,515.6932591998484,515.6936438998673,515.7096735998057,515.7096735998057,515.7096735998057,515.7930907998234,516.0772636998445,space,0.35472419997677207,None,,,,,,,,,,,,,,,,,,,,,,,,,P136,001,2025-03-26_15h47.11.717,posner_endo_new1,2024.2.4,60.05565961763483,2025-03-26 15h47.16.067255 +0000,
cube_r.png,0.1,0.31,valid,7,7,0,down,5.201584400143474,None,space,0.3747406001202762,None,0,7,7,10,,,,,,,,,516.0926601998508,,,,,,,,,,,,,516.0775748998858,516.0926601998508,516.0926601998508,516.0926601998508,521.3052650999743,down,5.201584400143474,None,521.3191983997822,521.3292028999422,521.3292028999422,521.3709158999845,521.3713020998985,521.3873190998565,521.3873190998565,521.3873190998565,521.4704896998592,521.771645899862,space,0.3747406001202762,None,,,,,,,,,,,,,,,,,,,,,,,,,P136,001,2025-03-26_15h47.11.717,posner_endo_new1,2024.2.4,60.05565961763483,2025-03-26 15h47.16.067255 +0000,
cube_r.png,0.1,10,catch,8,8,0,down,5.931298200041056,None,space,0.29388049989938736,None,0,8,8,3,,,,,,,,,521.7868406998459,,,,,,,,,,,,,521.7719521999825,521.7868406998459,521.7868406998459,521.7868406998459,527.7338707000017,down,5.931298200041056,None,527.7585427998565,527.7706612998154,527.7706612998154,527.7973868998233,527.7976876997855,527.8139084998984,527.8139084998984,527.8139084998984,527.8972956999205,528.1152268999722,space,0.29388049989938736,None,,,,,,,,,,,,,,,,,,,,,,,,,P136,001,2025-03-26_15h47.11.717,posner_endo_new1,2024.2.4,60.05565961763483,2025-03-26 15h47.16.067255 +0000,
cube_r.png,0.1,0.31,valid,9,9,0,down,5.867736499989405,None,space,0.5393031998537481,None,0,9,9,7,,,,,,,,,528.1308327999432,,,,,,,,,,,,,528.1154610998929,528.1308327999432,528.1308327999432,528.1308327999432,534.010596399894,down,5.867736499989405,None,534.0326862998772,534.0427333000116,534.0427333000116,534.0744256000035,534.0747704999521,534.090853799833,534.090853799833,534.090853799833,534.1746965998318,534.6419450999238,space,0.5393031998537481,None,,,,,,,,,,,,,,,,,,,,,,,,,P136,001,2025-03-26_15h47.11.717,posner_endo_new1,2024.2.4,60.05565961763483,2025-03-26 15h47.16.067255 +0000,
cube_l.png,0.1,0.31,invalid,10,10,0,down,6.405191499972716,None,space,0.5074166001286358,None,0,10,10,5,,,,,,,,,534.6570593998767,,,,,,,,,,,,,534.6422196999192,534.6570593998767,534.6570593998767,534.6570593998767,541.0702377997804,down,6.405191499972716,None,541.0934780999087,541.1057914998382,541.1057914998382,541.1339892998803,541.1343806998339,541.1503188000061,541.1503188000061,541.1503188000061,541.233595199883,541.6677975999191,space,0.5074166001286358,None,,,,,,,,,,,,,,,,,,,,,,,,,P136,001,2025-03-26_15h47.11.717,posner_endo_new1,2024.2.4,60.05565961763483,2025-03-26 15h47.16.067255 +0000,
,,,,,,,,,,,,,,,,,,,,,,,,,,,,,,,,,,541.6679957997985,541.6831860998645,544.7209153999574,544.6653190997895,,,,,,,,,,,,,,,,,,,,,,,,,,,,,,,,,,,,,,,,,,,,,,P136,001,2025-03-26_15h47.11.717,posner_endo_new1,2024.2.4,60.05565961763483,2025-03-26 15h47.16.067255 +0000,
cube_l.png,0.1,10,catch,0,0,0,down,7.686280200025067,None,None,,,,,,,0,0,0,0,,,,,544.7209153999574,,,,,,,,,,,,,544.7115535999183,544.7209153999574,544.7209153999574,544.7209153999574,552.4248216999695,,,,552.4481114998925,552.4594750998076,552.4594750998076,552.4889733998571,552.4893639998045,552.5054219998419,552.5054219998419,552.5054219998419,552.5886914997827,555.5032286997885,,,,down,7.686280200025067,None,554.6032460997812,555.5190977999009,555.5190977999009,555.5190977999009,None,,,,,,,,,,,,,,,,,P136,001,2025-03-26_15h47.11.717,posner_endo_new1,2024.2.4,60.05565961763483,2025-03-26 15h47.16.067255 +0000,
cube_l.png,0.1,10,catch,1,1,0,down,3.2951893000863492,None,None,,,,,,,0,1,1,1,,,,,555.5190977999009,,,,,,,,,,,,,555.5035314999986,555.5190977999009,555.5190977999009,555.5190977999009,558.8170560998842,,,,558.8299058999401,558.8400000999682,558.8400000999682,558.8823650998529,558.8827443998307,558.8990312998649,558.8990312998649,558.8990312998649,558.9820834998973,561.8977341998834,,,,down,3.2951893000863492,None,560.9973390998784,561.9130440999288,561.9130440999288,561.9130440999288,None,,,,,,,,,,,,,,,,,P136,001,2025-03-26_15h47.11.717,posner_endo_new1,2024.2.4,60.05565961763483,2025-03-26 15h47.16.067255 +0000,
cube_l.png,0.1,0.31,invalid,2,2,0,down,2.133035499835387,None,space,0.4960098001174629,None,,,,,0,2,2,2,,,,,561.9130440999288,,,,,,,,,,,,,561.8982668998651,561.9130440999288,561.9130440999288,561.9130440999288,564.0632267999463,,,,564.0864607999101,564.0979400000069,564.0979400000069,564.127098799916,564.1274757999927,564.1434711997863,564.1434711997863,564.1434711997863,564.2267119998578,564.6446263999678,,,,down,2.133035499835387,None,,,,,space,0.4960098001174629,None,,,,,,,,,,,,,,,P136,001,2025-03-26_15h47.11.717,posner_endo_new1,2024.2.4,60.05565961763483,2025-03-26 15h47.16.067255 +0000,
cube_l.png,0.1,0.31,invalid,3,3,0,down,7.098835699958727,None,space,0.4336767001077533,None,,,,,0,3,3,3,,,,,564.6597274998203,,,,,,,,,,,,,564.6449589999393,564.6597274998203,564.6597274998203,564.6597274998203,571.7701831997838,,,,571.7786340999883,571.7890460998751,571.7890460998751,571.8362386999652,571.8367790998891,571.852647199994,571.852647199994,571.852647199994,571.9192662998103,572.3039047999773,,,,down,7.098835699958727,None,,,,,space,0.4336767001077533,None,,,,,,,,,,,,,,,P136,001,2025-03-26_15h47.11.717,posner_endo_new1,2024.2.4,60.05565961763483,2025-03-26 15h47.16.067255 +0000,
cube_l.png,0.1,-0.31,valid,4,4,0,down,5.991463700076565,None,space,0.4801938000600785,None,,,,,0,4,4,4,,,,,572.3188875999767,,,,,,,,,,,,,572.3043785998598,572.3188875999767,572.3188875999767,572.3188875999767,578.3148903998081,,,,578.3340531999711,578.3456997999456,578.3456997999456,578.3796749999747,578.3800132998731,578.3958903998137,578.3958903998137,578.3958903998137,578.4794392997865,578.8800490999129,,,,down,5.991463700076565,None,,,,,space,0.4801938000600785,None,,,,,,,,,,,,,,,P136,001,2025-03-26_15h47.11.717,posner_endo_new1,2024.2.4,60.05565961763483,2025-03-26 15h47.16.067255 +0000,
cube_r.png,0.1,-0.31,invalid,5,5,0,down,5.319131500087678,None,space,0.4181371000595391,None,,,,,0,5,5,5,,,,,578.8955199997872,,,,,,,,,,,,,578.8803384997882,578.8955199997872,578.8955199997872,578.8955199997872,584.2258623999078,,,,584.2489857999608,584.2602382998448,584.2602382998448,584.2897882999387,584.2901672997978,584.3061653999612,584.3061653999612,584.3061653999612,584.3895221999846,584.7404085998423,,,,down,5.319131500087678,None,,,,,space,0.4181371000595391,None,,,,,,,,,,,,,,,P136,001,2025-03-26_15h47.11.717,posner_endo_new1,2024.2.4,60.05565961763483,2025-03-26 15h47.16.067255 +0000,
cube_r.png,0.1,0.31,valid,6,6,0,down,5.5864273000042886,None,space,0.3726836999412626,None,,,,,0,6,6,6,,,,,584.7558737997897,,,,,,,,,,,,,584.7407327999827,584.7558737997897,584.7558737997897,584.7558737997897,590.3510216998402,,,,590.3594505998772,590.3700269998517,590.3700269998517,590.4170712998603,590.4175723998342,590.4335164998192,590.4335164998192,590.4335164998192,590.500146899838,590.818178499816,,,,down,5.5864273000042886,None,,,,,space,0.3726836999412626,None,,,,,,,,,,,,,,,P136,001,2025-03-26_15h47.11.717,posner_endo_new1,2024.2.4,60.05565961763483,2025-03-26 15h47.16.067255 +0000,
cube_r.png,0.1,-0.31,invalid,7,7,0,down,5.285375599982217,None,space,0.404248199891299,None,,,,,0,7,7,7,,,,,590.8331432999112,,,,,,,,,,,,,590.8186070998199,590.8331432999112,590.8331432999112,590.8331432999112,596.1286008998286,,,,596.1403394998051,596.1504798999522,596.1504798999522,596.1947262999602,596.1950647998601,596.211088999873,596.211088999873,596.211088999873,596.294397899881,596.6283446999732,,,,down,5.285375599982217,None,,,,,space,0.404248199891299,None,,,,,,,,,,,,,,,P136,001,2025-03-26_15h47.11.717,posner_endo_new1,2024.2.4,60.05565961763483,2025-03-26 15h47.16.067255 +0000,
cube_l.png,0.1,-0.31,valid,8,8,0,down,5.338914500083774,None,space,0.4141944001894444,None,,,,,0,8,8,8,,,,,596.6440002999734,,,,,,,,,,,,,596.6286314998288,596.6440002999734,596.6440002999734,596.6440002999734,601.9893932999112,,,,602.0011260998435,602.0112621998414,602.0112621998414,602.0552236998919,602.055574500002,602.0714174997993,602.0714174997993,602.0714174997993,602.1546952999197,602.4890555997845,,,,down,5.338914500083774,None,,,,,space,0.4141944001894444,None,,,,,,,,,,,,,,,P136,001,2025-03-26_15h47.11.717,posner_endo_new1,2024.2.4,60.05565961763483,2025-03-26 15h47.16.067255 +0000,
cube_r.png,0.1,-0.31,invalid,9,9,0,down,6.549224199960008,None,space,0.4336598999798298,None,,,,,0,9,9,9,,,,,602.5044888998382,,,,,,,,,,,,,602.489349699812,602.5044888998382,602.5044888998382,602.5044888998382,609.0656077999156,,,,609.077252499992,609.0875570999924,609.0875570999924,609.1309647997841,609.1313077998348,609.1478342998307,609.1478342998307,609.1478342998307,609.2310905999038,609.5986359999515,,,,down,6.549224199960008,None,,,,,space,0.4336598999798298,None,,,,,,,,,,,,,,,P136,001,2025-03-26_15h47.11.717,posner_endo_new1,2024.2.4,60.05565961763483,2025-03-26 15h47.16.067255 +0000,
cube_l.png,0.1,0.31,invalid,10,10,0,down,5.120823900215328,None,space,0.4405593001283705,None,,,,,0,10,10,10,,,,,609.6136702999938,,,,,,,,,,,,,609.5989232999273,609.6136702999938,609.6136702999938,609.6136702999938,614.7431556999218,,,,614.7546917998698,614.7648704999592,614.7648704999592,614.8089452998247,614.8092873999849,614.8250307999551,614.8250307999551,614.8250307999551,614.9083825999405,615.2758334998507,,,,down,5.120823900215328,None,,,,,space,0.4405593001283705,None,,,,,,,,,,,,,,,P136,001,2025-03-26_15h47.11.717,posner_endo_new1,2024.2.4,60.05565961763483,2025-03-26 15h47.16.067255 +0000,
cube_r.png,0.1,-0.31,invalid,11,11,0,down,5.642474899999797,None,space,0.4032592000439763,None,,,,,0,11,11,11,,,,,615.2916603998747,,,,,,,,,,,,,615.2761267998721,615.2916603998747,615.2916603998747,615.2916603998747,620.9371394999325,,,,620.9487151999492,620.9589507000055,620.9589507000055,621.0026294998825,621.0029811998829,621.0186946999747,621.0186946999747,621.0186946999747,621.1019747999962,621.4360421998426,,,,down,5.642474899999797,None,,,,,space,0.4032592000439763,None,,,,,,,,,,,,,,,P136,001,2025-03-26_15h47.11.717,posner_endo_new1,2024.2.4,60.05565961763483,2025-03-26 15h47.16.067255 +0000,
cube_r.png,0.1,0.31,valid,12,12,0,down,5.946733599994332,None,space,0.3846994999330491,None,,,,,0,12,12,12,,,,,621.451929599978,,,,,,,,,,,,,621.4363320998382,621.451929599978,621.451929599978,621.451929599978,627.4136484998744,,,,627.4243114998098,627.4340230999514,627.4340230999514,627.4790317998268,627.4792750999331,627.4957055998966,627.4957055998966,627.4957055998966,627.5792778998148,627.8978494999465,,,,down,5.946733599994332,None,,,,,space,0.3846994999330491,None,,,,,,,,,,,,,,,P136,001,2025-03-26_15h47.11.717,posner_endo_new1,2024.2.4,60.05565961763483,2025-03-26 15h47.16.067255 +0000,
cube_l.png,0.1,10,catch,13,13,0,down,6.166273499839008,None,None,,,,,,,0,13,13,13,,,,,627.9123148999643,,,,,,,,,,,,,627.8984294999391,627.9123148999643,627.9123148999643,627.9123148999643,634.0915692998096,,,,634.1132333998103,634.1231412999332,634.1231412999332,634.155314499978,634.155662599951,634.172176099848,634.172176099848,634.172176099848,634.2552168997936,637.1695770998485,,,,down,6.166273499839008,None,636.2700853999704,637.1858462998644,637.1858462998644,637.1858462998644,None,,,,,,,,,,,,,,,,,P136,001,2025-03-26_15h47.11.717,posner_endo_new1,2024.2.4,60.05565961763483,2025-03-26 15h47.16.067255 +0000,
cube_r.png,0.1,-0.31,invalid,14,14,0,down,2.9320481000468135,None,space,0.4160497998818755,None,,,,,0,14,14,14,,,,,637.1858462998644,,,,,,,,,,,,,637.1698457999155,637.1858462998644,637.1858462998644,637.1858462998644,640.1336031998508,,,,640.1445531998761,640.1541581999045,640.1541581999045,640.1995939000044,640.1998268999159,640.216152299894,640.216152299894,640.216152299894,640.282417899929,640.6491586999036,,,,down,2.9320481000468135,None,,,,,space,0.4160497998818755,None,,,,,,,,,,,,,,,P136,001,2025-03-26_15h47.11.717,posner_endo_new1,2024.2.4,60.05565961763483,2025-03-26 15h47.16.067255 +0000,
cube_l.png,0.1,-0.31,valid,15,15,0,down,4.940499200019985,None,space,0.4182903999462724,None,,,,,0,15,15,15,,,,,640.6652113997843,,,,,,,,,,,,,640.6493430999108,640.6652113997843,640.6652113997843,640.6652113997843,645.6112318998203,,,,645.618259199895,645.6298458999954,645.6298458999954,645.6772315998096,645.677439799998,645.693437699927,645.693437699927,645.693437699927,645.7764549998101,646.1289706998505,,,,down,4.940499200019985,None,,,,,space,0.4182903999462724,None,,,,,,,,,,,,,,,P136,001,2025-03-26_15h47.11.717,posner_endo_new1,2024.2.4,60.05565961763483,2025-03-26 15h47.16.067255 +0000,
cube_r.png,0.1,10,catch,16,16,0,down,6.230379499960691,None,None,,,,,,,0,16,16,16,,,,,646.1435293999966,,,,,,,,,,,,,646.1295516998507,646.1435293999966,646.1435293999966,646.1435293999966,652.387636099942,,,,652.3978665999603,652.4080404997803,652.4080404997803,652.4537213998847,652.4540275000036,652.4702137999702,652.4702137999702,652.4702137999702,652.5530948999804,655.4688263998833,,,,down,6.230379499960691,None,654.5676607999485,655.4839474000037,655.4839474000037,655.4839474000037,None,,,,,,,,,,,,,,,,,P136,001,2025-03-26_15h47.11.717,posner_endo_new1,2024.2.4,60.05565961763483,2025-03-26 15h47.16.067255 +0000,
cube_r.png,0.1,10,catch,17,17,0,down,3.2017965998966247,None,None,,,,,,,0,17,17,17,,,,,655.4839474000037,,,,,,,,,,,,,655.4693893999793,655.4839474000037,655.4839474000037,655.4839474000037,658.6979305997957,,,,658.7041025999933,658.7158822999336,658.7158822999336,658.7634988999926,658.7637193999253,658.7803978999145,658.7803978999145,658.7803978999145,658.8470689000096,661.7789001998026,,,,down,3.2017965998966247,None,660.8617800998036,661.7942076998297,661.7942076998297,661.7942076998297,None,,,,,,,,,,,,,,,,,P136,001,2025-03-26_15h47.11.717,posner_endo_new1,2024.2.4,60.05565961763483,2025-03-26 15h47.16.067255 +0000,
cube_l.png,0.1,0.31,invalid,18,18,0,down,3.476644500158727,None,space,0.40299850003793836,None,,,,,0,18,18,18,,,,,661.7942076998297,,,,,,,,,,,,,661.7794530999381,661.7942076998297,661.7942076998297,661.7942076998297,665.2766210997943,,,,665.3005507998168,665.312578199897,665.312578199897,665.3401839998551,665.3405665999744,665.3569566998631,665.3569566998631,665.3569566998631,665.4400229000021,665.7740604998544,,,,down,3.476644500158727,None,,,,,space,0.40299850003793836,None,,,,,,,,,,,,,,,P136,001,2025-03-26_15h47.11.717,posner_endo_new1,2024.2.4,60.05565961763483,2025-03-26 15h47.16.067255 +0000,
cube_l.png,0.1,10,catch,19,19,0,down,5.5611795000731945,None,None,,,,,,,0,19,19,19,,,,,665.7895115998108,,,,,,,,,,,,,665.7742800998967,665.7895115998108,665.7895115998108,665.7895115998108,671.3536644999404,,,,671.3748233998194,671.3850763000082,671.3850763000082,671.4172729998827,671.4176715000067,671.4336750998627,671.4336750998627,671.4336750998627,671.5170583999716,674.4313613998238,,,,down,5.5611795000731945,None,673.5315389998723,674.4472935998347,674.4472935998347,674.4472935998347,None,,,,,,,,,,,,,,,,,P136,001,2025-03-26_15h47.11.717,posner_endo_new1,2024.2.4,60.05565961763483,2025-03-26 15h47.16.067255 +0000,
cube_l.png,0.1,0.31,invalid,20,20,0,down,2.8793832000810653,None,space,0.44824609998613596,None,,,,,0,20,20,20,,,,,674.4472935998347,,,,,,,,,,,,,674.4316912000068,674.4472935998347,674.4472935998347,674.4472935998347,677.3291176999919,,,,677.3390477998182,677.3492345998529,677.3492345998529,677.3945394998882,677.3948445999995,677.4113136997912,677.4113136997912,677.4113136997912,677.4946052997839,677.8618553997949,,,,down,2.8793832000810653,None,,,,,space,0.44824609998613596,None,,,,,,,,,,,,,,,P136,001,2025-03-26_15h47.11.717,posner_endo_new1,2024.2.4,60.05565961763483,2025-03-26 15h47.16.067255 +0000,
cube_l.png,0.1,-0.31,valid,21,21,0,down,5.657403700053692,None,space,0.4391097000334412,None,,,,,0,21,21,21,,,,,677.8772163998801,,,,,,,,,,,,,677.8621077998541,677.8772163998801,677.8772163998801,677.8772163998801,683.5394165997859,,,,683.549480299931,683.5595379997976,683.5595379997976,683.60482459981,683.605123499874,683.6213081998285,683.6213081998285,683.6213081998285,683.7045567999594,684.0721543999389,,,,down,5.657403700053692,None,,,,,space,0.4391097000334412,None,,,,,,,,,,,,,,,P136,001,2025-03-26_15h47.11.717,posner_endo_new1,2024.2.4,60.05565961763483,2025-03-26 15h47.16.067255 +0000,
cube_r.png,0.1,0.31,valid,22,22,0,down,4.694291199790314,None,space,0.3949210001155734,None,,,,,0,22,22,22,,,,,684.0878347000107,,,,,,,,,,,,,684.0724065999966,684.0878347000107,684.0878347000107,684.0878347000107,688.7841093998868,,,,688.7939542999957,688.8040729998611,688.8040729998611,688.8495355998166,688.8498338998761,688.8660083999857,688.8660083999857,688.8660083999857,688.9495307998732,689.2669854999986,,,,down,4.694291199790314,None,,,,,space,0.3949210001155734,None,,,,,,,,,,,,,,,P136,001,2025-03-26_15h47.11.717,posner_endo_new1,2024.2.4,60.05565961763483,2025-03-26 15h47.16.067255 +0000,
cube_r.png,0.1,-0.31,invalid,23,23,0,down,6.981506499927491,None,space,0.4317920000758022,None,,,,,0,23,23,23,,,,,689.2822002999019,,,,,,,,,,,,,689.2672374998219,689.2822002999019,689.2822002999019,689.2822002999019,696.2759753998835,,,,696.2859578998759,696.296105899848,696.296105899848,696.34205989982,696.3423623999115,696.358700199984,696.358700199984,696.358700199984,696.4250370999798,696.7926384999882,,,,down,6.981506499927491,None,,,,,space,0.4317920000758022,None,,,,,,,,,,,,,,,P136,001,2025-03-26_15h47.11.717,posner_endo_new1,2024.2.4,60.05565961763483,2025-03-26 15h47.16.067255 +0000,
cube_r.png,0.1,0.31,valid,24,24,0,down,7.646395800169557,None,space,0.4182215000037104,None,,,,,0,24,24,24,,,,,696.8081472998019,,,,,,,,,,,,,696.7928881999105,696.8081472998019,696.8081472998019,696.8081472998019,704.4677917999215,,,,704.4738535999786,704.4855015999638,704.4855015999638,704.5335975999478,704.533826299943,704.5497889998369,704.5497889998369,704.5497889998369,704.6170281998347,704.9836802999489,,,,down,7.646395800169557,None,,,,,space,0.4182215000037104,None,,,,,,,,,,,,,,,P136,001,2025-03-26_15h47.11.717,posner_endo_new1,2024.2.4,60.05565961763483,2025-03-26 15h47.16.067255 +0000,
cube_r.png,0.1,-0.31,invalid,25,25,0,down,6.614383999956772,None,space,0.403736500069499,None,,,,,0,25,25,25,,,,,704.9996971997898,,,,,,,,,,,,,704.9838498998433,704.9996971997898,704.9996971997898,704.9996971997898,711.6289230999537,,,,711.6541613999289,711.6665992999915,711.6665992999915,711.6926050998736,711.6929416998755,711.7090552998707,711.7090552998707,711.7090552998707,711.79268759978,712.1284650999587,,,,down,6.614383999956772,None,,,,,space,0.403736500069499,None,,,,,,,,,,,,,,,P136,001,2025-03-26_15h47.11.717,posner_endo_new1,2024.2.4,60.05565961763483,2025-03-26 15h47.16.067255 +0000,
cube_l.png,0.1,-0.31,valid,26,26,0,down,6.73584710014984,None,space,0.4987665999215096,None,,,,,0,26,26,26,,,,,712.1428182998206,,,,,,,,,,,,,712.1290575999301,712.1428182998206,712.1428182998206,712.1428182998206,718.8880444997922,,,,718.913345299894,718.9258844999131,718.9258844999131,718.9522169998381,718.9525633999147,718.9686202998273,718.9686202998273,718.9686202998273,719.0517818999942,719.4692328998353,,,,down,6.73584710014984,None,,,,,space,0.4987665999215096,None,,,,,,,,,,,,,,,P136,001,2025-03-26_15h47.11.717,posner_endo_new1,2024.2.4,60.05565961763483,2025-03-26 15h47.16.067255 +0000,
cube_r.png,0.1,0.31,valid,27,27,0,down,6.665115399984643,None,space,0.4464831999503076,None,,,,,0,27,27,27,,,,,719.4848415998276,,,,,,,,,,,,,719.4695237998385,719.4848415998276,719.4848415998276,719.4848415998276,726.1624689998571,,,,726.1749429998454,726.1851695999503,726.1851695999503,726.2284039999358,726.2287412998267,726.2442845997866,726.2442845997866,726.2442845997866,726.327943299897,726.6954996997956,,,,down,6.665115399984643,None,,,,,space,0.4464831999503076,None,,,,,,,,,,,,,,,P136,001,2025-03-26_15h47.11.717,posner_endo_new1,2024.2.4,60.05565961763483,2025-03-26 15h47.16.067255 +0000,
cube_r.png,0.1,10,catch,28,28,0,down,6.424081899924204,None,None,,,,,,,0,28,28,28,,,,,726.7105372999795,,,,,,,,,,,,,726.6957907998003,726.7105372999795,726.7105372999795,726.7105372999795,733.1385776000097,,,,733.1510200998746,733.1611767997965,733.1611767997965,733.2043748998549,733.2047205998097,733.220556399785,733.220556399785,733.220556399785,733.3038377999328,736.2182894998696,,,,down,6.424081899924204,None,735.3183973999694,736.2344652998727,736.2344652998727,736.2344652998727,None,,,,,,,,,,,,,,,,,P136,001,2025-03-26_15h47.11.717,posner_endo_new1,2024.2.4,60.05565961763483,2025-03-26 15h47.16.067255 +0000,
cube_r.png,0.1,0.31,valid,29,29,0,down,3.027821199968457,None,space,0.4609482001978904,None,,,,,0,29,29,29,,,,,736.2344652998727,,,,,,,,,,,,,736.2185521000065,736.2344652998727,736.2344652998727,736.2344652998727,739.2660881998017,,,,739.2782613998279,739.2885455999058,739.2885455999058,739.3313411998097,739.3315879998263,739.3476300998591,739.3476300998591,739.3476300998591,739.4308222997934,739.8145911998581,,,,down,3.027821199968457,None,,,,,space,0.4609482001978904,None,,,,,,,,,,,,,,,P136,001,2025-03-26_15h47.11.717,posner_endo_new1,2024.2.4,60.05565961763483,2025-03-26 15h47.16.067255 +0000,
cube_r.png,0.1,0.31,valid,30,30,0,down,6.144020300125703,None,space,0.44878980005159974,None,,,,,0,30,30,30,,,,,739.8309059999883,,,,,,,,,,,,,739.8148084999993,739.8309059999883,739.8309059999883,739.8309059999883,745.9924137999769,,,,746.0047169998288,746.0145278999116,746.0145278999116,746.0578521999996,746.0581978999544,746.0744118997827,746.0744118997827,746.0744118997827,746.1575082999188,746.5251393998042,,,,down,6.144020300125703,None,,,,,space,0.44878980005159974,None,,,,,,,,,,,,,,,P136,001,2025-03-26_15h47.11.717,posner_endo_new1,2024.2.4,60.05565961763483,2025-03-26 15h47.16.067255 +0000,
cube_l.png,0.1,-0.31,valid,31,31,0,down,7.673995299963281,None,space,0.389401099877432,None,,,,,0,31,31,31,,,,,746.5406630998477,,,,,,,,,,,,,746.5254271999002,746.5406630998477,746.5406630998477,746.5406630998477,754.2171206998173,,,,754.2292359999847,754.2395430000033,754.2395430000033,754.2824840999674,754.2828288997989,754.2991853998974,754.2991853998974,754.2991853998974,754.3825658999849,754.6999132998753,,,,down,7.673995299963281,None,,,,,space,0.389401099877432,None,,,,,,,,,,,,,,,P136,001,2025-03-26_15h47.11.717,posner_endo_new1,2024.2.4,60.05565961763483,2025-03-26 15h47.16.067255 +0000,
cube_r.png,0.1,0.31,valid,32,32,0,down,9.955487200058997,None,space,0.5054723001085222,None,,,,,0,32,32,32,,,,,754.7151670998428,,,,,,,,,,,,,754.7001963998191,754.7151670998428,754.7151670998428,754.7151670998428,764.6749644998927,,,,764.6992239998654,764.7103715999983,764.7103715999983,764.7383304999676,764.7386610999238,764.7551180999726,764.7551180999726,764.7551180999726,764.8385193999857,765.2724622997921,,,,down,9.955487200058997,None,,,,,space,0.5054723001085222,None,,,,,,,,,,,,,,,P136,001,2025-03-26_15h47.11.717,posner_endo_new1,2024.2.4,60.05565961763483,2025-03-26 15h47.16.067255 +0000,
cube_r.png,0.1,-0.31,invalid,33,33,0,down,31.038597299950197,None,space,0.38535759993828833,None,,,,,0,33,33,33,,,,,765.2879221998155,,,,,,,,,,,,,765.2727456998546,765.2879221998155,765.2879221998155,765.2879221998155,796.342063699849,,,,796.3652642997913,796.3775606998242,796.3775606998242,796.4059633999132,796.4063096998725,796.4224180998281,796.4224180998281,796.4224180998281,796.5062996000051,796.8250336998608,,,,down,31.038597299950197,None,,,,,space,0.38535759993828833,None,,,,,,,,,,,,,,,P136,001,2025-03-26_15h47.11.717,posner_endo_new1,2024.2.4,60.05565961763483,2025-03-26 15h47.16.067255 +0000,
cube_r.png,0.1,10,catch,34,34,0,down,5.350897700060159,None,None,,,,,,,0,34,34,34,,,,,796.8393727999646,,,,,,,,,,,,,796.8256266999524,796.8393727999646,796.8393727999646,796.8393727999646,802.2028572999407,,,,802.2260514998343,802.2380948998034,802.2380948998034,802.2666839999147,802.267072299961,802.2832092999015,802.2832092999015,802.2832092999015,802.3663554999512,805.2808179999702,,,,down,5.350897700060159,None,804.3809844998177,805.2967100997921,805.2967100997921,805.2967100997921,None,,,,,,,,,,,,,,,,,P136,001,2025-03-26_15h47.11.717,posner_endo_new1,2024.2.4,60.05565961763483,2025-03-26 15h47.16.067255 +0000,
cube_r.png,0.1,0.31,valid,35,35,0,down,3.2852169999387115,None,space,0.4356759001966566,None,,,,,0,35,35,35,,,,,805.2967100997921,,,,,,,,,,,,,805.2811177999247,805.2967100997921,805.2967100997921,805.2967100997921,808.5946066000033,,,,808.6074855998158,808.6175052998587,808.6175052998587,808.6604368998669,808.6606935998425,808.6766239998396,808.6766239998396,808.6766239998396,808.759967799997,809.127524699783,,,,down,3.2852169999387115,None,,,,,space,0.4356759001966566,None,,,,,,,,,,,,,,,P136,001,2025-03-26_15h47.11.717,posner_endo_new1,2024.2.4,60.05565961763483,2025-03-26 15h47.16.067255 +0000,
cube_r.png,0.1,-0.31,invalid,36,36,0,down,5.407537200022489,None,space,0.39585190010257065,None,,,,,0,36,36,36,,,,,809.143018799834,,,,,,,,,,,,,809.1278484999202,809.143018799834,809.143018799834,809.143018799834,814.5547938998789,,,,814.5657408998813,814.577905499842,814.577905499842,814.6214168998413,814.6221460998058,814.6377977998927,814.6377977998927,814.6377977998927,814.7043822999112,815.0397614999674,,,,down,5.407537200022489,None,,,,,space,0.39585190010257065,None,,,,,,,,,,,,,,,P136,001,2025-03-26_15h47.11.717,posner_endo_new1,2024.2.4,60.05565961763483,2025-03-26 15h47.16.067255 +0000,
cube_l.png,0.1,0.31,invalid,37,37,0,down,5.719903900055215,None,space,0.4237085999920964,None,,,,,0,37,37,37,,,,,815.0541276999284,,,,,,,,,,,,,815.040375799872,815.0541276999284,815.0541276999284,815.0541276999284,820.7840527999215,,,,820.8049129999708,820.8150269999169,820.8150269999169,820.8478033998981,820.8481882999185,820.8640723999124,820.8640723999124,820.8640723999124,820.947398299817,821.2983460999094,,,,down,5.719903900055215,None,,,,,space,0.4237085999920964,None,,,,,,,,,,,,,,,P136,001,2025-03-26_15h47.11.717,posner_endo_new1,2024.2.4,60.05565961763483,2025-03-26 15h47.16.067255 +0000,
cube_l.png,0.1,0.31,invalid,38,38,0,down,6.028862799983472,None,space,0.4318289998918772,None,,,,,0,38,38,38,,,,,821.3137893998064,,,,,,,,,,,,,821.2986654997803,821.3137893998064,821.3137893998064,821.3137893998064,827.358854399994,,,,827.371696599992,827.3817015998065,827.3817015998065,827.4242827999406,827.424672299996,827.4406690998003,827.4406690998003,827.4406690998003,827.523917199811,827.8749207998626,,,,down,6.028862799983472,None,,,,,space,0.4318289998918772,None,,,,,,,,,,,,,,,P136,001,2025-03-26_15h47.11.717,posner_endo_new1,2024.2.4,60.05565961763483,2025-03-26 15h47.16.067255 +0000,
cube_r.png,0.1,0.31,valid,39,39,0,down,5.988552700029686,None,space,0.4340760000050068,None,,,,,0,39,39,39,,,,,827.8904063999653,,,,,,,,,,,,,827.8752377999481,827.8904063999653,827.8904063999653,827.8904063999653,833.8856102998834,,,,833.8972102999687,833.9074221998453,833.9074221998453,833.9514120998792,833.9517532999162,833.9677420998923,833.9677420998923,833.9677420998923,834.0508514000103,834.4183635998052,,,,down,5.988552700029686,None,,,,,space,0.4340760000050068,None,,,,,,,,,,,,,,,P136,001,2025-03-26_15h47.11.717,posner_endo_new1,2024.2.4,60.05565961763483,2025-03-26 15h47.16.067255 +0000,
cube_l.png,0.1,0.31,invalid,40,40,0,down,5.452562600141391,None,space,0.394031299976632,None,,,,,0,40,40,40,,,,,834.4337371999864,,,,,,,,,,,,,834.4186475998722,834.4337371999864,834.4337371999864,834.4337371999864,839.8962038999889,,,,839.9076252998784,839.9176674999762,839.9176674999762,839.9617609998677,839.9621051999275,839.9781835998874,839.9781835998874,839.9781835998874,840.0615890999325,840.3789832999464,,,,down,5.452562600141391,None,,,,,space,0.394031299976632,None,,,,,,,,,,,,,,,P136,001,2025-03-26_15h47.11.717,posner_endo_new1,2024.2.4,60.05565961763483,2025-03-26 15h47.16.067255 +0000,
cube_l.png,0.1,10,catch,41,41,0,down,13.667983999941498,None,None,,,,,,,0,41,41,41,,,,,840.3945221998729,,,,,,,,,,,,,840.3792691999115,840.3945221998729,840.3945221998729,840.3945221998729,854.06676899991,,,,854.0907662999816,854.1030476999003,854.1030476999003,854.1307514999062,854.1310939998366,854.1467882997822,854.1467882997822,854.1467882997822,854.2303365999833,857.1456493998412,,,,down,13.667983999941498,None,856.2451874997932,857.160942699993,857.160942699993,857.160942699993,None,,,,,,,,,,,,,,,,,P136,001,2025-03-26_15h47.11.717,posner_endo_new1,2024.2.4,60.05565961763483,2025-03-26 15h47.16.067255 +0000,
cube_l.png,0.1,-0.31,valid,42,42,0,down,3.4616976999677718,None,space,0.4196160000283271,None,,,,,0,42,42,42,,,,,857.160942699993,,,,,,,,,,,,,857.1461844998412,857.160942699993,857.160942699993,857.160942699993,860.6264357999898,,,,860.646904299967,860.6573723999318,860.6573723999318,860.6902803999837,860.6907253998797,860.7067026000004,860.7067026000004,860.7067026000004,860.7900381998625,861.1406507999636,,,,down,3.4616976999677718,None,,,,,space,0.4196160000283271,None,,,,,,,,,,,,,,,P136,001,2025-03-26_15h47.11.717,posner_endo_new1,2024.2.4,60.05565961763483,2025-03-26 15h47.16.067255 +0000,
cube_l.png,0.1,10,catch,43,43,0,down,7.065594899933785,None,None,,,,,,,0,43,43,43,,,,,861.1566488998942,,,,,,,,,,,,,861.140895199962,861.1566488998942,861.1566488998942,861.1566488998942,868.2352300998755,,,,868.2591193998232,868.2708181999624,868.2708181999624,868.2989898999222,868.2992925997823,868.3154272998217,868.3154272998217,868.3154272998217,868.3994326998945,871.3145125999581,,,,down,7.065594899933785,None,870.4140319998842,871.3297261998523,871.3297261998523,871.3297261998523,None,,,,,,,,,,,,,,,,,P136,001,2025-03-26_15h47.11.717,posner_endo_new1,2024.2.4,60.05565961763483,2025-03-26 15h47.16.067255 +0000,
cube_l.png,0.1,0.31,invalid,44,44,0,down,3.26106940000318,None,space,0.4107033999171108,None,,,,,0,44,44,44,,,,,871.3297261998523,,,,,,,,,,,,,871.315062899841,871.3297261998523,871.3297261998523,871.3297261998523,874.5957078998908,,,,874.6193947999272,874.6308366998564,874.6308366998564,874.6593883999158,874.6597162999678,874.675942099886,874.675942099886,874.675942099886,874.7593959998339,875.0935653999913,,,,down,3.26106940000318,None,,,,,space,0.4107033999171108,None,,,,,,,,,,,,,,,P136,001,2025-03-26_15h47.11.717,posner_endo_new1,2024.2.4,60.05565961763483,2025-03-26 15h47.16.067255 +0000,
cube_l.png,0.1,0.31,invalid,45,45,0,down,4.985571400029585,None,space,0.8047376000322402,None,,,,,0,45,45,45,,,,,875.1091076999437,,,,,,,,,,,,,875.0938422998879,875.1091076999437,875.1091076999437,875.1091076999437,880.1066592999268,,,,880.1304776999168,880.142589099938,880.142589099938,880.1701972999144,880.1705453000031,880.1866680998355,880.1866680998355,880.1866680998355,880.2702929999214,881.0039144000039,,,,down,4.985571400029585,None,,,,,space,0.8047376000322402,None,,,,,,,,,,,,,,,P136,001,2025-03-26_15h47.11.717,posner_endo_new1,2024.2.4,60.05565961763483,2025-03-26 15h47.16.067255 +0000,
cube_r.png,0.1,0.31,valid,46,46,0,down,6.986467600101605,None,space,0.3995435000397265,None,,,,,0,46,46,46,,,,,881.0197508998681,,,,,,,,,,,,,881.0041951998137,881.0197508998681,881.0197508998681,881.0197508998681,888.0150986998342,,,,888.0358013999648,888.0459917997941,888.0459917997941,888.0789190998767,888.079304299783,888.0953520999756,888.0953520999756,888.0953520999756,888.1785728998948,888.4963283999823,,,,down,6.986467600101605,None,,,,,space,0.3995435000397265,None,,,,,,,,,,,,,,,P136,001,2025-03-26_15h47.11.717,posner_endo_new1,2024.2.4,60.05565961763483,2025-03-26 15h47.16.067255 +0000,
cube_l.png,0.1,-0.31,valid,47,47,0,down,5.526919099967927,None,space,0.3778090998530388,None,,,,,0,47,47,47,,,,,888.5115388999693,,,,,,,,,,,,,888.4966439998243,888.5115388999693,888.5115388999693,888.5115388999693,894.0408169999719,,,,894.0538497997914,894.0638666998129,894.0638666998129,894.1059881998226,894.1063759999815,894.1224247999489,894.1224247999489,894.1224247999489,894.2057229999918,894.5067629998084,,,,down,5.526919099967927,None,,,,,space,0.3778090998530388,None,,,,,,,,,,,,,,,P136,001,2025-03-26_15h47.11.717,posner_endo_new1,2024.2.4,60.05565961763483,2025-03-26 15h47.16.067255 +0000,
cube_r.png,0.1,-0.31,invalid,48,48,0,down,5.924729100195691,None,space,0.49626520019955933,None,,,,,0,48,48,48,,,,,894.5220975999255,,,,,,,,,,,,,894.5070784999989,894.5220975999255,894.5220975999255,894.5220975999255,900.4524534998927,,,,900.4766538999975,900.4887463999912,900.4887463999912,900.5164955998771,900.516780299833,900.5327256999444,900.5327256999444,900.5327256999444,900.6161600998603,901.0331107999664,,,,down,5.924729100195691,None,,,,,space,0.49626520019955933,None,,,,,,,,,,,,,,,P136,001,2025-03-26_15h47.11.717,posner_endo_new1,2024.2.4,60.05565961763483,2025-03-26 15h47.16.067255 +0000,
cube_r.png,0.1,10,catch,49,49,0,down,5.917046899907291,None,None,,,,,,,0,49,49,49,,,,,901.0488117998466,,,,,,,,,,,,,901.033333899919,901.0488117998466,901.0488117998466,901.0488117998466,906.9770802999847,,,,906.986059699906,906.9958504999522,906.9958504999522,907.0432046998758,907.0437553999946,907.0596078999806,907.0596078999806,907.0596078999806,907.1262062999886,910.0578526000027,,,,down,5.917046899907291,None,909.1408642998431,910.0732079998124,910.0732079998124,910.0732079998124,None,,,,,,,,,,,,,,,,,P136,001,2025-03-26_15h47.11.717,posner_endo_new1,2024.2.4,60.05565961763483,2025-03-26 15h47.16.067255 +0000,
cube_l.png,0.1,-0.31,valid,50,50,0,down,2.533060499932617,None,space,0.4362777001224458,None,,,,,0,50,50,50,,,,,910.0732079998124,,,,,,,,,,,,,910.0582883998286,910.0732079998124,910.0732079998124,910.0732079998124,912.622407599818,,,,912.6416172999889,912.6523991997819,912.6523991997819,912.6874390000012,912.6879904998932,912.7038749000058,912.7038749000058,912.7038749000058,912.7870404999703,913.1552296997979,,,,down,2.533060499932617,None,,,,,space,0.4362777001224458,None,,,,,,,,,,,,,,,P136,001,2025-03-26_15h47.11.717,posner_endo_new1,2024.2.4,60.05565961763483,2025-03-26 15h47.16.067255 +0000,
cube_l.png,0.1,-0.31,valid,51,51,0,down,7.700198099948466,None,space,0.494536500191316,None,,,,,0,51,51,51,,,,,913.170081499964,,,,,,,,,,,,,913.1556973999832,913.170081499964,913.170081499964,913.170081499964,920.8806559999939,,,,920.9001240998041,920.9114698998164,920.9114698998164,920.9450463999528,920.9453316999134,920.9619115998503,920.9619115998503,920.9619115998503,921.0449450998567,921.4634176997934,,,,down,7.700198099948466,None,,,,,space,0.494536500191316,None,,,,,,,,,,,,,,,P136,001,2025-03-26_15h47.11.717,posner_endo_new1,2024.2.4,60.05565961763483,2025-03-26 15h47.16.067255 +0000,
cube_r.png,0.1,-0.31,invalid,52,52,0,down,5.592586999991909,None,space,0.3998340000398457,None,,,,,0,52,52,52,,,,,921.4781542997807,,,,,,,,,,,,,921.4638739000075,921.4781542997807,921.4781542997807,921.4781542997807,927.0744790998287,,,,927.0940812998451,927.105452099815,927.105452099815,927.1393263998907,927.1398631997872,927.155667899875,927.155667899875,927.155667899875,927.238971499959,927.5574138998054,,,,down,5.592586999991909,None,,,,,space,0.3998340000398457,None,,,,,,,,,,,,,,,P136,001,2025-03-26_15h47.11.717,posner_endo_new1,2024.2.4,60.05565961763483,2025-03-26 15h47.16.067255 +0000,
cube_l.png,0.1,-0.31,valid,53,53,0,down,6.722767099970952,None,space,0.4278347999788821,None,,,,,0,53,53,53,,,,,927.5718969998416,,,,,,,,,,,,,927.5578726998065,927.5718969998416,927.5718969998416,927.5718969998416,934.299184500007,,,,934.3068752998952,934.31838349998,934.31838349998,934.3651525999885,934.3656646998134,934.3816336998716,934.3816336998716,934.3816336998716,934.4646250999067,934.8158555999398,,,,down,6.722767099970952,None,,,,,space,0.4278347999788821,None,,,,,,,,,,,,,,,P136,001,2025-03-26_15h47.11.717,posner_endo_new1,2024.2.4,60.05565961763483,2025-03-26 15h47.16.067255 +0000,
cube_r.png,0.1,10,catch,54,54,0,down,6.128457699902356,None,None,,,,,,,0,54,54,54,,,,,934.8308415999636,,,,,,,,,,,,,934.8161541000009,934.8308415999636,934.8308415999636,934.8308415999636,940.976105599897,,,,940.9854878999759,940.9950315000024,940.9950315000024,941.0415711000096,941.0418054999318,941.0581218998414,941.0581218998414,941.0581218998414,941.1415766999125,944.0561725997832,,,,down,6.128457699902356,None,943.1560062998906,944.071713599842,944.071713599842,944.071713599842,None,,,,,,,,,,,,,,,,,P136,001,2025-03-26_15h47.11.717,posner_endo_new1,2024.2.4,60.05565961763483,2025-03-26 15h47.16.067255 +0000,
cube_l.png,0.1,0.31,invalid,55,55,0,down,2.742919099982828,None,space,0.39410030003637075,None,,,,,0,55,55,55,,,,,944.071713599842,,,,,,,,,,,,,944.0566254998557,944.071713599842,944.071713599842,944.071713599842,946.8209190999623,,,,946.8401000997983,946.851524699945,946.851524699945,946.8857693998143,946.886335699819,946.9021305998322,946.9021305998322,946.9021305998322,946.9853697000071,947.3037652999628,,,,down,2.742919099982828,None,,,,,space,0.39410030003637075,None,,,,,,,,,,,,,,,P136,001,2025-03-26_15h47.11.717,posner_endo_new1,2024.2.4,60.05565961763483,2025-03-26 15h47.16.067255 +0000,
cube_l.png,0.1,-0.31,valid,56,56,0,down,6.423663299996406,None,space,0.44655729993246496,None,,,,,0,56,56,56,,,,,947.3184035997838,,,,,,,,,,,,,947.304235199932,947.3184035997838,947.3184035997838,947.3184035997838,953.7471768998075,,,,953.766519599827,953.7779279998504,953.7779279998504,953.8120305999182,953.812568699941,953.8284190997947,953.8284190997947,953.8284190997947,953.9116607999895,954.2800207999535,,,,down,6.423663299996406,None,,,,,space,0.44655729993246496,None,,,,,,,,,,,,,,,P136,001,2025-03-26_15h47.11.717,posner_endo_new1,2024.2.4,60.05565961763483,2025-03-26 15h47.16.067255 +0000,
cube_r.png,0.1,0.31,valid,57,57,0,down,6.047743699979037,None,space,0.37783699994906783,None,,,,,0,57,57,57,,,,,954.2946321999189,,,,,,,,,,,,,954.2804766998161,954.2946321999189,954.2946321999189,954.2946321999189,960.3569574998692,,,,960.3762442998122,960.387593299849,960.387593299849,960.4214704998303,960.4218209998216,960.4381698998623,960.4381698998623,960.4381698998623,960.5212286999449,960.8224495998584,,,,down,6.047743699979037,None,,,,,space,0.37783699994906783,None,,,,,,,,,,,,,,,P136,001,2025-03-26_15h47.11.717,posner_endo_new1,2024.2.4,60.05565961763483,2025-03-26 15h47.16.067255 +0000,
cube_r.png,0.1,-0.31,invalid,58,58,0,down,5.263985299970955,None,space,0.40438099997118115,None,,,,,0,58,58,58,,,,,960.8378522999119,,,,,,,,,,,,,960.8227319999132,960.8378522999119,960.8378522999119,960.8378522999119,966.1176113998517,,,,966.1370830999222,966.1484443999361,966.1484443999361,966.1826139998157,966.182919099927,966.1992221998516,966.1992221998516,966.1992221998516,966.2819256999064,966.6161450999789,,,,down,5.263985299970955,None,,,,,space,0.40438099997118115,None,,,,,,,,,,,,,,,P136,001,2025-03-26_15h47.11.717,posner_endo_new1,2024.2.4,60.05565961763483,2025-03-26 15h47.16.067255 +0000,
cube_l.png,0.1,0.31,invalid,59,59,0,down,5.414450499927625,None,space,0.36615419993177056,None,,,,,0,59,59,59,,,,,966.6320137998555,,,,,,,,,,,,,966.6163887998555,966.6320137998555,966.6320137998555,966.6320137998555,972.0608428998385,,,,972.0712088998407,972.081127599813,972.081127599813,972.1261986999307,972.1265132999979,972.143021899974,972.143021899974,972.143021899974,972.2263146999758,972.510673899902,,,,down,5.414450499927625,None,,,,,space,0.36615419993177056,None,,,,,,,,,,,,,,,P136,001,2025-03-26_15h47.11.717,posner_endo_new1,2024.2.4,60.05565961763483,2025-03-26 15h47.16.067255 +0000,
,,,,,,,,,,,,,,,,,,,,,,,,,,,,,,,,,,,,,,,,,,,,,,,,,,,,,,,,,,,,,,,,,,,,,972.510832299944,972.5256563997827,972.5256563997827,1032.5314295999706,1047.1190262997989,space,74.58463599998504,None,,,,,,,P136,001,2025-03-26_15h47.11.717,posner_endo_new1,2024.2.4,60.05565961763483,2025-03-26 15h47.16.067255 +0000,
,,,,,,,,,,,,,,,,,,,,,,,,,,,,,,,,,,1047.1192082997877,1047.1331440999638,1050.2314359999727,1050.114714999916,,,,,,,,,,,,,,,,,,,,,,,,,,,,,,,,,,,,,,,,,,,,,,P136,001,2025-03-26_15h47.11.717,posner_endo_new1,2024.2.4,60.05565961763483,2025-03-26 15h47.16.067255 +0000,
cube_l.png,0.1,10,catch,0,0,0,up,18.534593400079757,None,None,,,,,,,,,,,0,0,0,0,1050.2314359999727,,,,,,,,,,,,,1050.223150299862,1050.2314359999727,1050.2314359999727,1050.2314359999727,1068.7783410998527,,,,1068.7882623998448,1068.7984323999844,1068.7984323999844,1068.8446217000019,1068.845320199849,1068.8609173998702,1068.8609173998702,1068.8609173998702,1068.9275619999971,1071.8592715999112,,,,,,,1070.9421721999533,1071.8745407999959,1071.8745407999959,1071.8745407999959,,,,,,,,,,,,up,18.534593400079757,None,None,,,P136,001,2025-03-26_15h47.11.717,posner_endo_new1,2024.2.4,60.05565961763483,2025-03-26 15h47.16.067255 +0000,
cube_l.png,0.1,10,catch,1,1,0,up,3.547395500121638,None,None,,,,,,,,,,,0,1,1,1,1071.8745407999959,,,,,,,,,,,,,1071.8598243999295,1071.8745407999959,1071.8745407999959,1071.8745407999959,1075.4396580997854,,,,1075.462901599938,1075.474711799994,1075.474711799994,1075.5037634999026,1075.5041108999867,1075.52063789987,1075.52063789987,1075.52063789987,1075.6035690999124,1078.5191116998903,,,,,,,1077.6186721997801,1078.5344100999646,1078.5344100999646,1078.5344100999646,,,,,,,,,,,,up,3.547395500121638,None,None,,,P136,001,2025-03-26_15h47.11.717,posner_endo_new1,2024.2.4,60.05565961763483,2025-03-26 15h47.16.067255 +0000,
cube_l.png,0.1,0.31,invalid,2,2,0,up,3.864044199930504,None,space,0.4566210999619216,None,,,,,,,,,0,2,2,2,1078.5344100999646,,,,,,,,,,,,,1078.5196595999878,1078.5344100999646,1078.5344100999646,1078.5344100999646,1082.4158035998698,,,,1082.4390167999081,1082.450502899941,1082.450502899941,1082.4801151999272,1082.480551699875,1082.4965450998861,1082.4965450998861,1082.4965450998861,1082.5802370999008,1082.9655305999331,,,,,,,,,,,,,,,,,,,,,,up,3.864044199930504,None,space,0.4566210999619216,None,P136,001,2025-03-26_15h47.11.717,posner_endo_new1,2024.2.4,60.05565961763483,2025-03-26 15h47.16.067255 +0000,
cube_l.png,0.1,0.31,invalid,3,3,0,up,5.362146200146526,None,space,0.5223145999480039,None,,,,,,,,,0,3,3,3,1082.979924299987,,,,,,,,,,,,,1082.9661314999685,1082.979924299987,1082.979924299987,1082.979924299987,1088.3597900997847,,,,1088.3788511999883,1088.3889259998687,1088.3889259998687,1088.4239916999359,1088.424424199853,1088.4403635999188,1088.4403635999188,1088.4403635999188,1088.5236177998595,1088.9744886998087,,,,,,,,,,,,,,,,,,,,,,up,5.362146200146526,None,space,0.5223145999480039,None,P136,001,2025-03-26_15h47.11.717,posner_endo_new1,2024.2.4,60.05565961763483,2025-03-26 15h47.16.067255 +0000,
cube_l.png,0.1,-0.31,valid,4,4,0,up,5.4001881999429315,None,space,0.3889526000712067,None,,,,,,,,,0,4,4,4,1088.989883299917,,,,,,,,,,,,,1088.9747472999152,1088.989883299917,1088.989883299917,1088.989883299917,1094.4020414999686,,,,1094.4117382999975,1094.4219766999595,1094.4219766999595,1094.467719499953,1094.4680286999792,1094.484124599956,1094.484124599956,1094.484124599956,1094.5510678999126,1094.8848258999642,,,,,,,,,,,,,,,,,,,,,,up,5.4001881999429315,None,space,0.3889526000712067,None,P136,001,2025-03-26_15h47.11.717,posner_endo_new1,2024.2.4,60.05565961763483,2025-03-26 15h47.16.067255 +0000,
cube_r.png,0.1,-0.31,invalid,5,5,0,up,4.529316599946469,None,space,0.4106628999579698,None,,,,,,,,,0,5,5,5,1094.9007752998732,,,,,,,,,,,,,1094.8850875999779,1094.9007752998732,1094.9007752998732,1094.9007752998732,1099.4470225998666,,,,1099.4568791999482,1099.4667990999296,1099.4667990999296,1099.5125605999492,1099.5128630998079,1099.5293432998005,1099.5293432998005,1099.5293432998005,1099.612300099805,1099.9466405999847,,,,,,,,,,,,,,,,,,,,,,up,4.529316599946469,None,space,0.4106628999579698,None,P136,001,2025-03-26_15h47.11.717,posner_endo_new1,2024.2.4,60.05565961763483,2025-03-26 15h47.16.067255 +0000,
cube_r.png,0.1,0.31,valid,6,6,0,up,6.051894100150093,None,space,0.40600350010208786,None,,,,,,,,,0,6,6,6,1099.9620574999135,,,,,,,,,,,,,1099.9468949998263,1099.9620574999135,1099.9620574999135,1099.9620574999135,1106.0236604998354,,,,1106.0334744998254,1106.0435992998537,1106.0435992998537,1106.0891001999844,1106.089401199948,1106.1057339999825,1106.1057339999825,1106.1057339999825,1106.1892938998062,1106.5227605998516,,,,,,,,,,,,,,,,,,,,,,up,6.051894100150093,None,space,0.40600350010208786,None,P136,001,2025-03-26_15h47.11.717,posner_endo_new1,2024.2.4,60.05565961763483,2025-03-26 15h47.16.067255 +0000,
cube_r.png,0.1,-0.31,invalid,7,7,0,up,5.995871199993417,None,space,0.43395940004847944,None,,,,,,,,,0,7,7,7,1106.5387175998185,,,,,,,,,,,,,1106.5230126997922,1106.5387175998185,1106.5387175998185,1106.5387175998185,1112.5503677998204,,,,1112.560131300008,1112.5702572998125,1112.5702572998125,1112.6157966998871,1112.6161003999878,1112.6322818999179,1112.6322818999179,1112.6322818999179,1112.715544299921,1113.0833040999714,,,,,,,,,,,,,,,,,,,,,,up,5.995871199993417,None,space,0.43395940004847944,None,P136,001,2025-03-26_15h47.11.717,posner_endo_new1,2024.2.4,60.05565961763483,2025-03-26 15h47.16.067255 +0000,
cube_l.png,0.1,-0.31,valid,8,8,0,up,4.859902000054717,None,space,0.40258969995193183,None,,,,,,,,,0,8,8,8,1113.0983972998802,,,,,,,,,,,,,1113.0835547999013,1113.0983972998802,1113.0983972998802,1113.0983972998802,1117.9613314999733,,,,1117.9709954999853,1117.9813099999446,1117.9813099999446,1118.0270467000082,1118.02735270001,1118.0435393999796,1118.0435393999796,1118.0435393999796,1118.1269757999107,1118.4610718998592,,,,,,,,,,,,,,,,,,,,,,up,4.859902000054717,None,space,0.40258969995193183,None,P136,001,2025-03-26_15h47.11.717,posner_endo_new1,2024.2.4,60.05565961763483,2025-03-26 15h47.16.067255 +0000,
cube_r.png,0.1,-0.31,invalid,9,9,0,up,6.425675100181252,None,space,0.495444200001657,None,,,,,,,,,0,9,9,9,1118.4762652998324,,,,,,,,,,,,,1118.461326399818,1118.4762652998324,1118.4762652998324,1118.4762652998324,1124.9040103999432,,,,1124.913265899988,1124.9230876998045,1124.9230876998045,1124.9701393998694,1124.9703607999254,1124.9867285999935,1124.9867285999935,1124.9867285999935,1125.0534632999916,1125.4887068998069,,,,,,,,,,,,,,,,,,,,,,up,6.425675100181252,None,space,0.495444200001657,None,P136,001,2025-03-26_15h47.11.717,posner_endo_new1,2024.2.4,60.05565961763483,2025-03-26 15h47.16.067255 +0000,
cube_l.png,0.1,0.31,invalid,10,10,0,up,5.231162299867719,None,space,0.5195722000207752,None,,,,,,,,,0,10,10,10,1125.5030586000066,,,,,,,,,,,,,1125.4893036999274,1125.5030586000066,1125.5030586000066,1125.5030586000066,1130.7500159000047,,,,1130.7690731999464,1130.779661099892,1130.779661099892,1130.8139453998301,1130.8143780999817,1130.830348199932,1130.830348199932,1130.830348199932,1130.913564399816,1131.364610399818,,,,,,,,,,,,,,,,,,,,,,up,5.231162299867719,None,space,0.5195722000207752,None,P136,001,2025-03-26_15h47.11.717,posner_endo_new1,2024.2.4,60.05565961763483,2025-03-26 15h47.16.067255 +0000,
cube_r.png,0.1,-0.31,invalid,11,11,0,up,5.378914100117981,None,space,0.4728344001341611,None,,,,,,,,,0,11,11,11,1131.3798812997993,,,,,,,,,,,,,1131.3649894997943,1131.3798812997993,1131.3798812997993,1131.3798812997993,1136.7756608999334,,,,1136.7855367998127,1136.79537539999,1136.79537539999,1136.841103799874,1136.8414074999746,1136.8575654998422,1136.8575654998422,1136.8575654998422,1136.9407536999788,1137.3416315999348,,,,,,,,,,,,,,,,,,,,,,up,5.378914100117981,None,space,0.4728344001341611,None,P136,001,2025-03-26_15h47.11.717,posner_endo_new1,2024.2.4,60.05565961763483,2025-03-26 15h47.16.067255 +0000,
cube_r.png,0.1,0.31,valid,12,12,0,up,6.144255599938333,None,space,0.5293238998856395,None,,,,,,,,,0,12,12,12,1137.3573606999125,,,,,,,,,,,,,1137.3418829999864,1137.3573606999125,1137.3573606999125,1137.3573606999125,1143.5184839998838,,,,1143.5281746999826,1143.5381255999673,1143.5381255999673,1143.584438699996,1143.5847445998807,1143.600941499928,1143.600941499928,1143.600941499928,1143.6671865999233,1144.1343499999493,,,,,,,,,,,,,,,,,,,,,,up,6.144255599938333,None,space,0.5293238998856395,None,P136,001,2025-03-26_15h47.11.717,posner_endo_new1,2024.2.4,60.05565961763483,2025-03-26 15h47.16.067255 +0000,
cube_l.png,0.1,10,catch,13,13,0,up,5.232557600131258,None,None,,,,,,,,,,,0,13,13,13,1144.1500364998356,,,,,,,,,,,,,1144.13460209989,1144.1500364998356,1144.1500364998356,1144.1500364998356,1149.3960804999806,,,,1149.405798499938,1149.4159086998552,1149.4159086998552,1149.4614088998642,1149.461714199977,1149.47825559997,1149.47825559997,1149.47825559997,1149.561238899827,1152.4755042998586,,,,,,,1151.576134499861,1152.4914440999273,1152.4914440999273,1152.4914440999273,,,,,,,,,,,,up,5.232557600131258,None,None,,,P136,001,2025-03-26_15h47.11.717,posner_endo_new1,2024.2.4,60.05565961763483,2025-03-26 15h47.16.067255 +0000,
cube_r.png,0.1,-0.31,invalid,14,14,0,up,2.3224871999118477,None,space,0.43750869994983077,None,,,,,,,,,0,14,14,14,1152.4914440999273,,,,,,,,,,,,,1152.4757484998554,1152.4914440999273,1152.4914440999273,1152.4914440999273,1154.823875800008,,,,1154.8335873999167,1154.8437732998282,1154.8437732998282,1154.8891773999203,1154.8894799000118,1154.906194599811,1154.906194599811,1154.906194599811,1154.9889491999056,1155.3566896999255,,,,,,,,,,,,,,,,,,,,,,up,2.3224871999118477,None,space,0.43750869994983077,None,P136,001,2025-03-26_15h47.11.717,posner_endo_new1,2024.2.4,60.05565961763483,2025-03-26 15h47.16.067255 +0000,
cube_l.png,0.1,-0.31,valid,15,15,0,up,6.011750299949199,None,space,0.4948975997976959,None,,,,,,,,,0,15,15,15,1155.3717913997825,,,,,,,,,,,,,1155.3569431998767,1155.3717913997825,1155.3717913997825,1155.3717913997825,1161.4004884997848,,,,1161.4101904998533,1161.4200080998708,1161.4200080998708,1161.4662295999005,1161.4665385999251,1161.4823437999003,1161.4823437999003,1161.4823437999003,1161.5658150999807,1161.9828125999775,,,,,,,,,,,,,,,,,,,,,,up,6.011750299949199,None,space,0.4948975997976959,None,P136,001,2025-03-26_15h47.11.717,posner_endo_new1,2024.2.4,60.05565961763483,2025-03-26 15h47.16.067255 +0000,
cube_r.png,0.1,10,catch,16,16,0,up,5.271803600015119,None,None,,,,,,,,,,,0,16,16,16,1161.9987448998727,,,,,,,,,,,,,1161.9830637997948,1161.9987448998727,1161.9987448998727,1161.9987448998727,1167.277937399922,,,,1167.28766549984,1167.2977534998208,1167.2977534998208,1167.3436085998546,1167.3439097998198,1167.3595613997895,1167.3595613997895,1167.3595613997895,1167.443297999911,1170.3571767997928,,,,,,,1169.4577539998572,1170.373225999996,1170.373225999996,1170.373225999996,,,,,,,,,,,,up,5.271803600015119,None,None,,,P136,001,2025-03-26_15h47.11.717,posner_endo_new1,2024.2.4,60.05565961763483,2025-03-26 15h47.16.067255 +0000,
cube_r.png,0.1,10,catch,17,17,0,up,2.4493982999119908,None,None,,,,,,,,,,,0,17,17,17,1170.373225999996,,,,,,,,,,,,,1170.357416999992,1170.373225999996,1170.373225999996,1170.373225999996,1172.8388554998673,,,,1172.848537299782,1172.8586914998014,1172.8586914998014,1172.904385099886,1172.9046933997888,1172.9206280999351,1172.9206280999351,1172.9206280999351,1173.0039565998595,1175.91812009993,,,,,,,1175.0186838998925,1175.9341841998976,1175.9341841998976,1175.9341841998976,,,,,,,,,,,,up,2.4493982999119908,None,None,,,P136,001,2025-03-26_15h47.11.717,posner_endo_new1,2024.2.4,60.05565961763483,2025-03-26 15h47.16.067255 +0000,
cube_l.png,0.1,0.31,invalid,18,18,0,up,3.241258499911055,None,space,0.533532900037244,None,,,,,,,,,0,18,18,18,1175.9341841998976,,,,,,,,,,,,,1175.9183549999725,1175.9341841998976,1175.9341841998976,1175.9341841998976,1179.1818105999846,,,,1179.191455599852,1179.2016462998,1179.2016462998,1179.2478567999788,1179.2481581999455,1179.2646124998573,1179.2646124998573,1179.2646124998573,1179.3473630999215,1179.8149753999896,,,,,,,,,,,,,,,,,,,,,,up,3.241258499911055,None,space,0.533532900037244,None,P136,001,2025-03-26_15h47.11.717,posner_endo_new1,2024.2.4,60.05565961763483,2025-03-26 15h47.16.067255 +0000,
cube_l.png,0.1,10,catch,19,19,0,up,5.735984800150618,None,None,,,,,,,,,,,0,19,19,19,1179.8301981999539,,,,,,,,,,,,,1179.8152377998922,1179.8301981999539,1179.8301981999539,1179.8301981999539,1185.5755189999472,,,,1185.5882753999904,1185.5982673999388,1185.5982673999388,1185.6408865000121,1185.641146299895,1185.6574790999293,1185.6574790999293,1185.6574790999293,1185.741044699913,1188.6551872999407,,,,,,,1187.75539989979,1188.6711744999047,1188.6711744999047,1188.6711744999047,,,,,,,,,,,,up,5.735984800150618,None,None,,,P136,001,2025-03-26_15h47.11.717,posner_endo_new1,2024.2.4,60.05565961763483,2025-03-26 15h47.16.067255 +0000,
cube_l.png,0.1,0.31,invalid,20,20,0,up,3.1673403999302536,None,space,0.45282320003025234,None,,,,,,,,,0,20,20,20,1188.6711744999047,,,,,,,,,,,,,1188.6554994999897,1188.6711744999047,1188.6711744999047,1188.6711744999047,1191.8523615999147,,,,1191.8651227999944,1191.8751906999387,1191.8751906999387,1191.917926199967,1191.91830749996,1191.9344847998582,1191.9344847998582,1191.9344847998582,1192.0175843997858,1192.401814199984,,,,,,,,,,,,,,,,,,,,,,up,3.1673403999302536,None,space,0.45282320003025234,None,P136,001,2025-03-26_15h47.11.717,posner_endo_new1,2024.2.4,60.05565961763483,2025-03-26 15h47.16.067255 +0000,
cube_l.png,0.1,-0.31,valid,21,21,0,up,6.541263899998739,None,space,0.4776654001325369,None,,,,,,,,,0,21,21,21,1192.4173071999103,,,,,,,,,,,,,1192.4021424998064,1192.4173071999103,1192.4173071999103,1192.4173071999103,1198.9618555998895,,,,1198.9746474998537,1198.9849346999545,1198.9849346999545,1199.02727099997,1199.027528699953,1199.044185699895,1199.044185699895,1199.044185699895,1199.1275176999625,1199.5279574999586,,,,,,,,,,,,,,,,,,,,,,up,6.541263899998739,None,space,0.4776654001325369,None,P136,001,2025-03-26_15h47.11.717,posner_endo_new1,2024.2.4,60.05565961763483,2025-03-26 15h47.16.067255 +0000,
cube_r.png,0.1,0.31,valid,22,22,0,up,5.982662299880758,None,space,0.4455389000941068,None,,,,,,,,,0,22,22,22,1199.5435717999935,,,,,,,,,,,,,1199.5281725998502,1199.5435717999935,1199.5435717999935,1199.5435717999935,1205.538061299827,,,,1205.5464782998897,1205.5567467999645,1205.5567467999645,1205.6043954999186,1205.6049420000054,1205.6207109999377,1205.6207109999377,1205.6207109999377,1205.6873093999457,1206.0721157998778,,,,,,,,,,,,,,,,,,,,,,up,5.982662299880758,None,space,0.4455389000941068,None,P136,001,2025-03-26_15h47.11.717,posner_endo_new1,2024.2.4,60.05565961763483,2025-03-26 15h47.16.067255 +0000,
cube_r.png,0.1,-0.31,invalid,23,23,0,up,5.279326000018045,None,space,0.42189890006557107,None,,,,,,,,,0,23,23,23,1206.0869819999207,,,,,,,,,,,,,1206.0725970999338,1206.0869819999207,1206.0869819999207,1206.0869819999207,1211.3833386998158,,,,1211.4021470998414,1211.4120792998,1211.4120792998,1211.4482144999783,1211.4485405997839,1211.464878599858,1211.464878599858,1211.464878599858,1211.547735599801,1211.8989307999145,,,,,,,,,,,,,,,,,,,,,,up,5.279326000018045,None,space,0.42189890006557107,None,P136,001,2025-03-26_15h47.11.717,posner_endo_new1,2024.2.4,60.05565961763483,2025-03-26 15h47.16.067255 +0000,
cube_r.png,0.1,0.31,valid,24,24,0,up,6.571719599887729,None,space,0.38815779983997345,None,,,,,,,,,0,24,24,24,1211.9141334998421,,,,,,,,,,,,,1211.8992070998065,1211.9141334998421,1211.9141334998421,1211.9141334998421,1218.4927642999683,,,,1218.5114641999826,1218.521755799884,1218.521755799884,1218.5576698000077,1218.557997399941,1218.5742561998777,1218.5742561998777,1218.5742561998777,1218.6570965999272,1218.9745482997969,,,,,,,,,,,,,,,,,,,,,,up,6.571719599887729,None,space,0.38815779983997345,None,P136,001,2025-03-26_15h47.11.717,posner_endo_new1,2024.2.4,60.05565961763483,2025-03-26 15h47.16.067255 +0000,
cube_r.png,0.1,-0.31,invalid,25,25,0,up,6.328621299937367,None,space,0.4863215999212116,None,,,,,,,,,0,25,25,25,1218.990085199941,,,,,,,,,,,,,1218.9748396999203,1218.990085199941,1218.990085199941,1218.990085199941,1225.3357131998055,,,,1225.3535938998684,1225.3634698998649,1225.3634698998649,1225.4007158998866,1225.4010599998292,1225.417159799952,1225.417159799952,1225.417159799952,1225.5001528998837,1225.9175040998962,,,,,,,,,,,,,,,,,,,,,,up,6.328621299937367,None,space,0.4863215999212116,None,P136,001,2025-03-26_15h47.11.717,posner_endo_new1,2024.2.4,60.05565961763483,2025-03-26 15h47.16.067255 +0000,
cube_l.png,0.1,-0.31,valid,26,26,0,up,6.144619799917564,None,space,0.29811930004507303,None,,,,,,,,,0,26,26,26,1225.933382799849,,,,,,,,,,,,,1225.9177972998004,1225.933382799849,1225.933382799849,1225.933382799849,1232.0948100998066,,,,1232.1094173998572,1232.1194217999,1232.1194217999,1232.160176999867,1232.1606007998344,1232.1766096998472,1232.1766096998472,1232.1766096998472,1232.2599785998464,1232.477413999848,,,,,,,,,,,,,,,,,,,,,,up,6.144619799917564,None,space,0.29811930004507303,None,P136,001,2025-03-26_15h47.11.717,posner_endo_new1,2024.2.4,60.05565961763483,2025-03-26 15h47.16.067255 +0000,
cube_r.png,0.1,0.31,valid,27,27,0,up,5.512980699772015,None,space,0.3280009999871254,None,,,,,,,,,0,27,27,27,1232.4930161999073,,,,,,,,,,,,,1232.4776666997932,1232.4930161999073,1232.4930161999073,1232.4930161999073,1238.0220554999541,,,,1238.0317164999433,1238.041760199936,1238.041760199936,1238.0874097999185,1238.0877105998807,1238.1040242000017,1238.1040242000017,1238.1040242000017,1238.1871340998914,1238.438022099901,,,,,,,,,,,,,,,,,,,,,,up,5.512980699772015,None,space,0.3280009999871254,None,P136,001,2025-03-26_15h47.11.717,posner_endo_new1,2024.2.4,60.05565961763483,2025-03-26 15h47.16.067255 +0000,
cube_r.png,0.1,10,catch,28,28,0,up,6.6642777000088245,None,None,,,,,,,,,,,0,28,28,28,1238.453915799968,,,,,,,,,,,,,1238.4382805998903,1238.453915799968,1238.453915799968,1238.453915799968,1245.132918599993,,,,1245.1543681998737,1245.1645628998522,1245.1645628998522,1245.1967464999761,1245.1971353997942,1245.2132176999003,1245.2132176999003,1245.2132176999003,1245.2965728999116,1248.210834399797,,,,,,,1247.3110314998776,1248.226767799817,1248.226767799817,1248.226767799817,,,,,,,,,,,,up,6.6642777000088245,None,None,,,P136,001,2025-03-26_15h47.11.717,posner_endo_new1,2024.2.4,60.05565961763483,2025-03-26 15h47.16.067255 +0000,
cube_r.png,0.1,0.31,valid,29,29,0,up,3.699159999843687,None,space,0.43845280003733933,None,,,,,,,,,0,29,29,29,1248.226767799817,,,,,,,,,,,,,1248.21113709989,1248.226767799817,1248.226767799817,1248.226767799817,1251.9411779998336,,,,1251.9509154998232,1251.96104009985,1251.96104009985,1252.0068394998088,1252.0071462998167,1252.0233405998442,1252.0233405998442,1252.0233405998442,1252.106178099988,1252.473959799856,,,,,,,,,,,,,,,,,,,,,,up,3.699159999843687,None,space,0.43845280003733933,None,P136,001,2025-03-26_15h47.11.717,posner_endo_new1,2024.2.4,60.05565961763483,2025-03-26 15h47.16.067255 +0000,
cube_r.png,0.1,0.31,valid,30,30,0,up,5.893127900082618,None,space,0.37536419997923076,None,,,,,,,,,0,30,30,30,1252.4892090999056,,,,,,,,,,,,,1252.4742102997843,1252.4892090999056,1252.4892090999056,1252.4892090999056,1258.3843251999933,,,,1258.3942308998667,1258.4043130998034,1258.4043130998034,1258.450122299837,1258.4504297999665,1258.466795399785,1258.466795399785,1258.466795399785,1258.5499425998423,1258.8505461998284,,,,,,,,,,,,,,,,,,,,,,up,5.893127900082618,None,space,0.37536419997923076,None,P136,001,2025-03-26_15h47.11.717,posner_endo_new1,2024.2.4,60.05565961763483,2025-03-26 15h47.16.067255 +0000,
cube_l.png,0.1,-0.31,valid,31,31,0,up,6.692331199999899,None,space,0.37075529992580414,None,,,,,,,,,0,31,31,31,1258.8660135997925,,,,,,,,,,,,,1258.8508065999486,1258.8660135997925,1258.8660135997925,1258.8660135997925,1265.560305699939,,,,1265.5700493999757,1265.5802724999376,1265.5802724999376,1265.6261128999759,1265.626419399865,1265.6425238999072,1265.6425238999072,1265.6425238999072,1265.708880599821,1266.0266051997896,,,,,,,,,,,,,,,,,,,,,,up,6.692331199999899,None,space,0.37075529992580414,None,P136,001,2025-03-26_15h47.11.717,posner_endo_new1,2024.2.4,60.05565961763483,2025-03-26 15h47.16.067255 +0000,
cube_r.png,0.1,0.31,valid,32,32,0,up,5.235675900010392,None,space,0.45965249999426305,None,,,,,,,,,0,32,32,32,1266.0423435999546,,,,,,,,,,,,,1266.026879399782,1266.0423435999546,1266.0423435999546,1266.0423435999546,1271.2879784000106,,,,1271.2977102999575,1271.3080617999658,1271.3080617999658,1271.353266999824,1271.3535752999596,1271.370312599931,1271.370312599931,1271.370312599931,1271.4533765998203,1271.837034799857,,,,,,,,,,,,,,,,,,,,,,up,5.235675900010392,None,space,0.45965249999426305,None,P136,001,2025-03-26_15h47.11.717,posner_endo_new1,2024.2.4,60.05565961763483,2025-03-26 15h47.16.067255 +0000,
cube_r.png,0.1,-0.31,invalid,33,33,0,up,5.233076799893752,None,space,0.36377579998224974,None,,,,,,,,,0,33,33,33,1271.8529964999761,,,,,,,,,,,,,1271.8372967999894,1271.8529964999761,1271.8529964999761,1271.8529964999761,1277.0983018998522,,,,1277.1079788999632,1277.1181616999675,1277.1181616999675,1277.1647566999309,1277.1654442998115,1277.1811168999411,1277.1811168999411,1277.1811168999411,1277.24769009999,1277.5500370999798,,,,,,,,,,,,,,,,,,,,,,up,5.233076799893752,None,space,0.36377579998224974,None,P136,001,2025-03-26_15h47.11.717,posner_endo_new1,2024.2.4,60.05565961763483,2025-03-26 15h47.16.067255 +0000,
cube_r.png,0.1,10,catch,34,34,0,up,7.96245070011355,None,None,,,,,,,,,,,0,34,34,34,1277.5641639998648,,,,,,,,,,,,,1277.550633299863,1277.5641639998648,1277.5641639998648,1277.5641639998648,1285.541493699886,,,,1285.5631877998821,1285.5736249999609,1285.5736249999609,1285.6056786999106,1285.6060235998593,1285.6223048998509,1285.6223048998509,1285.6223048998509,1285.7051327999216,1288.6198646998964,,,,,,,1287.7200312998611,1288.635932300007,1288.635932300007,1288.635932300007,,,,,,,,,,,,up,7.96245070011355,None,None,,,P136,001,2025-03-26_15h47.11.717,posner_endo_new1,2024.2.4,60.05565961763483,2025-03-26 15h47.16.067255 +0000,
cube_r.png,0.1,0.31,valid,35,35,0,up,4.706352100009099,None,space,0.37026840006001294,None,,,,,,,,,0,35,35,35,1288.635932300007,,,,,,,,,,,,,1288.6201367999893,1288.635932300007,1288.635932300007,1288.635932300007,1293.3486245998647,,,,1293.3602677998133,1293.370425999863,1293.370425999863,1293.4144890999887,1293.4148363999557,1293.4308676999062,1293.4308676999062,1293.4308676999062,1293.514081100002,1293.814596899785,,,,,,,,,,,,,,,,,,,,,,up,4.706352100009099,None,space,0.37026840006001294,None,P136,001,2025-03-26_15h47.11.717,posner_endo_new1,2024.2.4,60.05565961763483,2025-03-26 15h47.16.067255 +0000,
cube_r.png,0.1,-0.31,invalid,36,36,0,up,4.968200200004503,None,space,0.4766480999533087,None,,,,,,,,,0,36,36,36,1293.8305612998083,,,,,,,,,,,,,1293.8148886999115,1293.8305612998083,1293.8305612998083,1293.8305612998083,1298.811830899911,,,,1298.8299893999938,1298.8404562999494,1298.8404562999494,1298.8752919998951,1298.875730899861,1298.891710799886,1298.891710799886,1298.891710799886,1298.9750337000005,1299.375772899948,,,,,,,,,,,,,,,,,,,,,,up,4.968200200004503,None,space,0.4766480999533087,None,P136,001,2025-03-26_15h47.11.717,posner_endo_new1,2024.2.4,60.05565961763483,2025-03-26 15h47.16.067255 +0000,
cube_l.png,0.1,0.31,invalid,37,37,0,up,7.583169500110671,None,space,0.417093199910596,None,,,,,,,,,0,37,37,37,1299.391210799804,,,,,,,,,,,,,1299.3760332998354,1299.391210799804,1299.391210799804,1299.391210799804,1306.9849219999742,,,,1306.996494999854,1307.0066928998567,1307.0066928998567,1307.0505314997863,1307.0508693999145,1307.06695030001,1307.06695030001,1307.06695030001,1307.1502715998795,1307.5010398998857,,,,,,,,,,,,,,,,,,,,,,up,7.583169500110671,None,space,0.417093199910596,None,P136,001,2025-03-26_15h47.11.717,posner_endo_new1,2024.2.4,60.05565961763483,2025-03-26 15h47.16.067255 +0000,
cube_l.png,0.1,0.31,invalid,38,38,0,up,6.88227010006085,None,space,0.44657670008018613,None,,,,,,,,,0,38,38,38,1307.5161480999086,,,,,,,,,,,,,1307.5013315000106,1307.5161480999086,1307.5161480999086,1307.5161480999086,1314.410639300011,,,,1314.4223251999356,1314.4324830998667,1314.4324830998667,1314.4761416998226,1314.476488399785,1314.492809599964,1314.492809599964,1314.492809599964,1314.5758571999613,1314.9434995998163,,,,,,,,,,,,,,,,,,,,,,up,6.88227010006085,None,space,0.44657670008018613,None,P136,001,2025-03-26_15h47.11.717,posner_endo_new1,2024.2.4,60.05565961763483,2025-03-26 15h47.16.067255 +0000,
cube_r.png,0.1,0.31,valid,39,39,0,up,6.391457099933177,None,space,0.347715700045228,None,,,,,,,,,0,39,39,39,1314.9588274999987,,,,,,,,,,,,,1314.9437897999305,1314.9588274999987,1314.9588274999987,1314.9588274999987,1321.3534571998753,,,,1321.3651157999411,1321.3752821998205,1321.3752821998205,1321.418620100012,1321.418866199907,1321.435692399973,1321.435692399973,1321.435692399973,1321.518902799813,1321.7864461999852,,,,,,,,,,,,,,,,,,,,,,up,6.391457099933177,None,space,0.347715700045228,None,P136,001,2025-03-26_15h47.11.717,posner_endo_new1,2024.2.4,60.05565961763483,2025-03-26 15h47.16.067255 +0000,
cube_l.png,0.1,0.31,invalid,40,40,0,up,6.812469899887219,None,space,0.5115384000819176,None,,,,,,,,,0,40,40,40,1321.801680199802,,,,,,,,,,,,,1321.7867459999397,1321.801680199802,1321.801680199802,1321.801680199802,1328.629482399905,,,,1328.6411121999845,1328.6513051998336,1328.6513051998336,1328.6949480997864,1328.6952923999634,1328.7112647998147,1328.7112647998147,1328.7112647998147,1328.7946128998883,1329.2286434997804,,,,,,,,,,,,,,,,,,,,,,up,6.812469899887219,None,space,0.5115384000819176,None,P136,001,2025-03-26_15h47.11.717,posner_endo_new1,2024.2.4,60.05565961763483,2025-03-26 15h47.16.067255 +0000,
cube_l.png,0.1,10,catch,41,41,0,up,6.522521700011566,None,None,,,,,,,,,,,0,41,41,41,1329.2440886998083,,,,,,,,,,,,,1329.2289405998308,1329.2440886998083,1329.2440886998083,1329.2440886998083,1335.7716873998288,,,,1335.7833424999844,1335.793595599942,1335.793595599942,1335.8375846999697,1335.8379243998788,1335.8541106998455,1335.8541106998455,1335.8541106998455,1335.9369693999179,1338.851857099915,,,,,,,1337.9519107998349,1338.8673723000102,1338.8673723000102,1338.8673723000102,,,,,,,,,,,,up,6.522521700011566,None,None,,,P136,001,2025-03-26_15h47.11.717,posner_endo_new1,2024.2.4,60.05565961763483,2025-03-26 15h47.16.067255 +0000,
cube_l.png,0.1,-0.31,valid,42,42,0,up,3.9382724000606686,None,space,0.5846239998936653,None,,,,,,,,,0,42,42,42,1338.8673723000102,,,,,,,,,,,,,1338.8521245999727,1338.8673723000102,1338.8673723000102,1338.8673723000102,1342.814889199799,,,,1342.8265794999897,1342.836797399912,1342.836797399912,1342.8803975000046,1342.8807438998483,1342.897029499989,1342.897029499989,1342.897029499989,1342.98025399982,1343.497450699797,,,,,,,,,,,,,,,,,,,,,,up,3.9382724000606686,None,space,0.5846239998936653,None,P136,001,2025-03-26_15h47.11.717,posner_endo_new1,2024.2.4,60.05565961763483,2025-03-26 15h47.16.067255 +0000,
cube_l.png,0.1,10,catch,43,43,0,up,3.629501100163907,None,None,,,,,,,,,,,0,43,43,43,1343.5130697998684,,,,,,,,,,,,,1343.497756499797,1343.5130697998684,1343.5130697998684,1343.5130697998684,1347.143707699841,,,,1347.154346199939,1347.1639892999083,1347.1639892999083,1347.2087663998827,1347.209002399817,1347.225505999988,1347.225505999988,1347.225505999988,1347.3093781999778,1350.2243171997834,,,,,,,1349.3238893998787,1350.2395911999047,1350.2395911999047,1350.2395911999047,,,,,,,,,,,,up,3.629501100163907,None,None,,,P136,001,2025-03-26_15h47.11.717,posner_endo_new1,2024.2.4,60.05565961763483,2025-03-26 15h47.16.067255 +0000,
cube_l.png,0.1,0.31,invalid,44,44,0,up,12.078313899924979,None,space,0.4490879999939352,None,,,,,,,,,0,44,44,44,1350.2395911999047,,,,,,,,,,,,,1350.2248780999798,1350.2395911999047,1350.2395911999047,1350.2395911999047,1362.3296972999815,,,,1362.3530960998032,1362.3652048998047,1362.3652048998047,1362.3933395999484,1362.393667299999,1362.4098457999062,1362.4098457999062,1362.4098457999062,1362.4934556998778,1362.8606612998992,,,,,,,,,,,,,,,,,,,,,,up,12.078313899924979,None,space,0.4490879999939352,None,P136,001,2025-03-26_15h47.11.717,posner_endo_new1,2024.2.4,60.05565961763483,2025-03-26 15h47.16.067255 +0000,
cube_l.png,0.1,0.31,invalid,45,45,0,up,6.466311200056225,None,space,0.4209159999154508,None,,,,,,,,,0,45,45,45,1362.8764386998955,,,,,,,,,,,,,1362.8609453998506,1362.8764386998955,1362.8764386998955,1362.8764386998955,1369.3542768999469,,,,1369.3640368999913,1369.3741312997881,1369.3741312997881,1369.4196831998415,1369.4199876999483,1369.4365395999048,1369.4365395999048,1369.4365395999048,1369.5196911999956,1369.8704216999467,,,,,,,,,,,,,,,,,,,,,,up,6.466311200056225,None,space,0.4209159999154508,None,P136,001,2025-03-26_15h47.11.717,posner_endo_new1,2024.2.4,60.05565961763483,2025-03-26 15h47.16.067255 +0000,
cube_r.png,0.1,0.31,valid,46,46,0,up,8.328978799981996,None,space,0.43747149989940226,None,,,,,,,,,0,46,46,46,1369.8856567998882,,,,,,,,,,,,,1369.8706842998508,1369.8856567998882,1369.8856567998882,1369.8856567998882,1378.228550599888,,,,1378.2382402999792,1378.2483929998707,1378.2483929998707,1378.2945735999383,1378.2952158998232,1378.310977099929,1378.310977099929,1378.310977099929,1378.3941953999456,1378.7628845998552,,,,,,,,,,,,,,,,,,,,,,up,8.328978799981996,None,space,0.43747149989940226,None,P136,001,2025-03-26_15h47.11.717,posner_endo_new1,2024.2.4,60.05565961763483,2025-03-26 15h47.16.067255 +0000,
cube_l.png,0.1,-0.31,valid,47,47,0,up,6.508673500036821,None,space,0.4928488000296056,None,,,,,,,,,0,47,47,47,1378.7771989998873,,,,,,,,,,,,,1378.7634906999301,1378.7771989998873,1378.7771989998873,1378.7771989998873,1385.2895820999984,,,,1385.3124066998716,1385.322470499901,1385.322470499901,1385.3532409998588,1385.3535988999065,1385.369685899932,1385.369685899932,1385.369685899932,1385.453463099897,1385.8708693999797,,,,,,,,,,,,,,,,,,,,,,up,6.508673500036821,None,space,0.4928488000296056,None,P136,001,2025-03-26_15h47.11.717,posner_endo_new1,2024.2.4,60.05565961763483,2025-03-26 15h47.16.067255 +0000,
cube_r.png,0.1,-0.31,invalid,48,48,0,up,6.624046299839392,None,space,0.4128701000008732,None,,,,,,,,,0,48,48,48,1385.886243699817,,,,,,,,,,,,,1385.8711699999403,1385.886243699817,1385.886243699817,1385.886243699817,1392.5139174999204,,,,1392.5255132999737,1392.535668299999,1392.535668299999,1392.5797253998462,1392.5800662999973,1392.5960978998337,1392.5960978998337,1392.5960978998337,1392.6794624999166,1393.0131313998718,,,,,,,,,,,,,,,,,,,,,,up,6.624046299839392,None,space,0.4128701000008732,None,P136,001,2025-03-26_15h47.11.717,posner_endo_new1,2024.2.4,60.05565961763483,2025-03-26 15h47.16.067255 +0000,
cube_r.png,0.1,10,catch,49,49,0,up,7.017684200080112,None,None,,,,,,,,,,,0,49,49,49,1393.0288956998847,,,,,,,,,,,,,1393.0134297998156,1393.0288956998847,1393.0288956998847,1393.0288956998847,1400.0576613999438,,,,1400.077366599813,1400.087904599961,1400.087904599961,1400.121679399861,1400.122111500008,1400.1381826999132,1400.1381826999132,1400.1381826999132,1400.2216612999327,1403.13604139979,,,,,,,1402.2359341999982,1403.151847000001,1403.151847000001,1403.151847000001,,,,,,,,,,,,up,7.017684200080112,None,None,,,P136,001,2025-03-26_15h47.11.717,posner_endo_new1,2024.2.4,60.05565961763483,2025-03-26 15h47.16.067255 +0000,
cube_l.png,0.1,-0.31,valid,50,50,0,up,4.91031080018729,None,space,0.3770803001243621,None,,,,,,,,,0,50,50,50,1403.151847000001,,,,,,,,,,,,,1403.1362769999541,1403.151847000001,1403.151847000001,1403.151847000001,1408.064328599954,,,,1408.0741183999926,1408.0841402998194,1408.0841402998194,1408.130531599978,1408.1308420998976,1408.1467615999281,1408.1467615999281,1408.1467615999281,1408.2132352998015,1408.5307600998785,,,,,,,,,,,,,,,,,,,,,,up,4.91031080018729,None,space,0.3770803001243621,None,P136,001,2025-03-26_15h47.11.717,posner_endo_new1,2024.2.4,60.05565961763483,2025-03-26 15h47.16.067255 +0000,
cube_l.png,0.1,-0.31,valid,51,51,0,up,12.748294200049713,None,space,0.44402970001101494,None,,,,,,,,,0,51,51,51,1408.546334899962,,,,,,,,,,,,,1408.5310364000034,1408.546334899962,1408.546334899962,1408.546334899962,1421.300992099801,,,,1421.3107731998898,1421.3212491997983,1421.3212491997983,1421.3665409998503,1421.3668430999387,1421.3833415999543,1421.3833415999543,1421.3833415999543,1421.4662515998352,1421.833564999979,,,,,,,,,,,,,,,,,,,,,,up,12.748294200049713,None,space,0.44402970001101494,None,P136,001,2025-03-26_15h47.11.717,posner_endo_new1,2024.2.4,60.05565961763483,2025-03-26 15h47.16.067255 +0000,
cube_r.png,0.1,-0.31,invalid,52,52,0,up,7.829380400013179,None,space,0.4208830001298338,None,,,,,,,,,0,52,52,52,1421.8492118997965,,,,,,,,,,,,,1421.8338261998724,1421.8492118997965,1421.8492118997965,1421.8492118997965,1429.6925138998777,,,,1429.702303999802,1429.7124995999038,1429.7124995999038,1429.7578576998785,1429.7581617999822,1429.7743909999263,1429.7743909999263,1429.7743909999263,1429.8576378999278,1430.208248899784,,,,,,,,,,,,,,,,,,,,,,up,7.829380400013179,None,space,0.4208830001298338,None,P136,001,2025-03-26_15h47.11.717,posner_endo_new1,2024.2.4,60.05565961763483,2025-03-26 15h47.16.067255 +0000,
cube_l.png,0.1,-0.31,valid,53,53,0,up,8.085557200014591,None,space,0.4442491000518203,None,,,,,,,,,0,53,53,53,1430.2244020998478,,,,,,,,,,,,,1430.2085173998494,1430.2244020998478,1430.2244020998478,1430.2244020998478,1438.3173033997882,,,,1438.3272278998047,1438.337286299793,1438.337286299793,1438.3831422999501,1438.3838094999082,1438.3994500997942,1438.3994500997942,1438.3994500997942,1438.4827095000073,1438.8514760998078,,,,,,,,,,,,,,,,,,,,,,up,8.085557200014591,None,space,0.4442491000518203,None,P136,001,2025-03-26_15h47.11.717,posner_endo_new1,2024.2.4,60.05565961763483,2025-03-26 15h47.16.067255 +0000,
cube_r.png,0.1,10,catch,54,54,0,up,9.684094499796629,None,None,,,,,,,,,,,0,54,54,54,1438.865769899916,,,,,,,,,,,,,1438.8520829000045,1438.865769899916,1438.865769899916,1438.865769899916,1448.55726949987,,,,1448.5719180000015,1448.5826402998064,1448.5826402998064,1448.6216722999234,1448.621909599984,1448.6384580999147,1448.6384580999147,1448.6384580999147,1448.7218738999218,1451.6372415998485,,,,,,,1450.7368136998266,1451.652562199859,1451.652562199859,1451.652562199859,,,,,,,,,,,,up,9.684094499796629,None,None,,,P136,001,2025-03-26_15h47.11.717,posner_endo_new1,2024.2.4,60.05565961763483,2025-03-26 15h47.16.067255 +0000,
cube_l.png,0.1,0.31,invalid,55,55,0,up,9.561449100030586,None,space,0.4436592001002282,None,,,,,,,,,0,55,55,55,1451.652562199859,,,,,,,,,,,,,1451.637805199949,1451.652562199859,1451.652562199859,1451.652562199859,1461.226859399816,,,,1461.2373078998644,1461.2474526998121,1461.2474526998121,1461.2923018999863,1461.2926069998648,1461.309261499904,1461.309261499904,1461.309261499904,1461.3920663997997,1461.7596351997927,,,,,,,,,,,,,,,,,,,,,,up,9.561449100030586,None,space,0.4436592001002282,None,P136,001,2025-03-26_15h47.11.717,posner_endo_new1,2024.2.4,60.05565961763483,2025-03-26 15h47.16.067255 +0000,
cube_l.png,0.1,-0.31,valid,56,56,0,up,7.527419900055975,None,space,0.40444669988937676,None,,,,,,,,,0,56,56,56,1461.7749845997896,,,,,,,,,,,,,1461.759891499998,1461.7749845997896,1461.7749845997896,1461.7749845997896,1469.3182552999351,,,,1469.3279937999323,1469.338096599793,1469.338096599793,1469.384323099861,1469.3846281999722,1469.400889399927,1469.400889399927,1469.400889399927,1469.4670839000028,1469.8178488998674,,,,,,,,,,,,,,,,,,,,,,up,7.527419900055975,None,space,0.40444669988937676,None,P136,001,2025-03-26_15h47.11.717,posner_endo_new1,2024.2.4,60.05565961763483,2025-03-26 15h47.16.067255 +0000,
cube_r.png,0.1,0.31,valid,57,57,0,up,7.20404260000214,None,space,0.5103199000004679,None,,,,,,,,,0,57,57,57,1469.833792899968,,,,,,,,,,,,,1469.818100299919,1469.833792899968,1469.833792899968,1469.833792899968,1477.043776499806,,,,1477.055109999841,1477.0674542000052,1477.0674542000052,1477.110113899922,1477.1107671000063,1477.1264951999765,1477.1264951999765,1477.1264951999765,1477.1931159999222,1477.6451468998566,,,,,,,,,,,,,,,,,,,,,,up,7.20404260000214,None,space,0.5103199000004679,None,P136,001,2025-03-26_15h47.11.717,posner_endo_new1,2024.2.4,60.05565961763483,2025-03-26 15h47.16.067255 +0000,
cube_r.png,0.1,-0.31,invalid,58,58,0,up,6.682466899976134,None,space,0.377157999901101,None,,,,,,,,,0,58,58,58,1477.6593668998685,,,,,,,,,,,,,1477.64574359986,1477.6593668998685,1477.6593668998685,1477.6593668998685,1484.352837999817,,,,1484.3624854998197,1484.3727719997987,1484.3727719997987,1484.418645199854,1484.4189495998435,1484.4354698997922,1484.4354698997922,1484.4354698997922,1484.5020554999355,1484.8193820999004,,,,,,,,,,,,,,,,,,,,,,up,6.682466899976134,None,space,0.377157999901101,None,P136,001,2025-03-26_15h47.11.717,posner_endo_new1,2024.2.4,60.05565961763483,2025-03-26 15h47.16.067255 +0000,
cube_l.png,0.1,0.31,invalid,59,59,0,up,9.363114000065252,None,space,0.4367750999517739,None,,,,,,,,,0,59,59,59,1484.8349166999105,,,,,,,,,,,,,1484.8196378999855,1484.8349166999105,1484.8349166999105,1484.8349166999105,1494.2096817998681,,,,1494.2193946999032,1494.22963109985,1494.22963109985,1494.2759084999561,1494.27658779989,1494.2922431000043,1494.2922431000043,1494.2922431000043,1494.3588629998267,1494.7440906998236,,,,,,,,,,,,,,,,,,,,,,up,9.363114000065252,None,space,0.4367750999517739,None,P136,001,2025-03-26_15h47.11.717,posner_endo_new1,2024.2.4,60.05565961763483,2025-03-26 15h47.16.067255 +0000,
