cue_img,cue_soa,target_y,trial,thisN,thisTrialN,thisRepN,key_control2.keys,key_control2.rt,key_control2.duration,key_resp.keys,key_resp.rt,key_resp.duration,practice.thisRepN,practice.thisTrialN,practice.thisN,practice.thisIndex,block1.thisRepN,block1.thisTrialN,block1.thisN,block1.thisIndex,block2.thisRepN,block2.thisTrialN,block2.thisN,block2.thisIndex,thisRow.t,notes,instructions.started,instructions_txt.started,key_control.started,instructions.stopped,key_control.keys,key_control.rt,key_control.duration,ready.started,ready_txt.started,ready_txt.stopped,ready.stopped,fix.started,fixation.started,key_control2.started,fixation_cross.started,fix.stopped,practice.key_control2.keys,practice.key_control2.rt,practice.key_control2.duration,cue.started,cube.started,fixation_cross_cue.started,cue.stopped,target.started,fixation_target.started,fixation_cross_target.started,key_resp.started,star.started,star.stopped,fixation_target.stopped,fixation_cross_target.stopped,key_resp.stopped,target.stopped,practice.key_resp.keys,practice.key_resp.rt,practice.key_resp.duration,block1.key_control2.keys,block1.key_control2.rt,block1.key_control2.duration,block1.key_resp.keys,block1.key_resp.rt,block1.key_resp.duration,break_2.started,text.started,key_control3.started,text.stopped,break_2.stopped,key_control3.keys,key_control3.rt,key_control3.duration,block2.key_control2.keys,block2.key_control2.rt,block2.key_control2.duration,block2.key_resp.keys,block2.key_resp.rt,block2.key_resp.duration,participant,session,date,expName,psychopyVersion,frameRate,expStart,
,,,,,,,,,,,,,,,,,,,,,,,,,,,0.007768899900838733,0.030462299939244986,0.030462299939244986,2.1691244998946786,up,2.1188717000186443,None,,,,,,,,,,,,,,,,,,,,,,,,,,,,,,,,,,,,,,,,,,,,,,,,,,P137,001,2025-03-26_17h25.01.416,posner_endo_new1,2024.2.4,60.092723092190525,2025-03-26 17h25.09.412434 +0000,
,,,,,,,,,,,,,,,,,,,,,,,,,,,,,,,,,,2.16916639986448,2.180536299943924,5.18067939998582,5.161235200008377,,,,,,,,,,,,,,,,,,,,,,,,,,,,,,,,,,,,,,,,,,,,,,P137,001,2025-03-26_17h25.01.416,posner_endo_new1,2024.2.4,60.092723092190525,2025-03-26 17h25.09.412434 +0000,
cube_r.png,0.1,10,catch,0,0,0,up,58.34495219984092,None,None,,,0,0,0,3,,,,,,,,,5.18067939998582,,,,,,,,,,,,,5.168237800011411,5.18067939998582,5.18067939998582,5.18067939998582,63.53536049998365,up,58.34495219984092,None,63.546099100029096,63.55620180000551,63.55620180000551,63.601055099861696,63.6012837998569,63.61779950000346,63.61779950000346,63.61779950000346,63.70103339990601,65.71548229991458,66.631456800038,66.631456800038,66.631456800038,66.61517750006169,None,,,,,,,,,,,,,,,,,,,,,,,P137,001,2025-03-26_17h25.01.416,posner_endo_new1,2024.2.4,60.092723092190525,2025-03-26 17h25.09.412434 +0000,
cube_r.png,0.1,-0.31,invalid,1,1,0,up,1.2136155997868627,None,space,0.33148749987594783,None,0,1,1,9,,,,,,,,,66.631456800038,,,,,,,,,,,,,66.61533250007778,66.631456800038,66.631456800038,66.631456800038,67.8475172999315,up,1.2136155997868627,None,67.85419650003314,67.86591659998521,67.86591659998521,67.91341189993545,67.91364170005545,67.9302061998751,67.9302061998751,67.9302061998751,67.996527899988,,,,,68.26386950002052,space,0.33148749987594783,None,,,,,,,,,,,,,,,,,,,,,P137,001,2025-03-26_17h25.01.416,posner_endo_new1,2024.2.4,60.092723092190525,2025-03-26 17h25.09.412434 +0000,
cube_r.png,0.1,-0.31,invalid,2,2,0,up,3.6374276999849826,None,space,0.2687407999765128,None,0,2,2,6,,,,,,,,,68.27968869986944,,,,,,,,,,,,,68.2640324998647,68.27968869986944,68.27968869986944,68.27968869986944,71.92664609989151,up,3.6374276999849826,None,71.9332014999818,71.9448569000233,71.9448569000233,71.99264699988998,71.99287399998866,72.00918069994077,72.00918069994077,72.00918069994077,72.07577840005979,,,,,72.29301899997517,space,0.2687407999765128,None,,,,,,,,,,,,,,,,,,,,,P137,001,2025-03-26_17h25.01.416,posner_endo_new1,2024.2.4,60.092723092190525,2025-03-26 17h25.09.412434 +0000,
cube_l.png,0.1,0.31,invalid,3,3,0,up,3.9922935001086444,None,space,0.41335780010558665,None,0,3,3,5,,,,,,,,,72.3089600999374,,,,,,,,,,,,,72.29318109992892,72.3089600999374,72.3089600999374,72.3089600999374,76.30545879993588,up,3.9922935001086444,None,76.31183829996735,76.32372700003907,76.32372700003907,76.37141730007716,76.37164449994452,76.3879432999529,76.3879432999529,76.3879432999529,76.45446090004407,,,,,76.8049329998903,space,0.41335780010558665,None,,,,,,,,,,,,,,,,,,,,,P137,001,2025-03-26_17h25.01.416,posner_endo_new1,2024.2.4,60.092723092190525,2025-03-26 17h25.09.412434 +0000,
cube_r.png,0.1,-0.31,invalid,4,4,0,up,4.36856049997732,None,space,0.4566550999879837,None,0,4,4,2,,,,,,,,,76.82091940008104,,,,,,,,,,,,,76.80509399995208,76.82091940008104,76.82091940008104,76.82091940008104,81.20036450005136,up,4.36856049997732,None,81.20653109997511,81.21814120002091,81.21814120002091,81.26627289992757,81.26650050003082,81.28291169996373,81.28291169996373,81.28291169996373,81.3495147000067,,,,,81.74977110000327,space,0.4566550999879837,None,,,,,,,,,,,,,,,,,,,,,P137,001,2025-03-26_17h25.01.416,posner_endo_new1,2024.2.4,60.092723092190525,2025-03-26 17h25.09.412434 +0000,
cube_l.png,0.1,-0.31,valid,5,5,0,up,4.103803999954835,None,space,0.3605297999456525,None,0,5,5,8,,,,,,,,,81.76583159994334,,,,,,,,,,,,,81.74993199994788,81.76583159994334,81.76583159994334,81.76583159994334,85.87902590003796,up,4.103803999954835,None,85.88521469989792,85.89699889998883,85.89699889998883,85.94492829986848,85.9451627000235,85.96162860002369,85.96162860002369,85.96162860002369,86.02809419995174,,,,,86.32856069994159,space,0.3605297999456525,None,,,,,,,,,,,,,,,,,,,,,P137,001,2025-03-26_17h25.01.416,posner_endo_new1,2024.2.4,60.092723092190525,2025-03-26 17h25.09.412434 +0000,
cube_r.png,0.1,0.31,valid,6,6,0,up,4.1328537000808865,None,space,0.28691210015676916,None,0,6,6,7,,,,,,,,,86.3442826999817,,,,,,,,,,,,,86.32871999987401,86.3442826999817,86.3442826999817,86.3442826999817,90.49089749995619,up,4.1328537000808865,None,90.4969675000757,90.5085565999616,90.5085565999616,90.55702290008776,90.5572547998745,90.57356879999861,90.57356879999861,90.57356879999861,90.64019789989106,,,,,90.87389799999073,space,0.28691210015676916,None,,,,,,,,,,,,,,,,,,,,,P137,001,2025-03-26_17h25.01.416,posner_endo_new1,2024.2.4,60.092723092190525,2025-03-26 17h25.09.412434 +0000,
cube_l.png,0.1,-0.31,valid,7,7,0,up,4.531503899954259,None,space,0.3126697998959571,None,0,7,7,0,,,,,,,,,90.88997079990804,,,,,,,,,,,,,90.87405989994295,90.88997079990804,90.88997079990804,90.88997079990804,95.43590070004575,up,4.531503899954259,None,95.44194009993225,95.4534845999442,95.4534845999442,95.5018873999361,95.50211720005609,95.51849699998274,95.51849699998274,95.51849699998274,95.58499450003728,,,,,95.83565720007755,space,0.3126697998959571,None,,,,,,,,,,,,,,,,,,,,,P137,001,2025-03-26_17h25.01.416,posner_endo_new1,2024.2.4,60.092723092190525,2025-03-26 17h25.09.412434 +0000,
cube_l.png,0.1,0.31,invalid,8,8,0,up,4.546121099963784,None,space,0.22901869984343648,None,0,8,8,1,,,,,,,,,95.8512277000118,,,,,,,,,,,,,95.83582430006936,95.8512277000118,95.8512277000118,95.8512277000118,100.41410130006261,up,4.546121099963784,None,100.42105089989491,100.43274579988793,100.43274579988793,100.48020610003732,100.48043589992449,100.49660439998843,100.49660439998843,100.49660439998843,100.56311829993501,,,,,100.73070010007359,space,0.22901869984343648,None,,,,,,,,,,,,,,,,,,,,,P137,001,2025-03-26_17h25.01.416,posner_endo_new1,2024.2.4,60.092723092190525,2025-03-26 17h25.09.412434 +0000,
cube_l.png,0.1,-0.31,valid,9,9,0,up,4.626978699816391,None,space,0.41776870004832745,None,0,9,9,4,,,,,,,,,100.74632439995185,,,,,,,,,,,,,100.73086029989645,100.74632439995185,100.74632439995185,100.74632439995185,105.37590959994122,up,4.626978699816391,None,105.38192339986563,105.39342710003257,105.39342710003257,105.44183270004578,105.44206260005012,105.45818289997987,105.45818289997987,105.45818289997987,105.54140269989148,,,,,105.89183390000835,space,0.41776870004832745,None,,,,,,,,,,,,,,,,,,,,,P137,001,2025-03-26_17h25.01.416,posner_endo_new1,2024.2.4,60.092723092190525,2025-03-26 17h25.09.412434 +0000,
cube_r.png,0.1,0.31,valid,10,10,0,up,3.577948900172487,None,space,0.24850969994440675,None,0,10,10,10,,,,,,,,,105.90773610002361,,,,,,,,,,,,,105.8919955000747,105.90773610002361,105.90773610002361,105.90773610002361,109.48826500005089,up,3.577948900172487,None,109.4943150000181,109.50573559990153,109.50573559990153,109.55424209986813,109.55447009997442,109.57066010008566,109.57066010008566,109.57066010008566,109.63732089987025,,,,,109.82136809988879,space,0.24850969994440675,None,,,,,,,,,,,,,,,,,,,,,P137,001,2025-03-26_17h25.01.416,posner_endo_new1,2024.2.4,60.092723092190525,2025-03-26 17h25.09.412434 +0000,
,,,,,,,,,,,,,,,,,,,,,,,,,,,,,,,,,,109.82148479996249,109.83721340005286,112.85306859994307,112.81766739999875,,,,,,,,,,,,,,,,,,,,,,,,,,,,,,,,,,,,,,,,,,,,,,P137,001,2025-03-26_17h25.01.416,posner_endo_new1,2024.2.4,60.092723092190525,2025-03-26 17h25.09.412434 +0000,
cube_l.png,0.1,10,catch,0,0,0,up,29.663938199868426,None,None,,,,,,,0,0,0,0,,,,,112.85306859994307,,,,,,,,,,,,,112.84345729998313,112.85306859994307,112.85306859994307,112.85306859994307,142.52126639988273,,,,142.5303358999081,142.54035939997993,142.54035939997993,142.58705640002154,142.58734089997597,142.60362569987774,142.60362569987774,142.60362569987774,142.68683520006016,144.70140799996443,145.6171411999967,145.6171411999967,145.6171411999967,145.6009511000011,,,,up,29.663938199868426,None,None,,,,,,,,,,,,,,,,,P137,001,2025-03-26_17h25.01.416,posner_endo_new1,2024.2.4,60.092723092190525,2025-03-26 17h25.09.412434 +0000,
cube_l.png,0.1,10,catch,1,1,0,up,1.5479320001322776,None,None,,,,,,,0,1,1,1,,,,,145.6171411999967,,,,,,,,,,,,,145.60115509992465,145.6171411999967,145.6171411999967,145.6171411999967,147.1666204999201,,,,147.17513450002298,147.1852363999933,147.1852363999933,147.2322960998863,147.2325774000492,147.2488907999359,147.2488907999359,147.2488907999359,147.33208359987475,149.34669289994054,150.26238299999386,150.26238299999386,150.26238299999386,150.2462056998629,,,,up,1.5479320001322776,None,None,,,,,,,,,,,,,,,,,P137,001,2025-03-26_17h25.01.416,posner_endo_new1,2024.2.4,60.092723092190525,2025-03-26 17h25.09.412434 +0000,
cube_l.png,0.1,0.31,invalid,2,2,0,up,1.9509370001032948,None,space,0.35402939980849624,None,,,,,0,2,2,2,,,,,150.26238299999386,,,,,,,,,,,,,150.24641130003147,150.26238299999386,150.26238299999386,150.26238299999386,152.22791759995744,,,,152.23653679993004,152.24660489987582,152.24660489987582,152.29380219988525,152.29408219992183,152.31031119986437,152.31031119986437,152.31031119986437,152.39359540003352,,,,,152.6775098000653,,,,up,1.9509370001032948,None,space,0.35402939980849624,None,,,,,,,,,,,,,,,P137,001,2025-03-26_17h25.01.416,posner_endo_new1,2024.2.4,60.092723092190525,2025-03-26 17h25.09.412434 +0000,
cube_l.png,0.1,0.31,invalid,3,3,0,up,6.223579500103369,None,space,0.3981681000441313,None,,,,,0,3,3,3,,,,,152.69318330008537,,,,,,,,,,,,,152.67774229985662,152.69318330008537,152.69318330008537,152.69318330008537,158.9209507999476,,,,158.92693319986574,158.93850989989005,158.93850989989005,158.98695020005107,158.98717770003714,159.00360659998842,159.00360659998842,159.00360659998842,159.06999340001494,,,,,159.40396509994753,,,,up,6.223579500103369,None,space,0.3981681000441313,None,,,,,,,,,,,,,,,P137,001,2025-03-26_17h25.01.416,posner_endo_new1,2024.2.4,60.092723092190525,2025-03-26 17h25.09.412434 +0000,
cube_l.png,0.1,-0.31,valid,4,4,0,up,3.313770300010219,None,space,0.32831780007109046,None,,,,,0,4,4,4,,,,,159.41977349994704,,,,,,,,,,,,,159.40413430007175,159.41977349994704,159.41977349994704,159.41977349994704,162.7502586999908,,,,162.7562911999412,162.76754889986478,162.76754889986478,162.8163870999124,162.8166139998939,162.8328843000345,162.8328843000345,162.8328843000345,162.8996093000751,,,,,163.16658179997467,,,,up,3.313770300010219,None,space,0.32831780007109046,None,,,,,,,,,,,,,,,P137,001,2025-03-26_17h25.01.416,posner_endo_new1,2024.2.4,60.092723092190525,2025-03-26 17h25.09.412434 +0000,
cube_r.png,0.1,-0.31,invalid,5,5,0,up,3.7584301000460982,None,space,0.256414300063625,None,,,,,0,5,5,5,,,,,163.1823776999954,,,,,,,,,,,,,163.16675630002283,163.1823776999954,163.1823776999954,163.1823776999954,166.94629659992643,,,,166.95226849988103,166.963955800049,166.963955800049,167.01217640005052,167.01240170001984,167.02857389999554,167.02857389999554,167.02857389999554,167.11190370004624,,,,,167.29573450004682,,,,up,3.7584301000460982,None,space,0.256414300063625,None,,,,,,,,,,,,,,,P137,001,2025-03-26_17h25.01.416,posner_endo_new1,2024.2.4,60.092723092190525,2025-03-26 17h25.09.412434 +0000,
cube_r.png,0.1,0.31,valid,6,6,0,up,4.286087499931455,None,space,0.17735240003094077,None,,,,,0,6,6,6,,,,,167.31157590006478,,,,,,,,,,,,,167.2959056000691,167.31157590006478,167.31157590006478,167.31157590006478,171.60796170006506,,,,171.6140924000647,171.62576179997995,171.62576179997995,171.67392629990354,171.6741605999414,171.69064050004818,171.69064050004818,171.69064050004818,171.75691700004973,,,,,171.8744580000639,,,,up,4.286087499931455,None,space,0.17735240003094077,None,,,,,,,,,,,,,,,P137,001,2025-03-26_17h25.01.416,posner_endo_new1,2024.2.4,60.092723092190525,2025-03-26 17h25.09.412434 +0000,
cube_r.png,0.1,-0.31,invalid,7,7,0,up,3.875458100112155,None,space,0.2937865999992937,None,,,,,0,7,7,7,,,,,171.890223500086,,,,,,,,,,,,,171.87462650006637,171.890223500086,171.890223500086,171.890223500086,175.77063430007547,,,,175.78170539997518,175.79187009995803,175.79187009995803,175.83638840005733,175.8367312999908,175.85284619987942,175.85284619987942,175.85284619987942,175.93605410004966,,,,,176.15363859990612,,,,up,3.875458100112155,None,space,0.2937865999992937,None,,,,,,,,,,,,,,,P137,001,2025-03-26_17h25.01.416,posner_endo_new1,2024.2.4,60.092723092190525,2025-03-26 17h25.09.412434 +0000,
cube_l.png,0.1,-0.31,valid,8,8,0,up,3.756895099999383,None,space,0.2985916000325233,None,,,,,0,8,8,8,,,,,176.16926130000502,,,,,,,,,,,,,176.15391690004617,176.16926130000502,176.16926130000502,176.16926130000502,179.9331678999588,,,,179.94421759992838,179.95440609985963,179.95440609985963,179.99872999987565,179.99906950001605,180.01533930003643,180.01533930003643,180.01533930003643,180.09851410007104,,,,,180.3163447000552,,,,up,3.756895099999383,None,space,0.2985916000325233,None,,,,,,,,,,,,,,,P137,001,2025-03-26_17h25.01.416,posner_endo_new1,2024.2.4,60.092723092190525,2025-03-26 17h25.09.412434 +0000,
cube_r.png,0.1,-0.31,invalid,9,9,0,up,4.2892414999660105,None,space,0.17207249999046326,None,,,,,0,9,9,9,,,,,180.33175330003724,,,,,,,,,,,,,180.31662679999135,180.33175330003724,180.33175330003724,180.33175330003724,184.62839820003137,,,,184.638155200053,184.64807959995233,184.64807959995233,184.69376050005667,184.69400499993935,184.71047869999893,184.71047869999893,184.71047869999893,184.79381469986401,,,,,184.8944240999408,,,,up,4.2892414999660105,None,space,0.17207249999046326,None,,,,,,,,,,,,,,,P137,001,2025-03-26_17h25.01.416,posner_endo_new1,2024.2.4,60.092723092190525,2025-03-26 17h25.09.412434 +0000,
cube_l.png,0.1,0.31,invalid,10,10,0,up,3.8304230000358075,None,space,0.25888730003498495,None,,,,,0,10,10,10,,,,,184.910268999869,,,,,,,,,,,,,184.89460540004075,184.910268999869,184.910268999869,184.910268999869,188.75701389997266,,,,188.7640275999438,188.77562229987234,188.77562229987234,188.82306209998205,188.8232924998738,188.83965520001948,188.83965520001948,188.83965520001948,188.9060909000691,,,,,189.10672829998657,,,,up,3.8304230000358075,None,space,0.25888730003498495,None,,,,,,,,,,,,,,,P137,001,2025-03-26_17h25.01.416,posner_endo_new1,2024.2.4,60.092723092190525,2025-03-26 17h25.09.412434 +0000,
cube_r.png,0.1,-0.31,invalid,11,11,0,up,4.154389099916443,None,space,0.24854859989136457,None,,,,,0,11,11,11,,,,,189.12258949992247,,,,,,,,,,,,,189.10690560005605,189.12258949992247,189.12258949992247,189.12258949992247,193.2858380000107,,,,193.29212210001424,193.30391900008544,193.30391900008544,193.3518089998979,193.35204180004075,193.36826199991629,193.36826199991629,193.36826199991629,193.4348716000095,,,,,193.6188260000199,,,,up,4.154389099916443,None,space,0.24854859989136457,None,,,,,,,,,,,,,,,P137,001,2025-03-26_17h25.01.416,posner_endo_new1,2024.2.4,60.092723092190525,2025-03-26 17h25.09.412434 +0000,
cube_r.png,0.1,0.31,valid,12,12,0,up,3.946027100086212,None,space,0.31547420006245375,None,,,,,0,12,12,12,,,,,193.63484239997342,,,,,,,,,,,,,193.61899530002847,193.63484239997342,193.63484239997342,193.63484239997342,197.581597100012,,,,197.58766149985604,197.59935320005752,197.59935320005752,197.647544400068,197.6477776998654,197.66387910000049,197.66387910000049,197.66387910000049,197.747169499984,,,,,197.98103710007854,,,,up,3.946027100086212,None,space,0.31547420006245375,None,,,,,,,,,,,,,,,P137,001,2025-03-26_17h25.01.416,posner_endo_new1,2024.2.4,60.092723092190525,2025-03-26 17h25.09.412434 +0000,
cube_l.png,0.1,10,catch,13,13,0,up,4.00053449999541,None,None,,,,,,,0,13,13,13,,,,,197.996875599958,,,,,,,,,,,,,197.98120500007644,197.996875599958,197.996875599958,197.996875599958,202.01016810000874,,,,202.01625310000964,202.02777689998038,202.02777689998038,202.07609359989874,202.0766068000812,202.0925533999689,202.0925533999689,202.0925533999689,202.17581519996747,204.19052339997143,205.10624419990927,205.10624419990927,205.10624419990927,205.09028699994087,,,,up,4.00053449999541,None,None,,,,,,,,,,,,,,,,,P137,001,2025-03-26_17h25.01.416,posner_endo_new1,2024.2.4,60.092723092190525,2025-03-26 17h25.09.412434 +0000,
cube_r.png,0.1,-0.31,invalid,14,14,0,up,1.811268099816516,None,space,0.19811620004475117,None,,,,,0,14,14,14,,,,,205.10624419990927,,,,,,,,,,,,,205.09056199993938,205.10624419990927,205.10624419990927,205.10624419990927,206.9222713999916,,,,206.93395019997843,206.9442648999393,206.9442648999393,206.98784639989026,206.98819960001856,207.00429959991015,207.00429959991015,207.00429959991015,207.0875991000794,,,,,207.20541039993986,,,,up,1.811268099816516,None,space,0.19811620004475117,None,,,,,,,,,,,,,,,P137,001,2025-03-26_17h25.01.416,posner_endo_new1,2024.2.4,60.092723092190525,2025-03-26 17h25.09.412434 +0000,
cube_l.png,0.1,-0.31,valid,15,15,0,up,4.600282800151035,None,space,0.2315823999233544,None,,,,,0,15,15,15,,,,,207.22077320003882,,,,,,,,,,,,,207.20570060005412,207.22077320003882,207.22077320003882,207.22077320003882,211.8336471999064,,,,211.8410630999133,211.85249589988962,211.85249589988962,211.8994962000288,211.89974899985828,211.916017399868,211.916017399868,211.916017399868,211.99926429986954,,,,,212.15020009991713,,,,up,4.600282800151035,None,space,0.2315823999233544,None,,,,,,,,,,,,,,,P137,001,2025-03-26_17h25.01.416,posner_endo_new1,2024.2.4,60.092723092190525,2025-03-26 17h25.09.412434 +0000,
cube_r.png,0.1,10,catch,16,16,0,up,5.143286500126123,None,space,0.24632360017858446,None,,,,,0,16,16,16,,,,,212.16550059989095,,,,,,,,,,,,,212.15039289998822,212.16550059989095,212.16550059989095,212.16550059989095,217.31137309991755,,,,217.31879519997165,217.3300979998894,217.3300979998894,217.37728699995205,217.37754029990174,217.3936890999321,217.3936890999321,217.3936890999321,217.47696719993837,,,,,217.6444460998755,,,,up,5.143286500126123,None,space,0.24632360017858446,None,,,,,,,,,,,,,,,P137,001,2025-03-26_17h25.01.416,posner_endo_new1,2024.2.4,60.092723092190525,2025-03-26 17h25.09.412434 +0000,
cube_r.png,0.1,10,catch,17,17,0,up,4.961316700093448,None,None,,,,,,,0,17,17,17,,,,,217.66003959998488,,,,,,,,,,,,,217.6446473998949,217.66003959998488,217.66003959998488,217.66003959998488,222.62270010006614,,,,222.63007239997387,222.6415176000446,222.6415176000446,222.6884864999447,222.68873950000852,222.70484489994124,222.70484489994124,222.70484489994124,222.78810800006613,224.80283639999107,225.71852059988305,225.71852059988305,225.71852059988305,225.70236340002157,,,,up,4.961316700093448,None,None,,,,,,,,,,,,,,,,,P137,001,2025-03-26_17h25.01.416,posner_endo_new1,2024.2.4,60.092723092190525,2025-03-26 17h25.09.412434 +0000,
cube_l.png,0.1,0.31,invalid,18,18,0,up,0.5823743001092225,None,space,0.4479044999461621,None,,,,,0,18,18,18,,,,,225.71852059988305,,,,,,,,,,,,,225.70254349987954,225.71852059988305,225.71852059988305,225.71852059988305,226.30211839987896,,,,226.30961719993502,226.3207980999723,226.3207980999723,226.36798679991625,226.3682434000075,226.38441439997405,226.38441439997405,226.38441439997405,226.4511843000073,,,,,226.8349772999063,,,,up,0.5823743001092225,None,space,0.4479044999461621,None,,,,,,,,,,,,,,,P137,001,2025-03-26_17h25.01.416,posner_endo_new1,2024.2.4,60.092723092190525,2025-03-26 17h25.09.412434 +0000,
cube_l.png,0.1,10,catch,19,19,0,up,4.243027999997139,None,None,,,,,,,0,19,19,19,,,,,226.85052290000021,,,,,,,,,,,,,226.83516959985718,226.85052290000021,226.85052290000021,226.85052290000021,231.09725239989348,,,,231.10464109992608,231.11594359995797,231.11594359995797,231.16288259997964,231.16314040008,231.1796392998658,231.1796392998658,231.1796392998658,231.2628371999599,233.27745150006376,234.19333749986254,234.19333749986254,234.19333749986254,234.1770202999469,,,,up,4.243027999997139,None,None,,,,,,,,,,,,,,,,,P137,001,2025-03-26_17h25.01.416,posner_endo_new1,2024.2.4,60.092723092190525,2025-03-26 17h25.09.412434 +0000,
cube_l.png,0.1,0.31,invalid,20,20,0,up,1.5091693000867963,None,space,0.36910839984193444,None,,,,,0,20,20,20,,,,,234.19333749986254,,,,,,,,,,,,,234.1772052999586,234.19333749986254,234.19333749986254,234.19333749986254,235.70915240002796,,,,235.71657479996793,235.72798660001718,235.72798660001718,235.77503010001965,235.77528159995563,235.79156990000047,235.79156990000047,235.79156990000047,235.8747215999756,,,,,236.17529290006496,,,,up,1.5091693000867963,None,space,0.36910839984193444,None,,,,,,,,,,,,,,,P137,001,2025-03-26_17h25.01.416,posner_endo_new1,2024.2.4,60.092723092190525,2025-03-26 17h25.09.412434 +0000,
cube_l.png,0.1,-0.31,valid,21,21,0,up,3.6856988000217825,None,space,0.40811600000597537,None,,,,,0,21,21,21,,,,,236.19104130007327,,,,,,,,,,,,,236.175492499955,236.19104130007327,236.19104130007327,236.19104130007327,239.88818140001968,,,,239.89557219995186,239.90713760000654,239.90713760000654,239.95402629999444,239.9542775999289,239.97083189990371,239.97083189990371,239.97083189990371,240.05376749997959,,,,,240.3875899000559,,,,up,3.6856988000217825,None,space,0.40811600000597537,None,,,,,,,,,,,,,,,P137,001,2025-03-26_17h25.01.416,posner_endo_new1,2024.2.4,60.092723092190525,2025-03-26 17h25.09.412434 +0000,
cube_r.png,0.1,0.31,valid,22,22,0,up,4.290102900005877,None,space,0.36797950020991266,None,,,,,0,22,22,22,,,,,240.40344760008156,,,,,,,,,,,,,240.38778180000372,240.40344760008156,240.40344760008156,240.40344760008156,244.69991529989056,,,,244.70737780001946,244.71876750001684,244.71876750001684,244.76572189992294,244.76597670000046,244.7823425999377,244.7823425999377,244.7823425999377,244.86555989994667,,,,,245.1661823000759,,,,up,4.290102900005877,None,space,0.36797950020991266,None,,,,,,,,,,,,,,,P137,001,2025-03-26_17h25.01.416,posner_endo_new1,2024.2.4,60.092723092190525,2025-03-26 17h25.09.412434 +0000,
cube_r.png,0.1,-0.31,invalid,23,23,0,up,3.6790497000329196,None,space,0.314225000096485,None,,,,,0,23,23,23,,,,,245.18182539986446,,,,,,,,,,,,,245.16638289997354,245.18182539986446,245.18182539986446,245.18182539986446,248.8625705000013,,,,248.869965699967,248.88110810006037,248.88110810006037,248.92823079996742,248.92848300002515,248.94479910004884,248.94479910004884,248.94479910004884,249.02795229991898,,,,,249.26181269995868,,,,up,3.6790497000329196,None,space,0.314225000096485,None,,,,,,,,,,,,,,,P137,001,2025-03-26_17h25.01.416,posner_endo_new1,2024.2.4,60.092723092190525,2025-03-26 17h25.09.412434 +0000,
cube_r.png,0.1,0.31,valid,24,24,0,up,3.8555938000790775,None,space,0.34348210017196834,None,,,,,0,24,24,24,,,,,249.27783209993504,,,,,,,,,,,,,249.2620079999324,249.27783209993504,249.27783209993504,249.27783209993504,253.14136120001785,,,,253.1487481999211,253.1600560999941,253.1600560999941,253.20711899991147,253.20737059996463,253.22359939990565,253.22359939990565,253.22359939990565,253.30690199998207,,,,,253.57409080001526,,,,up,3.8555938000790775,None,space,0.34348210017196834,None,,,,,,,,,,,,,,,P137,001,2025-03-26_17h25.01.416,posner_endo_new1,2024.2.4,60.092723092190525,2025-03-26 17h25.09.412434 +0000,
cube_r.png,0.1,-0.31,invalid,25,25,0,up,3.5434554999228567,None,space,0.30624120007269084,None,,,,,0,25,25,25,,,,,253.58984320005402,,,,,,,,,,,,,253.57428409997374,253.58984320005402,253.58984320005402,253.58984320005402,257.1372376999352,,,,257.1446807999164,257.1559506999329,257.1559506999329,257.2030457998626,257.20330699998885,257.2196642998606,257.2196642998606,257.2196642998606,257.3028289999347,,,,,257.53667360008694,,,,up,3.5434554999228567,None,space,0.30624120007269084,None,,,,,,,,,,,,,,,P137,001,2025-03-26_17h25.01.416,posner_endo_new1,2024.2.4,60.092723092190525,2025-03-26 17h25.09.412434 +0000,
cube_l.png,0.1,-0.31,valid,26,26,0,up,3.852616999996826,None,space,0.25990710011683404,None,,,,,0,26,26,26,,,,,257.5526805999689,,,,,,,,,,,,,257.5368740998674,257.5526805999689,257.5526805999689,257.5526805999689,261.41611899994314,,,,261.4234690000303,261.43508159997873,261.43508159997873,261.4821410998702,261.48239380004816,261.49861210002564,261.49861210002564,261.49861210002564,261.5817682000343,,,,,261.7656582999043,,,,up,3.852616999996826,None,space,0.25990710011683404,None,,,,,,,,,,,,,,,P137,001,2025-03-26_17h25.01.416,posner_endo_new1,2024.2.4,60.092723092190525,2025-03-26 17h25.09.412434 +0000,
cube_r.png,0.1,0.31,valid,27,27,0,up,3.9357475000433624,None,space,0.2249799999408424,None,,,,,0,27,27,27,,,,,261.78155949991196,,,,,,,,,,,,,261.76585129997693,261.78155949991196,261.78155949991196,261.78155949991196,265.7283788998611,,,,265.7358158000279,265.74726539989933,265.74726539989933,265.7941538998857,265.7944058999419,265.81083619990386,265.81083619990386,265.81083619990386,265.8774333000183,,,,,266.044762799982,,,,up,3.9357475000433624,None,space,0.2249799999408424,None,,,,,,,,,,,,,,,P137,001,2025-03-26_17h25.01.416,posner_endo_new1,2024.2.4,60.092723092190525,2025-03-26 17h25.09.412434 +0000,
cube_r.png,0.1,10,catch,28,28,0,up,4.104199700057507,None,None,,,,,,,0,28,28,28,,,,,266.06054769991897,,,,,,,,,,,,,266.0449603998568,266.06054769991897,266.06054769991897,266.06054769991897,270.1738598998636,,,,270.1812280998565,270.1926728999242,270.1926728999242,270.239631799981,270.23988389992155,270.2563908000011,270.2563908000011,270.2563908000011,270.3396012999583,272.35411179997027,273.2698873998597,273.2698873998597,273.2698873998597,273.25364869995974,,,,up,4.104199700057507,None,None,,,,,,,,,,,,,,,,,P137,001,2025-03-26_17h25.01.416,posner_endo_new1,2024.2.4,60.092723092190525,2025-03-26 17h25.09.412434 +0000,
cube_r.png,0.1,0.31,valid,29,29,0,up,1.1676216998603195,None,space,0.3214539000764489,None,,,,,0,29,29,29,,,,,273.2698873998597,,,,,,,,,,,,,273.2538405000232,273.2698873998597,273.2698873998597,273.2698873998597,274.452666600002,,,,274.4601016000379,274.4722990000155,274.4722990000155,274.5187071999535,274.5189636000432,274.5350814999547,274.5350814999547,274.5350814999547,274.60163629986346,,,,,274.86909439996816,,,,up,1.1676216998603195,None,space,0.3214539000764489,None,,,,,,,,,,,,,,,P137,001,2025-03-26_17h25.01.416,posner_endo_new1,2024.2.4,60.092723092190525,2025-03-26 17h25.09.412434 +0000,
cube_r.png,0.1,0.31,valid,30,30,0,up,4.271699000149965,None,space,0.32680990011431277,None,,,,,0,30,30,30,,,,,274.8849845000077,,,,,,,,,,,,,274.86928620003164,274.8849845000077,274.8849845000077,274.8849845000077,279.1645257999189,,,,279.17192579992115,279.1835103998892,279.1835103998892,279.23032779991627,279.23058009985834,279.24697509990074,279.24697509990074,279.24697509990074,279.3135611999314,,,,,279.5809164000675,,,,up,4.271699000149965,None,space,0.32680990011431277,None,,,,,,,,,,,,,,,P137,001,2025-03-26_17h25.01.416,posner_endo_new1,2024.2.4,60.092723092190525,2025-03-26 17h25.09.412434 +0000,
cube_l.png,0.1,-0.31,valid,31,31,0,up,3.664835900068283,None,space,0.2827174998819828,None,,,,,0,31,31,31,,,,,279.5967270000838,,,,,,,,,,,,,279.5811105999164,279.5967270000838,279.5967270000838,279.5967270000838,283.27716120006517,,,,283.2845224000048,283.2960699000396,283.2960699000396,283.34318710002117,283.34343939996324,283.359547900036,283.359547900036,283.359547900036,283.4428316000849,,,,,283.6433428998571,,,,up,3.664835900068283,None,space,0.2827174998819828,None,,,,,,,,,,,,,,,P137,001,2025-03-26_17h25.01.416,posner_endo_new1,2024.2.4,60.092723092190525,2025-03-26 17h25.09.412434 +0000,
cube_r.png,0.1,0.31,valid,32,32,0,up,3.106110000051558,None,space,0.38509800005704165,None,,,,,0,32,32,32,,,,,283.6593629999552,,,,,,,,,,,,,283.64353789994493,283.6593629999552,283.6593629999552,283.6593629999552,286.7735607000068,,,,286.780956099974,286.7923051000107,286.7923051000107,286.8394599999301,286.8397200999316,286.85605830000713,286.85605830000713,286.85605830000713,286.9390630000271,,,,,287.2562398998998,,,,up,3.106110000051558,None,space,0.38509800005704165,None,,,,,,,,,,,,,,,P137,001,2025-03-26_17h25.01.416,posner_endo_new1,2024.2.4,60.092723092190525,2025-03-26 17h25.09.412434 +0000,
cube_r.png,0.1,-0.31,invalid,33,33,0,up,1.5323626000899822,None,space,0.49863200006075203,None,,,,,0,33,33,33,,,,,287.2723224000074,,,,,,,,,,,,,287.25643389998004,287.2723224000074,287.2723224000074,287.2723224000074,288.8214378999546,,,,288.82883740006946,288.8403892999049,288.8403892999049,288.8873642999679,288.8876237999648,288.9038168999832,288.9038168999832,288.9038168999832,288.97063470003195,,,,,289.4042533999309,,,,up,1.5323626000899822,None,space,0.49863200006075203,None,,,,,,,,,,,,,,,P137,001,2025-03-26_17h25.01.416,posner_endo_new1,2024.2.4,60.092723092190525,2025-03-26 17h25.09.412434 +0000,
cube_r.png,0.1,10,catch,34,34,0,up,1.8811542999465019,None,space,0.3657440999522805,None,,,,,0,34,34,34,,,,,289.41979090007953,,,,,,,,,,,,,289.4044496999122,289.41979090007953,289.41979090007953,289.41979090007953,291.3020685000811,,,,291.30939000006765,291.321093800012,291.321093800012,291.36813559988514,291.36838519992307,291.3845239998773,291.3845239998773,291.3845239998773,291.4511724000331,,,,,291.75197730003856,,,,up,1.8811542999465019,None,space,0.3657440999522805,None,,,,,,,,,,,,,,,P137,001,2025-03-26_17h25.01.416,posner_endo_new1,2024.2.4,60.092723092190525,2025-03-26 17h25.09.412434 +0000,
cube_r.png,0.1,0.31,valid,35,35,0,up,2.429554400034249,None,space,0.3366908000316471,None,,,,,0,35,35,35,,,,,291.7677130000666,,,,,,,,,,,,,291.7521766999271,291.7677130000666,291.7677130000666,291.7677130000666,294.199407099979,,,,294.20672770007513,294.21806169999763,294.21806169999763,294.26502069993876,294.26527499989606,294.2815739000216,294.2815739000216,294.2815739000216,294.36497940006666,,,,,294.6322323998902,,,,up,2.429554400034249,None,space,0.3366908000316471,None,,,,,,,,,,,,,,,P137,001,2025-03-26_17h25.01.416,posner_endo_new1,2024.2.4,60.092723092190525,2025-03-26 17h25.09.412434 +0000,
cube_r.png,0.1,-0.31,invalid,36,36,0,up,3.701017100131139,None,space,0.3475728000048548,None,,,,,0,36,36,36,,,,,294.6480610999279,,,,,,,,,,,,,294.63242610008456,294.6480610999279,294.6480610999279,294.6480610999279,298.36161409993656,,,,298.3689355000388,298.3805024998728,298.3805024998728,298.42748690000735,298.4277381999418,298.44421770004556,298.44421770004556,298.44421770004556,298.52714799996465,,,,,298.7946126998868,,,,up,3.701017100131139,None,space,0.3475728000048548,None,,,,,,,,,,,,,,,P137,001,2025-03-26_17h25.01.416,posner_endo_new1,2024.2.4,60.092723092190525,2025-03-26 17h25.09.412434 +0000,
cube_l.png,0.1,0.31,invalid,37,37,0,up,3.338949899887666,None,space,0.3946652999147773,None,,,,,0,37,37,37,,,,,298.81043259985745,,,,,,,,,,,,,298.7948151999153,298.81043259985745,298.81043259985745,298.81043259985745,302.1577131000813,,,,302.16508619999513,302.1766935000196,302.1766935000196,302.2237686999142,302.2240206999704,302.24022000003606,302.24022000003606,302.24022000003606,302.3067294000648,,,,,302.6406811000779,,,,up,3.338949899887666,None,space,0.3946652999147773,None,,,,,,,,,,,,,,,P137,001,2025-03-26_17h25.01.416,posner_endo_new1,2024.2.4,60.092723092190525,2025-03-26 17h25.09.412434 +0000,
cube_l.png,0.1,0.31,invalid,38,38,0,up,3.140531999990344,None,space,0.3653679999988526,None,,,,,0,38,38,38,,,,,302.65637789992616,,,,,,,,,,,,,302.64087720005773,302.65637789992616,302.65637789992616,302.65637789992616,305.80379629996605,,,,305.8111952999607,305.8229680999648,305.8229680999648,305.870085200062,305.87034099991433,305.8865922000259,305.8865922000259,305.8865922000259,305.9529351000674,,,,,306.2537191999145,,,,up,3.140531999990344,None,space,0.3653679999988526,None,,,,,,,,,,,,,,,P137,001,2025-03-26_17h25.01.416,posner_endo_new1,2024.2.4,60.092723092190525,2025-03-26 17h25.09.412434 +0000,
cube_r.png,0.1,0.31,valid,39,39,0,up,3.2401231001131237,None,space,0.34091769997030497,None,,,,,0,39,39,39,,,,,306.2693600000348,,,,,,,,,,,,,306.25391409988515,306.2693600000348,306.2693600000348,306.2693600000348,309.51661729998887,,,,309.5239196999464,309.5356626000721,309.5356626000721,309.58268620003946,309.58294550003484,309.5994603000581,309.5994603000581,309.5994603000581,309.6659405999817,,,,,309.9496492999606,,,,up,3.2401231001131237,None,space,0.34091769997030497,None,,,,,,,,,,,,,,,P137,001,2025-03-26_17h25.01.416,posner_endo_new1,2024.2.4,60.092723092190525,2025-03-26 17h25.09.412434 +0000,
cube_l.png,0.1,0.31,invalid,40,40,0,up,3.2961368998512626,None,space,0.27901700022630394,None,,,,,0,40,40,40,,,,,309.96554529992864,,,,,,,,,,,,,309.94984059990384,309.96554529992864,309.96554529992864,309.96554529992864,313.2631574999541,,,,313.27048629987985,313.2935301999096,313.2935301999096,313.3289067998994,313.32916489988565,313.3454364000354,313.3454364000354,313.3454364000354,313.41209209989756,,,,,313.6292940999847,,,,up,3.2961368998512626,None,space,0.27901700022630394,None,,,,,,,,,,,,,,,P137,001,2025-03-26_17h25.01.416,posner_endo_new1,2024.2.4,60.092723092190525,2025-03-26 17h25.09.412434 +0000,
cube_l.png,0.1,10,catch,41,41,0,up,2.903868099907413,None,None,,,,,,,0,41,41,41,,,,,313.6452082998585,,,,,,,,,,,,,313.62949520000257,313.6452082998585,313.6452082998585,313.6452082998585,316.5596268000081,,,,316.5670022999402,316.578507399885,316.578507399885,316.62564099999145,316.6258922999259,316.64224469987676,316.64224469987676,316.64224469987676,316.7086899999995,318.7233472999651,319.6557980000507,319.6557980000507,319.6557980000507,319.63967429986224,,,,up,2.903868099907413,None,None,,,,,,,,,,,,,,,,,P137,001,2025-03-26_17h25.01.416,posner_endo_new1,2024.2.4,60.092723092190525,2025-03-26 17h25.09.412434 +0000,
cube_l.png,0.1,-0.31,valid,42,42,0,up,1.1736286000814289,None,space,0.44137130002491176,None,,,,,0,42,42,42,,,,,319.6557980000507,,,,,,,,,,,,,319.63985570007935,319.6557980000507,319.6557980000507,319.6557980000507,320.8385550000239,,,,320.84590739989653,320.85777310002595,320.85777310002595,320.9045921000652,320.90485509997234,320.9209114999976,320.9209114999976,320.9209114999976,320.98779210005887,,,,,321.371287799906,,,,up,1.1736286000814289,None,space,0.44137130002491176,None,,,,,,,,,,,,,,,P137,001,2025-03-26_17h25.01.416,posner_endo_new1,2024.2.4,60.092723092190525,2025-03-26 17h25.09.412434 +0000,
cube_l.png,0.1,10,catch,43,43,0,up,2.3378353998996317,None,None,,,,,,,0,43,43,43,,,,,321.3873316999525,,,,,,,,,,,,,321.37147879996337,321.3873316999525,321.3873316999525,321.3873316999525,323.735676900018,,,,323.7430672000628,323.75460550002754,323.75460550002754,323.8015914999414,323.80184319987893,323.8181165999267,323.8181165999267,323.8181165999267,323.9014357998967,325.9158949998673,326.83184579992667,326.83184579992667,326.83184579992667,326.81565789994784,,,,up,2.3378353998996317,None,None,,,,,,,,,,,,,,,,,P137,001,2025-03-26_17h25.01.416,posner_endo_new1,2024.2.4,60.092723092190525,2025-03-26 17h25.09.412434 +0000,
cube_l.png,0.1,0.31,invalid,44,44,0,up,3.0851021001581103,None,space,0.4161521999631077,None,,,,,0,44,44,44,,,,,326.83184579992667,,,,,,,,,,,,,326.81583720003255,326.83184579992667,326.83184579992667,326.83184579992667,329.92936809989624,,,,329.93678839993663,329.95989160006866,329.95989160006866,329.9951537998859,329.99540590005927,330.01189480000176,330.01189480000176,330.01189480000176,330.0949438000098,,,,,330.42895289999433,,,,up,3.0851021001581103,None,space,0.4161521999631077,None,,,,,,,,,,,,,,,P137,001,2025-03-26_17h25.01.416,posner_endo_new1,2024.2.4,60.092723092190525,2025-03-26 17h25.09.412434 +0000,
cube_l.png,0.1,0.31,invalid,45,45,0,up,2.81721969996579,None,space,0.3599189000669867,None,,,,,0,45,45,45,,,,,330.4447234000545,,,,,,,,,,,,,330.42914739996195,330.4447234000545,330.4447234000545,330.4447234000545,333.2759682999458,,,,333.28329559997655,333.29469930008054,333.29469930008054,333.3417670999188,333.3420196999796,333.35843979986385,333.35843979986385,333.35843979986385,333.425072300015,,,,,333.72541700000875,,,,up,2.81721969996579,None,space,0.3599189000669867,None,,,,,,,,,,,,,,,P137,001,2025-03-26_17h25.01.416,posner_endo_new1,2024.2.4,60.092723092190525,2025-03-26 17h25.09.412434 +0000,
cube_r.png,0.1,0.31,valid,46,46,0,up,3.3840171000920236,None,space,0.24233599985018373,None,,,,,0,46,46,46,,,,,333.7413093999494,,,,,,,,,,,,,333.7256070000585,333.7413093999494,333.7413093999494,333.7413093999494,337.13866239995696,,,,337.1460061999969,337.1575032998808,337.1575032998808,337.20443319994956,337.20468500000425,337.2211503998842,337.2211503998842,337.2211503998842,337.3043537000194,,,,,337.47156449989416,,,,up,3.3840171000920236,None,space,0.24233599985018373,None,,,,,,,,,,,,,,,P137,001,2025-03-26_17h25.01.416,posner_endo_new1,2024.2.4,60.092723092190525,2025-03-26 17h25.09.412434 +0000,
cube_l.png,0.1,-0.31,valid,47,47,0,up,2.9820105000399053,None,space,0.45782320015132427,None,,,,,0,47,47,47,,,,,337.4876109000761,,,,,,,,,,,,,337.4717544000596,337.4876109000761,337.4876109000761,337.4876109000761,340.4852312998846,,,,340.49257440003566,340.50415219995193,340.50415219995193,340.55110689997673,340.55135959992185,340.56762939994223,340.56762939994223,340.56762939994223,340.6341423999984,,,,,341.03462959988974,,,,up,2.9820105000399053,None,space,0.45782320015132427,None,,,,,,,,,,,,,,,P137,001,2025-03-26_17h25.01.416,posner_endo_new1,2024.2.4,60.092723092190525,2025-03-26 17h25.09.412434 +0000,
cube_r.png,0.1,-0.31,invalid,48,48,0,up,2.915440200129524,None,space,0.26738630002364516,None,,,,,0,48,48,48,,,,,341.050387899857,,,,,,,,,,,,,341.0348203999456,341.050387899857,341.050387899857,341.050387899857,343.9816721000243,,,,343.9890403000172,344.0121879000217,344.0121879000217,344.04768080008216,344.04793250001967,344.0640253999736,344.0640253999736,344.0640253999736,344.13065559999086,,,,,344.3480058000423,,,,up,2.915440200129524,None,space,0.26738630002364516,None,,,,,,,,,,,,,,,P137,001,2025-03-26_17h25.01.416,posner_endo_new1,2024.2.4,60.092723092190525,2025-03-26 17h25.09.412434 +0000,
cube_r.png,0.1,10,catch,49,49,0,up,3.4809274999424815,None,space,0.18940240005031228,None,,,,,0,49,49,49,,,,,344.36387540004216,,,,,,,,,,,,,344.3481963998638,344.36387540004216,344.36387540004216,344.36387540004216,347.86107730004005,,,,347.8684457000345,347.8798098000698,347.8798098000698,347.9268779999111,347.92713399999775,347.9433887999039,347.9433887999039,347.9433887999039,348.0100839000661,,,,,348.14382479991764,,,,up,3.4809274999424815,None,space,0.18940240005031228,None,,,,,,,,,,,,,,,P137,001,2025-03-26_17h25.01.416,posner_endo_new1,2024.2.4,60.092723092190525,2025-03-26 17h25.09.412434 +0000,
cube_l.png,0.1,-0.31,valid,50,50,0,up,3.1094651999883354,None,space,0.22255900013260543,None,,,,,0,50,50,50,,,,,348.1597934998572,,,,,,,,,,,,,348.14401599997655,348.1597934998572,348.1597934998572,348.1597934998572,351.2744694999419,,,,351.28420419991016,351.2942879998591,351.2942879998591,351.3400862000417,351.340398499975,351.3564788000658,351.3564788000658,351.3564788000658,351.43986409995705,,,,,351.59074659994803,,,,up,3.1094651999883354,None,space,0.22255900013260543,None,,,,,,,,,,,,,,,P137,001,2025-03-26_17h25.01.416,posner_endo_new1,2024.2.4,60.092723092190525,2025-03-26 17h25.09.412434 +0000,
cube_l.png,0.1,-0.31,valid,51,51,0,up,3.3747018000576645,None,space,0.4016285000834614,None,,,,,0,51,51,51,,,,,351.6062775000464,,,,,,,,,,,,,351.59099599998444,351.6062775000464,351.6062775000464,351.6062775000464,354.9872113999445,,,,354.9968828998972,355.0071366999764,355.0071366999764,355.05298210005276,355.0532957999967,355.0694863998797,355.0694863998797,355.0694863998797,355.1528258000035,,,,,355.48681210004725,,,,up,3.3747018000576645,None,space,0.4016285000834614,None,,,,,,,,,,,,,,,P137,001,2025-03-26_17h25.01.416,posner_endo_new1,2024.2.4,60.092723092190525,2025-03-26 17h25.09.412434 +0000,
cube_r.png,0.1,-0.31,invalid,52,52,0,up,3.5350230000913143,None,space,0.22716840007342398,None,,,,,0,52,52,52,,,,,355.50231879996136,,,,,,,,,,,,,355.48706119996496,355.50231879996136,355.50231879996136,355.50231879996136,359.04973559989594,,,,359.05825000000186,359.0682971000206,359.0682971000206,359.1153965999838,359.11563550005667,359.1319802000653,359.1319802000653,359.1319802000653,359.2152002998628,,,,,359.3658560998738,,,,up,3.5350230000913143,None,space,0.22716840007342398,None,,,,,,,,,,,,,,,P137,001,2025-03-26_17h25.01.416,posner_endo_new1,2024.2.4,60.092723092190525,2025-03-26 17h25.09.412434 +0000,
cube_l.png,0.1,-0.31,valid,53,53,0,up,3.3750677001662552,None,space,0.35625379998236895,None,,,,,0,53,53,53,,,,,359.3817852998618,,,,,,,,,,,,,359.36603259993717,359.3817852998618,359.3817852998618,359.3817852998618,362.76246239989996,,,,362.76920380000956,362.7809150998946,362.7809150998946,362.8283478000667,362.8286617998965,362.84474799991585,362.84474799991585,362.84474799991585,362.9280765999574,,,,,363.2120079998858,,,,up,3.3750677001662552,None,space,0.35625379998236895,None,,,,,,,,,,,,,,,P137,001,2025-03-26_17h25.01.416,posner_endo_new1,2024.2.4,60.092723092190525,2025-03-26 17h25.09.412434 +0000,
cube_r.png,0.1,10,catch,54,54,0,up,3.177523900056258,None,None,,,,,,,0,54,54,54,,,,,363.2277810999658,,,,,,,,,,,,,363.212264199974,363.2277810999658,363.2277810999658,363.2277810999658,366.4089150999207,,,,366.41865779994987,366.42889979993924,366.42889979993924,366.4750915998593,366.4754126998596,366.49111129995435,366.49111129995435,366.49111129995435,366.5743573999498,368.58883329993114,369.5046186000109,369.5046186000109,369.5046186000109,369.48856960004196,,,,up,3.177523900056258,None,None,,,,,,,,,,,,,,,,,P137,001,2025-03-26_17h25.01.416,posner_endo_new1,2024.2.4,60.092723092190525,2025-03-26 17h25.09.412434 +0000,
cube_l.png,0.1,0.31,invalid,55,55,0,up,0.43728059995919466,None,space,0.42347209993749857,None,,,,,0,55,55,55,,,,,369.5046186000109,,,,,,,,,,,,,369.48880039993674,369.5046186000109,369.5046186000109,369.5046186000109,369.9552746999543,,,,369.9649843000807,369.9755404999014,369.9755404999014,370.0208844000008,370.02119500003755,370.0374401998706,370.0374401998706,370.0374401998706,370.1205967999995,,,,,370.4718750999309,,,,up,0.43728059995919466,None,space,0.42347209993749857,None,,,,,,,,,,,,,,,P137,001,2025-03-26_17h25.01.416,posner_endo_new1,2024.2.4,60.092723092190525,2025-03-26 17h25.09.412434 +0000,
cube_l.png,0.1,-0.31,valid,56,56,0,up,2.686277600005269,None,space,0.21565750008448958,None,,,,,0,56,56,56,,,,,370.48695309995674,,,,,,,,,,,,,370.4721184000373,370.48695309995674,370.48695309995674,370.48695309995674,373.18523059994914,,,,373.1949072999414,373.20512950001284,373.20512950001284,373.2509872999508,373.2513025000226,373.267476900015,373.267476900015,373.267476900015,373.35075280000456,,,,,373.4850343000144,,,,up,2.686277600005269,None,space,0.21565750008448958,None,,,,,,,,,,,,,,,P137,001,2025-03-26_17h25.01.416,posner_endo_new1,2024.2.4,60.092723092190525,2025-03-26 17h25.09.412434 +0000,
cube_r.png,0.1,0.31,valid,57,57,0,up,2.8242144999094307,None,space,0.3103279999922961,None,,,,,0,57,57,57,,,,,373.50068709999323,,,,,,,,,,,,,373.4853014999535,373.50068709999323,373.50068709999323,373.50068709999323,376.33191849989817,,,,376.3415826000273,376.35175230004825,376.35175230004825,376.3977357998956,376.39804850006476,376.4142962999176,376.4142962999176,376.4142962999176,376.4975616999436,,,,,376.7316616999451,,,,up,2.8242144999094307,None,space,0.3103279999922961,None,,,,,,,,,,,,,,,P137,001,2025-03-26_17h25.01.416,posner_endo_new1,2024.2.4,60.092723092190525,2025-03-26 17h25.09.412434 +0000,
cube_r.png,0.1,-0.31,invalid,58,58,0,up,2.729748899815604,None,space,0.3084323999937624,None,,,,,0,58,58,58,,,,,376.7472898000851,,,,,,,,,,,,,376.73190789995715,376.7472898000851,376.7472898000851,376.7472898000851,379.4790053998586,,,,379.48748779995367,379.49743509991094,379.49743509991094,379.54456519987434,379.5447899000719,379.5609478999395,379.5609478999395,379.5609478999395,379.64434690005146,,,,,379.87806969997473,,,,up,2.729748899815604,None,space,0.3084323999937624,None,,,,,,,,,,,,,,,P137,001,2025-03-26_17h25.01.416,posner_endo_new1,2024.2.4,60.092723092190525,2025-03-26 17h25.09.412434 +0000,
cube_l.png,0.1,0.31,invalid,59,59,0,up,3.2149205999448895,None,space,0.2014111999887973,None,,,,,0,59,59,59,,,,,379.89407729986124,,,,,,,,,,,,,379.8782363999635,379.89407729986124,379.89407729986124,379.89407729986124,383.1248802000191,,,,383.1312867999077,383.1428777000401,383.1428777000401,383.1908700000495,383.1910977999214,383.2073121999856,383.2073121999856,383.2073121999856,383.27405279991217,,,,,383.42465949989855,,,,up,3.2149205999448895,None,space,0.2014111999887973,None,,,,,,,,,,,,,,,P137,001,2025-03-26_17h25.01.416,posner_endo_new1,2024.2.4,60.092723092190525,2025-03-26 17h25.09.412434 +0000,
,,,,,,,,,,,,,,,,,,,,,,,,,,,,,,,,,,,,,,,,,,,,,,,,,,,,,,,,,,,,,,,,,,,,,383.4247671000194,383.44028660003096,383.44028660003096,443.4456897000782,444.8950167000294,space,61.44513119990006,None,,,,,,,P137,001,2025-03-26_17h25.01.416,posner_endo_new1,2024.2.4,60.092723092190525,2025-03-26 17h25.09.412434 +0000,
,,,,,,,,,,,,,,,,,,,,,,,,,,,,,,,,,,444.89506949996576,444.9107913998887,447.9767509000376,447.8915687999688,,,,,,,,,,,,,,,,,,,,,,,,,,,,,,,,,,,,,,,,,,,,,,P137,001,2025-03-26_17h25.01.416,posner_endo_new1,2024.2.4,60.092723092190525,2025-03-26 17h25.09.412434 +0000,
cube_l.png,0.1,10,catch,0,0,0,down,22.116584399947897,None,None,,,,,,,,,,,0,0,0,0,447.9767509000376,,,,,,,,,,,,,447.96842209994793,447.9767509000376,447.9767509000376,447.9767509000376,470.10240349988453,,,,470.1096602000762,470.12127389991656,470.12127389991656,470.16842220001854,470.1686521999072,470.1849913999904,470.1849913999904,470.1849913999904,470.25156540004537,472.2663139998913,473.19870579987764,473.19870579987764,473.19870579987764,473.1824185999576,,,,,,,,,,,,,,,,,,down,22.116584399947897,None,None,,,P137,001,2025-03-26_17h25.01.416,posner_endo_new1,2024.2.4,60.092723092190525,2025-03-26 17h25.09.412434 +0000,
cube_l.png,0.1,10,catch,1,1,0,down,5.310691300081089,None,None,,,,,,,,,,,0,1,1,1,473.19870579987764,,,,,,,,,,,,,473.18257760000415,473.19870579987764,473.19870579987764,473.19870579987764,478.5105218999088,,,,478.5167666999623,478.52843359997496,478.52843359997496,478.57654949999414,478.5767751999665,478.5931227998808,478.5931227998808,478.5931227998808,478.65959340007976,480.6742191000376,481.606707100058,481.606707100058,481.606707100058,481.59038130007684,,,,,,,,,,,,,,,,,,down,5.310691300081089,None,None,,,P137,001,2025-03-26_17h25.01.416,posner_endo_new1,2024.2.4,60.092723092190525,2025-03-26 17h25.09.412434 +0000,
cube_l.png,0.1,0.31,invalid,2,2,0,down,0.9429880999960005,None,space,0.7003921000286937,None,,,,,,,,,0,2,2,2,481.606707100058,,,,,,,,,,,,,481.59053929988295,481.606707100058,481.606707100058,481.606707100058,482.5563783000689,,,,482.5627075000666,482.57427139999345,482.57427139999345,482.62246880005114,482.6227017000783,482.63886269996874,482.63886269996874,482.63886269996874,482.7055091999937,,,,,483.3556886999868,,,,,,,,,,,,,,,,,,down,0.9429880999960005,None,space,0.7003921000286937,None,P137,001,2025-03-26_17h25.01.416,posner_endo_new1,2024.2.4,60.092723092190525,2025-03-26 17h25.09.412434 +0000,
cube_l.png,0.1,0.31,invalid,3,3,0,down,9.937797999940813,None,space,0.4216542998328805,None,,,,,,,,,0,3,3,3,483.371556899976,,,,,,,,,,,,,483.35586160002276,483.371556899976,483.371556899976,483.371556899976,493.3120482999366,,,,493.3183514000848,493.3299396999646,493.3299396999646,493.3781307998579,493.37836540001445,493.3945625999477,493.3945625999477,493.3945625999477,493.4612028999254,,,,,493.8281749000307,,,,,,,,,,,,,,,,,,down,9.937797999940813,None,space,0.4216542998328805,None,P137,001,2025-03-26_17h25.01.416,posner_endo_new1,2024.2.4,60.092723092190525,2025-03-26 17h25.09.412434 +0000,
cube_l.png,0.1,-0.31,valid,4,4,0,down,3.241015300154686,None,space,0.36533900001086295,None,,,,,,,,,0,4,4,4,493.8441902999766,,,,,,,,,,,,,493.82834740006365,493.8441902999766,493.8441902999766,493.8441902999766,497.0916315999348,,,,497.09808559995145,497.1097233998589,497.1097233998589,497.1576133000199,497.15784100000747,497.17417160002515,497.17417160002515,497.17417160002515,497.2405178998597,,,,,497.54123309999704,,,,,,,,,,,,,,,,,,down,3.241015300154686,None,space,0.36533900001086295,None,P137,001,2025-03-26_17h25.01.416,posner_endo_new1,2024.2.4,60.092723092190525,2025-03-26 17h25.09.412434 +0000,
cube_r.png,0.1,-0.31,invalid,5,5,0,down,2.7040393000934273,None,space,0.26957450015470386,None,,,,,,,,,0,5,5,5,497.55711010005325,,,,,,,,,,,,,497.5414058000315,497.55711010005325,497.55711010005325,497.55711010005325,500.2716798998881,,,,500.2780585999135,500.2898343000561,500.2898343000561,500.3375575998798,500.33778519998305,500.35416590003297,500.35416590003297,500.35416590003297,500.42072789999656,,,,,500.63798330002464,,,,,,,,,,,,,,,,,,down,2.7040393000934273,None,space,0.26957450015470386,None,P137,001,2025-03-26_17h25.01.416,posner_endo_new1,2024.2.4,60.092723092190525,2025-03-26 17h25.09.412434 +0000,
cube_r.png,0.1,0.31,valid,6,6,0,down,2.9988941999617964,None,space,0.28197559993714094,None,,,,,,,,,0,6,6,6,500.6538366000168,,,,,,,,,,,,,500.6381534000393,500.6538366000168,500.6538366000168,500.6538366000168,503.6680079998914,,,,503.67439899989404,503.68603209988214,503.68603209988214,503.7341080000624,503.7343359000515,503.75070949993096,503.75070949993096,503.75070949993096,503.81714649987407,,,,,504.0344288998749,,,,,,,,,,,,,,,,,,down,2.9988941999617964,None,space,0.28197559993714094,None,P137,001,2025-03-26_17h25.01.416,posner_endo_new1,2024.2.4,60.092723092190525,2025-03-26 17h25.09.412434 +0000,
cube_r.png,0.1,-0.31,invalid,7,7,0,down,3.1787024999503046,None,space,0.6884443000890315,None,,,,,,,,,0,7,7,7,504.0504103999119,,,,,,,,,,,,,504.03459979989566,504.0504103999119,504.0504103999119,504.0504103999119,507.23122030007653,,,,507.2375189999584,507.2490753000602,507.2490753000602,507.2970006999094,507.2972287000157,507.31360080000013,507.31360080000013,507.31360080000013,507.3801406000275,,,,,508.0137664999347,,,,,,,,,,,,,,,,,,down,3.1787024999503046,None,space,0.6884443000890315,None,P137,001,2025-03-26_17h25.01.416,posner_endo_new1,2024.2.4,60.092723092190525,2025-03-26 17h25.09.412434 +0000,
cube_l.png,0.1,-0.31,valid,8,8,0,down,3.0633580000139773,None,space,0.303685599938035,None,,,,,,,,,0,8,8,8,508.0295406000223,,,,,,,,,,,,,508.0139363000635,508.0295406000223,508.0295406000223,508.0295406000223,511.0939768999815,,,,511.10032179998234,511.1121332999319,511.1121332999319,511.1597088999115,511.1599377999082,511.17637689993717,511.17637689993717,511.17637689993717,511.2595470000524,,,,,511.49353819992393,,,,,,,,,,,,,,,,,,down,3.0633580000139773,None,space,0.303685599938035,None,P137,001,2025-03-26_17h25.01.416,posner_endo_new1,2024.2.4,60.092723092190525,2025-03-26 17h25.09.412434 +0000,
cube_r.png,0.1,-0.31,invalid,9,9,0,down,3.055294099962339,None,space,0.5884183999150991,None,,,,,,,,,0,9,9,9,511.5094097000547,,,,,,,,,,,,,511.4937108999584,511.5094097000547,511.5094097000547,511.5094097000547,514.5735142999329,,,,514.5797405000776,514.5913700000383,514.5913700000383,514.6395215999801,514.6397484999616,514.6560454999562,514.6560454999562,514.6560454999562,514.7226785998791,,,,,515.2562186999712,,,,,,,,,,,,,,,,,,down,3.055294099962339,None,space,0.5884183999150991,None,P137,001,2025-03-26_17h25.01.416,posner_endo_new1,2024.2.4,60.092723092190525,2025-03-26 17h25.09.412434 +0000,
cube_l.png,0.1,0.31,invalid,10,10,0,down,2.764665700029582,None,space,2.027395699871704,None,,,,,,,,,0,10,10,10,515.2721384998877,,,,,,,,,,,,,515.2563908998854,515.2721384998877,515.2721384998877,515.2721384998877,518.0534892999567,,,,518.0597355000209,518.0710112999659,518.0710112999659,518.1193268999923,518.1195544998627,518.1358628999442,518.1358628999442,518.1358628999442,518.2025732998736,,,,,520.1680425000377,,,,,,,,,,,,,,,,,,down,2.764665700029582,None,space,2.027395699871704,None,P137,001,2025-03-26_17h25.01.416,posner_endo_new1,2024.2.4,60.092723092190525,2025-03-26 17h25.09.412434 +0000,
cube_r.png,0.1,-0.31,invalid,11,11,0,down,0.9808513999450952,None,space,0.396257400047034,None,,,,,,,,,0,11,11,11,520.18387479987,,,,,,,,,,,,,520.1682166000828,520.18387479987,520.18387479987,520.18387479987,521.1670260999817,,,,521.1733202999458,521.1851025999058,521.1851025999058,521.232711300021,521.2329392000102,521.2494944999926,521.2494944999926,521.2494944999926,521.3327840000857,,,,,521.6497611000668,,,,,,,,,,,,,,,,,,down,0.9808513999450952,None,space,0.396257400047034,None,P137,001,2025-03-26_17h25.01.416,posner_endo_new1,2024.2.4,60.092723092190525,2025-03-26 17h25.09.412434 +0000,
cube_r.png,0.1,0.31,valid,12,12,0,down,3.7311993001494557,None,space,0.21728119999170303,None,,,,,,,,,0,12,12,12,521.6657928999048,,,,,,,,,,,,,521.6499350999948,521.6657928999048,521.6657928999048,521.6657928999048,525.4127221000381,,,,525.4190227000508,525.4309415998869,525.4309415998869,525.4785911000799,525.4788194000721,525.4952014000155,525.4952014000155,525.4952014000155,525.5616776000243,,,,,525.7289141998626,,,,,,,,,,,,,,,,,,down,3.7311993001494557,None,space,0.21728119999170303,None,P137,001,2025-03-26_17h25.01.416,posner_endo_new1,2024.2.4,60.092723092190525,2025-03-26 17h25.09.412434 +0000,
cube_l.png,0.1,10,catch,13,13,0,down,3.5885773999616504,None,space,0.24715239997021854,None,,,,,,,,,0,13,13,13,525.7448817000259,,,,,,,,,,,,,525.7290866000112,525.7448817000259,525.7448817000259,525.7448817000259,529.3418997998815,,,,529.3481411999092,529.3596937998664,529.3596937998664,529.4077456998639,529.4079741998576,529.4243683000095,529.4243683000095,529.4243683000095,529.4908880998846,,,,,529.6750741000287,,,,,,,,,,,,,,,,,,down,3.5885773999616504,None,space,0.24715239997021854,None,P137,001,2025-03-26_17h25.01.416,posner_endo_new1,2024.2.4,60.092723092190525,2025-03-26 17h25.09.412434 +0000,
cube_r.png,0.1,-0.31,invalid,14,14,0,down,3.4182430000510067,None,space,0.3850306998938322,None,,,,,,,,,0,14,14,14,529.690591200022,,,,,,,,,,,,,529.675252399873,529.690591200022,529.690591200022,529.690591200022,533.121581699932,,,,533.1305098000448,533.1405279999599,533.1405279999599,533.1873820000328,533.1879475999158,533.2038117998745,533.2038117998745,533.2038117998745,533.2870384000707,,,,,533.6055079998914,,,,,,,,,,,,,,,,,,down,3.4182430000510067,None,space,0.3850306998938322,None,P137,001,2025-03-26_17h25.01.416,posner_endo_new1,2024.2.4,60.092723092190525,2025-03-26 17h25.09.412434 +0000,
cube_l.png,0.1,-0.31,valid,15,15,0,down,3.528914100024849,None,space,0.34990269993431866,None,,,,,,,,,0,15,15,15,533.6200581998564,,,,,,,,,,,,,533.6059993999079,533.6200581998564,533.6200581998564,533.6200581998564,537.1510350999888,,,,537.1621383000165,537.172106300015,537.172106300015,537.2165349998977,537.2168775999453,537.2330098999664,537.2330098999664,537.2330098999664,537.3163198998664,,,,,537.5840642999392,,,,,,,,,,,,,,,,,,down,3.528914100024849,None,space,0.34990269993431866,None,P137,001,2025-03-26_17h25.01.416,posner_endo_new1,2024.2.4,60.092723092190525,2025-03-26 17h25.09.412434 +0000,
cube_r.png,0.1,10,catch,16,16,0,down,3.7178357001394033,None,space,0.283104500034824,None,,,,,,,,,0,16,16,16,537.5993655999191,,,,,,,,,,,,,537.5843384999316,537.5993655999191,537.5993655999191,537.5993655999191,541.3300030999817,,,,541.3391382000409,541.3488908999134,541.3488908999134,541.3955802998971,541.3958234998863,541.412081599934,541.412081599934,541.412081599934,541.495380599983,,,,,541.695973899914,,,,,,,,,,,,,,,,,,down,3.7178357001394033,None,space,0.283104500034824,None,P137,001,2025-03-26_17h25.01.416,posner_endo_new1,2024.2.4,60.092723092190525,2025-03-26 17h25.09.412434 +0000,
cube_r.png,0.1,10,catch,17,17,0,down,3.2851382000371814,None,None,,,,,,,,,,,0,17,17,17,541.7117300999817,,,,,,,,,,,,,541.6961632999592,541.7117300999817,541.7117300999817,541.7117300999817,545.0091387000866,,,,545.0161893998738,545.0278612000402,545.0278612000402,545.0749417999759,545.0751694999635,545.0917062000372,545.0917062000372,545.0917062000372,545.1581335000228,547.1729879998602,548.1052568999585,548.1052568999585,548.1052568999585,548.0889921998605,,,,,,,,,,,,,,,,,,down,3.2851382000371814,None,None,,,P137,001,2025-03-26_17h25.01.416,posner_endo_new1,2024.2.4,60.092723092190525,2025-03-26 17h25.09.412434 +0000,
cube_l.png,0.1,0.31,invalid,18,18,0,down,0.339945400133729,None,space,0.3257361000869423,None,,,,,,,,,0,18,18,18,548.1052568999585,,,,,,,,,,,,,548.0891561000608,548.1052568999585,548.1052568999585,548.1052568999585,548.4554808000103,,,,548.4615545000415,548.4732494999189,548.4732494999189,548.5216135999653,548.5218408999499,548.5382346999831,548.5382346999831,548.5382346999831,548.604657500051,,,,,548.8717167000286,,,,,,,,,,,,,,,,,,down,0.339945400133729,None,space,0.3257361000869423,None,P137,001,2025-03-26_17h25.01.416,posner_endo_new1,2024.2.4,60.092723092190525,2025-03-26 17h25.09.412434 +0000,
cube_l.png,0.1,10,catch,19,19,0,down,3.5569647001102567,None,None,,,,,,,,,,,0,19,19,19,548.8877337998711,,,,,,,,,,,,,548.8718884999398,548.8877337998711,548.8877337998711,548.8877337998711,552.4513244999107,,,,552.4573558999691,552.468838499859,552.468838499859,552.517576900078,552.5178151000291,552.5340505000204,552.5340505000204,552.5340505000204,552.6008883998729,554.6153671999928,555.5476702998858,555.5476702998858,555.5476702998858,555.5315715998877,,,,,,,,,,,,,,,,,,down,3.5569647001102567,None,None,,,P137,001,2025-03-26_17h25.01.416,posner_endo_new1,2024.2.4,60.092723092190525,2025-03-26 17h25.09.412434 +0000,
cube_l.png,0.1,0.31,invalid,20,20,0,down,0.16132980003021657,None,space,0.3348290999419987,None,,,,,,,,,0,20,20,20,555.5476702998858,,,,,,,,,,,,,555.5317323000636,555.5476702998858,555.5476702998858,555.5476702998858,555.7149368999526,,,,555.7210363000631,555.7327093998902,555.7327093998902,555.7807871999685,555.7810144000687,555.7972609999124,555.7972609999124,555.7972609999124,555.8641305998899,,,,,556.1477252999321,,,,,,,,,,,,,,,,,,down,0.16132980003021657,None,space,0.3348290999419987,None,P137,001,2025-03-26_17h25.01.416,posner_endo_new1,2024.2.4,60.092723092190525,2025-03-26 17h25.09.412434 +0000,
cube_l.png,0.1,-0.31,valid,21,21,0,down,2.9860068999696523,None,space,0.3914549998007715,None,,,,,,,,,0,21,21,21,556.1636576999445,,,,,,,,,,,,,556.1479068999179,556.1636576999445,556.1636576999445,556.1636576999445,559.1614441000856,,,,559.1674607999157,559.1793051999994,559.1793051999994,559.2272987000179,559.2278092999477,559.243706200039,559.243706200039,559.243706200039,559.3270918999333,,,,,559.6444903998636,,,,,,,,,,,,,,,,,,down,2.9860068999696523,None,space,0.3914549998007715,None,P137,001,2025-03-26_17h25.01.416,posner_endo_new1,2024.2.4,60.092723092190525,2025-03-26 17h25.09.412434 +0000,
cube_r.png,0.1,0.31,valid,22,22,0,down,3.345082900021225,None,space,0.3471512000542134,None,,,,,,,,,0,22,22,22,559.6601241000462,,,,,,,,,,,,,559.6447572000325,559.6601241000462,559.6601241000462,559.6601241000462,563.0079832999036,,,,563.0179264000617,563.0280313999392,563.0280313999392,563.0733461000491,563.0736557999626,563.0899849999696,563.0899849999696,563.0899849999696,563.1731781000271,,,,,563.4407194999512,,,,,,,,,,,,,,,,,,down,3.345082900021225,None,space,0.3471512000542134,None,P137,001,2025-03-26_17h25.01.416,posner_endo_new1,2024.2.4,60.092723092190525,2025-03-26 17h25.09.412434 +0000,
cube_r.png,0.1,-0.31,invalid,23,23,0,down,2.9014673000201583,None,space,0.3934816000983119,None,,,,,,,,,0,23,23,23,563.4561149999499,,,,,,,,,,,,,563.4409711998887,563.4561149999499,563.4561149999499,563.4561149999499,566.3708550999872,,,,566.3807568999473,566.3907941998914,566.3907941998914,566.4366397999693,566.4369536000304,566.4531445999164,566.4531445999164,566.4531445999164,566.5363614999224,,,,,566.8535545000341,,,,,,,,,,,,,,,,,,down,2.9014673000201583,None,space,0.3934816000983119,None,P137,001,2025-03-26_17h25.01.416,posner_endo_new1,2024.2.4,60.092723092190525,2025-03-26 17h25.09.412434 +0000,
cube_r.png,0.1,0.31,valid,24,24,0,down,3.0722167000640184,None,space,0.285694100195542,None,,,,,,,,,0,24,24,24,566.869372599991,,,,,,,,,,,,,566.853806699859,566.869372599991,566.869372599991,566.869372599991,569.9504805998877,,,,569.9583453999367,569.9691975999158,569.9691975999158,570.0163781999145,570.0166114999447,570.0327288000844,570.0327288000844,570.0327288000844,570.1160359000787,,,,,570.3332444999833,,,,,,,,,,,,,,,,,,down,3.0722167000640184,None,space,0.285694100195542,None,P137,001,2025-03-26_17h25.01.416,posner_endo_new1,2024.2.4,60.092723092190525,2025-03-26 17h25.09.412434 +0000,
cube_r.png,0.1,-0.31,invalid,25,25,0,down,2.6075190999545157,None,space,0.4249658999033272,None,,,,,,,,,0,25,25,25,570.349191499874,,,,,,,,,,,,,570.3334162998945,570.349191499874,570.349191499874,570.349191499874,572.9637102999259,,,,572.9701876998879,572.9818347999826,572.9818347999826,573.0298184000421,573.0300546998624,573.0464063999243,573.0464063999243,573.0464063999243,573.1129028000869,,,,,573.4800473998766,,,,,,,,,,,,,,,,,,down,2.6075190999545157,None,space,0.4249658999033272,None,P137,001,2025-03-26_17h25.01.416,posner_endo_new1,2024.2.4,60.092723092190525,2025-03-26 17h25.09.412434 +0000,
cube_l.png,0.1,-0.31,valid,26,26,0,down,2.7094992001075298,None,space,0.4080314999446273,None,,,,,,,,,0,26,26,26,573.4959104999434,,,,,,,,,,,,,573.4802184998989,573.4959104999434,573.4959104999434,573.4959104999434,576.2106002999935,,,,576.2170629000757,576.2288716998883,576.2288716998883,576.2763912000228,576.2766187998932,576.2930290999357,576.2930290999357,576.2930290999357,576.3596657000016,,,,,576.7101116999984,,,,,,,,,,,,,,,,,,down,2.7094992001075298,None,space,0.4080314999446273,None,P137,001,2025-03-26_17h25.01.416,posner_endo_new1,2024.2.4,60.092723092190525,2025-03-26 17h25.09.412434 +0000,
cube_r.png,0.1,0.31,valid,27,27,0,down,2.2626924999058247,None,space,0.3605033999774605,None,,,,,,,,,0,27,27,27,576.726031600032,,,,,,,,,,,,,576.710289800074,576.726031600032,576.726031600032,576.726031600032,578.9912288000342,,,,578.9972772998735,579.0088899999391,579.0088899999391,579.0570753000211,579.0573070000391,579.0736585999839,579.0736585999839,579.0736585999839,579.1567001999356,,,,,579.4405795999337,,,,,,,,,,,,,,,,,,down,2.2626924999058247,None,space,0.3605033999774605,None,P137,001,2025-03-26_17h25.01.416,posner_endo_new1,2024.2.4,60.092723092190525,2025-03-26 17h25.09.412434 +0000,
cube_r.png,0.1,10,catch,28,28,0,down,2.3643859000876546,None,None,,,,,,,,,,,0,28,28,28,579.4565610999707,,,,,,,,,,,,,579.4407529998571,579.4565610999707,579.4565610999707,579.4565610999707,581.8216748998966,,,,581.8276865000371,581.839380200021,581.839380200021,581.88743839995,581.8876658000518,581.9039417000022,581.9039417000022,581.9039417000022,581.9872065000236,584.0019185999408,584.9174987000879,584.9174987000879,584.9174987000879,584.9015252999961,,,,,,,,,,,,,,,,,,down,2.3643859000876546,None,None,,,P137,001,2025-03-26_17h25.01.416,posner_endo_new1,2024.2.4,60.092723092190525,2025-03-26 17h25.09.412434 +0000,
cube_r.png,0.1,0.31,valid,29,29,0,down,9.967378499917686,None,space,0.2655432000756264,None,,,,,,,,,0,29,29,29,584.9174987000879,,,,,,,,,,,,,584.9016857000533,584.9174987000879,584.9174987000879,584.9174987000879,594.8915883998852,,,,594.9014099000487,594.9116032999009,594.9116032999009,594.9574768000748,594.9577927999198,594.9741994000506,594.9741994000506,594.9741994000506,595.0571079999208,,,,,595.2416133999359,,,,,,,,,,,,,,,,,,down,9.967378499917686,None,space,0.2655432000756264,None,P137,001,2025-03-26_17h25.01.416,posner_endo_new1,2024.2.4,60.092723092190525,2025-03-26 17h25.09.412434 +0000,
cube_r.png,0.1,0.31,valid,30,30,0,down,3.932649499969557,None,space,0.30628110002726316,None,,,,,,,,,0,30,30,30,595.256978899939,,,,,,,,,,,,,595.2418704000302,595.256978899939,595.256978899939,595.256978899939,599.2040240999777,,,,599.2139439000748,599.2241569999605,599.2241569999605,599.2697002999485,599.2700096999761,599.286230100086,599.286230100086,599.286230100086,599.3693873998709,,,,,599.6035559000447,,,,,,,,,,,,,,,,,,down,3.932649499969557,None,space,0.30628110002726316,None,P137,001,2025-03-26_17h25.01.416,posner_endo_new1,2024.2.4,60.092723092190525,2025-03-26 17h25.09.412434 +0000,
cube_l.png,0.1,-0.31,valid,31,31,0,down,3.1864851000718772,None,space,0.41606249986216426,None,,,,,,,,,0,31,31,31,599.6192173999734,,,,,,,,,,,,,599.603806699859,599.6192173999734,599.6192173999734,599.6192173999734,602.8165374000091,,,,602.82297009998,602.834602399962,602.834602399962,602.8826931999065,602.8829298999626,602.8992347000167,602.8992347000167,602.8992347000167,602.9657008999493,,,,,603.3162398000713,,,,,,,,,,,,,,,,,,down,3.1864851000718772,None,space,0.41606249986216426,None,P137,001,2025-03-26_17h25.01.416,posner_endo_new1,2024.2.4,60.092723092190525,2025-03-26 17h25.09.412434 +0000,
cube_r.png,0.1,0.31,valid,32,32,0,down,3.352649400010705,None,space,0.5874256999231875,None,,,,,,,,,0,32,32,32,603.3321855999529,,,,,,,,,,,,,603.3164108998608,603.3321855999529,603.3321855999529,603.3321855999529,606.6959778999444,,,,606.7025365999434,606.7140975999646,606.7140975999646,606.7621025000699,606.762330000056,606.7785580998752,606.7785580998752,606.7785580998752,606.8450239000376,,,,,607.3786581999157,,,,,,,,,,,,,,,,,,down,3.352649400010705,None,space,0.5874256999231875,None,P137,001,2025-03-26_17h25.01.416,posner_endo_new1,2024.2.4,60.092723092190525,2025-03-26 17h25.09.412434 +0000,
cube_r.png,0.1,-0.31,invalid,33,33,0,down,2.9227567000780255,None,space,0.39084420003928244,None,,,,,,,,,0,33,33,33,607.3945539998822,,,,,,,,,,,,,607.3788314999547,607.3945539998822,607.3945539998822,607.3945539998822,610.3255996999796,,,,610.3318465000484,610.3434204000514,610.3434204000514,610.3915057000704,610.3917340999469,610.4081417000853,610.4081417000853,610.4081417000853,610.4747142000124,,,,,610.8085375998635,,,,,,,,,,,,,,,,,,down,2.9227567000780255,None,space,0.39084420003928244,None,P137,001,2025-03-26_17h25.01.416,posner_endo_new1,2024.2.4,60.092723092190525,2025-03-26 17h25.09.412434 +0000,
cube_r.png,0.1,10,catch,34,34,0,down,2.8846847999375314,None,None,,,,,,,,,,,0,34,34,34,610.8243706999347,,,,,,,,,,,,,610.8087071999907,610.8243706999347,610.8243706999347,610.8243706999347,613.7222941999789,,,,613.7285362998955,613.7402983000502,613.7402983000502,613.7882606999483,613.7884897000622,613.8045723999385,613.8045723999385,613.8045723999385,613.871156899957,615.8855693000369,616.8182776998729,616.8182776998729,616.8182776998729,616.802242500009,,,,,,,,,,,,,,,,,,down,2.8846847999375314,None,None,,,P137,001,2025-03-26_17h25.01.416,posner_endo_new1,2024.2.4,60.092723092190525,2025-03-26 17h25.09.412434 +0000,
cube_r.png,0.1,0.31,valid,35,35,0,down,0.9315890001598746,None,space,0.4783918000757694,None,,,,,,,,,0,35,35,35,616.8182776998729,,,,,,,,,,,,,616.8024778999388,616.8182776998729,616.8182776998729,616.8182776998729,617.7517649000511,,,,617.7616621998604,617.7717202000786,617.7717202000786,617.8173513000365,617.8176629000809,617.8337658999953,617.8337658999953,617.8337658999953,617.9170739999972,,,,,618.3179204000626,,,,,,,,,,,,,,,,,,down,0.9315890001598746,None,space,0.4783918000757694,None,P137,001,2025-03-26_17h25.01.416,posner_endo_new1,2024.2.4,60.092723092190525,2025-03-26 17h25.09.412434 +0000,
cube_r.png,0.1,-0.31,invalid,36,36,0,down,2.695464099990204,None,space,0.3390122000128031,None,,,,,,,,,0,36,36,36,618.3333727000281,,,,,,,,,,,,,618.318175500026,618.3333727000281,618.3333727000281,618.3333727000281,621.0316610999871,,,,621.0420407999773,621.0519868999254,621.0519868999254,621.0973854998592,621.0977004999295,621.113836399978,621.113836399978,621.113836399978,621.1970223998651,,,,,621.4645145998802,,,,,,,,,,,,,,,,,,down,2.695464099990204,None,space,0.3390122000128031,None,P137,001,2025-03-26_17h25.01.416,posner_endo_new1,2024.2.4,60.092723092190525,2025-03-26 17h25.09.412434 +0000,
cube_l.png,0.1,0.31,invalid,37,37,0,down,3.837446300080046,None,space,0.3385260000359267,None,,,,,,,,,0,37,37,37,621.480193000054,,,,,,,,,,,,,621.464776400011,621.480193000054,621.480193000054,621.480193000054,625.3272470000666,,,,625.3366805000696,625.3464021999389,625.3464021999389,625.3928995998576,625.3931388999335,625.4093170999549,625.4093170999549,625.4093170999549,625.4928351000417,,,,,625.7597783000674,,,,,,,,,,,,,,,,,,down,3.837446300080046,None,space,0.3385260000359267,None,P137,001,2025-03-26_17h25.01.416,posner_endo_new1,2024.2.4,60.092723092190525,2025-03-26 17h25.09.412434 +0000,
cube_l.png,0.1,0.31,invalid,38,38,0,down,3.069609999889508,None,space,0.6444294000975788,None,,,,,,,,,0,38,38,38,625.7759686000645,,,,,,,,,,,,,625.7599591000471,625.7759686000645,625.7759686000645,625.7759686000645,628.8565789000131,,,,628.8634806000628,628.8750328000169,628.8750328000169,628.9226212999783,628.9228513999842,628.939143900061,628.939143900061,628.939143900061,629.0056737000123,,,,,629.5893441999797,,,,,,,,,,,,,,,,,,down,3.069609999889508,None,space,0.6444294000975788,None,P137,001,2025-03-26_17h25.01.416,posner_endo_new1,2024.2.4,60.092723092190525,2025-03-26 17h25.09.412434 +0000,
cube_r.png,0.1,0.31,valid,39,39,0,down,3.343929799972102,None,space,0.5566469000186771,None,,,,,,,,,0,39,39,39,629.6053221998736,,,,,,,,,,,,,629.5895173999015,629.6053221998736,629.6053221998736,629.6053221998736,632.9524467000738,,,,632.9585742999334,632.9701127998997,632.9701127998997,633.018404699862,633.0186326999683,633.0351340000052,633.0351340000052,633.0351340000052,633.1016462999396,,,,,633.6018149000593,,,,,,,,,,,,,,,,,,down,3.343929799972102,None,space,0.5566469000186771,None,P137,001,2025-03-26_17h25.01.416,posner_endo_new1,2024.2.4,60.092723092190525,2025-03-26 17h25.09.412434 +0000,
cube_l.png,0.1,0.31,invalid,40,40,0,down,3.0995964999310672,None,space,0.3510628000367433,None,,,,,,,,,0,40,40,40,633.6177163999528,,,,,,,,,,,,,633.601992999902,633.6177163999528,633.6177163999528,633.6177163999528,636.7318788000848,,,,636.7380166999064,636.7495146999136,636.7495146999136,636.7980074000079,636.798234899994,636.8145125999581,636.8145125999581,636.8145125999581,636.8808899000287,,,,,637.1815013000742,,,,,,,,,,,,,,,,,,down,3.0995964999310672,None,space,0.3510628000367433,None,P137,001,2025-03-26_17h25.01.416,posner_endo_new1,2024.2.4,60.092723092190525,2025-03-26 17h25.09.412434 +0000,
cube_l.png,0.1,10,catch,41,41,0,down,4.023594199912623,None,None,,,,,,,,,,,0,41,41,41,637.1973222999368,,,,,,,,,,,,,637.1816726999823,637.1973222999368,637.1973222999368,637.1973222999368,641.2274778999854,,,,641.2337807000149,641.2455549000297,641.2455549000297,641.2932758000679,641.2935043000616,641.3099883999676,641.3099883999676,641.3099883999676,641.3932129000314,643.4077677000314,644.3233417000156,644.3233417000156,644.3233417000156,644.3073521999177,,,,,,,,,,,,,,,,,,down,4.023594199912623,None,None,,,P137,001,2025-03-26_17h25.01.416,posner_endo_new1,2024.2.4,60.092723092190525,2025-03-26 17h25.09.412434 +0000,
cube_l.png,0.1,-0.31,valid,42,42,0,down,1.1055433999281377,None,space,0.36023570015095174,None,,,,,,,,,0,42,42,42,644.3233417000156,,,,,,,,,,,,,644.3075119999703,644.3233417000156,644.3233417000156,644.3233417000156,645.4396410998888,,,,645.4457948999479,645.4573232999537,645.4573232999537,645.5057379000355,645.5059740999714,645.5221418999135,645.5221418999135,645.5221418999135,645.5888932999223,,,,,645.8891570998821,,,,,,,,,,,,,,,,,,down,1.1055433999281377,None,space,0.36023570015095174,None,P137,001,2025-03-26_17h25.01.416,posner_endo_new1,2024.2.4,60.092723092190525,2025-03-26 17h25.09.412434 +0000,
cube_l.png,0.1,10,catch,43,43,0,down,4.379683600040153,None,None,,,,,,,,,,,0,43,43,43,645.9053199000191,,,,,,,,,,,,,645.8893359999638,645.9053199000191,645.9053199000191,645.9053199000191,650.3013712000102,,,,650.307514899876,650.3193043998908,650.3193043998908,650.3672754999716,650.3675052998587,650.3839342000429,650.3839342000429,650.3839342000429,650.4505862998776,652.4651907999068,653.3976648000535,653.3976648000535,653.3976648000535,653.3812631999608,,,,,,,,,,,,,,,,,,down,4.379683600040153,None,None,,,P137,001,2025-03-26_17h25.01.416,posner_endo_new1,2024.2.4,60.092723092190525,2025-03-26 17h25.09.412434 +0000,
cube_l.png,0.1,0.31,invalid,44,44,0,down,0.8720375997945666,None,space,0.3485963998828083,None,,,,,,,,,0,44,44,44,653.3976648000535,,,,,,,,,,,,,653.3814240000211,653.3976648000535,653.3976648000535,653.3976648000535,654.2806432000361,,,,654.2867361998651,654.2984390000347,654.2984390000347,654.3466550000012,654.3468851998914,654.3632499999367,654.3632499999367,654.3632499999367,654.4299125999678,,,,,654.7135711000301,,,,,,,,,,,,,,,,,,down,0.8720375997945666,None,space,0.3485963998828083,None,P137,001,2025-03-26_17h25.01.416,posner_endo_new1,2024.2.4,60.092723092190525,2025-03-26 17h25.09.412434 +0000,
cube_l.png,0.1,0.31,invalid,45,45,0,down,3.283662300091237,None,space,0.32373179984278977,None,,,,,,,,,0,45,45,45,654.7294230000116,,,,,,,,,,,,,654.7137414999306,654.7294230000116,654.7294230000116,654.7294230000116,658.0268246999476,,,,658.0329974999186,658.0447022998706,658.0447022998706,658.0928344000131,658.0930612999946,658.1094672000036,658.1094672000036,658.1094672000036,658.175979499938,,,,,658.4430009999778,,,,,,,,,,,,,,,,,,down,3.283662300091237,None,space,0.32373179984278977,None,P137,001,2025-03-26_17h25.01.416,posner_endo_new1,2024.2.4,60.092723092190525,2025-03-26 17h25.09.412434 +0000,
cube_r.png,0.1,0.31,valid,46,46,0,down,3.0261683999560773,None,space,0.3998604000080377,None,,,,,,,,,0,46,46,46,658.4590310000349,,,,,,,,,,,,,658.4431777000427,658.4590310000349,658.4590310000349,658.4590310000349,661.490048199892,,,,661.49626299995,661.5079614000861,661.5079614000861,661.5559616999235,661.5561923000496,661.5723798999097,661.5723798999097,661.5723798999097,661.6390416000504,,,,,661.9731890000403,,,,,,,,,,,,,,,,,,down,3.0261683999560773,None,space,0.3998604000080377,None,P137,001,2025-03-26_17h25.01.416,posner_endo_new1,2024.2.4,60.092723092190525,2025-03-26 17h25.09.412434 +0000,
cube_l.png,0.1,-0.31,valid,47,47,0,down,3.159927200060338,None,space,0.30735119991004467,None,,,,,,,,,0,47,47,47,661.9888383999933,,,,,,,,,,,,,661.9733625000808,661.9888383999933,661.9888383999933,661.9888383999933,665.1528081998695,,,,665.1589917999227,665.1705423998646,665.1705423998646,665.2187288999557,665.2189553999342,665.2353312999476,665.2353312999476,665.2353312999476,665.3019325998612,,,,,665.5525191000197,,,,,,,,,,,,,,,,,,down,3.159927200060338,None,space,0.30735119991004467,None,P137,001,2025-03-26_17h25.01.416,posner_endo_new1,2024.2.4,60.092723092190525,2025-03-26 17h25.09.412434 +0000,
cube_r.png,0.1,-0.31,invalid,48,48,0,down,3.100631000008434,None,space,0.36918150004930794,None,,,,,,,,,0,48,48,48,665.568177399924,,,,,,,,,,,,,665.5526979998685,665.568177399924,665.568177399924,665.568177399924,668.6825581998564,,,,668.6886835999321,668.7002568999305,668.7002568999305,668.748600400053,668.748835099861,668.7650919998996,668.7650919998996,668.7650919998996,668.8316687999759,,,,,669.1487342999317,,,,,,,,,,,,,,,,,,down,3.100631000008434,None,space,0.36918150004930794,None,P137,001,2025-03-26_17h25.01.416,posner_endo_new1,2024.2.4,60.092723092190525,2025-03-26 17h25.09.412434 +0000,
cube_r.png,0.1,10,catch,49,49,0,down,3.232098499778658,None,None,,,,,,,,,,,0,49,49,49,669.1648077000864,,,,,,,,,,,,,669.1489093999844,669.1648077000864,669.1648077000864,669.1648077000864,672.4121008999646,,,,672.4181307998952,672.4298073998652,672.4298073998652,672.477637700038,672.4778632000089,672.4947079999838,672.4947079999838,672.4947079999838,672.5613172999583,674.5758672000375,675.5082193999551,675.5082193999551,675.5082193999551,675.4921303999145,,,,,,,,,,,,,,,,,,down,3.232098499778658,None,None,,,P137,001,2025-03-26_17h25.01.416,posner_endo_new1,2024.2.4,60.092723092190525,2025-03-26 17h25.09.412434 +0000,
cube_l.png,0.1,-0.31,valid,50,50,0,down,0.05687319999560714,None,space,0.6374460998922586,None,,,,,,,,,0,50,50,50,675.5082193999551,,,,,,,,,,,,,675.4922909999732,675.5082193999551,675.5082193999551,675.5082193999551,675.5755731000099,,,,675.5817712999415,675.593379399972,675.593379399972,675.6413676000666,675.6415945000481,675.6583876998629,675.6583876998629,675.6583876998629,675.7246801999863,,,,,676.3081717998721,,,,,,,,,,,,,,,,,,down,0.05687319999560714,None,space,0.6374460998922586,None,P137,001,2025-03-26_17h25.01.416,posner_endo_new1,2024.2.4,60.092723092190525,2025-03-26 17h25.09.412434 +0000,
cube_l.png,0.1,-0.31,valid,51,51,0,down,2.4732380998320878,None,space,0.3562302999198437,None,,,,,,,,,0,51,51,51,676.3239569000434,,,,,,,,,,,,,676.30834280001,676.3239569000434,676.3239569000434,676.3239569000434,678.8052451999392,,,,678.8114986999426,678.8232372999191,678.8232372999191,678.8715945000295,678.8718204998877,678.8880938000511,678.8880938000511,678.8880938000511,678.9547105999663,,,,,679.2550305000041,,,,,,,,,,,,,,,,,,down,2.4732380998320878,None,space,0.3562302999198437,None,P137,001,2025-03-26_17h25.01.416,posner_endo_new1,2024.2.4,60.092723092190525,2025-03-26 17h25.09.412434 +0000,
cube_r.png,0.1,-0.31,invalid,52,52,0,down,3.174091499997303,None,space,0.44426399981603026,None,,,,,,,,,0,52,52,52,679.2710907999426,,,,,,,,,,,,,679.2552092000842,679.2710907999426,679.2710907999426,679.2710907999426,682.451954399934,,,,682.4580278000794,682.469715599902,682.469715599902,682.5177396000363,682.5179671000224,682.5342661000323,682.5342661000323,682.5342661000323,682.6176658000331,,,,,682.9845477000345,,,,,,,,,,,,,,,,,,down,3.174091499997303,None,space,0.44426399981603026,None,P137,001,2025-03-26_17h25.01.416,posner_endo_new1,2024.2.4,60.092723092190525,2025-03-26 17h25.09.412434 +0000,
cube_l.png,0.1,-0.31,valid,53,53,0,down,3.1411874000914395,None,space,0.2762272001709789,None,,,,,,,,,0,53,53,53,683.0005685000215,,,,,,,,,,,,,682.98472269997,683.0005685000215,683.0005685000215,683.0005685000215,686.148091699928,,,,686.1542426999658,686.1658751999494,686.1658751999494,686.214061500039,686.2142898999155,686.2306441999972,686.2306441999972,686.2306441999972,686.2971786998678,,,,,686.5147382998839,,,,,,,,,,,,,,,,,,down,3.1411874000914395,None,space,0.2762272001709789,None,P137,001,2025-03-26_17h25.01.416,posner_endo_new1,2024.2.4,60.092723092190525,2025-03-26 17h25.09.412434 +0000,
cube_r.png,0.1,10,catch,54,54,0,down,3.0671985999215394,None,None,,,,,,,,,,,0,54,54,54,686.5301848999225,,,,,,,,,,,,,686.5149081000127,686.5301848999225,686.5301848999225,686.5301848999225,689.6111399999354,,,,689.6171105999965,689.628582400037,689.628582400037,689.677310399944,689.6775432999711,689.6938765000086,689.6938765000086,689.6938765000086,689.7602287000045,691.7749642999843,692.7071446999907,692.7071446999907,692.7071446999907,692.6912330000196,,,,,,,,,,,,,,,,,,down,3.0671985999215394,None,None,,,P137,001,2025-03-26_17h25.01.416,posner_endo_new1,2024.2.4,60.092723092190525,2025-03-26 17h25.09.412434 +0000,
cube_l.png,0.1,0.31,invalid,55,55,0,down,3.5135588999837637,None,space,0.3686714000068605,None,,,,,,,,,0,55,55,55,692.7071446999907,,,,,,,,,,,,,692.6913955998607,692.7071446999907,692.7071446999907,692.7071446999907,696.2375388999935,,,,696.2439391000662,696.2553447999526,696.2553447999526,696.3038011000026,696.304031800013,696.3203306999058,696.3203306999058,696.3203306999058,696.3868527999148,,,,,696.7040567998774,,,,,,,,,,,,,,,,,,down,3.5135588999837637,None,space,0.3686714000068605,None,P137,001,2025-03-26_17h25.01.416,posner_endo_new1,2024.2.4,60.092723092190525,2025-03-26 17h25.09.412434 +0000,
cube_l.png,0.1,-0.31,valid,56,56,0,down,2.996988199884072,None,space,0.49220309988595545,None,,,,,,,,,0,56,56,56,696.7197893999983,,,,,,,,,,,,,696.7042324999347,696.7197893999983,696.7197893999983,696.7197893999983,699.7176025998779,,,,699.7236253998708,699.7351534999907,699.7351534999907,699.7835663999431,699.7837986000814,699.7998992998619,699.7998992998619,699.7998992998619,699.8831639999989,,,,,700.3003090999555,,,,,,,,,,,,,,,,,,down,2.996988199884072,None,space,0.49220309988595545,None,P137,001,2025-03-26_17h25.01.416,posner_endo_new1,2024.2.4,60.092723092190525,2025-03-26 17h25.09.412434 +0000,
cube_r.png,0.1,0.31,valid,57,57,0,down,3.4808208998292685,None,space,0.6103330999612808,None,,,,,,,,,0,57,57,57,700.3161885999143,,,,,,,,,,,,,700.3004812998697,700.3161885999143,700.3161885999143,700.3161885999143,703.8132547000423,,,,703.8193228999153,703.8309911000542,703.8309911000542,703.8792121999431,703.8794392999262,703.8959351000376,703.8959351000376,703.8959351000376,703.9623062999453,,,,,704.5122813000344,,,,,,,,,,,,,,,,,,down,3.4808208998292685,None,space,0.6103330999612808,None,P137,001,2025-03-26_17h25.01.416,posner_endo_new1,2024.2.4,60.092723092190525,2025-03-26 17h25.09.412434 +0000,
cube_r.png,0.1,-0.31,invalid,58,58,0,down,2.965000699972734,None,space,0.9202471999451518,None,,,,,,,,,0,58,58,58,704.5283641999122,,,,,,,,,,,,,704.5124540999532,704.5283641999122,704.5283641999122,704.5283641999122,707.5096009999979,,,,707.5160576999187,707.5279979000334,707.5279979000334,707.5754829000216,707.5757122000214,707.5920076000039,707.5920076000039,707.5920076000039,707.6753277999815,,,,,708.5250812000595,,,,,,,,,,,,,,,,,,down,2.965000699972734,None,space,0.9202471999451518,None,P137,001,2025-03-26_17h25.01.416,posner_endo_new1,2024.2.4,60.092723092190525,2025-03-26 17h25.09.412434 +0000,
cube_l.png,0.1,0.31,invalid,59,59,0,down,5.529074500082061,None,space,0.3943307001609355,None,,,,,,,,,0,59,59,59,708.5410203998908,,,,,,,,,,,,,708.5252529999707,708.5410203998908,708.5410203998908,708.5410203998908,714.0866348999552,,,,714.098181599984,714.1081099000294,714.1081099000294,714.1520952000283,714.1524467999116,714.168683399912,714.168683399912,714.168683399912,714.2518827000167,,,,,714.5696000999305,,,,,,,,,,,,,,,,,,down,5.529074500082061,None,space,0.3943307001609355,None,P137,001,2025-03-26_17h25.01.416,posner_endo_new1,2024.2.4,60.092723092190525,2025-03-26 17h25.09.412434 +0000,
