cue_img,cue_soa,target_y,trial,thisN,thisTrialN,thisRepN,key_control2.keys,key_control2.rt,key_control2.duration,key_resp.keys,key_resp.rt,key_resp.duration,practice.thisRepN,practice.thisTrialN,practice.thisN,practice.thisIndex,block1.thisRepN,block1.thisTrialN,block1.thisN,block1.thisIndex,block2.thisRepN,block2.thisTrialN,block2.thisN,block2.thisIndex,thisRow.t,notes,instructions.started,instructions_txt.started,key_control.started,instructions.stopped,key_control.keys,key_control.rt,key_control.duration,ready.started,ready_txt.started,ready_txt.stopped,ready.stopped,fix.started,fixation.started,key_control2.started,fixation_cross.started,fix.stopped,practice.key_control2.keys,practice.key_control2.rt,practice.key_control2.duration,cue.started,cube.started,fixation_cross_cue.started,cue.stopped,target.started,fixation_target.started,fixation_cross_target.started,key_resp.started,star.started,target.stopped,practice.key_resp.keys,practice.key_resp.rt,practice.key_resp.duration,star.stopped,fixation_target.stopped,fixation_cross_target.stopped,key_resp.stopped,block1.key_control2.keys,block1.key_control2.rt,block1.key_control2.duration,block1.key_resp.keys,block1.key_resp.rt,block1.key_resp.duration,break_2.started,text.started,key_control3.started,text.stopped,break_2.stopped,key_control3.keys,key_control3.rt,key_control3.duration,block2.key_control2.keys,block2.key_control2.rt,block2.key_control2.duration,block2.key_resp.keys,block2.key_resp.rt,block2.key_resp.duration,participant,session,date,expName,psychopyVersion,frameRate,expStart,
,,,,,,,,,,,,,,,,,,,,,,,,,,,0.0075786999996125815,0.03041140000004816,0.03041140000004816,19.306923899999674,up,19.265483299999687,None,,,,,,,,,,,,,,,,,,,,,,,,,,,,,,,,,,,,,,,,,,,,,,,,,,P138,001,2025-04-08_09h13.25.378,posner_endo_new1,2024.2.4,59.9778921489538,2025-04-08 09h13.33.963878 +0100,
,,,,,,,,,,,,,,,,,,,,,,,,,,,,,,,,,,19.307053300000007,19.31789360000039,22.330074800000148,22.29436480000004,,,,,,,,,,,,,,,,,,,,,,,,,,,,,,,,,,,,,,,,,,,,,,P138,001,2025-04-08_09h13.25.378,posner_endo_new1,2024.2.4,59.9778921489538,2025-04-08 09h13.33.963878 +0100,
cube_r.png,0.1,-0.31,invalid,0,0,0,up,21.67771990000074,None,space,0.46515780000027007,None,0,0,0,6,,,,,,,,,22.330074800000148,,,,,,,,,,,,,22.315103799999633,22.330074800000148,22.330074800000148,22.330074800000148,44.0221561999997,up,21.67771990000074,None,44.036170700000184,44.04623689999971,44.04623689999971,44.08804830000008,44.088287200000195,44.10426110000026,44.10426110000026,44.10426110000026,44.18757060000007,44.57171000000017,space,0.46515780000027007,None,,,,,,,,,,,,,,,,,,,,,,,,,P138,001,2025-04-08_09h13.25.378,posner_endo_new1,2024.2.4,59.9778921489538,2025-04-08 09h13.33.963878 +0100,
cube_l.png,0.1,0.31,invalid,1,1,0,up,12.611873799999557,None,space,0.45582070000000385,None,0,1,1,5,,,,,,,,,44.58739989999958,,,,,,,,,,,,,44.571883999999955,44.58739989999958,44.58739989999958,44.58739989999958,57.208407299999635,up,12.611873799999557,None,58.186315699999795,,,58.18649180000011,58.18706850000035,58.1997736000003,58.1997736000003,58.1997736000003,58.1997736000003,58.659462800000256,space,0.45582070000000385,None,,,,,,,,,,,,,,,,,,,,,,,,,P138,001,2025-04-08_09h13.25.378,posner_endo_new1,2024.2.4,59.9778921489538,2025-04-08 09h13.33.963878 +0100,
cube_l.png,0.1,-0.31,valid,2,2,0,up,12.582368599999427,None,space,0.4255890000004001,None,0,2,2,4,,,,,,,,,58.67362940000021,,,,,,,,,,,,,58.66003170000022,58.67362940000021,58.67362940000021,58.67362940000021,71.26296530000036,up,12.582368599999427,None,71.2914725999999,71.30167520000032,71.30167520000032,71.32461830000011,71.32494959999985,71.34319919999962,71.34319919999962,71.34319919999962,71.42647849999958,71.77747999999974,space,0.4255890000004001,None,,,,,,,,,,,,,,,,,,,,,,,,,P138,001,2025-04-08_09h13.25.378,posner_endo_new1,2024.2.4,59.9778921489538,2025-04-08 09h13.33.963878 +0100,
cube_l.png,0.1,-0.31,valid,3,3,0,up,5.239058599999225,None,space,0.4259055000002263,None,0,3,3,0,,,,,,,,,71.79273170000033,,,,,,,,,,,,,71.77773359999992,71.79273170000033,71.79273170000033,71.79273170000033,77.03855290000047,up,5.239058599999225,None,77.05033970000022,77.06029529999978,77.06029529999978,77.10418800000025,77.1045151999997,77.12070669999957,77.12070669999957,77.12070669999957,77.20386969999981,77.55474690000028,space,0.4259055000002263,None,,,,,,,,,,,,,,,,,,,,,,,,,P138,001,2025-04-08_09h13.25.378,posner_endo_new1,2024.2.4,59.9778921489538,2025-04-08 09h13.33.963878 +0100,
cube_l.png,0.1,0.31,invalid,4,4,0,up,4.957832199999757,None,space,0.40869740000016463,None,0,4,4,1,,,,,,,,,77.57014929999968,,,,,,,,,,,,,77.55499309999959,77.57014929999968,77.57014929999968,77.57014929999968,82.53302929999973,up,4.957832199999757,None,82.5446621000001,82.55466350000006,82.55466350000006,82.5985856999996,82.5989169000004,82.61507160000019,82.61507160000019,82.61507160000019,82.69833089999975,83.03245760000027,space,0.40869740000016463,None,,,,,,,,,,,,,,,,,,,,,,,,,P138,001,2025-04-08_09h13.25.378,posner_endo_new1,2024.2.4,59.9778921489538,2025-04-08 09h13.33.963878 +0100,
cube_r.png,0.1,0.31,valid,5,5,0,up,4.927780400000302,None,space,0.4068864000000758,None,0,5,5,10,,,,,,,,,83.0478436000003,,,,,,,,,,,,,83.0327083000002,83.0478436000003,83.0478436000003,83.0478436000003,87.97757300000012,up,4.927780400000302,None,87.988969,87.99896129999979,87.99896129999979,88.04304109999975,88.0433678999998,88.0594973999996,88.0594973999996,88.0594973999996,88.14262390000022,88.47676890000002,space,0.4068864000000758,None,,,,,,,,,,,,,,,,,,,,,,,,,P138,001,2025-04-08_09h13.25.378,posner_endo_new1,2024.2.4,59.9778921489538,2025-04-08 09h13.33.963878 +0100,
cube_r.png,0.1,-0.31,invalid,6,6,0,up,5.571191400000316,None,space,0.4604889000002004,None,0,6,6,9,,,,,,,,,88.49229869999999,,,,,,,,,,,,,88.47701340000003,88.49229869999999,88.49229869999999,88.49229869999999,94.07119409999996,up,5.571191400000316,None,94.08240870000009,94.09235540000009,94.09235540000009,94.1367868999996,94.13711599999988,94.1532814000002,94.1532814000002,94.1532814000002,94.23644030000014,94.62054520000038,space,0.4604889000002004,None,,,,,,,,,,,,,,,,,,,,,,,,,P138,001,2025-04-08_09h13.25.378,posner_endo_new1,2024.2.4,59.9778921489538,2025-04-08 09h13.33.963878 +0100,
cube_l.png,0.1,-0.31,valid,7,7,0,up,4.427252800000133,None,space,0.4150145000003249,None,0,7,7,8,,,,,,,,,94.63612860000012,,,,,,,,,,,,,94.62079110000013,94.63612860000012,94.63612860000012,94.63612860000012,99.06598500000018,up,4.427252800000133,None,99.07510999999977,99.0847633000003,99.0847633000003,99.13155809999989,99.13179839999975,99.14809179999975,99.14809179999975,99.14809179999975,99.23134910000044,99.56492619999972,space,0.4150145000003249,None,,,,,,,,,,,,,,,,,,,,,,,,,P138,001,2025-04-08_09h13.25.378,posner_endo_new1,2024.2.4,59.9778921489538,2025-04-08 09h13.33.963878 +0100,
cube_r.png,0.1,-0.31,invalid,8,8,0,up,3.7786093000004257,None,space,0.3756495999996332,None,0,8,8,2,,,,,,,,,99.58055739999963,,,,,,,,,,,,,99.56510119999984,99.58055739999963,99.58055739999963,99.58055739999963,103.36116120000042,up,3.7786093000004257,None,103.36836419999963,103.37990890000037,103.37990890000037,103.42710850000003,103.42734930000006,103.4438194000004,103.4438194000004,103.4438194000004,103.51038630000039,103.82749100000001,space,0.3756495999996332,None,,,,,,,,,,,,,,,,,,,,,,,,,P138,001,2025-04-08_09h13.25.378,posner_endo_new1,2024.2.4,59.9778921489538,2025-04-08 09h13.33.963878 +0100,
cube_r.png,0.1,0.31,valid,9,9,0,up,4.348673200000121,None,space,0.4677118999998129,None,0,9,9,7,,,,,,,,,103.84325520000039,,,,,,,,,,,,,103.82766879999963,103.84325520000039,103.84325520000039,103.84325520000039,108.20623429999978,up,4.348673200000121,None,108.21328970000013,108.22476929999993,108.22476929999993,108.2722319000004,108.27247379999972,108.28876620000028,108.28876620000028,108.28876620000028,108.37207670000043,108.77240780000011,space,0.4677118999998129,None,,,,,,,,,,,,,,,,,,,,,,,,,P138,001,2025-04-08_09h13.25.378,posner_endo_new1,2024.2.4,59.9778921489538,2025-04-08 09h13.33.963878 +0100,
cube_r.png,0.1,10,catch,10,10,0,up,3.8996250999998665,None,None,,,0,10,10,3,,,,,,,,,108.78818059999958,,,,,,,,,,,,,108.77258820000043,108.78818059999958,108.78818059999958,108.78818059999958,112.70168920000015,up,3.8996250999998665,None,112.70834370000011,112.71987319999971,112.71987319999971,112.76762839999992,112.76786830000037,112.78410390000045,112.78410390000045,112.78410390000045,112.86758139999984,115.78166539999984,None,,,114.88216209999973,115.79729789999965,115.79729789999965,115.79729789999965,,,,,,,,,,,,,,,,,,,,,P138,001,2025-04-08_09h13.25.378,posner_endo_new1,2024.2.4,59.9778921489538,2025-04-08 09h13.33.963878 +0100,
,,,,,,,,,,,,,,,,,,,,,,,,,,,,,,,,,,115.78178060000027,115.79729789999965,118.82604970000011,118.77952780000032,,,,,,,,,,,,,,,,,,,,,,,,,,,,,,,,,,,,,,,,,,,,,,P138,001,2025-04-08_09h13.25.378,posner_endo_new1,2024.2.4,59.9778921489538,2025-04-08 09h13.33.963878 +0100,
cube_l.png,0.1,10,catch,0,0,0,up,7.134141999999883,None,None,,,,,,,0,0,0,0,,,,,118.82604970000011,,,,,,,,,,,,,118.81697890000032,118.82604970000011,118.82604970000011,118.82604970000011,125.97339910000028,,,,125.99876370000038,126.01110700000027,126.01110700000027,126.03718610000033,126.03760799999964,126.05368100000032,126.05368100000032,126.05368100000032,126.13677999999982,129.05130439999994,,,,128.15137760000016,129.06710790000034,129.06710790000034,129.06710790000034,up,7.134141999999883,None,None,,,,,,,,,,,,,,,,,P138,001,2025-04-08_09h13.25.378,posner_endo_new1,2024.2.4,59.9778921489538,2025-04-08 09h13.33.963878 +0100,
cube_l.png,0.1,10,catch,1,1,0,up,12.260504599999877,None,None,,,,,,,0,1,1,1,,,,,129.06710790000034,,,,,,,,,,,,,129.0516230000003,129.06710790000034,129.06710790000034,129.06710790000034,141.33926200000042,,,,141.35338820000015,141.36349119999977,141.36349119999977,141.4046642000003,141.40507640000033,141.42111589999968,141.42111589999968,141.42111589999968,141.50436790000003,144.4188879000003,,,,143.51895710000008,144.43470510000043,144.43470510000043,144.43470510000043,up,12.260504599999877,None,None,,,,,,,,,,,,,,,,,P138,001,2025-04-08_09h13.25.378,posner_endo_new1,2024.2.4,59.9778921489538,2025-04-08 09h13.33.963878 +0100,
cube_l.png,0.1,0.31,invalid,2,2,0,up,0.6683534999992844,None,space,0.5720319000001837,None,,,,,0,2,2,2,,,,,144.43470510000043,,,,,,,,,,,,,144.41920670000036,144.43470510000043,144.43470510000043,144.43470510000043,145.11873190000006,,,,145.1324267,145.1425790000003,145.1425790000003,145.18412790000002,145.18454310000016,145.20059719999972,145.20059719999972,145.20059719999972,145.28382650000003,145.7848144999998,,,,,,,,up,0.6683534999992844,None,space,0.5720319000001837,None,,,,,,,,,,,,,,,P138,001,2025-04-08_09h13.25.378,posner_endo_new1,2024.2.4,59.9778921489538,2025-04-08 09h13.33.963878 +0100,
cube_l.png,0.1,0.31,invalid,3,3,0,up,3.774967600000309,None,space,0.4100559999997131,None,,,,,0,3,3,3,,,,,145.79996260000007,,,,,,,,,,,,,145.7851485000001,145.79996260000007,145.79996260000007,145.79996260000007,149.5809902000001,,,,149.59441030000016,149.6046606,149.6046606,149.6462094999997,149.64662279999993,149.66267169999992,149.66267169999992,149.66267169999992,149.7459117999997,150.0803896999996,,,,,,,,up,3.774967600000309,None,space,0.4100559999997131,None,,,,,,,,,,,,,,,P138,001,2025-04-08_09h13.25.378,posner_endo_new1,2024.2.4,59.9778921489538,2025-04-08 09h13.33.963878 +0100,
cube_l.png,0.1,-0.31,valid,4,4,0,up,3.0797538999995595,None,space,0.4448214000003645,None,,,,,0,4,4,4,,,,,150.0955640000002,,,,,,,,,,,,,150.0807267,150.0955640000002,150.0955640000002,150.0955640000002,153.17910380000012,,,,153.19955459999983,153.21022770000036,153.21022770000036,153.2427071000002,153.24317940000037,153.25910680000015,153.25910680000015,153.25910680000015,153.34233700000004,153.71044189999975,,,,,,,,up,3.0797538999995595,None,space,0.4448214000003645,None,,,,,,,,,,,,,,,P138,001,2025-04-08_09h13.25.378,posner_endo_new1,2024.2.4,59.9778921489538,2025-04-08 09h13.33.963878 +0100,
cube_r.png,0.1,-0.31,invalid,5,5,0,up,6.746553499999209,None,space,0.5242416999999477,None,,,,,0,5,5,5,,,,,153.7252699999999,,,,,,,,,,,,,153.71082800000022,153.7252699999999,153.7252699999999,153.7252699999999,160.48658129999967,,,,160.5021445000002,160.51266140000007,160.51266140000007,160.55201109999962,160.5522891999999,160.56866600000012,160.56866600000012,160.56866600000012,160.65175830000044,161.10220260000006,,,,,,,,up,6.746553499999209,None,space,0.5242416999999477,None,,,,,,,,,,,,,,,P138,001,2025-04-08_09h13.25.378,posner_endo_new1,2024.2.4,59.9778921489538,2025-04-08 09h13.33.963878 +0100,
cube_r.png,0.1,0.31,valid,6,6,0,up,7.3451116999995065,None,space,0.4458452999997462,None,,,,,0,6,6,6,,,,,161.11788100000012,,,,,,,,,,,,,161.10241750000023,161.11788100000012,161.11788100000012,161.11788100000012,168.47820630000024,,,,168.48660879999989,168.4967674999998,168.4967674999998,168.5438535000003,168.5441383999996,168.56020549999994,168.56020549999994,168.56020549999994,168.64366710000013,169.0110821999997,,,,,,,,up,7.3451116999995065,None,space,0.4458452999997462,None,,,,,,,,,,,,,,,P138,001,2025-04-08_09h13.25.378,posner_endo_new1,2024.2.4,59.9778921489538,2025-04-08 09h13.33.963878 +0100,
cube_r.png,0.1,-0.31,invalid,7,7,0,up,16.581207000000177,None,space,0.4338999000001422,None,,,,,0,7,7,7,,,,,169.0264686999999,,,,,,,,,,,,,169.01130180000018,169.0264686999999,169.0264686999999,169.0264686999999,185.61044670000047,,,,185.6190555000003,185.6291414999996,185.6291414999996,185.6763401999997,185.6766246999996,185.69282360000034,185.69282360000034,185.69282360000034,185.77613519999977,186.1433520999999,,,,,,,,up,16.581207000000177,None,space,0.4338999000001422,None,,,,,,,,,,,,,,,P138,001,2025-04-08_09h13.25.378,posner_endo_new1,2024.2.4,59.9778921489538,2025-04-08 09h13.33.963878 +0100,
cube_l.png,0.1,-0.31,valid,8,8,0,up,3.67253460000029,None,space,0.4787931999999273,None,,,,,0,8,8,8,,,,,186.15894759999992,,,,,,,,,,,,,186.14356620000035,186.15894759999992,186.15894759999992,186.15894759999992,189.83959890000006,,,,189.84822470000017,189.85838200000035,189.85838200000035,189.90528749999976,189.90557059999992,189.92172540000047,189.92172540000047,189.92172540000047,190.00500809999994,190.40541109999958,,,,,,,,up,3.67253460000029,None,space,0.4787931999999273,None,,,,,,,,,,,,,,,P138,001,2025-04-08_09h13.25.378,posner_endo_new1,2024.2.4,59.9778921489538,2025-04-08 09h13.33.963878 +0100,
cube_r.png,0.1,-0.31,invalid,9,9,0,up,10.481537200000275,None,space,0.6848085000001447,None,,,,,0,9,9,9,,,,,190.42138299999988,,,,,,,,,,,,,190.40562909999971,190.42138299999988,190.42138299999988,190.42138299999988,200.91143009999996,,,,200.92040890000044,200.93051970000033,200.93051970000033,200.97719159999997,200.9774722000002,200.993743,200.993743,200.993743,201.07695729999978,201.69393000000036,,,,,,,,up,10.481537200000275,None,space,0.6848085000001447,None,,,,,,,,,,,,,,,P138,001,2025-04-08_09h13.25.378,posner_endo_new1,2024.2.4,59.9778921489538,2025-04-08 09h13.33.963878 +0100,
cube_l.png,0.1,0.31,invalid,10,10,0,up,3.1777586999996856,None,space,0.5244904000001043,None,,,,,0,10,10,10,,,,,201.70968790000006,,,,,,,,,,,,,201.6941453999998,201.70968790000006,201.70968790000006,201.70968790000006,204.89071299999978,,,,204.89910090000012,204.9094785999996,204.9094785999996,204.95652989999962,204.95681289999993,204.97303960000045,204.97303960000045,204.97303960000045,205.05627379999987,205.50670809999974,,,,,,,,up,3.1777586999996856,None,space,0.5244904000001043,None,,,,,,,,,,,,,,,P138,001,2025-04-08_09h13.25.378,posner_endo_new1,2024.2.4,59.9778921489538,2025-04-08 09h13.33.963878 +0100,
cube_r.png,0.1,-0.31,invalid,11,11,0,up,2.5086592999996356,None,space,0.4673305000005712,None,,,,,0,11,11,11,,,,,205.52240809999967,,,,,,,,,,,,,205.50693500000034,205.52240809999967,205.52240809999967,205.52240809999967,208.0375979999999,,,,208.0459896000002,208.05626719999964,208.05626719999964,208.10327359999974,208.1035549999997,208.11980889999995,208.11980889999995,208.11980889999995,208.203031,208.60365060000004,,,,,,,,up,2.5086592999996356,None,space,0.4673305000005712,None,,,,,,,,,,,,,,,P138,001,2025-04-08_09h13.25.378,posner_endo_new1,2024.2.4,59.9778921489538,2025-04-08 09h13.33.963878 +0100,
cube_r.png,0.1,0.31,valid,12,12,0,up,3.6522383000001355,None,space,0.4069489999992584,None,,,,,0,12,12,12,,,,,208.61921950000033,,,,,,,,,,,,,208.60386889999972,208.61921950000033,208.61921950000033,208.61921950000033,212.28317960000004,,,,212.29162019999967,212.30185259999962,212.30185259999962,212.3485154,212.3487554000003,212.3655294,212.3655294,212.3655294,212.44836339999983,212.78249380000034,,,,,,,,up,3.6522383000001355,None,space,0.4069489999992584,None,,,,,,,,,,,,,,,P138,001,2025-04-08_09h13.25.378,posner_endo_new1,2024.2.4,59.9778921489538,2025-04-08 09h13.33.963878 +0100,
cube_l.png,0.1,10,catch,13,13,0,up,12.737884099999974,None,None,,,,,,,0,13,13,13,,,,,212.79843359999995,,,,,,,,,,,,,212.78267640000013,212.79843359999995,212.79843359999995,212.79843359999995,225.55260819999967,,,,225.5588988999998,225.57012860000032,225.57012860000032,225.6185588999997,225.6188003999996,225.63524380000035,225.63524380000035,225.63524380000035,225.7017996000004,228.6323596000002,,,,227.71639419999974,228.64873960000023,228.64873960000023,228.64873960000023,up,12.737884099999974,None,None,,,,,,,,,,,,,,,,,P138,001,2025-04-08_09h13.25.378,posner_endo_new1,2024.2.4,59.9778921489538,2025-04-08 09h13.33.963878 +0100,
cube_r.png,0.1,-0.31,invalid,14,14,0,up,0.3187958999997136,None,space,0.42915549999997893,None,,,,,0,14,14,14,,,,,228.64873960000023,,,,,,,,,,,,,228.63253340000028,228.64873960000023,228.64873960000023,228.64873960000023,228.9825963000003,,,,228.98904409999977,229.00057110000034,229.00057110000034,229.04810100000032,229.0483420999999,229.06505089999973,229.06505089999973,229.06505089999973,229.13161479999962,229.49880920000032,,,,,,,,up,0.3187958999997136,None,space,0.42915549999997893,None,,,,,,,,,,,,,,,P138,001,2025-04-08_09h13.25.378,posner_endo_new1,2024.2.4,59.9778921489538,2025-04-08 09h13.33.963878 +0100,
cube_l.png,0.1,-0.31,valid,15,15,0,up,11.908989700000348,None,space,0.4438709000005474,None,,,,,0,15,15,15,,,,,229.5146775000003,,,,,,,,,,,,,229.49898930000018,229.5146775000003,229.5146775000003,229.5146775000003,241.43643200000042,,,,241.4427179000004,241.4541089000004,241.4541089000004,241.5023715999996,241.5026200000002,241.51897530000042,241.51897530000042,241.51897530000042,241.6021436000001,241.96890230000008,,,,,,,,up,11.908989700000348,None,space,0.4438709000005474,None,,,,,,,,,,,,,,,P138,001,2025-04-08_09h13.25.378,posner_endo_new1,2024.2.4,59.9778921489538,2025-04-08 09h13.33.963878 +0100,
cube_r.png,0.1,10,catch,16,16,0,up,2.5098668000000544,None,None,,,,,,,0,16,16,16,,,,,241.9851961000004,,,,,,,,,,,,,241.96907929999998,241.9851961000004,241.9851961000004,241.9851961000004,244.50001470000007,,,,244.50626569999986,244.5179151000002,244.5179151000002,244.5658758999998,244.56611919999978,244.58237910000025,244.58237910000025,244.58237910000025,244.66537810000045,247.57981459999974,,,,246.67983230000027,247.59595830000035,247.59595830000035,247.59595830000035,up,2.5098668000000544,None,None,,,,,,,,,,,,,,,,,P138,001,2025-04-08_09h13.25.378,posner_endo_new1,2024.2.4,59.9778921489538,2025-04-08 09h13.33.963878 +0100,
cube_r.png,0.1,10,catch,17,17,0,up,3.203457300000082,None,None,,,,,,,0,17,17,17,,,,,247.59595830000035,,,,,,,,,,,,,247.57998570000018,247.59595830000035,247.59595830000035,247.59595830000035,250.81018070000027,,,,250.8167523000002,250.8284018000004,250.8284018000004,250.8760196000003,250.87626120000004,250.89272259999962,250.89272259999962,250.89272259999962,250.9593716999998,253.89012860000003,,,,252.97377400000005,253.9060000999998,253.9060000999998,253.9060000999998,up,3.203457300000082,None,None,,,,,,,,,,,,,,,,,P138,001,2025-04-08_09h13.25.378,posner_endo_new1,2024.2.4,59.9778921489538,2025-04-08 09h13.33.963878 +0100,
cube_l.png,0.1,0.31,invalid,18,18,0,up,1.6375991999993857,None,space,0.4424011999999493,None,,,,,0,18,18,18,,,,,253.9060000999998,,,,,,,,,,,,,253.89030600000024,253.9060000999998,253.9060000999998,253.9060000999998,255.55536980000034,,,,255.56170680000014,255.57314719999977,255.57314719999977,255.62086980000004,255.62111639999966,255.63771970000016,255.63771970000016,255.63771970000016,255.70437260000017,256.08786039999995,,,,,,,,up,1.6375991999993857,None,space,0.4424011999999493,None,,,,,,,,,,,,,,,P138,001,2025-04-08_09h13.25.378,posner_endo_new1,2024.2.4,59.9778921489538,2025-04-08 09h13.33.963878 +0100,
cube_l.png,0.1,10,catch,19,19,0,up,3.2713873000002422,None,None,,,,,,,0,19,19,19,,,,,256.1039993000004,,,,,,,,,,,,,256.08803700000044,256.1039993000004,256.1039993000004,256.1039993000004,259.3847513999999,,,,259.39100899999994,259.40249680000034,259.40249680000034,259.4505589999999,259.4508063000003,259.4672563000004,259.4672563000004,259.4672563000004,259.5503553999997,262.46460260000003,,,,261.56504940000013,262.4809100000002,262.4809100000002,262.4809100000002,up,3.2713873000002422,None,None,,,,,,,,,,,,,,,,,P138,001,2025-04-08_09h13.25.378,posner_endo_new1,2024.2.4,59.9778921489538,2025-04-08 09h13.33.963878 +0100,
cube_l.png,0.1,0.31,invalid,20,20,0,up,11.04585010000028,None,space,0.39346650000061345,None,,,,,0,20,20,20,,,,,262.4809100000002,,,,,,,,,,,,,262.4647785999996,262.4809100000002,262.4809100000002,262.4809100000002,273.53711310000017,,,,273.54723190000004,273.55725470000016,273.55725470000016,273.6028349999997,273.6031584000002,273.61937860000035,273.61937860000035,273.61937860000035,273.7025695000002,274.02007440000034,,,,,,,,up,11.04585010000028,None,space,0.39346650000061345,None,,,,,,,,,,,,,,,P138,001,2025-04-08_09h13.25.378,posner_endo_new1,2024.2.4,59.9778921489538,2025-04-08 09h13.33.963878 +0100,
cube_l.png,0.1,-0.31,valid,21,21,0,up,12.795519699999204,None,space,0.45837940000001254,None,,,,,0,21,21,21,,,,,274.0355413999996,,,,,,,,,,,,,274.02033109999957,274.0355413999996,274.0355413999996,274.0355413999996,286.8401463,,,,286.8502787999996,286.8610200000003,286.8610200000003,286.90593590000026,286.90626729999985,286.9223570000004,286.9223570000004,286.9223570000004,287.0056050000003,287.38985260000027,,,,,,,,up,12.795519699999204,None,space,0.45837940000001254,None,,,,,,,,,,,,,,,P138,001,2025-04-08_09h13.25.378,posner_endo_new1,2024.2.4,59.9778921489538,2025-04-08 09h13.33.963878 +0100,
cube_r.png,0.1,0.31,valid,22,22,0,up,4.7060347000006,None,space,0.39798530000007304,None,,,,,0,22,22,22,,,,,287.4052448000002,,,,,,,,,,,,,287.39011240000036,287.4052448000002,287.4052448000002,287.4052448000002,292.11792400000013,,,,292.12582759999987,292.13674770000034,292.13674770000034,292.1838078999999,292.1841360999997,292.2003168000001,292.2003168000001,292.2003168000001,292.2835315000002,292.6012655000004,,,,,,,,up,4.7060347000006,None,space,0.39798530000007304,None,,,,,,,,,,,,,,,P138,001,2025-04-08_09h13.25.378,posner_endo_new1,2024.2.4,59.9778921489538,2025-04-08 09h13.33.963878 +0100,
cube_r.png,0.1,-0.31,invalid,23,23,0,up,1.6711932999996861,None,space,0.4231175999993866,None,,,,,0,23,23,23,,,,,292.6164349999999,,,,,,,,,,,,,292.60152279999966,292.6164349999999,292.6164349999999,292.6164349999999,294.2992617,,,,294.30927320000046,294.31926209999983,294.31926209999983,294.36486109999987,294.36518590000014,294.3811979000002,294.3811979000002,294.3811979000002,294.46464709999964,294.8155436999996,,,,,,,,up,1.6711932999996861,None,space,0.4231175999993866,None,,,,,,,,,,,,,,,P138,001,2025-04-08_09h13.25.378,posner_endo_new1,2024.2.4,59.9778921489538,2025-04-08 09h13.33.963878 +0100,
cube_r.png,0.1,0.31,valid,24,24,0,up,1.5357707000002847,None,space,0.37999610000042594,None,,,,,0,24,24,24,,,,,294.8309556000004,,,,,,,,,,,,,294.8157990999998,294.8309556000004,294.8309556000004,294.8309556000004,296.3804289999998,,,,296.39045590000023,296.40056639999966,296.40056639999966,296.44609409999975,296.44641860000047,296.46259499999996,296.46259499999996,296.46259499999996,296.54571419999957,296.8467383999996,,,,,,,,up,1.5357707000002847,None,space,0.37999610000042594,None,,,,,,,,,,,,,,,P138,001,2025-04-08_09h13.25.378,posner_endo_new1,2024.2.4,59.9778921489538,2025-04-08 09h13.33.963878 +0100,
cube_r.png,0.1,-0.31,invalid,25,25,0,up,3.753014799999619,None,space,0.401844600000004,None,,,,,0,25,25,25,,,,,296.8622427,,,,,,,,,,,,,296.84699379999984,296.8622427,296.8622427,296.8622427,300.6261486000003,,,,300.6366158999999,300.6466290999997,300.6466290999997,300.6917076999998,300.6920356999999,300.7082326,300.7082326,300.7082326,300.79145119999976,301.12554199999977,,,,,,,,up,3.753014799999619,None,space,0.401844600000004,None,,,,,,,,,,,,,,,P138,001,2025-04-08_09h13.25.378,posner_endo_new1,2024.2.4,59.9778921489538,2025-04-08 09h13.33.963878 +0100,
cube_l.png,0.1,-0.31,valid,26,26,0,up,1.7064571000000797,None,space,0.3990881999998237,None,,,,,0,26,26,26,,,,,301.14106600000014,,,,,,,,,,,,,301.1258009000003,301.14106600000014,301.14106600000014,301.14106600000014,302.85715340000024,,,,302.8654065999999,302.87557709999965,302.87557709999965,302.9228358999999,302.9230814000002,302.9394051999998,302.9394051999998,302.9394051999998,303.02259779999986,303.3398605000002,,,,,,,,up,1.7064571000000797,None,space,0.3990881999998237,None,,,,,,,,,,,,,,,P138,001,2025-04-08_09h13.25.378,posner_endo_new1,2024.2.4,59.9778921489538,2025-04-08 09h13.33.963878 +0100,
cube_r.png,0.1,0.31,valid,27,27,0,up,1.9234636999999566,None,space,0.36919750000015483,None,,,,,0,27,27,27,,,,,303.3556414000004,,,,,,,,,,,,,303.34003870000015,303.3556414000004,303.3556414000004,303.3556414000004,305.28770580000037,,,,305.29434519999995,305.30585580000024,305.30585580000024,305.3536303000001,305.3538736999999,305.37013540000044,305.37013540000044,305.37013540000044,305.4535028999999,305.7538777,,,,,,,,up,1.9234636999999566,None,space,0.36919750000015483,None,,,,,,,,,,,,,,,P138,001,2025-04-08_09h13.25.378,posner_endo_new1,2024.2.4,59.9778921489538,2025-04-08 09h13.33.963878 +0100,
cube_r.png,0.1,10,catch,28,28,0,up,2.24588920000042,None,None,,,,,,,0,28,28,28,,,,,305.7696704,,,,,,,,,,,,,305.7540620999998,305.7696704,305.7696704,305.7696704,308.01830080000036,,,,308.0249224999998,308.0365386000003,308.0365386000003,308.0841158000003,308.0843610000002,308.1006762999996,308.1006762999996,308.1006762999996,308.1672091999999,311.09815770000023,,,,310.1819865999996,311.11424259999967,311.11424259999967,311.11424259999967,up,2.24588920000042,None,None,,,,,,,,,,,,,,,,,P138,001,2025-04-08_09h13.25.378,posner_endo_new1,2024.2.4,59.9778921489538,2025-04-08 09h13.33.963878 +0100,
cube_r.png,0.1,0.31,valid,29,29,0,up,2.164889600000606,None,space,0.3737480999998297,None,,,,,0,29,29,29,,,,,311.11424259999967,,,,,,,,,,,,,311.0983262,311.11424259999967,311.11424259999967,311.11424259999967,313.2959073000002,,,,313.3025911000004,313.3137608999996,313.3137608999996,313.3621303,313.36236850000023,313.3783242999998,313.3783242999998,313.3783242999998,313.4450753000001,313.76249069999994,,,,,,,,up,2.164889600000606,None,space,0.3737480999998297,None,,,,,,,,,,,,,,,P138,001,2025-04-08_09h13.25.378,posner_endo_new1,2024.2.4,59.9778921489538,2025-04-08 09h13.33.963878 +0100,
cube_r.png,0.1,0.31,valid,30,30,0,up,1.9810890999997355,None,space,0.38006359999963024,None,,,,,0,30,30,30,,,,,313.7784152000004,,,,,,,,,,,,,313.76266959999975,313.7784152000004,313.7784152000004,313.7784152000004,315.76050899999973,,,,315.7671698000004,315.7787913000002,315.7787913000002,315.8262142000003,315.8264577,315.8427972999998,315.8427972999998,315.8427972999998,315.9260293999996,316.22657009999966,,,,,,,,up,1.9810890999997355,None,space,0.38006359999963024,None,,,,,,,,,,,,,,,P138,001,2025-04-08_09h13.25.378,posner_endo_new1,2024.2.4,59.9778921489538,2025-04-08 09h13.33.963878 +0100,
cube_l.png,0.1,-0.31,valid,31,31,0,up,1.4291321000000607,None,space,0.37798189999921306,None,,,,,0,31,31,31,,,,,316.24217020000015,,,,,,,,,,,,,316.2267485000002,316.24217020000015,316.24217020000015,316.24217020000015,317.6751578000003,,,,317.68177579999974,317.69326590000037,317.69326590000037,317.74081970000043,317.7410622999996,317.75748870000007,317.75748870000007,317.75748870000007,317.8407000999996,318.14116600000034,,,,,,,,up,1.4291321000000607,None,space,0.37798189999921306,None,,,,,,,,,,,,,,,P138,001,2025-04-08_09h13.25.378,posner_endo_new1,2024.2.4,59.9778921489538,2025-04-08 09h13.33.963878 +0100,
cube_r.png,0.1,0.31,valid,32,32,0,up,1.8901923999992505,None,space,0.3831860999998753,None,,,,,0,32,32,32,,,,,318.15705629999957,,,,,,,,,,,,,318.1413454000003,318.15705629999957,318.15705629999957,318.15705629999957,320.05615149999994,,,,320.0627956999997,320.0743266999998,320.0743266999998,320.12179079999987,320.1220334999998,320.1384773,320.1384773,320.1384773,320.22174950000044,320.52246339999965,,,,,,,,up,1.8901923999992505,None,space,0.3831860999998753,None,,,,,,,,,,,,,,,P138,001,2025-04-08_09h13.25.378,posner_endo_new1,2024.2.4,59.9778921489538,2025-04-08 09h13.33.963878 +0100,
cube_r.png,0.1,-0.31,invalid,33,33,0,up,18.237001999999848,None,space,0.4768353000008574,None,,,,,0,33,33,33,,,,,320.5377301999997,,,,,,,,,,,,,320.5226448000003,320.5377301999997,320.5377301999997,320.5377301999997,338.78664860000026,,,,338.7930901,338.80460649999986,338.80460649999986,338.85264000000006,338.8528825000003,338.8693397999996,338.8693397999996,338.8693397999996,338.9357431999997,339.3526978,,,,,,,,up,18.237001999999848,None,space,0.4768353000008574,None,,,,,,,,,,,,,,,P138,001,2025-04-08_09h13.25.378,posner_endo_new1,2024.2.4,59.9778921489538,2025-04-08 09h13.33.963878 +0100,
cube_r.png,0.1,10,catch,34,34,0,up,6.814574300000459,None,None,,,,,,,0,34,34,34,,,,,339.36876050000046,,,,,,,,,,,,,339.3528741,339.36876050000046,339.36876050000046,339.36876050000046,346.1955125000004,,,,346.20174959999986,346.2131919000003,346.2131919000003,346.26171350000004,346.2619537999999,346.27823460000036,346.27823460000036,346.27823460000036,346.34489360000043,349.2770257000002,,,,348.3597196999999,349.2920882999997,349.2920882999997,349.2920882999997,up,6.814574300000459,None,None,,,,,,,,,,,,,,,,,P138,001,2025-04-08_09h13.25.378,posner_endo_new1,2024.2.4,59.9778921489538,2025-04-08 09h13.33.963878 +0100,
cube_r.png,0.1,0.31,valid,35,35,0,up,2.1155139000002237,None,space,0.48011919999953534,None,,,,,0,35,35,35,,,,,349.2920882999997,,,,,,,,,,,,,349.27759849999984,349.2920882999997,349.2920882999997,349.2920882999997,351.42542909999975,,,,351.44892619999973,351.46057910000036,351.46057910000036,351.48943210000016,351.4898052999997,351.50588210000024,351.50588210000024,351.50588210000024,351.58944429999974,351.99041529999977,,,,,,,,up,2.1155139000002237,None,space,0.48011919999953534,None,,,,,,,,,,,,,,,P138,001,2025-04-08_09h13.25.378,posner_endo_new1,2024.2.4,59.9778921489538,2025-04-08 09h13.33.963878 +0100,
cube_r.png,0.1,-0.31,invalid,36,36,0,up,12.833348699999988,None,space,0.4041770000003453,None,,,,,0,36,36,36,,,,,352.00552640000024,,,,,,,,,,,,,351.9907198000001,352.00552640000024,352.00552640000024,352.00552640000024,364.8439588000001,,,,364.8557407999997,364.86603230000037,364.86603230000037,364.9093063999999,364.9095851000002,364.9257742,364.9257742,364.9257742,365.00906360000045,365.3428475999999,,,,,,,,up,12.833348699999988,None,space,0.4041770000003453,None,,,,,,,,,,,,,,,P138,001,2025-04-08_09h13.25.378,posner_endo_new1,2024.2.4,59.9778921489538,2025-04-08 09h13.33.963878 +0100,
cube_l.png,0.1,0.31,invalid,37,37,0,up,3.200421799999276,None,space,0.4803310000006604,None,,,,,0,37,37,37,,,,,365.35879600000044,,,,,,,,,,,,,365.34305760000007,365.35879600000044,365.35879600000044,365.35879600000044,368.57293690000006,,,,368.58058919999985,368.59161419999964,368.59161419999964,368.6387133999997,368.6389786,368.65527230000043,368.65527230000043,368.65527230000043,368.73857599999974,369.13899709999987,,,,,,,,up,3.200421799999276,None,space,0.4803310000006604,None,,,,,,,,,,,,,,,P138,001,2025-04-08_09h13.25.378,posner_endo_new1,2024.2.4,59.9778921489538,2025-04-08 09h13.33.963878 +0100,
cube_l.png,0.1,0.31,invalid,38,38,0,up,3.6359510000002047,None,space,0.5870058999998946,None,,,,,0,38,38,38,,,,,369.1548444,,,,,,,,,,,,,369.1392022,369.1548444,369.1548444,369.1548444,372.8018801999997,,,,372.8095432,372.8204974,372.8204974,372.8677939999998,372.86806350000006,372.88426739999977,372.88426739999977,372.88426739999977,372.96752600000036,373.48459100000036,,,,,,,,up,3.6359510000002047,None,space,0.5870058999998946,None,,,,,,,,,,,,,,,P138,001,2025-04-08_09h13.25.378,posner_endo_new1,2024.2.4,59.9778921489538,2025-04-08 09h13.33.963878 +0100,
cube_r.png,0.1,0.31,valid,39,39,0,up,3.6752235000003566,None,space,0.4861698000004253,None,,,,,0,39,39,39,,,,,373.5002735999997,,,,,,,,,,,,,373.4847947999997,373.5002735999997,373.5002735999997,373.5002735999997,377.1808363,,,,377.18842589999986,377.1995098999996,377.1995098999996,377.24662960000023,377.24689620000026,377.2631653999997,377.2631653999997,377.2631653999997,377.34643049999977,377.76354809999975,,,,,,,,up,3.6752235000003566,None,space,0.4861698000004253,None,,,,,,,,,,,,,,,P138,001,2025-04-08_09h13.25.378,posner_endo_new1,2024.2.4,59.9778921489538,2025-04-08 09h13.33.963878 +0100,
cube_l.png,0.1,0.31,invalid,40,40,0,up,3.452035100000103,None,space,0.4517716999998811,None,,,,,0,40,40,40,,,,,377.77936489999956,,,,,,,,,,,,,377.7637520999997,377.77936489999956,377.77936489999956,377.77936489999956,381.2432888000003,,,,381.25084510000033,381.2620360000001,381.2620360000001,381.3092779999997,381.30952179999986,381.32529200000045,381.32529200000045,381.32529200000045,381.4089912999998,381.79284970000026,,,,,,,,up,3.452035100000103,None,space,0.4517716999998811,None,,,,,,,,,,,,,,,P138,001,2025-04-08_09h13.25.378,posner_endo_new1,2024.2.4,59.9778921489538,2025-04-08 09h13.33.963878 +0100,
cube_l.png,0.1,10,catch,41,41,0,up,4.711108999999851,None,None,,,,,,,0,41,41,41,,,,,381.80851489999986,,,,,,,,,,,,,381.7930287999998,381.80851489999986,381.80851489999986,381.80851489999986,386.5221938000004,,,,386.53963699999986,386.5506773999996,386.5506773999996,386.5870501999998,386.5875890999996,386.60346649999974,386.60346649999974,386.60346649999974,386.68675989999974,389.6014729999997,,,,388.70131539999966,389.61705150000034,389.61705150000034,389.61705150000034,up,4.711108999999851,None,None,,,,,,,,,,,,,,,,,P138,001,2025-04-08_09h13.25.378,posner_endo_new1,2024.2.4,59.9778921489538,2025-04-08 09h13.33.963878 +0100,
cube_l.png,0.1,-0.31,valid,42,42,0,up,3.654381199999989,None,space,0.467925799999648,None,,,,,0,42,42,42,,,,,389.61705150000034,,,,,,,,,,,,,389.60188240000025,389.61705150000034,389.61705150000034,389.61705150000034,393.28180650000013,,,,393.2995989000001,393.31071280000015,393.31071280000015,393.34681610000007,393.3471184,393.3633980000004,393.3633980000004,393.3633980000004,393.4465774,393.84721700000046,,,,,,,,up,3.654381199999989,None,space,0.467925799999648,None,,,,,,,,,,,,,,,P138,001,2025-04-08_09h13.25.378,posner_endo_new1,2024.2.4,59.9778921489538,2025-04-08 09h13.33.963878 +0100,
cube_l.png,0.1,10,catch,43,43,0,up,10.504456699999537,None,None,,,,,,,0,43,43,43,,,,,393.86297509999986,,,,,,,,,,,,,393.8474616000003,393.86297509999986,393.86297509999986,393.86297509999986,404.3699833999999,,,,404.37923649999993,404.38937989999977,404.38937989999977,404.4354449000002,404.43574720000015,404.45199779999984,404.45199779999984,404.45199779999984,404.53519400000005,407.4494813000001,,,,406.54970740000044,407.46555199999966,407.46555199999966,407.46555199999966,up,10.504456699999537,None,None,,,,,,,,,,,,,,,,,P138,001,2025-04-08_09h13.25.378,posner_endo_new1,2024.2.4,59.9778921489538,2025-04-08 09h13.33.963878 +0100,
cube_l.png,0.1,0.31,invalid,44,44,0,up,2.462118299999929,None,space,0.418731800000387,None,,,,,0,44,44,44,,,,,407.46555199999966,,,,,,,,,,,,,407.4497153000002,407.46555199999966,407.46555199999966,407.46555199999966,409.9307686000002,,,,409.94002120000005,409.9501118999997,409.9501118999997,409.99644629999966,409.99675819999993,410.0128856000001,410.0128856000001,410.0128856000001,410.09628859999975,410.44677390000015,,,,,,,,up,2.462118299999929,None,space,0.418731800000387,None,,,,,,,,,,,,,,,P138,001,2025-04-08_09h13.25.378,posner_endo_new1,2024.2.4,59.9778921489538,2025-04-08 09h13.33.963878 +0100,
cube_l.png,0.1,0.31,invalid,45,45,0,up,3.864664800000355,None,space,0.40823850000015227,None,,,,,0,45,45,45,,,,,410.46243570000024,,,,,,,,,,,,,410.44701480000003,410.46243570000024,410.46243570000024,410.46243570000024,414.3428683000002,,,,414.35191980000036,414.36213339999995,414.36213339999995,414.4085646000003,414.4088651000002,414.42505640000036,414.42505640000036,414.42505640000036,414.5082517000001,414.84264239999993,,,,,,,,up,3.864664800000355,None,space,0.40823850000015227,None,,,,,,,,,,,,,,,P138,001,2025-04-08_09h13.25.378,posner_endo_new1,2024.2.4,59.9778921489538,2025-04-08 09h13.33.963878 +0100,
cube_r.png,0.1,0.31,valid,46,46,0,up,2.9970445999997537,None,space,0.4496585999995659,None,,,,,0,46,46,46,,,,,414.8580118,,,,,,,,,,,,,414.8428759999997,414.8580118,414.8580118,414.8580118,417.8561450999996,,,,417.86530349999975,417.8753906000002,417.8753906000002,417.92163619999974,417.92194389999986,417.9382701000004,417.9382701000004,417.9382701000004,418.0214213999998,418.3889634999996,,,,,,,,up,2.9970445999997537,None,space,0.4496585999995659,None,,,,,,,,,,,,,,,P138,001,2025-04-08_09h13.25.378,posner_endo_new1,2024.2.4,59.9778921489538,2025-04-08 09h13.33.963878 +0100,
cube_l.png,0.1,-0.31,valid,47,47,0,up,5.739037999999709,None,space,0.5196366000000125,None,,,,,0,47,47,47,,,,,418.4043475999997,,,,,,,,,,,,,418.38920080000025,418.4043475999997,418.4043475999997,418.4043475999997,424.1495660999999,,,,424.1588647999997,424.1689180000003,424.1689180000003,424.2152315000003,424.2155493999999,424.2316741000004,424.2316741000004,424.2316741000004,424.31496179999976,424.7654037000002,,,,,,,,up,5.739037999999709,None,space,0.5196366000000125,None,,,,,,,,,,,,,,,P138,001,2025-04-08_09h13.25.378,posner_endo_new1,2024.2.4,59.9778921489538,2025-04-08 09h13.33.963878 +0100,
cube_r.png,0.1,-0.31,invalid,48,48,0,up,6.225667800000338,None,space,0.44138159999965865,None,,,,,0,48,48,48,,,,,424.78101760000027,,,,,,,,,,,,,424.76567499999965,424.78101760000027,424.78101760000027,424.78101760000027,431.00918830000046,,,,431.0183268999999,431.0284422000004,431.0284422000004,431.0747964000002,431.0751098999999,431.0913294000002,431.0913294000002,431.0913294000002,431.1746530999999,431.5419539000004,,,,,,,,up,6.225667800000338,None,space,0.44138159999965865,None,,,,,,,,,,,,,,,P138,001,2025-04-08_09h13.25.378,posner_endo_new1,2024.2.4,59.9778921489538,2025-04-08 09h13.33.963878 +0100,
cube_r.png,0.1,10,catch,49,49,0,up,4.5297769000007975,None,None,,,,,,,0,49,49,49,,,,,431.5574972000004,,,,,,,,,,,,,431.54219009999997,431.5574972000004,431.5574972000004,431.5574972000004,436.1036296000002,,,,436.11106970000037,436.12248569999974,436.12248569999974,436.1695024999999,436.1697664000003,436.1859193,436.1859193,436.1859193,436.2528505999999,439.1836849000001,,,,438.2673255999998,439.1997557000004,439.1997557000004,439.1997557000004,up,4.5297769000007975,None,None,,,,,,,,,,,,,,,,,P138,001,2025-04-08_09h13.25.378,posner_endo_new1,2024.2.4,59.9778921489538,2025-04-08 09h13.33.963878 +0100,
cube_l.png,0.1,-0.31,valid,50,50,0,up,1.5587735999997676,None,space,0.6672696999994514,None,,,,,0,50,50,50,,,,,439.1997557000004,,,,,,,,,,,,,439.18385450000005,439.1997557000004,439.1997557000004,439.1997557000004,440.7655335999998,,,,440.77184339999985,440.78338880000047,440.78338880000047,440.83138919999965,440.831631,440.8481678999997,440.8481678999997,440.8481678999997,440.91450559999976,441.53154710000035,,,,,,,,up,1.5587735999997676,None,space,0.6672696999994514,None,,,,,,,,,,,,,,,P138,001,2025-04-08_09h13.25.378,posner_endo_new1,2024.2.4,59.9778921489538,2025-04-08 09h13.33.963878 +0100,
cube_l.png,0.1,-0.31,valid,51,51,0,up,5.364083999999821,None,space,0.421994000000268,None,,,,,0,51,51,51,,,,,441.54689229999985,,,,,,,,,,,,,441.53173030000016,441.54689229999985,441.54689229999985,441.54689229999985,446.92584110000007,,,,446.93220010000005,446.94375430000036,446.94375430000036,446.9918961000003,446.99213899999995,447.0085879999997,447.0085879999997,447.0085879999997,447.0747932000004,447.4420041000003,,,,,,,,up,5.364083999999821,None,space,0.421994000000268,None,,,,,,,,,,,,,,,P138,001,2025-04-08_09h13.25.378,posner_endo_new1,2024.2.4,59.9778921489538,2025-04-08 09h13.33.963878 +0100,
cube_r.png,0.1,-0.31,invalid,52,52,0,up,5.397893599999406,None,space,0.39005550000001676,None,,,,,0,52,52,52,,,,,447.4576837000004,,,,,,,,,,,,,447.44218439999986,447.4576837000004,447.4576837000004,447.4576837000004,452.8697652000001,,,,452.87600810000004,452.8874619999997,452.8874619999997,452.9358511999999,452.93609370000013,452.95235839999987,452.95235839999987,452.95235839999987,453.01853140000003,453.3526592999997,,,,,,,,up,5.397893599999406,None,space,0.39005550000001676,None,,,,,,,,,,,,,,,P138,001,2025-04-08_09h13.25.378,posner_endo_new1,2024.2.4,59.9778921489538,2025-04-08 09h13.33.963878 +0100,
cube_l.png,0.1,-0.31,valid,53,53,0,up,6.782339600000341,None,space,0.4687300999994477,None,,,,,0,53,53,53,,,,,453.3686527,,,,,,,,,,,,,453.3528454999996,453.3686527,453.3686527,453.3686527,460.16212540000015,,,,460.16845339999963,460.1800295000003,460.1800295000003,460.2281217,460.22837009999967,460.2447798000003,460.2447798000003,460.2447798000003,460.31136140000035,460.72846240000035,,,,,,,,up,6.782339600000341,None,space,0.4687300999994477,None,,,,,,,,,,,,,,,P138,001,2025-04-08_09h13.25.378,posner_endo_new1,2024.2.4,59.9778921489538,2025-04-08 09h13.33.963878 +0100,
cube_r.png,0.1,10,catch,54,54,0,up,7.3745976000000155,None,None,,,,,,,0,54,54,54,,,,,460.7439727000001,,,,,,,,,,,,,460.7286432000001,460.7439727000001,460.7439727000001,460.7439727000001,468.12088049999966,,,,468.1272673000003,468.1387236999999,468.1387236999999,468.18642530000034,468.1866649000003,468.20331220000025,468.20331220000025,468.20331220000025,468.2864834000002,471.2006709999996,,,,470.3010242999999,471.2168701999999,471.2168701999999,471.2168701999999,up,7.3745976000000155,None,None,,,,,,,,,,,,,,,,,P138,001,2025-04-08_09h13.25.378,posner_endo_new1,2024.2.4,59.9778921489538,2025-04-08 09h13.33.963878 +0100,
cube_l.png,0.1,0.31,invalid,55,55,0,up,2.1417125999996642,None,space,0.4326891999999134,None,,,,,0,55,55,55,,,,,471.2168701999999,,,,,,,,,,,,,471.20083820000036,471.2168701999999,471.2168701999999,471.2168701999999,473.3653628000002,,,,473.3717088000003,473.38312099999985,473.38312099999985,473.43149470000026,473.43173620000016,473.44777840000006,473.44777840000006,473.44777840000006,473.51446790000045,473.88167069999963,,,,,,,,up,2.1417125999996642,None,space,0.4326891999999134,None,,,,,,,,,,,,,,,P138,001,2025-04-08_09h13.25.378,posner_endo_new1,2024.2.4,59.9778921489538,2025-04-08 09h13.33.963878 +0100,
cube_l.png,0.1,-0.31,valid,56,56,0,up,9.03753930000039,None,space,0.8884907000001476,None,,,,,0,56,56,56,,,,,473.8974023999999,,,,,,,,,,,,,473.88184679999995,473.8974023999999,473.8974023999999,473.8974023999999,482.9390448000004,,,,482.9460269000001,482.95767720000003,482.95767720000003,483.0051297,483.0053729000001,483.0215814000003,483.0215814000003,483.0215814000003,483.08808789999966,483.92136970000047,,,,,,,,up,9.03753930000039,None,space,0.8884907000001476,None,,,,,,,,,,,,,,,P138,001,2025-04-08_09h13.25.378,posner_endo_new1,2024.2.4,59.9778921489538,2025-04-08 09h13.33.963878 +0100,
cube_r.png,0.1,0.31,valid,57,57,0,up,9.14115049999964,None,space,0.40252959999997984,None,,,,,0,57,57,57,,,,,483.93733059999977,,,,,,,,,,,,,483.9215457,483.93733059999977,483.93733059999977,483.93733059999977,493.09495810000044,,,,493.1012793,493.1126346000001,493.1126346000001,493.1611395,493.16139029999977,493.17771730000004,493.17771730000004,493.17771730000004,493.24444700000004,493.5947778999998,,,,,,,,up,9.14115049999964,None,space,0.40252959999997984,None,,,,,,,,,,,,,,,P138,001,2025-04-08_09h13.25.378,posner_endo_new1,2024.2.4,59.9778921489538,2025-04-08 09h13.33.963878 +0100,
cube_r.png,0.1,-0.31,invalid,58,58,0,up,3.588403300000209,None,space,0.3805780999991839,None,,,,,0,58,58,58,,,,,493.6106864000003,,,,,,,,,,,,,493.59495309999966,493.6106864000003,493.6106864000003,493.6106864000003,497.2076655999999,,,,497.2139559999996,497.2256460999997,497.2256460999997,497.273631,497.27387480000016,497.2900388999997,497.2900388999997,497.2900388999997,497.35740309999983,497.67389939999975,,,,,,,,up,3.588403300000209,None,space,0.3805780999991839,None,,,,,,,,,,,,,,,P138,001,2025-04-08_09h13.25.378,posner_endo_new1,2024.2.4,59.9778921489538,2025-04-08 09h13.33.963878 +0100,
cube_l.png,0.1,0.31,invalid,59,59,0,up,4.236924499999986,None,space,0.3600392999996984,None,,,,,0,59,59,59,,,,,497.6897262000002,,,,,,,,,,,,,497.6740749999999,497.6897262000002,497.6897262000002,497.6897262000002,501.93817579999995,,,,501.9616944999998,501.9740748000004,501.9740748000004,502.00182080000013,502.0022047000002,502.01835850000043,502.01835850000043,502.01835850000043,502.101799,502.3862280000003,,,,,,,,up,4.236924499999986,None,space,0.3600392999996984,None,,,,,,,,,,,,,,,P138,001,2025-04-08_09h13.25.378,posner_endo_new1,2024.2.4,59.9778921489538,2025-04-08 09h13.33.963878 +0100,
,,,,,,,,,,,,,,,,,,,,,,,,,,,,,,,,,,,,,,,,,,,,,,,,,,,,,,,,,,,,,,,,,,,,,502.3864258000003,502.40149159999964,502.40149159999964,562.4069471000003,604.3999602000004,space,101.98143280000022,None,,,,,,,P138,001,2025-04-08_09h13.25.378,posner_endo_new1,2024.2.4,59.9778921489538,2025-04-08 09h13.33.963878 +0100,
,,,,,,,,,,,,,,,,,,,,,,,,,,,,,,,,,,604.4001363999996,604.4138891000002,607.5081572999998,607.3954873000002,,,,,,,,,,,,,,,,,,,,,,,,,,,,,,,,,,,,,,,,,,,,,,P138,001,2025-04-08_09h13.25.378,posner_endo_new1,2024.2.4,59.9778921489538,2025-04-08 09h13.33.963878 +0100,
cube_l.png,0.1,10,catch,0,0,0,down,2.0422214999998687,None,None,,,,,,,,,,,0,0,0,0,607.5081572999998,,,,,,,,,,,,,607.4997108999996,607.5081572999998,607.5081572999998,607.5081572999998,609.5591270000004,,,,609.5659935000003,609.5776552999996,609.5776552999996,609.6251878000003,609.6254374,609.6417387000001,609.6417387000001,609.6417387000001,609.7082915000001,612.6391821999996,,,,611.7229082000003,612.6552221000002,612.6552221000002,612.6552221000002,,,,,,,,,,,,,,,down,2.0422214999998687,None,None,,,P138,001,2025-04-08_09h13.25.378,posner_endo_new1,2024.2.4,59.9778921489538,2025-04-08 09h13.33.963878 +0100,
cube_l.png,0.1,10,catch,1,1,0,down,0.8870196999996551,None,None,,,,,,,,,,,0,1,1,1,612.6552221000002,,,,,,,,,,,,,612.6393557000001,612.6552221000002,612.6552221000002,612.6552221000002,613.5550813,,,,613.56153,613.5731041999998,613.5731041999998,613.6210478000003,613.6212968,613.6376987000003,613.6376987000003,613.6376987000003,613.7042067000002,616.6349546000001,,,,615.7187354999996,616.6510724,616.6510724,616.6510724,,,,,,,,,,,,,,,down,0.8870196999996551,None,None,,,P138,001,2025-04-08_09h13.25.378,posner_endo_new1,2024.2.4,59.9778921489538,2025-04-08 09h13.33.963878 +0100,
cube_l.png,0.1,0.31,invalid,2,2,0,down,1.6431672999997318,None,space,0.4647642999998425,None,,,,,,,,,0,2,2,2,616.6510724,,,,,,,,,,,,,616.6351298,616.6510724,616.6510724,616.6510724,618.3003944000002,,,,618.3066635000005,618.3182527999998,618.3182527999998,618.3661552000003,618.3664005,618.3827781999998,618.3827781999998,618.3827781999998,618.4656131000002,618.8497826000003,,,,,,,,,,,,,,,,,,,,,,down,1.6431672999997318,None,space,0.4647642999998425,None,P138,001,2025-04-08_09h13.25.378,posner_endo_new1,2024.2.4,59.9778921489538,2025-04-08 09h13.33.963878 +0100,
cube_l.png,0.1,0.31,invalid,3,3,0,down,5.492719199999556,None,space,0.45215010000083566,None,,,,,,,,,0,3,3,3,618.8656137999997,,,,,,,,,,,,,618.8499671,618.8656137999997,618.8656137999997,618.8656137999997,624.3603191000002,,,,624.3667747,624.3782932000004,624.3782932000004,624.4267059000003,624.4269494999999,624.4428632999998,624.4428632999998,624.4428632999998,624.5099336000003,624.9100183999999,,,,,,,,,,,,,,,,,,,,,,down,5.492719199999556,None,space,0.45215010000083566,None,P138,001,2025-04-08_09h13.25.378,posner_endo_new1,2024.2.4,59.9778921489538,2025-04-08 09h13.33.963878 +0100,
cube_l.png,0.1,-0.31,valid,4,4,0,down,3.9124495999994906,None,space,0.4305346000001009,None,,,,,,,,,0,4,4,4,624.9261146999997,,,,,,,,,,,,,624.9102094,624.9261146999997,624.9261146999997,624.9261146999997,628.8393653000003,,,,628.8457353000003,628.8576026000001,628.8576026000001,628.9052826999996,628.9055263999999,628.9221092999996,628.9221092999996,628.9221092999996,628.9886769000004,629.3557032999997,,,,,,,,,,,,,,,,,,,,,,down,3.9124495999994906,None,space,0.4305346000001009,None,P138,001,2025-04-08_09h13.25.378,posner_endo_new1,2024.2.4,59.9778921489538,2025-04-08 09h13.33.963878 +0100,
cube_r.png,0.1,-0.31,invalid,5,5,0,down,4.475479499999892,None,space,0.496965000000273,None,,,,,,,,,0,5,5,5,629.3716252000004,,,,,,,,,,,,,629.3558876999996,629.3716252000004,629.3716252000004,629.3716252000004,633.8510511000004,,,,633.8574617000004,633.8690801000002,633.8690801000002,633.9170176999996,633.9172645999997,633.9334527000001,633.9334527000001,633.9334527000001,634.0168022999997,634.4338275999999,,,,,,,,,,,,,,,,,,,,,,down,4.475479499999892,None,space,0.496965000000273,None,P138,001,2025-04-08_09h13.25.378,posner_endo_new1,2024.2.4,59.9778921489538,2025-04-08 09h13.33.963878 +0100,
cube_r.png,0.1,0.31,valid,6,6,0,down,3.796547000000828,None,space,0.379072300000189,None,,,,,,,,,0,6,6,6,634.4496720999996,,,,,,,,,,,,,634.4340106,634.4496720999996,634.4496720999996,634.4496720999996,638.2633168000002,,,,638.2696130000004,638.2808013000003,638.2808013000003,638.3290872999996,638.3293295000003,638.3455778999996,638.3455778999996,638.3455778999996,638.4289363999997,638.7289166,,,,,,,,,,,,,,,,,,,,,,down,3.796547000000828,None,space,0.379072300000189,None,P138,001,2025-04-08_09h13.25.378,posner_endo_new1,2024.2.4,59.9778921489538,2025-04-08 09h13.33.963878 +0100,
cube_r.png,0.1,-0.31,invalid,7,7,0,down,7.8371164999998655,None,space,0.6134997999997722,None,,,,,,,,,0,7,7,7,638.7451960999997,,,,,,,,,,,,,638.7291019000004,638.7451960999997,638.7451960999997,638.7451960999997,646.5883031000003,,,,646.5946061000004,646.6061890999999,646.6061890999999,646.6541275,646.6543713000001,646.6700731999999,646.6700731999999,646.6700731999999,646.7535459999999,647.2874301000002,,,,,,,,,,,,,,,,,,,,,,down,7.8371164999998655,None,space,0.6134997999997722,None,P138,001,2025-04-08_09h13.25.378,posner_endo_new1,2024.2.4,59.9778921489538,2025-04-08 09h13.33.963878 +0100,
cube_l.png,0.1,-0.31,valid,8,8,0,down,3.976829700000053,None,space,0.4619263000004139,None,,,,,,,,,0,8,8,8,647.3028701000003,,,,,,,,,,,,,647.2876195999997,647.3028701000003,647.3028701000003,647.3028701000003,651.2831594999998,,,,651.2894564999997,651.3010573000001,651.3010573000001,651.349064,651.3493068999996,651.3656592999996,651.3656592999996,651.3656592999996,651.4317774000001,651.8323432999996,,,,,,,,,,,,,,,,,,,,,,down,3.976829700000053,None,space,0.4619263000004139,None,P138,001,2025-04-08_09h13.25.378,posner_endo_new1,2024.2.4,59.9778921489538,2025-04-08 09h13.33.963878 +0100,
cube_r.png,0.1,-0.31,invalid,9,9,0,down,2.918982500000311,None,space,0.5206017999998949,None,,,,,,,,,0,9,9,9,651.8480576000002,,,,,,,,,,,,,651.8325307000005,651.8480576000002,651.8480576000002,651.8480576000002,654.7796625000001,,,,654.7859539000001,654.7975153999996,654.7975153999996,654.8454090000005,654.8456538999999,654.8619709000004,654.8619709000004,654.8619709000004,654.9450457000003,655.3955286,,,,,,,,,,,,,,,,,,,,,,down,2.918982500000311,None,space,0.5206017999998949,None,P138,001,2025-04-08_09h13.25.378,posner_endo_new1,2024.2.4,59.9778921489538,2025-04-08 09h13.33.963878 +0100,
cube_l.png,0.1,0.31,invalid,10,10,0,down,3.2913506000004418,None,space,0.42471669999940787,None,,,,,,,,,0,10,10,10,655.4117364000003,,,,,,,,,,,,,655.3957142999998,655.4117364000003,655.4117364000003,655.4117364000003,658.7086577999999,,,,658.7148257999997,658.7262755000002,658.7262755000002,658.7748898,658.7751316000003,658.7912509999996,658.7912509999996,658.7912509999996,658.8583988999999,659.2251636000001,,,,,,,,,,,,,,,,,,,,,,down,3.2913506000004418,None,space,0.42471669999940787,None,P138,001,2025-04-08_09h13.25.378,posner_endo_new1,2024.2.4,59.9778921489538,2025-04-08 09h13.33.963878 +0100,
cube_r.png,0.1,-0.31,invalid,11,11,0,down,2.750808799999504,None,space,0.37329719999979716,None,,,,,,,,,0,11,11,11,659.2405058000004,,,,,,,,,,,,,659.2253491000001,659.2405058000004,659.2405058000004,659.2405058000004,662.0053998000003,,,,662.0116883000001,662.0230781,662.0230781,662.0712700000004,662.0715123,662.0879573000002,662.0879573000002,662.0879573000002,662.1545912000001,662.4719539999996,,,,,,,,,,,,,,,,,,,,,,down,2.750808799999504,None,space,0.37329719999979716,None,P138,001,2025-04-08_09h13.25.378,posner_endo_new1,2024.2.4,59.9778921489538,2025-04-08 09h13.33.963878 +0100,
cube_r.png,0.1,0.31,valid,12,12,0,down,2.654688999999962,None,space,0.4267448999999033,None,,,,,,,,,0,12,12,12,662.4876225999997,,,,,,,,,,,,,662.4721369999997,662.4876225999997,662.4876225999997,662.4876225999997,665.1523238999998,,,,665.1585661999998,665.1702176999997,665.1702176999997,665.2181025,665.2183500000001,665.2348419999998,665.2348419999998,665.2348419999998,665.3179164000003,665.6684236000001,,,,,,,,,,,,,,,,,,,,,,down,2.654688999999962,None,space,0.4267448999999033,None,P138,001,2025-04-08_09h13.25.378,posner_endo_new1,2024.2.4,59.9778921489538,2025-04-08 09h13.33.963878 +0100,
cube_l.png,0.1,10,catch,13,13,0,down,2.466779100000167,None,None,,,,,,,,,,,0,13,13,13,665.6842606,,,,,,,,,,,,,665.6686148999997,665.6842606,665.6842606,665.6842606,668.1659049,,,,668.1720699999996,668.1834668000001,668.1834668000001,668.2318142000004,668.2320573999996,668.2484880000002,668.2484880000002,668.2484880000002,668.3314737000001,671.2459166999997,,,,670.3461436999996,671.2617982000002,671.2617982000002,671.2617982000002,,,,,,,,,,,,,,,down,2.466779100000167,None,None,,,P138,001,2025-04-08_09h13.25.378,posner_endo_new1,2024.2.4,59.9778921489538,2025-04-08 09h13.33.963878 +0100,
cube_r.png,0.1,-0.31,invalid,14,14,0,down,0.008911900000384776,None,space,0.41422979999970266,None,,,,,,,,,0,14,14,14,671.2617982000002,,,,,,,,,,,,,671.2460916999999,671.2617982000002,671.2617982000002,671.2617982000002,671.2793915000002,,,,671.2856549999997,671.2971722000002,671.2971722000002,671.3453271999997,671.3455788000001,671.3618924000002,671.3618924000002,671.3618924000002,671.444923,671.7788229999996,,,,,,,,,,,,,,,,,,,,,,down,0.008911900000384776,None,space,0.41422979999970266,None,P138,001,2025-04-08_09h13.25.378,posner_endo_new1,2024.2.4,59.9778921489538,2025-04-08 09h13.33.963878 +0100,
cube_l.png,0.1,-0.31,valid,15,15,0,down,3.0044490000000224,None,space,0.4129456000000573,None,,,,,,,,,0,15,15,15,671.7945983999998,,,,,,,,,,,,,671.7790078999997,671.7945983999998,671.7945983999998,671.7945983999998,674.8089637000003,,,,674.8152038999997,674.8267148000004,674.8267148000004,674.8751063999998,674.8753513000001,674.8914783,674.8914783,674.8914783,674.9580142000004,675.3086837000001,,,,,,,,,,,,,,,,,,,,,,down,3.0044490000000224,None,space,0.4129456000000573,None,P138,001,2025-04-08_09h13.25.378,posner_endo_new1,2024.2.4,59.9778921489538,2025-04-08 09h13.33.963878 +0100,
cube_r.png,0.1,10,catch,16,16,0,down,3.146082000000206,None,None,,,,,,,,,,,0,16,16,16,675.3243364999998,,,,,,,,,,,,,675.3088660000003,675.3243364999998,675.3243364999998,675.3243364999998,678.4721423000001,,,,678.4783574000003,678.4899390999999,678.4899390999999,678.5378941999998,678.5381361999998,678.5543035999999,678.5543035999999,678.5543035999999,678.6376149999996,681.5519059999997,,,,680.6522703999999,681.5677036999996,681.5677036999996,681.5677036999996,,,,,,,,,,,,,,,down,3.146082000000206,None,None,,,P138,001,2025-04-08_09h13.25.378,posner_endo_new1,2024.2.4,59.9778921489538,2025-04-08 09h13.33.963878 +0100,
cube_r.png,0.1,10,catch,17,17,0,down,0.15052420000029088,None,None,,,,,,,,,,,0,17,17,17,681.5677036999996,,,,,,,,,,,,,681.5520808000001,681.5677036999996,681.5677036999996,681.5677036999996,681.7351062999996,,,,681.7412856000001,681.7524923000001,681.7524923000001,681.8012984999996,681.801539,681.8176888999997,681.8176888999997,681.8176888999997,681.8844785000001,684.8152301999999,,,,683.8990283000003,684.8309760000002,684.8309760000002,684.8309760000002,,,,,,,,,,,,,,,down,0.15052420000029088,None,None,,,P138,001,2025-04-08_09h13.25.378,posner_endo_new1,2024.2.4,59.9778921489538,2025-04-08 09h13.33.963878 +0100,
cube_l.png,0.1,0.31,invalid,18,18,0,down,1.4636094000006779,None,space,0.4067008000001806,None,,,,,,,,,0,18,18,18,684.8309760000002,,,,,,,,,,,,,684.8154055000005,684.8309760000002,684.8309760000002,684.8309760000002,686.2974043000004,,,,686.3035743999999,686.3149641999998,686.3149641999998,686.3632641000004,686.3635059999997,686.3798735999999,686.3798735999999,686.3798735999999,686.4629897000004,686.7968971999999,,,,,,,,,,,,,,,,,,,,,,down,1.4636094000006779,None,space,0.4067008000001806,None,P138,001,2025-04-08_09h13.25.378,posner_endo_new1,2024.2.4,59.9778921489538,2025-04-08 09h13.33.963878 +0100,
cube_l.png,0.1,10,catch,19,19,0,down,1.834407100000135,None,None,,,,,,,,,,,0,19,19,19,686.8128264999996,,,,,,,,,,,,,686.7970845,686.8128264999996,686.8128264999996,686.8128264999996,688.6614576000002,,,,688.6677533000002,688.6790874999997,688.6790874999997,688.7274060999998,688.7276494999996,688.7438321999998,688.7438321999998,688.7438321999998,688.8107332999998,691.7414253999996,,,,690.8251848999998,691.7575054999998,691.7575054999998,691.7575054999998,,,,,,,,,,,,,,,down,1.834407100000135,None,None,,,P138,001,2025-04-08_09h13.25.378,posner_endo_new1,2024.2.4,59.9778921489538,2025-04-08 09h13.33.963878 +0100,
cube_l.png,0.1,0.31,invalid,20,20,0,down,0.34521270000004733,None,space,0.39817579999999,None,,,,,,,,,0,20,20,20,691.7575054999998,,,,,,,,,,,,,691.7416015999997,691.7575054999998,691.7575054999998,691.7575054999998,692.1080085000003,,,,692.1142726999997,692.1255901000004,692.1255901000004,692.1737580999998,692.1740006999999,692.1904539999996,692.1904539999996,692.1904539999996,692.2731905,692.5910455000003,,,,,,,,,,,,,,,,,,,,,,down,0.34521270000004733,None,space,0.39817579999999,None,P138,001,2025-04-08_09h13.25.378,posner_endo_new1,2024.2.4,59.9778921489538,2025-04-08 09h13.33.963878 +0100,
cube_l.png,0.1,-0.31,valid,21,21,0,down,2.2076090999998996,None,space,0.4527509999998074,None,,,,,,,,,0,21,21,21,692.6066130999998,,,,,,,,,,,,,692.5912305000002,692.6066130999998,692.6066130999998,692.6066130999998,694.8219128999999,,,,694.8281409000001,694.8396001000001,694.8396001000001,694.8877026999999,694.8879478999997,694.9042273000005,694.9042273000005,694.9042273000005,694.9875936999997,695.3711648999997,,,,,,,,,,,,,,,,,,,,,,down,2.2076090999998996,None,space,0.4527509999998074,None,P138,001,2025-04-08_09h13.25.378,posner_endo_new1,2024.2.4,59.9778921489538,2025-04-08 09h13.33.963878 +0100,
cube_r.png,0.1,0.31,valid,22,22,0,down,3.227470899999389,None,space,0.5336975000000166,None,,,,,,,,,0,22,22,22,695.3871920000001,,,,,,,,,,,,,695.3713550000002,695.3871920000001,695.3871920000001,695.3871920000001,698.6183110000002,,,,698.6245478000001,698.6360366999997,698.6360366999997,698.6838662999999,698.6841082000001,698.7003845999998,698.7003845999998,698.7003845999998,698.7834888999996,699.2507187000001,,,,,,,,,,,,,,,,,,,,,,down,3.227470899999389,None,space,0.5336975000000166,None,P138,001,2025-04-08_09h13.25.378,posner_endo_new1,2024.2.4,59.9778921489538,2025-04-08 09h13.33.963878 +0100,
cube_r.png,0.1,-0.31,invalid,23,23,0,down,2.8766278000002785,None,space,0.39891720000014175,None,,,,,,,,,0,23,23,23,699.2664825000002,,,,,,,,,,,,,699.2509184,699.2664825000002,699.2664825000002,699.2664825000002,702.1476906999997,,,,702.1538799,702.1653841999996,702.1653841999996,702.2136337000002,702.2138821999997,702.2298849999997,702.2298849999997,702.2298849999997,702.3131088999999,702.6306996000003,,,,,,,,,,,,,,,,,,,,,,down,2.8766278000002785,None,space,0.39891720000014175,None,P138,001,2025-04-08_09h13.25.378,posner_endo_new1,2024.2.4,59.9778921489538,2025-04-08 09h13.33.963878 +0100,
cube_r.png,0.1,0.31,valid,24,24,0,down,2.304036100000303,None,space,0.43813569999929314,None,,,,,,,,,0,24,24,24,702.6463841000004,,,,,,,,,,,,,702.6308894000003,702.6463841000004,702.6463841000004,702.6463841000004,704.9612950999999,,,,704.9675342999999,704.9788341000003,704.9788341000003,705.0274227,705.0276659000001,705.0438277000003,705.0438277000003,705.0438277000003,705.1105028000002,705.4941124999996,,,,,,,,,,,,,,,,,,,,,,down,2.304036100000303,None,space,0.43813569999929314,None,P138,001,2025-04-08_09h13.25.378,posner_endo_new1,2024.2.4,59.9778921489538,2025-04-08 09h13.33.963878 +0100,
cube_r.png,0.1,-0.31,invalid,25,25,0,down,7.303986200000509,None,space,0.34886009999991074,None,,,,,,,,,0,25,25,25,705.5100583000003,,,,,,,,,,,,,705.4942991999997,705.5100583000003,705.5100583000003,705.5100583000003,712.8201202999999,,,,712.8263637,712.8378677999999,712.8378677999999,712.8861224000002,712.8863670999999,712.9026346999999,712.9026346999999,712.9026346999999,712.9858506999999,713.2531964,,,,,,,,,,,,,,,,,,,,,,down,7.303986200000509,None,space,0.34886009999991074,None,P138,001,2025-04-08_09h13.25.378,posner_endo_new1,2024.2.4,59.9778921489538,2025-04-08 09h13.33.963878 +0100,
cube_l.png,0.1,-0.31,valid,26,26,0,down,1.8580927000002703,None,space,0.4594560999994428,None,,,,,,,,,0,26,26,26,713.2684752000005,,,,,,,,,,,,,713.2533805000003,713.2684752000005,713.2684752000005,713.2684752000005,715.1345569000005,,,,715.1408056,715.1524355000001,715.1524355000001,715.2003590000004,715.2005992000004,715.216684,715.216684,715.216684,715.3001648,715.6840781000001,,,,,,,,,,,,,,,,,,,,,,down,1.8580927000002703,None,space,0.4594560999994428,None,P138,001,2025-04-08_09h13.25.378,posner_endo_new1,2024.2.4,59.9778921489538,2025-04-08 09h13.33.963878 +0100,
cube_r.png,0.1,0.31,valid,27,27,0,down,2.9868820000001506,None,space,0.37865640000018175,None,,,,,,,,,0,27,27,27,715.6993282000003,,,,,,,,,,,,,715.6842643,715.6993282000003,715.6993282000003,715.6993282000003,718.6974633,,,,718.7036590999996,718.7150990999999,718.7150990999999,718.7633029999997,718.7635467,718.7799105000004,718.7799105000004,718.7799105000004,718.8465026000003,719.1638187999997,,,,,,,,,,,,,,,,,,,,,,down,2.9868820000001506,None,space,0.37865640000018175,None,P138,001,2025-04-08_09h13.25.378,posner_endo_new1,2024.2.4,59.9778921489538,2025-04-08 09h13.33.963878 +0100,
cube_r.png,0.1,10,catch,28,28,0,down,2.890421399999468,None,None,,,,,,,,,,,0,28,28,28,719.1796732000003,,,,,,,,,,,,,719.1640028000002,719.1796732000003,719.1796732000003,719.1796732000003,722.0773201000002,,,,722.0835534999997,722.0951007000003,722.0951007000003,722.1431229999998,722.1433635000003,722.1594003,722.1594003,722.1594003,722.2430821999997,725.1571727,,,,724.2574917000002,725.1733855000002,725.1733855000002,725.1733855000002,,,,,,,,,,,,,,,down,2.890421399999468,None,None,,,P138,001,2025-04-08_09h13.25.378,posner_endo_new1,2024.2.4,59.9778921489538,2025-04-08 09h13.33.963878 +0100,
cube_r.png,0.1,0.31,valid,29,29,0,down,0.2888560999999754,None,space,0.49286149999988993,None,,,,,,,,,0,29,29,29,725.1733855000002,,,,,,,,,,,,,725.1573453999999,725.1733855000002,725.1733855000002,725.1733855000002,725.4734718,,,,725.4797276999998,725.4913150000002,725.4913150000002,725.5396916,725.5399414000003,725.5562940999998,725.5562940999998,725.5562940999998,725.6226955000002,726.0560986,,,,,,,,,,,,,,,,,,,,,,down,0.2888560999999754,None,space,0.49286149999988993,None,P138,001,2025-04-08_09h13.25.378,posner_endo_new1,2024.2.4,59.9778921489538,2025-04-08 09h13.33.963878 +0100,
cube_r.png,0.1,0.31,valid,30,30,0,down,2.0863090000002558,None,space,0.4405016999999134,None,,,,,,,,,0,30,30,30,726.0722950999998,,,,,,,,,,,,,726.0562851000004,726.0722950999998,726.0722950999998,726.0722950999998,728.1709480999998,,,,728.1771965999997,728.1886126999998,728.1886126999998,728.2369093999996,728.2371504000002,728.2534623000001,728.2534623000001,728.2534623000001,728.3200568000002,728.7039907999997,,,,,,,,,,,,,,,,,,,,,,down,2.0863090000002558,None,space,0.4405016999999134,None,P138,001,2025-04-08_09h13.25.378,posner_endo_new1,2024.2.4,59.9778921489538,2025-04-08 09h13.33.963878 +0100,
cube_l.png,0.1,-0.31,valid,31,31,0,down,3.142621599999984,None,space,0.42991859999983717,None,,,,,,,,,0,31,31,31,728.7196313000004,,,,,,,,,,,,,728.7041956000003,728.7196313000004,728.7196313000004,728.7196313000004,731.8675739999999,,,,731.8738295000003,731.8853859999999,731.8853859999999,731.9333268999999,731.9335700000001,731.9498353999998,731.9498353999998,731.9498353999998,732.0329261999996,732.3834460999997,,,,,,,,,,,,,,,,,,,,,,down,3.142621599999984,None,space,0.42991859999983717,None,P138,001,2025-04-08_09h13.25.378,posner_endo_new1,2024.2.4,59.9778921489538,2025-04-08 09h13.33.963878 +0100,
cube_r.png,0.1,0.31,valid,32,32,0,down,9.375887799999873,None,space,0.4026441000005434,None,,,,,,,,,0,32,32,32,732.3991868000003,,,,,,,,,,,,,732.3836328999996,732.3991868000003,732.3991868000003,732.3991868000003,741.7902211,,,,741.7964702999998,741.8081683,741.8081683,741.8564330999998,741.8566829000001,741.8729735999996,741.8729735999996,741.8729735999996,741.9395345000003,742.2899355,,,,,,,,,,,,,,,,,,,,,,down,9.375887799999873,None,space,0.4026441000005434,None,P138,001,2025-04-08_09h13.25.378,posner_endo_new1,2024.2.4,59.9778921489538,2025-04-08 09h13.33.963878 +0100,
cube_r.png,0.1,-0.31,invalid,33,33,0,down,3.6134515000003375,None,space,0.38057060000028287,None,,,,,,,,,0,33,33,33,742.3054568999996,,,,,,,,,,,,,742.2901201000004,742.3054568999996,742.3054568999996,742.3054568999996,745.9217479999998,,,,745.9450637999998,745.9573416000003,745.9573416000003,745.9854108999998,745.9857852000005,746.0019407999998,746.0019407999998,746.0019407999998,746.0852508999997,746.3861645999996,,,,,,,,,,,,,,,,,,,,,,down,3.6134515000003375,None,space,0.38057060000028287,None,P138,001,2025-04-08_09h13.25.378,posner_endo_new1,2024.2.4,59.9778921489538,2025-04-08 09h13.33.963878 +0100,
cube_r.png,0.1,10,catch,34,34,0,down,3.093329699999231,None,None,,,,,,,,,,,0,34,34,34,746.4014064000003,,,,,,,,,,,,,746.3864724000005,746.4014064000003,746.4014064000003,746.4014064000003,749.4995643000002,,,,749.5113375999999,749.5215283999996,749.5215283999996,749.5650722,749.5654408,749.5815123000002,749.5815123000002,749.5815123000002,749.6648437000003,752.5791963000001,,,,751.6794542999996,752.5951359000001,752.5951359000001,752.5951359000001,,,,,,,,,,,,,,,down,3.093329699999231,None,None,,,P138,001,2025-04-08_09h13.25.378,posner_endo_new1,2024.2.4,59.9778921489538,2025-04-08 09h13.33.963878 +0100,
cube_r.png,0.1,0.31,valid,35,35,0,down,1.2433336999993116,None,space,0.45554579999952693,None,,,,,,,,,0,35,35,35,752.5951359000001,,,,,,,,,,,,,752.5794813000002,752.5951359000001,752.5951359000001,752.5951359000001,753.8451451000001,,,,753.8551176999999,753.864799,753.864799,753.9107598999999,753.9110235999997,753.927189,753.927189,753.927189,754.0101918999999,754.3941797999996,,,,,,,,,,,,,,,,,,,,,,down,1.2433336999993116,None,space,0.45554579999952693,None,P138,001,2025-04-08_09h13.25.378,posner_endo_new1,2024.2.4,59.9778921489538,2025-04-08 09h13.33.963878 +0100,
cube_r.png,0.1,-0.31,invalid,36,36,0,down,5.6284492999993745,None,space,0.4150489999992715,None,,,,,,,,,0,36,36,36,754.4099335000001,,,,,,,,,,,,,754.3943797000002,754.4099335000001,754.4099335000001,754.4099335000001,760.0551568000001,,,,760.0623421,760.0739123000003,760.0739123000003,760.1209141999998,760.1211739,760.1374810999996,760.1374810999996,760.1374810999996,760.2204694000002,760.5544444999996,,,,,,,,,,,,,,,,,,,,,,down,5.6284492999993745,None,space,0.4150489999992715,None,P138,001,2025-04-08_09h13.25.378,posner_endo_new1,2024.2.4,59.9778921489538,2025-04-08 09h13.33.963878 +0100,
cube_l.png,0.1,0.31,invalid,37,37,0,down,4.899577500000305,None,space,0.42341339999984484,None,,,,,,,,,0,37,37,37,760.5705510999996,,,,,,,,,,,,,760.5546425000002,760.5705510999996,760.5705510999996,760.5705510999996,765.4828196999997,,,,765.4900291000004,765.5016240000004,765.5016240000004,765.5484061999996,765.5486651000001,765.5652541,765.5652541,765.5652541,765.6482137000003,765.9989431000004,,,,,,,,,,,,,,,,,,,,,,down,4.899577500000305,None,space,0.42341339999984484,None,P138,001,2025-04-08_09h13.25.378,posner_endo_new1,2024.2.4,59.9778921489538,2025-04-08 09h13.33.963878 +0100,
cube_l.png,0.1,0.31,invalid,38,38,0,down,6.176028699999733,None,space,0.42941269999937504,None,,,,,,,,,0,38,38,38,766.0149101999996,,,,,,,,,,,,,765.9991418999998,766.0149101999996,766.0149101999996,766.0149101999996,772.1926294000004,,,,772.1999290000003,772.2114658,772.2114658,772.2586835000002,772.2589423,772.2750535000005,772.2750535000005,772.2750535000005,772.3414039999998,772.7086422000002,,,,,,,,,,,,,,,,,,,,,,down,6.176028699999733,None,space,0.42941269999937504,None,P138,001,2025-04-08_09h13.25.378,posner_endo_new1,2024.2.4,59.9778921489538,2025-04-08 09h13.33.963878 +0100,
cube_r.png,0.1,0.31,valid,39,39,0,down,7.35431890000018,None,space,0.4386661999997159,None,,,,,,,,,0,39,39,39,772.7244945000002,,,,,,,,,,,,,772.7088427999997,772.7244945000002,772.7244945000002,772.7244945000002,780.0845546,,,,780.0917429000001,780.1032951999996,780.1032951999996,780.1504273999999,780.1506846000002,780.1666545999997,780.1666545999997,780.1666545999997,780.2335083999997,780.6174154,,,,,,,,,,,,,,,,,,,,,,down,7.35431890000018,None,space,0.4386661999997159,None,P138,001,2025-04-08_09h13.25.378,posner_endo_new1,2024.2.4,59.9778921489538,2025-04-08 09h13.33.963878 +0100,
cube_l.png,0.1,0.31,invalid,40,40,0,down,3.0457689000004393,None,space,0.37383090000002994,None,,,,,,,,,0,40,40,40,780.6332270000003,,,,,,,,,,,,,780.6176132999999,780.6332270000003,780.6332270000003,780.6332270000003,783.6810206999999,,,,783.6881365999998,783.6996945999999,783.6996945999999,783.7467249000001,783.7469795999996,783.7631020999997,783.7631020999997,783.7631020999997,783.8465705999997,784.1470016000003,,,,,,,,,,,,,,,,,,,,,,down,3.0457689000004393,None,space,0.37383090000002994,None,P138,001,2025-04-08_09h13.25.378,posner_endo_new1,2024.2.4,59.9778921489538,2025-04-08 09h13.33.963878 +0100,
cube_l.png,0.1,10,catch,41,41,0,down,4.971284700000069,None,None,,,,,,,,,,,0,41,41,41,784.1628354000004,,,,,,,,,,,,,784.1471993000005,784.1628354000004,784.1628354000004,784.1628354000004,789.1419797999997,,,,789.1491271000004,789.1607646000002,789.1607646000002,789.2077428000002,789.2080073999996,789.2242874000003,789.2242874000003,789.2242874000003,789.3074683000004,792.2216816,,,,791.3220315999997,792.2377932999998,792.2377932999998,792.2377932999998,,,,,,,,,,,,,,,down,4.971284700000069,None,None,,,P138,001,2025-04-08_09h13.25.378,posner_endo_new1,2024.2.4,59.9778921489538,2025-04-08 09h13.33.963878 +0100,
cube_l.png,0.1,-0.31,valid,42,42,0,down,3.1522406000003684,None,space,0.46454480000011245,None,,,,,,,,,0,42,42,42,792.2377932999998,,,,,,,,,,,,,792.2218694000003,792.2377932999998,792.2377932999998,792.2377932999998,795.4021424000002,,,,795.4092939000002,795.4207796000001,795.4207796000001,795.4681725999999,795.4684311999999,795.4846403000001,795.4846403000001,795.4846403000001,795.5675061000002,795.9513980000002,,,,,,,,,,,,,,,,,,,,,,down,3.1522406000003684,None,space,0.46454480000011245,None,P138,001,2025-04-08_09h13.25.378,posner_endo_new1,2024.2.4,59.9778921489538,2025-04-08 09h13.33.963878 +0100,
cube_l.png,0.1,10,catch,43,43,0,down,5.343294000000242,None,None,,,,,,,,,,,0,43,43,43,795.9675027000003,,,,,,,,,,,,,795.9515964000002,795.9675027000003,795.9675027000003,795.9675027000003,801.3128088000003,,,,801.3199777,801.3315386000004,801.3315386000004,801.3786317000004,801.3788876999997,801.3952178,801.3952178,801.3952178,801.4785052999996,804.3925052000004,,,,803.4931071000001,804.4088486999999,804.4088486999999,804.4088486999999,,,,,,,,,,,,,,,down,5.343294000000242,None,None,,,P138,001,2025-04-08_09h13.25.378,posner_endo_new1,2024.2.4,59.9778921489538,2025-04-08 09h13.33.963878 +0100,
cube_l.png,0.1,0.31,invalid,44,44,0,down,0.7413392999997086,None,space,0.43561550000049465,None,,,,,,,,,0,44,44,44,804.4088486999999,,,,,,,,,,,,,804.3926967999996,804.4088486999999,804.4088486999999,804.4088486999999,805.1586940999996,,,,805.1659066000002,805.1774400000004,805.1774400000004,805.2248142999997,805.2250698999997,805.2413032000004,805.2413032000004,805.2413032000004,805.3075521999999,805.6917715999998,,,,,,,,,,,,,,,,,,,,,,down,0.7413392999997086,None,space,0.43561550000049465,None,P138,001,2025-04-08_09h13.25.378,posner_endo_new1,2024.2.4,59.9778921489538,2025-04-08 09h13.33.963878 +0100,
cube_l.png,0.1,0.31,invalid,45,45,0,down,4.164483500000642,None,space,0.4950269999999364,None,,,,,,,,,0,45,45,45,805.7074050000001,,,,,,,,,,,,,805.6919883,805.7074050000001,805.7074050000001,805.7074050000001,809.8874826000001,,,,809.8947065000002,809.9059998000002,809.9059998000002,809.9531686999999,809.9534265000002,809.9698932000001,809.9698932000001,809.9698932000001,810.0530734000004,810.4703159999999,,,,,,,,,,,,,,,,,,,,,,down,4.164483500000642,None,space,0.4950269999999364,None,P138,001,2025-04-08_09h13.25.378,posner_endo_new1,2024.2.4,59.9778921489538,2025-04-08 09h13.33.963878 +0100,
cube_r.png,0.1,0.31,valid,46,46,0,down,2.3122903000003134,None,space,0.43322080000052665,None,,,,,,,,,0,46,46,46,810.4860687999999,,,,,,,,,,,,,810.4705133999996,810.4860687999999,810.4860687999999,810.4860687999999,812.8011116999996,,,,812.8084145000003,812.8198008999998,812.8198008999998,812.8667063000003,812.8669659999996,812.8834702000004,812.8834702000004,812.8834702000004,812.9667559999998,813.3175460000002,,,,,,,,,,,,,,,,,,,,,,down,2.3122903000003134,None,space,0.43322080000052665,None,P138,001,2025-04-08_09h13.25.378,posner_endo_new1,2024.2.4,59.9778921489538,2025-04-08 09h13.33.963878 +0100,
cube_l.png,0.1,-0.31,valid,47,47,0,down,3.1939008999997895,None,space,0.5693099999998594,None,,,,,,,,,0,47,47,47,813.3331246999996,,,,,,,,,,,,,813.3177532999998,813.3331246999996,813.3331246999996,813.3331246999996,816.5306835000001,,,,816.5378463999996,816.5493076000002,816.5493076000002,816.5963545000004,816.5966101000004,816.6130504000002,816.6130504000002,816.6130504000002,816.6961202000002,817.1965516,,,,,,,,,,,,,,,,,,,,,,down,3.1939008999997895,None,space,0.5693099999998594,None,P138,001,2025-04-08_09h13.25.378,posner_endo_new1,2024.2.4,59.9778921489538,2025-04-08 09h13.33.963878 +0100,
cube_r.png,0.1,-0.31,invalid,48,48,0,down,3.5794830000004367,None,space,0.517901900000652,None,,,,,,,,,0,48,48,48,817.2120007000003,,,,,,,,,,,,,817.1967529000003,817.2120007000003,817.2120007000003,817.2120007000003,820.7929561999999,,,,820.8001561000001,820.8117658000001,820.8117658000001,820.8591067999996,820.8593621,820.8749735000001,820.8749735000001,820.8749735000001,820.9587247,821.4089477999996,,,,,,,,,,,,,,,,,,,,,,down,3.5794830000004367,None,space,0.517901900000652,None,P138,001,2025-04-08_09h13.25.378,posner_endo_new1,2024.2.4,59.9778921489538,2025-04-08 09h13.33.963878 +0100,
cube_r.png,0.1,10,catch,49,49,0,down,3.7336099999993166,None,None,,,,,,,,,,,0,49,49,49,821.4246837000001,,,,,,,,,,,,,821.4091421000003,821.4246837000001,821.4246837000001,821.4246837000001,825.1716096,,,,825.1787654999998,825.1904076000001,825.1904076000001,825.2375480000001,825.2378064000004,825.2538439999998,825.2538439999998,825.2538439999998,825.3206794999996,828.2516481000002,,,,827.3352868000002,828.2677169999997,828.2677169999997,828.2677169999997,,,,,,,,,,,,,,,down,3.7336099999993166,None,None,,,P138,001,2025-04-08_09h13.25.378,posner_endo_new1,2024.2.4,59.9778921489538,2025-04-08 09h13.33.963878 +0100,
cube_l.png,0.1,-0.31,valid,50,50,0,down,1.7865891999999803,None,space,0.6639224999998987,None,,,,,,,,,0,50,50,50,828.2677169999997,,,,,,,,,,,,,828.2518327999996,828.2677169999997,828.2677169999997,828.2677169999997,830.0665864000002,,,,830.0737325999999,830.0852458999998,830.0852458999998,830.1326749999998,830.1329314000004,830.1490574999998,830.1490574999998,830.1490574999998,830.2156949999999,830.8159530000003,,,,,,,,,,,,,,,,,,,,,,down,1.7865891999999803,None,space,0.6639224999998987,None,P138,001,2025-04-08_09h13.25.378,posner_endo_new1,2024.2.4,59.9778921489538,2025-04-08 09h13.33.963878 +0100,
cube_l.png,0.1,-0.31,valid,51,51,0,down,3.5666713000000527,None,space,0.9184943000000203,None,,,,,,,,,0,51,51,51,830.8317522999996,,,,,,,,,,,,,830.8161465000003,830.8317522999996,830.8317522999996,830.8317522999996,834.4122909999996,,,,834.4194958999997,834.4310574000001,834.4310574000001,834.4779821000002,834.4782375000004,834.4942532000005,834.4942532000005,834.4942532000005,834.5779443000001,835.4275994999998,,,,,,,,,,,,,,,,,,,,,,down,3.5666713000000527,None,space,0.9184943000000203,None,P138,001,2025-04-08_09h13.25.378,posner_endo_new1,2024.2.4,59.9778921489538,2025-04-08 09h13.33.963878 +0100,
cube_r.png,0.1,-0.31,invalid,52,52,0,down,3.931191900000158,None,space,0.4349914999993416,None,,,,,,,,,0,52,52,52,835.4436216000004,,,,,,,,,,,,,835.4278013000003,835.4436216000004,835.4436216000004,835.4436216000004,839.3903502000003,,,,839.3974801000004,839.4090902999997,839.4090902999997,839.4563294999998,839.4565845999996,839.4726264999999,839.4726264999999,839.4726264999999,839.5395513000003,839.9233185000003,,,,,,,,,,,,,,,,,,,,,,down,3.931191900000158,None,space,0.4349914999993416,None,P138,001,2025-04-08_09h13.25.378,posner_endo_new1,2024.2.4,59.9778921489538,2025-04-08 09h13.33.963878 +0100,
cube_l.png,0.1,-0.31,valid,53,53,0,down,3.659571899999719,None,space,0.5223004999998011,None,,,,,,,,,0,53,53,53,839.9391862000002,,,,,,,,,,,,,839.9235194000003,839.9391862000002,839.9391862000002,839.9391862000002,843.6025766000002,,,,843.6097625000002,843.6213932,843.6213932,843.6684537000001,843.6686982000001,843.6852949000004,843.6852949000004,843.6852949000004,843.7514941999998,844.2184362999997,,,,,,,,,,,,,,,,,,,,,,down,3.659571899999719,None,space,0.5223004999998011,None,P138,001,2025-04-08_09h13.25.378,posner_endo_new1,2024.2.4,59.9778921489538,2025-04-08 09h13.33.963878 +0100,
cube_r.png,0.1,10,catch,54,54,0,down,3.4440598000001046,None,None,,,,,,,,,,,0,54,54,54,844.2347877000002,,,,,,,,,,,,,844.2186191999999,844.2347877000002,844.2347877000002,844.2347877000002,847.6842011999997,,,,847.7076782000004,847.7199252,847.7199252,847.7477070000004,847.7480769000003,847.7643048999998,847.7643048999998,847.7643048999998,847.8474272000003,850.7619445,,,,849.8621264000003,850.7778460999998,850.7778460999998,850.7778460999998,,,,,,,,,,,,,,,down,3.4440598000001046,None,None,,,P138,001,2025-04-08_09h13.25.378,posner_endo_new1,2024.2.4,59.9778921489538,2025-04-08 09h13.33.963878 +0100,
cube_l.png,0.1,0.31,invalid,55,55,0,down,2.1329641000002084,None,space,0.5604905000000144,None,,,,,,,,,0,55,55,55,850.7778460999998,,,,,,,,,,,,,850.7622369000001,850.7778460999998,850.7778460999998,850.7778460999998,852.9268739999998,,,,852.9386677000002,852.9489686999996,852.9489686999996,852.9923613999999,852.9927374999997,853.0088916000004,853.0088916000004,853.0088916000004,853.0922139000004,853.5762960000002,,,,,,,,,,,,,,,,,,,,,,down,2.1329641000002084,None,space,0.5604905000000144,None,P138,001,2025-04-08_09h13.25.378,posner_endo_new1,2024.2.4,59.9778921489538,2025-04-08 09h13.33.963878 +0100,
cube_l.png,0.1,-0.31,valid,56,56,0,down,7.263036500000453,None,space,0.4045934000005218,None,,,,,,,,,0,56,56,56,853.5917293000002,,,,,,,,,,,,,853.5766111000003,853.5917293000002,853.5917293000002,853.5917293000002,860.8688546000003,,,,860.8807377000003,860.8910827999998,860.8910827999998,860.9343715000005,860.9347483000001,860.9508329,860.9508329,860.9508329,861.0340024999996,861.3682414000004,,,,,,,,,,,,,,,,,,,,,,down,7.263036500000453,None,space,0.4045934000005218,None,P138,001,2025-04-08_09h13.25.378,posner_endo_new1,2024.2.4,59.9778921489538,2025-04-08 09h13.33.963878 +0100,
cube_r.png,0.1,0.31,valid,57,57,0,down,3.286872499999845,None,space,0.3947596000007252,None,,,,,,,,,0,57,57,57,861.3836666999996,,,,,,,,,,,,,861.3685499000003,861.3836666999996,861.3836666999996,861.3836666999996,864.6811887000003,,,,864.6889511999998,864.6997769,864.6997769,864.7469915000001,864.7473713999998,864.7635292000004,864.7635292000004,864.7635292000004,864.8467615,865.1644740000002,,,,,,,,,,,,,,,,,,,,,,down,3.286872499999845,None,space,0.3947596000007252,None,P138,001,2025-04-08_09h13.25.378,posner_endo_new1,2024.2.4,59.9778921489538,2025-04-08 09h13.33.963878 +0100,
cube_r.png,0.1,-0.31,invalid,58,58,0,down,3.722534900000028,None,space,0.394695099999808,None,,,,,,,,,0,58,58,58,865.1797254000003,,,,,,,,,,,,,865.1647757999999,865.1797254000003,865.1797254000003,865.1797254000003,868.9105608,,,,868.9221938000001,868.9324674999998,868.9324674999998,868.9761199000004,868.9764003,868.9926623000001,868.9926623000001,868.9926623000001,869.0755589999999,869.3933244999998,,,,,,,,,,,,,,,,,,,,,,down,3.722534900000028,None,space,0.394695099999808,None,P138,001,2025-04-08_09h13.25.378,posner_endo_new1,2024.2.4,59.9778921489538,2025-04-08 09h13.33.963878 +0100,
cube_l.png,0.1,0.31,invalid,59,59,0,down,2.3980644999992364,None,space,0.4539408000000549,None,,,,,,,,,0,59,59,59,869.4088270000002,,,,,,,,,,,,,869.3935401999997,869.4088270000002,869.4088270000002,869.4088270000002,871.8238577000002,,,,871.8314441000002,871.8426201000002,871.8426201000002,871.8898603999996,871.8901286999999,871.9063690000003,871.9063690000003,871.9063690000003,871.9892885999998,872.3733325000003,,,,,,,,,,,,,,,,,,,,,,down,2.3980644999992364,None,space,0.4539408000000549,None,P138,001,2025-04-08_09h13.25.378,posner_endo_new1,2024.2.4,59.9778921489538,2025-04-08 09h13.33.963878 +0100,
