cue_img,cue_soa,target_y,trial,thisN,thisTrialN,thisRepN,key_control2.keys,key_control2.rt,key_control2.duration,key_resp.keys,key_resp.rt,key_resp.duration,practice.thisRepN,practice.thisTrialN,practice.thisN,practice.thisIndex,block1.thisRepN,block1.thisTrialN,block1.thisN,block1.thisIndex,block2.thisRepN,block2.thisTrialN,block2.thisN,block2.thisIndex,thisRow.t,notes,instructions.started,instructions_txt.started,key_control.started,instructions.stopped,key_control.keys,key_control.rt,key_control.duration,ready.started,ready_txt.started,ready_txt.stopped,ready.stopped,fix.started,fixation.started,key_control2.started,fixation_cross.started,fix.stopped,practice.key_control2.keys,practice.key_control2.rt,practice.key_control2.duration,cue.started,cube.started,fixation_cross_cue.started,cue.stopped,target.started,fixation_target.started,fixation_cross_target.started,key_resp.started,star.started,target.stopped,practice.key_resp.keys,practice.key_resp.rt,practice.key_resp.duration,star.stopped,fixation_target.stopped,fixation_cross_target.stopped,key_resp.stopped,block1.key_control2.keys,block1.key_control2.rt,block1.key_control2.duration,block1.key_resp.keys,block1.key_resp.rt,block1.key_resp.duration,break_2.started,text.started,key_control3.started,text.stopped,break_2.stopped,key_control3.keys,key_control3.rt,key_control3.duration,block2.key_control2.keys,block2.key_control2.rt,block2.key_control2.duration,block2.key_resp.keys,block2.key_resp.rt,block2.key_resp.duration,participant,session,date,expName,psychopyVersion,frameRate,expStart,
,,,,,,,,,,,,,,,,,,,,,,,,,,,0.0074398999986442504,0.022698199998558266,0.022698199998558266,12.54441979999865,up,12.520922800000335,None,,,,,,,,,,,,,,,,,,,,,,,,,,,,,,,,,,,,,,,,,,,,,,,,,,P139,001,2025-04-08_10h24.11.399,posner_endo_new1,2024.2.4,60.16496028784162,2025-04-08 10h24.17.941585 +0100,
,,,,,,,,,,,,,,,,,,,,,,,,,,,,,,,,,,12.544467699999586,12.560550299998795,15.560891600000105,15.541133499998978,,,,,,,,,,,,,,,,,,,,,,,,,,,,,,,,,,,,,,,,,,,,,,P139,001,2025-04-08_10h24.11.399,posner_endo_new1,2024.2.4,60.16496028784162,2025-04-08 10h24.17.941585 +0100,
cube_r.png,0.1,-0.31,invalid,0,0,0,down,19.527251100000285,None,space,0.5708281999995961,None,0,0,0,2,,,,,,,,,15.560891600000105,,,,,,,,,,,,,15.548684199999116,15.560891600000105,15.560891600000105,15.560891600000105,35.1048213999984,down,19.527251100000285,None,35.115130000000136,35.12520249999943,35.12520249999943,35.170805499999915,35.17103099999986,35.18718069999886,35.18718069999886,35.18718069999886,35.25397769999836,35.77068709999912,space,0.5708281999995961,None,,,,,,,,,,,,,,,,,,,,,,,,,P139,001,2025-04-08_10h24.11.399,posner_endo_new1,2024.2.4,60.16496028784162,2025-04-08 10h24.17.941585 +0100,
cube_r.png,0.1,0.31,valid,1,1,0,down,5.476846999999907,None,space,0.3221288000004279,None,0,1,1,7,,,,,,,,,35.78680499999973,,,,,,,,,,,,,35.77086599999893,35.78680499999973,35.78680499999973,35.78680499999973,41.26512289999846,down,5.476846999999907,None,41.272694899998896,41.28379039999891,41.28379039999891,41.33118209999884,41.33142499999849,41.34763319999911,41.34763319999911,41.34763319999911,41.41421300000002,41.681547899999714,space,0.3221288000004279,None,,,,,,,,,,,,,,,,,,,,,,,,,P139,001,2025-04-08_10h24.11.399,posner_endo_new1,2024.2.4,60.16496028784162,2025-04-08 10h24.17.941585 +0100,
cube_r.png,0.1,-0.31,invalid,2,2,0,down,6.301794599999994,None,space,0.5673564999997325,None,0,2,2,9,,,,,,,,,41.69753209999908,,,,,,,,,,,,,41.68171689999872,41.69753209999908,41.69753209999908,41.69753209999908,48.00827089999984,down,6.301794599999994,None,48.01570139999967,48.02748949999841,48.02748949999841,48.07368959999985,48.07393159999992,48.09077549999893,48.09077549999893,48.09077549999893,48.1571600999996,48.67431719999877,space,0.5673564999997325,None,,,,,,,,,,,,,,,,,,,,,,,,,P139,001,2025-04-08_10h24.11.399,posner_endo_new1,2024.2.4,60.16496028784162,2025-04-08 10h24.17.941585 +0100,
cube_r.png,0.1,0.31,valid,3,3,0,down,16.27006260000053,None,space,0.4419412999995984,None,0,3,3,10,,,,,,,,,48.690247499998804,,,,,,,,,,,,,48.67448499999955,48.690247499998804,48.690247499998804,48.690247499998804,64.97427590000007,down,16.27006260000053,None,64.98208919999888,64.99318669999957,64.99318669999957,65.04011999999966,65.04036300000007,65.05683899999894,65.05683899999894,65.05683899999894,65.12345339999956,65.50703079999948,space,0.4419412999995984,None,,,,,,,,,,,,,,,,,,,,,,,,,P139,001,2025-04-08_10h24.11.399,posner_endo_new1,2024.2.4,60.16496028784162,2025-04-08 10h24.17.941585 +0100,
cube_l.png,0.1,0.31,invalid,4,4,0,down,4.581370699999752,None,space,1.0075512000003073,None,0,4,4,1,,,,,,,,,65.52301689999877,,,,,,,,,,,,,65.50719769999887,65.52301689999877,65.52301689999877,65.52301689999877,70.11898699999983,down,4.581370699999752,None,70.12601129999894,70.13761519999935,70.13761519999935,70.18455979999999,70.18479959999968,70.2015365999996,70.2015365999996,70.2015365999996,70.26818829999866,71.21784059999845,space,1.0075512000003073,None,,,,,,,,,,,,,,,,,,,,,,,,,P139,001,2025-04-08_10h24.11.399,posner_endo_new1,2024.2.4,60.16496028784162,2025-04-08 10h24.17.941585 +0100,
cube_l.png,0.1,-0.31,valid,5,5,0,down,5.990470600001572,None,space,0.555228299999726,None,0,5,5,0,,,,,,,,,71.23349830000006,,,,,,,,,,,,,71.21800729999995,71.23349830000006,71.23349830000006,71.23349830000006,77.2285353999996,down,5.990470600001572,None,77.23539339999843,77.24741539999923,77.24741539999923,77.29400179999902,77.29424409999956,77.3108446999995,77.3108446999995,77.3108446999995,77.39417419999882,77.87773779999952,space,0.555228299999726,None,,,,,,,,,,,,,,,,,,,,,,,,,P139,001,2025-04-08_10h24.11.399,posner_endo_new1,2024.2.4,60.16496028784162,2025-04-08 10h24.17.941585 +0100,
cube_l.png,0.1,0.31,invalid,6,6,0,down,5.138556300000346,None,space,0.3877894999986893,None,0,6,6,5,,,,,,,,,77.89351709999937,,,,,,,,,,,,,77.87790499999937,77.89351709999937,77.89351709999937,77.89351709999937,83.03880239999853,down,5.138556300000346,None,83.04569159999846,83.05720159999873,83.05720159999873,83.10490869999921,83.10515449999912,83.12157079999997,83.12157079999997,83.12157079999997,83.1882270999995,83.52207149999958,space,0.3877894999986893,None,,,,,,,,,,,,,,,,,,,,,,,,,P139,001,2025-04-08_10h24.11.399,posner_endo_new1,2024.2.4,60.16496028784162,2025-04-08 10h24.17.941585 +0100,
cube_r.png,0.1,10,catch,7,7,0,down,5.518059899999571,None,None,,,0,7,7,3,,,,,,,,,83.53786359999867,,,,,,,,,,,,,83.52223739999863,83.53786359999867,83.53786359999867,83.53786359999867,89.06583339999997,down,5.518059899999571,None,89.07264589999977,89.08402579999893,89.08402579999893,89.13237799999843,89.13261939999938,89.1488292999984,89.1488292999984,89.1488292999984,89.21540579999964,92.14637739999853,None,,,91.22982149999916,92.16180949999944,92.16180949999944,92.16180949999944,,,,,,,,,,,,,,,,,,,,,P139,001,2025-04-08_10h24.11.399,posner_endo_new1,2024.2.4,60.16496028784162,2025-04-08 10h24.17.941585 +0100,
cube_l.png,0.1,-0.31,valid,8,8,0,down,3.773728399999527,None,space,0.4089530000001105,None,0,8,8,8,,,,,,,,,92.16180949999944,,,,,,,,,,,,,92.14654059999884,92.16180949999944,92.16180949999944,92.16180949999944,95.94253889999891,down,3.773728399999527,None,95.9494227999985,95.96131909999895,95.96131909999895,96.00841479999872,96.008658499999,96.02491519999967,96.02491519999967,96.02491519999967,96.10787299999902,96.44198179999876,space,0.4089530000001105,None,,,,,,,,,,,,,,,,,,,,,,,,,P139,001,2025-04-08_10h24.11.399,posner_endo_new1,2024.2.4,60.16496028784162,2025-04-08 10h24.17.941585 +0100,
cube_r.png,0.1,-0.31,invalid,9,9,0,down,8.470035599999392,None,space,0.5678714999994554,None,0,9,9,6,,,,,,,,,96.45775429999958,,,,,,,,,,,,,96.44215039999835,96.45775429999958,96.45775429999958,96.45775429999958,104.93352139999843,down,8.470035599999392,None,104.94052059999922,104.95234149999851,104.95234149999851,104.99899980000009,104.99924399999873,105.01583599999867,105.01583599999867,105.01583599999867,105.09916509999857,105.59914339999887,space,0.5678714999994554,None,,,,,,,,,,,,,,,,,,,,,,,,,P139,001,2025-04-08_10h24.11.399,posner_endo_new1,2024.2.4,60.16496028784162,2025-04-08 10h24.17.941585 +0100,
cube_l.png,0.1,-0.31,valid,10,10,0,down,10.543988499999614,None,space,0.5091458999995666,None,0,10,10,4,,,,,,,,,105.61538130000008,,,,,,,,,,,,,105.59931389999838,105.61538130000008,105.61538130000008,105.61538130000008,116.17190219999975,down,10.543988499999614,None,116.1787338999984,116.19068849999894,116.19068849999894,116.23770039999908,116.23793999999907,116.25428819999979,116.25428819999979,116.25428819999979,116.3206253999997,116.7711451999985,space,0.5091458999995666,None,,,,,,,,,,,,,,,,,,,,,,,,,P139,001,2025-04-08_10h24.11.399,posner_endo_new1,2024.2.4,60.16496028784162,2025-04-08 10h24.17.941585 +0100,
,,,,,,,,,,,,,,,,,,,,,,,,,,,,,,,,,,116.77126559999851,116.78693349999958,119.78773000000001,119.7676195999993,,,,,,,,,,,,,,,,,,,,,,,,,,,,,,,,,,,,,,,,,,,,,,P139,001,2025-04-08_10h24.11.399,posner_endo_new1,2024.2.4,60.16496028784162,2025-04-08 10h24.17.941585 +0100,
cube_l.png,0.1,10,catch,0,0,0,down,9.300016099999993,None,None,,,,,,,0,0,0,0,,,,,119.78773000000001,,,,,,,,,,,,,119.77901979999842,119.78773000000001,119.78773000000001,119.78773000000001,129.09207059999972,,,,129.0986232999985,129.11038459999872,129.11038459999872,129.15757949999897,129.1578243999993,129.17439989999912,129.17439989999912,129.17439989999912,129.2577470999986,132.1718607999992,,,,131.27230809999855,132.1878968000001,132.1878968000001,132.1878968000001,down,9.300016099999993,None,None,,,,,,,,,,,,,,,,,P139,001,2025-04-08_10h24.11.399,posner_endo_new1,2024.2.4,60.16496028784162,2025-04-08 10h24.17.941585 +0100,
cube_l.png,0.1,10,catch,1,1,0,down,7.772124299999632,None,None,,,,,,,0,1,1,1,,,,,132.1878968000001,,,,,,,,,,,,,132.17202759999964,132.1878968000001,132.1878968000001,132.1878968000001,139.96423789999972,,,,139.97068429999854,139.98229959999844,139.98229959999844,140.0298903999992,140.03013569999894,140.04661729999862,140.04661729999862,140.04661729999862,140.12986610000007,143.04397639999843,,,,142.14437219999854,143.0601362999987,143.0601362999987,143.0601362999987,down,7.772124299999632,None,None,,,,,,,,,,,,,,,,,P139,001,2025-04-08_10h24.11.399,posner_endo_new1,2024.2.4,60.16496028784162,2025-04-08 10h24.17.941585 +0100,
cube_l.png,0.1,0.31,invalid,2,2,0,down,4.115181900000607,None,space,0.4124813999987964,None,,,,,0,2,2,2,,,,,143.0601362999987,,,,,,,,,,,,,143.04414489999908,143.0601362999987,143.0601362999987,143.0601362999987,147.18998250000004,,,,147.19648609999967,147.2080593999999,147.2080593999999,147.25600809999924,147.2562514000001,147.27259459999914,147.27259459999914,147.27259459999914,147.33931089999896,147.6894988999993,,,,,,,,down,4.115181900000607,None,space,0.4124813999987964,None,,,,,,,,,,,,,,,P139,001,2025-04-08_10h24.11.399,posner_endo_new1,2024.2.4,60.16496028784162,2025-04-08 10h24.17.941585 +0100,
cube_l.png,0.1,0.31,invalid,3,3,0,down,9.310101099999883,None,space,0.44199380000100064,None,,,,,0,3,3,3,,,,,147.70554469999843,,,,,,,,,,,,,147.68968379999933,147.70554469999843,147.70554469999843,147.70554469999843,157.02959399999963,,,,157.03607999999986,157.0476497999989,157.0476497999989,157.09587959999953,157.0961217999993,157.11245579999922,157.11245579999922,157.11245579999922,157.17895339999995,157.5627311999997,,,,,,,,down,9.310101099999883,None,space,0.44199380000100064,None,,,,,,,,,,,,,,,P139,001,2025-04-08_10h24.11.399,posner_endo_new1,2024.2.4,60.16496028784162,2025-04-08 10h24.17.941585 +0100,
cube_l.png,0.1,-0.31,valid,4,4,0,down,17.05362849999983,None,space,0.39155849999951897,None,,,,,0,4,4,4,,,,,157.57868579999922,,,,,,,,,,,,,157.56290809999882,157.57868579999922,157.57868579999922,157.57868579999922,174.64491889999954,,,,174.6513906,174.66313300000002,174.66313300000002,174.71116279999842,174.7114064999987,174.7276856999997,174.7276856999997,174.7276856999997,174.7944626999997,175.12805799999842,,,,,,,,down,17.05362849999983,None,space,0.39155849999951897,None,,,,,,,,,,,,,,,P139,001,2025-04-08_10h24.11.399,posner_endo_new1,2024.2.4,60.16496028784162,2025-04-08 10h24.17.941585 +0100,
cube_r.png,0.1,-0.31,invalid,5,5,0,down,5.255803599999126,None,space,0.4916997000000265,None,,,,,0,5,5,5,,,,,175.1439825999987,,,,,,,,,,,,,175.12824399999954,175.1439825999987,175.1439825999987,175.1439825999987,180.40608949999842,,,,180.4125538999997,180.42400589999852,180.42400589999852,180.47182299999986,180.47206659999938,180.48850569999922,180.48850569999922,180.48850569999922,180.55510629999844,180.98829609999848,,,,,,,,down,5.255803599999126,None,space,0.4916997000000265,None,,,,,,,,,,,,,,,P139,001,2025-04-08_10h24.11.399,posner_endo_new1,2024.2.4,60.16496028784162,2025-04-08 10h24.17.941585 +0100,
cube_r.png,0.1,0.31,valid,6,6,0,down,2.922828099999606,None,space,0.4248338999987027,None,,,,,0,6,6,6,,,,,181.0044213000001,,,,,,,,,,,,,180.98847549999846,181.0044213000001,181.0044213000001,181.0044213000001,183.93589269999939,,,,183.9423947999985,183.95407469999918,183.95407469999918,184.00129469999956,184.0015470999988,184.01768679999986,184.01768679999986,184.01768679999986,184.1015460999988,184.45189769999888,,,,,,,,down,2.922828099999606,None,space,0.4248338999987027,None,,,,,,,,,,,,,,,P139,001,2025-04-08_10h24.11.399,posner_endo_new1,2024.2.4,60.16496028784162,2025-04-08 10h24.17.941585 +0100,
cube_r.png,0.1,-0.31,invalid,7,7,0,down,5.563814499999353,None,space,0.415085700000418,None,,,,,0,7,7,7,,,,,184.46779369999967,,,,,,,,,,,,,184.45207299999856,184.46779369999967,184.46779369999967,184.46779369999967,190.04596159999892,,,,190.05258329999924,190.06406549999883,190.06406549999883,190.11204449999968,190.11229289999937,190.12864239999908,190.12864239999908,190.12864239999908,190.19520489999923,190.54545309999958,,,,,,,,down,5.563814499999353,None,space,0.415085700000418,None,,,,,,,,,,,,,,,P139,001,2025-04-08_10h24.11.399,posner_endo_new1,2024.2.4,60.16496028784162,2025-04-08 10h24.17.941585 +0100,
cube_l.png,0.1,-0.31,valid,8,8,0,down,22.238594899999953,None,space,0.4063277000004746,None,,,,,0,8,8,8,,,,,190.5614506999991,,,,,,,,,,,,,190.54563809999854,190.5614506999991,190.5614506999991,190.5614506999991,212.8060461999994,,,,212.81258219999836,212.8244481999991,212.8244481999991,212.87212659999932,212.8723676999998,212.88872449999872,212.88872449999872,212.88872449999872,212.95508609999888,213.3057231999992,,,,,,,,down,22.238594899999953,None,space,0.4063277000004746,None,,,,,,,,,,,,,,,P139,001,2025-04-08_10h24.11.399,posner_endo_new1,2024.2.4,60.16496028784162,2025-04-08 10h24.17.941585 +0100,
cube_r.png,0.1,-0.31,invalid,9,9,0,down,6.086089399999764,None,space,0.42236270000103104,None,,,,,0,9,9,9,,,,,213.32142190000013,,,,,,,,,,,,,213.30591019999883,213.32142190000013,213.32142190000013,213.32142190000013,219.41589099999874,,,,219.42220869999983,219.43360810000013,219.43360810000013,219.48200369999904,219.48224630000004,219.49863989999903,219.49863989999903,219.49863989999903,219.56530759999987,219.9319773999996,,,,,,,,down,6.086089399999764,None,space,0.42236270000103104,None,,,,,,,,,,,,,,,P139,001,2025-04-08_10h24.11.399,posner_endo_new1,2024.2.4,60.16496028784162,2025-04-08 10h24.17.941585 +0100,
cube_l.png,0.1,0.31,invalid,10,10,0,down,5.724091899999621,None,space,0.424438399999417,None,,,,,0,10,10,10,,,,,219.9481457999991,,,,,,,,,,,,,219.9321564999991,219.9481457999991,219.9481457999991,219.9481457999991,225.6763719999999,,,,225.6826594999984,225.6943089999986,225.6943089999986,225.74214859999847,225.74238969999897,225.75872589999926,225.75872589999926,225.75872589999926,225.84198370000013,226.19236509999973,,,,,,,,down,5.724091899999621,None,space,0.424438399999417,None,,,,,,,,,,,,,,,P139,001,2025-04-08_10h24.11.399,posner_endo_new1,2024.2.4,60.16496028784162,2025-04-08 10h24.17.941585 +0100,
cube_r.png,0.1,-0.31,invalid,11,11,0,down,5.534915199999887,None,space,0.3242619000011473,None,,,,,0,11,11,11,,,,,226.20830739999838,,,,,,,,,,,,,226.1925510000001,226.20830739999838,226.20830739999838,226.20830739999838,231.75311409999995,,,,231.75945019999926,231.77108059999955,231.77108059999955,231.81923039999856,231.8194601999985,231.83579669999926,231.83579669999926,231.83579669999926,231.90241699999933,232.1697611999989,,,,,,,,down,5.534915199999887,None,space,0.3242619000011473,None,,,,,,,,,,,,,,,P139,001,2025-04-08_10h24.11.399,posner_endo_new1,2024.2.4,60.16496028784162,2025-04-08 10h24.17.941585 +0100,
cube_r.png,0.1,0.31,valid,12,12,0,down,8.397686500000418,None,space,0.4120794000009482,None,,,,,0,12,12,12,,,,,232.18554929999846,,,,,,,,,,,,,232.16993139999977,232.18554929999846,232.18554929999846,232.18554929999846,240.59424799999942,,,,240.60058989999925,240.61234069999955,240.61234069999955,240.6602600999995,240.66050369999903,240.67699549999998,240.67699549999998,240.67699549999998,240.76015740000003,241.09390379999968,,,,,,,,down,8.397686500000418,None,space,0.4120794000009482,None,,,,,,,,,,,,,,,P139,001,2025-04-08_10h24.11.399,posner_endo_new1,2024.2.4,60.16496028784162,2025-04-08 10h24.17.941585 +0100,
cube_l.png,0.1,10,catch,13,13,0,down,7.913804899999377,None,None,,,,,,,0,13,13,13,,,,,241.1096467999996,,,,,,,,,,,,,241.0940845999994,241.1096467999996,241.1096467999996,241.1096467999996,249.03603459999977,,,,249.04711549999956,249.05713919999835,249.05713919999835,249.1016084999992,249.1019336999998,249.1181661999999,249.1181661999999,249.1181661999999,249.2010319000001,252.11562309999863,,,,251.21574879999935,252.1317171999999,252.1317171999999,252.1317171999999,down,7.913804899999377,None,None,,,,,,,,,,,,,,,,,P139,001,2025-04-08_10h24.11.399,posner_endo_new1,2024.2.4,60.16496028784162,2025-04-08 10h24.17.941585 +0100,
cube_r.png,0.1,-0.31,invalid,14,14,0,down,4.948296900000059,None,space,0.6024682000006578,None,,,,,0,14,14,14,,,,,252.1317171999999,,,,,,,,,,,,,252.1158736999987,252.1317171999999,252.1317171999999,252.1317171999999,257.0943893999993,,,,257.104984399999,257.11510759999874,257.11510759999874,257.1601286999994,257.1603761999995,257.1765594999997,257.1765594999997,257.1765594999997,257.2598367999999,257.79350089999934,,,,,,,,down,4.948296900000059,None,space,0.6024682000006578,None,,,,,,,,,,,,,,,P139,001,2025-04-08_10h24.11.399,posner_endo_new1,2024.2.4,60.16496028784162,2025-04-08 10h24.17.941585 +0100,
cube_l.png,0.1,-0.31,valid,15,15,0,down,6.422776599998542,None,space,0.7130373999989388,None,,,,,0,15,15,15,,,,,257.8092313999987,,,,,,,,,,,,,257.7936804000001,257.8092313999987,257.8092313999987,257.8092313999987,264.2370145999994,,,,264.2437897999989,264.2556937999998,264.2556937999998,264.30268239999896,264.3029239999996,264.31931899999836,264.31931899999836,264.31931899999836,264.40258599999834,265.0360275999992,,,,,,,,down,6.422776599998542,None,space,0.7130373999989388,None,,,,,,,,,,,,,,,P139,001,2025-04-08_10h24.11.399,posner_endo_new1,2024.2.4,60.16496028784162,2025-04-08 10h24.17.941585 +0100,
cube_r.png,0.1,10,catch,16,16,0,down,6.244025199999669,None,None,,,,,,,0,16,16,16,,,,,265.0518358999998,,,,,,,,,,,,,265.03620319999936,265.0518358999998,265.0518358999998,265.0518358999998,271.3127053999997,,,,271.31923539999843,271.33074399999896,271.33074399999896,271.37911129999884,271.37935059999836,271.3953395999997,271.3953395999997,271.3953395999997,271.4617875999993,274.39288959999976,,,,273.47666369999934,274.4087380000001,274.4087380000001,274.4087380000001,down,6.244025199999669,None,None,,,,,,,,,,,,,,,,,P139,001,2025-04-08_10h24.11.399,posner_endo_new1,2024.2.4,60.16496028784162,2025-04-08 10h24.17.941585 +0100,
cube_r.png,0.1,10,catch,17,17,0,down,7.318635100000392,None,None,,,,,,,0,17,17,17,,,,,274.4087380000001,,,,,,,,,,,,,274.39306469999974,274.4087380000001,274.4087380000001,274.4087380000001,281.7353267999988,,,,281.7418068999996,281.7535269,281.7535269,281.80135019999943,281.80159119999917,281.81796459999896,281.81796459999896,281.81796459999896,281.8845913999994,284.8150367999988,,,,283.89931709999837,284.8316691,284.8316691,284.8316691,down,7.318635100000392,None,None,,,,,,,,,,,,,,,,,P139,001,2025-04-08_10h24.11.399,posner_endo_new1,2024.2.4,60.16496028784162,2025-04-08 10h24.17.941585 +0100,
cube_l.png,0.1,0.31,invalid,18,18,0,down,3.456046100000094,None,space,0.6116845000015019,None,,,,,0,18,18,18,,,,,284.8316691,,,,,,,,,,,,,284.81520499999897,284.8316691,284.8316691,284.8316691,288.295478,,,,288.3018964999992,288.3135528999992,288.3135528999992,288.36138149999897,288.3616315999989,288.3781662000001,288.3781662000001,288.3781662000001,288.461324599999,288.99465339999915,,,,,,,,down,3.456046100000094,None,space,0.6116845000015019,None,,,,,,,,,,,,,,,P139,001,2025-04-08_10h24.11.399,posner_endo_new1,2024.2.4,60.16496028784162,2025-04-08 10h24.17.941585 +0100,
cube_l.png,0.1,10,catch,19,19,0,down,5.477263099999618,None,None,,,,,,,0,19,19,19,,,,,289.01064039999983,,,,,,,,,,,,,288.9948368999994,289.01064039999983,289.01064039999983,289.01064039999983,294.4892147999999,,,,294.4954792999997,294.50738349999847,294.50738349999847,294.55491959999927,294.5551471999988,294.5715712000001,294.5715712000001,294.5715712000001,294.6380204999987,297.5690298999998,,,,296.6523348999999,297.5850381,297.5850381,297.5850381,down,5.477263099999618,None,None,,,,,,,,,,,,,,,,,P139,001,2025-04-08_10h24.11.399,posner_endo_new1,2024.2.4,60.16496028784162,2025-04-08 10h24.17.941585 +0100,
cube_l.png,0.1,0.31,invalid,20,20,0,down,3.326639499999146,None,space,0.46571059999951103,None,,,,,0,20,20,20,,,,,297.5850381,,,,,,,,,,,,,297.5691981,297.5850381,297.5850381,297.5850381,300.9157492999984,,,,300.92208759999994,300.9336650999994,300.9336650999994,300.98153139999886,300.98177099999884,300.9983702999998,300.9983702999998,300.9983702999998,301.0649563999996,301.46551550000004,,,,,,,,down,3.326639499999146,None,space,0.46571059999951103,None,,,,,,,,,,,,,,,P139,001,2025-04-08_10h24.11.399,posner_endo_new1,2024.2.4,60.16496028784162,2025-04-08 10h24.17.941585 +0100,
cube_l.png,0.1,-0.31,valid,21,21,0,down,6.381970200000069,None,space,0.4233622000010655,None,,,,,0,21,21,21,,,,,301.48119899999983,,,,,,,,,,,,,301.4656981999997,301.48119899999983,301.48119899999983,301.48119899999983,307.87526219999927,,,,307.88160419999986,307.8932842999984,307.8932842999984,307.94127839999965,307.94152419999955,307.95795069999986,307.95795069999986,307.95795069999986,308.0239652,308.39113279999947,,,,,,,,down,6.381970200000069,None,space,0.4233622000010655,None,,,,,,,,,,,,,,,P139,001,2025-04-08_10h24.11.399,posner_endo_new1,2024.2.4,60.16496028784162,2025-04-08 10h24.17.941585 +0100,
cube_r.png,0.1,0.31,valid,22,22,0,down,9.040334999999686,None,space,0.35282070000175736,None,,,,,0,22,22,22,,,,,308.4074578999989,,,,,,,,,,,,,308.3913085999993,308.4074578999989,308.4074578999989,308.4074578999989,317.44905219999964,,,,317.4553529999994,317.4670067999996,317.4670067999996,317.51489989999936,317.51514139999927,317.5314645999988,317.5314645999988,317.5314645999988,317.6144313999994,317.8980455000001,,,,,,,,down,9.040334999999686,None,space,0.35282070000175736,None,,,,,,,,,,,,,,,P139,001,2025-04-08_10h24.11.399,posner_endo_new1,2024.2.4,60.16496028784162,2025-04-08 10h24.17.941585 +0100,
cube_r.png,0.1,-0.31,invalid,23,23,0,down,6.42066960000011,None,space,0.4637475999988965,None,,,,,0,23,23,23,,,,,317.9143424999984,,,,,,,,,,,,,317.8982309999992,317.9143424999984,317.9143424999984,317.9143424999984,324.34167029999844,,,,324.3479080999987,324.35961679999855,324.35961679999855,324.4074342999993,324.40767659999983,324.4244108999992,324.4244108999992,324.4244108999992,324.4906725000001,324.89131669999915,,,,,,,,down,6.42066960000011,None,space,0.4637475999988965,None,,,,,,,,,,,,,,,P139,001,2025-04-08_10h24.11.399,posner_endo_new1,2024.2.4,60.16496028784162,2025-04-08 10h24.17.941585 +0100,
cube_r.png,0.1,0.31,valid,24,24,0,down,8.548189999999522,None,space,0.5632394000003842,None,,,,,0,24,24,24,,,,,324.90735739999946,,,,,,,,,,,,,324.8914931999989,324.90735739999946,324.90735739999946,324.90735739999946,333.4653617999993,,,,333.47163349999937,333.48300369999924,333.48300369999924,333.5318286999991,333.5320781999999,333.54824609999923,333.54824609999923,333.54824609999923,333.6147261999995,334.1152863999996,,,,,,,,down,8.548189999999522,None,space,0.5632394000003842,None,,,,,,,,,,,,,,,P139,001,2025-04-08_10h24.11.399,posner_endo_new1,2024.2.4,60.16496028784162,2025-04-08 10h24.17.941585 +0100,
cube_r.png,0.1,-0.31,invalid,25,25,0,down,7.203990500000145,None,space,0.5012760999998136,None,,,,,0,25,25,25,,,,,334.13103429999865,,,,,,,,,,,,,334.11546539999836,334.13103429999865,334.13103429999865,334.13103429999865,341.3411215999986,,,,341.3474228999985,341.3589796999986,341.3589796999986,341.4071238999986,341.40736429999924,341.42359399999987,341.42359399999987,341.42359399999987,341.50672099999974,341.9405176,,,,,,,,down,7.203990500000145,None,space,0.5012760999998136,None,,,,,,,,,,,,,,,P139,001,2025-04-08_10h24.11.399,posner_endo_new1,2024.2.4,60.16496028784162,2025-04-08 10h24.17.941585 +0100,
cube_l.png,0.1,-0.31,valid,26,26,0,down,5.1474597999986145,None,space,0.4075747000006231,None,,,,,0,26,26,26,,,,,341.9563722999992,,,,,,,,,,,,,341.9406932999991,341.9563722999992,341.9563722999992,341.9563722999992,347.1184631999986,,,,347.12472869999874,347.13626679999834,347.13626679999834,347.18445749999955,347.18469689999984,347.20108719999917,347.20108719999917,347.20108719999917,347.2675959999997,347.6180908999995,,,,,,,,down,5.1474597999986145,None,space,0.4075747000006231,None,,,,,,,,,,,,,,,P139,001,2025-04-08_10h24.11.399,posner_endo_new1,2024.2.4,60.16496028784162,2025-04-08 10h24.17.941585 +0100,
cube_r.png,0.1,0.31,valid,27,27,0,down,8.557788599999185,None,space,0.419440300000133,None,,,,,0,27,27,27,,,,,347.63397799999984,,,,,,,,,,,,,347.6182682999988,347.63397799999984,347.63397799999984,347.63397799999984,356.19254249999904,,,,356.1988961999996,356.21048699999847,356.21048699999847,356.2583427999998,356.25858979999975,356.27510489999986,356.27510489999986,356.27510489999986,356.3415671999992,356.70869239999956,,,,,,,,down,8.557788599999185,None,space,0.419440300000133,None,,,,,,,,,,,,,,,P139,001,2025-04-08_10h24.11.399,posner_endo_new1,2024.2.4,60.16496028784162,2025-04-08 10h24.17.941585 +0100,
cube_r.png,0.1,10,catch,28,28,0,down,10.93087689999993,None,None,,,,,,,0,28,28,28,,,,,356.7247095999992,,,,,,,,,,,,,356.70886979999887,356.7247095999992,356.7247095999992,356.7247095999992,367.66366089999974,,,,367.66998559999956,367.68149039999844,367.68149039999844,367.73001769999973,367.73024499999883,367.7464648999994,367.7464648999994,367.7464648999994,367.81313429999864,370.7440262,,,,369.82781049999903,370.76019149999956,370.76019149999956,370.76019149999956,down,10.93087689999993,None,None,,,,,,,,,,,,,,,,,P139,001,2025-04-08_10h24.11.399,posner_endo_new1,2024.2.4,60.16496028784162,2025-04-08 10h24.17.941585 +0100,
cube_r.png,0.1,0.31,valid,29,29,0,down,6.215205700000297,None,space,0.4166581999998016,None,,,,,0,29,29,29,,,,,370.76019149999956,,,,,,,,,,,,,370.74419409999973,370.76019149999956,370.76019149999956,370.76019149999956,376.9878648999984,,,,376.99415119999867,377.00564080000004,377.00564080000004,377.05386909999834,377.05411099999947,377.0705128999998,377.0705128999998,377.0705128999998,377.13699049999923,377.50396869999895,,,,,,,,down,6.215205700000297,None,space,0.4166581999998016,None,,,,,,,,,,,,,,,P139,001,2025-04-08_10h24.11.399,posner_endo_new1,2024.2.4,60.16496028784162,2025-04-08 10h24.17.941585 +0100,
cube_r.png,0.1,0.31,valid,30,30,0,down,8.799751599999581,None,space,0.45234570000138774,None,,,,,0,30,30,30,,,,,377.51987409999856,,,,,,,,,,,,,377.50414920000003,377.51987409999856,377.51987409999856,377.51987409999856,386.3281825999984,,,,386.33445159999974,386.34602169999926,386.34602169999926,386.39416249999886,386.3944124999998,386.4107917000001,386.4107917000001,386.4107917000001,386.4773271999984,386.8776253999986,,,,,,,,down,8.799751599999581,None,space,0.45234570000138774,None,,,,,,,,,,,,,,,P139,001,2025-04-08_10h24.11.399,posner_endo_new1,2024.2.4,60.16496028784162,2025-04-08 10h24.17.941585 +0100,
cube_l.png,0.1,-0.31,valid,31,31,0,down,6.010054799999125,None,space,0.43228000000090105,None,,,,,0,31,31,31,,,,,386.8935738,,,,,,,,,,,,,386.87782119999974,386.8935738,386.8935738,386.8935738,392.9052054999993,,,,392.9114862999995,392.92317059999914,392.92317059999914,392.9709987999995,392.97123999999894,392.9875463999997,392.9875463999997,392.9875463999997,393.07036849999895,393.42121379999844,,,,,,,,down,6.010054799999125,None,space,0.43228000000090105,None,,,,,,,,,,,,,,,P139,001,2025-04-08_10h24.11.399,posner_endo_new1,2024.2.4,60.16496028784162,2025-04-08 10h24.17.941585 +0100,
cube_r.png,0.1,0.31,valid,32,32,0,down,6.562669200000528,None,space,0.34323240000048827,None,,,,,0,32,32,32,,,,,393.43710699999974,,,,,,,,,,,,,393.4213874999987,393.43710699999974,393.43710699999974,393.43710699999974,400.0142556999999,,,,400.0206271999996,400.03217659999973,400.03217659999973,400.08025949999865,400.08050019999973,400.09667929999887,400.09667929999887,400.09667929999887,400.1631268000001,400.4471894999988,,,,,,,,down,6.562669200000528,None,space,0.34323240000048827,None,,,,,,,,,,,,,,,P139,001,2025-04-08_10h24.11.399,posner_endo_new1,2024.2.4,60.16496028784162,2025-04-08 10h24.17.941585 +0100,
cube_r.png,0.1,-0.31,invalid,33,33,0,down,7.24840629999926,None,space,0.34646579999935057,None,,,,,0,33,33,33,,,,,400.4631156999985,,,,,,,,,,,,,400.4473651999997,400.4631156999985,400.4631156999985,400.4631156999985,407.7230555999995,,,,407.729380499999,407.7410203999989,407.7410203999989,407.7891490999991,407.7893924,407.8056493999993,407.8056493999993,407.8056493999993,407.8722235999994,408.15596709999954,,,,,,,,down,7.24840629999926,None,space,0.34646579999935057,None,,,,,,,,,,,,,,,P139,001,2025-04-08_10h24.11.399,posner_endo_new1,2024.2.4,60.16496028784162,2025-04-08 10h24.17.941585 +0100,
cube_r.png,0.1,10,catch,34,34,0,down,6.835172999999486,None,None,,,,,,,0,34,34,34,,,,,408.1718674999993,,,,,,,,,,,,,408.15614619999906,408.1718674999993,408.1718674999993,408.1718674999993,415.01559199999974,,,,415.0216961999995,415.033369499999,415.033369499999,415.08152619999964,415.0817621999995,415.0981155999998,415.0981155999998,415.0981155999998,415.1647187999988,418.0953929999996,,,,417.17932069999915,418.11126519999925,418.11126519999925,418.11126519999925,down,6.835172999999486,None,None,,,,,,,,,,,,,,,,,P139,001,2025-04-08_10h24.11.399,posner_endo_new1,2024.2.4,60.16496028784162,2025-04-08 10h24.17.941585 +0100,
cube_r.png,0.1,0.31,valid,35,35,0,down,4.328634200001034,None,space,0.4277987999994366,None,,,,,0,35,35,35,,,,,418.11126519999925,,,,,,,,,,,,,418.0955583999985,418.11126519999925,418.11126519999925,418.11126519999925,422.4415599999993,,,,422.44781089999924,422.459597699999,422.459597699999,422.50712699999895,422.50736999999936,422.52369589999944,422.52369589999944,422.52369589999944,422.6071988999993,422.9571522999995,,,,,,,,down,4.328634200001034,None,space,0.4277987999994366,None,,,,,,,,,,,,,,,P139,001,2025-04-08_10h24.11.399,posner_endo_new1,2024.2.4,60.16496028784162,2025-04-08 10h24.17.941585 +0100,
cube_r.png,0.1,-0.31,invalid,36,36,0,down,13.70620720000079,None,space,0.4050946000006661,None,,,,,0,36,36,36,,,,,422.97323249999863,,,,,,,,,,,,,422.95732619999944,422.97323249999863,422.97323249999863,422.97323249999863,436.69335429999956,,,,436.69959169999856,436.71121649999986,436.71121649999986,436.75929559999895,436.7595455999999,436.7758398999995,436.7758398999995,436.7758398999995,436.85923809999986,437.192729299999,,,,,,,,down,13.70620720000079,None,space,0.4050946000006661,None,,,,,,,,,,,,,,,P139,001,2025-04-08_10h24.11.399,posner_endo_new1,2024.2.4,60.16496028784162,2025-04-08 10h24.17.941585 +0100,
cube_l.png,0.1,0.31,invalid,37,37,0,down,4.7583468000011635,None,space,0.5328974000003655,None,,,,,0,37,37,37,,,,,437.2088341999988,,,,,,,,,,,,,437.19291389999853,437.2088341999988,437.2088341999988,437.2088341999988,441.97150449999936,,,,441.9777506999999,441.9893201999985,441.9893201999985,442.03709789999994,442.03734209999857,442.0540399999991,442.0540399999991,442.0540399999991,442.13708399999996,442.6041518999991,,,,,,,,down,4.7583468000011635,None,space,0.5328974000003655,None,,,,,,,,,,,,,,,P139,001,2025-04-08_10h24.11.399,posner_endo_new1,2024.2.4,60.16496028784162,2025-04-08 10h24.17.941585 +0100,
cube_l.png,0.1,0.31,invalid,38,38,0,down,5.811771100001351,None,space,0.4493109999984881,None,,,,,0,38,38,38,,,,,442.6198629999999,,,,,,,,,,,,,442.6043290999987,442.6198629999999,442.6198629999999,442.6198629999999,448.44800549999854,,,,448.454219199999,448.4654187999986,448.4654187999986,448.51389169999857,448.5141341999988,448.5304243999999,448.5304243999999,448.5304243999999,448.5971221,448.9808710999987,,,,,,,,down,5.811771100001351,None,space,0.4493109999984881,None,,,,,,,,,,,,,,,P139,001,2025-04-08_10h24.11.399,posner_endo_new1,2024.2.4,60.16496028784162,2025-04-08 10h24.17.941585 +0100,
cube_r.png,0.1,0.31,valid,39,39,0,down,6.402845500000694,None,space,0.3951825000003737,None,,,,,0,39,39,39,,,,,448.99687619999895,,,,,,,,,,,,,448.98104629999943,448.99687619999895,448.99687619999895,448.99687619999895,455.4074192999997,,,,455.41360799999893,455.4251261999998,455.4251261999998,455.4735220999992,455.4737669999995,455.4898677000001,455.4898677000001,455.4898677000001,455.5733552999991,455.8904918999997,,,,,,,,down,6.402845500000694,None,space,0.3951825000003737,None,,,,,,,,,,,,,,,P139,001,2025-04-08_10h24.11.399,posner_endo_new1,2024.2.4,60.16496028784162,2025-04-08 10h24.17.941585 +0100,
cube_l.png,0.1,0.31,invalid,40,40,0,down,6.085064099999727,None,space,0.4227678000006563,None,,,,,0,40,40,40,,,,,455.9062692999996,,,,,,,,,,,,,455.8906677999985,455.9062692999996,455.9062692999996,455.9062692999996,462.00082459999976,,,,462.0070029999988,462.01842099999885,462.01842099999885,462.0672618999997,462.0675556999995,462.0833206999996,462.0833206999996,462.0833206999996,462.14941159999944,462.5168982999985,,,,,,,,down,6.085064099999727,None,space,0.4227678000006563,None,,,,,,,,,,,,,,,P139,001,2025-04-08_10h24.11.399,posner_endo_new1,2024.2.4,60.16496028784162,2025-04-08 10h24.17.941585 +0100,
cube_l.png,0.1,10,catch,41,41,0,down,6.370663599998807,None,None,,,,,,,0,41,41,41,,,,,462.53249739999956,,,,,,,,,,,,,462.5170743999988,462.53249739999956,462.53249739999956,462.53249739999956,468.9102647999989,,,,468.9165088999998,468.9280674999991,468.9280674999991,468.97615609999957,468.97639720000006,468.99283659999855,468.99283659999855,468.99283659999855,469.0595827999987,471.99028569999973,,,,471.0741546999998,472.00666939999974,472.00666939999974,472.00666939999974,down,6.370663599998807,None,None,,,,,,,,,,,,,,,,,P139,001,2025-04-08_10h24.11.399,posner_endo_new1,2024.2.4,60.16496028784162,2025-04-08 10h24.17.941585 +0100,
cube_l.png,0.1,-0.31,valid,42,42,0,down,2.7047201999994286,None,space,0.45100800000000163,None,,,,,0,42,42,42,,,,,472.00666939999974,,,,,,,,,,,,,471.9904538999999,472.00666939999974,472.00666939999974,472.00666939999974,474.72116879999885,,,,474.7274011999998,474.738888599999,474.738888599999,474.78703349999887,474.78727399999843,474.8035252999998,474.8035252999998,474.8035252999998,474.88689519999934,475.2707055999999,,,,,,,,down,2.7047201999994286,None,space,0.45100800000000163,None,,,,,,,,,,,,,,,P139,001,2025-04-08_10h24.11.399,posner_endo_new1,2024.2.4,60.16496028784162,2025-04-08 10h24.17.941585 +0100,
cube_l.png,0.1,10,catch,43,43,0,down,6.104164700000183,None,None,,,,,,,0,43,43,43,,,,,475.2866088999999,,,,,,,,,,,,,475.2708815999995,475.2866088999999,475.2866088999999,475.2866088999999,481.3974229999985,,,,481.4038576999992,481.4154088999985,481.4154088999985,481.4635417999998,481.4637828999985,481.4799721999989,481.4799721999989,481.4799721999989,481.54621419999967,484.4775402999985,,,,483.5611874999995,484.4932437999996,484.4932437999996,484.4932437999996,down,6.104164700000183,None,None,,,,,,,,,,,,,,,,,P139,001,2025-04-08_10h24.11.399,posner_endo_new1,2024.2.4,60.16496028784162,2025-04-08 10h24.17.941585 +0100,
cube_l.png,0.1,0.31,invalid,44,44,0,down,4.545983199999682,None,space,0.44092170000112674,None,,,,,0,44,44,44,,,,,484.4932437999996,,,,,,,,,,,,,484.4777084999987,484.4932437999996,484.4932437999996,484.4932437999996,489.0400054999991,,,,489.0462902999989,489.057898699999,489.057898699999,489.10543179999877,489.1056727999985,489.1224661999986,489.1224661999986,489.1224661999986,489.2053756999994,489.5724728999994,,,,,,,,down,4.545983199999682,None,space,0.44092170000112674,None,,,,,,,,,,,,,,,P139,001,2025-04-08_10h24.11.399,posner_endo_new1,2024.2.4,60.16496028784162,2025-04-08 10h24.17.941585 +0100,
cube_l.png,0.1,0.31,invalid,45,45,0,down,12.274831499998982,None,space,0.5063102999993134,None,,,,,0,45,45,45,,,,,489.58842319999894,,,,,,,,,,,,,489.5726492999984,489.58842319999894,489.58842319999894,489.58842319999894,501.8765997999999,,,,501.8828685999997,501.894376799999,501.894376799999,501.94257839999955,501.9428191999996,501.959028199999,501.959028199999,501.959028199999,502.0257103999993,502.47620669999924,,,,,,,,down,12.274831499998982,None,space,0.5063102999993134,None,,,,,,,,,,,,,,,P139,001,2025-04-08_10h24.11.399,posner_endo_new1,2024.2.4,60.16496028784162,2025-04-08 10h24.17.941585 +0100,
cube_r.png,0.1,0.31,valid,46,46,0,down,10.115173900001537,None,space,0.40841399999953865,None,,,,,0,46,46,46,,,,,502.49194969999917,,,,,,,,,,,,,502.47638279999956,502.49194969999917,502.49194969999917,502.49194969999917,512.6156016999994,,,,512.6217701999994,512.6332358999989,512.6332358999989,512.6815903999995,512.6818324999986,512.6979707999999,512.6979707999999,512.6979707999999,512.7647222999985,513.1150643000001,,,,,,,,down,10.115173900001537,None,space,0.40841399999953865,None,,,,,,,,,,,,,,,P139,001,2025-04-08_10h24.11.399,posner_endo_new1,2024.2.4,60.16496028784162,2025-04-08 10h24.17.941585 +0100,
cube_l.png,0.1,-0.31,valid,47,47,0,down,11.292421399999512,None,space,0.4849901999987196,None,,,,,0,47,47,47,,,,,513.1310187999989,,,,,,,,,,,,,513.1152382,513.1310187999989,513.1310187999989,513.1310187999989,524.43635,,,,524.4426866999984,524.4540987,524.4540987,524.5027406999998,524.5029866999994,524.5193909999998,524.5193909999998,524.5193909999998,524.5860398999994,525.0194222999999,,,,,,,,down,11.292421399999512,None,space,0.4849901999987196,None,,,,,,,,,,,,,,,P139,001,2025-04-08_10h24.11.399,posner_endo_new1,2024.2.4,60.16496028784162,2025-04-08 10h24.17.941585 +0100,
cube_r.png,0.1,-0.31,invalid,48,48,0,down,6.29966709999826,None,space,0.3892319000005955,None,,,,,0,48,48,48,,,,,525.0353688999985,,,,,,,,,,,,,525.0195984999991,525.0353688999985,525.0353688999985,525.0353688999985,531.3458611999995,,,,531.3521473000001,531.3637500999994,531.3637500999994,531.4124092999991,531.4126492999985,531.4288619999988,531.4288619999988,531.4288619999988,531.4954947999995,531.8292225999994,,,,,,,,down,6.29966709999826,None,space,0.3892319000005955,None,,,,,,,,,,,,,,,P139,001,2025-04-08_10h24.11.399,posner_endo_new1,2024.2.4,60.16496028784162,2025-04-08 10h24.17.941585 +0100,
cube_r.png,0.1,10,catch,49,49,0,down,8.226723699999638,None,None,,,,,,,0,49,49,49,,,,,531.8452136999986,,,,,,,,,,,,,531.8293999999987,531.8452136999986,531.8452136999986,531.8452136999986,540.0873334999997,,,,540.0938487999993,540.1057113999996,540.1057113999996,540.153375599999,540.1536178999995,540.1694308999995,540.1694308999995,540.1694308999995,540.2366328999997,543.1672270999989,,,,542.2511188999997,543.1834156999994,543.1834156999994,543.1834156999994,down,8.226723699999638,None,None,,,,,,,,,,,,,,,,,P139,001,2025-04-08_10h24.11.399,posner_endo_new1,2024.2.4,60.16496028784162,2025-04-08 10h24.17.941585 +0100,
cube_l.png,0.1,-0.31,valid,50,50,0,down,8.17528929999935,None,space,0.46885199999996985,None,,,,,0,50,50,50,,,,,543.1834156999994,,,,,,,,,,,,,543.1673946999999,543.1834156999994,543.1834156999994,543.1834156999994,551.3759412999989,,,,551.3900877999986,551.4003070999988,551.4003070999988,551.4416752999987,551.4419534999997,551.4583722999996,551.4583722999996,551.4583722999996,551.5250405999996,551.9416406,,,,,,,,down,8.17528929999935,None,space,0.46885199999996985,None,,,,,,,,,,,,,,,P139,001,2025-04-08_10h24.11.399,posner_endo_new1,2024.2.4,60.16496028784162,2025-04-08 10h24.17.941585 +0100,
cube_l.png,0.1,-0.31,valid,51,51,0,down,5.969167900000684,None,space,0.3927447000005486,None,,,,,0,51,51,51,,,,,551.9578446999985,,,,,,,,,,,,,551.9418540999995,551.9578446999985,551.9578446999985,551.9578446999985,557.936039799999,,,,557.9444834999995,557.9545038999986,557.9545038999986,558.00137,558.0016491999995,558.017949699999,558.017949699999,558.017949699999,558.101152199999,558.4184472999987,,,,,,,,down,5.969167900000684,None,space,0.3927447000005486,None,,,,,,,,,,,,,,,P139,001,2025-04-08_10h24.11.399,posner_endo_new1,2024.2.4,60.16496028784162,2025-04-08 10h24.17.941585 +0100,
cube_r.png,0.1,-0.31,invalid,52,52,0,down,8.34067529999993,None,space,0.3841453000004549,None,,,,,0,52,52,52,,,,,558.4345876999996,,,,,,,,,,,,,558.4186585999996,558.4345876999996,558.4345876999996,558.4345876999996,566.7770419999997,,,,566.7855492999988,566.7958463999985,566.7958463999985,566.8425161999985,566.8427426999988,566.8591445999991,566.8591445999991,566.8591445999991,566.9425477999994,567.2596923000001,,,,,,,,down,8.34067529999993,None,space,0.3841453000004549,None,,,,,,,,,,,,,,,P139,001,2025-04-08_10h24.11.399,posner_endo_new1,2024.2.4,60.16496028784162,2025-04-08 10h24.17.941585 +0100,
cube_l.png,0.1,-0.31,valid,53,53,0,down,9.683438000000024,None,space,0.3719765000005282,None,,,,,0,53,53,53,,,,,567.2756105999997,,,,,,,,,,,,,567.2598643000001,567.2756105999997,567.2756105999997,567.2756105999997,576.9663416999992,,,,576.9731042999992,576.9849835999994,576.9849835999994,577.0322194,577.0324624999994,577.0489667999991,577.0489667999991,577.0489667999991,577.1148854999992,577.4326027999996,,,,,,,,down,9.683438000000024,None,space,0.3719765000005282,None,,,,,,,,,,,,,,,P139,001,2025-04-08_10h24.11.399,posner_endo_new1,2024.2.4,60.16496028784162,2025-04-08 10h24.17.941585 +0100,
cube_r.png,0.1,10,catch,54,54,0,down,6.088431700000001,None,None,,,,,,,0,54,54,54,,,,,577.4479394999998,,,,,,,,,,,,,577.4327829999984,577.4479394999998,577.4479394999998,577.4479394999998,583.5429609999992,,,,583.5493891999995,583.5610816999997,583.5610816999997,583.6088310999985,583.6090731999993,583.6255111999999,583.6255111999999,583.6255111999999,583.7087959,586.6230263999987,,,,585.7232693999995,586.6389332999988,586.6389332999988,586.6389332999988,down,6.088431700000001,None,None,,,,,,,,,,,,,,,,,P139,001,2025-04-08_10h24.11.399,posner_endo_new1,2024.2.4,60.16496028784162,2025-04-08 10h24.17.941585 +0100,
cube_l.png,0.1,0.31,invalid,55,55,0,down,3.3287196999990556,None,space,0.44119880000107514,None,,,,,0,55,55,55,,,,,586.6389332999988,,,,,,,,,,,,,586.6231915999997,586.6389332999988,586.6389332999988,586.6389332999988,589.9698556999992,,,,589.9764571999985,589.9881572999984,589.9881572999984,590.0357482999989,590.0359918999984,590.0522372999985,590.0522372999985,590.0522372999985,590.1354962999994,590.5023696999997,,,,,,,,down,3.3287196999990556,None,space,0.44119880000107514,None,,,,,,,,,,,,,,,P139,001,2025-04-08_10h24.11.399,posner_endo_new1,2024.2.4,60.16496028784162,2025-04-08 10h24.17.941585 +0100,
cube_l.png,0.1,-0.31,valid,56,56,0,down,10.368428799998583,None,space,0.6233188000005612,None,,,,,0,56,56,56,,,,,590.5182743999994,,,,,,,,,,,,,590.5025444999992,590.5182743999994,590.5182743999994,590.5182743999994,600.8919348,,,,600.8983939999998,600.9101889999984,600.9101889999984,600.9577648999984,600.958009,600.9742096999998,600.9742096999998,600.9742096999998,601.0576234,601.6078395999994,,,,,,,,down,10.368428799998583,None,space,0.6233188000005612,None,,,,,,,,,,,,,,,P139,001,2025-04-08_10h24.11.399,posner_endo_new1,2024.2.4,60.16496028784162,2025-04-08 10h24.17.941585 +0100,
cube_r.png,0.1,0.31,valid,57,57,0,down,6.44797060000019,None,space,0.37679320000097505,None,,,,,0,57,57,57,,,,,601.6236364999986,,,,,,,,,,,,,601.608014899999,601.6236364999986,601.6236364999986,601.6236364999986,608.0842553999992,,,,608.0911340999992,608.1030811,608.1030811,608.150212999999,608.1504520999988,608.1668185999988,608.1668185999988,608.1668185999988,608.2336978999992,608.5507781999986,,,,,,,,down,6.44797060000019,None,space,0.37679320000097505,None,,,,,,,,,,,,,,,P139,001,2025-04-08_10h24.11.399,posner_endo_new1,2024.2.4,60.16496028784162,2025-04-08 10h24.17.941585 +0100,
cube_r.png,0.1,-0.31,invalid,58,58,0,down,4.352490999999645,None,space,0.37522979999994277,None,,,,,0,58,58,58,,,,,608.5666161999998,,,,,,,,,,,,,608.5509542,608.5666161999998,608.5666161999998,608.5666161999998,612.9294352999987,,,,612.9359171999986,612.9474916999989,612.9474916999989,612.9953717999997,612.9956155999989,613.0120668999989,613.0120668999989,613.0120668999989,613.0785956999989,613.3959211000001,,,,,,,,down,4.352490999999645,None,space,0.37522979999994277,None,,,,,,,,,,,,,,,P139,001,2025-04-08_10h24.11.399,posner_endo_new1,2024.2.4,60.16496028784162,2025-04-08 10h24.17.941585 +0100,
cube_l.png,0.1,0.31,invalid,59,59,0,down,5.052895000000717,None,space,0.3254778999998962,None,,,,,0,59,59,59,,,,,613.4116448999994,,,,,,,,,,,,,613.3960943999991,613.4116448999994,613.4116448999994,613.4116448999994,618.4737441999987,,,,618.4801281,618.4917216999984,618.4917216999984,618.5396953999989,618.5399390999992,618.5563917,618.5563917,618.5563917,618.6394111999998,618.8901327999993,,,,,,,,down,5.052895000000717,None,space,0.3254778999998962,None,,,,,,,,,,,,,,,P139,001,2025-04-08_10h24.11.399,posner_endo_new1,2024.2.4,60.16496028784162,2025-04-08 10h24.17.941585 +0100,
,,,,,,,,,,,,,,,,,,,,,,,,,,,,,,,,,,,,,,,,,,,,,,,,,,,,,,,,,,,,,,,,,,,,,618.8902498999996,618.9061045999988,618.9061045999988,678.9110067999991,683.3071488999994,space,64.38920750000034,None,,,,,,,P139,001,2025-04-08_10h24.11.399,posner_endo_new1,2024.2.4,60.16496028784162,2025-04-08 10h24.17.941585 +0100,
,,,,,,,,,,,,,,,,,,,,,,,,,,,,,,,,,,683.3072047999995,683.3232142999987,686.3905036999986,686.3040960999988,,,,,,,,,,,,,,,,,,,,,,,,,,,,,,,,,,,,,,,,,,,,,,P139,001,2025-04-08_10h24.11.399,posner_endo_new1,2024.2.4,60.16496028784162,2025-04-08 10h24.17.941585 +0100,
cube_l.png,0.1,10,catch,0,0,0,up,7.488932599999316,None,None,,,,,,,,,,,0,0,0,0,686.3905036999986,,,,,,,,,,,,,686.3823834999985,686.3905036999986,686.3905036999986,686.3905036999986,693.8803441,,,,693.8870413999994,693.8988788999995,693.8988788999995,693.9458809999996,693.9461306999983,693.9621782999984,693.9621782999984,693.9621782999984,694.0455440999995,696.9598345999984,,,,696.0601479999987,696.9759458999997,696.9759458999997,696.9759458999997,,,,,,,,,,,,,,,up,7.488932599999316,None,None,,,P139,001,2025-04-08_10h24.11.399,posner_endo_new1,2024.2.4,60.16496028784162,2025-04-08 10h24.17.941585 +0100,
cube_l.png,0.1,10,catch,1,1,0,up,3.35091569999895,None,None,,,,,,,,,,,0,1,1,1,696.9759458999997,,,,,,,,,,,,,696.9600076999996,696.9759458999997,696.9759458999997,696.9759458999997,700.3398935999994,,,,700.3461876999991,700.358085599999,700.358085599999,700.4059352999993,700.4061691999996,700.4223739999998,700.4223739999998,700.4223739999998,700.4890385999988,703.4196412999991,,,,702.5033199999998,703.4359457999999,703.4359457999999,703.4359457999999,,,,,,,,,,,,,,,up,3.35091569999895,None,None,,,P139,001,2025-04-08_10h24.11.399,posner_endo_new1,2024.2.4,60.16496028784162,2025-04-08 10h24.17.941585 +0100,
cube_l.png,0.1,0.31,invalid,2,2,0,up,2.690532399999938,None,space,0.45051280000006955,None,,,,,,,,,0,2,2,2,703.4359457999999,,,,,,,,,,,,,703.4198046999991,703.4359457999999,703.4359457999999,703.4359457999999,706.1340597999988,,,,706.1403764999995,706.1519363999996,706.1519363999996,706.1999172999986,706.2001616999987,706.2164251999984,706.2164251999984,706.2164251999984,706.2997209999994,706.6835021999996,,,,,,,,,,,,,,,,,,,,,,up,2.690532399999938,None,space,0.45051280000006955,None,P139,001,2025-04-08_10h24.11.399,posner_endo_new1,2024.2.4,60.16496028784162,2025-04-08 10h24.17.941585 +0100,
cube_l.png,0.1,0.31,invalid,3,3,0,up,5.3556662000009965,None,space,0.5572833999995055,None,,,,,,,,,0,3,3,3,706.6993360999986,,,,,,,,,,,,,706.6836857999988,706.6993360999986,706.6993360999986,706.6993360999986,712.0613140999994,,,,712.0677151999989,712.0791627999988,712.0791627999988,712.1271643,712.127405199999,712.1436862999999,712.1436862999999,712.1436862999999,712.227028199999,712.7106520999987,,,,,,,,,,,,,,,,,,,,,,up,5.3556662000009965,None,space,0.5572833999995055,None,P139,001,2025-04-08_10h24.11.399,posner_endo_new1,2024.2.4,60.16496028784162,2025-04-08 10h24.17.941585 +0100,
cube_l.png,0.1,-0.31,valid,4,4,0,up,7.288414899998315,None,space,0.3796524000008503,None,,,,,,,,,0,4,4,4,712.726627099999,,,,,,,,,,,,,712.7108341999992,712.726627099999,712.726627099999,712.726627099999,720.0197884999998,,,,720.0264362999987,720.0384649999996,720.0384649999996,720.0856785999986,720.0859191,720.1022660999988,720.1022660999988,720.1022660999988,720.1855194,720.4856783999985,,,,,,,,,,,,,,,,,,,,,,up,7.288414899998315,None,space,0.3796524000008503,None,P139,001,2025-04-08_10h24.11.399,posner_endo_new1,2024.2.4,60.16496028784162,2025-04-08 10h24.17.941585 +0100,
cube_r.png,0.1,-0.31,invalid,5,5,0,up,5.3928607999987435,None,space,0.3989963000003627,None,,,,,,,,,0,5,5,5,720.5019541999991,,,,,,,,,,,,,720.4858609999992,720.5019541999991,720.5019541999991,720.5019541999991,725.8971100999988,,,,725.9033671999987,725.9147502999986,725.9147502999986,725.9628914999994,725.9631368999999,725.9792843999985,725.9792843999985,725.9792843999985,726.0462118999985,726.3801764999989,,,,,,,,,,,,,,,,,,,,,,up,5.3928607999987435,None,space,0.3989963000003627,None,P139,001,2025-04-08_10h24.11.399,posner_endo_new1,2024.2.4,60.16496028784162,2025-04-08 10h24.17.941585 +0100,
cube_r.png,0.1,0.31,valid,6,6,0,up,5.69288190000043,None,space,0.3860143000001699,None,,,,,,,,,0,6,6,6,726.395343799999,,,,,,,,,,,,,726.3803575999991,726.395343799999,726.395343799999,726.395343799999,732.0908746999994,,,,732.0972721999988,732.1088133999983,732.1088133999983,732.1566175999997,732.1568585999994,732.1733516999993,732.1733516999993,732.1733516999993,732.2565482999998,732.5736123999995,,,,,,,,,,,,,,,,,,,,,,up,5.69288190000043,None,space,0.3860143000001699,None,P139,001,2025-04-08_10h24.11.399,posner_endo_new1,2024.2.4,60.16496028784162,2025-04-08 10h24.17.941585 +0100,
cube_r.png,0.1,-0.31,invalid,7,7,0,up,6.07352549999996,None,space,0.31450519999998505,None,,,,,,,,,0,7,7,7,732.5893585999984,,,,,,,,,,,,,732.5737923999986,732.5893585999984,732.5893585999984,732.5893585999984,738.667422999999,,,,738.6737871999994,738.6853464999986,738.6853464999986,738.7332563999989,738.7335000999992,738.7499467999987,738.7499467999987,738.7499467999987,738.8332289999998,739.0665102999992,,,,,,,,,,,,,,,,,,,,,,up,6.07352549999996,None,space,0.31450519999998505,None,P139,001,2025-04-08_10h24.11.399,posner_endo_new1,2024.2.4,60.16496028784162,2025-04-08 10h24.17.941585 +0100,
cube_l.png,0.1,-0.31,valid,8,8,0,up,7.172518800000034,None,space,0.3864928000002692,None,,,,,,,,,0,8,8,8,739.0825058999999,,,,,,,,,,,,,739.0666923999997,739.0825058999999,739.0825058999999,739.0825058999999,746.2594776999995,,,,746.2657745999986,746.2772162000001,746.2772162000001,746.3254120999991,746.3256531999996,746.3420173999984,746.3420173999984,746.3420173999984,746.4250991999997,746.7421005999986,,,,,,,,,,,,,,,,,,,,,,up,7.172518800000034,None,space,0.3864928000002692,None,P139,001,2025-04-08_10h24.11.399,posner_endo_new1,2024.2.4,60.16496028784162,2025-04-08 10h24.17.941585 +0100,
cube_r.png,0.1,-0.31,invalid,9,9,0,up,8.20882249999886,None,space,0.3809254999996483,None,,,,,,,,,0,9,9,9,746.7584302999985,,,,,,,,,,,,,746.7422798999996,746.7584302999985,746.7584302999985,746.7584302999985,754.9840725999984,,,,754.9903612999988,755.0016226999996,755.0016226999996,755.0499161999996,755.0501609999992,755.0659179999984,755.0659179999984,755.0659179999984,755.1496453,755.4501084999993,,,,,,,,,,,,,,,,,,,,,,up,8.20882249999886,None,space,0.3809254999996483,None,P139,001,2025-04-08_10h24.11.399,posner_endo_new1,2024.2.4,60.16496028784162,2025-04-08 10h24.17.941585 +0100,
cube_l.png,0.1,0.31,invalid,10,10,0,up,7.941044200000761,None,space,0.4388103000001138,None,,,,,,,,,0,10,10,10,755.4659882999986,,,,,,,,,,,,,755.4502900999996,755.4659882999986,755.4659882999986,755.4659882999986,763.4087141999989,,,,763.4150773000001,763.4269120999998,763.4269120999998,763.4747128999988,763.4749551999994,763.4912900999989,763.4912900999989,763.4912900999989,763.5578231,763.9414106999993,,,,,,,,,,,,,,,,,,,,,,up,7.941044200000761,None,space,0.4388103000001138,None,P139,001,2025-04-08_10h24.11.399,posner_endo_new1,2024.2.4,60.16496028784162,2025-04-08 10h24.17.941585 +0100,
cube_r.png,0.1,-0.31,invalid,11,11,0,up,8.313633399999162,None,space,0.36348460000044724,None,,,,,,,,,0,11,11,11,763.9574797999994,,,,,,,,,,,,,763.9415916999988,763.9574797999994,763.9574797999994,763.9574797999994,772.2830677999991,,,,772.2893901999996,772.3009978999999,772.3009978999999,772.3487858999997,772.3490263999993,772.3653626999985,772.3653626999985,772.3653626999985,772.4485322,772.7325754999983,,,,,,,,,,,,,,,,,,,,,,up,8.313633399999162,None,space,0.36348460000044724,None,P139,001,2025-04-08_10h24.11.399,posner_endo_new1,2024.2.4,60.16496028784162,2025-04-08 10h24.17.941585 +0100,
cube_r.png,0.1,0.31,valid,12,12,0,up,6.6023024000005535,None,space,0.3675905000000057,None,,,,,,,,,0,12,12,12,772.7483398999993,,,,,,,,,,,,,772.7327571999995,772.7483398999993,772.7483398999993,772.7483398999993,779.3588387999989,,,,779.3651068999989,779.3763945999999,779.3763945999999,779.4248434000001,779.4250878999992,779.4414987,779.4414987,779.4414987,779.5079869000001,779.8250723000001,,,,,,,,,,,,,,,,,,,,,,up,6.6023024000005535,None,space,0.3675905000000057,None,P139,001,2025-04-08_10h24.11.399,posner_endo_new1,2024.2.4,60.16496028784162,2025-04-08 10h24.17.941585 +0100,
cube_l.png,0.1,10,catch,13,13,0,up,5.526251600000251,None,None,,,,,,,,,,,0,13,13,13,779.8411219999998,,,,,,,,,,,,,779.8252497999983,779.8411219999998,779.8411219999998,779.8411219999998,785.3694387999985,,,,785.375484799999,785.3873451,785.3873451,785.4353018999991,785.4355305999998,785.4518543999984,785.4518543999984,785.4518543999984,785.5351985999987,788.449552,,,,787.5497992,788.465284599999,788.465284599999,788.465284599999,,,,,,,,,,,,,,,up,5.526251600000251,None,None,,,P139,001,2025-04-08_10h24.11.399,posner_endo_new1,2024.2.4,60.16496028784162,2025-04-08 10h24.17.941585 +0100,
cube_r.png,0.1,-0.31,invalid,14,14,0,up,3.5091850999997405,None,space,0.43410380000022997,None,,,,,,,,,0,14,14,14,788.465284599999,,,,,,,,,,,,,788.4497287999984,788.465284599999,788.465284599999,788.465284599999,791.9795507999988,,,,791.9857778999994,791.9972854999996,791.9972854999996,792.0451326999992,792.0453741999991,792.0616820999985,792.0616820999985,792.0616820999985,792.144949399999,792.5121808999993,,,,,,,,,,,,,,,,,,,,,,up,3.5091850999997405,None,space,0.43410380000022997,None,P139,001,2025-04-08_10h24.11.399,posner_endo_new1,2024.2.4,60.16496028784162,2025-04-08 10h24.17.941585 +0100,
cube_l.png,0.1,-0.31,valid,15,15,0,up,6.0707733999988704,None,space,0.4021002999998018,None,,,,,,,,,0,15,15,15,792.5279945999991,,,,,,,,,,,,,792.5123695999991,792.5279945999991,792.5279945999991,792.5279945999991,798.6058747999996,,,,798.6121284000001,798.6237137999997,798.6237137999997,798.6719721999998,798.6722155999996,798.6883039999993,798.6883039999993,798.6883039999993,798.7551038999991,799.1053971999991,,,,,,,,,,,,,,,,,,,,,,up,6.0707733999988704,None,space,0.4021002999998018,None,P139,001,2025-04-08_10h24.11.399,posner_endo_new1,2024.2.4,60.16496028784162,2025-04-08 10h24.17.941585 +0100,
cube_r.png,0.1,10,catch,16,16,0,up,7.90116130000024,None,None,,,,,,,,,,,0,16,16,16,799.1211150999989,,,,,,,,,,,,,799.1055949999991,799.1211150999989,799.1211150999989,799.1211150999989,807.0305372999992,,,,807.0367946999995,807.0483464999998,807.0483464999998,807.0962626,807.0965054999997,807.1131730999987,807.1131730999987,807.1131730999987,807.1794919999993,810.1104005999987,,,,809.1943168999987,810.1267113999984,810.1267113999984,810.1267113999984,,,,,,,,,,,,,,,up,7.90116130000024,None,None,,,P139,001,2025-04-08_10h24.11.399,posner_endo_new1,2024.2.4,60.16496028784162,2025-04-08 10h24.17.941585 +0100,
cube_r.png,0.1,10,catch,17,17,0,up,4.0641722999989724,None,None,,,,,,,,,,,0,17,17,17,810.1267113999984,,,,,,,,,,,,,810.1105728999992,810.1267113999984,810.1267113999984,810.1267113999984,814.2066297000001,,,,814.2128998999997,814.2243975999991,814.2243975999991,814.2724289999987,814.2726692999986,814.2888796999996,814.2888796999996,814.2888796999996,814.3724258999991,817.286035699999,,,,816.3866279999984,817.3027567999998,817.3027567999998,817.3027567999998,,,,,,,,,,,,,,,up,4.0641722999989724,None,None,,,P139,001,2025-04-08_10h24.11.399,posner_endo_new1,2024.2.4,60.16496028784162,2025-04-08 10h24.17.941585 +0100,
cube_l.png,0.1,0.31,invalid,18,18,0,up,3.7202528999987408,None,space,0.507285800000318,None,,,,,,,,,0,18,18,18,817.3027567999998,,,,,,,,,,,,,817.2862045999991,817.3027567999998,817.3027567999998,817.3027567999998,821.0324261999995,,,,821.0386154999997,821.0503860999997,821.0503860999997,821.0986948999998,821.0989382999996,821.1155636999993,821.1155636999993,821.1155636999993,821.1821517999997,821.6324786999994,,,,,,,,,,,,,,,,,,,,,,up,3.7202528999987408,None,space,0.507285800000318,None,P139,001,2025-04-08_10h24.11.399,posner_endo_new1,2024.2.4,60.16496028784162,2025-04-08 10h24.17.941585 +0100,
cube_l.png,0.1,10,catch,19,19,0,up,6.518643200000952,None,None,,,,,,,,,,,0,19,19,19,821.6476765999996,,,,,,,,,,,,,821.6326649999992,821.6476765999996,821.6476765999996,821.6476765999996,828.1751774999993,,,,828.1815062999995,828.1928836999996,828.1928836999996,828.2416125,828.241855799999,828.2582163999996,828.2582163999996,828.2582163999996,828.3246770999995,831.2554248999986,,,,830.3392617999998,831.271525099999,831.271525099999,831.271525099999,,,,,,,,,,,,,,,up,6.518643200000952,None,None,,,P139,001,2025-04-08_10h24.11.399,posner_endo_new1,2024.2.4,60.16496028784162,2025-04-08 10h24.17.941585 +0100,
cube_l.png,0.1,0.31,invalid,20,20,0,up,4.046848499998305,None,space,0.41213169999900856,None,,,,,,,,,0,20,20,20,831.271525099999,,,,,,,,,,,,,831.2555973999988,831.271525099999,831.271525099999,831.271525099999,835.3349862999985,,,,835.341253999999,835.3528030999987,835.3528030999987,835.400748,835.4009934999995,835.4173539999992,835.4173539999992,835.4173539999992,835.4839698999986,835.8345380999999,,,,,,,,,,,,,,,,,,,,,,up,4.046848499998305,None,space,0.41213169999900856,None,P139,001,2025-04-08_10h24.11.399,posner_endo_new1,2024.2.4,60.16496028784162,2025-04-08 10h24.17.941585 +0100,
cube_l.png,0.1,-0.31,valid,21,21,0,up,7.421197699999539,None,space,0.39429290000043693,None,,,,,,,,,0,21,21,21,835.8503731000001,,,,,,,,,,,,,835.8347187999989,835.8503731000001,835.8503731000001,835.8503731000001,843.2769159,,,,843.2833131999996,843.2948401999984,843.2948401999984,843.3428779999995,843.3431227000001,843.3593099999998,843.3593099999998,843.3593099999998,843.4257374999997,843.7596890999994,,,,,,,,,,,,,,,,,,,,,,up,7.421197699999539,None,space,0.39429290000043693,None,P139,001,2025-04-08_10h24.11.399,posner_endo_new1,2024.2.4,60.16496028784162,2025-04-08 10h24.17.941585 +0100,
cube_r.png,0.1,0.31,valid,22,22,0,up,7.831554700000197,None,space,0.3482237999996869,None,,,,,,,,,0,22,22,22,843.7754434999988,,,,,,,,,,,,,843.7598736999989,843.7754434999988,843.7754434999988,843.7754434999988,851.6182978999987,,,,851.6301055999993,851.6403163999985,851.6403163999985,851.6839408999986,851.6843077999984,851.7006832999996,851.7006832999996,851.7006832999996,851.7839941999991,852.0513191999999,,,,,,,,,,,,,,,,,,,,,,up,7.831554700000197,None,space,0.3482237999996869,None,P139,001,2025-04-08_10h24.11.399,posner_endo_new1,2024.2.4,60.16496028784162,2025-04-08 10h24.17.941585 +0100,
cube_r.png,0.1,-0.31,invalid,23,23,0,up,7.251507500001026,None,space,0.4742361999997229,None,,,,,,,,,0,23,23,23,852.0669727999993,,,,,,,,,,,,,852.0516232999998,852.0669727999993,852.0669727999993,852.0669727999993,859.3274551999984,,,,859.3392552999994,859.3497895,859.3497895,859.3925552000001,859.392828099999,859.4090863000001,859.4090863000001,859.4090863000001,859.4922908999997,859.8928328999991,,,,,,,,,,,,,,,,,,,,,,up,7.251507500001026,None,space,0.4742361999997229,None,P139,001,2025-04-08_10h24.11.399,posner_endo_new1,2024.2.4,60.16496028784162,2025-04-08 10h24.17.941585 +0100,
cube_r.png,0.1,0.31,valid,24,24,0,up,6.089883000000555,None,space,0.4812096000005113,None,,,,,,,,,0,24,24,24,859.9084927999993,,,,,,,,,,,,,859.8930379999983,859.9084927999993,859.9084927999993,859.9084927999993,866.0036039999995,,,,866.0111973999992,866.0222457,866.0222457,866.0694346,866.0697036999991,866.0858627999987,866.0858627999987,866.0858627999987,866.1692019999991,866.569805699999,,,,,,,,,,,,,,,,,,,,,,up,6.089883000000555,None,space,0.4812096000005113,None,P139,001,2025-04-08_10h24.11.399,posner_endo_new1,2024.2.4,60.16496028784162,2025-04-08 10h24.17.941585 +0100,
cube_r.png,0.1,-0.31,invalid,25,25,0,up,6.948568600000726,None,space,0.41731679999975313,None,,,,,,,,,0,25,25,25,866.5856219999987,,,,,,,,,,,,,866.5700246999986,866.5856219999987,866.5856219999987,866.5856219999987,873.545881,,,,873.5536069999998,873.5645898999992,873.5645898999992,873.611340899999,873.6116138999987,873.6281756999997,873.6281756999997,873.6281756999997,873.7115734999988,874.0619794999984,,,,,,,,,,,,,,,,,,,,,,up,6.948568600000726,None,space,0.41731679999975313,None,P139,001,2025-04-08_10h24.11.399,posner_endo_new1,2024.2.4,60.16496028784162,2025-04-08 10h24.17.941585 +0100,
cube_l.png,0.1,-0.31,valid,26,26,0,up,5.601505999999063,None,space,0.3839220000008936,None,,,,,,,,,0,26,26,26,874.0776177999996,,,,,,,,,,,,,874.0622000999992,874.0776177999996,874.0776177999996,874.0776177999996,879.6894534999992,,,,879.6969485999998,879.7081258999988,879.7081258999988,879.7554432999987,879.7556971999984,879.7719502999989,879.7719502999989,879.7719502999989,879.8549004999986,880.1720167999993,,,,,,,,,,,,,,,,,,,,,,up,5.601505999999063,None,space,0.3839220000008936,None,P139,001,2025-04-08_10h24.11.399,posner_endo_new1,2024.2.4,60.16496028784162,2025-04-08 10h24.17.941585 +0100,
cube_r.png,0.1,0.31,valid,27,27,0,up,7.362813499999902,None,space,0.43070149999948626,None,,,,,,,,,0,27,27,27,880.1879786999998,,,,,,,,,,,,,880.1722186999996,880.1879786999998,880.1879786999998,880.1879786999998,887.5647253999996,,,,887.5722970999996,887.5834748999987,887.5834748999987,887.6302691000001,887.6305216000001,887.6470789999985,887.6470789999985,887.6470789999985,887.7303873000001,888.0806680999995,,,,,,,,,,,,,,,,,,,,,,up,7.362813499999902,None,space,0.43070149999948626,None,P139,001,2025-04-08_10h24.11.399,posner_endo_new1,2024.2.4,60.16496028784162,2025-04-08 10h24.17.941585 +0100,
cube_r.png,0.1,10,catch,28,28,0,up,6.5423019000008935,None,None,,,,,,,,,,,0,28,28,28,888.0966250999991,,,,,,,,,,,,,888.0808739999993,888.0966250999991,888.0966250999991,888.0966250999991,894.6406837999984,,,,894.6483635999994,894.6594827999998,894.6594827999998,894.7066387999985,894.7069052999996,894.7232928999983,894.7232928999983,894.7232928999983,894.8065121999989,897.7205292999988,,,,896.8207323999995,897.7363931999989,897.7363931999989,897.7363931999989,,,,,,,,,,,,,,,up,6.5423019000008935,None,None,,,P139,001,2025-04-08_10h24.11.399,posner_endo_new1,2024.2.4,60.16496028784162,2025-04-08 10h24.17.941585 +0100,
cube_r.png,0.1,0.31,valid,29,29,0,up,3.702707799999189,None,space,0.39403130000027886,None,,,,,,,,,0,29,29,29,897.7363931999989,,,,,,,,,,,,,897.7207213999991,897.7363931999989,897.7363931999989,897.7363931999989,901.4501365999986,,,,901.4577221,901.4694537999985,901.4694537999985,901.5163981999995,901.5166762999997,901.5329278999998,901.5329278999998,901.5329278999998,901.6162222999992,901.9335124999998,,,,,,,,,,,,,,,,,,,,,,up,3.702707799999189,None,space,0.39403130000027886,None,P139,001,2025-04-08_10h24.11.399,posner_endo_new1,2024.2.4,60.16496028784162,2025-04-08 10h24.17.941585 +0100,
cube_r.png,0.1,0.31,valid,30,30,0,up,5.561134499999753,None,space,0.42819910000071104,None,,,,,,,,,0,30,30,30,901.9490795999991,,,,,,,,,,,,,901.9337171999996,901.9490795999991,901.9490795999991,901.9490795999991,907.5275654999987,,,,907.535184299999,907.5463018999999,907.5463018999999,907.59346,907.5937311999987,907.6096204999994,907.6096204999994,907.6096204999994,907.6933277999997,908.0436303999995,,,,,,,,,,,,,,,,,,,,,,up,5.561134499999753,None,space,0.42819910000071104,None,P139,001,2025-04-08_10h24.11.399,posner_endo_new1,2024.2.4,60.16496028784162,2025-04-08 10h24.17.941585 +0100,
cube_l.png,0.1,-0.31,valid,31,31,0,up,5.851559099999577,None,space,0.40358999999989464,None,,,,,,,,,0,31,31,31,908.0596134999996,,,,,,,,,,,,,908.0438459999987,908.0596134999996,908.0596134999996,908.0596134999996,913.9209997999988,,,,913.9285906999994,913.9398096999994,913.9398096999994,913.9871296999991,913.987402499999,914.0031024999989,914.0031024999989,914.0031024999989,914.0701309999986,914.4206103999986,,,,,,,,,,,,,,,,,,,,,,up,5.851559099999577,None,space,0.40358999999989464,None,P139,001,2025-04-08_10h24.11.399,posner_endo_new1,2024.2.4,60.16496028784162,2025-04-08 10h24.17.941585 +0100,
cube_r.png,0.1,0.31,valid,32,32,0,up,6.6186097000008886,None,space,0.6349528999999166,None,,,,,,,,,0,32,32,32,914.4360551999998,,,,,,,,,,,,,914.4208344999988,914.4360551999998,914.4360551999998,914.4360551999998,921.0638530999986,,,,921.0714294999998,921.0823793999989,921.0823793999989,921.129543699999,921.1298097999988,921.1462665999989,921.1462665999989,921.1462665999989,921.2293539999991,921.7963820999994,,,,,,,,,,,,,,,,,,,,,,up,6.6186097000008886,None,space,0.6349528999999166,None,P139,001,2025-04-08_10h24.11.399,posner_endo_new1,2024.2.4,60.16496028784162,2025-04-08 10h24.17.941585 +0100,
cube_r.png,0.1,-0.31,invalid,33,33,0,up,6.2822785999996995,None,space,0.38486980000016047,None,,,,,,,,,0,33,33,33,921.8122202999984,,,,,,,,,,,,,921.7965912,921.8122202999984,921.8122202999984,921.8122202999984,928.1062954999998,,,,928.1124616999987,928.1239605999999,928.1239605999999,928.1724771999998,928.1727097999992,928.1891001999993,928.1891001999993,928.1891001999993,928.2554591999997,928.5894202,,,,,,,,,,,,,,,,,,,,,,up,6.2822785999996995,None,space,0.38486980000016047,None,P139,001,2025-04-08_10h24.11.399,posner_endo_new1,2024.2.4,60.16496028784162,2025-04-08 10h24.17.941585 +0100,
cube_r.png,0.1,10,catch,34,34,0,up,6.353713200000129,None,None,,,,,,,,,,,0,34,34,34,928.6050078999997,,,,,,,,,,,,,928.589602,928.6050078999997,928.6050078999997,928.6050078999997,934.9658736000001,,,,934.9722119999988,934.9837766,934.9837766,935.0321301999993,935.0323748999999,935.0482221999991,935.0482221999991,935.0482221999991,935.1154165999997,938.0461134999987,,,,937.1299301999989,938.0621336999993,938.0621336999993,938.0621336999993,,,,,,,,,,,,,,,up,6.353713200000129,None,None,,,P139,001,2025-04-08_10h24.11.399,posner_endo_new1,2024.2.4,60.16496028784162,2025-04-08 10h24.17.941585 +0100,
cube_r.png,0.1,0.31,valid,35,35,0,up,5.064410799999678,None,space,0.5224519000003056,None,,,,,,,,,0,35,35,35,938.0621336999993,,,,,,,,,,,,,938.0462876999991,938.0621336999993,938.0621336999993,938.0621336999993,943.1410431999993,,,,943.1473045999992,943.1588112999998,943.1588112999998,943.2071898999984,943.2074410999994,943.2236557999986,943.2236557999986,943.2236557999986,943.2902564999986,943.7571545999999,,,,,,,,,,,,,,,,,,,,,,up,5.064410799999678,None,space,0.5224519000003056,None,P139,001,2025-04-08_10h24.11.399,posner_endo_new1,2024.2.4,60.16496028784162,2025-04-08 10h24.17.941585 +0100,
cube_r.png,0.1,-0.31,invalid,36,36,0,up,6.7613191999989795,None,space,0.46266299999842886,None,,,,,,,,,0,36,36,36,943.7730687999992,,,,,,,,,,,,,943.7573397999986,943.7730687999992,943.7730687999992,943.7730687999992,950.5499747999984,,,,950.5563001999999,950.568296899999,950.568296899999,950.6161410999994,950.6163853999988,950.6326798999999,950.6326798999999,950.6326798999999,950.6991129999988,951.0995640000001,,,,,,,,,,,,,,,,,,,,,,up,6.7613191999989795,None,space,0.46266299999842886,None,P139,001,2025-04-08_10h24.11.399,posner_endo_new1,2024.2.4,60.16496028784162,2025-04-08 10h24.17.941585 +0100,
cube_l.png,0.1,0.31,invalid,37,37,0,up,8.219549399998868,None,space,0.3268133999990823,None,,,,,,,,,0,37,37,37,951.1154127999998,,,,,,,,,,,,,951.0997492999995,951.1154127999998,951.1154127999998,951.1154127999998,959.3411742999997,,,,959.3474438999983,959.3589981999994,959.3589981999994,959.4071719999993,959.4074152999983,959.4235831999995,959.4235831999995,959.4235831999995,959.4900438999994,959.7573796999986,,,,,,,,,,,,,,,,,,,,,,up,8.219549399998868,None,space,0.3268133999990823,None,P139,001,2025-04-08_10h24.11.399,posner_endo_new1,2024.2.4,60.16496028784162,2025-04-08 10h24.17.941585 +0100,
cube_l.png,0.1,0.31,invalid,38,38,0,up,6.68086939999921,None,space,0.36899430000084976,None,,,,,,,,,0,38,38,38,959.7733734999983,,,,,,,,,,,,,959.7575604999984,959.7733734999983,959.7733734999983,959.7733734999983,966.4667196999999,,,,966.4732154999983,966.4847878,966.4847878,966.5332096999991,966.5334587999987,966.5496328999998,966.5496328999998,966.5496328999998,966.6329326999985,966.9334882999992,,,,,,,,,,,,,,,,,,,,,,up,6.68086939999921,None,space,0.36899430000084976,None,P139,001,2025-04-08_10h24.11.399,posner_endo_new1,2024.2.4,60.16496028784162,2025-04-08 10h24.17.941585 +0100,
cube_r.png,0.1,0.31,valid,39,39,0,up,6.2258701999999175,None,space,0.3627312000007805,None,,,,,,,,,0,39,39,39,966.9491758999993,,,,,,,,,,,,,966.9336688999992,966.9491758999993,966.9491758999993,966.9491758999993,973.1771724999999,,,,973.1833893999992,973.1950723999998,973.1950723999998,973.2429923999989,973.2432380999999,973.2590626000001,973.2590626000001,973.2590626000001,973.3423935999999,973.6264725000001,,,,,,,,,,,,,,,,,,,,,,up,6.2258701999999175,None,space,0.3627312000007805,None,P139,001,2025-04-08_10h24.11.399,posner_endo_new1,2024.2.4,60.16496028784162,2025-04-08 10h24.17.941585 +0100,
cube_l.png,0.1,0.31,invalid,40,40,0,up,6.2599713999989035,None,space,0.3774969999994937,None,,,,,,,,,0,40,40,40,973.6424988999988,,,,,,,,,,,,,973.6266587999999,973.6424988999988,973.6424988999988,973.6424988999988,979.9034639999991,,,,979.9097130999999,979.9213177999991,979.9213177999991,979.9693995999987,979.9696470999988,979.9859655,979.9859655,979.9859655,980.0690544999998,980.3698135999985,,,,,,,,,,,,,,,,,,,,,,up,6.2599713999989035,None,space,0.3774969999994937,None,P139,001,2025-04-08_10h24.11.399,posner_endo_new1,2024.2.4,60.16496028784162,2025-04-08 10h24.17.941585 +0100,
cube_l.png,0.1,10,catch,41,41,0,up,7.845197799999369,None,None,,,,,,,,,,,0,41,41,41,980.3853983999998,,,,,,,,,,,,,980.3699968000001,980.3853983999998,980.3853983999998,980.3853983999998,988.2448540999994,,,,988.2511998999998,988.2627174999998,988.2627174999998,988.3105431999993,988.3108004999995,988.3272309999993,988.3272309999993,988.3272309999993,988.4106791999984,991.3247777999986,,,,990.4251780999984,991.3407800999994,991.3407800999994,991.3407800999994,,,,,,,,,,,,,,,up,7.845197799999369,None,None,,,P139,001,2025-04-08_10h24.11.399,posner_endo_new1,2024.2.4,60.16496028784162,2025-04-08 10h24.17.941585 +0100,
cube_l.png,0.1,-0.31,valid,42,42,0,up,3.553621099999873,None,space,0.3858470000013767,None,,,,,,,,,0,42,42,42,991.3407800999994,,,,,,,,,,,,,991.3249485999986,991.3407800999994,991.3407800999994,991.3407800999994,994.9043269999984,,,,994.9106015999987,994.9222727999986,994.9222727999986,994.9706626999996,994.9709021999988,994.9871798999993,994.9871798999993,994.9871798999993,995.0539424999988,995.3877003999987,,,,,,,,,,,,,,,,,,,,,,up,3.553621099999873,None,space,0.3858470000013767,None,P139,001,2025-04-08_10h24.11.399,posner_endo_new1,2024.2.4,60.16496028784162,2025-04-08 10h24.17.941585 +0100,
cube_l.png,0.1,10,catch,43,43,0,up,9.122986799999126,None,None,,,,,,,,,,,0,43,43,43,995.4033442,,,,,,,,,,,,,995.3878867999993,995.4033442,995.4033442,995.4033442,1004.5284123999991,,,,1004.5415317999996,1004.5520419999993,1004.5520419999993,1004.5938145,1004.5940972999997,1004.6102895999993,1004.6102895999993,1004.6102895999993,1004.6936724999996,1007.607748299999,,,,1006.7080750999994,1007.6238185999991,1007.6238185999991,1007.6238185999991,,,,,,,,,,,,,,,up,9.122986799999126,None,None,,,P139,001,2025-04-08_10h24.11.399,posner_endo_new1,2024.2.4,60.16496028784162,2025-04-08 10h24.17.941585 +0100,
cube_l.png,0.1,0.31,invalid,44,44,0,up,8.807196799998565,None,space,0.605106999999407,None,,,,,,,,,0,44,44,44,1007.6238185999991,,,,,,,,,,,,,1007.6079553999989,1007.6238185999991,1007.6238185999991,1007.6238185999991,1016.4324054999997,,,,1016.4404799999993,1016.4513979999992,1016.4513979999992,1016.4982421999994,1016.4985261999991,1016.5151788999992,1016.5151788999992,1016.5151788999992,1016.5983942999992,1017.132307599999,,,,,,,,,,,,,,,,,,,,,,up,8.807196799998565,None,space,0.605106999999407,None,P139,001,2025-04-08_10h24.11.399,posner_endo_new1,2024.2.4,60.16496028784162,2025-04-08 10h24.17.941585 +0100,
cube_l.png,0.1,0.31,invalid,45,45,0,up,7.890787000000273,None,space,0.3969885999995313,None,,,,,,,,,0,45,45,45,1017.1480551999994,,,,,,,,,,,,,1017.1325282999987,1017.1480551999994,1017.1480551999994,1017.1480551999994,1025.0403152,,,,1025.0484263999988,1025.0592103,1025.0592103,1025.106124,1025.1064055999996,1025.1226352999984,1025.1226352999984,1025.1226352999984,1025.1892523999995,1025.5232345999993,,,,,,,,,,,,,,,,,,,,,,up,7.890787000000273,None,space,0.3969885999995313,None,P139,001,2025-04-08_10h24.11.399,posner_endo_new1,2024.2.4,60.16496028784162,2025-04-08 10h24.17.941585 +0100,
cube_r.png,0.1,0.31,valid,46,46,0,up,7.483585900001344,None,space,0.395370099999127,None,,,,,,,,,0,46,46,46,1025.5387706000001,,,,,,,,,,,,,1025.5234530999987,1025.5387706000001,1025.5387706000001,1025.5387706000001,1033.0326000999994,,,,1033.0407025999993,1033.0510572999992,1033.0510572999992,1033.0981276999992,1033.0984135999988,1033.114469,1033.114469,1033.114469,1033.197666099999,1033.5150515999994,,,,,,,,,,,,,,,,,,,,,,up,7.483585900001344,None,space,0.395370099999127,None,P139,001,2025-04-08_10h24.11.399,posner_endo_new1,2024.2.4,60.16496028784162,2025-04-08 10h24.17.941585 +0100,
cube_l.png,0.1,-0.31,valid,47,47,0,up,5.156204299999445,None,space,0.3580051999997522,None,,,,,,,,,0,47,47,47,1033.5307022999987,,,,,,,,,,,,,1033.5152713999996,1033.5307022999987,1033.5307022999987,1033.5307022999987,1038.6928910999995,,,,1038.7010210999997,1038.711964799999,1038.711964799999,1038.7590227,1038.7593088999984,1038.775292799999,1038.775292799999,1038.775292799999,1038.8418452999995,1039.1428012999986,,,,,,,,,,,,,,,,,,,,,,up,5.156204299999445,None,space,0.3580051999997522,None,P139,001,2025-04-08_10h24.11.399,posner_endo_new1,2024.2.4,60.16496028784162,2025-04-08 10h24.17.941585 +0100,
cube_r.png,0.1,-0.31,invalid,48,48,0,up,6.7600710000006075,None,space,0.36128549999921233,None,,,,,,,,,0,48,48,48,1039.1586892999985,,,,,,,,,,,,,1039.1430279999986,1039.1586892999985,1039.1586892999985,1039.1586892999985,1045.9355345999993,,,,1045.9436549999991,1045.9544940999986,1045.9544940999986,1046.0013014999986,1046.0015820999997,1046.0180361999992,1046.0180361999992,1046.0180361999992,1046.101122,1046.3853768999998,,,,,,,,,,,,,,,,,,,,,,up,6.7600710000006075,None,space,0.36128549999921233,None,P139,001,2025-04-08_10h24.11.399,posner_endo_new1,2024.2.4,60.16496028784162,2025-04-08 10h24.17.941585 +0100,
cube_r.png,0.1,10,catch,49,49,0,up,7.452740599999743,None,None,,,,,,,,,,,0,49,49,49,1046.4012600999995,,,,,,,,,,,,,1046.3855991,1046.4012600999995,1046.4012600999995,1046.4012600999995,1053.861182999999,,,,1053.8693815999995,1053.8800759999995,1053.8800759999995,1053.9265793999984,1053.926862299999,1053.9430410999994,1053.9430410999994,1053.9430410999994,1054.0267829999993,1056.9406077999993,,,,1056.0412163,1056.9567201999998,1056.9567201999998,1056.9567201999998,,,,,,,,,,,,,,,up,7.452740599999743,None,None,,,P139,001,2025-04-08_10h24.11.399,posner_endo_new1,2024.2.4,60.16496028784162,2025-04-08 10h24.17.941585 +0100,
cube_l.png,0.1,-0.31,valid,50,50,0,up,4.057654000000184,None,None,,,,,,,,,,,0,50,50,50,1056.9567201999998,,,,,,,,,,,,,1056.9408128999985,1056.9567201999998,1056.9567201999998,1056.9567201999998,1061.0200943,,,,1061.0282541999986,1061.0389729999988,1061.0389729999988,1061.0858997999985,1061.0861795,1061.1023840999987,1061.1023840999987,1061.1023840999987,1061.1858210999999,1064.0998973999995,,,,1063.200657899999,1064.1163215999986,1064.1163215999986,1064.1163215999986,,,,,,,,,,,,,,,up,4.057654000000184,None,None,,,P139,001,2025-04-08_10h24.11.399,posner_endo_new1,2024.2.4,60.16496028784162,2025-04-08 10h24.17.941585 +0100,
cube_l.png,0.1,-0.31,valid,51,51,0,up,3.90648450000117,None,space,0.3722496000009414,None,,,,,,,,,0,51,51,51,1064.1163215999986,,,,,,,,,,,,,1064.1001022,1064.1163215999986,1064.1163215999986,1064.1163215999986,1068.0298730999984,,,,1068.0379739,1068.048473499999,1068.048473499999,1068.0958163999985,1068.0960971999993,1068.1123632999988,1068.1123632999988,1068.1123632999988,1068.1951067999998,1068.4957665999991,,,,,,,,,,,,,,,,,,,,,,up,3.90648450000117,None,space,0.3722496000009414,None,P139,001,2025-04-08_10h24.11.399,posner_endo_new1,2024.2.4,60.16496028784162,2025-04-08 10h24.17.941585 +0100,
cube_r.png,0.1,-0.31,invalid,52,52,0,up,6.199293100000432,None,space,0.41296710000096937,None,,,,,,,,,0,52,52,52,1068.5114907999996,,,,,,,,,,,,,1068.4959818999996,1068.5114907999996,1068.5114907999996,1068.5114907999996,1074.7230457999995,,,,1074.731138199999,1074.7415984999989,1074.7415984999989,1074.7884330999987,1074.7887308999998,1074.8052821,1074.8052821,1074.8052821,1074.8882811999993,1075.2222475999988,,,,,,,,,,,,,,,,,,,,,,up,6.199293100000432,None,space,0.41296710000096937,None,P139,001,2025-04-08_10h24.11.399,posner_endo_new1,2024.2.4,60.16496028784162,2025-04-08 10h24.17.941585 +0100,
cube_l.png,0.1,-0.31,valid,53,53,0,up,7.832571700000699,None,space,0.3850964000012027,None,,,,,,,,,0,53,53,53,1075.2380029999986,,,,,,,,,,,,,1075.2224688999995,1075.2380029999986,1075.2380029999986,1075.2380029999986,1083.080679499999,,,,1083.088832899999,1083.0997849999985,1083.0997849999985,1083.1467004999995,1083.1469863999992,1083.163568,1083.163568,1083.163568,1083.2301432999993,1083.5640347999997,,,,,,,,,,,,,,,,,,,,,,up,7.832571700000699,None,space,0.3850964000012027,None,P139,001,2025-04-08_10h24.11.399,posner_endo_new1,2024.2.4,60.16496028784162,2025-04-08 10h24.17.941585 +0100,
cube_r.png,0.1,10,catch,54,54,0,up,6.5389153999985865,None,None,,,,,,,,,,,0,54,54,54,1083.5793663999993,,,,,,,,,,,,,1083.5642530999994,1083.5793663999993,1083.5793663999993,1083.5793663999993,1090.123974799999,,,,1090.1321438999985,1090.1426622999988,1090.1426622999988,1090.189391599999,1090.189672299999,1090.206273599999,1090.206273599999,1090.206273599999,1090.2894125999992,1093.203818,,,,1092.303944199999,1093.2193945,1093.2193945,1093.2193945,,,,,,,,,,,,,,,up,6.5389153999985865,None,None,,,P139,001,2025-04-08_10h24.11.399,posner_endo_new1,2024.2.4,60.16496028784162,2025-04-08 10h24.17.941585 +0100,
cube_l.png,0.1,0.31,invalid,55,55,0,up,4.531121699999858,None,space,0.44208199999957287,None,,,,,,,,,0,55,55,55,1093.2193945,,,,,,,,,,,,,1093.2040247999994,1093.2193945,1093.2193945,1093.2193945,1097.7659693999994,,,,1097.7740698999987,1097.7846164999992,1097.7846164999992,1097.8315576999994,1097.8318532999983,1097.8482098999993,1097.8482098999993,1097.8482098999993,1097.9149357999995,1098.2987559999983,,,,,,,,,,,,,,,,,,,,,,up,4.531121699999858,None,space,0.44208199999957287,None,P139,001,2025-04-08_10h24.11.399,posner_endo_new1,2024.2.4,60.16496028784162,2025-04-08 10h24.17.941585 +0100,
cube_l.png,0.1,-0.31,valid,56,56,0,up,6.812610599999971,None,space,0.3441324000013992,None,,,,,,,,,0,56,56,56,1098.3142795999993,,,,,,,,,,,,,1098.2989743999988,1098.3142795999993,1098.3142795999993,1098.3142795999993,1105.142054,,,,1105.1500944,1105.1605488999994,1105.1605488999994,1105.2072726999995,1105.2075541999984,1105.2239381,1105.2239381,1105.2239381,1105.3071194999993,1105.5744656999996,,,,,,,,,,,,,,,,,,,,,,up,6.812610599999971,None,space,0.3441324000013992,None,P139,001,2025-04-08_10h24.11.399,posner_endo_new1,2024.2.4,60.16496028784162,2025-04-08 10h24.17.941585 +0100,
cube_r.png,0.1,0.31,valid,57,57,0,up,6.536248000000342,None,space,0.3413710999993782,None,,,,,,,,,0,57,57,57,1105.5901598,,,,,,,,,,,,,1105.5746829,1105.5901598,1105.5901598,1105.5901598,1112.1347140999987,,,,1112.1427844999998,1112.1533408999985,1112.1533408999985,1112.2002501999996,1112.2005346999995,1112.2168471999994,1112.2168471999994,1112.2168471999994,1112.3004607999992,1112.5671884999992,,,,,,,,,,,,,,,,,,,,,,up,6.536248000000342,None,space,0.3413710999993782,None,P139,001,2025-04-08_10h24.11.399,posner_endo_new1,2024.2.4,60.16496028784162,2025-04-08 10h24.17.941585 +0100,
cube_r.png,0.1,-0.31,invalid,58,58,0,up,5.983417200000986,None,space,0.3475954000005004,None,,,,,,,,,0,58,58,58,1112.5832680999993,,,,,,,,,,,,,1112.5674071999983,1112.5832680999993,1112.5832680999993,1112.5832680999993,1118.5779039999998,,,,1118.5859408999986,1118.5966592999994,1118.5966592999994,1118.6436560999991,1118.6439363999998,1118.6603472999996,1118.6603472999996,1118.6603472999996,1118.7433830999998,1119.0112683999996,,,,,,,,,,,,,,,,,,,,,,up,5.983417200000986,None,space,0.3475954000005004,None,P139,001,2025-04-08_10h24.11.399,posner_endo_new1,2024.2.4,60.16496028784162,2025-04-08 10h24.17.941585 +0100,
cube_l.png,0.1,0.31,invalid,59,59,0,up,7.539619399998628,None,space,0.3784529000004113,None,,,,,,,,,0,59,59,59,1119.026824999999,,,,,,,,,,,,,1119.0114840999995,1119.026824999999,1119.026824999999,1119.026824999999,1126.5697594999983,,,,1126.5778324999992,1126.5884087999984,1126.5884087999984,1126.6356619999988,1126.6359438,1126.651839099999,1126.651839099999,1126.651839099999,1126.7351779,1127.0358481999992,,,,,,,,,,,,,,,,,,,,,,up,7.539619399998628,None,space,0.3784529000004113,None,P139,001,2025-04-08_10h24.11.399,posner_endo_new1,2024.2.4,60.16496028784162,2025-04-08 10h24.17.941585 +0100,
