cue_img,cue_soa,target_y,trial,thisN,thisTrialN,thisRepN,key_control2.keys,key_control2.rt,key_control2.duration,key_resp.keys,key_resp.rt,key_resp.duration,practice.thisRepN,practice.thisTrialN,practice.thisN,practice.thisIndex,block1.thisRepN,block1.thisTrialN,block1.thisN,block1.thisIndex,block2.thisRepN,block2.thisTrialN,block2.thisN,block2.thisIndex,thisRow.t,notes,instructions.started,instructions_txt.started,key_control.started,instructions.stopped,key_control.keys,key_control.rt,key_control.duration,ready.started,ready_txt.started,ready_txt.stopped,ready.stopped,fix.started,fixation.started,key_control2.started,fixation_cross.started,fix.stopped,practice.key_control2.keys,practice.key_control2.rt,practice.key_control2.duration,cue.started,cube.started,fixation_cross_cue.started,cue.stopped,target.started,fixation_target.started,fixation_cross_target.started,key_resp.started,star.started,target.stopped,practice.key_resp.keys,practice.key_resp.rt,practice.key_resp.duration,star.stopped,fixation_target.stopped,fixation_cross_target.stopped,key_resp.stopped,block1.key_control2.keys,block1.key_control2.rt,block1.key_control2.duration,block1.key_resp.keys,block1.key_resp.rt,block1.key_resp.duration,break_2.started,text.started,key_control3.started,text.stopped,break_2.stopped,key_control3.keys,key_control3.rt,key_control3.duration,block2.key_control2.keys,block2.key_control2.rt,block2.key_control2.duration,block2.key_resp.keys,block2.key_resp.rt,block2.key_resp.duration,participant,session,date,expName,psychopyVersion,frameRate,expStart,
,,,,,,,,,,,,,,,,,,,,,,,,,,,0.007462099998519989,0.025449799999478273,0.025449799999478273,269.1205356999999,up,269.07951820000017,None,,,,,,,,,,,,,,,,,,,,,,,,,,,,,,,,,,,,,,,,,,,,,,,,,,P140,001,2025-04-08_12h55.37.254,posner_endo_new1,2024.2.4,60.02105538715652,2025-04-08 12h55.45.344180 +0100,
,,,,,,,,,,,,,,,,,,,,,,,,,,,,,,,,,,269.12057730000015,269.1337769999991,272.1335884,272.1144796999979,,,,,,,,,,,,,,,,,,,,,,,,,,,,,,,,,,,,,,,,,,,,,,P140,001,2025-04-08_12h55.37.254,posner_endo_new1,2024.2.4,60.02105538715652,2025-04-08 12h55.45.344180 +0100,
cube_l.png,0.1,0.31,invalid,0,0,0,down,61.14724920000299,None,space,0.5957887000004121,None,0,0,0,1,,,,,,,,,272.1335884,,,,,,,,,,,,,272.12154649999866,272.1335884,272.1335884,272.1335884,333.2858466999969,down,61.14724920000299,None,333.3048493999995,333.31586949999837,333.31586949999837,333.35141119999753,333.3516488999994,333.36788329999763,333.36788329999763,333.36788329999763,333.45111409999663,333.96812729999874,space,0.5957887000004121,None,,,,,,,,,,,,,,,,,,,,,,,,,P140,001,2025-04-08_12h55.37.254,posner_endo_new1,2024.2.4,60.02105538715652,2025-04-08 12h55.45.344180 +0100,
cube_r.png,0.1,-0.31,invalid,1,1,0,down,10.712727800000721,None,space,0.4607065000018338,None,0,1,1,2,,,,,,,,,333.9838667999975,,,,,,,,,,,,,333.9683002999991,333.9838667999975,333.9838667999975,333.9838667999975,344.7071896999987,down,10.712727800000721,None,344.7171851999992,344.72664209999857,344.72664209999857,344.7730279999996,344.7732718999978,344.7895338999988,344.7895338999988,344.7895338999988,344.872919999998,345.25646909999705,space,0.4607065000018338,None,,,,,,,,,,,,,,,,,,,,,,,,,P140,001,2025-04-08_12h55.37.254,posner_endo_new1,2024.2.4,60.02105538715652,2025-04-08 12h55.45.344180 +0100,
cube_l.png,0.1,0.31,invalid,2,2,0,down,8.863979699999618,None,space,0.4335414999986824,None,0,2,2,5,,,,,,,,,345.27220319999833,,,,,,,,,,,,,345.25663859999986,345.27220319999833,345.27220319999833,345.27220319999833,354.14723259999664,down,8.863979699999618,None,354.15416699999696,354.16589620000013,354.16589620000013,354.21337709999716,354.21361989999787,354.22993679999854,354.22993679999854,354.22993679999854,354.2963577999981,354.68019699999786,space,0.4335414999986824,None,,,,,,,,,,,,,,,,,,,,,,,,,P140,001,2025-04-08_12h55.37.254,posner_endo_new1,2024.2.4,60.02105538715652,2025-04-08 12h55.45.344180 +0100,
cube_r.png,0.1,-0.31,invalid,3,3,0,down,12.048073599999043,None,space,0.6914504999986093,None,0,3,3,6,,,,,,,,,354.6959244999998,,,,,,,,,,,,,354.68036589999974,354.6959244999998,354.6959244999998,354.6959244999998,366.750910499999,down,12.048073599999043,None,366.7573376,366.7688606999982,366.7688606999982,366.8170601999991,366.81730049999896,366.8337889999966,366.8337889999966,366.8337889999966,366.9001885999969,367.5337490999991,space,0.6914504999986093,None,,,,,,,,,,,,,,,,,,,,,,,,,P140,001,2025-04-08_12h55.37.254,posner_endo_new1,2024.2.4,60.02105538715652,2025-04-08 12h55.45.344180 +0100,
cube_l.png,0.1,-0.31,valid,4,4,0,down,8.970921699998144,None,space,0.6936163999998826,None,0,4,4,8,,,,,,,,,367.5497228999993,,,,,,,,,,,,,367.5339166999984,367.5497228999993,367.5497228999993,367.5497228999993,376.52463609999904,down,8.970921699998144,None,376.53102619999845,376.5425781999984,376.5425781999984,376.59044749999885,376.5906864999997,376.6070125999977,376.6070125999977,376.6070125999977,376.69026589999703,377.3069957999978,space,0.6936163999998826,None,,,,,,,,,,,,,,,,,,,,,,,,,P140,001,2025-04-08_12h55.37.254,posner_endo_new1,2024.2.4,60.02105538715652,2025-04-08 12h55.45.344180 +0100,
cube_r.png,0.1,10,catch,5,5,0,down,9.525033099998836,None,None,,,0,5,5,3,,,,,,,,,377.3228132999975,,,,,,,,,,,,,377.3071611999985,377.3228132999975,377.3228132999975,377.3228132999975,386.8639000999974,down,9.525033099998836,None,386.8702587999978,386.8818612999967,386.8818612999967,386.9296549999999,386.9298983999979,386.94644770000014,386.94644770000014,386.94644770000014,387.012806499999,389.9436999999998,None,,,389.0275929999989,389.95984099999987,389.95984099999987,389.95984099999987,,,,,,,,,,,,,,,,,,,,,P140,001,2025-04-08_12h55.37.254,posner_endo_new1,2024.2.4,60.02105538715652,2025-04-08 12h55.45.344180 +0100,
cube_r.png,0.1,0.31,valid,6,6,0,down,7.44010260000141,None,space,0.48677329999918584,None,0,6,6,10,,,,,,,,,389.95984099999987,,,,,,,,,,,,,389.94385789999797,389.95984099999987,389.95984099999987,389.95984099999987,397.40319180000006,down,7.44010260000141,None,397.40993139999773,397.4215510999966,397.4215510999966,397.4689742999981,397.4692137999991,397.4856811999998,397.4856811999998,397.4856811999998,397.5520961999973,397.98582629999873,space,0.48677329999918584,None,,,,,,,,,,,,,,,,,,,,,,,,,P140,001,2025-04-08_12h55.37.254,posner_endo_new1,2024.2.4,60.02105538715652,2025-04-08 12h55.45.344180 +0100,
cube_r.png,0.1,-0.31,invalid,7,7,0,down,7.878661599999759,None,space,0.5390006999987236,None,0,7,7,9,,,,,,,,,398.0016821999998,,,,,,,,,,,,,397.98599489999833,398.0016821999998,398.0016821999998,398.0016821999998,405.89443179999944,down,7.878661599999759,None,405.90077569999994,405.9123841999972,405.9123841999972,405.96032299999933,405.9605655999985,405.97705909999786,405.97705909999786,405.97705909999786,406.06016699999964,406.5270332,space,0.5390006999987236,None,,,,,,,,,,,,,,,,,,,,,,,,,P140,001,2025-04-08_12h55.37.254,posner_endo_new1,2024.2.4,60.02105538715652,2025-04-08 12h55.45.344180 +0100,
cube_r.png,0.1,0.31,valid,8,8,0,down,3.272812299997895,None,space,0.5481915000018489,None,0,8,8,7,,,,,,,,,406.5430846999989,,,,,,,,,,,,,406.52721069999825,406.5430846999989,406.5430846999989,406.5430846999989,409.82384979999915,down,3.272812299997895,None,409.83028639999975,409.84189649999826,409.84189649999826,409.8895503999993,409.88979259999905,409.90619779999906,409.90619779999906,409.90619779999906,409.9894229999991,410.4565726999972,space,0.5481915000018489,None,,,,,,,,,,,,,,,,,,,,,,,,,P140,001,2025-04-08_12h55.37.254,posner_endo_new1,2024.2.4,60.02105538715652,2025-04-08 12h55.45.344180 +0100,
cube_l.png,0.1,-0.31,valid,9,9,0,down,9.57581030000074,None,space,0.4649227999980212,None,0,9,9,4,,,,,,,,,410.4722800999989,,,,,,,,,,,,,410.4567427000002,410.4722800999989,410.4722800999989,410.4722800999989,420.0632469999982,down,9.57581030000074,None,420.0695096999989,420.08114939999723,420.08114939999723,420.1290392999981,420.1292790999978,420.1455173999966,420.1455173999966,420.1455173999966,420.21227729999737,420.6126962999988,space,0.4649227999980212,None,,,,,,,,,,,,,,,,,,,,,,,,,P140,001,2025-04-08_12h55.37.254,posner_endo_new1,2024.2.4,60.02105538715652,2025-04-08 12h55.45.344180 +0100,
cube_l.png,0.1,-0.31,valid,10,10,0,down,9.228054499999416,None,space,0.637028700002702,None,0,10,10,0,,,,,,,,,420.6285205999993,,,,,,,,,,,,,420.6128624999983,420.6285205999993,420.6285205999993,420.6285205999993,429.8697704999977,down,9.228054499999416,None,429.87622679999913,429.8878199999999,429.8878199999999,429.93569979999666,429.93594200000007,429.95227069999964,429.95227069999964,429.95227069999964,430.0355148999988,430.6024819999984,space,0.637028700002702,None,,,,,,,,,,,,,,,,,,,,,,,,,P140,001,2025-04-08_12h55.37.254,posner_endo_new1,2024.2.4,60.02105538715652,2025-04-08 12h55.45.344180 +0100,
,,,,,,,,,,,,,,,,,,,,,,,,,,,,,,,,,,430.6026026999971,430.6183435999992,433.6395660999988,433.59923629999685,,,,,,,,,,,,,,,,,,,,,,,,,,,,,,,,,,,,,,,,,,,,,,P140,001,2025-04-08_12h55.37.254,posner_endo_new1,2024.2.4,60.02105538715652,2025-04-08 12h55.45.344180 +0100,
cube_l.png,0.1,10,catch,0,0,0,down,20.568683400000737,None,None,,,,,,,0,0,0,0,,,,,433.6395660999988,,,,,,,,,,,,,433.6291523999971,433.6395660999988,433.6395660999988,433.6395660999988,454.2136439999995,,,,454.23836919999667,454.2510816999966,454.2510816999966,454.2771322999979,454.2774909,454.2935472999998,454.2935472999998,454.2935472999998,454.3772597999996,457.29258259999915,,,,456.39212269999916,457.3077882999969,457.3077882999969,457.3077882999969,down,20.568683400000737,None,None,,,,,,,,,,,,,,,,,P140,001,2025-04-08_12h55.37.254,posner_endo_new1,2024.2.4,60.02105538715652,2025-04-08 12h55.45.344180 +0100,
cube_l.png,0.1,10,catch,1,1,0,down,8.4126505000022,None,None,,,,,,,0,1,1,1,,,,,457.3077882999969,,,,,,,,,,,,,457.29313649999676,457.3077882999969,457.3077882999969,457.3077882999969,465.7332308999976,,,,465.74022449999757,465.75207599999703,465.75207599999703,465.79886859999897,465.79911119999815,465.81556609999825,465.81556609999825,465.81556609999825,465.89862869999706,468.8130738,,,,467.91328109999813,468.82906699999876,468.82906699999876,468.82906699999876,down,8.4126505000022,None,None,,,,,,,,,,,,,,,,,P140,001,2025-04-08_12h55.37.254,posner_endo_new1,2024.2.4,60.02105538715652,2025-04-08 12h55.45.344180 +0100,
cube_l.png,0.1,0.31,invalid,2,2,0,down,9.114833100000396,None,space,0.4249378999993496,None,,,,,0,2,2,2,,,,,468.82906699999876,,,,,,,,,,,,,468.81323989999873,468.82906699999876,468.82906699999876,468.82906699999876,477.95382400000017,,,,477.96068529999684,477.9723951999986,477.9723951999986,478.0198458999985,478.02008529999875,478.03620359999695,478.03620359999695,478.03620359999695,478.10290859999805,478.4700561999998,,,,,,,,down,9.114833100000396,None,space,0.4249378999993496,None,,,,,,,,,,,,,,,P140,001,2025-04-08_12h55.37.254,posner_endo_new1,2024.2.4,60.02105538715652,2025-04-08 12h55.45.344180 +0100,
cube_l.png,0.1,0.31,invalid,3,3,0,down,12.257869600001868,None,space,0.445429300001706,None,,,,,0,3,3,3,,,,,478.48589419999917,,,,,,,,,,,,,478.47024489999967,478.48589419999917,478.48589419999917,478.48589419999917,490.7575192999975,,,,490.7641248999971,490.775899799999,490.775899799999,490.82322679999925,490.8234667999968,490.8397812999974,490.8397812999974,490.8397812999974,490.90647989999707,491.2904346999967,,,,,,,,down,12.257869600001868,None,space,0.445429300001706,None,,,,,,,,,,,,,,,P140,001,2025-04-08_12h55.37.254,posner_endo_new1,2024.2.4,60.02105538715652,2025-04-08 12h55.45.344180 +0100,
cube_l.png,0.1,-0.31,valid,4,4,0,down,9.221927599999617,None,space,0.5231640999991214,None,,,,,0,4,4,4,,,,,491.3061905999966,,,,,,,,,,,,,491.2906133999968,491.3061905999966,491.3061905999966,491.3061905999966,500.5307213999986,,,,500.53723649999665,500.548852099997,500.548852099997,500.596691499999,500.59693289999996,500.61312709999766,500.61312709999766,500.61312709999766,500.67984609999985,501.14693389999957,,,,,,,,down,9.221927599999617,None,space,0.5231640999991214,None,,,,,,,,,,,,,,,P140,001,2025-04-08_12h55.37.254,posner_endo_new1,2024.2.4,60.02105538715652,2025-04-08 12h55.45.344180 +0100,
cube_r.png,0.1,-0.31,invalid,5,5,0,down,11.157196499996644,None,space,0.45407580000028247,None,,,,,0,5,5,5,,,,,501.1625383999999,,,,,,,,,,,,,501.1471184000002,501.1625383999999,501.1625383999999,501.1625383999999,512.3353487999993,,,,512.3419695999983,512.353582599997,512.353582599997,512.4013184999967,512.4015614999989,512.4177963000002,512.4177963000002,512.4177963000002,512.4845614999977,512.8848236999984,,,,,,,,down,11.157196499996644,None,space,0.45407580000028247,None,,,,,,,,,,,,,,,P140,001,2025-04-08_12h55.37.254,posner_endo_new1,2024.2.4,60.02105538715652,2025-04-08 12h55.45.344180 +0100,
cube_r.png,0.1,0.31,valid,6,6,0,down,9.148285100000066,None,space,0.5252160999989428,None,,,,,0,6,6,6,,,,,512.9005089999991,,,,,,,,,,,,,512.8849980999985,512.9005089999991,512.9005089999991,512.9005089999991,522.0588927999997,,,,522.0699765999998,522.0801507999968,522.0801507999968,522.1246671999979,522.1250048999973,522.141340299997,522.141340299997,522.141340299997,522.2244539999992,522.6751771999989,,,,,,,,down,9.148285100000066,None,space,0.5252160999989428,None,,,,,,,,,,,,,,,P140,001,2025-04-08_12h55.37.254,posner_endo_new1,2024.2.4,60.02105538715652,2025-04-08 12h55.45.344180 +0100,
cube_r.png,0.1,-0.31,invalid,7,7,0,down,8.581452599999466,None,space,0.6136280999999144,None,,,,,0,7,7,7,,,,,522.6904529999993,,,,,,,,,,,,,522.6754344000001,522.6904529999993,522.6904529999993,522.6904529999993,531.2828614999999,,,,531.2932889999975,531.303490899998,531.303490899998,531.3484672999984,531.3488078999981,531.3650108999973,531.3650108999973,531.3650108999973,531.4482802999992,531.9821060999966,,,,,,,,down,8.581452599999466,None,space,0.6136280999999144,None,,,,,,,,,,,,,,,P140,001,2025-04-08_12h55.37.254,posner_endo_new1,2024.2.4,60.02105538715652,2025-04-08 12h55.45.344180 +0100,
cube_l.png,0.1,-0.31,valid,8,8,0,down,9.80264790000001,None,space,0.5064275000004272,None,,,,,0,8,8,8,,,,,531.9976295999986,,,,,,,,,,,,,531.9823712999969,531.9976295999986,531.9976295999986,531.9976295999986,541.8054737999992,,,,541.8160906999983,541.8262246999984,541.8262246999984,541.8711294999994,541.8714591999997,541.8875604999994,541.8875604999994,541.8875604999994,541.9708449999998,542.4048915999992,,,,,,,,down,9.80264790000001,None,space,0.5064275000004272,None,,,,,,,,,,,,,,,P140,001,2025-04-08_12h55.37.254,posner_endo_new1,2024.2.4,60.02105538715652,2025-04-08 12h55.45.344180 +0100,
cube_r.png,0.1,-0.31,invalid,9,9,0,down,12.243269899998268,None,space,0.520773399999598,None,,,,,0,9,9,9,,,,,542.4203512999993,,,,,,,,,,,,,542.4051662999991,542.4203512999993,542.4203512999993,542.4203512999993,554.675115799997,,,,554.6857147999981,554.6959919000001,554.6959919000001,554.7412444000001,554.7415720999998,554.7577146999975,554.7577146999975,554.7577146999975,554.824214799999,555.2915577999993,,,,,,,,down,12.243269899998268,None,space,0.520773399999598,None,,,,,,,,,,,,,,,P140,001,2025-04-08_12h55.37.254,posner_endo_new1,2024.2.4,60.02105538715652,2025-04-08 12h55.45.344180 +0100,
cube_l.png,0.1,0.31,invalid,10,10,0,down,10.413568200001464,None,space,0.5434600000007777,None,,,,,0,10,10,10,,,,,555.307127,,,,,,,,,,,,,555.2918116000001,555.307127,555.307127,555.307127,565.7308365999997,,,,565.7414981000002,565.7516810999987,565.7516810999987,565.7965151999997,565.796847499998,565.8130082999996,565.8130082999996,565.8130082999996,565.8963278999981,566.363574199997,,,,,,,,down,10.413568200001464,None,space,0.5434600000007777,None,,,,,,,,,,,,,,,P140,001,2025-04-08_12h55.37.254,posner_endo_new1,2024.2.4,60.02105538715652,2025-04-08 12h55.45.344180 +0100,
cube_r.png,0.1,-0.31,invalid,11,11,0,down,8.573207500001445,None,space,0.535089799999696,None,,,,,0,11,11,11,,,,,566.3790951999981,,,,,,,,,,,,,566.3638357999989,566.3790951999981,566.3790951999981,566.3790951999981,574.9548813999972,,,,574.9654474999988,574.9757623999976,574.9757623999976,575.0203729999994,575.0207008999969,575.0369194999985,575.0369194999985,575.0369194999985,575.1200789999966,575.5876551000001,,,,,,,,down,8.573207500001445,None,space,0.535089799999696,None,,,,,,,,,,,,,,,P140,001,2025-04-08_12h55.37.254,posner_endo_new1,2024.2.4,60.02105538715652,2025-04-08 12h55.45.344180 +0100,
cube_r.png,0.1,0.31,valid,12,12,0,down,10.341083100000105,None,space,0.4864750000015192,None,,,,,0,12,12,12,,,,,575.6028958999996,,,,,,,,,,,,,575.587910899998,575.6028958999996,575.6028958999996,575.6028958999996,585.9601017999994,,,,585.9704091999993,585.9808449999982,585.9808449999982,586.0258216999973,586.0261567999987,586.0423255999995,586.0423255999995,586.0423255999995,586.1255616999988,586.5427445999994,,,,,,,,down,10.341083100000105,None,space,0.4864750000015192,None,,,,,,,,,,,,,,,P140,001,2025-04-08_12h55.37.254,posner_endo_new1,2024.2.4,60.02105538715652,2025-04-08 12h55.45.344180 +0100,
cube_l.png,0.1,10,catch,13,13,0,down,10.857095399998798,None,None,,,,,,,0,13,13,13,,,,,586.5584447000001,,,,,,,,,,,,,586.5429957999986,586.5584447000001,586.5584447000001,586.5584447000001,597.431998,,,,597.4425520999976,597.4526818999984,597.4526818999984,597.4973092999971,597.497637299999,597.5138893999974,597.5138893999974,597.5138893999974,597.5971393999971,600.5116862999967,,,,599.6117543,600.5273835999978,600.5273835999978,600.5273835999978,down,10.857095399998798,None,None,,,,,,,,,,,,,,,,,P140,001,2025-04-08_12h55.37.254,posner_endo_new1,2024.2.4,60.02105538715652,2025-04-08 12h55.45.344180 +0100,
cube_r.png,0.1,-0.31,invalid,14,14,0,down,9.352140099999815,None,space,0.5362955000018701,None,,,,,0,14,14,14,,,,,600.5273835999978,,,,,,,,,,,,,600.5119223000002,600.5273835999978,600.5273835999978,600.5273835999978,609.8856854999976,,,,609.8961829,609.9064583999971,609.9064583999971,609.9513135999987,609.9516427999988,609.9680451999993,609.9680451999993,609.9680451999993,610.051070999998,610.5181970999984,,,,,,,,down,9.352140099999815,None,space,0.5362955000018701,None,,,,,,,,,,,,,,,P140,001,2025-04-08_12h55.37.254,posner_endo_new1,2024.2.4,60.02105538715652,2025-04-08 12h55.45.344180 +0100,
cube_l.png,0.1,-0.31,valid,15,15,0,down,11.097912400000496,None,space,0.524736400002439,None,,,,,0,15,15,15,,,,,610.5338594999994,,,,,,,,,,,,,610.518458399998,610.5338594999994,610.5338594999994,610.5338594999994,621.6404488999979,,,,621.6487042999979,621.6586717999999,621.6586717999999,621.7059098999998,621.7061522999975,621.7225392,621.7225392,621.7225392,621.8057313999998,622.2560927999984,,,,,,,,down,11.097912400000496,None,space,0.524736400002439,None,,,,,,,,,,,,,,,P140,001,2025-04-08_12h55.37.254,posner_endo_new1,2024.2.4,60.02105538715652,2025-04-08 12h55.45.344180 +0100,
cube_r.png,0.1,10,catch,16,16,0,down,9.120604200001253,None,None,,,,,,,0,16,16,16,,,,,622.2718855999992,,,,,,,,,,,,,622.2562680999981,622.2718855999992,622.2718855999992,622.2718855999992,631.3967035999995,,,,631.4035472999967,631.4151888999986,631.4151888999986,631.462536199997,631.4627752999986,631.4791675999986,631.4791675999986,631.4791675999986,631.5456408999999,634.4769256999971,,,,633.5604834999976,634.4927185999986,634.4927185999986,634.4927185999986,down,9.120604200001253,None,None,,,,,,,,,,,,,,,,,P140,001,2025-04-08_12h55.37.254,posner_endo_new1,2024.2.4,60.02105538715652,2025-04-08 12h55.45.344180 +0100,
cube_r.png,0.1,10,catch,17,17,0,down,9.25081180000052,None,None,,,,,,,0,17,17,17,,,,,634.4927185999986,,,,,,,,,,,,,634.477091599998,634.4927185999986,634.4927185999986,634.4927185999986,643.750636599998,,,,643.7573287999985,643.7689735999993,643.7689735999993,643.8165810999999,643.8168234999976,643.8330431999966,643.8330431999966,643.8330431999966,643.8997131999968,646.830541299998,,,,645.9145187999966,646.8466490999999,646.8466490999999,646.8466490999999,down,9.25081180000052,None,None,,,,,,,,,,,,,,,,,P140,001,2025-04-08_12h55.37.254,posner_endo_new1,2024.2.4,60.02105538715652,2025-04-08 12h55.45.344180 +0100,
cube_l.png,0.1,0.31,invalid,18,18,0,down,3.129566799998429,None,space,0.7175504000006185,None,,,,,0,18,18,18,,,,,646.8466490999999,,,,,,,,,,,,,646.8307127999979,646.8466490999999,646.8466490999999,646.8466490999999,649.978105299997,,,,649.9846165999988,649.9961436999984,649.9961436999984,650.043608699998,650.0438515999995,650.0599445999978,650.0599445999978,650.0599445999978,650.1433829999987,650.7934645999994,,,,,,,,down,3.129566799998429,None,space,0.7175504000006185,None,,,,,,,,,,,,,,,P140,001,2025-04-08_12h55.37.254,posner_endo_new1,2024.2.4,60.02105538715652,2025-04-08 12h55.45.344180 +0100,
cube_l.png,0.1,10,catch,19,19,0,down,8.59102300000086,None,None,,,,,,,0,19,19,19,,,,,650.8093530999977,,,,,,,,,,,,,650.7936496999973,650.8093530999977,650.8093530999977,650.8093530999977,659.4014228999986,,,,659.4078309999968,659.4193190999977,659.4193190999977,659.4671540999989,659.4673941999972,659.4839703999969,659.4839703999969,659.4839703999969,659.567040599999,662.4812781999972,,,,661.5816691,662.4973755999999,662.4973755999999,662.4973755999999,down,8.59102300000086,None,None,,,,,,,,,,,,,,,,,P140,001,2025-04-08_12h55.37.254,posner_endo_new1,2024.2.4,60.02105538715652,2025-04-08 12h55.45.344180 +0100,
cube_l.png,0.1,0.31,invalid,20,20,0,down,4.9985906000001705,None,space,0.4786428999977943,None,,,,,0,20,20,20,,,,,662.4973755999999,,,,,,,,,,,,,662.4814439999973,662.4973755999999,662.4973755999999,662.4973755999999,667.5097089999981,,,,667.5161675999989,667.5277879999994,667.5277879999994,667.5755370999977,667.5757782999972,667.592152199999,667.592152199999,667.592152199999,667.6587935999996,668.0757045999999,,,,,,,,down,4.9985906000001705,None,space,0.4786428999977943,None,,,,,,,,,,,,,,,P140,001,2025-04-08_12h55.37.254,posner_endo_new1,2024.2.4,60.02105538715652,2025-04-08 12h55.45.344180 +0100,
cube_l.png,0.1,-0.31,valid,21,21,0,down,3.8676388999992923,None,space,0.5002633000003698,None,,,,,0,21,21,21,,,,,668.0917652999997,,,,,,,,,,,,,668.0758886999974,668.0917652999997,668.0917652999997,668.0917652999997,671.9716492999978,,,,671.9781035999986,671.9895949999991,671.9895949999991,672.0375566999974,672.0377988,672.0543961999974,672.0543961999974,672.0543961999974,672.120836799997,672.5710503999981,,,,,,,,down,3.8676388999992923,None,space,0.5002633000003698,None,,,,,,,,,,,,,,,P140,001,2025-04-08_12h55.37.254,posner_endo_new1,2024.2.4,60.02105538715652,2025-04-08 12h55.45.344180 +0100,
cube_r.png,0.1,0.31,valid,22,22,0,down,10.844875800001319,None,space,0.4885203999983787,None,,,,,0,22,22,22,,,,,672.5869721999989,,,,,,,,,,,,,672.5712257999985,672.5869721999989,672.5869721999989,672.5869721999989,683.4434903999972,,,,683.4498765999997,683.4616442999977,683.4616442999977,683.5092680999987,683.5095099999999,683.5257517999999,683.5257517999999,683.5257517999999,683.6088984999988,684.0261558999991,,,,,,,,down,10.844875800001319,None,space,0.4885203999983787,None,,,,,,,,,,,,,,,P140,001,2025-04-08_12h55.37.254,posner_endo_new1,2024.2.4,60.02105538715652,2025-04-08 12h55.45.344180 +0100,
cube_r.png,0.1,-0.31,invalid,23,23,0,down,7.902998400000797,None,space,0.5893627000004926,None,,,,,0,23,23,23,,,,,684.0420365999998,,,,,,,,,,,,,684.0263337999968,684.0420365999998,684.0420365999998,684.0420365999998,691.9513100999975,,,,691.9576705999971,691.9693198999994,691.9693198999994,692.0172703999997,692.0175152999982,692.0337507999975,692.0337507999975,692.0337507999975,692.1169921999972,692.6340216999997,,,,,,,,down,7.902998400000797,None,space,0.5893627000004926,None,,,,,,,,,,,,,,,P140,001,2025-04-08_12h55.37.254,posner_endo_new1,2024.2.4,60.02105538715652,2025-04-08 12h55.45.344180 +0100,
cube_r.png,0.1,0.31,valid,24,24,0,down,11.918016100000386,None,space,0.4622288999999,None,,,,,0,24,24,24,,,,,692.6498019999999,,,,,,,,,,,,,692.6342063999982,692.6498019999999,692.6498019999999,692.6498019999999,704.5716417999975,,,,704.5781104999987,704.5896281999994,704.5896281999994,704.6376167999988,704.637864999997,704.654149799997,704.654149799997,704.654149799997,704.7372227999986,705.1211005999976,,,,,,,,down,11.918016100000386,None,space,0.4622288999999,None,,,,,,,,,,,,,,,P140,001,2025-04-08_12h55.37.254,posner_endo_new1,2024.2.4,60.02105538715652,2025-04-08 12h55.45.344180 +0100,
cube_r.png,0.1,-0.31,invalid,25,25,0,down,10.950599699997838,None,space,0.4653068000006897,None,,,,,0,25,25,25,,,,,705.1368524999998,,,,,,,,,,,,,705.1212787999975,705.1368524999998,705.1368524999998,705.1368524999998,716.093247599998,,,,716.100073499998,716.1116722999977,716.1116722999977,716.1589937999997,716.1592362999982,716.175640999998,716.175640999998,716.175640999998,716.242185799998,716.6427300999967,,,,,,,,down,10.950599699997838,None,space,0.4653068000006897,None,,,,,,,,,,,,,,,P140,001,2025-04-08_12h55.37.254,posner_endo_new1,2024.2.4,60.02105538715652,2025-04-08 12h55.45.344180 +0100,
cube_l.png,0.1,-0.31,valid,26,26,0,down,8.638425500001176,None,space,0.45338080000146874,None,,,,,0,26,26,26,,,,,716.6584798999975,,,,,,,,,,,,,716.6429125999966,716.6584798999975,716.6584798999975,716.6584798999975,725.3003275999981,,,,725.3067988999974,725.3184771999986,725.3184771999986,725.3664753999983,725.3667188999971,725.3827636999995,725.3827636999995,725.3827636999995,725.4496383999976,725.8499348999976,,,,,,,,down,8.638425500001176,None,space,0.45338080000146874,None,,,,,,,,,,,,,,,P140,001,2025-04-08_12h55.37.254,posner_endo_new1,2024.2.4,60.02105538715652,2025-04-08 12h55.45.344180 +0100,
cube_r.png,0.1,0.31,valid,27,27,0,down,10.838370900000882,None,space,0.44813340000109747,None,,,,,0,27,27,27,,,,,725.8657641999998,,,,,,,,,,,,,725.8501104999996,725.8657641999998,725.8657641999998,725.8657641999998,736.7057206999998,,,,736.7123193999978,736.7239587999975,736.7239587999975,736.771270199999,736.7715127999982,736.7878919999966,736.7878919999966,736.7878919999966,736.8710260999978,737.2381243999989,,,,,,,,down,10.838370900000882,None,space,0.44813340000109747,None,,,,,,,,,,,,,,,P140,001,2025-04-08_12h55.37.254,posner_endo_new1,2024.2.4,60.02105538715652,2025-04-08 12h55.45.344180 +0100,
cube_r.png,0.1,10,catch,28,28,0,down,7.569733199998154,None,None,,,,,,,0,28,28,28,,,,,737.2541746999996,,,,,,,,,,,,,737.2383020999987,737.2541746999996,737.2541746999996,737.2541746999996,744.8306510999973,,,,744.8409772999985,744.8511810999989,744.8511810999989,744.8964986999999,744.8968287999996,744.9128093999971,744.9128093999971,744.9128093999971,744.9962519000001,747.9103555000002,,,,747.0107089999983,747.9263438999988,747.9263438999988,747.9263438999988,down,7.569733199998154,None,None,,,,,,,,,,,,,,,,,P140,001,2025-04-08_12h55.37.254,posner_endo_new1,2024.2.4,60.02105538715652,2025-04-08 12h55.45.344180 +0100,
cube_r.png,0.1,0.31,valid,29,29,0,down,7.434119400000782,None,space,0.5340746999972907,None,,,,,0,29,29,29,,,,,747.9263438999988,,,,,,,,,,,,,747.9105964999981,747.9263438999988,747.9263438999988,747.9263438999988,755.3699465999998,,,,755.3804563999984,755.3905524999973,755.3905524999973,755.4354570999967,755.4357801999977,755.4521266999982,755.4521266999982,755.4521266999982,755.5351711999974,756.0026010999973,,,,,,,,down,7.434119400000782,None,space,0.5340746999972907,None,,,,,,,,,,,,,,,P140,001,2025-04-08_12h55.37.254,posner_endo_new1,2024.2.4,60.02105538715652,2025-04-08 12h55.45.344180 +0100,
cube_r.png,0.1,0.31,valid,30,30,0,down,12.733696799998143,None,space,0.5085789999975532,None,,,,,0,30,30,30,,,,,756.0180045999987,,,,,,,,,,,,,756.0028566000001,756.0180045999987,756.0180045999987,756.0180045999987,768.7559724999992,,,,768.7624658999994,768.7740603999991,768.7740603999991,768.8218382999985,768.8220857999986,768.8383540999966,768.8383540999966,768.8383540999966,768.9217071999992,769.3553338999991,,,,,,,,down,12.733696799998143,None,space,0.5085789999975532,None,,,,,,,,,,,,,,,P140,001,2025-04-08_12h55.37.254,posner_endo_new1,2024.2.4,60.02105538715652,2025-04-08 12h55.45.344180 +0100,
cube_l.png,0.1,-0.31,valid,31,31,0,down,9.532658600001014,None,space,0.5289898999981233,None,,,,,0,31,31,31,,,,,769.3711394999991,,,,,,,,,,,,,769.3555105999985,769.3711394999991,769.3711394999991,769.3711394999991,778.9126694999977,,,,778.9240344999998,778.934368299997,778.934368299997,778.9782313999967,778.9785816999974,778.9944613999978,778.9944613999978,778.9944613999978,779.0777828999999,779.5287211999967,,,,,,,,down,9.532658600001014,None,space,0.5289898999981233,None,,,,,,,,,,,,,,,P140,001,2025-04-08_12h55.37.254,posner_endo_new1,2024.2.4,60.02105538715652,2025-04-08 12h55.45.344180 +0100,
cube_r.png,0.1,0.31,valid,32,32,0,down,8.287327499998355,None,space,0.5536167999998725,None,,,,,0,32,32,32,,,,,779.5440383999994,,,,,,,,,,,,,779.5289997,779.5440383999994,779.5440383999994,779.5440383999994,787.8370266999991,,,,787.847603299997,787.8571641999988,787.8571641999988,787.9023504999968,787.9025915999991,787.9187820999978,787.9187820999978,787.9187820999978,788.0020242999999,788.4858282999994,,,,,,,,down,8.287327499998355,None,space,0.5536167999998725,None,,,,,,,,,,,,,,,P140,001,2025-04-08_12h55.37.254,posner_endo_new1,2024.2.4,60.02105538715652,2025-04-08 12h55.45.344180 +0100,
cube_r.png,0.1,-0.31,invalid,33,33,0,down,12.642254200000025,None,space,0.45452449999720557,None,,,,,0,33,33,33,,,,,788.5016023999997,,,,,,,,,,,,,788.4860027999966,788.5016023999997,788.5016023999997,788.5016023999997,801.1560592999995,,,,801.1628631999993,801.1743455999967,801.1743455999967,801.2219799999984,801.2222131999988,801.2385376999991,801.2385376999991,801.2385376999991,801.3216663999992,801.7053469999992,,,,,,,,down,12.642254200000025,None,space,0.45452449999720557,None,,,,,,,,,,,,,,,P140,001,2025-04-08_12h55.37.254,posner_endo_new1,2024.2.4,60.02105538715652,2025-04-08 12h55.45.344180 +0100,
cube_r.png,0.1,10,catch,34,34,0,down,11.046005100000912,None,None,,,,,,,0,34,34,34,,,,,801.7213190999973,,,,,,,,,,,,,801.7055218999994,801.7213190999973,801.7213190999973,801.7213190999973,812.777435,,,,812.7846901999983,812.7961892999992,812.7961892999992,812.8433475999991,812.8435933999972,812.8600351999994,812.8600351999994,812.8600351999994,812.9266088999975,815.8574248999976,,,,814.9412312999993,815.8736702999995,815.8736702999995,815.8736702999995,down,11.046005100000912,None,None,,,,,,,,,,,,,,,,,P140,001,2025-04-08_12h55.37.254,posner_endo_new1,2024.2.4,60.02105538715652,2025-04-08 12h55.45.344180 +0100,
cube_r.png,0.1,0.31,valid,35,35,0,down,8.582192000001669,None,space,0.4633322000008775,None,,,,,0,35,35,35,,,,,815.8736702999995,,,,,,,,,,,,,815.8575906999977,815.8736702999995,815.8736702999995,815.8736702999995,824.4655043999992,,,,824.4721560999969,824.4837896999998,824.4837896999998,824.5316041999977,824.5318477999972,824.5479477999979,824.5479477999979,824.5479477999979,824.6145814999982,825.0150012999984,,,,,,,,down,8.582192000001669,None,space,0.4633322000008775,None,,,,,,,,,,,,,,,P140,001,2025-04-08_12h55.37.254,posner_endo_new1,2024.2.4,60.02105538715652,2025-04-08 12h55.45.344180 +0100,
cube_r.png,0.1,-0.31,invalid,36,36,0,down,10.712850500000059,None,space,0.7143529000022681,None,,,,,0,36,36,36,,,,,825.030856399997,,,,,,,,,,,,,825.0151799999985,825.030856399997,825.030856399997,825.030856399997,835.7537643999967,,,,835.7601641999972,835.7717152999976,835.7717152999976,835.819877599999,835.8201254999985,835.8362657999969,835.8362657999969,835.8362657999969,835.9031170999988,836.5530756999979,,,,,,,,down,10.712850500000059,None,space,0.7143529000022681,None,,,,,,,,,,,,,,,P140,001,2025-04-08_12h55.37.254,posner_endo_new1,2024.2.4,60.02105538715652,2025-04-08 12h55.45.344180 +0100,
cube_l.png,0.1,0.31,invalid,37,37,0,down,9.694712900000013,None,space,0.7218081999999413,None,,,,,0,37,37,37,,,,,836.5687856999975,,,,,,,,,,,,,836.5532583999993,836.5687856999975,836.5687856999975,836.5687856999975,846.2764051999984,,,,846.2828386000001,846.294492099998,846.294492099998,846.3425282999997,846.3427677,846.3589659999998,846.3589659999998,846.3589659999998,846.4256457999982,847.092256099997,,,,,,,,down,9.694712900000013,None,space,0.7218081999999413,None,,,,,,,,,,,,,,,P140,001,2025-04-08_12h55.37.254,posner_endo_new1,2024.2.4,60.02105538715652,2025-04-08 12h55.45.344180 +0100,
cube_l.png,0.1,0.31,invalid,38,38,0,down,8.187857500000973,None,space,0.51782920000187,None,,,,,0,38,38,38,,,,,847.1081715,,,,,,,,,,,,,847.0924320999984,847.1081715,847.1081715,847.1081715,855.3006760999997,,,,855.3076801999996,855.3191275999998,855.3191275999998,855.3664477999992,855.3666879999982,855.3829938999988,855.3829938999988,855.3829938999988,855.4663560999979,855.9166033999973,,,,,,,,down,8.187857500000973,None,space,0.51782920000187,None,,,,,,,,,,,,,,,P140,001,2025-04-08_12h55.37.254,posner_endo_new1,2024.2.4,60.02105538715652,2025-04-08 12h55.45.344180 +0100,
cube_r.png,0.1,0.31,valid,39,39,0,down,9.811547899997095,None,space,0.4488433000005898,None,,,,,0,39,39,39,,,,,855.9324762999968,,,,,,,,,,,,,855.9167802999982,855.9324762999968,855.9324762999968,855.9324762999968,865.7567910999969,,,,865.7633671999974,865.7750225999989,865.7750225999989,865.8225767999975,865.8228191999988,865.8390282999972,865.8390282999972,865.8390282999972,865.9222687999973,866.2894104999978,,,,,,,,down,9.811547899997095,None,space,0.4488433000005898,None,,,,,,,,,,,,,,,P140,001,2025-04-08_12h55.37.254,posner_endo_new1,2024.2.4,60.02105538715652,2025-04-08 12h55.45.344180 +0100,
cube_l.png,0.1,0.31,invalid,40,40,0,down,12.0543084000019,None,space,0.4465894999993907,None,,,,,0,40,40,40,,,,,866.3051738999966,,,,,,,,,,,,,866.2895852999973,866.3051738999966,866.3051738999966,866.3051738999966,878.3604833999998,,,,878.3669249999984,878.3784407999992,878.3784407999992,878.4264083999988,878.4266505999985,878.4426901999977,878.4426901999977,878.4426901999977,878.5260097999999,878.8931297999989,,,,,,,,down,12.0543084000019,None,space,0.4465894999993907,None,,,,,,,,,,,,,,,P140,001,2025-04-08_12h55.37.254,posner_endo_new1,2024.2.4,60.02105538715652,2025-04-08 12h55.45.344180 +0100,
cube_l.png,0.1,10,catch,41,41,0,down,20.20271469999716,None,None,,,,,,,0,41,41,41,,,,,878.9089881,,,,,,,,,,,,,878.8933081999967,878.9089881,878.9089881,878.9089881,899.1224676999991,,,,899.1292917999999,899.1409028999988,899.1409028999988,899.1882982999996,899.1885417999983,899.2047495999977,899.2047495999977,899.2047495999977,899.2878868999978,902.2021323999979,,,,901.3026468999997,902.2183830999966,902.2183830999966,902.2183830999966,down,20.20271469999716,None,None,,,,,,,,,,,,,,,,,P140,001,2025-04-08_12h55.37.254,posner_endo_new1,2024.2.4,60.02105538715652,2025-04-08 12h55.45.344180 +0100,
cube_l.png,0.1,-0.31,valid,42,42,0,down,8.525517300000502,None,space,0.48368610000034096,None,,,,,0,42,42,42,,,,,902.2183830999966,,,,,,,,,,,,,902.2022989999969,902.2183830999966,902.2183830999966,902.2183830999966,910.7604113999987,,,,910.7667726,910.7781443999993,910.7781443999993,910.8263565999987,910.8266025999983,910.8428637999968,910.8428637999968,910.8428637999968,910.9094488999981,911.3433374999986,,,,,,,,down,8.525517300000502,None,space,0.48368610000034096,None,,,,,,,,,,,,,,,P140,001,2025-04-08_12h55.37.254,posner_endo_new1,2024.2.4,60.02105538715652,2025-04-08 12h55.45.344180 +0100,
cube_l.png,0.1,10,catch,43,43,0,down,9.16049810000186,None,None,,,,,,,0,43,43,43,,,,,911.3589820999987,,,,,,,,,,,,,911.3435129999998,911.3589820999987,911.3589820999987,911.3589820999987,920.5333916999989,,,,920.5398507999998,920.5512825999976,920.5512825999976,920.5996957999996,920.5999386999974,920.6161711999994,920.6161711999994,920.6161711999994,920.6828829999977,923.6136518999992,,,,922.697427199997,923.6297060999968,923.6297060999968,923.6297060999968,down,9.16049810000186,None,None,,,,,,,,,,,,,,,,,P140,001,2025-04-08_12h55.37.254,posner_endo_new1,2024.2.4,60.02105538715652,2025-04-08 12h55.45.344180 +0100,
cube_l.png,0.1,0.31,invalid,44,44,0,down,7.849810100000468,None,space,0.5025648000009824,None,,,,,0,44,44,44,,,,,923.6297060999968,,,,,,,,,,,,,923.6138167999998,923.6297060999968,923.6297060999968,923.6297060999968,931.4890022999971,,,,931.4953269999969,931.5070377999982,931.5070377999982,931.5551726999984,931.5554162999979,931.5715795999968,931.5715795999968,931.5715795999968,931.6382417999994,932.0885720999977,,,,,,,,down,7.849810100000468,None,space,0.5025648000009824,None,,,,,,,,,,,,,,,P140,001,2025-04-08_12h55.37.254,posner_endo_new1,2024.2.4,60.02105538715652,2025-04-08 12h55.45.344180 +0100,
cube_l.png,0.1,0.31,invalid,45,45,0,down,11.040225299999292,None,space,0.6225672000000486,None,,,,,0,45,45,45,,,,,932.1044105000001,,,,,,,,,,,,,932.0887474999981,932.1044105000001,932.1044105000001,932.1044105000001,943.1605151999975,,,,943.167350599997,943.1789027999985,943.1789027999985,943.2262605999967,943.2267276999992,943.2427276999988,943.2427276999988,943.2427276999988,943.3259435999971,943.8766319999995,,,,,,,,down,11.040225299999292,None,space,0.6225672000000486,None,,,,,,,,,,,,,,,P140,001,2025-04-08_12h55.37.254,posner_endo_new1,2024.2.4,60.02105538715652,2025-04-08 12h55.45.344180 +0100,
cube_r.png,0.1,0.31,valid,46,46,0,down,11.226825200003077,None,space,0.577107299999625,None,,,,,0,46,46,46,,,,,943.8922222000001,,,,,,,,,,,,,943.8768657,943.8922222000001,943.8922222000001,943.8922222000001,955.1318251999983,,,,955.1413730999993,955.1515765999975,955.1515765999975,955.1975996000001,955.1979084999984,955.2139450999966,955.2139450999966,955.2139450999966,955.2974276999994,955.7978573,,,,,,,,down,11.226825200003077,None,space,0.577107299999625,None,,,,,,,,,,,,,,,P140,001,2025-04-08_12h55.37.254,posner_endo_new1,2024.2.4,60.02105538715652,2025-04-08 12h55.45.344180 +0100,
cube_l.png,0.1,-0.31,valid,47,47,0,down,8.914456000002247,None,space,0.48407419999784906,None,,,,,0,47,47,47,,,,,955.8134075999988,,,,,,,,,,,,,955.798093999998,955.8134075999988,955.8134075999988,955.8134075999988,964.7386022999999,,,,964.7478516999981,964.7581016999975,964.7581016999975,964.8044859000001,964.8048000999988,964.820678,964.820678,964.820678,964.9040994999996,965.3214044999986,,,,,,,,down,8.914456000002247,None,space,0.48407419999784906,None,,,,,,,,,,,,,,,P140,001,2025-04-08_12h55.37.254,posner_endo_new1,2024.2.4,60.02105538715652,2025-04-08 12h55.45.344180 +0100,
cube_r.png,0.1,-0.31,invalid,48,48,0,down,9.430315400000836,None,space,0.4490704000018013,None,,,,,0,48,48,48,,,,,965.3371544999973,,,,,,,,,,,,,965.3216381999991,965.3371544999973,965.3371544999973,965.3371544999973,974.7783263999991,,,,974.7877047999973,974.7976760999991,974.7976760999991,974.8440956999984,974.8443979999975,974.8604599999999,974.8604599999999,974.8604599999999,974.9438825999969,975.311173799997,,,,,,,,down,9.430315400000836,None,space,0.4490704000018013,None,,,,,,,,,,,,,,,P140,001,2025-04-08_12h55.37.254,posner_endo_new1,2024.2.4,60.02105538715652,2025-04-08 12h55.45.344180 +0100,
cube_r.png,0.1,10,catch,49,49,0,down,9.376249099997949,None,None,,,,,,,0,49,49,49,,,,,975.3268632999971,,,,,,,,,,,,,975.3114040999972,975.3268632999971,975.3268632999971,975.3268632999971,984.7185516999998,,,,984.7280853999982,984.7381549999991,984.7381549999991,984.7838198999998,984.7841324000001,984.8004263999974,984.8004263999974,984.8004263999974,984.8835534999998,987.7979629999973,,,,986.8981915999975,987.813791499997,987.813791499997,987.813791499997,down,9.376249099997949,None,None,,,,,,,,,,,,,,,,,P140,001,2025-04-08_12h55.37.254,posner_endo_new1,2024.2.4,60.02105538715652,2025-04-08 12h55.45.344180 +0100,
cube_l.png,0.1,-0.31,valid,50,50,0,down,7.689469199998712,None,space,0.5746212999983982,None,,,,,0,50,50,50,,,,,987.813791499997,,,,,,,,,,,,,987.7981862999986,987.813791499997,987.813791499997,987.813791499997,995.5071452999982,,,,995.5167254999978,995.5268547999985,995.5268547999985,995.572822099999,995.5731289999967,995.5892752,995.5892752,995.5892752,995.6726490999972,996.1732204999971,,,,,,,,down,7.689469199998712,None,space,0.5746212999983982,None,,,,,,,,,,,,,,,P140,001,2025-04-08_12h55.37.254,posner_endo_new1,2024.2.4,60.02105538715652,2025-04-08 12h55.45.344180 +0100,
cube_l.png,0.1,-0.31,valid,51,51,0,down,2.538621800002147,None,space,0.4717224999985774,None,,,,,0,51,51,51,,,,,996.1886997000001,,,,,,,,,,,,,996.1734516999968,996.1886997000001,996.1886997000001,996.1886997000001,998.7371547999974,,,,998.7462151,998.7559705999993,998.7559705999993,998.8029532,998.8031975999984,998.819342499999,998.819342499999,998.819342499999,998.9026471999969,999.3029718999969,,,,,,,,down,2.538621800002147,None,space,0.4717224999985774,None,,,,,,,,,,,,,,,P140,001,2025-04-08_12h55.37.254,posner_endo_new1,2024.2.4,60.02105538715652,2025-04-08 12h55.45.344180 +0100,
cube_r.png,0.1,-0.31,invalid,52,52,0,down,6.737332400000014,None,space,0.5179777000012109,None,,,,,0,52,52,52,,,,,999.3187586999993,,,,,,,,,,,,,999.3031441999992,999.3187586999993,999.3187586999993,999.3187586999993,1006.0624472999989,,,,1006.0701267999975,1006.081670399999,1006.081670399999,1006.128464999998,1006.1286832999976,1006.1452101999967,1006.1452101999967,1006.1452101999967,1006.2277661999979,1006.6788302999994,,,,,,,,down,6.737332400000014,None,space,0.5179777000012109,None,,,,,,,,,,,,,,,P140,001,2025-04-08_12h55.37.254,posner_endo_new1,2024.2.4,60.02105538715652,2025-04-08 12h55.45.344180 +0100,
cube_l.png,0.1,-0.31,valid,53,53,0,down,7.536667000000307,None,space,0.7658058999986679,None,,,,,0,53,53,53,,,,,1006.6945650999987,,,,,,,,,,,,,1006.6790043999972,1006.6945650999987,1006.6945650999987,1006.6945650999987,1014.2377726999985,,,,1014.2441654999966,1014.2556721999972,1014.2556721999972,1014.3036582999994,1014.3039031999979,1014.320085899999,1014.320085899999,1014.320085899999,1014.4034054999975,1015.0872810999972,,,,,,,,down,7.536667000000307,None,space,0.7658058999986679,None,,,,,,,,,,,,,,,P140,001,2025-04-08_12h55.37.254,posner_endo_new1,2024.2.4,60.02105538715652,2025-04-08 12h55.45.344180 +0100,
cube_r.png,0.1,10,catch,54,54,0,down,8.168478999999934,None,None,,,,,,,0,54,54,54,,,,,1015.1028277999976,,,,,,,,,,,,,1015.0874610999999,1015.1028277999976,1015.1028277999976,1015.1028277999976,1023.2784557999985,,,,1023.285466399997,1023.296951999997,1023.296951999997,1023.3443094999966,1023.3445526999967,1023.3609559999968,1023.3609559999968,1023.3609559999968,1023.4274667999998,1026.3583461999988,,,,1025.4422019999984,1026.3746165999983,1026.3746165999983,1026.3746165999983,down,8.168478999999934,None,None,,,,,,,,,,,,,,,,,P140,001,2025-04-08_12h55.37.254,posner_endo_new1,2024.2.4,60.02105538715652,2025-04-08 12h55.45.344180 +0100,
cube_l.png,0.1,0.31,invalid,55,55,0,down,4.233012799999415,None,space,0.509567999997671,None,,,,,0,55,55,55,,,,,1026.3746165999983,,,,,,,,,,,,,1026.3585122999975,1026.3746165999983,1026.3746165999983,1026.3746165999983,1030.6208079999997,,,,1030.6272551000002,1030.6389358999986,1030.6389358999986,1030.6868671999982,1030.6871100999997,1030.7028068,1030.7028068,1030.7028068,1030.7700164999987,1031.2202601999998,,,,,,,,down,4.233012799999415,None,space,0.509567999997671,None,,,,,,,,,,,,,,,P140,001,2025-04-08_12h55.37.254,posner_endo_new1,2024.2.4,60.02105538715652,2025-04-08 12h55.45.344180 +0100,
cube_l.png,0.1,-0.31,valid,56,56,0,down,12.019426899998507,None,space,0.4475165999974706,None,,,,,0,56,56,56,,,,,1031.2361186999988,,,,,,,,,,,,,1031.2204359999996,1031.2361186999988,1031.2361186999988,1031.2361186999988,1043.2580725999978,,,,1043.2645883999976,1043.2762092999983,1043.2762092999983,1043.3239256999987,1043.3241689999995,1043.3404362,1043.3404362,1043.3404362,1043.4236170999975,1043.7908413999976,,,,,,,,down,12.019426899998507,None,space,0.4475165999974706,None,,,,,,,,,,,,,,,P140,001,2025-04-08_12h55.37.254,posner_endo_new1,2024.2.4,60.02105538715652,2025-04-08 12h55.45.344180 +0100,
cube_r.png,0.1,0.31,valid,57,57,0,down,10.504676299999119,None,space,0.44325109999772394,None,,,,,0,57,57,57,,,,,1043.806615999998,,,,,,,,,,,,,1043.791019799999,1043.806615999998,1043.806615999998,1043.806615999998,1054.3139451999996,,,,1054.326067599999,1054.3363683999996,1054.3363683999996,1054.3792815999986,1054.3796465999985,1054.395739399999,1054.395739399999,1054.395739399999,1054.4792345999995,1054.8465646999975,,,,,,,,down,10.504676299999119,None,space,0.44325109999772394,None,,,,,,,,,,,,,,,P140,001,2025-04-08_12h55.37.254,posner_endo_new1,2024.2.4,60.02105538715652,2025-04-08 12h55.45.344180 +0100,
cube_r.png,0.1,-0.31,invalid,58,58,0,down,15.744970200001262,None,space,0.40164089999962016,None,,,,,0,58,58,58,,,,,1054.862004399998,,,,,,,,,,,,,1054.8468822999967,1054.862004399998,1054.862004399998,1054.862004399998,1070.6130887,,,,1070.6197401999998,1070.6313153999981,1070.6313153999981,1070.679239099998,1070.6794790999993,1070.6957762999991,1070.6957762999991,1070.6957762999991,1070.7624150999982,1071.112801299998,,,,,,,,down,15.744970200001262,None,space,0.40164089999962016,None,,,,,,,,,,,,,,,P140,001,2025-04-08_12h55.37.254,posner_endo_new1,2024.2.4,60.02105538715652,2025-04-08 12h55.45.344180 +0100,
cube_l.png,0.1,0.31,invalid,59,59,0,down,10.535687399999006,None,space,0.7270627999969292,None,,,,,0,59,59,59,,,,,1071.1285616999994,,,,,,,,,,,,,1071.1129757999988,1071.1285616999994,1071.1285616999994,1071.1285616999994,1081.6686960999978,,,,1081.6752817999986,1081.6868927999967,1081.6868927999967,1081.7345737999967,1081.7348195999984,1081.751128699998,1081.751128699998,1081.751128699998,1081.8343649999988,1082.4841203999968,,,,,,,,down,10.535687399999006,None,space,0.7270627999969292,None,,,,,,,,,,,,,,,P140,001,2025-04-08_12h55.37.254,posner_endo_new1,2024.2.4,60.02105538715652,2025-04-08 12h55.45.344180 +0100,
,,,,,,,,,,,,,,,,,,,,,,,,,,,,,,,,,,,,,,,,,,,,,,,,,,,,,,,,,,,,,,,,,,,,,1082.484236999997,1082.5004276,1082.5004276,1142.5055134999966,1163.2519802999996,space,80.74713880000127,None,,,,,,,P140,001,2025-04-08_12h55.37.254,posner_endo_new1,2024.2.4,60.02105538715652,2025-04-08 12h55.45.344180 +0100,
,,,,,,,,,,,,,,,,,,,,,,,,,,,,,,,,,,1163.2520490999996,1163.2674399999996,1166.3422165999982,1166.248400499997,,,,,,,,,,,,,,,,,,,,,,,,,,,,,,,,,,,,,,,,,,,,,,P140,001,2025-04-08_12h55.37.254,posner_endo_new1,2024.2.4,60.02105538715652,2025-04-08 12h55.45.344180 +0100,
cube_l.png,0.1,10,catch,0,0,0,up,6.250090099998488,None,None,,,,,,,,,,,0,0,0,0,1166.3422165999982,,,,,,,,,,,,,1166.333896,1166.3422165999982,1166.3422165999982,1166.3422165999982,1172.6088598999995,,,,1172.6160329999984,1172.6274958999966,1172.6274958999966,1172.6746716999987,1172.6749128999982,1172.691276499998,1172.691276499998,1172.691276499998,1172.7745142999993,1175.6886470999998,,,,1174.7890384999992,1175.7049135999987,1175.7049135999987,1175.7049135999987,,,,,,,,,,,,,,,up,6.250090099998488,None,None,,,P140,001,2025-04-08_12h55.37.254,posner_endo_new1,2024.2.4,60.02105538715652,2025-04-08 12h55.45.344180 +0100,
cube_l.png,0.1,10,catch,1,1,0,up,6.581965699999273,None,None,,,,,,,,,,,0,1,1,1,1175.7049135999987,,,,,,,,,,,,,1175.688817899998,1175.7049135999987,1175.7049135999987,1175.7049135999987,1182.2988230999981,,,,1182.3053544999966,1182.317052899998,1182.317052899998,1182.364568099998,1182.3650372999982,1182.380991799997,1182.380991799997,1182.380991799997,1182.464246399999,1185.3788760999996,,,,1184.4790987999986,1185.3948079999973,1185.3948079999973,1185.3948079999973,,,,,,,,,,,,,,,up,6.581965699999273,None,None,,,P140,001,2025-04-08_12h55.37.254,posner_endo_new1,2024.2.4,60.02105538715652,2025-04-08 12h55.45.344180 +0100,
cube_l.png,0.1,0.31,invalid,2,2,0,up,5.996748500001559,None,space,0.5055323000015051,None,,,,,,,,,0,2,2,2,1185.3948079999973,,,,,,,,,,,,,1185.3791184000002,1185.3948079999973,1185.3948079999973,1185.3948079999973,1191.406591199997,,,,1191.4173649999975,1191.4274910999993,1191.4274910999993,1191.4721703999967,1191.4725022999992,1191.4886186999975,1191.4886186999975,1191.4886186999975,1191.5718151,1192.0058809000002,,,,,,,,,,,,,,,,,,,,,,up,5.996748500001559,None,space,0.5055323000015051,None,P140,001,2025-04-08_12h55.37.254,posner_endo_new1,2024.2.4,60.02105538715652,2025-04-08 12h55.45.344180 +0100,
cube_l.png,0.1,0.31,invalid,3,3,0,up,9.122345200001291,None,space,0.41588299999784795,None,,,,,,,,,0,3,3,3,1192.021464999998,,,,,,,,,,,,,1192.0061457999982,1192.021464999998,1192.021464999998,1192.021464999998,1201.146513399999,,,,1201.1567066999996,1201.1664187999995,1201.1664187999995,1201.2121391999972,1201.2123858999985,1201.228634799998,1201.228634799998,1201.228634799998,1201.3117725999982,1201.645759799998,,,,,,,,,,,,,,,,,,,,,,up,9.122345200001291,None,space,0.41588299999784795,None,P140,001,2025-04-08_12h55.37.254,posner_endo_new1,2024.2.4,60.02105538715652,2025-04-08 12h55.45.344180 +0100,
cube_l.png,0.1,-0.31,valid,4,4,0,up,9.154143900002964,None,space,0.38500809999823105,None,,,,,,,,,0,4,4,4,1201.6614981999992,,,,,,,,,,,,,1201.6459417999977,1201.6614981999992,1201.6614981999992,1201.6614981999992,1210.8199432999972,,,,1210.8265028999995,1210.8381511999978,1210.8381511999978,1210.885605399999,1210.8858473,1210.9020925999976,1210.9020925999976,1210.9020925999976,1210.9853065999996,1211.3025917999985,,,,,,,,,,,,,,,,,,,,,,up,9.154143900002964,None,space,0.38500809999823105,None,P140,001,2025-04-08_12h55.37.254,posner_endo_new1,2024.2.4,60.02105538715652,2025-04-08 12h55.45.344180 +0100,
cube_r.png,0.1,-0.31,invalid,5,5,0,up,8.83340600000156,None,space,0.41306149999945774,None,,,,,,,,,0,5,5,5,1211.3182654999982,,,,,,,,,,,,,1211.3027720999999,1211.3182654999982,1211.3182654999982,1211.3182654999982,1220.1598750999983,,,,1220.1664448999982,1220.1780818999978,1220.1780818999978,1220.2260067999996,1220.2262477999975,1220.2426253999984,1220.2426253999984,1220.2426253999984,1220.3090691999969,1220.6598362999976,,,,,,,,,,,,,,,,,,,,,,up,8.83340600000156,None,space,0.41306149999945774,None,P140,001,2025-04-08_12h55.37.254,posner_endo_new1,2024.2.4,60.02105538715652,2025-04-08 12h55.45.344180 +0100,
cube_r.png,0.1,0.31,valid,6,6,0,up,10.075614100001985,None,space,0.39973710000049323,None,,,,,,,,,0,6,6,6,1220.6755938999995,,,,,,,,,,,,,1220.6600174999985,1220.6755938999995,1220.6755938999995,1220.6755938999995,1230.7658515999974,,,,1230.7729123999998,1230.7845954999975,1230.7845954999975,1230.8317640999994,1230.8320080999983,1230.8481864999994,1230.8481864999994,1230.8481864999994,1230.9149926999999,1231.2489137999983,,,,,,,,,,,,,,,,,,,,,,up,10.075614100001985,None,space,0.39973710000049323,None,P140,001,2025-04-08_12h55.37.254,posner_endo_new1,2024.2.4,60.02105538715652,2025-04-08 12h55.45.344180 +0100,
cube_r.png,0.1,-0.31,invalid,7,7,0,up,13.71913620000123,None,space,0.42531020000024,None,,,,,,,,,0,7,7,7,1231.264413599998,,,,,,,,,,,,,1231.2491005999982,1231.264413599998,1231.264413599998,1231.264413599998,1244.984867799998,,,,1244.9953560999966,1245.0055201999967,1245.0055201999967,1245.0504260999987,1245.0507588,1245.0670479999972,1245.0670479999972,1245.0670479999972,1245.1502795999986,1245.501074099997,,,,,,,,,,,,,,,,,,,,,,up,13.71913620000123,None,space,0.42531020000024,None,P140,001,2025-04-08_12h55.37.254,posner_endo_new1,2024.2.4,60.02105538715652,2025-04-08 12h55.45.344180 +0100,
cube_l.png,0.1,-0.31,valid,8,8,0,up,4.290302699999302,None,space,0.5114347000017005,None,,,,,,,,,0,8,8,8,1245.5167876999985,,,,,,,,,,,,,1245.5013376999996,1245.5167876999985,1245.5167876999985,1245.5167876999985,1249.8134402999967,,,,1249.823947599998,1249.834069299999,1249.834069299999,1249.8788933999967,1249.8792302999973,1249.8955008999983,1249.8955008999983,1249.8955008999983,1249.9788876999992,1250.4127118999968,,,,,,,,,,,,,,,,,,,,,,up,4.290302699999302,None,space,0.5114347000017005,None,P140,001,2025-04-08_12h55.37.254,posner_endo_new1,2024.2.4,60.02105538715652,2025-04-08 12h55.45.344180 +0100,
cube_r.png,0.1,-0.31,invalid,9,9,0,up,3.858895899997151,None,space,0.5304624999989755,None,,,,,,,,,0,9,9,9,1250.4282254999998,,,,,,,,,,,,,1250.412976399999,1250.4282254999998,1250.4282254999998,1250.4282254999998,1254.2918711999992,,,,1254.301953299997,1254.3121324999993,1254.3121324999993,1254.3577248999973,1254.3580545999976,1254.3743875999971,1254.3743875999971,1254.3743875999971,1254.457476399999,1254.9081738999994,,,,,,,,,,,,,,,,,,,,,,up,3.858895899997151,None,space,0.5304624999989755,None,P140,001,2025-04-08_12h55.37.254,posner_endo_new1,2024.2.4,60.02105538715652,2025-04-08 12h55.45.344180 +0100,
cube_l.png,0.1,0.31,invalid,10,10,0,up,12.931867299997975,None,space,0.4575128000033146,None,,,,,,,,,0,10,10,10,1254.9235795999994,,,,,,,,,,,,,1254.908443799999,1254.9235795999994,1254.9235795999994,1254.9235795999994,1267.8614332999969,,,,1267.8718273999984,1267.882093199998,1267.882093199998,1267.9271094999967,1267.9274385999997,1267.943723299999,1267.943723299999,1267.943723299999,1268.0269541999987,1268.4109285999984,,,,,,,,,,,,,,,,,,,,,,up,12.931867299997975,None,space,0.4575128000033146,None,P140,001,2025-04-08_12h55.37.254,posner_endo_new1,2024.2.4,60.02105538715652,2025-04-08 12h55.45.344180 +0100,
cube_r.png,0.1,-0.31,invalid,11,11,0,up,10.284434599998349,None,space,0.46491819999937434,None,,,,,,,,,0,11,11,11,1268.4267205999968,,,,,,,,,,,,,1268.4111940999974,1268.4267205999968,1268.4267205999968,1268.4267205999968,1278.7171522999997,,,,1278.7278142999967,1278.7379189999992,1278.7379189999992,1278.7825498999991,1278.782876399997,1278.799018499998,1278.799018499998,1278.799018499998,1278.8824269999968,1279.2665061999978,,,,,,,,,,,,,,,,,,,,,,up,10.284434599998349,None,space,0.46491819999937434,None,P140,001,2025-04-08_12h55.37.254,posner_endo_new1,2024.2.4,60.02105538715652,2025-04-08 12h55.45.344180 +0100,
cube_r.png,0.1,0.31,valid,12,12,0,up,11.70927870000014,None,space,0.3795912999994471,None,,,,,,,,,0,12,12,12,1279.2819796999975,,,,,,,,,,,,,1279.2667656999984,1279.2819796999975,1279.2819796999975,1279.2819796999975,1291.0043601999969,,,,1291.0146797999987,1291.0249130999982,1291.0249130999982,1291.0699760999996,1291.0703149999972,1291.086661199999,1291.086661199999,1291.086661199999,1291.1698540999969,1291.4708850999996,,,,,,,,,,,,,,,,,,,,,,up,11.70927870000014,None,space,0.3795912999994471,None,P140,001,2025-04-08_12h55.37.254,posner_endo_new1,2024.2.4,60.02105538715652,2025-04-08 12h55.45.344180 +0100,
cube_l.png,0.1,10,catch,13,13,0,up,10.369334200000594,None,None,,,,,,,,,,,0,13,13,13,1291.486018599997,,,,,,,,,,,,,1291.4711548999985,1291.486018599997,1291.486018599997,1291.486018599997,1301.8599976999976,,,,1301.8686186999985,1301.8785351999977,1301.8785351999977,1301.9256368999995,1301.9258754999973,1301.9421840999967,1301.9421840999967,1301.9421840999967,1302.0253782,1304.939537899998,,,,1304.0400341999994,1304.955453999999,1304.955453999999,1304.955453999999,,,,,,,,,,,,,,,up,10.369334200000594,None,None,,,P140,001,2025-04-08_12h55.37.254,posner_endo_new1,2024.2.4,60.02105538715652,2025-04-08 12h55.45.344180 +0100,
cube_r.png,0.1,-0.31,invalid,14,14,0,up,6.523434200000338,None,space,0.49467530000038096,None,,,,,,,,,0,14,14,14,1304.955453999999,,,,,,,,,,,,,1304.939716599998,1304.955453999999,1304.955453999999,1304.955453999999,1311.4831752999999,,,,1311.4899977999994,1311.5015902999985,1311.5015902999985,1311.549100799999,1311.5493451999973,1311.5655600999999,1311.5655600999999,1311.5655600999999,1311.6487510999978,1312.065875999997,,,,,,,,,,,,,,,,,,,,,,up,6.523434200000338,None,space,0.49467530000038096,None,P140,001,2025-04-08_12h55.37.254,posner_endo_new1,2024.2.4,60.02105538715652,2025-04-08 12h55.45.344180 +0100,
cube_l.png,0.1,-0.31,valid,15,15,0,up,8.933231400002114,None,space,0.41185440000117524,None,,,,,,,,,0,15,15,15,1312.0815150999988,,,,,,,,,,,,,1312.0660623999975,1312.0815150999988,1312.0815150999988,1312.0815150999988,1321.023426599997,,,,1321.0302501999977,1321.0418317999975,1321.0418317999975,1321.0892336999968,1321.0894825999967,1321.1058821999977,1321.1058821999977,1321.1058821999977,1321.1723643999976,1321.522608299998,,,,,,,,,,,,,,,,,,,,,,up,8.933231400002114,None,space,0.41185440000117524,None,P140,001,2025-04-08_12h55.37.254,posner_endo_new1,2024.2.4,60.02105538715652,2025-04-08 12h55.45.344180 +0100,
cube_r.png,0.1,10,catch,16,16,0,up,14.43665669999973,None,None,,,,,,,,,,,0,16,16,16,1321.5387199999968,,,,,,,,,,,,,1321.5227973999972,1321.5387199999968,1321.5387199999968,1321.5387199999968,1335.9913334999983,,,,1335.9976610999984,1336.0093008999975,1336.0093008999975,1336.0572171999993,1336.057459399999,1336.0740308999993,1336.0740308999993,1336.0740308999993,1336.1403680999974,1339.0712735999987,,,,1338.154961799999,1339.087423099998,1339.087423099998,1339.087423099998,,,,,,,,,,,,,,,up,14.43665669999973,None,None,,,P140,001,2025-04-08_12h55.37.254,posner_endo_new1,2024.2.4,60.02105538715652,2025-04-08 12h55.45.344180 +0100,
cube_r.png,0.1,10,catch,17,17,0,up,11.959383600002184,None,None,,,,,,,,,,,0,17,17,17,1339.087423099998,,,,,,,,,,,,,1339.0714456999995,1339.087423099998,1339.087423099998,1339.087423099998,1351.059142299997,,,,1351.065553999997,1351.0770684999989,1351.0770684999989,1351.1252408,1351.1254971999988,1351.1417254999978,1351.1417254999978,1351.1417254999978,1351.208459999998,1354.1391396,,,,1353.2229851999982,1354.155383199999,1354.155383199999,1354.155383199999,,,,,,,,,,,,,,,up,11.959383600002184,None,None,,,P140,001,2025-04-08_12h55.37.254,posner_endo_new1,2024.2.4,60.02105538715652,2025-04-08 12h55.45.344180 +0100,
cube_l.png,0.1,0.31,invalid,18,18,0,up,11.739459899999929,None,space,0.534328199999436,None,,,,,,,,,0,18,18,18,1354.155383199999,,,,,,,,,,,,,1354.1393151999982,1354.155383199999,1354.155383199999,1354.155383199999,1365.9109365999975,,,,1365.9213584999998,1365.9315573999993,1365.9315573999993,1365.9767890999974,1365.9771266999996,1365.993246799997,1365.993246799997,1365.993246799997,1366.0764316999994,1366.5437050999972,,,,,,,,,,,,,,,,,,,,,,up,11.739459899999929,None,space,0.534328199999436,None,P140,001,2025-04-08_12h55.37.254,posner_endo_new1,2024.2.4,60.02105538715652,2025-04-08 12h55.45.344180 +0100,
cube_l.png,0.1,10,catch,19,19,0,up,8.968011500001012,None,None,,,,,,,,,,,0,19,19,19,1366.559201,,,,,,,,,,,,,1366.543971199997,1366.559201,1366.559201,1366.559201,1375.5347344000002,,,,1375.5453862999966,1375.5554710999968,1375.5554710999968,1375.6001024999969,1375.6004291999998,1375.616756299998,1375.616756299998,1375.616756299998,1375.6998679999997,1378.6141602999996,,,,1377.7145351,1378.630204699999,1378.630204699999,1378.630204699999,,,,,,,,,,,,,,,up,8.968011500001012,None,None,,,P140,001,2025-04-08_12h55.37.254,posner_endo_new1,2024.2.4,60.02105538715652,2025-04-08 12h55.45.344180 +0100,
cube_l.png,0.1,0.31,invalid,20,20,0,up,6.745110399999248,None,space,0.4330833999993047,None,,,,,,,,,0,20,20,20,1378.630204699999,,,,,,,,,,,,,1378.6144058999998,1378.630204699999,1378.630204699999,1378.630204699999,1385.391043599997,,,,1385.4017146999977,1385.4118509,1385.4118509,1385.4566871999996,1385.4570135999966,1385.4729762999996,1385.4729762999996,1385.4729762999996,1385.5563318999993,1385.9073489999973,,,,,,,,,,,,,,,,,,,,,,up,6.745110399999248,None,space,0.4330833999993047,None,P140,001,2025-04-08_12h55.37.254,posner_endo_new1,2024.2.4,60.02105538715652,2025-04-08 12h55.45.344180 +0100,
cube_l.png,0.1,-0.31,valid,21,21,0,up,11.156226300001435,None,space,0.4499641000002157,None,,,,,,,,,0,21,21,21,1385.9227009999995,,,,,,,,,,,,,1385.907607699999,1385.9227009999995,1385.9227009999995,1385.9227009999995,1397.0958124999997,,,,1397.1061520999974,1397.1160622999996,1397.1160622999996,1397.161389099998,1397.1617127999998,1397.1776684999968,1397.1776684999968,1397.1776684999968,1397.2611546999979,1397.6287404999966,,,,,,,,,,,,,,,,,,,,,,up,11.156226300001435,None,space,0.4499641000002157,None,P140,001,2025-04-08_12h55.37.254,posner_endo_new1,2024.2.4,60.02105538715652,2025-04-08 12h55.45.344180 +0100,
cube_r.png,0.1,0.31,valid,22,22,0,up,9.72238500000094,None,space,0.4175379000007524,None,,,,,,,,,0,22,22,22,1397.6441491999976,,,,,,,,,,,,,1397.6290085,1397.6441491999976,1397.6441491999976,1397.6441491999976,1407.368596799999,,,,1407.377898499999,1407.387651099998,1407.387651099998,1407.434183199999,1407.4344256999975,1407.4508380999978,1407.4508380999978,1407.4508380999978,1407.5339139999996,1407.8842646999983,,,,,,,,,,,,,,,,,,,,,,up,9.72238500000094,None,space,0.4175379000007524,None,P140,001,2025-04-08_12h55.37.254,posner_endo_new1,2024.2.4,60.02105538715652,2025-04-08 12h55.45.344180 +0100,
cube_r.png,0.1,-0.31,invalid,23,23,0,up,9.698907599999075,None,space,0.4317030000020168,None,,,,,,,,,0,23,23,23,1407.9002803999974,,,,,,,,,,,,,1407.8844458999993,1407.9002803999974,1407.9002803999974,1407.9002803999974,1417.6076201999967,,,,1417.6143195999975,1417.6258602999987,1417.6258602999987,1417.6737608999974,1417.6740095999994,1417.6902826999976,1417.6902826999976,1417.6902826999976,1417.7569262999968,1418.124069999998,,,,,,,,,,,,,,,,,,,,,,up,9.698907599999075,None,space,0.4317030000020168,None,P140,001,2025-04-08_12h55.37.254,posner_endo_new1,2024.2.4,60.02105538715652,2025-04-08 12h55.45.344180 +0100,
cube_r.png,0.1,0.31,valid,24,24,0,up,9.522897599999851,None,space,0.7085067000007257,None,,,,,,,,,0,24,24,24,1418.139822899997,,,,,,,,,,,,,1418.1242520999986,1418.139822899997,1418.139822899997,1418.139822899997,1427.664290599998,,,,1427.6707008999983,1427.682283299997,1427.682283299997,1427.730016399997,1427.730256499999,1427.7465177999984,1427.7465177999984,1427.7465177999984,1427.8298005999968,1428.4632379999966,,,,,,,,,,,,,,,,,,,,,,up,9.522897599999851,None,space,0.7085067000007257,None,P140,001,2025-04-08_12h55.37.254,posner_endo_new1,2024.2.4,60.02105538715652,2025-04-08 12h55.45.344180 +0100,
cube_r.png,0.1,-0.31,invalid,25,25,0,up,12.743834299999435,None,space,0.3914295999966271,None,,,,,,,,,0,25,25,25,1428.4796033999992,,,,,,,,,,,,,1428.4634265999994,1428.4796033999992,1428.4796033999992,1428.4796033999992,1441.2333142999996,,,,1441.2397703999995,1441.2512794999966,1441.2512794999966,1441.2994472999999,1441.2996881,1441.3159712999986,1441.3159712999986,1441.3159712999986,1441.3825543999992,1441.7163540999973,,,,,,,,,,,,,,,,,,,,,,up,12.743834299999435,None,space,0.3914295999966271,None,P140,001,2025-04-08_12h55.37.254,posner_endo_new1,2024.2.4,60.02105538715652,2025-04-08 12h55.45.344180 +0100,
cube_l.png,0.1,-0.31,valid,26,26,0,up,8.506253799998376,None,space,0.4073121000001265,None,,,,,,,,,0,26,26,26,1441.7322986,,,,,,,,,,,,,1441.7165386999986,1441.7322986,1441.7322986,1441.7322986,1450.241042499998,,,,1450.247318499998,1450.258887699998,1450.258887699998,1450.3069590999985,1450.3072036999984,1450.3233268999975,1450.3233268999975,1450.3233268999975,1450.3900908999967,1450.7404955999991,,,,,,,,,,,,,,,,,,,,,,up,8.506253799998376,None,space,0.4073121000001265,None,P140,001,2025-04-08_12h55.37.254,posner_endo_new1,2024.2.4,60.02105538715652,2025-04-08 12h55.45.344180 +0100,
cube_r.png,0.1,0.31,valid,27,27,0,up,11.71562300000005,None,space,0.4380529999980354,None,,,,,,,,,0,27,27,27,1450.7562179999986,,,,,,,,,,,,,1450.7406787,1450.7562179999986,1450.7562179999986,1450.7562179999986,1462.478639699999,,,,1462.4850260999992,1462.4965709999997,1462.4965709999997,1462.5444725999987,1462.544715699998,1462.5609994999977,1462.5609994999977,1462.5609994999977,1462.6443755,1463.0112950999974,,,,,,,,,,,,,,,,,,,,,,up,11.71562300000005,None,space,0.4380529999980354,None,P140,001,2025-04-08_12h55.37.254,posner_endo_new1,2024.2.4,60.02105538715652,2025-04-08 12h55.45.344180 +0100,
cube_r.png,0.1,10,catch,28,28,0,up,9.020336699999461,None,None,,,,,,,,,,,0,28,28,28,1463.0270612999993,,,,,,,,,,,,,1463.0114828999976,1463.0270612999993,1463.0270612999993,1463.0270612999993,1472.0520283999977,,,,1472.0582944999987,1472.069850699998,1472.069850699998,1472.1177469999966,1472.1179906999969,1472.1343190999978,1472.1343190999978,1472.1343190999978,1472.217590999997,1475.1318285999987,,,,1474.2322687999986,1475.1479293999982,1475.1479293999982,1475.1479293999982,,,,,,,,,,,,,,,up,9.020336699999461,None,None,,,P140,001,2025-04-08_12h55.37.254,posner_endo_new1,2024.2.4,60.02105538715652,2025-04-08 12h55.45.344180 +0100,
cube_r.png,0.1,0.31,valid,29,29,0,up,9.930822700000135,None,space,0.4215044999982638,None,,,,,,,,,0,29,29,29,1475.1479293999982,,,,,,,,,,,,,1475.1320009999981,1475.1479293999982,1475.1479293999982,1475.1479293999982,1485.0885860999988,,,,1485.0951529999984,1485.1066949999986,1485.1066949999986,1485.1545418999995,1485.1547926999992,1485.171015,1485.171015,1485.171015,1485.254322599998,1485.6048324999974,,,,,,,,,,,,,,,,,,,,,,up,9.930822700000135,None,space,0.4215044999982638,None,P140,001,2025-04-08_12h55.37.254,posner_endo_new1,2024.2.4,60.02105538715652,2025-04-08 12h55.45.344180 +0100,
cube_r.png,0.1,0.31,valid,30,30,0,up,9.786224699997547,None,space,0.4349997000026633,None,,,,,,,,,0,30,30,30,1485.6206427999969,,,,,,,,,,,,,1485.6050111999975,1485.6206427999969,1485.6206427999969,1485.6206427999969,1495.4113789999974,,,,1495.4176918999983,1495.4292263999996,1495.4292263999996,1495.4776299999976,1495.477870499999,1495.4937230999967,1495.4937230999967,1495.4937230999967,1495.577009499997,1495.944106199997,,,,,,,,,,,,,,,,,,,,,,up,9.786224699997547,None,space,0.4349997000026633,None,P140,001,2025-04-08_12h55.37.254,posner_endo_new1,2024.2.4,60.02105538715652,2025-04-08 12h55.45.344180 +0100,
cube_l.png,0.1,-0.31,valid,31,31,0,up,14.430432799999835,None,space,0.4319647000011173,None,,,,,,,,,0,31,31,31,1495.960020999999,,,,,,,,,,,,,1495.9442906999975,1495.960020999999,1495.960020999999,1495.960020999999,1510.396028199997,,,,1510.402323899998,1510.4139903999967,1510.4139903999967,1510.4620077,1510.4622502999991,1510.478676499999,1510.478676499999,1510.478676499999,1510.5616330999983,1510.912258299999,,,,,,,,,,,,,,,,,,,,,,up,14.430432799999835,None,space,0.4319647000011173,None,P140,001,2025-04-08_12h55.37.254,posner_endo_new1,2024.2.4,60.02105538715652,2025-04-08 12h55.45.344180 +0100,
cube_r.png,0.1,0.31,valid,32,32,0,up,8.926283800003148,None,space,0.421886899999663,None,,,,,,,,,0,32,32,32,1510.9280669,,,,,,,,,,,,,1510.9124525999978,1510.9280669,1510.9280669,1510.9280669,1519.8697166999991,,,,1519.8760934999991,1519.8877233999992,1519.8877233999992,1519.9355297000002,1519.9357717999992,1519.9520631999985,1519.9520631999985,1519.9520631999985,1520.0352482999988,1520.3857904999968,,,,,,,,,,,,,,,,,,,,,,up,8.926283800003148,None,space,0.421886899999663,None,P140,001,2025-04-08_12h55.37.254,posner_endo_new1,2024.2.4,60.02105538715652,2025-04-08 12h55.45.344180 +0100,
cube_r.png,0.1,-0.31,invalid,33,33,0,up,7.989498200000526,None,space,0.43915320000087377,None,,,,,,,,,0,33,33,33,1520.4016856999988,,,,,,,,,,,,,1520.3859733999998,1520.4016856999988,1520.4016856999988,1520.4016856999988,1528.394048299997,,,,1528.400402299998,1528.4119307999972,1528.4119307999972,1528.4601141999992,1528.4603532,1528.4769044999994,1528.4769044999994,1528.4769044999994,1528.543265799999,1528.9269609999974,,,,,,,,,,,,,,,,,,,,,,up,7.989498200000526,None,space,0.43915320000087377,None,P140,001,2025-04-08_12h55.37.254,posner_endo_new1,2024.2.4,60.02105538715652,2025-04-08 12h55.45.344180 +0100,
cube_r.png,0.1,10,catch,34,34,0,up,8.568445100001554,None,None,,,,,,,,,,,0,34,34,34,1528.9429438999978,,,,,,,,,,,,,1528.9271423999999,1528.9429438999978,1528.9429438999978,1528.9429438999978,1537.5183039999974,,,,1537.524899699998,1537.5365401999989,1537.5365401999989,1537.5841705999992,1537.5844187999974,1537.6006901,1537.6006901,1537.6006901,1537.6838331,1540.5981232999984,,,,1539.698533699997,1540.6143109999975,1540.6143109999975,1540.6143109999975,,,,,,,,,,,,,,,up,8.568445100001554,None,None,,,P140,001,2025-04-08_12h55.37.254,posner_endo_new1,2024.2.4,60.02105538715652,2025-04-08 12h55.45.344180 +0100,
cube_r.png,0.1,0.31,valid,35,35,0,up,2.7926573000004282,None,space,0.4352328999993915,None,,,,,,,,,0,35,35,35,1540.6143109999975,,,,,,,,,,,,,1540.598294899999,1540.6143109999975,1540.6143109999975,1540.6143109999975,1543.4122132999983,,,,1543.4185139999972,1543.4300246999992,1543.4300246999992,1543.4780797999993,1543.478326999997,1543.494674999998,1543.494674999998,1543.494674999998,1543.5611912999993,1543.9451020999986,,,,,,,,,,,,,,,,,,,,,,up,2.7926573000004282,None,space,0.4352328999993915,None,P140,001,2025-04-08_12h55.37.254,posner_endo_new1,2024.2.4,60.02105538715652,2025-04-08 12h55.45.344180 +0100,
cube_r.png,0.1,-0.31,invalid,36,36,0,up,11.454121899998427,None,space,0.5238371000014013,None,,,,,,,,,0,36,36,36,1543.960910599999,,,,,,,,,,,,,1543.9452844999978,1543.960910599999,1543.960910599999,1543.960910599999,1555.4167371999974,,,,1555.4230966999967,1555.4345508999977,1555.4345508999977,1555.4824004999973,1555.4826448999993,1555.499022099997,1555.499022099997,1555.499022099997,1555.5822389999994,1556.0326223999982,,,,,,,,,,,,,,,,,,,,,,up,11.454121899998427,None,space,0.5238371000014013,None,P140,001,2025-04-08_12h55.37.254,posner_endo_new1,2024.2.4,60.02105538715652,2025-04-08 12h55.45.344180 +0100,
cube_l.png,0.1,0.31,invalid,37,37,0,up,8.005853700000443,None,space,0.4377301999993506,None,,,,,,,,,0,37,37,37,1556.0484636,,,,,,,,,,,,,1556.0328025999988,1556.0484636,1556.0484636,1556.0484636,1564.0576914999983,,,,1564.0640847999966,1564.0757187999989,1564.0757187999989,1564.123723599998,1564.1239663999986,1564.1401417999987,1564.1401417999987,1564.1401417999987,1564.2233234999985,1564.590549499997,,,,,,,,,,,,,,,,,,,,,,up,8.005853700000443,None,space,0.4377301999993506,None,P140,001,2025-04-08_12h55.37.254,posner_endo_new1,2024.2.4,60.02105538715652,2025-04-08 12h55.45.344180 +0100,
cube_l.png,0.1,0.31,invalid,38,38,0,up,9.000856499998918,None,space,0.44033529999796883,None,,,,,,,,,0,38,38,38,1564.606299799998,,,,,,,,,,,,,1564.590728199997,1564.606299799998,1564.606299799998,1564.606299799998,1573.6143473999982,,,,1573.6208426999983,1573.6325956999972,1573.6325956999972,1573.6803771999985,1573.6806190999996,1573.6969962999974,1573.6969962999974,1573.6969962999974,1573.7635642999994,1574.1472403999978,,,,,,,,,,,,,,,,,,,,,,up,9.000856499998918,None,space,0.44033529999796883,None,P140,001,2025-04-08_12h55.37.254,posner_endo_new1,2024.2.4,60.02105538715652,2025-04-08 12h55.45.344180 +0100,
cube_r.png,0.1,0.31,valid,39,39,0,up,8.459108400002151,None,space,0.41428739999901154,None,,,,,,,,,0,39,39,39,1574.163109899997,,,,,,,,,,,,,1574.1474268999991,1574.163109899997,1574.163109899997,1574.163109899997,1582.6386207999967,,,,1582.6450019999975,1582.6567595999986,1582.6567595999986,1582.7048215999966,1582.7050647999968,1582.721023299997,1582.721023299997,1582.721023299997,1582.804356499997,1583.1381993999967,,,,,,,,,,,,,,,,,,,,,,up,8.459108400002151,None,space,0.41428739999901154,None,P140,001,2025-04-08_12h55.37.254,posner_endo_new1,2024.2.4,60.02105538715652,2025-04-08 12h55.45.344180 +0100,
cube_l.png,0.1,0.31,invalid,40,40,0,up,9.956185999999434,None,space,0.4880445000017062,None,,,,,,,,,0,40,40,40,1583.1540903999994,,,,,,,,,,,,,1583.1383804999969,1583.1540903999994,1583.1540903999994,1583.1540903999994,1593.111367399997,,,,1593.1176827999989,1593.1292987999987,1593.1292987999987,1593.1772558999983,1593.1774989999976,1593.1937522999979,1593.1937522999979,1593.1937522999979,1593.2603210999987,1593.6937633999987,,,,,,,,,,,,,,,,,,,,,,up,9.956185999999434,None,space,0.4880445000017062,None,P140,001,2025-04-08_12h55.37.254,posner_endo_new1,2024.2.4,60.02105538715652,2025-04-08 12h55.45.344180 +0100,
cube_l.png,0.1,10,catch,41,41,0,up,12.776766200000566,None,None,,,,,,,,,,,0,41,41,41,1593.7098057999974,,,,,,,,,,,,,1593.6939447999976,1593.7098057999974,1593.7098057999974,1593.7098057999974,1606.4974503999983,,,,1606.5040794999986,1606.5156158999998,1606.5156158999998,1606.5634427999976,1606.5636906,1606.5799518999993,1606.5799518999993,1606.5799518999993,1606.6465669999998,1609.5773704999992,,,,1608.6612270999976,1609.5935524999986,1609.5935524999986,1609.5935524999986,,,,,,,,,,,,,,,up,12.776766200000566,None,None,,,P140,001,2025-04-08_12h55.37.254,posner_endo_new1,2024.2.4,60.02105538715652,2025-04-08 12h55.45.344180 +0100,
cube_l.png,0.1,-0.31,valid,42,42,0,up,4.061157100000855,None,space,0.7446790000030887,None,,,,,,,,,0,42,42,42,1609.5935524999986,,,,,,,,,,,,,1609.5775405999993,1609.5935524999986,1609.5935524999986,1609.5935524999986,1613.6569161999978,,,,1613.663200199997,1613.6745280999967,1613.6745280999967,1613.7228362999995,1613.7230786,1613.7393651999992,1613.7393651999992,1613.7393651999992,1613.8226302999974,1614.4893153999983,,,,,,,,,,,,,,,,,,,,,,up,4.061157100000855,None,space,0.7446790000030887,None,P140,001,2025-04-08_12h55.37.254,posner_endo_new1,2024.2.4,60.02105538715652,2025-04-08 12h55.45.344180 +0100,
cube_l.png,0.1,10,catch,43,43,0,up,11.237097299999732,None,None,,,,,,,,,,,0,43,43,43,1614.5051013999982,,,,,,,,,,,,,1614.4894957999968,1614.5051013999982,1614.5051013999982,1614.5051013999982,1625.744523199999,,,,1625.7508936999984,1625.7624956,1625.7624956,1625.8103500999969,1625.8105954999992,1625.8270515999975,1625.8270515999975,1625.8270515999975,1625.9101592999978,1628.8244199,,,,1627.924622399998,1628.840483,1628.840483,1628.840483,,,,,,,,,,,,,,,up,11.237097299999732,None,None,,,P140,001,2025-04-08_12h55.37.254,posner_endo_new1,2024.2.4,60.02105538715652,2025-04-08 12h55.45.344180 +0100,
cube_l.png,0.1,0.31,invalid,44,44,0,up,6.054607699999906,None,space,0.4556376000000455,None,,,,,,,,,0,44,44,44,1628.840483,,,,,,,,,,,,,1628.8245951999997,1628.840483,1628.840483,1628.840483,1634.9017823999966,,,,1634.9082318999972,1634.919886399999,1634.919886399999,1634.9675841999997,1634.9678238999986,1634.9841824999967,1634.9841824999967,1634.9841824999967,1635.0505752999998,1635.451139599998,,,,,,,,,,,,,,,,,,,,,,up,6.054607699999906,None,space,0.4556376000000455,None,P140,001,2025-04-08_12h55.37.254,posner_endo_new1,2024.2.4,60.02105538715652,2025-04-08 12h55.45.344180 +0100,
cube_l.png,0.1,0.31,invalid,45,45,0,up,11.379722100002255,None,space,0.5189277999998012,None,,,,,,,,,0,45,45,45,1635.467071199997,,,,,,,,,,,,,1635.4513221999987,1635.467071199997,1635.467071199997,1635.467071199997,1646.856189099999,,,,1646.8630711999976,1646.8746617999968,1646.8746617999968,1646.9220943999971,1646.9223362999983,1646.938658199997,1646.938658199997,1646.938658199997,1647.005282799997,1647.4723358999981,,,,,,,,,,,,,,,,,,,,,,up,11.379722100002255,None,space,0.5189277999998012,None,P140,001,2025-04-08_12h55.37.254,posner_endo_new1,2024.2.4,60.02105538715652,2025-04-08 12h55.45.344180 +0100,
cube_r.png,0.1,0.31,valid,46,46,0,up,9.071941600002901,None,space,0.40432370000053197,None,,,,,,,,,0,46,46,46,1647.4879858999993,,,,,,,,,,,,,1647.4725143999967,1647.4879858999993,1647.4879858999993,1647.4879858999993,1656.5631388999973,,,,1656.5736561999984,1656.5838513999988,1656.5838513999988,1656.628868099997,1656.6291923999997,1656.6453516000001,1656.6453516000001,1656.6453516000001,1656.7284986999985,1657.0625127999992,,,,,,,,,,,,,,,,,,,,,,up,9.071941600002901,None,space,0.40432370000053197,None,P140,001,2025-04-08_12h55.37.254,posner_endo_new1,2024.2.4,60.02105538715652,2025-04-08 12h55.45.344180 +0100,
cube_l.png,0.1,-0.31,valid,47,47,0,up,9.535969000000478,None,space,0.4647867999992741,None,,,,,,,,,0,47,47,47,1657.078250999999,,,,,,,,,,,,,1657.062782099998,1657.078250999999,1657.078250999999,1657.078250999999,1666.6194412999976,,,,1666.6257511999975,1666.6374367999997,1666.6374367999997,1666.6851857000001,1666.6854236,1666.7016824999992,1666.7016824999992,1666.7016824999992,1666.7849927999996,1667.1689007999994,,,,,,,,,,,,,,,,,,,,,,up,9.535969000000478,None,space,0.4647867999992741,None,P140,001,2025-04-08_12h55.37.254,posner_endo_new1,2024.2.4,60.02105538715652,2025-04-08 12h55.45.344180 +0100,
cube_r.png,0.1,-0.31,invalid,48,48,0,up,9.28535770000235,None,space,0.46119330000146874,None,,,,,,,,,0,48,48,48,1667.1848426999968,,,,,,,,,,,,,1667.1690917999986,1667.1848426999968,1667.1848426999968,1667.1848426999968,1676.475964899997,,,,1676.4826837999972,1676.4942617999986,1676.4942617999986,1676.5417595,1676.5420029999987,1676.5582738999983,1676.5582738999983,1676.5582738999983,1676.6415554999985,1677.025271999999,,,,,,,,,,,,,,,,,,,,,,up,9.28535770000235,None,space,0.46119330000146874,None,P140,001,2025-04-08_12h55.37.254,posner_endo_new1,2024.2.4,60.02105538715652,2025-04-08 12h55.45.344180 +0100,
cube_r.png,0.1,10,catch,49,49,0,up,9.38910119999855,None,None,,,,,,,,,,,0,49,49,49,1677.0411002,,,,,,,,,,,,,1677.0254518000002,1677.0411002,1677.0411002,1677.0411002,1686.432737199997,,,,1686.4432812999985,1686.4534531999998,1686.4534531999998,1686.498202699997,1686.4985269999997,1686.5147571999987,1686.5147571999987,1686.5147571999987,1686.5977964999984,1689.5121715999994,,,,1688.6127022,1689.5282857999991,1689.5282857999991,1689.5282857999991,,,,,,,,,,,,,,,up,9.38910119999855,None,None,,,P140,001,2025-04-08_12h55.37.254,posner_endo_new1,2024.2.4,60.02105538715652,2025-04-08 12h55.45.344180 +0100,
cube_l.png,0.1,-0.31,valid,50,50,0,up,7.286289799998485,None,space,0.48434310000084224,None,,,,,,,,,0,50,50,50,1689.5282857999991,,,,,,,,,,,,,1689.5124178999977,1689.5282857999991,1689.5282857999991,1689.5282857999991,1696.821981899997,,,,1696.8323697999986,1696.8427114999977,1696.8427114999977,1696.8875272999976,1696.8878566999992,1696.9039563999977,1696.9039563999977,1696.9039563999977,1696.9872954999992,1697.4046724,,,,,,,,,,,,,,,,,,,,,,up,7.286289799998485,None,space,0.48434310000084224,None,P140,001,2025-04-08_12h55.37.254,posner_endo_new1,2024.2.4,60.02105538715652,2025-04-08 12h55.45.344180 +0100,
cube_l.png,0.1,-0.31,valid,51,51,0,up,8.92182590000084,None,space,0.5440727999994124,None,,,,,,,,,0,51,51,51,1697.4203084999972,,,,,,,,,,,,,1697.404931099998,1697.4203084999972,1697.4203084999972,1697.4203084999972,1706.3453644999972,,,,1706.355615299999,1706.3658881999982,1706.3658881999982,1706.410970099998,1706.4112965999993,1706.4277143,1706.4277143,1706.4277143,1706.5107323999982,1706.9783884999997,,,,,,,,,,,,,,,,,,,,,,up,8.92182590000084,None,space,0.5440727999994124,None,P140,001,2025-04-08_12h55.37.254,posner_endo_new1,2024.2.4,60.02105538715652,2025-04-08 12h55.45.344180 +0100,
cube_r.png,0.1,-0.31,invalid,52,52,0,up,10.533147000001918,None,space,0.5613427999996929,None,,,,,,,,,0,52,52,52,1706.9935621999975,,,,,,,,,,,,,1706.978647099997,1706.9935621999975,1706.9935621999975,1706.9935621999975,1717.5340370999984,,,,1717.5445396999967,1717.5547153999978,1717.5547153999978,1717.5995762999992,1717.599916799998,1717.6161691999987,1717.6161691999987,1717.6161691999987,1717.699358599999,1718.1834148999988,,,,,,,,,,,,,,,,,,,,,,up,10.533147000001918,None,space,0.5613427999996929,None,P140,001,2025-04-08_12h55.37.254,posner_endo_new1,2024.2.4,60.02105538715652,2025-04-08 12h55.45.344180 +0100,
cube_l.png,0.1,-0.31,valid,53,53,0,up,8.127494600001228,None,space,0.48636550000082934,None,,,,,,,,,0,53,53,53,1718.1990450999983,,,,,,,,,,,,,1718.183684399999,1718.1990450999983,1718.1990450999983,1718.1990450999983,1726.3416143999966,,,,1726.352488499997,1726.3625938999976,1726.3625938999976,1726.4072672999973,1726.4076025999966,1726.4239419999976,1726.4239419999976,1726.4239419999976,1726.5070517999993,1726.9243609999976,,,,,,,,,,,,,,,,,,,,,,up,8.127494600001228,None,space,0.48636550000082934,None,P140,001,2025-04-08_12h55.37.254,posner_endo_new1,2024.2.4,60.02105538715652,2025-04-08 12h55.45.344180 +0100,
cube_r.png,0.1,10,catch,54,54,0,up,7.226789799999096,None,None,,,,,,,,,,,0,54,54,54,1726.9400195999988,,,,,,,,,,,,,1726.9246175999979,1726.9400195999988,1726.9400195999988,1726.9400195999988,1734.1837218,,,,1734.1942636999993,1734.2039545999978,1734.2039545999978,1734.2492970999992,1734.2496219999994,1734.2655906999971,1734.2655906999971,1734.2655906999971,1734.349057299998,1737.2633215999995,,,,1736.3636793999976,1737.2794112999982,1737.2794112999982,1737.2794112999982,,,,,,,,,,,,,,,up,7.226789799999096,None,None,,,P140,001,2025-04-08_12h55.37.254,posner_endo_new1,2024.2.4,60.02105538715652,2025-04-08 12h55.45.344180 +0100,
cube_l.png,0.1,0.31,invalid,55,55,0,up,10.743293100000301,None,space,0.5270883999983198,None,,,,,,,,,0,55,55,55,1737.2794112999982,,,,,,,,,,,,,1737.2635659999978,1737.2794112999982,1737.2794112999982,1737.2794112999982,1748.0362984999992,,,,1748.0467898999996,1748.0569270999986,1748.0569270999986,1748.1015592999975,1748.101882699997,1748.1183147999982,1748.1183147999982,1748.1183147999982,1748.2013421999982,1748.6521762999982,,,,,,,,,,,,,,,,,,,,,,up,10.743293100000301,None,space,0.5270883999983198,None,P140,001,2025-04-08_12h55.37.254,posner_endo_new1,2024.2.4,60.02105538715652,2025-04-08 12h55.45.344180 +0100,
cube_l.png,0.1,-0.31,valid,56,56,0,up,9.579238099999202,None,space,0.570511499998247,None,,,,,,,,,0,56,56,56,1748.6676740999974,,,,,,,,,,,,,1748.6524404999982,1748.6676740999974,1748.6676740999974,1748.6676740999974,1758.2590180999978,,,,1758.2693949999993,1758.2795379999989,1758.2795379999989,1758.3245768999986,1758.3249066999997,1758.3411454999987,1758.3411454999987,1758.3411454999987,1758.4244598999976,1758.925121799999,,,,,,,,,,,,,,,,,,,,,,up,9.579238099999202,None,space,0.570511499998247,None,P140,001,2025-04-08_12h55.37.254,posner_endo_new1,2024.2.4,60.02105538715652,2025-04-08 12h55.45.344180 +0100,
cube_r.png,0.1,0.31,valid,57,57,0,up,9.8983765999983,None,space,0.5562209000017901,None,,,,,,,,,0,57,57,57,1758.9403637999967,,,,,,,,,,,,,1758.9253794999968,1758.9403637999967,1758.9403637999967,1758.9403637999967,1768.8482602999975,,,,1768.8587165999998,1768.868866599998,1768.868866599998,1768.9136994,1768.914026999999,1768.9303022999993,1768.9303022999993,1768.9303022999993,1769.0134033999966,1769.4975825000001,,,,,,,,,,,,,,,,,,,,,,up,9.8983765999983,None,space,0.5562209000017901,None,P140,001,2025-04-08_12h55.37.254,posner_endo_new1,2024.2.4,60.02105538715652,2025-04-08 12h55.45.344180 +0100,
cube_r.png,0.1,-0.31,invalid,58,58,0,up,7.669844300002296,None,space,0.5602169000012509,None,,,,,,,,,0,58,58,58,1769.5130307,,,,,,,,,,,,,1769.4978390999968,1769.5130307,1769.5130307,1769.5130307,1777.1895667999997,,,,1777.1998479999966,1777.210012399999,1777.210012399999,1777.2551533999977,1777.255491099997,1777.2715781999977,1777.2715781999977,1777.2715781999977,1777.3550512999973,1777.8389105999995,,,,,,,,,,,,,,,,,,,,,,up,7.669844300002296,None,space,0.5602169000012509,None,P140,001,2025-04-08_12h55.37.254,posner_endo_new1,2024.2.4,60.02105538715652,2025-04-08 12h55.45.344180 +0100,
cube_l.png,0.1,0.31,invalid,59,59,0,up,9.743908199998259,None,space,0.44590709999829414,None,,,,,,,,,0,59,59,59,1777.8544273999978,,,,,,,,,,,,,1777.8391705999966,1777.8544273999978,1777.8544273999978,1777.8544273999978,1787.6121748999976,,,,1787.6226822999997,1787.6328589999976,1787.6328589999976,1787.6778434999978,1787.6781668999974,1787.694297799997,1787.694297799997,1787.694297799997,1787.777637799998,1788.1449501999996,,,,,,,,,,,,,,,,,,,,,,up,9.743908199998259,None,space,0.44590709999829414,None,P140,001,2025-04-08_12h55.37.254,posner_endo_new1,2024.2.4,60.02105538715652,2025-04-08 12h55.45.344180 +0100,
