cue_img,cue_soa,target_y,trial,thisN,thisTrialN,thisRepN,key_control2.keys,key_control2.rt,key_control2.duration,key_resp.keys,key_resp.rt,key_resp.duration,practice.thisRepN,practice.thisTrialN,practice.thisN,practice.thisIndex,block1.thisRepN,block1.thisTrialN,block1.thisN,block1.thisIndex,block2.thisRepN,block2.thisTrialN,block2.thisN,block2.thisIndex,thisRow.t,notes,instructions.started,instructions_txt.started,key_control.started,instructions.stopped,key_control.keys,key_control.rt,key_control.duration,ready.started,ready_txt.started,ready_txt.stopped,ready.stopped,fix.started,fixation.started,key_control2.started,fixation_cross.started,fix.stopped,practice.key_control2.keys,practice.key_control2.rt,practice.key_control2.duration,cue.started,cube.started,fixation_cross_cue.started,cue.stopped,target.started,fixation_target.started,fixation_cross_target.started,key_resp.started,star.started,target.stopped,practice.key_resp.keys,practice.key_resp.rt,practice.key_resp.duration,block1.key_control2.keys,block1.key_control2.rt,block1.key_control2.duration,star.stopped,fixation_target.stopped,fixation_cross_target.stopped,key_resp.stopped,block1.key_resp.keys,block1.key_resp.rt,block1.key_resp.duration,break_2.started,text.started,key_control3.started,text.stopped,break_2.stopped,key_control3.keys,key_control3.rt,key_control3.duration,block2.key_control2.keys,block2.key_control2.rt,block2.key_control2.duration,block2.key_resp.keys,block2.key_resp.rt,block2.key_resp.duration,participant,session,date,expName,psychopyVersion,frameRate,expStart,
,,,,,,,,,,,,,,,,,,,,,,,,,,,0.007418000000001257,0.020149200000005862,0.020149200000005862,456.71933670000004,up,456.6846948,None,,,,,,,,,,,,,,,,,,,,,,,,,,,,,,,,,,,,,,,,,,,,,,,,,,P141,001,2025-04-09_08h52.55.077,posner_endo_new1,2024.2.4,60.069115524323294,2025-04-09 08h53.00.669728 +0100,
,,,,,,,,,,,,,,,,,,,,,,,,,,,,,,,,,,456.71939089999995,456.73528059999995,459.7377882,459.71595729999996,,,,,,,,,,,,,,,,,,,,,,,,,,,,,,,,,,,,,,,,,,,,,,P141,001,2025-04-09_08h52.55.077,posner_endo_new1,2024.2.4,60.069115524323294,2025-04-09 08h53.00.669728 +0100,
cube_r.png,0.1,0.31,valid,0,0,0,up,47.34354940000003,None,space,0.638252800000032,None,0,0,0,7,,,,,,,,,459.7377882,,,,,,,,,,,,,459.7261299,459.7377882,459.7377882,459.7377882,507.08449939999997,up,47.34354940000003,None,507.09854049999996,507.1087527,507.1087527,507.1505612,507.15078910000005,507.16694909999995,507.16694909999995,507.16694909999995,507.25081530000006,507.8171067,space,0.638252800000032,None,,,,,,,,,,,,,,,,,,,,,,,,,P141,001,2025-04-09_08h52.55.077,posner_endo_new1,2024.2.4,60.069115524323294,2025-04-09 08h53.00.669728 +0100,
cube_l.png,0.1,-0.31,valid,1,1,0,up,6.967751299999975,None,space,0.44260349999990467,None,0,1,1,0,,,,,,,,,507.8331625,,,,,,,,,,,,,507.8172738,507.8331625,507.8331625,507.8331625,514.8103091,up,6.967751299999975,None,514.8207766,514.8305253999999,514.8305253999999,514.875978,514.8761999999999,514.8923293,514.8923293,514.8923293,514.9756941999999,515.3429314,space,0.44260349999990467,None,,,,,,,,,,,,,,,,,,,,,,,,,P141,001,2025-04-09_08h52.55.077,posner_endo_new1,2024.2.4,60.069115524323294,2025-04-09 08h53.00.669728 +0100,
cube_r.png,0.1,-0.31,invalid,2,2,0,up,15.49005349999993,None,space,0.42725719999998546,None,0,2,2,2,,,,,,,,,515.3587818000001,,,,,,,,,,,,,515.3431052000001,515.3587818000001,515.3587818000001,515.3587818000001,530.8601519000001,up,15.49005349999993,None,530.8662251999999,530.8779374000001,530.8779374000001,530.9264369,530.9266571999999,530.9426593999999,530.9426593999999,530.9426593999999,531.0094753000001,531.3766638,space,0.42725719999998546,None,,,,,,,,,,,,,,,,,,,,,,,,,P141,001,2025-04-09_08h52.55.077,posner_endo_new1,2024.2.4,60.069115524323294,2025-04-09 08h53.00.669728 +0100,
cube_r.png,0.1,-0.31,invalid,3,3,0,up,15.320484199999783,None,space,0.3894116999999824,None,0,3,3,9,,,,,,,,,531.3923293,,,,,,,,,,,,,531.3768298,531.3923293,531.3923293,531.3923293,546.7273651999999,up,15.320484199999783,None,546.7333414,546.7449654,546.7449654,546.7935265000001,546.7937498000001,546.8097947000001,546.8097947000001,546.8097947000001,546.8765655,547.2101338,space,0.3894116999999824,None,,,,,,,,,,,,,,,,,,,,,,,,,P141,001,2025-04-09_08h52.55.077,posner_endo_new1,2024.2.4,60.069115524323294,2025-04-09 08h53.00.669728 +0100,
cube_r.png,0.1,10,catch,4,4,0,up,3.5268605999999636,None,space,0.5344884999999522,None,0,4,4,3,,,,,,,,,547.2261498,,,,,,,,,,,,,547.2102976000001,547.2261498,547.2261498,547.2261498,550.7566655,up,3.5268605999999636,None,550.7627163,550.7745097,550.7745097,550.8226436,550.8228632,550.83916,550.83916,550.83916,550.9058163,551.3893822,space,0.5344884999999522,None,,,,,,,,,,,,,,,,,,,,,,,,,P141,001,2025-04-09_08h52.55.077,posner_endo_new1,2024.2.4,60.069115524323294,2025-04-09 08h53.00.669728 +0100,
cube_l.png,0.1,0.31,invalid,5,5,0,up,3.059383499999967,None,space,0.45130760000006376,None,0,5,5,1,,,,,,,,,551.4051862000001,,,,,,,,,,,,,551.3895467,551.4051862000001,551.4051862000001,551.4051862000001,554.4695311,up,3.059383499999967,None,554.4754134,554.4870794000001,554.4870794000001,554.5354186,554.5356408,554.5520237999999,554.5520237999999,554.5520237999999,554.6353568,555.0189952000001,space,0.45130760000006376,None,,,,,,,,,,,,,,,,,,,,,,,,,P141,001,2025-04-09_08h52.55.077,posner_endo_new1,2024.2.4,60.069115524323294,2025-04-09 08h53.00.669728 +0100,
cube_l.png,0.1,0.31,invalid,6,6,0,up,2.9186303999999836,None,space,0.34460699999999633,None,0,6,6,5,,,,,,,,,555.0348991000001,,,,,,,,,,,,,555.0191583999999,555.0348991000001,555.0348991000001,555.0348991000001,557.9659809,up,2.9186303999999836,None,557.9719385999999,557.9837462,557.9837462,558.0319317999999,558.0321524000001,558.0482973000001,558.0482973000001,558.0482973000001,558.1318165,558.3988472999999,space,0.34460699999999633,None,,,,,,,,,,,,,,,,,,,,,,,,,P141,001,2025-04-09_08h52.55.077,posner_endo_new1,2024.2.4,60.069115524323294,2025-04-09 08h53.00.669728 +0100,
cube_r.png,0.1,0.31,valid,7,7,0,up,9.345899700000018,None,space,0.547505000000001,None,0,7,7,10,,,,,,,,,558.4149122000001,,,,,,,,,,,,,558.3990145,558.4149122000001,558.4149122000001,558.4149122000001,567.7725686000001,up,9.345899700000018,None,567.7785194999999,567.7901531,567.7901531,567.8386840999999,567.8389016000001,567.8550688,567.8550688,567.8550688,567.9218106999999,568.4052927,space,0.547505000000001,None,,,,,,,,,,,,,,,,,,,,,,,,,P141,001,2025-04-09_08h52.55.077,posner_endo_new1,2024.2.4,60.069115524323294,2025-04-09 08h53.00.669728 +0100,
cube_l.png,0.1,-0.31,valid,8,8,0,up,15.77217429999996,None,space,0.4337143999998716,None,0,8,8,4,,,,,,,,,568.4211763999999,,,,,,,,,,,,,568.405463,568.4211763999999,568.4211763999999,568.4211763999999,584.2056889,up,15.77217429999996,None,584.2116773,584.2233977000001,584.2233977000001,584.2720334999999,584.2722524000001,584.2883435000001,584.2883435000001,584.2883435000001,584.3550961000001,584.7387742000001,space,0.4337143999998716,None,,,,,,,,,,,,,,,,,,,,,,,,,P141,001,2025-04-09_08h52.55.077,posner_endo_new1,2024.2.4,60.069115524323294,2025-04-09 08h53.00.669728 +0100,
cube_l.png,0.1,-0.31,valid,9,9,0,up,14.542693999999983,None,space,0.45515679999994063,None,0,9,9,8,,,,,,,,,584.7545074,,,,,,,,,,,,,584.7389361,584.7545074,584.7545074,584.7545074,599.3072638000001,up,14.542693999999983,None,599.3133051,599.3251627,599.3251627,599.3731411000001,599.3733625,599.3896930000001,599.3896930000001,599.3896930000001,599.4726949999999,599.8565687,space,0.45515679999994063,None,,,,,,,,,,,,,,,,,,,,,,,,,P141,001,2025-04-09_08h52.55.077,posner_endo_new1,2024.2.4,60.069115524323294,2025-04-09 08h53.00.669728 +0100,
cube_r.png,0.1,-0.31,invalid,10,10,0,up,14.080979300000081,None,space,0.35424890000012965,None,0,10,10,6,,,,,,,,,599.8723454000001,,,,,,,,,,,,,599.8567352,599.8723454000001,599.8723454000001,599.8723454000001,613.9589174,up,14.080979300000081,None,613.964962,613.9768495000001,613.9768495000001,614.0248268,614.0250447999999,614.0412885000001,614.0412885000001,614.0412885000001,614.1078944000001,614.4085970000001,space,0.35424890000012965,None,,,,,,,,,,,,,,,,,,,,,,,,,P141,001,2025-04-09_08h52.55.077,posner_endo_new1,2024.2.4,60.069115524323294,2025-04-09 08h53.00.669728 +0100,
,,,,,,,,,,,,,,,,,,,,,,,,,,,,,,,,,,614.4087145999999,614.4241043,617.4246131,617.4047482999999,,,,,,,,,,,,,,,,,,,,,,,,,,,,,,,,,,,,,,,,,,,,,,P141,001,2025-04-09_08h52.55.077,posner_endo_new1,2024.2.4,60.069115524323294,2025-04-09 08h53.00.669728 +0100,
cube_l.png,0.1,10,catch,0,0,0,up,23.85681929999987,None,None,,,,,,,0,0,0,0,,,,,617.4246131,,,,,,,,,,,,,617.4157689000001,617.4246131,617.4246131,617.4246131,641.2977246,,,,641.3038323000001,641.3155901,641.3155901,641.3635793999999,641.3638225,641.3800558,641.3800558,641.3800558,641.463456,644.3775298999999,,,,up,23.85681929999987,None,643.4779149000001,644.3934896000001,644.3934896000001,644.3934896000001,None,,,,,,,,,,,,,,,,,P141,001,2025-04-09_08h52.55.077,posner_endo_new1,2024.2.4,60.069115524323294,2025-04-09 08h53.00.669728 +0100,
cube_l.png,0.1,10,catch,1,1,0,up,3.623457700000017,None,None,,,,,,,0,1,1,1,,,,,644.3934896000001,,,,,,,,,,,,,644.3776886,644.3934896000001,644.3934896000001,644.3934896000001,648.0237168000001,,,,648.0297256000001,648.0414344999999,648.0414344999999,648.0900565,648.0902820000001,648.1065467000001,648.1065467000001,648.1065467000001,648.1732967,651.1039077,,,,up,3.623457700000017,None,650.1878848000001,651.119976,651.119976,651.119976,None,,,,,,,,,,,,,,,,,P141,001,2025-04-09_08h52.55.077,posner_endo_new1,2024.2.4,60.069115524323294,2025-04-09 08h53.00.669728 +0100,
cube_l.png,0.1,0.31,invalid,2,2,0,up,13.43428619999986,None,space,0.4552300999998806,None,,,,,0,2,2,2,,,,,651.119976,,,,,,,,,,,,,651.1040680000001,651.119976,651.119976,651.119976,664.5570339000001,,,,664.5630768999999,664.5746701999999,664.5746701999999,664.6231667,664.6233878,664.6397529000001,664.6397529000001,664.6397529000001,664.7228957,665.1065797000001,,,,up,13.43428619999986,None,,,,,space,0.4552300999998806,None,,,,,,,,,,,,,,,P141,001,2025-04-09_08h52.55.077,posner_endo_new1,2024.2.4,60.069115524323294,2025-04-09 08h53.00.669728 +0100,
cube_l.png,0.1,0.31,invalid,3,3,0,up,13.326899799999865,None,space,0.4759539000001496,None,,,,,0,3,3,3,,,,,665.1225624000001,,,,,,,,,,,,,665.1067602,665.1225624000001,665.1225624000001,665.1225624000001,678.4596855,,,,678.4656517999999,678.4775325999999,678.4775325999999,678.5255252,678.5257461000001,678.5422053,678.5422053,678.5422053,678.6086542,679.0257879000001,,,,up,13.326899799999865,None,,,,,space,0.4759539000001496,None,,,,,,,,,,,,,,,P141,001,2025-04-09_08h52.55.077,posner_endo_new1,2024.2.4,60.069115524323294,2025-04-09 08h53.00.669728 +0100,
cube_l.png,0.1,-0.31,valid,4,4,0,up,16.440057400000114,None,space,0.47190359999990505,None,,,,,0,4,4,4,,,,,679.041663,,,,,,,,,,,,,679.0259602000001,679.041663,679.041663,679.041663,695.4922693999999,,,,695.4982779,695.5099338,695.5099338,695.5581278,695.5583466999999,695.5746545,695.5746545,695.5746545,695.6413998,696.0582119000001,,,,up,16.440057400000114,None,,,,,space,0.47190359999990505,None,,,,,,,,,,,,,,,P141,001,2025-04-09_08h52.55.077,posner_endo_new1,2024.2.4,60.069115524323294,2025-04-09 08h53.00.669728 +0100,
cube_r.png,0.1,-0.31,invalid,5,5,0,up,15.66341609999995,None,space,0.47104829999989306,None,,,,,0,5,5,5,,,,,696.0743683000001,,,,,,,,,,,,,696.0583925000001,696.0743683000001,696.0743683000001,696.0743683000001,711.7423283,,,,711.7484377000001,711.7603052,711.7603052,711.8082549999999,711.8084722000001,711.8247713000001,711.8247713000001,711.8247713000001,711.908038,712.3083704999999,,,,up,15.66341609999995,None,,,,,space,0.47104829999989306,None,,,,,,,,,,,,,,,P141,001,2025-04-09_08h52.55.077,posner_endo_new1,2024.2.4,60.069115524323294,2025-04-09 08h53.00.669728 +0100,
cube_r.png,0.1,0.31,valid,6,6,0,up,13.870431300000064,None,space,0.47910539999998036,None,,,,,0,6,6,6,,,,,712.3244356,,,,,,,,,,,,,712.3085418999999,712.3244356,712.3244356,712.3244356,726.2110543000001,,,,726.2170753,726.2288507000001,726.2288507000001,726.2768028999999,726.277024,726.2934382999999,726.2934382999999,726.2934382999999,726.3766882,726.7769702,,,,up,13.870431300000064,None,,,,,space,0.47910539999998036,None,,,,,,,,,,,,,,,P141,001,2025-04-09_08h52.55.077,posner_endo_new1,2024.2.4,60.069115524323294,2025-04-09 08h53.00.669728 +0100,
cube_r.png,0.1,-0.31,invalid,7,7,0,up,21.57707130000017,None,space,0.6782201999999415,None,,,,,0,7,7,7,,,,,726.7928964,,,,,,,,,,,,,726.7771399000001,726.7928964,726.7928964,726.7928964,748.3715855,,,,748.3775886000001,748.3893304999999,748.3893304999999,748.4376351999999,748.4378572,748.454246,748.454246,748.454246,748.5205298000001,749.1375820000001,,,,up,21.57707130000017,None,,,,,space,0.6782201999999415,None,,,,,,,,,,,,,,,P141,001,2025-04-09_08h52.55.077,posner_endo_new1,2024.2.4,60.069115524323294,2025-04-09 08h53.00.669728 +0100,
cube_l.png,0.1,-0.31,valid,8,8,0,up,21.20858709999993,None,space,0.48808280000002924,None,,,,,0,8,8,8,,,,,749.1534283000001,,,,,,,,,,,,,749.1377631,749.1534283000001,749.1534283000001,749.1534283000001,770.3657741,,,,770.3719163000001,770.3836811000001,770.3836811000001,770.4317814000001,770.4320121999999,770.4483250999999,770.4483250999999,770.4483250999999,770.5149322,770.9484242999999,,,,up,21.20858709999993,None,,,,,space,0.48808280000002924,None,,,,,,,,,,,,,,,P141,001,2025-04-09_08h52.55.077,posner_endo_new1,2024.2.4,60.069115524323294,2025-04-09 08h53.00.669728 +0100,
cube_r.png,0.1,-0.31,invalid,9,9,0,up,8.052911600000016,None,space,0.4294628999998622,None,,,,,0,9,9,9,,,,,770.9644275999999,,,,,,,,,,,,,770.9486013000001,770.9644275999999,770.9644275999999,770.9644275999999,779.0237642,,,,779.0364624000001,779.046452,779.046452,779.0891354,779.0895404,779.1055997999999,779.1055997999999,779.1055997999999,779.1889269000001,779.5402518999999,,,,up,8.052911600000016,None,,,,,space,0.4294628999998622,None,,,,,,,,,,,,,,,P141,001,2025-04-09_08h52.55.077,posner_endo_new1,2024.2.4,60.069115524323294,2025-04-09 08h53.00.669728 +0100,
cube_l.png,0.1,0.31,invalid,10,10,0,up,21.327828899999986,None,space,0.4949719000001096,None,,,,,0,10,10,10,,,,,779.5551954,,,,,,,,,,,,,779.540628,779.5551954,779.5551954,779.5551954,800.8851985000001,,,,800.9221869,800.9378116,800.9378116,800.9380388,800.9383528999999,800.9547574999999,800.9547574999999,800.9547574999999,801.0496507,801.4508317,,,,up,21.327828899999986,None,,,,,space,0.4949719000001096,None,,,,,,,,,,,,,,,P141,001,2025-04-09_08h52.55.077,posner_endo_new1,2024.2.4,60.069115524323294,2025-04-09 08h53.00.669728 +0100,
cube_r.png,0.1,-0.31,invalid,11,11,0,up,16.007290799999964,None,space,0.4927071000001888,None,,,,,0,11,11,11,,,,,801.4666471999999,,,,,,,,,,,,,801.4510101999999,801.4666471999999,801.4666471999999,801.4666471999999,817.4841051000001,,,,817.4903855,817.5014315000001,817.5014315000001,817.5501013999999,817.5506232,817.566546,817.566546,817.566546,817.6331315,818.0675971000001,,,,up,16.007290799999964,None,,,,,space,0.4927071000001888,None,,,,,,,,,,,,,,,P141,001,2025-04-09_08h52.55.077,posner_endo_new1,2024.2.4,60.069115524323294,2025-04-09 08h53.00.669728 +0100,
cube_r.png,0.1,0.31,valid,12,12,0,up,11.150463799999898,None,space,0.432892000000038,None,,,,,0,12,12,12,,,,,818.0829358999999,,,,,,,,,,,,,818.0678756,818.0829358999999,818.0829358999999,818.0829358999999,829.2394366999999,,,,829.2505944,829.2608138999999,829.2608138999999,829.3049728000001,829.3053117,829.3213860000001,829.3213860000001,829.3213860000001,829.4044544999999,829.7557764000001,,,,up,11.150463799999898,None,,,,,space,0.432892000000038,None,,,,,,,,,,,,,,,P141,001,2025-04-09_08h52.55.077,posner_endo_new1,2024.2.4,60.069115524323294,2025-04-09 08h53.00.669728 +0100,
cube_l.png,0.1,10,catch,13,13,0,up,12.422032299999955,None,None,,,,,,,0,13,13,13,,,,,829.7710486999999,,,,,,,,,,,,,829.7560628000001,829.7710486999999,829.7710486999999,829.7710486999999,842.2098133,,,,842.2209045,842.2310777,842.2310777,842.2748300999999,842.2751753,842.291481,842.291481,842.291481,842.3748783000001,845.2893211,,,,up,12.422032299999955,None,844.3893455,845.3051118999999,845.3051118999999,845.3051118999999,None,,,,,,,,,,,,,,,,,P141,001,2025-04-09_08h52.55.077,posner_endo_new1,2024.2.4,60.069115524323294,2025-04-09 08h53.00.669728 +0100,
cube_r.png,0.1,-0.31,invalid,14,14,0,up,11.944233999999824,None,space,0.3751818999999159,None,,,,,0,14,14,14,,,,,845.3051118999999,,,,,,,,,,,,,845.2895862,845.3051118999999,845.3051118999999,845.3051118999999,857.2604372000001,,,,857.2715791,857.2820263000001,857.2820263000001,857.3263288,857.3266529,857.3428610999999,857.3428610999999,857.3428610999999,857.4261148999999,857.7268707999999,,,,up,11.944233999999824,None,,,,,space,0.3751818999999159,None,,,,,,,,,,,,,,,P141,001,2025-04-09_08h52.55.077,posner_endo_new1,2024.2.4,60.069115524323294,2025-04-09 08h53.00.669728 +0100,
cube_l.png,0.1,-0.31,valid,15,15,0,up,20.80302699999993,None,space,0.5374308000000383,None,,,,,0,15,15,15,,,,,857.7424366,,,,,,,,,,,,,857.7271655,857.7424366,857.7424366,857.7424366,878.5558083000001,,,,878.5669516,878.5772554,878.5772554,878.6214863,878.6218143000001,878.6377938999999,878.6377938999999,878.6377938999999,878.7207179,879.1884958999999,,,,up,20.80302699999993,None,,,,,space,0.5374308000000383,None,,,,,,,,,,,,,,,P141,001,2025-04-09_08h52.55.077,posner_endo_new1,2024.2.4,60.069115524323294,2025-04-09 08h53.00.669728 +0100,
cube_r.png,0.1,10,catch,16,16,0,up,14.534581500000058,None,None,,,,,,,0,16,16,16,,,,,879.2038646999999,,,,,,,,,,,,,879.1887734,879.2038646999999,879.2038646999999,879.2038646999999,893.7404317,,,,893.7514722000001,893.7617018000001,893.7617018000001,893.8059561,893.8062877,893.8222608000001,893.8222608000001,893.8222608000001,893.9053933,896.8197731,,,,up,14.534581500000058,None,895.9201135999999,896.8359449,896.8359449,896.8359449,None,,,,,,,,,,,,,,,,,P141,001,2025-04-09_08h52.55.077,posner_endo_new1,2024.2.4,60.069115524323294,2025-04-09 08h53.00.669728 +0100,
cube_r.png,0.1,10,catch,17,17,0,up,14.421883999999864,None,None,,,,,,,0,17,17,17,,,,,896.8359449,,,,,,,,,,,,,896.8200501000001,896.8359449,896.8359449,896.8359449,911.2722378999999,,,,911.2833252,911.2935513,911.2935513,911.3379207,911.3382437999999,911.3545056,911.3545056,911.3545056,911.4376341,914.3520421999999,,,,up,14.421883999999864,None,913.4523400999999,914.3679809999999,914.3679809999999,914.3679809999999,None,,,,,,,,,,,,,,,,,P141,001,2025-04-09_08h52.55.077,posner_endo_new1,2024.2.4,60.069115524323294,2025-04-09 08h53.00.669728 +0100,
cube_l.png,0.1,0.31,invalid,18,18,0,up,15.057974300000069,None,space,0.3839375000000018,None,,,,,0,18,18,18,,,,,914.3679809999999,,,,,,,,,,,,,914.3523,914.3679809999999,914.3679809999999,914.3679809999999,929.4366279999999,,,,929.447878,929.4581264999999,929.4581264999999,929.5026679,929.5030110999999,929.5190994,929.5190994,929.5190994,929.5857102,929.9199454,,,,up,15.057974300000069,None,,,,,space,0.3839375000000018,None,,,,,,,,,,,,,,,P141,001,2025-04-09_08h52.55.077,posner_endo_new1,2024.2.4,60.069115524323294,2025-04-09 08h53.00.669728 +0100,
cube_l.png,0.1,10,catch,19,19,0,up,15.578670900000134,None,None,,,,,,,0,19,19,19,,,,,929.9355398,,,,,,,,,,,,,929.9202384,929.9355398,929.9355398,929.9355398,945.5206009999999,,,,945.5316952999999,945.5420882999999,945.5420882999999,945.5862854,945.5866196,945.6027485,945.6027485,945.6027485,945.6859368,948.6002612,,,,up,15.578670900000134,None,947.7004763999998,948.6164145999999,948.6164145999999,948.6164145999999,None,,,,,,,,,,,,,,,,,P141,001,2025-04-09_08h52.55.077,posner_endo_new1,2024.2.4,60.069115524323294,2025-04-09 08h53.00.669728 +0100,
cube_l.png,0.1,0.31,invalid,20,20,0,up,16.850273300000026,None,space,0.4853080999998838,None,,,,,0,20,20,20,,,,,948.6164145999999,,,,,,,,,,,,,948.6005141,948.6164145999999,948.6164145999999,948.6164145999999,965.4835768,,,,965.4946499,965.5046898999999,965.5046898999999,965.5492098,965.5495323,965.5654055999998,965.5654055999998,965.5654055999998,965.6489733999999,966.066069,,,,up,16.850273300000026,None,,,,,space,0.4853080999998838,None,,,,,,,,,,,,,,,P141,001,2025-04-09_08h52.55.077,posner_endo_new1,2024.2.4,60.069115524323294,2025-04-09 08h53.00.669728 +0100,
cube_l.png,0.1,-0.31,valid,21,21,0,up,17.687390099999902,None,space,0.5127405000000635,None,,,,,0,21,21,21,,,,,966.082044,,,,,,,,,,,,,966.0663566000001,966.082044,966.082044,966.082044,983.7814584999999,,,,983.7924805,983.8027625,983.8027625,983.8472135,983.8475477,983.8636388999998,983.8636388999998,983.8636388999998,983.9470411,984.3809592999999,,,,up,17.687390099999902,None,,,,,space,0.5127405000000635,None,,,,,,,,,,,,,,,P141,001,2025-04-09_08h52.55.077,posner_endo_new1,2024.2.4,60.069115524323294,2025-04-09 08h53.00.669728 +0100,
cube_r.png,0.1,0.31,valid,22,22,0,up,16.397590000000037,None,space,0.3950990999999249,None,,,,,0,22,22,22,,,,,984.3963008000001,,,,,,,,,,,,,984.3812395999998,984.3963008000001,984.3963008000001,984.3963008000001,1000.7973966,,,,1000.8084360999999,1000.8187186999999,1000.8187186999999,1000.8631854,1000.8635139999999,1000.879805,1000.879805,1000.879805,1000.9628594999999,1001.2804655,,,,up,16.397590000000037,None,,,,,space,0.3950990999999249,None,,,,,,,,,,,,,,,P141,001,2025-04-09_08h52.55.077,posner_endo_new1,2024.2.4,60.069115524323294,2025-04-09 08h53.00.669728 +0100,
cube_r.png,0.1,-0.31,invalid,23,23,0,up,19.882360800000015,None,space,0.70370099999991,None,,,,,0,23,23,23,,,,,1001.2958799999999,,,,,,,,,,,,,1001.2807492,1001.2958799999999,1001.2958799999999,1001.2958799999999,1021.1933724,,,,1021.2043810999999,1021.2145284999999,1021.2145284999999,1021.2589908,1021.2593244,1021.27549,1021.27549,1021.27549,1021.3588175999998,1021.9925335999999,,,,up,19.882360800000015,None,,,,,space,0.70370099999991,None,,,,,,,,,,,,,,,P141,001,2025-04-09_08h52.55.077,posner_endo_new1,2024.2.4,60.069115524323294,2025-04-09 08h53.00.669728 +0100,
cube_r.png,0.1,0.31,valid,24,24,0,up,14.529791800000112,None,space,0.4994429000000764,None,,,,,0,24,24,24,,,,,1022.0079111999999,,,,,,,,,,,,,1021.9928127000001,1022.0079111999999,1022.0079111999999,1022.0079111999999,1036.5439631,,,,1036.5550773,1036.5653558,1036.5653558,1036.6097978999999,1036.6101199,1036.6263635,1036.6263635,1036.6263635,1036.7096103,1037.1272511,,,,up,14.529791800000112,None,,,,,space,0.4994429000000764,None,,,,,,,,,,,,,,,P141,001,2025-04-09_08h52.55.077,posner_endo_new1,2024.2.4,60.069115524323294,2025-04-09 08h53.00.669728 +0100,
cube_r.png,0.1,-0.31,invalid,25,25,0,up,18.65962719999993,None,space,0.5732659999998759,None,,,,,0,25,25,25,,,,,1037.1426139,,,,,,,,,,,,,1037.1275266,1037.1426139,1037.1426139,1037.1426139,1055.8077925,,,,1055.8168100999999,1055.8265738999999,1055.8265738999999,1055.8736602,1055.8738991999999,1055.8901147,1055.8901147,1055.8901147,1055.9733449999999,1056.4738069,,,,up,18.65962719999993,None,,,,,space,0.5732659999998759,None,,,,,,,,,,,,,,,P141,001,2025-04-09_08h52.55.077,posner_endo_new1,2024.2.4,60.069115524323294,2025-04-09 08h53.00.669728 +0100,
cube_l.png,0.1,-0.31,valid,26,26,0,up,11.21637439999995,None,space,0.4520334000001185,None,,,,,0,26,26,26,,,,,1056.4896508,,,,,,,,,,,,,1056.4739952999998,1056.4896508,1056.4896508,1056.4896508,1067.7120863,,,,1067.7191143999999,1067.7307868999999,1067.7307868999999,1067.778161,1067.7783947,1067.7946368,1067.7946368,1067.7946368,1067.8780178,1068.2616586,,,,up,11.21637439999995,None,,,,,space,0.4520334000001185,None,,,,,,,,,,,,,,,P141,001,2025-04-09_08h52.55.077,posner_endo_new1,2024.2.4,60.069115524323294,2025-04-09 08h53.00.669728 +0100,
cube_r.png,0.1,0.31,valid,27,27,0,up,14.372628000000077,None,space,0.8459385000001021,None,,,,,0,27,27,27,,,,,1068.2774173,,,,,,,,,,,,,1068.2618516,1068.2774173,1068.2774173,1068.2774173,1082.6638435,,,,1082.6787428,1082.6891431,1082.6891431,1082.7291765999998,1082.7296141,1082.7456141999999,1082.7456141999999,1082.7456141999999,1082.828875,1083.5962637,,,,up,14.372628000000077,None,,,,,space,0.8459385000001021,None,,,,,,,,,,,,,,,P141,001,2025-04-09_08h52.55.077,posner_endo_new1,2024.2.4,60.069115524323294,2025-04-09 08h53.00.669728 +0100,
cube_r.png,0.1,10,catch,28,28,0,up,15.95911799999999,None,None,,,,,,,0,28,28,28,,,,,1083.6114628,,,,,,,,,,,,,1083.5966488,1083.6114628,1083.6114628,1083.6114628,1099.580011,,,,1099.5900873,1099.600233,1099.600233,1099.6454228,1099.6457329999998,1099.6620001,1099.6620001,1099.6620001,1099.7453263999998,1102.6595551,,,,up,15.95911799999999,None,1101.7599195999999,1102.675505,1102.675505,1102.675505,None,,,,,,,,,,,,,,,,,P141,001,2025-04-09_08h52.55.077,posner_endo_new1,2024.2.4,60.069115524323294,2025-04-09 08h53.00.669728 +0100,
cube_r.png,0.1,0.31,valid,29,29,0,up,11.143022499999915,None,space,0.4491929999999229,None,,,,,0,29,29,29,,,,,1102.675505,,,,,,,,,,,,,1102.6597913,1102.675505,1102.675505,1102.675505,1113.8320637,,,,1113.8418846,1113.8520709,1113.8520709,1113.8972509,1113.8975668,1113.9141857,1113.9141857,1113.9141857,1113.9970702,1114.3648114999999,,,,up,11.143022499999915,None,,,,,space,0.4491929999999229,None,,,,,,,,,,,,,,,P141,001,2025-04-09_08h52.55.077,posner_endo_new1,2024.2.4,60.069115524323294,2025-04-09 08h53.00.669728 +0100,
cube_r.png,0.1,0.31,valid,30,30,0,up,18.85423609999998,None,space,0.5756595999998808,None,,,,,0,30,30,30,,,,,1114.3803157,,,,,,,,,,,,,1114.3650641,1114.3803157,1114.3803157,1114.3803157,1133.2455812,,,,1133.2553533,1133.2655461,1133.2655461,1133.3112420999998,1133.3115404999999,1133.3272399,1133.3272399,1133.3272399,1133.4109193,1133.9112396,,,,up,18.85423609999998,None,,,,,space,0.5756595999998808,None,,,,,,,,,,,,,,,P141,001,2025-04-09_08h52.55.077,posner_endo_new1,2024.2.4,60.069115524323294,2025-04-09 08h53.00.669728 +0100,
cube_l.png,0.1,-0.31,valid,31,31,0,up,18.347778900000094,None,space,0.503426300000001,None,,,,,0,31,31,31,,,,,1133.9269298,,,,,,,,,,,,,1133.9114958,1133.9269298,1133.9269298,1133.9269298,1152.2761593999999,,,,1152.2859808,1152.2960302,1152.2960302,1152.3416114,1152.3419107,1152.3581463,1152.3581463,1152.3581463,1152.4414854,1152.8754645,,,,up,18.347778900000094,None,,,,,space,0.503426300000001,None,,,,,,,,,,,,,,,P141,001,2025-04-09_08h52.55.077,posner_endo_new1,2024.2.4,60.069115524323294,2025-04-09 08h53.00.669728 +0100,
cube_r.png,0.1,0.31,valid,32,32,0,up,14.575706800000034,None,space,0.49607890000015686,None,,,,,0,32,32,32,,,,,1152.8909601999999,,,,,,,,,,,,,1152.8757315,1152.8909601999999,1152.8909601999999,1152.8909601999999,1167.4769778999998,,,,1167.4868104,1167.496907,1167.496907,1167.5429353,1167.5432444,1167.5594082999999,1167.5594082999999,1167.5594082999999,1167.642472,1168.0595495,,,,up,14.575706800000034,None,,,,,space,0.49607890000015686,None,,,,,,,,,,,,,,,P141,001,2025-04-09_08h52.55.077,posner_endo_new1,2024.2.4,60.069115524323294,2025-04-09 08h53.00.669728 +0100,
cube_r.png,0.1,-0.31,invalid,33,33,0,up,13.47924890000013,None,space,0.5009902000001603,None,,,,,0,33,33,33,,,,,1168.0753275,,,,,,,,,,,,,1168.0598049,1168.0753275,1168.0753275,1168.0753275,1181.562849,,,,1181.5726604,1181.5828196999998,1181.5828196999998,1181.6284899,1181.6288027,1181.6449527,1181.6449527,1181.6449527,1181.7278403999999,1182.1619848999999,,,,up,13.47924890000013,None,,,,,space,0.5009902000001603,None,,,,,,,,,,,,,,,P141,001,2025-04-09_08h52.55.077,posner_endo_new1,2024.2.4,60.069115524323294,2025-04-09 08h53.00.669728 +0100,
cube_r.png,0.1,10,catch,34,34,0,up,19.552975699999934,None,None,,,,,,,0,34,34,34,,,,,1182.1778640999999,,,,,,,,,,,,,1182.1622358,1182.1778640999999,1182.1778640999999,1182.1778640999999,1201.7422083,,,,1201.7520209,1201.7620967,1201.7620967,1201.8078991999998,1201.8082106,1201.8241117,1201.8241117,1201.8241117,1201.907586,1204.8220288,,,,up,19.552975699999934,None,1203.9220966999999,1204.8379122,1204.8379122,1204.8379122,None,,,,,,,,,,,,,,,,,P141,001,2025-04-09_08h52.55.077,posner_endo_new1,2024.2.4,60.069115524323294,2025-04-09 08h53.00.669728 +0100,
cube_r.png,0.1,0.31,valid,35,35,0,up,16.092590700000073,None,space,0.4161306000000877,None,,,,,0,35,35,35,,,,,1204.8379122,,,,,,,,,,,,,1204.8222607999999,1204.8379122,1204.8379122,1204.8379122,1220.9391781,,,,1220.9490252,1220.9592066,1220.9592066,1221.0049173999998,1221.0052168,1221.0214219,1221.0214219,1221.0214219,1221.1044967999999,1221.4389859999999,,,,up,16.092590700000073,None,,,,,space,0.4161306000000877,None,,,,,,,,,,,,,,,P141,001,2025-04-09_08h52.55.077,posner_endo_new1,2024.2.4,60.069115524323294,2025-04-09 08h53.00.669728 +0100,
cube_r.png,0.1,-0.31,invalid,36,36,0,up,16.97219210000003,None,space,0.45438289999992776,None,,,,,0,36,36,36,,,,,1221.4542701,,,,,,,,,,,,,1221.4392394,1221.4542701,1221.4542701,1221.4542701,1238.4379706,,,,1238.4477792,1238.4577915,1238.4577915,1238.5036393999999,1238.5039382999998,1238.5201998999999,1238.5201998999999,1238.5201998999999,1238.6035007,1238.9874459999999,,,,up,16.97219210000003,None,,,,,space,0.45438289999992776,None,,,,,,,,,,,,,,,P141,001,2025-04-09_08h52.55.077,posner_endo_new1,2024.2.4,60.069115524323294,2025-04-09 08h53.00.669728 +0100,
cube_l.png,0.1,0.31,invalid,37,37,0,up,12.271552300000167,None,space,0.4772411000001284,None,,,,,0,37,37,37,,,,,1239.0026536999999,,,,,,,,,,,,,1238.9877156,1239.0026536999999,1239.0026536999999,1239.0026536999999,1251.2752363,,,,1251.2852065,1251.2953985,1251.2953985,1251.3406403,1251.3409396,1251.3569453,1251.3569453,1251.3569453,1251.4403174,1251.8407633,,,,up,12.271552300000167,None,,,,,space,0.4772411000001284,None,,,,,,,,,,,,,,,P141,001,2025-04-09_08h52.55.077,posner_endo_new1,2024.2.4,60.069115524323294,2025-04-09 08h53.00.669728 +0100,
cube_l.png,0.1,0.31,invalid,38,38,0,up,14.354607000000215,None,space,0.46503889999985404,None,,,,,0,38,38,38,,,,,1251.8564221,,,,,,,,,,,,,1251.841013,1251.8564221,1251.8564221,1251.8564221,1266.2263638,,,,1266.2357774,1266.2454272999998,1266.2454272999998,1266.2920814,1266.2923134,1266.3086048999999,1266.3086048999999,1266.3086048999999,1266.3918904,1266.7756706999999,,,,up,14.354607000000215,None,,,,,space,0.46503889999985404,None,,,,,,,,,,,,,,,P141,001,2025-04-09_08h52.55.077,posner_endo_new1,2024.2.4,60.069115524323294,2025-04-09 08h53.00.669728 +0100,
cube_r.png,0.1,0.31,valid,39,39,0,up,13.363226299999951,None,space,0.44834939999987,None,,,,,0,39,39,39,,,,,1266.7914761,,,,,,,,,,,,,1266.7758520999998,1266.7914761,1266.7914761,1266.7914761,1280.161803,,,,1280.1685498,1280.1805070999999,1280.1805070999999,1280.2278284,1280.2280599,1280.2444044,1280.2444044,1280.2444044,1280.3109497,1280.6948816,,,,up,13.363226299999951,None,,,,,space,0.44834939999987,None,,,,,,,,,,,,,,,P141,001,2025-04-09_08h52.55.077,posner_endo_new1,2024.2.4,60.069115524323294,2025-04-09 08h53.00.669728 +0100,
cube_l.png,0.1,0.31,invalid,40,40,0,up,15.100359100000105,None,space,0.5188717999999426,None,,,,,0,40,40,40,,,,,1280.7106886,,,,,,,,,,,,,1280.695062,1280.7106886,1280.7106886,1280.7106886,1295.8126828,,,,1295.819458,1295.8312197,1295.8312197,1295.8786332,1295.8788591999999,1295.8952255,1295.8952255,1295.8952255,1295.9783975999999,1296.4280394,,,,up,15.100359100000105,None,,,,,space,0.5188717999999426,None,,,,,,,,,,,,,,,P141,001,2025-04-09_08h52.55.077,posner_endo_new1,2024.2.4,60.069115524323294,2025-04-09 08h53.00.669728 +0100,
cube_l.png,0.1,10,catch,41,41,0,up,13.773698100000047,None,None,,,,,,,0,41,41,41,,,,,1296.4445017,,,,,,,,,,,,,1296.428211,1296.4445017,1296.4445017,1296.4445017,1310.2310714,,,,1310.2370025,1310.2490821,1310.2490821,1310.2969933,1310.2972149,1310.313717,1310.313717,1310.313717,1310.3804592,1313.3110600999998,,,,up,13.773698100000047,None,1312.3948765999999,1313.3272345,1313.3272345,1313.3272345,None,,,,,,,,,,,,,,,,,P141,001,2025-04-09_08h52.55.077,posner_endo_new1,2024.2.4,60.069115524323294,2025-04-09 08h53.00.669728 +0100,
cube_l.png,0.1,-0.31,valid,42,42,0,up,15.323950299999979,None,space,0.4715987999998106,None,,,,,0,42,42,42,,,,,1313.3272345,,,,,,,,,,,,,1313.3112199,1313.3272345,1313.3272345,1313.3272345,1328.6622046,,,,1328.6683795,1328.6802059,1328.6802059,1328.7282277,1328.7284468,1328.7448937,1328.7448937,1328.7448937,1328.8114216,1329.2282788999999,,,,up,15.323950299999979,None,,,,,space,0.4715987999998106,None,,,,,,,,,,,,,,,P141,001,2025-04-09_08h52.55.077,posner_endo_new1,2024.2.4,60.069115524323294,2025-04-09 08h53.00.669728 +0100,
cube_l.png,0.1,10,catch,43,43,0,up,13.64611190000005,None,None,,,,,,,0,43,43,43,,,,,1329.2442501,,,,,,,,,,,,,1329.2284504,1329.2442501,1329.2442501,1329.2442501,1342.8977667,,,,1342.903824,1342.9154796999999,1342.9154796999999,1342.9637989999999,1342.9640187,1342.9803273999999,1342.9803273999999,1342.9803273999999,1343.0467483999998,1345.9779004,,,,up,13.64611190000005,None,1345.0616042,1345.9938904,1345.9938904,1345.9938904,None,,,,,,,,,,,,,,,,,P141,001,2025-04-09_08h52.55.077,posner_endo_new1,2024.2.4,60.069115524323294,2025-04-09 08h53.00.669728 +0100,
cube_l.png,0.1,0.31,invalid,44,44,0,up,14.136891400000195,None,space,0.577999600000112,None,,,,,0,44,44,44,,,,,1345.9938904,,,,,,,,,,,,,1345.9780614,1345.9938904,1345.9938904,1345.9938904,1360.146966,,,,1360.1529848999999,1360.1648155999999,1360.1648155999999,1360.2130448999999,1360.2132652,1360.2295632,1360.2295632,1360.2295632,1360.2959034,1360.8128184,,,,up,14.136891400000195,None,,,,,space,0.577999600000112,None,,,,,,,,,,,,,,,P141,001,2025-04-09_08h52.55.077,posner_endo_new1,2024.2.4,60.069115524323294,2025-04-09 08h53.00.669728 +0100,
cube_l.png,0.1,0.31,invalid,45,45,0,up,13.238546399999905,None,space,0.6275505000000976,None,,,,,0,45,45,45,,,,,1360.8288254,,,,,,,,,,,,,1360.8129887999999,1360.8288254,1360.8288254,1360.8288254,1374.082592,,,,1374.0886622,1374.1004936,1374.1004936,1374.1484082,1374.148634,1374.1652279,1374.1652279,1374.1652279,1374.2315618999999,1374.7986051,,,,up,13.238546399999905,None,,,,,space,0.6275505000000976,None,,,,,,,,,,,,,,,P141,001,2025-04-09_08h52.55.077,posner_endo_new1,2024.2.4,60.069115524323294,2025-04-09 08h53.00.669728 +0100,
cube_r.png,0.1,0.31,valid,46,46,0,up,22.0685426,None,space,0.5462211999999909,None,,,,,0,46,46,46,,,,,1374.8145373,,,,,,,,,,,,,1374.7987745,1374.8145373,1374.8145373,1374.8145373,1396.8928031,,,,1396.8988216999999,1396.9103535,1396.9103535,1396.9585717999998,1396.9587915,1396.9750892,1396.9750892,1396.9750892,1397.0417138,1397.5253825,,,,up,22.0685426,None,,,,,space,0.5462211999999909,None,,,,,,,,,,,,,,,P141,001,2025-04-09_08h52.55.077,posner_endo_new1,2024.2.4,60.069115524323294,2025-04-09 08h53.00.669728 +0100,
cube_l.png,0.1,-0.31,valid,47,47,0,up,14.541952700000138,None,space,0.4177090999999109,None,,,,,0,47,47,47,,,,,1397.5413247,,,,,,,,,,,,,1397.5255522999998,1397.5413247,1397.5413247,1397.5413247,1412.0936459,,,,1412.0996366,1412.1113625,1412.1113625,1412.1596462,1412.1598662,1412.1764088999998,1412.1764088999998,1412.1764088999998,1412.2427705999999,1412.6099064999999,,,,up,14.541952700000138,None,,,,,space,0.4177090999999109,None,,,,,,,,,,,,,,,P141,001,2025-04-09_08h52.55.077,posner_endo_new1,2024.2.4,60.069115524323294,2025-04-09 08h53.00.669728 +0100,
cube_r.png,0.1,-0.31,invalid,48,48,0,up,14.080717600000071,None,space,0.4200676000000385,None,,,,,0,48,48,48,,,,,1412.6259231,,,,,,,,,,,,,1412.6100757,1412.6259231,1412.6259231,1412.6259231,1426.7122242,,,,1426.7183447,1426.7298547,1426.7298547,1426.7783524,1426.7785789,1426.7948082,1426.7948082,1426.7948082,1426.8614865,1427.2284167999999,,,,up,14.080717600000071,None,,,,,space,0.4200676000000385,None,,,,,,,,,,,,,,,P141,001,2025-04-09_08h52.55.077,posner_endo_new1,2024.2.4,60.069115524323294,2025-04-09 08h53.00.669728 +0100,
cube_r.png,0.1,10,catch,49,49,0,up,13.92634000000021,None,None,,,,,,,0,49,49,49,,,,,1427.2444818,,,,,,,,,,,,,1427.2285872,1427.2444818,1427.2444818,1427.2444818,1441.1809603,,,,1441.1870632999999,1441.1988171,1441.1988171,1441.2467853,1441.2470103,1441.2634106,1441.2634106,1441.2634106,1441.3300075,1444.2607556,,,,up,13.92634000000021,None,1443.3445437999999,1444.2769167,1444.2769167,1444.2769167,None,,,,,,,,,,,,,,,,,P141,001,2025-04-09_08h52.55.077,posner_endo_new1,2024.2.4,60.069115524323294,2025-04-09 08h53.00.669728 +0100,
cube_l.png,0.1,-0.31,valid,50,50,0,up,14.37408830000004,None,space,0.3647235000000819,None,,,,,0,50,50,50,,,,,1444.2769167,,,,,,,,,,,,,1444.2609105,1444.2769167,1444.2769167,1444.2769167,1458.6625431,,,,1458.6685418,1458.6801699,1458.6801699,1458.7289137999999,1458.7291352,1458.7454138,1458.7454138,1458.7454138,1458.8120251,1459.1126692999999,,,,up,14.37408830000004,None,,,,,space,0.3647235000000819,None,,,,,,,,,,,,,,,P141,001,2025-04-09_08h52.55.077,posner_endo_new1,2024.2.4,60.069115524323294,2025-04-09 08h53.00.669728 +0100,
cube_l.png,0.1,-0.31,valid,51,51,0,up,14.074564999999893,None,space,0.47931199999993623,None,,,,,0,51,51,51,,,,,1459.1286717,,,,,,,,,,,,,1459.1128380999999,1459.1286717,1459.1286717,1459.1286717,1473.2148488,,,,1473.2208309,1473.2324512,1473.2324512,1473.2807975,1473.281017,1473.2971263,1473.2971263,1473.2971263,1473.38059,1473.7809941,,,,up,14.074564999999893,None,,,,,space,0.47931199999993623,None,,,,,,,,,,,,,,,P141,001,2025-04-09_08h52.55.077,posner_endo_new1,2024.2.4,60.069115524323294,2025-04-09 08h53.00.669728 +0100,
cube_r.png,0.1,-0.31,invalid,52,52,0,up,14.91028099999994,None,space,0.5136332000001858,None,,,,,0,52,52,52,,,,,1473.7969053,,,,,,,,,,,,,1473.7811638,1473.7969053,1473.7969053,1473.7969053,1488.7153312,,,,1488.7213608,1488.7330155,1488.7330155,1488.7816857999999,1488.7819081999999,1488.7981686,1488.7981686,1488.7981686,1488.8648323999998,1489.3150216,,,,up,14.91028099999994,None,,,,,space,0.5136332000001858,None,,,,,,,,,,,,,,,P141,001,2025-04-09_08h52.55.077,posner_endo_new1,2024.2.4,60.069115524323294,2025-04-09 08h53.00.669728 +0100,
cube_l.png,0.1,-0.31,valid,53,53,0,up,12.6397864999999,None,space,0.5075845999999729,None,,,,,0,53,53,53,,,,,1489.3309348,,,,,,,,,,,,,1489.3151948,1489.3309348,1489.3309348,1489.3309348,1501.9854836,,,,1501.9915158,1502.0032786,1502.0032786,1502.0512569999999,1502.0514893,1502.0679071,1502.0679071,1502.0679071,1502.1511561,1502.5846262999999,,,,up,12.6397864999999,None,,,,,space,0.5075845999999729,None,,,,,,,,,,,,,,,P141,001,2025-04-09_08h52.55.077,posner_endo_new1,2024.2.4,60.069115524323294,2025-04-09 08h53.00.669728 +0100,
cube_r.png,0.1,10,catch,54,54,0,up,15.946650900000122,None,None,,,,,,,0,54,54,54,,,,,1502.6008259,,,,,,,,,,,,,1502.5848093,1502.6008259,1502.6008259,1502.6008259,1518.5521048,,,,1518.5581017,1518.5699957,1518.5699957,1518.617834,1518.6180568,1518.6343573,1518.6343573,1518.6343573,1518.7175533,1521.6316135,,,,up,15.946650900000122,None,1520.7321315,1521.6478628999998,1521.6478628999998,1521.6478628999998,None,,,,,,,,,,,,,,,,,P141,001,2025-04-09_08h52.55.077,posner_endo_new1,2024.2.4,60.069115524323294,2025-04-09 08h53.00.669728 +0100,
cube_l.png,0.1,0.31,invalid,55,55,0,up,15.074699199999941,None,space,0.43818099999998594,None,,,,,0,55,55,55,,,,,1521.6478628999998,,,,,,,,,,,,,1521.6317745,1521.6478628999998,1521.6478628999998,1521.6478628999998,1536.7332224,,,,1536.7392312,1536.7512938,1536.7512938,1536.7993288,1536.7995512,1536.8156172,1536.8156172,1536.8156172,1536.8989963,1537.2654575,,,,up,15.074699199999941,None,,,,,space,0.43818099999998594,None,,,,,,,,,,,,,,,P141,001,2025-04-09_08h52.55.077,posner_endo_new1,2024.2.4,60.069115524323294,2025-04-09 08h53.00.669728 +0100,
cube_l.png,0.1,-0.31,valid,56,56,0,up,15.865286799999922,None,space,0.37966119999987313,None,,,,,0,56,56,56,,,,,1537.2819018999999,,,,,,,,,,,,,1537.2656353999998,1537.2819018999999,1537.2819018999999,1537.2819018999999,1553.1496778,,,,1553.1557083999999,1553.1672319,1553.1672319,1553.2158107999999,1553.2160357,1553.2322755,1553.2322755,1553.2322755,1553.2987791,1553.6162149,,,,up,15.865286799999922,None,,,,,space,0.37966119999987313,None,,,,,,,,,,,,,,,P141,001,2025-04-09_08h52.55.077,posner_endo_new1,2024.2.4,60.069115524323294,2025-04-09 08h53.00.669728 +0100,
cube_r.png,0.1,0.31,valid,57,57,0,up,10.940026799999941,None,space,0.4865880999998353,None,,,,,0,57,57,57,,,,,1553.6320091999999,,,,,,,,,,,,,1553.6163835,1553.6320091999999,1553.6320091999999,1553.6320091999999,1564.5880791,,,,1564.5940845999999,1564.605974,1564.605974,1564.6541548,1564.6543772,1564.6706932,1564.6706932,1564.6706932,1564.7372659,1565.1701884,,,,up,10.940026799999941,None,,,,,space,0.4865880999998353,None,,,,,,,,,,,,,,,P141,001,2025-04-09_08h52.55.077,posner_endo_new1,2024.2.4,60.069115524323294,2025-04-09 08h53.00.669728 +0100,
cube_r.png,0.1,-0.31,invalid,58,58,0,up,14.791927900000019,None,space,0.3812050999999883,None,,,,,0,58,58,58,,,,,1565.1867521,,,,,,,,,,,,,1565.1703582999999,1565.1867521,1565.1867521,1565.1867521,1579.9888786,,,,1579.9948789,1580.0065617,1580.0065617,1580.054962,1580.0551802999998,1580.0716789,1580.0716789,1580.0716789,1580.1381721999999,1580.4553472,,,,up,14.791927900000019,None,,,,,space,0.3812050999999883,None,,,,,,,,,,,,,,,P141,001,2025-04-09_08h52.55.077,posner_endo_new1,2024.2.4,60.069115524323294,2025-04-09 08h53.00.669728 +0100,
cube_l.png,0.1,0.31,invalid,59,59,0,up,18.572357799999963,None,space,0.4686801000000287,None,,,,,0,59,59,59,,,,,1580.471073,,,,,,,,,,,,,1580.4555162,1580.471073,1580.471073,1580.471073,1599.052546,,,,1599.0586346,1599.070453,1599.070453,1599.1190903,1599.1193187,1599.1353797,1599.1353797,1599.1353797,1599.2019675,1599.6192429999999,,,,up,18.572357799999963,None,,,,,space,0.4686801000000287,None,,,,,,,,,,,,,,,P141,001,2025-04-09_08h52.55.077,posner_endo_new1,2024.2.4,60.069115524323294,2025-04-09 08h53.00.669728 +0100,
,,,,,,,,,,,,,,,,,,,,,,,,,,,,,,,,,,,,,,,,,,,,,,,,,,,,,,,,,,,,,,,,,,,,,1599.6193563,1599.6346901,1599.6346901,1659.6403467,1674.9921327,space,75.34526449999998,None,,,,,,,P141,001,2025-04-09_08h52.55.077,posner_endo_new1,2024.2.4,60.069115524323294,2025-04-09 08h53.00.669728 +0100,
,,,,,,,,,,,,,,,,,,,,,,,,,,,,,,,,,,1674.992185,1675.008018,1678.0715485,1677.9887305,,,,,,,,,,,,,,,,,,,,,,,,,,,,,,,,,,,,,,,,,,,,,,P141,001,2025-04-09_08h52.55.077,posner_endo_new1,2024.2.4,60.069115524323294,2025-04-09 08h53.00.669728 +0100,
cube_l.png,0.1,10,catch,0,0,0,down,8.076202100000046,None,None,,,,,,,,,,,0,0,0,0,1678.0715485,,,,,,,,,,,,,1678.063295,1678.0715485,1678.0715485,1678.0715485,1686.1641295,,,,1686.1768345,1686.1865211,1686.1865211,1686.2295385999998,1686.2299464999999,1686.2460227,1686.2460227,1686.2460227,1686.3293122999999,1689.2449404,,,,,,,1688.3444818,1689.2601909999998,1689.2601909999998,1689.2601909999998,,,,,,,,,,,,down,8.076202100000046,None,None,,,P141,001,2025-04-09_08h52.55.077,posner_endo_new1,2024.2.4,60.069115524323294,2025-04-09 08h53.00.669728 +0100,
cube_l.png,0.1,10,catch,1,1,0,down,9.00746150000009,None,None,,,,,,,,,,,0,1,1,1,1689.2601909999998,,,,,,,,,,,,,1689.2454827,1689.2601909999998,1689.2601909999998,1689.2601909999998,1698.2701047,,,,1698.293355,1698.3036823,1698.3036823,1698.3342286,1698.334584,1698.3508806,1698.3508806,1698.3508806,1698.4340891,1701.3484408,,,,,,,1700.4486659,1701.3641484,1701.3641484,1701.3641484,,,,,,,,,,,,down,9.00746150000009,None,None,,,P141,001,2025-04-09_08h52.55.077,posner_endo_new1,2024.2.4,60.069115524323294,2025-04-09 08h53.00.669728 +0100,
cube_l.png,0.1,0.31,invalid,2,2,0,down,6.399711900000057,None,space,0.45112479999988864,None,,,,,,,,,0,2,2,2,1701.3641484,,,,,,,,,,,,,1701.3487099,1701.3641484,1701.3641484,1701.3641484,1707.7758403,,,,1707.7873809999999,1707.7976769,1707.7976769,1707.8412223999999,1707.8415614,1707.8577817999999,1707.8577817999999,1707.8577817999999,1707.9410222,1708.3250712,,,,,,,,,,,,,,,,,,,,,,down,6.399711900000057,None,space,0.45112479999988864,None,P141,001,2025-04-09_08h52.55.077,posner_endo_new1,2024.2.4,60.069115524323294,2025-04-09 08h53.00.669728 +0100,
cube_l.png,0.1,0.31,invalid,3,3,0,down,12.710803100000021,None,space,0.5539748999999574,None,,,,,,,,,0,3,3,3,1708.3405982,,,,,,,,,,,,,1708.3253680999999,1708.3405982,1708.3405982,1708.3405982,1721.0621075,,,,1721.0737354,1721.0841158,1721.0841158,1721.1278829999999,1721.1282228999999,1721.1442769999999,1721.1442769999999,1721.1442769999999,1721.2272589,1721.7112657,,,,,,,,,,,,,,,,,,,,,,down,12.710803100000021,None,space,0.5539748999999574,None,P141,001,2025-04-09_08h52.55.077,posner_endo_new1,2024.2.4,60.069115524323294,2025-04-09 08h53.00.669728 +0100,
cube_l.png,0.1,-0.31,valid,4,4,0,down,9.764783399999942,None,space,0.41589299999986906,None,,,,,,,,,0,4,4,4,1721.7269345,,,,,,,,,,,,,1721.7115578,1721.7269345,1721.7269345,1721.7269345,1731.5011788,,,,1731.5071642999999,1731.5189715,1731.5189715,1731.5669418,1731.5671706,1731.5836278,1731.5836278,1731.5836278,1731.6667746,1732.0005478,,,,,,,,,,,,,,,,,,,,,,down,9.764783399999942,None,space,0.41589299999986906,None,P141,001,2025-04-09_08h52.55.077,posner_endo_new1,2024.2.4,60.069115524323294,2025-04-09 08h53.00.669728 +0100,
cube_r.png,0.1,-0.31,invalid,5,5,0,down,9.7311787000001,None,space,0.46145720000004076,None,,,,,,,,,0,5,5,5,1732.0164811,,,,,,,,,,,,,1732.0007229,1732.0164811,1732.0164811,1732.0164811,1741.7566869,,,,1741.7626332,1741.7741826,1741.7741826,1741.8072014,1741.8074311999999,1741.8296332,1741.8296332,1741.8296332,1741.9079282,1742.3066328,,,,,,,,,,,,,,,,,,,,,,down,9.7311787000001,None,space,0.46145720000004076,None,P141,001,2025-04-09_08h52.55.077,posner_endo_new1,2024.2.4,60.069115524323294,2025-04-09 08h53.00.669728 +0100,
cube_r.png,0.1,0.31,valid,6,6,0,down,10.456828899999891,None,space,0.44502639999996063,None,,,,,,,,,0,6,6,6,1742.3226771,,,,,,,,,,,,,1742.3068084,1742.3226771,1742.3226771,1742.3226771,1752.7958778,,,,1752.8020019,1752.8138016999999,1752.8138016999999,1752.8620511,1752.8622805999998,1752.8783833,1752.8783833,1752.8783833,1752.9451359,1753.3288006,,,,,,,,,,,,,,,,,,,,,,down,10.456828899999891,None,space,0.44502639999996063,None,P141,001,2025-04-09_08h52.55.077,posner_endo_new1,2024.2.4,60.069115524323294,2025-04-09 08h53.00.669728 +0100,
cube_r.png,0.1,-0.31,invalid,7,7,0,down,7.843752400000085,None,space,0.3399463000000651,None,,,,,,,,,0,7,7,7,1753.3446333,,,,,,,,,,,,,1753.3289788,1753.3446333,1753.3446333,1753.3446333,1761.2040584,,,,1761.2100413,1761.2216428,1761.2216428,1761.2697968,1761.2700177,1761.2865249,1761.2865249,1761.2865249,1761.3532615,1761.6368479,,,,,,,,,,,,,,,,,,,,,,down,7.843752400000085,None,space,0.3399463000000651,None,P141,001,2025-04-09_08h52.55.077,posner_endo_new1,2024.2.4,60.069115524323294,2025-04-09 08h53.00.669728 +0100,
cube_l.png,0.1,-0.31,valid,8,8,0,down,9.902717399999801,None,space,0.4105682000001707,None,,,,,,,,,0,8,8,8,1761.6528322,,,,,,,,,,,,,1761.6370224,1761.6528322,1761.6528322,1761.6528322,1771.5601636,,,,1771.5661816,1771.5777979,1771.5777979,1771.6261471999999,1771.6263744,1771.6425464,1771.6425464,1771.6425464,1771.7091714,1772.0596432,,,,,,,,,,,,,,,,,,,,,,down,9.902717399999801,None,space,0.4105682000001707,None,P141,001,2025-04-09_08h52.55.077,posner_endo_new1,2024.2.4,60.069115524323294,2025-04-09 08h53.00.669728 +0100,
cube_r.png,0.1,-0.31,invalid,9,9,0,down,10.736258399999997,None,space,0.3867857999998705,None,,,,,,,,,0,9,9,9,1772.0756367,,,,,,,,,,,,,1772.0598211,1772.0756367,1772.0756367,1772.0756367,1782.8155265,,,,1782.821461,1782.8332701,1782.8332701,1782.8812547,1782.8814805,1782.8978517,1782.8978517,1782.8978517,1782.9810728999998,1783.2982313,,,,,,,,,,,,,,,,,,,,,,down,10.736258399999997,None,space,0.3867857999998705,None,P141,001,2025-04-09_08h52.55.077,posner_endo_new1,2024.2.4,60.069115524323294,2025-04-09 08h53.00.669728 +0100,
cube_l.png,0.1,0.31,invalid,10,10,0,down,9.193115900000066,None,space,0.4415885000000799,None,,,,,,,,,0,10,10,10,1783.3142704,,,,,,,,,,,,,1783.2984119,1783.3142704,1783.3142704,1783.3142704,1792.5221803,,,,1792.5282504,1792.5400367,1792.5400367,1792.5879031,1792.5881229,1792.6045944,1792.6045944,1792.6045944,1792.6878084,1793.054885,,,,,,,,,,,,,,,,,,,,,,down,9.193115900000066,None,space,0.4415885000000799,None,P141,001,2025-04-09_08h52.55.077,posner_endo_new1,2024.2.4,60.069115524323294,2025-04-09 08h53.00.669728 +0100,
cube_r.png,0.1,-0.31,invalid,11,11,0,down,4.20525960000009,None,space,0.6300836000000345,None,,,,,,,,,0,11,11,11,1793.0707459999999,,,,,,,,,,,,,1793.0550601,1793.0707459999999,1793.0707459999999,1793.0707459999999,1797.2837554999999,,,,1797.2897457,1797.3014566,1797.3014566,1797.3498579,1797.3500791,1797.3664466999999,1797.3664466999999,1797.3664466999999,1797.4329613999998,1797.9995179999999,,,,,,,,,,,,,,,,,,,,,,down,4.20525960000009,None,space,0.6300836000000345,None,P141,001,2025-04-09_08h52.55.077,posner_endo_new1,2024.2.4,60.069115524323294,2025-04-09 08h53.00.669728 +0100,
cube_r.png,0.1,0.31,valid,12,12,0,down,7.683544600000005,None,space,0.3486613000000034,None,,,,,,,,,0,12,12,12,1798.0156722,,,,,,,,,,,,,1797.9996932,1798.0156722,1798.0156722,1798.0156722,1805.7085123,,,,1805.7144662,1805.7260564,1805.7260564,1805.7744152999999,1805.7746396999999,1805.7910617,1805.7910617,1805.7910617,1805.8577031,1806.1415607,,,,,,,,,,,,,,,,,,,,,,down,7.683544600000005,None,space,0.3486613000000034,None,P141,001,2025-04-09_08h52.55.077,posner_endo_new1,2024.2.4,60.069115524323294,2025-04-09 08h53.00.669728 +0100,
cube_l.png,0.1,10,catch,13,13,0,down,9.031831699999884,None,None,,,,,,,,,,,0,13,13,13,1806.1573375,,,,,,,,,,,,,1806.1417449,1806.1573375,1806.1573375,1806.1573375,1815.1989001,,,,1815.2049576,1815.2164866,1815.2164866,1815.2648526,1815.2650787,1815.2815223,1815.2815223,1815.2815223,1815.3479416999999,1818.2786251,,,,,,,1817.3626353,1818.2951363,1818.2951363,1818.2951363,,,,,,,,,,,,down,9.031831699999884,None,None,,,P141,001,2025-04-09_08h52.55.077,posner_endo_new1,2024.2.4,60.069115524323294,2025-04-09 08h53.00.669728 +0100,
cube_r.png,0.1,-0.31,invalid,14,14,0,down,9.812797199999977,None,space,0.44862090000015087,None,,,,,,,,,0,14,14,14,1818.2951363,,,,,,,,,,,,,1818.2787941,1818.2951363,1818.2951363,1818.2951363,1828.1191247,,,,1828.1252331,1828.1370281,1828.1370281,1828.1850766999999,1828.1853013999998,1828.2015457,1828.2015457,1828.2015457,1828.2681857,1828.6519661,,,,,,,,,,,,,,,,,,,,,,down,9.812797199999977,None,space,0.44862090000015087,None,P141,001,2025-04-09_08h52.55.077,posner_endo_new1,2024.2.4,60.069115524323294,2025-04-09 08h53.00.669728 +0100,
cube_l.png,0.1,-0.31,valid,15,15,0,down,12.312021500000128,None,space,0.49999960000013743,None,,,,,,,,,0,15,15,15,1828.6678465999998,,,,,,,,,,,,,1828.6521505,1828.6678465999998,1828.6678465999998,1828.6678465999998,1840.989259,,,,1840.9952458,1841.0072476999999,1841.0072476999999,1841.0551384,1841.0553664,1841.0719061,1841.0719061,1841.0719061,1841.1383838,1841.5886196,,,,,,,,,,,,,,,,,,,,,,down,12.312021500000128,None,space,0.49999960000013743,None,P141,001,2025-04-09_08h52.55.077,posner_endo_new1,2024.2.4,60.069115524323294,2025-04-09 08h53.00.669728 +0100,
cube_r.png,0.1,10,catch,16,16,0,down,10.87148860000002,None,None,,,,,,,,,,,0,16,16,16,1841.6045950999999,,,,,,,,,,,,,1841.5887989999999,1841.6045950999999,1841.6045950999999,1841.6045950999999,1852.4776373,,,,1852.4835343,1852.4951524,1852.4951524,1852.5435873,1852.5438069,1852.5600279999999,1852.5600279999999,1852.5600279999999,1852.6266533,1855.5576494,,,,,,,1854.6411667999998,1855.5736507,1855.5736507,1855.5736507,,,,,,,,,,,,down,10.87148860000002,None,None,,,P141,001,2025-04-09_08h52.55.077,posner_endo_new1,2024.2.4,60.069115524323294,2025-04-09 08h53.00.669728 +0100,
cube_r.png,0.1,10,catch,17,17,0,down,9.5581473000002,None,None,,,,,,,,,,,0,17,17,17,1855.5736507,,,,,,,,,,,,,1855.5578114,1855.5736507,1855.5736507,1855.5736507,1865.1479058,,,,1865.1539522,1865.1659892,1865.1659892,1865.2138619,1865.2141003,1865.2305809,1865.2305809,1865.2305809,1865.2970178,1868.2276734,,,,,,,1867.3117310999999,1868.2438143,1868.2438143,1868.2438143,,,,,,,,,,,,down,9.5581473000002,None,None,,,P141,001,2025-04-09_08h52.55.077,posner_endo_new1,2024.2.4,60.069115524323294,2025-04-09 08h53.00.669728 +0100,
cube_l.png,0.1,0.31,invalid,18,18,0,down,7.584216900000001,None,space,0.41580729999986943,None,,,,,,,,,0,18,18,18,1868.2438143,,,,,,,,,,,,,1868.2278364,1868.2438143,1868.2438143,1868.2438143,1875.8367927,,,,1875.8427635,1875.854465,1875.854465,1875.9029512,1875.9031745,1875.9195026999998,1875.9195026999998,1875.9195026999998,1875.986202,1876.3367834,,,,,,,,,,,,,,,,,,,,,,down,7.584216900000001,None,space,0.41580729999986943,None,P141,001,2025-04-09_08h52.55.077,posner_endo_new1,2024.2.4,60.069115524323294,2025-04-09 08h53.00.669728 +0100,
cube_l.png,0.1,10,catch,19,19,0,down,11.603407800000014,None,None,,,,,,,,,,,0,19,19,19,1876.3524915,,,,,,,,,,,,,1876.3369651,1876.3524915,1876.3524915,1876.3524915,1887.9580051,,,,1887.9639768,1887.9757992,1887.9757992,1888.0239371,1888.024159,1888.0404836999999,1888.0404836999999,1888.0404836999999,1888.1071132,1891.0377982999998,,,,,,,1890.1217073999999,1891.054029,1891.054029,1891.054029,,,,,,,,,,,,down,11.603407800000014,None,None,,,P141,001,2025-04-09_08h52.55.077,posner_endo_new1,2024.2.4,60.069115524323294,2025-04-09 08h53.00.669728 +0100,
cube_l.png,0.1,0.31,invalid,20,20,0,down,7.661826900000051,None,space,0.5936909000001833,None,,,,,,,,,0,20,20,20,1891.054029,,,,,,,,,,,,,1891.0379625,1891.054029,1891.054029,1891.054029,1898.7304149,,,,1898.7364493,1898.7484861,1898.7484861,1898.7964656,1898.7966847999999,1898.8130032,1898.8130032,1898.8130032,1898.8959899,1899.4130423,,,,,,,,,,,,,,,,,,,,,,down,7.661826900000051,None,space,0.5936909000001833,None,P141,001,2025-04-09_08h52.55.077,posner_endo_new1,2024.2.4,60.069115524323294,2025-04-09 08h53.00.669728 +0100,
cube_l.png,0.1,-0.31,valid,21,21,0,down,12.536091700000043,None,space,0.5886292999998659,None,,,,,,,,,0,21,21,21,1899.4288591,,,,,,,,,,,,,1899.413217,1899.4288591,1899.4288591,1899.4288591,1911.9669434999998,,,,1911.9730525999998,1911.9849061999998,1911.9849061999998,1912.0327792,1912.0330013999999,1912.0490352,1912.0490352,1912.0490352,1912.1324622,1912.6493564,,,,,,,,,,,,,,,,,,,,,,down,12.536091700000043,None,space,0.5886292999998659,None,P141,001,2025-04-09_08h52.55.077,posner_endo_new1,2024.2.4,60.069115524323294,2025-04-09 08h53.00.669728 +0100,
cube_r.png,0.1,0.31,valid,22,22,0,down,9.387179800000013,None,space,0.402680700000019,None,,,,,,,,,0,22,22,22,1912.6651155,,,,,,,,,,,,,1912.6495343,1912.6651155,1912.6651155,1912.6651155,1922.0565417999999,,,,1922.0625157000002,1922.0742321,1922.0742321,1922.1223557,1922.1225788,1922.138862,1922.138862,1922.138862,1922.2057591,1922.5557861999998,,,,,,,,,,,,,,,,,,,,,,down,9.387179800000013,None,space,0.402680700000019,None,P141,001,2025-04-09_08h52.55.077,posner_endo_new1,2024.2.4,60.069115524323294,2025-04-09 08h53.00.669728 +0100,
cube_r.png,0.1,-0.31,invalid,23,23,0,down,10.743786699999873,None,space,0.38973470000019006,None,,,,,,,,,0,23,23,23,1922.5718024999999,,,,,,,,,,,,,1922.5559649,1922.5718024999999,1922.5718024999999,1922.5718024999999,1933.3283651,,,,1933.3343856999998,1933.3460690999998,1933.3460690999998,1933.3941704000001,1933.3943937000001,1933.4107824999999,1933.4107824999999,1933.4107824999999,1933.4940435,1933.8109957999998,,,,,,,,,,,,,,,,,,,,,,down,10.743786699999873,None,space,0.38973470000019006,None,P141,001,2025-04-09_08h52.55.077,posner_endo_new1,2024.2.4,60.069115524323294,2025-04-09 08h53.00.669728 +0100,
cube_r.png,0.1,0.31,valid,24,24,0,down,10.856612999999925,None,space,0.3492243000000599,None,,,,,,,,,0,24,24,24,1933.8270919,,,,,,,,,,,,,1933.8111711999998,1933.8270919,1933.8270919,1933.8270919,1944.699965,,,,1944.7059788,1944.7178167999998,1944.7178167999998,1944.7661477,1944.7663679999998,1944.7823544999999,1944.7823544999999,1944.7823544999999,1944.8491465,1945.1332329999998,,,,,,,,,,,,,,,,,,,,,,down,10.856612999999925,None,space,0.3492243000000599,None,P141,001,2025-04-09_08h52.55.077,posner_endo_new1,2024.2.4,60.069115524323294,2025-04-09 08h53.00.669728 +0100,
cube_r.png,0.1,-0.31,invalid,25,25,0,down,12.967845000000125,None,space,0.4678005000000667,None,,,,,,,,,0,25,25,25,1945.1486133,,,,,,,,,,,,,1945.1334088,1945.1486133,1945.1486133,1945.1486133,1958.1195365,,,,1958.1255806000001,1958.1372576,1958.1372576,1958.1856520999997,1958.1858707999997,1958.2019515999998,1958.2019515999998,1958.2019515999998,1958.2688507999999,1958.6856919,,,,,,,,,,,,,,,,,,,,,,down,12.967845000000125,None,space,0.4678005000000667,None,P141,001,2025-04-09_08h52.55.077,posner_endo_new1,2024.2.4,60.069115524323294,2025-04-09 08h53.00.669728 +0100,
cube_l.png,0.1,-0.31,valid,26,26,0,down,13.599039000000175,None,space,0.4507213000001684,None,,,,,,,,,0,26,26,26,1958.7015040999997,,,,,,,,,,,,,1958.6858664,1958.7015040999997,1958.7015040999997,1958.7015040999997,1972.3054234999997,,,,1972.3114616,1972.3232553999999,1972.3232553999999,1972.3710712,1972.3712926,1972.387594,1972.387594,1972.387594,1972.4709691,1972.8546242999998,,,,,,,,,,,,,,,,,,,,,,down,13.599039000000175,None,space,0.4507213000001684,None,P141,001,2025-04-09_08h52.55.077,posner_endo_new1,2024.2.4,60.069115524323294,2025-04-09 08h53.00.669728 +0100,
cube_r.png,0.1,0.31,valid,27,27,0,down,10.717892699999993,None,space,0.4966202999999041,None,,,,,,,,,0,27,27,27,1972.8705552999998,,,,,,,,,,,,,1972.8547993999998,1972.8705552999998,1972.8705552999998,1972.8705552999998,1983.5936712,,,,1983.5996628,1983.6113921999997,1983.6113921999997,1983.659559,1983.6597862,1983.6760587,1983.6760587,1983.6760587,1983.7427271,1984.1764280999998,,,,,,,,,,,,,,,,,,,,,,down,10.717892699999993,None,space,0.4966202999999041,None,P141,001,2025-04-09_08h52.55.077,posner_endo_new1,2024.2.4,60.069115524323294,2025-04-09 08h53.00.669728 +0100,
cube_r.png,0.1,10,catch,28,28,0,down,12.411446099999921,None,None,,,,,,,,,,,0,28,28,28,1984.1923045,,,,,,,,,,,,,1984.1766080999998,1984.1923045,1984.1923045,1984.1923045,1996.6137276000002,,,,1996.6197086999998,1996.6315025000001,1996.6315025000001,1996.6797531,1996.6799770999999,1996.6963712999998,1996.6963712999998,1996.6963712999998,1996.7627949,1999.6936351000002,,,,,,,1998.7774536,1999.7095723999998,1999.7095723999998,1999.7095723999998,,,,,,,,,,,,down,12.411446099999921,None,None,,,P141,001,2025-04-09_08h52.55.077,posner_endo_new1,2024.2.4,60.069115524323294,2025-04-09 08h53.00.669728 +0100,
cube_r.png,0.1,0.31,valid,29,29,0,down,14.942653500000233,None,space,0.42737769999985176,None,,,,,,,,,0,29,29,29,1999.7095723999998,,,,,,,,,,,,,1999.6937983,1999.7095723999998,1999.7095723999998,1999.7095723999998,2014.6617932000001,,,,2014.6677481999998,2014.6792881,2014.6792881,2014.7279674999997,2014.7281918,2014.744476,2014.744476,2014.744476,2014.811097,2015.1781531,,,,,,,,,,,,,,,,,,,,,,down,14.942653500000233,None,space,0.42737769999985176,None,P141,001,2025-04-09_08h52.55.077,posner_endo_new1,2024.2.4,60.069115524323294,2025-04-09 08h53.00.669728 +0100,
cube_r.png,0.1,0.31,valid,30,30,0,down,10.194096600000194,None,space,0.66802110000026,None,,,,,,,,,0,30,30,30,2015.1939851,,,,,,,,,,,,,2015.1783276999997,2015.1939851,2015.1939851,2015.1939851,2025.4008894,,,,2025.4069610999998,2025.4187893,2025.4187893,2025.4669934,2025.4672177999998,2025.4834678999998,2025.4834678999998,2025.4834678999998,2025.5499557,2026.16677,,,,,,,,,,,,,,,,,,,,,,down,10.194096600000194,None,space,0.66802110000026,None,P141,001,2025-04-09_08h52.55.077,posner_endo_new1,2024.2.4,60.069115524323294,2025-04-09 08h53.00.669728 +0100,
cube_l.png,0.1,-0.31,valid,31,31,0,down,8.413944400000219,None,space,0.43464270000004035,None,,,,,,,,,0,31,31,31,2026.1827338,,,,,,,,,,,,,2026.1669488999999,2026.1827338,2026.1827338,2026.1827338,2034.6082510999997,,,,2034.6142281,2034.6258117,2034.6258117,2034.6739099999998,2034.6741322999999,2034.6907638999999,2034.6907638999999,2034.6907638999999,2034.7573642,2035.1411105,,,,,,,,,,,,,,,,,,,,,,down,8.413944400000219,None,space,0.43464270000004035,None,P141,001,2025-04-09_08h52.55.077,posner_endo_new1,2024.2.4,60.069115524323294,2025-04-09 08h53.00.669728 +0100,
cube_r.png,0.1,0.31,valid,32,32,0,down,10.510697700000037,None,space,0.3712662000002638,None,,,,,,,,,0,32,32,32,2035.1570217,,,,,,,,,,,,,2035.1412964999997,2035.1570217,2035.1570217,2035.1570217,2045.6802019,,,,2045.6861528000002,2045.6978602000002,2045.6978602000002,2045.7462431000001,2045.7464624000002,2045.7627331,2045.7627331,2045.7627331,2045.8293259999998,2046.1463866000001,,,,,,,,,,,,,,,,,,,,,,down,10.510697700000037,None,space,0.3712662000002638,None,P141,001,2025-04-09_08h52.55.077,posner_endo_new1,2024.2.4,60.069115524323294,2025-04-09 08h53.00.669728 +0100,
cube_r.png,0.1,-0.31,invalid,33,33,0,down,14.058212400000457,None,space,0.40853969999989204,None,,,,,,,,,0,33,33,33,2046.1623020999998,,,,,,,,,,,,,2046.1465612,2046.1623020999998,2046.1623020999998,2046.1623020999998,2060.2319159000003,,,,2060.2379631000003,2060.2501317,2060.2501317,2060.2981062000003,2060.2983277000003,2060.3146599,2060.3146599,2060.3146599,2060.381277,2060.7316139,,,,,,,,,,,,,,,,,,,,,,down,14.058212400000457,None,space,0.40853969999989204,None,P141,001,2025-04-09_08h52.55.077,posner_endo_new1,2024.2.4,60.069115524323294,2025-04-09 08h53.00.669728 +0100,
cube_r.png,0.1,10,catch,34,34,0,down,9.480264199999965,None,None,,,,,,,,,,,0,34,34,34,2060.7474740000002,,,,,,,,,,,,,2060.7317902,2060.7474740000002,2060.7474740000002,2060.7474740000002,2070.2383096000003,,,,2070.2442148,2070.2559158000004,2070.2559158000004,2070.3043652,2070.3045846,2070.3209311,2070.3209311,2070.3209311,2070.3876397000004,2073.3183115,,,,,,,2072.4021812,2073.3346647000003,2073.3346647000003,2073.3346647000003,,,,,,,,,,,,down,9.480264199999965,None,None,,,P141,001,2025-04-09_08h52.55.077,posner_endo_new1,2024.2.4,60.069115524323294,2025-04-09 08h53.00.669728 +0100,
cube_r.png,0.1,0.31,valid,35,35,0,down,7.5980185000003075,None,space,0.4574320000001535,None,,,,,,,,,0,35,35,35,2073.3346647000003,,,,,,,,,,,,,2073.3184748000003,2073.3346647000003,2073.3346647000003,2073.3346647000003,2080.9440198,,,,2080.9501381,2080.9618144,2080.9618144,2081.0098633000002,2081.0100835000003,2081.0267766,2081.0267766,2081.0267766,2081.09344,2081.4937344,,,,,,,,,,,,,,,,,,,,,,down,7.5980185000003075,None,space,0.4574320000001535,None,P141,001,2025-04-09_08h52.55.077,posner_endo_new1,2024.2.4,60.069115524323294,2025-04-09 08h53.00.669728 +0100,
cube_r.png,0.1,-0.31,invalid,36,36,0,down,13.527206300000216,None,space,0.5128162000000884,None,,,,,,,,,0,36,36,36,2081.5094945,,,,,,,,,,,,,2081.4939101,2081.5094945,2081.5094945,2081.5094945,2095.0464097000004,,,,2095.0525959,2095.0644066,2095.0644066,2095.1125243,2095.1127493000004,2095.1289603,2095.1289603,2095.1289603,2095.1955346,2095.6460733000004,,,,,,,,,,,,,,,,,,,,,,down,13.527206300000216,None,space,0.5128162000000884,None,P141,001,2025-04-09_08h52.55.077,posner_endo_new1,2024.2.4,60.069115524323294,2025-04-09 08h53.00.669728 +0100,
cube_l.png,0.1,0.31,invalid,37,37,0,down,10.40813019999996,None,space,0.3890908999997009,None,,,,,,,,,0,37,37,37,2095.661731,,,,,,,,,,,,,2095.6462465,2095.661731,2095.661731,2095.661731,2106.0850966000003,,,,2106.0911032000004,2106.1028277,2106.1028277,2106.1511872,2106.1514096,2106.1677782,2106.1677782,2106.1677782,2106.2342541000003,2106.5680155,,,,,,,,,,,,,,,,,,,,,,down,10.40813019999996,None,space,0.3890908999997009,None,P141,001,2025-04-09_08h52.55.077,posner_endo_new1,2024.2.4,60.069115524323294,2025-04-09 08h53.00.669728 +0100,
cube_l.png,0.1,0.31,invalid,38,38,0,down,12.404819299999872,None,space,0.6170313999996324,None,,,,,,,,,0,38,38,38,2106.5840286000002,,,,,,,,,,,,,2106.5681906,2106.5840286000002,2106.5840286000002,2106.5840286000002,2119.0052452,,,,2119.0112627000003,2119.0227572000003,2119.0227572000003,2119.0712335000003,2119.0714541,2119.0878181000003,2119.0878181000003,2119.0878181000003,2119.154555,2119.7211253,,,,,,,,,,,,,,,,,,,,,,down,12.404819299999872,None,space,0.6170313999996324,None,P141,001,2025-04-09_08h52.55.077,posner_endo_new1,2024.2.4,60.069115524323294,2025-04-09 08h53.00.669728 +0100,
cube_r.png,0.1,0.31,valid,39,39,0,down,16.884684600000128,None,space,0.38270310000007157,None,,,,,,,,,0,39,39,39,2119.7372072000003,,,,,,,,,,,,,2119.7213065,2119.7372072000003,2119.7372072000003,2119.7372072000003,2136.6374753,,,,2136.6433867,2136.6550854,2136.6550854,2136.703403,2136.703624,2136.7199092,2136.7199092,2136.7199092,2136.8030378000003,2137.1036676000003,,,,,,,,,,,,,,,,,,,,,,down,16.884684600000128,None,space,0.38270310000007157,None,P141,001,2025-04-09_08h52.55.077,posner_endo_new1,2024.2.4,60.069115524323294,2025-04-09 08h53.00.669728 +0100,
cube_l.png,0.1,0.31,invalid,40,40,0,down,12.957338499999878,None,space,0.4860230000003867,None,,,,,,,,,0,40,40,40,2137.1195623000003,,,,,,,,,,,,,2137.1038432,2137.1195623000003,2137.1195623000003,2137.1195623000003,2150.089996,,,,2150.0960785,2150.1077707000004,2150.1077707000004,2150.1564087,2150.1566284,2150.1728737000003,2150.1728737000003,2150.1728737000003,2150.2395574,2150.6729367000003,,,,,,,,,,,,,,,,,,,,,,down,12.957338499999878,None,space,0.4860230000003867,None,P141,001,2025-04-09_08h52.55.077,posner_endo_new1,2024.2.4,60.069115524323294,2025-04-09 08h53.00.669728 +0100,
cube_l.png,0.1,10,catch,41,41,0,down,10.771724600000198,None,None,,,,,,,,,,,0,41,41,41,2150.6888746,,,,,,,,,,,,,2150.673115,2150.6888746,2150.6888746,2150.6888746,2161.4620805,,,,2161.4680454000004,2161.479796,2161.479796,2161.528107,2161.5283342000002,2161.5445047000003,2161.5445047000003,2161.5445047000003,2161.6112638,2164.5420253,,,,,,,2163.6258269,2164.5580891,2164.5580891,2164.5580891,,,,,,,,,,,,down,10.771724600000198,None,None,,,P141,001,2025-04-09_08h52.55.077,posner_endo_new1,2024.2.4,60.069115524323294,2025-04-09 08h53.00.669728 +0100,
cube_l.png,0.1,-0.31,valid,42,42,0,down,6.335853600000064,None,space,0.47640780000028826,None,,,,,,,,,0,42,42,42,2164.5580891,,,,,,,,,,,,,2164.542186,2164.5580891,2164.5580891,2164.5580891,2170.9021039000004,,,,2170.9081426000002,2170.9198685,2170.9198685,2170.9683248,2170.9685464000004,2170.9849732000002,2170.9849732000002,2170.9849732000002,2171.0514173,2171.468256,,,,,,,,,,,,,,,,,,,,,,down,6.335853600000064,None,space,0.47640780000028826,None,P141,001,2025-04-09_08h52.55.077,posner_endo_new1,2024.2.4,60.069115524323294,2025-04-09 08h53.00.669728 +0100,
cube_l.png,0.1,10,catch,43,43,0,down,12.591954800000167,None,None,,,,,,,,,,,0,43,43,43,2171.4844687,,,,,,,,,,,,,2171.4684321,2171.4844687,2171.4844687,2171.4844687,2184.0888716000004,,,,2184.0948591,2184.1064991000003,2184.1064991000003,2184.1548368000003,2184.1550662,2184.171436,2184.171436,2184.171436,2184.2381238000003,2187.1689833,,,,,,,2186.2529252000004,2187.1850950000003,2187.1850950000003,2187.1850950000003,,,,,,,,,,,,down,12.591954800000167,None,None,,,P141,001,2025-04-09_08h52.55.077,posner_endo_new1,2024.2.4,60.069115524323294,2025-04-09 08h53.00.669728 +0100,
cube_l.png,0.1,0.31,invalid,44,44,0,down,5.131880000000365,None,space,0.549969499999861,None,,,,,,,,,0,44,44,44,2187.1850950000003,,,,,,,,,,,,,2187.169144,2187.1850950000003,2187.1850950000003,2187.1850950000003,2192.3303428000004,,,,2192.3363057,2192.3480844,2192.3480844,2192.396568,2192.3967883,2192.413078,2192.413078,2192.413078,2192.4797643,2192.9797958000004,,,,,,,,,,,,,,,,,,,,,,down,5.131880000000365,None,space,0.549969499999861,None,P141,001,2025-04-09_08h52.55.077,posner_endo_new1,2024.2.4,60.069115524323294,2025-04-09 08h53.00.669728 +0100,
cube_l.png,0.1,0.31,invalid,45,45,0,down,15.160544100000152,None,space,0.470244200000252,None,,,,,,,,,0,45,45,45,2192.9958786,,,,,,,,,,,,,2192.9799737000003,2192.9958786,2192.9958786,2192.9958786,2208.1644594000004,,,,2208.1705695,2208.1824417000003,2208.1824417000003,2208.2303469000003,2208.2305742000003,2208.2469223000003,2208.2469223000003,2208.2469223000003,2208.3300631,2208.7304428,,,,,,,,,,,,,,,,,,,,,,down,15.160544100000152,None,space,0.470244200000252,None,P141,001,2025-04-09_08h52.55.077,posner_endo_new1,2024.2.4,60.069115524323294,2025-04-09 08h53.00.669728 +0100,
cube_r.png,0.1,0.31,valid,46,46,0,down,9.897941000000174,None,space,0.4820506999999452,None,,,,,,,,,0,46,46,46,2208.7464765,,,,,,,,,,,,,2208.7306157000003,2208.7464765,2208.7464765,2208.7464765,2218.6535910000002,,,,2218.6595629000003,2218.6713043,2218.6713043,2218.7194962000003,2218.7197205,2218.7362488000003,2218.7362488000003,2218.7362488000003,2218.8029414000002,2219.2200059,,,,,,,,,,,,,,,,,,,,,,down,9.897941000000174,None,space,0.4820506999999452,None,P141,001,2025-04-09_08h52.55.077,posner_endo_new1,2024.2.4,60.069115524323294,2025-04-09 08h53.00.669728 +0100,
cube_l.png,0.1,-0.31,valid,47,47,0,down,9.50480110000035,None,space,0.40253819999998086,None,,,,,,,,,0,47,47,47,2219.2357015000002,,,,,,,,,,,,,2219.2201785,2219.2357015000002,2219.2357015000002,2219.2357015000002,2228.7432531000004,,,,2228.7493383,2228.7611373,2228.7611373,2228.8092905000003,2228.8095188,2228.8259132000003,2228.8259132000003,2228.8259132000003,2228.8924005000003,2229.2427128000004,,,,,,,,,,,,,,,,,,,,,,down,9.50480110000035,None,space,0.40253819999998086,None,P141,001,2025-04-09_08h52.55.077,posner_endo_new1,2024.2.4,60.069115524323294,2025-04-09 08h53.00.669728 +0100,
cube_r.png,0.1,-0.31,invalid,48,48,0,down,13.193427899999733,None,space,0.5148115000001781,None,,,,,,,,,0,48,48,48,2229.2587577000004,,,,,,,,,,,,,2229.2428948,2229.2587577000004,2229.2587577000004,2229.2587577000004,2242.4625986,,,,2242.4685686000003,2242.4803046,2242.4803046,2242.5285786000004,2242.5287993,2242.5452815000003,2242.5452815000003,2242.5452815000003,2242.6284074,2243.0621824,,,,,,,,,,,,,,,,,,,,,,down,13.193427899999733,None,space,0.5148115000001781,None,P141,001,2025-04-09_08h52.55.077,posner_endo_new1,2024.2.4,60.069115524323294,2025-04-09 08h53.00.669728 +0100,
cube_r.png,0.1,10,catch,49,49,0,down,10.624337000000196,None,None,,,,,,,,,,,0,49,49,49,2243.0779083,,,,,,,,,,,,,2243.0623552,2243.0779083,2243.0779083,2243.0779083,2253.7178318,,,,2253.7237846000003,2253.7354231000004,2253.7354231000004,2253.7837348000003,2253.7839566000002,2253.8002847000002,2253.8002847000002,2253.8002847000002,2253.8668758000003,2256.7977537,,,,,,,2255.8814502,2256.8139725,2256.8139725,2256.8139725,,,,,,,,,,,,down,10.624337000000196,None,None,,,P141,001,2025-04-09_08h52.55.077,posner_endo_new1,2024.2.4,60.069115524323294,2025-04-09 08h53.00.669728 +0100,
cube_l.png,0.1,-0.31,valid,50,50,0,down,7.334246200000052,None,space,0.5057977000001301,None,,,,,,,,,0,50,50,50,2256.8139725,,,,,,,,,,,,,2256.7979176000003,2256.8139725,2256.8139725,2256.8139725,2264.1571079,,,,2264.1630946,2264.1749545000002,2264.1749545000002,2264.2232259,2264.2234508,2264.2398953,2264.2398953,2264.2398953,2264.306517,2264.7564015000003,,,,,,,,,,,,,,,,,,,,,,down,7.334246200000052,None,space,0.5057977000001301,None,P141,001,2025-04-09_08h52.55.077,posner_endo_new1,2024.2.4,60.069115524323294,2025-04-09 08h53.00.669728 +0100,
cube_l.png,0.1,-0.31,valid,51,51,0,down,12.680182399999921,None,space,0.5723780999996961,None,,,,,,,,,0,51,51,51,2264.7725896,,,,,,,,,,,,,2264.7565759000004,2264.7725896,2264.7725896,2264.7725896,2277.4600999000004,,,,2277.4661742000003,2277.4778875,2277.4778875,2277.5261398000002,2277.5263678,2277.5428791000004,2277.5428791000004,2277.5428791000004,2277.6092807,2278.1261891000004,,,,,,,,,,,,,,,,,,,,,,down,12.680182399999921,None,space,0.5723780999996961,None,P141,001,2025-04-09_08h52.55.077,posner_endo_new1,2024.2.4,60.069115524323294,2025-04-09 08h53.00.669728 +0100,
cube_r.png,0.1,-0.31,invalid,52,52,0,down,5.062361799999962,None,space,0.4344654999999875,None,,,,,,,,,0,52,52,52,2278.1421384,,,,,,,,,,,,,2278.1263882000003,2278.1421384,2278.1421384,2278.1421384,2283.2209971,,,,2283.2269824,2283.2384960000004,2283.2384960000004,2283.2872161,2283.287437,2283.3036273000002,2283.3036273000002,2283.3036273000002,2283.3701872,2283.7538184,,,,,,,,,,,,,,,,,,,,,,down,5.062361799999962,None,space,0.4344654999999875,None,P141,001,2025-04-09_08h52.55.077,posner_endo_new1,2024.2.4,60.069115524323294,2025-04-09 08h53.00.669728 +0100,
cube_l.png,0.1,-0.31,valid,53,53,0,down,19.890903099999832,None,space,0.46875709999994797,None,,,,,,,,,0,53,53,53,2283.7698600000003,,,,,,,,,,,,,2283.7539973000003,2283.7698600000003,2283.7698600000003,2283.7698600000003,2303.6667843,,,,2303.6728686,2303.6847045,2303.6847045,2303.732818,2303.7330429000003,2303.7491151000004,2303.7491151000004,2303.7491151000004,2303.8159465000003,2304.2328941,,,,,,,,,,,,,,,,,,,,,,down,19.890903099999832,None,space,0.46875709999994797,None,P141,001,2025-04-09_08h52.55.077,posner_endo_new1,2024.2.4,60.069115524323294,2025-04-09 08h53.00.669728 +0100,
cube_r.png,0.1,10,catch,54,54,0,down,11.252080900000237,None,None,,,,,,,,,,,0,54,54,54,2304.2491533,,,,,,,,,,,,,2304.2330857,2304.2491533,2304.2491533,2304.2491533,2315.5048546000003,,,,2315.5107817000003,2315.5224916,2315.5224916,2315.5707915000003,2315.5710213,2315.5871466000003,2315.5871466000003,2315.5871466000003,2315.6538989,2318.5845917,,,,,,,2317.6684131,2318.6007175,2318.6007175,2318.6007175,,,,,,,,,,,,down,11.252080900000237,None,None,,,P141,001,2025-04-09_08h52.55.077,posner_endo_new1,2024.2.4,60.069115524323294,2025-04-09 08h53.00.669728 +0100,
cube_l.png,0.1,0.31,invalid,55,55,0,down,8.988605200000165,None,space,0.43418789999986984,None,,,,,,,,,0,55,55,55,2318.6007175,,,,,,,,,,,,,2318.5847541000003,2318.6007175,2318.6007175,2318.6007175,2327.5922669,,,,2327.5982000000004,2327.6099090000002,2327.6099090000002,2327.6584571000003,2327.6586761000003,2327.6748824,2327.6748824,2327.6748824,2327.7415139,2328.1253963000004,,,,,,,,,,,,,,,,,,,,,,down,8.988605200000165,None,space,0.43418789999986984,None,P141,001,2025-04-09_08h52.55.077,posner_endo_new1,2024.2.4,60.069115524323294,2025-04-09 08h53.00.669728 +0100,
cube_l.png,0.1,-0.31,valid,56,56,0,down,21.751618600000256,None,space,0.549413000000186,None,,,,,,,,,0,56,56,56,2328.14116,,,,,,,,,,,,,2328.1255728,2328.14116,2328.14116,2328.14116,2349.9028449,,,,2349.9088211000003,2349.9204216000003,2349.9204216000003,2349.9687218000004,2349.9689447,2349.9854263,2349.9854263,2349.9854263,2350.0520353,2350.5357520000002,,,,,,,,,,,,,,,,,,,,,,down,21.751618600000256,None,space,0.549413000000186,None,P141,001,2025-04-09_08h52.55.077,posner_endo_new1,2024.2.4,60.069115524323294,2025-04-09 08h53.00.669728 +0100,
cube_r.png,0.1,0.31,valid,57,57,0,down,19.677284800000052,None,space,0.4754648000002817,None,,,,,,,,,0,57,57,57,2350.5514668,,,,,,,,,,,,,2350.5359288,2350.5514668,2350.5514668,2350.5514668,2370.2322240000003,,,,2370.2381971,2370.2502191000003,2370.2502191000003,2370.2979743,2370.2981963,2370.3146936000003,2370.3146936000003,2370.3146936000003,2370.3811537,2370.7983839000003,,,,,,,,,,,,,,,,,,,,,,down,19.677284800000052,None,space,0.4754648000002817,None,P141,001,2025-04-09_08h52.55.077,posner_endo_new1,2024.2.4,60.069115524323294,2025-04-09 08h53.00.669728 +0100,
cube_r.png,0.1,-0.31,invalid,58,58,0,down,11.286790699999983,None,space,0.38759200000004057,None,,,,,,,,,0,58,58,58,2370.8141990000004,,,,,,,,,,,,,2370.7985588,2370.8141990000004,2370.8141990000004,2370.8141990000004,2382.1035127,,,,2382.1094653,2382.1213615,2382.1213615,2382.1693617,2382.1695813,2382.1859548,2382.1859548,2382.1859548,2382.2524771000003,2382.5861587000004,,,,,,,,,,,,,,,,,,,,,,down,11.286790699999983,None,space,0.38759200000004057,None,P141,001,2025-04-09_08h52.55.077,posner_endo_new1,2024.2.4,60.069115524323294,2025-04-09 08h53.00.669728 +0100,
cube_l.png,0.1,0.31,invalid,59,59,0,down,14.890989699999864,None,space,0.586913000000095,None,,,,,,,,,0,59,59,59,2382.6021266000002,,,,,,,,,,,,,2382.5863327,2382.6021266000002,2382.6021266000002,2382.6021266000002,2397.5044047,,,,2397.5105331,2397.5223706,2397.5223706,2397.5703557,2397.5705763,2397.5868537,2397.5868537,2397.5868537,2397.6535463,2398.186735,,,,,,,,,,,,,,,,,,,,,,down,14.890989699999864,None,space,0.586913000000095,None,P141,001,2025-04-09_08h52.55.077,posner_endo_new1,2024.2.4,60.069115524323294,2025-04-09 08h53.00.669728 +0100,
