cue_img,cue_soa,target_y,trial,thisN,thisTrialN,thisRepN,key_control2.keys,key_control2.rt,key_control2.duration,key_resp.keys,key_resp.rt,key_resp.duration,practice.thisRepN,practice.thisTrialN,practice.thisN,practice.thisIndex,block1.thisRepN,block1.thisTrialN,block1.thisN,block1.thisIndex,block2.thisRepN,block2.thisTrialN,block2.thisN,block2.thisIndex,thisRow.t,notes,instructions.started,instructions_txt.started,key_control.started,instructions.stopped,key_control.keys,key_control.rt,key_control.duration,ready.started,ready_txt.started,ready_txt.stopped,ready.stopped,fix.started,fixation.started,key_control2.started,fixation_cross.started,fix.stopped,practice.key_control2.keys,practice.key_control2.rt,practice.key_control2.duration,cue.started,cube.started,fixation_cross_cue.started,cue.stopped,target.started,fixation_target.started,fixation_cross_target.started,key_resp.started,star.started,target.stopped,practice.key_resp.keys,practice.key_resp.rt,practice.key_resp.duration,star.stopped,fixation_target.stopped,fixation_cross_target.stopped,key_resp.stopped,block1.key_control2.keys,block1.key_control2.rt,block1.key_control2.duration,block1.key_resp.keys,block1.key_resp.rt,block1.key_resp.duration,cube.stopped,fixation_cross_cue.stopped,break_2.started,text.started,key_control3.started,text.stopped,break_2.stopped,key_control3.keys,key_control3.rt,key_control3.duration,block2.key_control2.keys,block2.key_control2.rt,block2.key_control2.duration,block2.key_resp.keys,block2.key_resp.rt,block2.key_resp.duration,participant,session,date,expName,psychopyVersion,frameRate,expStart,
,,,,,,,,,,,,,,,,,,,,,,,,,,,0.007540099999914673,0.023863500000061322,0.023863500000061322,504.96256730000005,up,504.92226100000016,None,,,,,,,,,,,,,,,,,,,,,,,,,,,,,,,,,,,,,,,,,,,,,,,,,,,,P142,001,2025-04-09_09h58.21.000,posner_endo_new1,2024.2.4,60.05829257867202,2025-04-09 09h58.32.565324 +0100,
,,,,,,,,,,,,,,,,,,,,,,,,,,,,,,,,,,504.96261669999967,504.9756282999997,507.9759720000002,507.9565555999998,,,,,,,,,,,,,,,,,,,,,,,,,,,,,,,,,,,,,,,,,,,,,,,,P142,001,2025-04-09_09h58.21.000,posner_endo_new1,2024.2.4,60.05829257867202,2025-04-09 09h58.32.565324 +0100,
cube_r.png,0.1,0.31,valid,0,0,0,up,27.666534400000273,None,space,0.6694792999996935,None,0,0,0,7,,,,,,,,,507.9759720000002,,,,,,,,,,,,,507.9639524000004,507.9759720000002,507.9759720000002,507.9759720000002,535.6450926999996,up,27.666534400000273,None,535.6576677000003,535.6680069000004,535.6680069000004,535.7109959,535.7112305,535.7275577,535.7275577,535.7275577,535.8108393000002,536.4109626999998,space,0.6694792999996935,None,,,,,,,,,,,,,,,,,,,,,,,,,,,P142,001,2025-04-09_09h58.21.000,posner_endo_new1,2024.2.4,60.05829257867202,2025-04-09 09h58.32.565324 +0100,
cube_r.png,0.1,0.31,valid,1,1,0,up,5.575208300000668,None,space,0.34082779999971535,None,0,1,1,10,,,,,,,,,536.4270158999998,,,,,,,,,,,,,536.4111252000002,536.4270158999998,536.4270158999998,536.4270158999998,542.0050571000002,up,5.575208300000668,None,542.0116578999996,542.0232273000001,542.0232273000001,542.0712695000002,542.0715067000001,542.0876404,542.0876404,542.0876404,542.1542,542.4382395000002,space,0.34082779999971535,None,,,,,,,,,,,,,,,,,,,,,,,,,,,P142,001,2025-04-09_09h58.21.000,posner_endo_new1,2024.2.4,60.05829257867202,2025-04-09 09h58.32.565324 +0100,
cube_l.png,0.1,0.31,invalid,2,2,0,up,14.612487999999757,None,space,0.49181380000027275,None,0,2,2,5,,,,,,,,,542.4539234000003,,,,,,,,,,,,,542.4384033999995,542.4539234000003,542.4539234000003,542.4539234000003,557.0732196999998,up,14.612487999999757,None,557.0797782,557.0919286999997,557.0919286999997,557.1391759999997,557.1394070999995,557.1557784999995,557.1557784999995,557.1557784999995,557.2221559999998,557.6560121000002,space,0.49181380000027275,None,,,,,,,,,,,,,,,,,,,,,,,,,,,P142,001,2025-04-09_09h58.21.000,posner_endo_new1,2024.2.4,60.05829257867202,2025-04-09 09h58.32.565324 +0100,
cube_l.png,0.1,0.31,invalid,3,3,0,up,8.041923199999474,None,space,0.5510585000001811,None,0,3,3,1,,,,,,,,,557.6718410000003,,,,,,,,,,,,,557.6561736000003,557.6718410000003,557.6718410000003,557.6718410000003,565.7144865999999,up,8.041923199999474,None,565.7205403999997,565.7323630000001,565.7323630000001,565.7803155000001,565.7805452000002,565.7968035000004,565.7968035000004,565.7968035000004,565.8801149999999,566.3634439999996,space,0.5510585000001811,None,,,,,,,,,,,,,,,,,,,,,,,,,,,P142,001,2025-04-09_09h58.21.000,posner_endo_new1,2024.2.4,60.05829257867202,2025-04-09 09h58.32.565324 +0100,
cube_l.png,0.1,-0.31,valid,4,4,0,up,4.454631300000074,None,space,0.4496457000004739,None,0,4,4,8,,,,,,,,,566.3794909999997,,,,,,,,,,,,,566.3636041999998,566.3794909999997,566.3794909999997,566.3794909999997,570.8426803000002,up,4.454631300000074,None,570.8488874000004,570.8607100999998,570.8607100999998,570.9083498999998,570.9085790999998,570.9250204999998,570.9250204999998,570.9250204999998,571.0084219,571.3753972000004,space,0.4496457000004739,None,,,,,,,,,,,,,,,,,,,,,,,,,,,P142,001,2025-04-09_09h58.21.000,posner_endo_new1,2024.2.4,60.05829257867202,2025-04-09 09h58.32.565324 +0100,
cube_l.png,0.1,-0.31,valid,5,5,0,up,8.55553080000027,None,space,0.34992810000039754,None,0,5,5,4,,,,,,,,,571.3911072999999,,,,,,,,,,,,,571.3755584999999,571.3911072999999,571.3911072999999,571.3911072999999,579.9495758000003,up,8.55553080000027,None,579.9556890000003,579.9672244000003,579.9672244000003,580.0157152000002,580.0159464999997,580.0322861000004,580.0322861000004,580.0322861000004,580.0988522999996,580.3829311,space,0.34992810000039754,None,,,,,,,,,,,,,,,,,,,,,,,,,,,P142,001,2025-04-09_09h58.21.000,posner_endo_new1,2024.2.4,60.05829257867202,2025-04-09 09h58.32.565324 +0100,
cube_r.png,0.1,-0.31,invalid,6,6,0,up,15.874884800000473,None,space,0.2814050999995743,None,0,6,6,6,,,,,,,,,580.3987858999999,,,,,,,,,,,,,580.3830916999996,580.3987858999999,580.3987858999999,580.3987858999999,596.2832882000002,up,15.874884800000473,None,596.2895267000004,596.3012021000004,596.3012021000004,596.3490601000003,596.3492949000001,596.3657401999999,596.3657401999999,596.3657401999999,596.4322019000001,596.6495758000001,space,0.2814050999995743,None,,,,,,,,,,,,,,,,,,,,,,,,,,,P142,001,2025-04-09_09h58.21.000,posner_endo_new1,2024.2.4,60.05829257867202,2025-04-09 09h58.32.565324 +0100,
cube_r.png,0.1,-0.31,invalid,7,7,0,up,6.497045600000092,None,space,0.4052831999997579,None,0,7,7,2,,,,,,,,,596.6652604000001,,,,,,,,,,,,,596.6497370999996,596.6652604000001,596.6652604000001,596.6652604000001,603.1762239,up,6.497045600000092,None,603.1823032000002,603.1941657999996,603.1941657999996,603.2420498000001,603.2422821999999,603.2588004999998,603.2588004999998,603.2588004999998,603.3253566000003,603.6757286000002,space,0.4052831999997579,None,,,,,,,,,,,,,,,,,,,,,,,,,,,P142,001,2025-04-09_09h58.21.000,posner_endo_new1,2024.2.4,60.05829257867202,2025-04-09 09h58.32.565324 +0100,
cube_r.png,0.1,-0.31,invalid,8,8,0,up,6.15916339999967,None,space,0.3457915999997567,None,0,8,8,9,,,,,,,,,603.6914919000001,,,,,,,,,,,,,603.6758958,603.6914919000001,603.6914919000001,603.6914919000001,609.8528313999996,up,6.15916339999967,None,609.8589498000001,609.8709176000002,609.8709176000002,609.9187647999997,609.9189964999996,609.9352074999997,609.9352074999997,609.9352074999997,610.0183968000001,610.2855989999998,space,0.3457915999997567,None,,,,,,,,,,,,,,,,,,,,,,,,,,,P142,001,2025-04-09_09h58.21.000,posner_endo_new1,2024.2.4,60.05829257867202,2025-04-09 09h58.32.565324 +0100,
cube_r.png,0.1,10,catch,9,9,0,up,6.213426100000106,None,None,,,0,9,9,3,,,,,,,,,610.3012582000001,,,,,,,,,,,,,610.2857597000002,610.3012582000001,610.3012582000001,610.3012582000001,616.5291926999998,up,6.213426100000106,None,616.5352419000001,616.5467646999996,616.5467646999996,616.5952102000001,616.5954398000003,616.6118811999995,616.6118811999995,616.6118811999995,616.6783764000002,619.6088927000001,None,,,618.6927698,619.6253174000003,619.6253174000003,619.6253174000003,,,,,,,,,,,,,,,,,,,,,,,P142,001,2025-04-09_09h58.21.000,posner_endo_new1,2024.2.4,60.05829257867202,2025-04-09 09h58.32.565324 +0100,
cube_l.png,0.1,-0.31,valid,10,10,0,up,10.537356199999522,None,space,0.42868369999996503,None,0,10,10,0,,,,,,,,,619.6253174000003,,,,,,,,,,,,,619.6090451999999,619.6253174000003,619.6253174000003,619.6253174000003,630.1653090999998,up,10.537356199999522,None,630.1713952999999,630.1831375000002,630.1831375000002,630.2310950000001,630.2313297999999,630.2477613000001,630.2477613000001,630.2477613000001,630.3144462,630.6813136000001,space,0.42868369999996503,None,,,,,,,,,,,,,,,,,,,,,,,,,,,P142,001,2025-04-09_09h58.21.000,posner_endo_new1,2024.2.4,60.05829257867202,2025-04-09 09h58.32.565324 +0100,
,,,,,,,,,,,,,,,,,,,,,,,,,,,,,,,,,,630.6814293999996,630.6972905000002,633.6977432000003,633.6780044999996,,,,,,,,,,,,,,,,,,,,,,,,,,,,,,,,,,,,,,,,,,,,,,,,P142,001,2025-04-09_09h58.21.000,posner_endo_new1,2024.2.4,60.05829257867202,2025-04-09 09h58.32.565324 +0100,
cube_l.png,0.1,10,catch,0,0,0,up,19.45675240000037,None,None,,,,,,,0,0,0,0,,,,,633.6977432000003,,,,,,,,,,,,,633.6890460000004,633.6977432000003,633.6977432000003,633.6977432000003,653.1585039000001,,,,653.1646186999997,653.1763934,653.1763934,653.2243703000004,653.2246063000002,653.2411046999996,653.2411046999996,653.2411046999996,653.3075519000004,656.2385855000002,,,,655.3223398,656.2546284,656.2546284,656.2546284,up,19.45675240000037,None,None,,,,,,,,,,,,,,,,,,,P142,001,2025-04-09_09h58.21.000,posner_endo_new1,2024.2.4,60.05829257867202,2025-04-09 09h58.32.565324 +0100,
cube_l.png,0.1,10,catch,1,1,0,up,8.740008600000692,None,None,,,,,,,0,1,1,1,,,,,656.2546284,,,,,,,,,,,,,656.2387394999996,656.2546284,656.2546284,656.2546284,664.9964619000002,,,,665.0024993999996,665.0142512000002,665.0142512000002,665.0623648000001,665.0625977,665.0788118999999,665.0788118999999,665.0788118999999,665.1620315,668.0761880999999,,,,667.1768180999998,668.0925068999995,668.0925068999995,668.0925068999995,up,8.740008600000692,None,None,,,,,,,,,,,,,,,,,,,P142,001,2025-04-09_09h58.21.000,posner_endo_new1,2024.2.4,60.05829257867202,2025-04-09 09h58.32.565324 +0100,
cube_l.png,0.1,0.31,invalid,2,2,0,up,5.901737199999843,None,space,0.4249459000002389,None,,,,,0,2,2,2,,,,,668.0925068999995,,,,,,,,,,,,,668.0763471999999,668.0925068999995,668.0925068999995,668.0925068999995,674.0039862000003,,,,674.0102054999998,674.0217272,674.0217272,674.0698755000003,674.0701055,674.0860690999998,674.0860690999998,674.0860690999998,674.1697741999997,674.5199222000001,,,,,,,,up,5.901737199999843,None,space,0.4249459000002389,None,,,,,,,,,,,,,,,,,P142,001,2025-04-09_09h58.21.000,posner_endo_new1,2024.2.4,60.05829257867202,2025-04-09 09h58.32.565324 +0100,
cube_l.png,0.1,0.31,invalid,3,3,0,up,8.403553799999827,None,space,0.5168640000001687,None,,,,,0,3,3,3,,,,,674.5359889000001,,,,,,,,,,,,,674.5201031999995,674.5359889000001,674.5359889000001,674.5359889000001,682.9447596,,,,682.9507788000001,682.9624075000002,682.9624075000002,683.0106195999997,683.0108528000001,683.0272888999998,683.0272888999998,683.0272888999998,683.0937981999996,683.5603862999997,,,,,,,,up,8.403553799999827,None,space,0.5168640000001687,None,,,,,,,,,,,,,,,,,P142,001,2025-04-09_09h58.21.000,posner_endo_new1,2024.2.4,60.05829257867202,2025-04-09 09h58.32.565324 +0100,
cube_l.png,0.1,-0.31,valid,4,4,0,up,4.865768199999366,None,space,0.4682090000005701,None,,,,,0,4,4,4,,,,,683.5765811000001,,,,,,,,,,,,,683.5605564999996,683.5765811000001,683.5765811000001,683.5765811000001,688.4551705000003,,,,688.4611352000002,688.4725457000004,688.4725457000004,688.5054502000003,688.5056709999999,688.5215764000004,688.5215764000004,688.5215764000004,688.6048977,689.0052192000003,,,,,,,,up,4.865768199999366,None,space,0.4682090000005701,None,688.5215764000004,688.5215764000004,,,,,,,,,,,,,,,P142,001,2025-04-09_09h58.21.000,posner_endo_new1,2024.2.4,60.05829257867202,2025-04-09 09h58.32.565324 +0100,
cube_r.png,0.1,-0.31,invalid,5,5,0,up,6.621212000000014,None,space,0.3402399999995396,None,,,,,0,5,5,5,,,,,689.0210469000003,,,,,,,,,,,,,689.0053914999999,689.0210469000003,689.0210469000003,689.0210469000003,695.6478708000004,,,,695.6539118000001,695.6654798,695.6654798,695.7143931,695.7146243999996,695.7308399000003,695.7308399000003,695.7308399000003,695.7975645999995,696.0813931000002,,,,,,,,up,6.621212000000014,None,space,0.3402399999995396,None,,,,,,,,,,,,,,,,,P142,001,2025-04-09_09h58.21.000,posner_endo_new1,2024.2.4,60.05829257867202,2025-04-09 09h58.32.565324 +0100,
cube_r.png,0.1,0.31,valid,6,6,0,up,5.041406700000152,None,space,0.43431539999983215,None,,,,,0,6,6,6,,,,,696.0973100000001,,,,,,,,,,,,,696.0815633000002,696.0973100000001,696.0973100000001,696.0973100000001,701.1429411999998,,,,701.1490205999999,701.1606570000004,701.1606570000004,701.2086249000004,701.2088573000001,701.2251577999996,701.2251577999996,701.2251577999996,701.3084502000002,701.6755647999998,,,,,,,,up,5.041406700000152,None,space,0.43431539999983215,None,,,,,,,,,,,,,,,,,P142,001,2025-04-09_09h58.21.000,posner_endo_new1,2024.2.4,60.05829257867202,2025-04-09 09h58.32.565324 +0100,
cube_r.png,0.1,-0.31,invalid,7,7,0,up,5.247254900000371,None,space,0.3303654999999708,None,,,,,0,7,7,7,,,,,701.6913666,,,,,,,,,,,,,701.6757385000001,701.6913666,701.6913666,701.6913666,706.9534185000002,,,,706.9595098999998,706.9711596999996,706.9711596999996,707.0192866999996,707.0195175999997,707.0359986000003,707.0359986000003,707.0359986000003,707.1025338999998,707.3699172999995,,,,,,,,up,5.247254900000371,None,space,0.3303654999999708,None,,,,,,,,,,,,,,,,,P142,001,2025-04-09_09h58.21.000,posner_endo_new1,2024.2.4,60.05829257867202,2025-04-09 09h58.32.565324 +0100,
cube_l.png,0.1,-0.31,valid,8,8,0,up,6.1782468999999764,None,space,0.39089770000009594,None,,,,,0,8,8,8,,,,,707.3857436999997,,,,,,,,,,,,,707.3700908999999,707.3857436999997,707.3857436999997,707.3857436999997,713.5800148999997,,,,713.5861520999997,713.5979277999995,713.5979277999995,713.6460582999998,713.6462941999998,713.6628049999999,713.6628049999999,713.6628049999999,713.7293553999998,714.0627779999995,,,,,,,,up,6.1782468999999764,None,space,0.39089770000009594,None,,,,,,,,,,,,,,,,,P142,001,2025-04-09_09h58.21.000,posner_endo_new1,2024.2.4,60.05829257867202,2025-04-09 09h58.32.565324 +0100,
cube_r.png,0.1,-0.31,invalid,9,9,0,up,6.715305600000647,None,space,0.3414487999998528,None,,,,,0,9,9,9,,,,,714.0790229000004,,,,,,,,,,,,,714.0629510999997,714.0790229000004,714.0790229000004,714.0790229000004,720.8060425000003,,,,720.8122239000004,720.8239176999996,720.8239176999996,720.8720071999996,720.8722355999998,720.8885882000004,720.8885882000004,720.8885882000004,720.955121,721.2389335999997,,,,,,,,up,6.715305600000647,None,space,0.3414487999998528,None,,,,,,,,,,,,,,,,,P142,001,2025-04-09_09h58.21.000,posner_endo_new1,2024.2.4,60.05829257867202,2025-04-09 09h58.32.565324 +0100,
cube_l.png,0.1,0.31,invalid,10,10,0,up,6.5161355999998705,None,space,0.3188746000005267,None,,,,,0,10,10,10,,,,,721.2548076000003,,,,,,,,,,,,,721.2391036999998,721.2548076000003,721.2548076000003,721.2548076000003,727.7822072999998,,,,727.7882897999998,727.7999112999996,727.7999112999996,727.8481730000003,727.8484048999999,727.8647275000003,727.8647275000003,727.8647275000003,727.9314183999995,728.1983686000003,,,,,,,,up,6.5161355999998705,None,space,0.3188746000005267,None,,,,,,,,,,,,,,,,,P142,001,2025-04-09_09h58.21.000,posner_endo_new1,2024.2.4,60.05829257867202,2025-04-09 09h58.32.565324 +0100,
cube_r.png,0.1,-0.31,invalid,11,11,0,up,5.923825699999725,None,space,0.4084437000001344,None,,,,,0,11,11,11,,,,,728.2143784,,,,,,,,,,,,,728.198539,728.2143784,728.2143784,728.2143784,734.1424938999999,,,,734.1486044000003,734.1601461,734.1601461,734.2086343000001,734.2088639000003,734.2249931999995,734.2249931999995,734.2249931999995,734.2916382000003,734.6418554000002,,,,,,,,up,5.923825699999725,None,space,0.4084437000001344,None,,,,,,,,,,,,,,,,,P142,001,2025-04-09_09h58.21.000,posner_endo_new1,2024.2.4,60.05829257867202,2025-04-09 09h58.32.565324 +0100,
cube_r.png,0.1,0.31,valid,12,12,0,up,6.864502499999617,None,space,0.45304979999946227,None,,,,,0,12,12,12,,,,,734.6577973000003,,,,,,,,,,,,,734.6420250000001,734.6577973000003,734.6577973000003,734.6577973000003,741.5349723999998,,,,741.5410512999997,741.5527924999997,741.5527924999997,741.6009710999997,741.6012021999995,741.6174270000001,741.6174270000001,741.6174270000001,741.7001569000004,742.0842743000003,,,,,,,,up,6.864502499999617,None,space,0.45304979999946227,None,,,,,,,,,,,,,,,,,P142,001,2025-04-09_09h58.21.000,posner_endo_new1,2024.2.4,60.05829257867202,2025-04-09 09h58.32.565324 +0100,
cube_l.png,0.1,10,catch,13,13,0,up,11.014256399999795,None,None,,,,,,,0,13,13,13,,,,,742.1002097,,,,,,,,,,,,,742.0844447,742.1002097,742.1002097,742.1002097,753.1230777000001,,,,753.1292131999999,753.1408992999995,753.1408992999995,753.1889887999996,753.1892207999999,753.2057450000002,753.2057450000002,753.2057450000002,753.2720716000003,756.2030345000003,,,,755.2868105999996,756.2191507999996,756.2191507999996,756.2191507999996,up,11.014256399999795,None,None,,,,,,,,,,,,,,,,,,,P142,001,2025-04-09_09h58.21.000,posner_endo_new1,2024.2.4,60.05829257867202,2025-04-09 09h58.32.565324 +0100,
cube_r.png,0.1,-0.31,invalid,14,14,0,up,11.104435399999602,None,space,0.4684890999997151,None,,,,,0,14,14,14,,,,,756.2191507999996,,,,,,,,,,,,,756.2032098999998,756.2191507999996,756.2191507999996,756.2191507999996,767.3253986999998,,,,767.3317237000001,767.3436174999997,767.3436174999997,767.3906225000001,767.3908547999999,767.4079789999996,767.4079789999996,767.4079789999996,767.4910201000002,767.8907443999997,,,,,,,,up,11.104435399999602,None,space,0.4684890999997151,None,,,,,,,,,,,,,,,,,P142,001,2025-04-09_09h58.21.000,posner_endo_new1,2024.2.4,60.05829257867202,2025-04-09 09h58.32.565324 +0100,
cube_l.png,0.1,-0.31,valid,15,15,0,up,13.295721599999524,None,space,0.5939664999996239,None,,,,,0,15,15,15,,,,,767.9072280999999,,,,,,,,,,,,,767.8909144999998,767.9072280999999,767.9072280999999,767.9072280999999,781.2111377000001,,,,781.2174378999998,781.229319,781.229319,781.2771814999996,781.2774126000004,781.2934519999999,781.2934519999999,781.2934519999999,781.3601822999999,781.8937892000004,,,,,,,,up,13.295721599999524,None,space,0.5939664999996239,None,,,,,,,,,,,,,,,,,P142,001,2025-04-09_09h58.21.000,posner_endo_new1,2024.2.4,60.05829257867202,2025-04-09 09h58.32.565324 +0100,
cube_r.png,0.1,10,catch,16,16,0,up,11.932833299999402,None,None,,,,,,,0,16,16,16,,,,,781.9096344,,,,,,,,,,,,,781.8939575000004,781.9096344,781.9096344,781.9096344,793.8481511999998,,,,793.8543225000003,793.8663083000001,793.8663083000001,793.9140580000003,793.9142885000001,793.9307514000002,793.9307514000002,793.9307514000002,793.9973892999997,796.9281186999997,,,,796.0117649000003,796.9442153,796.9442153,796.9442153,up,11.932833299999402,None,None,,,,,,,,,,,,,,,,,,,P142,001,2025-04-09_09h58.21.000,posner_endo_new1,2024.2.4,60.05829257867202,2025-04-09 09h58.32.565324 +0100,
cube_r.png,0.1,10,catch,17,17,0,up,18.514906899999914,None,None,,,,,,,0,17,17,17,,,,,796.9442153,,,,,,,,,,,,,796.9282766999995,796.9442153,796.9442153,796.9442153,815.4760649,,,,815.4821124999999,815.4934350000003,815.4934350000003,815.5416840999997,815.5419165000003,815.5585033999996,815.5585033999996,815.5585033999996,815.6417871000003,818.5559586999998,,,,817.6563991000003,818.5723637000001,818.5723637000001,818.5723637000001,up,18.514906899999914,None,None,,,,,,,,,,,,,,,,,,,P142,001,2025-04-09_09h58.21.000,posner_endo_new1,2024.2.4,60.05829257867202,2025-04-09 09h58.32.565324 +0100,
cube_l.png,0.1,0.31,invalid,18,18,0,up,10.582196600000316,None,space,0.4394348000005266,None,,,,,0,18,18,18,,,,,818.5723637000001,,,,,,,,,,,,,818.5561174000004,818.5723637000001,818.5723637000001,818.5723637000001,829.1621316000001,,,,829.1681107000004,829.1797347000002,829.1797347000002,829.2279851000003,829.2282157999998,829.2446129999998,829.2446129999998,829.2446129999998,829.3110254000003,829.6949738000003,,,,,,,,up,10.582196600000316,None,space,0.4394348000005266,None,,,,,,,,,,,,,,,,,P142,001,2025-04-09_09h58.21.000,posner_endo_new1,2024.2.4,60.05829257867202,2025-04-09 09h58.32.565324 +0100,
cube_l.png,0.1,10,catch,19,19,0,up,15.035724700000173,None,None,,,,,,,0,19,19,19,,,,,829.7106992999998,,,,,,,,,,,,,829.6951452000003,829.7106992999998,829.7106992999998,829.7106992999998,844.7630699000001,,,,844.7691212,844.7809995999996,844.7809995999996,844.8288077999996,844.8290386999997,844.8454275000004,844.8454275000004,844.8454275000004,844.9286786000002,847.8427247,,,,846.9431588999996,847.8588269000002,847.8588269000002,847.8588269000002,up,15.035724700000173,None,None,,,,,,,,,,,,,,,,,,,P142,001,2025-04-09_09h58.21.000,posner_endo_new1,2024.2.4,60.05829257867202,2025-04-09 09h58.32.565324 +0100,
cube_l.png,0.1,0.31,invalid,20,20,0,up,10.752179299999625,None,space,0.6392562999999427,None,,,,,0,20,20,20,,,,,847.8588269000002,,,,,,,,,,,,,847.8428827999996,847.8588269000002,847.8588269000002,847.8588269000002,858.6154601999997,,,,858.6214370999996,858.6330994,858.6330994,858.6814966000002,858.6817276000002,858.6978767999999,858.6978767999999,858.6978767999999,858.7810372000004,859.3478924000001,,,,,,,,up,10.752179299999625,None,space,0.6392562999999427,None,,,,,,,,,,,,,,,,,P142,001,2025-04-09_09h58.21.000,posner_endo_new1,2024.2.4,60.05829257867202,2025-04-09 09h58.32.565324 +0100,
cube_l.png,0.1,-0.31,valid,21,21,0,up,6.1991683999995075,None,space,0.5442075000000841,None,,,,,0,21,21,21,,,,,859.3640036999996,,,,,,,,,,,,,859.3480723000002,859.3640036999996,859.3640036999996,859.3640036999996,865.5748553000003,,,,865.5810381000001,865.5928130000002,865.5928130000002,865.6408039999997,865.6410341999999,865.6575591999999,865.6575591999999,865.6575591999999,865.7241462000002,866.2077873999997,,,,,,,,up,6.1991683999995075,None,space,0.5442075000000841,None,,,,,,,,,,,,,,,,,P142,001,2025-04-09_09h58.21.000,posner_endo_new1,2024.2.4,60.05829257867202,2025-04-09 09h58.32.565324 +0100,
cube_r.png,0.1,0.31,valid,22,22,0,up,15.19649870000012,None,space,0.3735148999994635,None,,,,,0,22,22,22,,,,,866.2233900000001,,,,,,,,,,,,,866.2079653000001,866.2233900000001,866.2233900000001,866.2233900000001,881.4248882000002,,,,881.4308742000003,881.4425392000003,881.4425392000003,881.4912482999998,881.4914800999995,881.5078242,881.5078242,881.5078242,881.5744710999998,881.8911412999996,,,,,,,,up,15.19649870000012,None,space,0.3735148999994635,None,,,,,,,,,,,,,,,,,P142,001,2025-04-09_09h58.21.000,posner_endo_new1,2024.2.4,60.05829257867202,2025-04-09 09h58.32.565324 +0100,
cube_r.png,0.1,-0.31,invalid,23,23,0,up,9.455349199999546,None,space,0.44867559999966034,None,,,,,0,23,23,23,,,,,881.9074516000001,,,,,,,,,,,,,881.8913151999996,881.9074516000001,881.9074516000001,881.9074516000001,891.3650969999999,,,,891.3710707,891.3826909,891.3826909,891.4313085000003,891.4315393999996,891.4478526000003,891.4478526000003,891.4478526000003,891.5143906000003,891.8981587999997,,,,,,,,up,9.455349199999546,None,space,0.44867559999966034,None,,,,,,,,,,,,,,,,,P142,001,2025-04-09_09h58.21.000,posner_endo_new1,2024.2.4,60.05829257867202,2025-04-09 09h58.32.565324 +0100,
cube_r.png,0.1,0.31,valid,24,24,0,up,27.809255199999825,None,space,0.3890670000000682,None,,,,,0,24,24,24,,,,,891.9139081000003,,,,,,,,,,,,,891.8983288,891.9139081000003,891.9139081000003,891.9139081000003,919.7362896000004,,,,919.7423202,919.7539998000002,919.7539998000002,919.8021306,919.8023638000004,919.8187009000003,919.8187009000003,919.8187009000003,919.9018968999999,920.2189986000003,,,,,,,,up,27.809255199999825,None,space,0.3890670000000682,None,,,,,,,,,,,,,,,,,P142,001,2025-04-09_09h58.21.000,posner_endo_new1,2024.2.4,60.05829257867202,2025-04-09 09h58.32.565324 +0100,
cube_r.png,0.1,-0.31,invalid,25,25,0,up,9.263993599999594,None,space,0.4494217999999819,None,,,,,0,25,25,25,,,,,920.2350766999998,,,,,,,,,,,,,920.2191703999997,920.2350766999998,920.2350766999998,920.2350766999998,929.5097126000001,,,,929.5158099,929.5274243000003,929.5274243000003,929.5755262000002,929.5757603000002,929.5922795999995,929.5922795999995,929.5922795999995,929.6755389999998,930.0426091999998,,,,,,,,up,9.263993599999594,None,space,0.4494217999999819,None,,,,,,,,,,,,,,,,,P142,001,2025-04-09_09h58.21.000,posner_endo_new1,2024.2.4,60.05829257867202,2025-04-09 09h58.32.565324 +0100,
cube_l.png,0.1,-0.31,valid,26,26,0,up,8.409105800000361,None,space,0.5002106000001731,None,,,,,0,26,26,26,,,,,930.0580926000002,,,,,,,,,,,,,930.0427835999999,930.0580926000002,930.0580926000002,930.0580926000002,938.4839114999995,,,,938.4899644999996,938.5014906999995,938.5014906999995,938.5496493999999,938.5498803,938.5664060999998,938.5664060999998,938.5664060999998,938.6496993000001,939.0829308000002,,,,,,,,up,8.409105800000361,None,space,0.5002106000001731,None,,,,,,,,,,,,,,,,,P142,001,2025-04-09_09h58.21.000,posner_endo_new1,2024.2.4,60.05829257867202,2025-04-09 09h58.32.565324 +0100,
cube_r.png,0.1,0.31,valid,27,27,0,up,7.136191399999916,None,space,0.4362727999996423,None,,,,,0,27,27,27,,,,,939.0990720999998,,,,,,,,,,,,,939.0831028000002,939.0990720999998,939.0990720999998,939.0990720999998,946.2424508000004,,,,946.2484709999999,946.2600638000004,946.2600638000004,946.3084564000001,946.3086866000003,946.3251059000004,946.3251059000004,946.3251059000004,946.3917155999998,946.7754079999995,,,,,,,,up,7.136191399999916,None,space,0.4362727999996423,None,,,,,,,,,,,,,,,,,P142,001,2025-04-09_09h58.21.000,posner_endo_new1,2024.2.4,60.05829257867202,2025-04-09 09h58.32.565324 +0100,
cube_r.png,0.1,10,catch,28,28,0,up,6.891513800000212,None,None,,,,,,,0,28,28,28,,,,,946.7914008999996,,,,,,,,,,,,,946.7755790000001,946.7914008999996,946.7914008999996,946.7914008999996,953.6849645000002,,,,953.6910626999997,953.7028579999997,953.7028579999997,953.7509984999997,953.7512311,953.7675811999998,953.7675811999998,953.7675811999998,953.8339764000002,956.7647821,,,,955.8486589000004,956.7811966999998,956.7811966999998,956.7811966999998,up,6.891513800000212,None,None,,,,,,,,,,,,,,,,,,,P142,001,2025-04-09_09h58.21.000,posner_endo_new1,2024.2.4,60.05829257867202,2025-04-09 09h58.32.565324 +0100,
cube_r.png,0.1,0.31,valid,29,29,0,up,3.0621625000003405,None,space,0.37808980000045267,None,,,,,0,29,29,29,,,,,956.7811966999998,,,,,,,,,,,,,956.7649442000002,956.7811966999998,956.7811966999998,956.7811966999998,959.8455772999996,,,,959.8515672000003,959.8634026,959.8634026,959.9112925,959.9115276000002,959.9277628,959.9277628,959.9277628,960.0109441000004,960.3116798000001,,,,,,,,up,3.0621625000003405,None,space,0.37808980000045267,None,,,,,,,,,,,,,,,,,P142,001,2025-04-09_09h58.21.000,posner_endo_new1,2024.2.4,60.05829257867202,2025-04-09 09h58.32.565324 +0100,
cube_r.png,0.1,0.31,valid,30,30,0,up,6.460036299999956,None,space,0.4116834000005838,None,,,,,0,30,30,30,,,,,960.3274890000002,,,,,,,,,,,,,960.3118501999998,960.3274890000002,960.3274890000002,960.3274890000002,966.7882381,,,,966.7942213999995,966.8058204999998,966.8058204999998,966.8544012000002,966.8546444000003,966.8706802999995,966.8706802999995,966.8706802999995,966.9539170999997,967.2879953000001,,,,,,,,up,6.460036299999956,None,space,0.4116834000005838,None,,,,,,,,,,,,,,,,,P142,001,2025-04-09_09h58.21.000,posner_endo_new1,2024.2.4,60.05829257867202,2025-04-09 09h58.32.565324 +0100,
cube_l.png,0.1,-0.31,valid,31,31,0,up,13.16285489999973,None,space,0.4417142000002059,None,,,,,0,31,31,31,,,,,967.3036314999999,,,,,,,,,,,,,967.2881663999997,967.3036314999999,967.3036314999999,967.3036314999999,980.4742649999998,,,,980.4803969000004,980.4923198999995,980.4923198999995,980.5402590000003,980.5404932000001,980.5569083999999,980.5569083999999,980.5569083999999,980.6233233000003,981.0071282999997,,,,,,,,up,13.16285489999973,None,space,0.4417142000002059,None,,,,,,,,,,,,,,,,,P142,001,2025-04-09_09h58.21.000,posner_endo_new1,2024.2.4,60.05829257867202,2025-04-09 09h58.32.565324 +0100,
cube_r.png,0.1,0.31,valid,32,32,0,up,16.428582400000778,None,space,0.4715966000003391,None,,,,,0,32,32,32,,,,,981.0228706999997,,,,,,,,,,,,,981.0073040999996,981.0228706999997,981.0228706999997,981.0228706999997,997.4569627999999,,,,997.4630667000001,997.4746856000002,997.4746856000002,997.5224749999998,997.5227052999999,997.5393898000002,997.5393898000002,997.5393898000002,997.6226112000004,998.0230599999995,,,,,,,,up,16.428582400000778,None,space,0.4715966000003391,None,,,,,,,,,,,,,,,,,P142,001,2025-04-09_09h58.21.000,posner_endo_new1,2024.2.4,60.05829257867202,2025-04-09 09h58.32.565324 +0100,
cube_r.png,0.1,-0.31,invalid,33,33,0,up,6.716444300000148,None,space,0.5402558999994653,None,,,,,0,33,33,33,,,,,998.0386490000001,,,,,,,,,,,,,998.0232343999996,998.0386490000001,998.0386490000001,998.0386490000001,1004.7658462999998,,,,1004.7718556999998,1004.7833041000004,1004.7833041000004,1004.8321291000002,1004.8323600000003,1004.8486322999997,1004.8486322999997,1004.8486322999997,1004.9151645000002,1005.3984841000001,,,,,,,,up,6.716444300000148,None,space,0.5402558999994653,None,,,,,,,,,,,,,,,,,P142,001,2025-04-09_09h58.21.000,posner_endo_new1,2024.2.4,60.05829257867202,2025-04-09 09h58.32.565324 +0100,
cube_r.png,0.1,10,catch,34,34,0,up,6.748148099999526,None,None,,,,,,,0,34,34,34,,,,,1005.4145903999997,,,,,,,,,,,,,1005.3986536000002,1005.4145903999997,1005.4145903999997,1005.4145903999997,1012.1752503999996,,,,1012.1813141000002,1012.1930075999999,1012.1930075999999,1012.2411285999997,1012.2413586000002,1012.2573031000002,1012.2573031000002,1012.2573031000002,1012.3407203999996,1015.2552882,,,,1014.3555167000004,1015.2713946000003,1015.2713946000003,1015.2713946000003,up,6.748148099999526,None,None,,,,,,,,,,,,,,,,,,,P142,001,2025-04-09_09h58.21.000,posner_endo_new1,2024.2.4,60.05829257867202,2025-04-09 09h58.32.565324 +0100,
cube_r.png,0.1,0.31,valid,35,35,0,up,9.37151569999969,None,space,0.3619797000001199,None,,,,,0,35,35,35,,,,,1015.2713946000003,,,,,,,,,,,,,1015.2554448000001,1015.2713946000003,1015.2713946000003,1015.2713946000003,1024.645504,,,,1024.6515226000001,1024.6629094999998,1024.6629094999998,1024.7116705999997,1024.7119019000002,1024.7282822999996,1024.7282822999996,1024.7282822999996,1024.7948949000001,1025.0952803,,,,,,,,up,9.37151569999969,None,space,0.3619797000001199,None,,,,,,,,,,,,,,,,,P142,001,2025-04-09_09h58.21.000,posner_endo_new1,2024.2.4,60.05829257867202,2025-04-09 09h58.32.565324 +0100,
cube_r.png,0.1,-0.31,invalid,36,36,0,up,11.508005499999854,None,space,0.4065835999999763,None,,,,,0,36,36,36,,,,,1025.1111533000003,,,,,,,,,,,,,1025.0954539000004,1025.1111533000003,1025.1111533000003,1025.1111533000003,1036.6335276999998,,,,1036.6395537999997,1036.6511778000004,1036.6511778000004,1036.6996780999998,1036.6999214999996,1036.7162578999996,1036.7162578999996,1036.7162578999996,1036.7825553000002,1037.1328517000002,,,,,,,,up,11.508005499999854,None,space,0.4065835999999763,None,,,,,,,,,,,,,,,,,P142,001,2025-04-09_09h58.21.000,posner_endo_new1,2024.2.4,60.05829257867202,2025-04-09 09h58.32.565324 +0100,
cube_l.png,0.1,0.31,invalid,37,37,0,up,10.894636699999865,None,space,0.42000350000034814,None,,,,,0,37,37,37,,,,,1037.1490117000003,,,,,,,,,,,,,1037.1330294999998,1037.1490117000003,1037.1490117000003,1037.1490117000003,1048.0552427000002,,,,1048.0613583000004,1048.0732411,1048.0732411,1048.1213415000002,1048.1215745,1048.1378046999998,1048.1378046999998,1048.1378046999998,1048.2041367000002,1048.5715631000003,,,,,,,,up,10.894636699999865,None,space,0.42000350000034814,None,,,,,,,,,,,,,,,,,P142,001,2025-04-09_09h58.21.000,posner_endo_new1,2024.2.4,60.05829257867202,2025-04-09 09h58.32.565324 +0100,
cube_l.png,0.1,0.31,invalid,38,38,0,up,12.77584189999925,None,space,0.47029639999982464,None,,,,,0,38,38,38,,,,,1048.5873777999996,,,,,,,,,,,,,1048.5717348999997,1048.5873777999996,1048.5873777999996,1048.5873777999996,1061.3749437999995,,,,1061.3809663000002,1061.3927586999998,1061.3927586999998,1061.4409696000002,1061.4411995,1061.4575893,1061.4575893,1061.4575893,1061.5239867,1061.9410346000004,,,,,,,,up,12.77584189999925,None,space,0.47029639999982464,None,,,,,,,,,,,,,,,,,P142,001,2025-04-09_09h58.21.000,posner_endo_new1,2024.2.4,60.05829257867202,2025-04-09 09h58.32.565324 +0100,
cube_r.png,0.1,0.31,valid,39,39,0,up,7.6872165000004316,None,space,0.4325418999997055,None,,,,,0,39,39,39,,,,,1061.9570801999998,,,,,,,,,,,,,1061.9412122000003,1061.9570801999998,1061.9570801999998,1061.9570801999998,1069.6499217,,,,1069.6559175000002,1069.6675490999996,1069.6675490999996,1069.7158675,1069.7160977000003,1069.7324170000002,1069.7324170000002,1069.7324170000002,1069.8157671999998,1070.1661826999998,,,,,,,,up,7.6872165000004316,None,space,0.4325418999997055,None,,,,,,,,,,,,,,,,,P142,001,2025-04-09_09h58.21.000,posner_endo_new1,2024.2.4,60.05829257867202,2025-04-09 09h58.32.565324 +0100,
cube_l.png,0.1,0.31,invalid,40,40,0,up,13.285084399999505,None,space,0.4456973999995171,None,,,,,0,40,40,40,,,,,1070.1821221,,,,,,,,,,,,,1070.1663515999999,1070.1821221,1070.1821221,1070.1821221,1083.4693737999996,,,,1083.4754387000003,1083.4871352,1083.4871352,1083.5349085999997,1083.5351397000004,1083.5516936000004,1083.5516936000004,1083.5516936000004,1083.6350684,1084.0020488,,,,,,,,up,13.285084399999505,None,space,0.4456973999995171,None,,,,,,,,,,,,,,,,,P142,001,2025-04-09_09h58.21.000,posner_endo_new1,2024.2.4,60.05829257867202,2025-04-09 09h58.32.565324 +0100,
cube_l.png,0.1,10,catch,41,41,0,up,17.36129439999968,None,None,,,,,,,0,41,41,41,,,,,1084.0179564,,,,,,,,,,,,,1084.0022169000003,1084.0179564,1084.0179564,1084.0179564,1101.384075,,,,1101.3900866000004,1101.4017715999998,1101.4017715999998,1101.4501707,1101.4504071000001,1101.4665504000004,1101.4665504000004,1101.4665504000004,1101.5498707999996,1104.4640750999997,,,,1103.5645034,1104.4802608999998,1104.4802608999998,1104.4802608999998,up,17.36129439999968,None,None,,,,,,,,,,,,,,,,,,,P142,001,2025-04-09_09h58.21.000,posner_endo_new1,2024.2.4,60.05829257867202,2025-04-09 09h58.32.565324 +0100,
cube_l.png,0.1,-0.31,valid,42,42,0,up,9.404427299999952,None,space,0.46326890000000276,None,,,,,0,42,42,42,,,,,1104.4802608999998,,,,,,,,,,,,,1104.464234,1104.4802608999998,1104.4802608999998,1104.4802608999998,1113.8885265,,,,1113.8974752000004,1113.9073798999998,1113.9073798999998,1113.9541424,1113.9544022,1113.9705946000004,1113.9705946000004,1113.9705946000004,1114.0538697000002,1114.4378239999996,,,,,,,,up,9.404427299999952,None,space,0.46326890000000276,None,,,,,,,,,,,,,,,,,P142,001,2025-04-09_09h58.21.000,posner_endo_new1,2024.2.4,60.05829257867202,2025-04-09 09h58.32.565324 +0100,
cube_l.png,0.1,10,catch,43,43,0,up,10.350755800000115,None,None,,,,,,,0,43,43,43,,,,,1114.452937,,,,,,,,,,,,,1114.4380199999996,1114.452937,1114.452937,1114.452937,1124.8100385999996,,,,1124.8173993999999,1124.8291932000002,1124.8291932000002,1124.8763522,1124.8766075000003,1124.8929001999995,1124.8929001999995,1124.8929001999995,1124.9588747999996,1127.8901732000004,,,,1126.9736845999996,1127.9062818000002,1127.9062818000002,1127.9062818000002,up,10.350755800000115,None,None,,,,,,,,,,,,,,,,,,,P142,001,2025-04-09_09h58.21.000,posner_endo_new1,2024.2.4,60.05829257867202,2025-04-09 09h58.32.565324 +0100,
cube_l.png,0.1,0.31,invalid,44,44,0,up,7.816802800000005,None,space,0.4697348999998212,None,,,,,0,44,44,44,,,,,1127.9062818000002,,,,,,,,,,,,,1127.8903542999997,1127.9062818000002,1127.9062818000002,1127.9062818000002,1135.7324632,,,,1135.7398518999998,1135.7510017000004,1135.7510017000004,1135.7983416999996,1135.7986002999996,1135.8149372999997,1135.8149372999997,1135.8149372999997,1135.8814136,1136.2982550999996,,,,,,,,up,7.816802800000005,None,space,0.4697348999998212,None,,,,,,,,,,,,,,,,,P142,001,2025-04-09_09h58.21.000,posner_endo_new1,2024.2.4,60.05829257867202,2025-04-09 09h58.32.565324 +0100,
cube_l.png,0.1,0.31,invalid,45,45,0,up,20.9773780000005,None,space,0.4855485999996745,None,,,,,0,45,45,45,,,,,1136.3144444,,,,,,,,,,,,,1136.2984563999998,1136.3144444,1136.3144444,1136.3144444,1157.2937228,,,,1157.3010910000003,1157.3125948999996,1157.3125948999996,1157.3595388000003,1157.3597975000002,1157.3760853000003,1157.3760853000003,1157.3760853000003,1157.4426672,1157.8764117,,,,,,,,up,20.9773780000005,None,space,0.4855485999996745,None,,,,,,,,,,,,,,,,,P142,001,2025-04-09_09h58.21.000,posner_endo_new1,2024.2.4,60.05829257867202,2025-04-09 09h58.32.565324 +0100,
cube_r.png,0.1,0.31,valid,46,46,0,up,7.886747999999898,None,space,0.5215177999998559,None,,,,,0,46,46,46,,,,,1157.8922913999995,,,,,,,,,,,,,1157.8766032000003,1157.8922913999995,1157.8922913999995,1157.8922913999995,1165.7854767,,,,1165.7960032,1165.8054554,1165.8054554,1165.8507559,1165.8510011999997,1165.8675051,1165.8675051,1165.8675051,1165.9504439000002,1166.4012340999998,,,,,,,,up,7.886747999999898,None,space,0.5215177999998559,None,,,,,,,,,,,,,,,,,P142,001,2025-04-09_09h58.21.000,posner_endo_new1,2024.2.4,60.05829257867202,2025-04-09 09h58.32.565324 +0100,
cube_l.png,0.1,-0.31,valid,47,47,0,up,7.0509179999999105,None,space,0.46409549999953015,None,,,,,0,47,47,47,,,,,1166.416639,,,,,,,,,,,,,1166.4014180000004,1166.416639,1166.416639,1166.416639,1173.4770792999998,,,,1173.4840692999996,1173.4958864999999,1173.4958864999999,1173.5432320999998,1173.5434822999996,1173.5598105,1173.5598105,1173.5598105,1173.6264994000003,1174.0266112999998,,,,,,,,up,7.0509179999999105,None,space,0.46409549999953015,None,,,,,,,,,,,,,,,,,P142,001,2025-04-09_09h58.21.000,posner_endo_new1,2024.2.4,60.05829257867202,2025-04-09 09h58.32.565324 +0100,
cube_r.png,0.1,-0.31,invalid,48,48,0,up,6.184430199999952,None,space,0.4302176999999574,None,,,,,0,48,48,48,,,,,1174.0426121,,,,,,,,,,,,,1174.0268005999997,1174.0426121,1174.0426121,1174.0426121,1180.2369689999996,,,,1180.2439545999996,1180.2559037,1180.2559037,1180.3028961,1180.3031284999997,1180.3193319000002,1180.3193319000002,1180.3193319000002,1180.402712,1180.7531001999996,,,,,,,,up,6.184430199999952,None,space,0.4302176999999574,None,,,,,,,,,,,,,,,,,P142,001,2025-04-09_09h58.21.000,posner_endo_new1,2024.2.4,60.05829257867202,2025-04-09 09h58.32.565324 +0100,
cube_r.png,0.1,10,catch,49,49,0,up,6.114503599999807,None,None,,,,,,,0,49,49,49,,,,,1180.7690589000003,,,,,,,,,,,,,1180.7532683999998,1180.7690589000003,1180.7690589000003,1180.7690589000003,1186.8967259,,,,1186.9028529999996,1186.9144924000002,1186.9144924000002,1186.9626423999998,1186.9628738000001,1186.9791677000003,1186.9791677000003,1186.9791677000003,1187.0458965999997,1189.9768070999999,,,,1189.0605078999997,1189.9927526000001,1189.9927526000001,1189.9927526000001,up,6.114503599999807,None,None,,,,,,,,,,,,,,,,,,,P142,001,2025-04-09_09h58.21.000,posner_endo_new1,2024.2.4,60.05829257867202,2025-04-09 09h58.32.565324 +0100,
cube_l.png,0.1,-0.31,valid,50,50,0,up,1.6032679999998436,None,space,0.39598750000004657,None,,,,,0,50,50,50,,,,,1189.9927526000001,,,,,,,,,,,,,1189.9769669999996,1189.9927526000001,1189.9927526000001,1189.9927526000001,1191.6088086999998,,,,1191.6148176999995,1191.6263933999999,1191.6263933999999,1191.6745293000004,1191.6747591000003,1191.6911312000002,1191.6911312000002,1191.6911312000002,1191.7577918999996,1192.0916207999999,,,,,,,,up,1.6032679999998436,None,space,0.39598750000004657,None,,,,,,,,,,,,,,,,,P142,001,2025-04-09_09h58.21.000,posner_endo_new1,2024.2.4,60.05829257867202,2025-04-09 09h58.32.565324 +0100,
cube_l.png,0.1,-0.31,valid,51,51,0,up,13.080033600000206,None,space,0.44189490000007936,None,,,,,0,51,51,51,,,,,1192.1076506,,,,,,,,,,,,,1192.0917966999996,1192.1076506,1192.1076506,1192.1076506,1205.1946377000004,,,,1205.2008107000001,1205.2124543999998,1205.2124543999998,1205.2606366999998,1205.2608714999997,1205.2774298000004,1205.2774298000004,1205.2774298000004,1205.3441065999996,1205.7276300000003,,,,,,,,up,13.080033600000206,None,space,0.44189490000007936,None,,,,,,,,,,,,,,,,,P142,001,2025-04-09_09h58.21.000,posner_endo_new1,2024.2.4,60.05829257867202,2025-04-09 09h58.32.565324 +0100,
cube_r.png,0.1,-0.31,invalid,52,52,0,up,16.420831699999326,None,space,0.4070761999992101,None,,,,,0,52,52,52,,,,,1205.7430893,,,,,,,,,,,,,1205.7277997,1205.7430893,1205.7430893,1205.7430893,1222.1775451000003,,,,1222.1835454000002,1222.1952631000004,1222.1952631000004,1222.243332,1222.2435628000003,1222.2597679,1222.2597679,1222.2597679,1222.3264702999995,1222.6769026000002,,,,,,,,up,16.420831699999326,None,space,0.4070761999992101,None,,,,,,,,,,,,,,,,,P142,001,2025-04-09_09h58.21.000,posner_endo_new1,2024.2.4,60.05829257867202,2025-04-09 09h58.32.565324 +0100,
cube_l.png,0.1,-0.31,valid,53,53,0,up,7.590803299999607,None,space,0.45884680000017397,None,,,,,0,53,53,53,,,,,1222.6927519,,,,,,,,,,,,,1222.6770763000004,1222.6927519,1222.6927519,1222.6927519,1230.2859359000004,,,,1230.2919952000002,1230.303672,1230.303672,1230.3516938000002,1230.3519255,1230.3683361000003,1230.3683361000003,1230.3683361000003,1230.4348805999998,1230.8354511999996,,,,,,,,up,7.590803299999607,None,space,0.45884680000017397,None,,,,,,,,,,,,,,,,,P142,001,2025-04-09_09h58.21.000,posner_endo_new1,2024.2.4,60.05829257867202,2025-04-09 09h58.32.565324 +0100,
cube_r.png,0.1,10,catch,54,54,0,up,11.776943300000312,None,None,,,,,,,0,54,54,54,,,,,1230.8509102999997,,,,,,,,,,,,,1230.8356262999996,1230.8509102999997,1230.8509102999997,1230.8509102999997,1242.6399486,,,,1242.6459551999997,1242.6576544,1242.6576544,1242.7058281,1242.7060584,1242.7223121999996,1242.7223121999996,1242.7223121999996,1242.8055476999998,1245.7197030999996,,,,1244.8203789999998,1245.7360078000002,1245.7360078000002,1245.7360078000002,up,11.776943300000312,None,None,,,,,,,,,,,,,,,,,,,P142,001,2025-04-09_09h58.21.000,posner_endo_new1,2024.2.4,60.05829257867202,2025-04-09 09h58.32.565324 +0100,
cube_l.png,0.1,0.31,invalid,55,55,0,up,6.508098799999971,None,space,0.4297431000004508,None,,,,,0,55,55,55,,,,,1245.7360078000002,,,,,,,,,,,,,1245.7198614999998,1245.7360078000002,1245.7360078000002,1245.7360078000002,1252.2465536,,,,1252.2526427000003,1252.2642575,1252.2642575,1252.3127033,1252.3129337999999,1252.3293068000003,1252.3293068000003,1252.3293068000003,1252.396022,1252.7631579,,,,,,,,up,6.508098799999971,None,space,0.4297431000004508,None,,,,,,,,,,,,,,,,,P142,001,2025-04-09_09h58.21.000,posner_endo_new1,2024.2.4,60.05829257867202,2025-04-09 09h58.32.565324 +0100,
cube_l.png,0.1,-0.31,valid,56,56,0,up,13.561132999999245,None,space,0.4116919999996753,None,,,,,0,56,56,56,,,,,1252.7788773000002,,,,,,,,,,,,,1252.7633420000002,1252.7788773000002,1252.7788773000002,1252.7788773000002,1266.3488721000003,,,,1266.3551619,1266.3670345,1266.3670345,1266.4149498999996,1266.4151808999995,1266.4313726999999,1266.4313726999999,1266.4313726999999,1266.4983026,1266.8487398999996,,,,,,,,up,13.561132999999245,None,space,0.4116919999996753,None,,,,,,,,,,,,,,,,,P142,001,2025-04-09_09h58.21.000,posner_endo_new1,2024.2.4,60.05829257867202,2025-04-09 09h58.32.565324 +0100,
cube_r.png,0.1,0.31,valid,57,57,0,up,3.091668899999604,None,space,0.4064104999997653,None,,,,,0,57,57,57,,,,,1266.8645556000001,,,,,,,,,,,,,1266.8489166999998,1266.8645556000001,1266.8645556000001,1266.8645556000001,1269.9619162,,,,1269.9679072999998,1269.9793852000003,1269.9793852000003,1270.0280089999997,1270.0282412999995,1270.0445369,1270.0445369,1270.0445369,1270.1109310000002,1270.4615592,,,,,,,,up,3.091668899999604,None,space,0.4064104999997653,None,,,,,,,,,,,,,,,,,P142,001,2025-04-09_09h58.21.000,posner_endo_new1,2024.2.4,60.05829257867202,2025-04-09 09h58.32.565324 +0100,
cube_r.png,0.1,-0.31,invalid,58,58,0,up,2.8942870000000767,None,space,0.4826102999995783,None,,,,,0,58,58,58,,,,,1270.4774072999999,,,,,,,,,,,,,1270.4617267000003,1270.4774072999999,1270.4774072999999,1270.4774072999999,1273.3753118000004,,,,1273.3812369999996,1273.3929422,1273.3929422,1273.4411056999998,1273.4413338000004,1273.4576471,1273.4576471,1273.4576471,1273.5409129999998,1273.9412696999998,,,,,,,,up,2.8942870000000767,None,space,0.4826102999995783,None,,,,,,,,,,,,,,,,,P142,001,2025-04-09_09h58.21.000,posner_endo_new1,2024.2.4,60.05829257867202,2025-04-09 09h58.32.565324 +0100,
cube_l.png,0.1,0.31,invalid,59,59,0,up,4.334005400000024,None,space,0.6157076999998026,None,,,,,0,59,59,59,,,,,1273.9572267000003,,,,,,,,,,,,,1273.9414372,1273.9572267000003,1273.9572267000003,1273.9572267000003,1278.3033968999998,,,,1278.3094547,1278.3211307000001,1278.3211307000001,1278.3693341999997,1278.3695697000003,1278.3860106000002,1278.3860106000002,1278.3860106000002,1278.4526861000004,1279.0029652000003,,,,,,,,up,4.334005400000024,None,space,0.6157076999998026,None,,,,,,,,,,,,,,,,,P142,001,2025-04-09_09h58.21.000,posner_endo_new1,2024.2.4,60.05829257867202,2025-04-09 09h58.32.565324 +0100,
,,,,,,,,,,,,,,,,,,,,,,,,,,,,,,,,,,,,,,,,,,,,,,,,,,,,,,,,,,,,,,,,,,,,,,,1279.0030829999996,1279.0187778999998,1279.0187778999998,1339.0241732000004,1354.1093369999999,space,75.08070109999971,None,,,,,,,P142,001,2025-04-09_09h58.21.000,posner_endo_new1,2024.2.4,60.05829257867202,2025-04-09 09h58.32.565324 +0100,
,,,,,,,,,,,,,,,,,,,,,,,,,,,,,,,,,,1354.1093959,1354.1250804000001,1357.1915396000004,1357.1054600999996,,,,,,,,,,,,,,,,,,,,,,,,,,,,,,,,,,,,,,,,,,,,,,,,P142,001,2025-04-09_09h58.21.000,posner_endo_new1,2024.2.4,60.05829257867202,2025-04-09 09h58.32.565324 +0100,
cube_l.png,0.1,10,catch,0,0,0,down,8.092691200000445,None,None,,,,,,,,,,,0,0,0,0,1357.1915396000004,,,,,,,,,,,,,1357.1831657000002,1357.1915396000004,1357.1915396000004,1357.1915396000004,1365.2979753999998,,,,1365.3047629000002,1365.3168087000004,1365.3168087000004,1365.3639531,1365.3641836999996,1365.3804781999997,1365.3804781999997,1365.3804781999997,1365.4468927999997,1368.3778706000003,,,,1367.4616526,1368.3939987000003,1368.3939987000003,1368.3939987000003,,,,,,,,,,,,,,,,,down,8.092691200000445,None,None,,,P142,001,2025-04-09_09h58.21.000,posner_endo_new1,2024.2.4,60.05829257867202,2025-04-09 09h58.32.565324 +0100,
cube_l.png,0.1,10,catch,1,1,0,down,4.54626030000054,None,None,,,,,,,,,,,0,1,1,1,1368.3939987000003,,,,,,,,,,,,,1368.3780331999997,1368.3939987000003,1368.3939987000003,1368.3939987000003,1372.9569178000002,,,,1372.9631747000003,1372.9750458999997,1372.9750458999997,1373.0227770000001,1373.0230118999998,1373.0393529000003,1373.0393529000003,1373.0393529000003,1373.1225934000004,1376.0367425000004,,,,1375.1371201000002,1376.0528119,1376.0528119,1376.0528119,,,,,,,,,,,,,,,,,down,4.54626030000054,None,None,,,P142,001,2025-04-09_09h58.21.000,posner_endo_new1,2024.2.4,60.05829257867202,2025-04-09 09h58.32.565324 +0100,
cube_l.png,0.1,0.31,invalid,2,2,0,down,4.2956074000003355,None,space,0.4646898000000874,None,,,,,,,,,0,2,2,2,1376.0528119,,,,,,,,,,,,,1376.0369075999997,1376.0528119,1376.0528119,1376.0528119,1380.3491526999996,,,,1380.3552368,1380.3668570999998,1380.3668570999998,1380.4153231999999,1380.4155592999996,1380.4319034999999,1380.4319034999999,1380.4319034999999,1380.498477,1380.8988915999998,,,,,,,,,,,,,,,,,,,,,,,,down,4.2956074000003355,None,space,0.4646898000000874,None,P142,001,2025-04-09_09h58.21.000,posner_endo_new1,2024.2.4,60.05829257867202,2025-04-09 09h58.32.565324 +0100,
cube_l.png,0.1,0.31,invalid,3,3,0,down,7.154359499999373,None,space,0.7904508999999962,None,,,,,,,,,0,3,3,3,1380.9147278,,,,,,,,,,,,,1380.8990689000002,1380.9147278,1380.9147278,1380.9147278,1388.0747218999995,,,,1388.0808637999999,1388.0926038999996,1388.0926038999996,1388.1407007999996,1388.1409326000003,1388.1571993999996,1388.1571993999996,1388.1571993999996,1388.2239522999998,1388.9572231000002,,,,,,,,,,,,,,,,,,,,,,,,down,7.154359499999373,None,space,0.7904508999999962,None,P142,001,2025-04-09_09h58.21.000,posner_endo_new1,2024.2.4,60.05829257867202,2025-04-09 09h58.32.565324 +0100,
cube_l.png,0.1,-0.31,valid,4,4,0,down,6.126673599999776,None,space,0.4352713999996922,None,,,,,,,,,0,4,4,4,1388.973011,,,,,,,,,,,,,1388.9573954999996,1388.973011,1388.973011,1388.973011,1395.1010414000002,,,,1395.1070895000003,1395.1188432,1395.1188432,1395.1669603999999,1395.1671907,1395.183387,1395.183387,1395.183387,1395.2665077000001,1395.6334789000002,,,,,,,,,,,,,,,,,,,,,,,,down,6.126673599999776,None,space,0.4352713999996922,None,P142,001,2025-04-09_09h58.21.000,posner_endo_new1,2024.2.4,60.05829257867202,2025-04-09 09h58.32.565324 +0100,
cube_r.png,0.1,-0.31,invalid,5,5,0,down,6.491084999999657,None,space,0.3899192999997467,None,,,,,,,,,0,5,5,5,1395.6491619999997,,,,,,,,,,,,,1395.6336511,1395.6491619999997,1395.6491619999997,1395.6491619999997,1402.1438787999996,,,,1402.1499230999998,1402.1617407000003,1402.1617407000003,1402.2094631,1402.2096955999996,1402.2261324,1402.2261324,1402.2261324,1402.3094711000003,1402.6266084,,,,,,,,,,,,,,,,,,,,,,,,down,6.491084999999657,None,space,0.3899192999997467,None,P142,001,2025-04-09_09h58.21.000,posner_endo_new1,2024.2.4,60.05829257867202,2025-04-09 09h58.32.565324 +0100,
cube_r.png,0.1,0.31,valid,6,6,0,down,6.522228499999983,None,space,0.4597168000000238,None,,,,,,,,,0,6,6,6,1402.6424563,,,,,,,,,,,,,1402.6267804999998,1402.6424563,1402.6424563,1402.6424563,1409.1694471,,,,1409.1755876999996,1409.1871424,1409.1871424,1409.2357279999997,1409.2359589999996,1409.2523073000002,1409.2523073000002,1409.2523073000002,1409.3190228000003,1409.7193250999999,,,,,,,,,,,,,,,,,,,,,,,,down,6.522228499999983,None,space,0.4597168000000238,None,P142,001,2025-04-09_09h58.21.000,posner_endo_new1,2024.2.4,60.05829257867202,2025-04-09 09h58.32.565324 +0100,
cube_r.png,0.1,-0.31,invalid,7,7,0,down,6.2845467000006465,None,space,0.4322783999996318,None,,,,,,,,,0,7,7,7,1409.7352573999997,,,,,,,,,,,,,1409.7195044999999,1409.7352573999997,1409.7352573999997,1409.7352573999997,1416.0295005999997,,,,1416.0356935,1416.0476287000001,1416.0476287000001,1416.0956198000003,1416.0958499999997,1416.1121618999996,1416.1121618999996,1416.1121618999996,1416.1952054000003,1416.5459159000002,,,,,,,,,,,,,,,,,,,,,,,,down,6.2845467000006465,None,space,0.4322783999996318,None,P142,001,2025-04-09_09h58.21.000,posner_endo_new1,2024.2.4,60.05829257867202,2025-04-09 09h58.32.565324 +0100,
cube_l.png,0.1,-0.31,valid,8,8,0,down,5.930680200000097,None,space,0.4062128000005032,None,,,,,,,,,0,8,8,8,1416.5616823,,,,,,,,,,,,,1416.5460887999998,1416.5616823,1416.5616823,1416.5616823,1422.5062400999996,,,,1422.5123158999995,1422.5239314,1422.5239314,1422.5721573,1422.5723902999998,1422.5887208000004,1422.5887208000004,1422.5887208000004,1422.6718142,1423.0056606999997,,,,,,,,,,,,,,,,,,,,,,,,down,5.930680200000097,None,space,0.4062128000005032,None,P142,001,2025-04-09_09h58.21.000,posner_endo_new1,2024.2.4,60.05829257867202,2025-04-09 09h58.32.565324 +0100,
cube_r.png,0.1,-0.31,invalid,9,9,0,down,9.653957999999875,None,space,0.4149080999995931,None,,,,,,,,,0,9,9,9,1423.0216891999999,,,,,,,,,,,,,1423.0058341000004,1423.0216891999999,1423.0216891999999,1423.0216891999999,1432.6791971000002,,,,1432.6851975,1432.6967353999999,1432.6967353999999,1432.7450521,1432.7452824000002,1432.7615949,1432.7615949,1432.7615949,1432.8281428999999,1433.1787187999998,,,,,,,,,,,,,,,,,,,,,,,,down,9.653957999999875,None,space,0.4149080999995931,None,P142,001,2025-04-09_09h58.21.000,posner_endo_new1,2024.2.4,60.05829257867202,2025-04-09 09h58.32.565324 +0100,
cube_l.png,0.1,0.31,invalid,10,10,0,down,4.441150300000118,None,space,0.4252959000004921,None,,,,,,,,,0,10,10,10,1433.1946312999999,,,,,,,,,,,,,1433.1788993999999,1433.1946312999999,1433.1946312999999,1433.1946312999999,1437.6408087999998,,,,1437.6467370999999,1437.6584136000001,1437.6584136000001,1437.7067803,1437.7070157999997,1437.7231386000003,1437.7231386000003,1437.7231386000003,1437.7897924,1438.1568993,,,,,,,,,,,,,,,,,,,,,,,,down,4.441150300000118,None,space,0.4252959000004921,None,P142,001,2025-04-09_09h58.21.000,posner_endo_new1,2024.2.4,60.05829257867202,2025-04-09 09h58.32.565324 +0100,
cube_r.png,0.1,-0.31,invalid,11,11,0,down,9.327424899999642,None,space,0.4863322999999582,None,,,,,,,,,0,11,11,11,1438.1727275000003,,,,,,,,,,,,,1438.1570720999998,1438.1727275000003,1438.1727275000003,1438.1727275000003,1447.5139694999998,,,,1447.5200249999998,1447.5316386000004,1447.5316386000004,1447.5799558999997,1447.5801872000002,1447.5965078,1447.5965078,1447.5965078,1447.6630551999997,1448.0969114999998,,,,,,,,,,,,,,,,,,,,,,,,down,9.327424899999642,None,space,0.4863322999999582,None,P142,001,2025-04-09_09h58.21.000,posner_endo_new1,2024.2.4,60.05829257867202,2025-04-09 09h58.32.565324 +0100,
cube_r.png,0.1,0.31,valid,12,12,0,down,6.811086100000466,None,space,0.31527989999995043,None,,,,,,,,,0,12,12,12,1448.1127672000002,,,,,,,,,,,,,1448.0970875000003,1448.1127672000002,1448.1127672000002,1448.1127672000002,1454.9400448999995,,,,1454.9461328999996,1454.9578681000003,1454.9578681000003,1455.0058915999998,1455.0061256,1455.0223557999998,1455.0223557999998,1455.0223557999998,1455.1056381999997,1455.3393256,,,,,,,,,,,,,,,,,,,,,,,,down,6.811086100000466,None,space,0.31527989999995043,None,P142,001,2025-04-09_09h58.21.000,posner_endo_new1,2024.2.4,60.05829257867202,2025-04-09 09h58.32.565324 +0100,
cube_l.png,0.1,10,catch,13,13,0,down,6.512045399999806,None,space,0.34731579999970563,None,,,,,,,,,0,13,13,13,1455.3556335000003,,,,,,,,,,,,,1455.3395048000002,1455.3556335000003,1455.3556335000003,1455.3556335000003,1461.8827730000003,,,,1461.8891041999996,1461.9010577999998,1461.9010577999998,1461.9487675,1461.9490010999998,1461.9650689,1461.9650689,1461.9650689,1462.0318115999999,1462.3152041000003,,,,,,,,,,,,,,,,,,,,,,,,down,6.512045399999806,None,space,0.34731579999970563,None,P142,001,2025-04-09_09h58.21.000,posner_endo_new1,2024.2.4,60.05829257867202,2025-04-09 09h58.32.565324 +0100,
cube_r.png,0.1,-0.31,invalid,14,14,0,down,2.8729605999997148,None,space,0.6135234000003038,None,,,,,,,,,0,14,14,14,1462.3314160999998,,,,,,,,,,,,,1462.3153868,1462.3314160999998,1462.3314160999998,1462.3314160999998,1465.2120968,,,,1465.2181577000001,1465.2295611999998,1465.2295611999998,1465.2624016,1465.2626241999997,1465.2784412,1465.2784412,1465.2784412,1465.3616296999999,1465.8953027999996,,,,,,,,,,,,,,1465.2784412,1465.2784412,,,,,,,,,down,2.8729605999997148,None,space,0.6135234000003038,None,P142,001,2025-04-09_09h58.21.000,posner_endo_new1,2024.2.4,60.05829257867202,2025-04-09 09h58.32.565324 +0100,
cube_l.png,0.1,-0.31,valid,15,15,0,down,2.9245442999999796,None,space,0.4562506000002031,None,,,,,,,,,0,15,15,15,1465.9113476000002,,,,,,,,,,,,,1465.8954752,1465.9113476000002,1465.9113476000002,1465.9113476000002,1468.8427472000003,,,,1468.8550231,1468.8660576000002,1468.8660576000002,1468.9081347000001,1468.9086612,1468.9245414999996,1468.9245414999996,1468.9245414999996,1469.0078746999998,1469.3924429999997,,,,,,,,,,,,,,,,,,,,,,,,down,2.9245442999999796,None,space,0.4562506000002031,None,P142,001,2025-04-09_09h58.21.000,posner_endo_new1,2024.2.4,60.05829257867202,2025-04-09 09h58.32.565324 +0100,
cube_r.png,0.1,10,catch,16,16,0,down,5.612902099999701,None,None,,,,,,,,,,,0,16,16,16,1469.4073805999997,,,,,,,,,,,,,1469.3929274000002,1469.4073805999997,1469.4073805999997,1469.4073805999997,1475.036231,,,,1475.0479225,1475.0583282999996,1475.0583282999996,1475.1018639000004,1475.1021211999996,1475.1183314,1475.1183314,1475.1183314,1475.2016864999996,1478.1155024999998,,,,1477.2160007000002,1478.1317631000002,1478.1317631000002,1478.1317631000002,,,,,,,,,,,,,,,,,down,5.612902099999701,None,None,,,P142,001,2025-04-09_09h58.21.000,posner_endo_new1,2024.2.4,60.05829257867202,2025-04-09 09h58.32.565324 +0100,
cube_r.png,0.1,10,catch,17,17,0,down,4.816156199999568,None,None,,,,,,,,,,,0,17,17,17,1478.1317631000002,,,,,,,,,,,,,1478.1156879,1478.1317631000002,1478.1317631000002,1478.1317631000002,1482.9612660000003,,,,1482.9686711000004,1482.9799782999999,1482.9799782999999,1483.0271131,1483.0273779,1483.0436327999996,1483.0436327999996,1483.0436327999996,1483.1267937000002,1486.0411178000004,,,,1485.1415086999996,1486.0569821,1486.0569821,1486.0569821,,,,,,,,,,,,,,,,,down,4.816156199999568,None,None,,,P142,001,2025-04-09_09h58.21.000,posner_endo_new1,2024.2.4,60.05829257867202,2025-04-09 09h58.32.565324 +0100,
cube_l.png,0.1,0.31,invalid,18,18,0,down,2.811325699999543,None,space,0.5194318000003477,None,,,,,,,,,0,18,18,18,1486.0569821,,,,,,,,,,,,,1486.0413013999996,1486.0569821,1486.0569821,1486.0569821,1488.8715006000002,,,,1488.8788519999998,1488.8906138000002,1488.8906138000002,1488.9373763000003,1488.9376358,1488.9543376000001,1488.9543376000001,1488.9543376000001,1489.0208530999998,1489.4878726999996,,,,,,,,,,,,,,,,,,,,,,,,down,2.811325699999543,None,space,0.5194318000003477,None,P142,001,2025-04-09_09h58.21.000,posner_endo_new1,2024.2.4,60.05829257867202,2025-04-09 09h58.32.565324 +0100,
cube_l.png,0.1,10,catch,19,19,0,down,13.397398899999644,None,None,,,,,,,,,,,0,19,19,19,1489.5038610000001,,,,,,,,,,,,,1489.4880746999997,1489.5038610000001,1489.5038610000001,1489.5038610000001,1502.9075690999998,,,,1502.9149711999999,1502.9263117,1502.9263117,1502.9734748,1502.9737369000004,1502.9899421,1502.9899421,1502.9899421,1503.0733744,1505.9875759999995,,,,1505.0878758,1506.0034944999998,1506.0034944999998,1506.0034944999998,,,,,,,,,,,,,,,,,down,13.397398899999644,None,None,,,P142,001,2025-04-09_09h58.21.000,posner_endo_new1,2024.2.4,60.05829257867202,2025-04-09 09h58.32.565324 +0100,
cube_l.png,0.1,0.31,invalid,20,20,0,down,5.217079500000182,None,space,0.42663379999976314,None,,,,,,,,,0,20,20,20,1506.0034944999998,,,,,,,,,,,,,1505.9877594999998,1506.0034944999998,1506.0034944999998,1506.0034944999998,1511.2319502,,,,1511.2393406,1511.2510469,1511.2510469,1511.2978567999999,1511.2981142999997,1511.3147077000003,1511.3147077000003,1511.3147077000003,1511.3810345000002,1511.7485079999997,,,,,,,,,,,,,,,,,,,,,,,,down,5.217079500000182,None,space,0.42663379999976314,None,P142,001,2025-04-09_09h58.21.000,posner_endo_new1,2024.2.4,60.05829257867202,2025-04-09 09h58.32.565324 +0100,
cube_l.png,0.1,-0.31,valid,21,21,0,down,9.23189530000036,None,space,0.4700076999997691,None,,,,,,,,,0,21,21,21,1511.7639022000003,,,,,,,,,,,,,1511.7487062,1511.7639022000003,1511.7639022000003,1511.7639022000003,1521.0056432000001,,,,1521.0130186999995,1521.0245437000003,1521.0245437000003,1521.0712039,1521.0714660000003,1521.0880606,1521.0880606,1521.0880606,1521.1547070999995,1521.5718009000002,,,,,,,,,,,,,,,,,,,,,,,,down,9.23189530000036,None,space,0.4700076999997691,None,P142,001,2025-04-09_09h58.21.000,posner_endo_new1,2024.2.4,60.05829257867202,2025-04-09 09h58.32.565324 +0100,
cube_r.png,0.1,0.31,valid,22,22,0,down,19.696388399999705,None,space,0.4684840999998414,None,,,,,,,,,0,22,22,22,1521.5877532000004,,,,,,,,,,,,,1521.5719995,1521.5877532000004,1521.5877532000004,1521.5877532000004,1541.2856272999998,,,,1541.2974449000003,1541.307592,1541.307592,1541.3505705999996,1541.3509275999995,1541.3674922999999,1541.3674922999999,1541.3674922999999,1541.4505497,1541.8513811000003,,,,,,,,,,,,,,,,,,,,,,,,down,19.696388399999705,None,space,0.4684840999998414,None,P142,001,2025-04-09_09h58.21.000,posner_endo_new1,2024.2.4,60.05829257867202,2025-04-09 09h58.32.565324 +0100,
cube_r.png,0.1,-0.31,invalid,23,23,0,down,6.514004499999828,None,space,1.0037600000005114,None,,,,,,,,,0,23,23,23,1541.8668486999995,,,,,,,,,,,,,1541.8516751999996,1541.8668486999995,1541.8668486999995,1541.8668486999995,1548.3946859999996,,,,1548.4063306999997,1548.4165557999995,1548.4165557999995,1548.4603392,1548.4606998,1548.4768055000004,1548.4768055000004,1548.4768055000004,1548.5601496,1549.4937189000002,,,,,,,,,,,,,,,,,,,,,,,,down,6.514004499999828,None,space,1.0037600000005114,None,P142,001,2025-04-09_09h58.21.000,posner_endo_new1,2024.2.4,60.05829257867202,2025-04-09 09h58.32.565324 +0100,
cube_r.png,0.1,0.31,valid,24,24,0,down,3.463651000000027,None,space,0.6015487000004214,None,,,,,,,,,0,24,24,24,1549.5091085000004,,,,,,,,,,,,,1549.4940121999998,1549.5091085000004,1549.5091085000004,1549.5091085000004,1552.9900151000002,,,,1553.0016556,1553.0115318999997,1553.0115318999997,1553.0555432,1553.0559061000004,1553.0720777999995,1553.0720777999995,1553.0720777999995,1553.1552835000002,1553.6893597999997,,,,,,,,,,,,,,,,,,,,,,,,down,3.463651000000027,None,space,0.6015487000004214,None,P142,001,2025-04-09_09h58.21.000,posner_endo_new1,2024.2.4,60.05829257867202,2025-04-09 09h58.32.565324 +0100,
cube_r.png,0.1,-0.31,invalid,25,25,0,down,6.63575579999997,None,space,0.37133820000053674,None,,,,,,,,,0,25,25,25,1553.7049778,,,,,,,,,,,,,1553.6896588999998,1553.7049778,1553.7049778,1553.7049778,1560.3492895999998,,,,1560.3609268,1560.3711123000003,1560.3711123000003,1560.4147436000003,1560.4151008999997,1560.4311355,1560.4311355,1560.4311355,1560.5142733000002,1560.8154046,,,,,,,,,,,,,,,,,,,,,,,,down,6.63575579999997,None,space,0.37133820000053674,None,P142,001,2025-04-09_09h58.21.000,posner_endo_new1,2024.2.4,60.05829257867202,2025-04-09 09h58.32.565324 +0100,
cube_l.png,0.1,-0.31,valid,26,26,0,down,7.886093399999481,None,space,0.5717369999993025,None,,,,,,,,,0,26,26,26,1560.8308172999996,,,,,,,,,,,,,1560.8157007999998,1560.8308172999996,1560.8308172999996,1560.8308172999996,1568.7240441000004,,,,1568.7356793999998,1568.745914,1568.745914,1568.7895649000002,1568.7898095,1568.8061314999995,1568.8061314999995,1568.8061314999995,1568.8893902999998,1569.3891360999996,,,,,,,,,,,,,,,,,,,,,,,,down,7.886093399999481,None,space,0.5717369999993025,None,P142,001,2025-04-09_09h58.21.000,posner_endo_new1,2024.2.4,60.05829257867202,2025-04-09 09h58.32.565324 +0100,
cube_r.png,0.1,0.31,valid,27,27,0,down,6.758549300000595,None,space,0.4495051000003514,None,,,,,,,,,0,27,27,27,1569.4055765000003,,,,,,,,,,,,,1569.3893240999996,1569.4055765000003,1569.4055765000003,1569.4055765000003,1576.1661236,,,,1576.1730534999997,1576.1847165999998,1576.1847165999998,1576.2319405999997,1576.2321872000002,1576.2484904000003,1576.2484904000003,1576.2484904000003,1576.3313765000003,1576.6990435999996,,,,,,,,,,,,,,,,,,,,,,,,down,6.758549300000595,None,space,0.4495051000003514,None,P142,001,2025-04-09_09h58.21.000,posner_endo_new1,2024.2.4,60.05829257867202,2025-04-09 09h58.32.565324 +0100,
cube_r.png,0.1,10,catch,28,28,0,down,6.60154059999968,None,None,,,,,,,,,,,0,28,28,28,1576.7145584999998,,,,,,,,,,,,,1576.6992293000003,1576.7145584999998,1576.7145584999998,1576.7145584999998,1583.3252925999996,,,,1583.3322362,1583.3440548999997,1583.3440548999997,1583.3912113999995,1583.3914579000002,1583.4078723000002,1583.4078723000002,1583.4078723000002,1583.4744136,1586.4054447999997,,,,1585.4891715000003,1586.4215711999996,1586.4215711999996,1586.4215711999996,,,,,,,,,,,,,,,,,down,6.60154059999968,None,None,,,P142,001,2025-04-09_09h58.21.000,posner_endo_new1,2024.2.4,60.05829257867202,2025-04-09 09h58.32.565324 +0100,
cube_r.png,0.1,0.31,valid,29,29,0,down,2.007221599999866,None,space,0.43356349999976374,None,,,,,,,,,0,29,29,29,1586.4215711999996,,,,,,,,,,,,,1586.4056191999998,1586.4215711999996,1586.4215711999996,1586.4215711999996,1588.4369635000003,,,,1588.4439419999999,1588.4556978,1588.4556978,1588.5029490999996,1588.5031949000004,1588.5194632000002,1588.5194632000002,1588.5194632000002,1588.5860611999997,1588.9697454999996,,,,,,,,,,,,,,,,,,,,,,,,down,2.007221599999866,None,space,0.43356349999976374,None,P142,001,2025-04-09_09h58.21.000,posner_endo_new1,2024.2.4,60.05829257867202,2025-04-09 09h58.32.565324 +0100,
cube_r.png,0.1,0.31,valid,30,30,0,down,7.570428200000606,None,space,0.339635499999531,None,,,,,,,,,0,30,30,30,1588.9855189,,,,,,,,,,,,,1588.9699337000002,1588.9855189,1588.9855189,1588.9855189,1596.5619207999998,,,,1596.5689065999995,1596.5806143,1596.5806143,1596.6278326000001,1596.6280800000004,1596.6444739999997,1596.6444739999997,1596.6444739999997,1596.7110032,1596.994573,,,,,,,,,,,,,,,,,,,,,,,,down,7.570428200000606,None,space,0.339635499999531,None,P142,001,2025-04-09_09h58.21.000,posner_endo_new1,2024.2.4,60.05829257867202,2025-04-09 09h58.32.565324 +0100,
cube_l.png,0.1,-0.31,valid,31,31,0,down,6.617866499999764,None,space,0.49379140000019106,None,,,,,,,,,0,31,31,31,1597.0104472000003,,,,,,,,,,,,,1596.9947620000003,1597.0104472000003,1597.0104472000003,1597.0104472000003,1603.6381654999996,,,,1603.6451154999995,1603.6568900000002,1603.6568900000002,1603.7040020000004,1603.7042528000002,1603.7203673000004,1603.7203673000004,1603.7203673000004,1603.8037823000004,1604.2207304000003,,,,,,,,,,,,,,,,,,,,,,,,down,6.617866499999764,None,space,0.49379140000019106,None,P142,001,2025-04-09_09h58.21.000,posner_endo_new1,2024.2.4,60.05829257867202,2025-04-09 09h58.32.565324 +0100,
cube_r.png,0.1,0.31,valid,32,32,0,down,7.1516443999998955,None,space,0.7114511999998285,None,,,,,,,,,0,32,32,32,1604.2366076999997,,,,,,,,,,,,,1604.2209357000002,1604.2366076999997,1604.2366076999997,1604.2366076999997,1611.3968630999998,,,,1611.4037822,1611.4153456000004,1611.4153456000004,1611.4626293000001,1611.4628609000001,1611.4790184000003,1611.4790184000003,1611.4790184000003,1611.5621812999998,1612.1958785999996,,,,,,,,,,,,,,,,,,,,,,,,down,7.1516443999998955,None,space,0.7114511999998285,None,P142,001,2025-04-09_09h58.21.000,posner_endo_new1,2024.2.4,60.05829257867202,2025-04-09 09h58.32.565324 +0100,
cube_r.png,0.1,-0.31,invalid,33,33,0,down,5.36875979999968,None,space,0.43180389999997715,None,,,,,,,,,0,33,33,33,1612.2117398,,,,,,,,,,,,,1612.1960533000001,1612.2117398,1612.2117398,1612.2117398,1617.5904529999998,,,,1617.5964797999995,1617.6082759,1617.6082759,1617.6563462000004,1617.656578,1617.6728167,1617.6728167,1617.6728167,1617.7562258999997,1618.1066382,,,,,,,,,,,,,,,,,,,,,,,,down,5.36875979999968,None,space,0.43180389999997715,None,P142,001,2025-04-09_09h58.21.000,posner_endo_new1,2024.2.4,60.05829257867202,2025-04-09 09h58.32.565324 +0100,
cube_r.png,0.1,10,catch,34,34,0,down,10.474226100000124,None,space,0.515483199999835,None,,,,,,,,,0,34,34,34,1618.1222908,,,,,,,,,,,,,1618.1068091999996,1618.1222908,1618.1222908,1618.1222908,1628.6124137999996,,,,1628.6184739999999,1628.6301618999996,1628.6301618999996,1628.6783507,1628.6785830999997,1628.6949709,1628.6949709,1628.6949709,1628.7614153000004,1629.2119229,,,,,,,,,,,,,,,,,,,,,,,,down,10.474226100000124,None,space,0.515483199999835,None,P142,001,2025-04-09_09h58.21.000,posner_endo_new1,2024.2.4,60.05829257867202,2025-04-09 09h58.32.565324 +0100,
cube_r.png,0.1,0.31,valid,35,35,0,down,6.329199900000276,None,space,0.4085353999998915,None,,,,,,,,,0,35,35,35,1629.2276921000002,,,,,,,,,,,,,1629.2120943,1629.2276921000002,1629.2276921000002,1629.2276921000002,1635.5720781,,,,1635.5781110999997,1635.5898834999998,1635.5898834999998,1635.6381425999998,1635.6383739000003,1635.6543676000001,1635.6543676000001,1635.6543676000001,1635.7212244000002,1636.0717099000003,,,,,,,,,,,,,,,,,,,,,,,,down,6.329199900000276,None,space,0.4085353999998915,None,P142,001,2025-04-09_09h58.21.000,posner_endo_new1,2024.2.4,60.05829257867202,2025-04-09 09h58.32.565324 +0100,
cube_r.png,0.1,-0.31,invalid,36,36,0,down,25.396841899999345,None,space,0.7590546999999788,None,,,,,,,,,0,36,36,36,1636.0873828000003,,,,,,,,,,,,,1636.0718844000003,1636.0873828000003,1636.0873828000003,1636.0873828000003,1661.4955585999996,,,,1661.5072243000004,1661.5174463000003,1661.5174463000003,1661.5616694999999,1661.5620460999999,1661.5781078,1661.5781078,1661.5781078,1661.6447083000003,1662.3452489000001,,,,,,,,,,,,,,,,,,,,,,,,down,25.396841899999345,None,space,0.7590546999999788,None,P142,001,2025-04-09_09h58.21.000,posner_endo_new1,2024.2.4,60.05829257867202,2025-04-09 09h58.32.565324 +0100,
cube_l.png,0.1,0.31,invalid,37,37,0,down,5.3405484000004435,None,space,0.4741113999998561,None,,,,,,,,,0,37,37,37,1662.3602088999996,,,,,,,,,,,,,1662.3455403999997,1662.3602088999996,1662.3602088999996,1662.3602088999996,1667.7058735,,,,1667.7174818000003,1667.7276622999998,1667.7276622999998,1667.771836,1667.7721951000003,1667.7883032,1667.7883032,1667.7883032,1667.8551054,1668.2724058000003,,,,,,,,,,,,,,,,,,,,,,,,down,5.3405484000004435,None,space,0.4741113999998561,None,P142,001,2025-04-09_09h58.21.000,posner_endo_new1,2024.2.4,60.05829257867202,2025-04-09 09h58.32.565324 +0100,
cube_l.png,0.1,0.31,invalid,38,38,0,down,5.029010899999776,None,space,0.564053299999614,None,,,,,,,,,0,38,38,38,1668.2877618000002,,,,,,,,,,,,,1668.2726989000003,1668.2877618000002,1668.2877618000002,1668.2877618000002,1673.3337148,,,,1673.3453078000002,1673.3555708000004,1673.3555708000004,1673.3993566,1673.3996055999996,1673.4159262000003,1673.4159262000003,1673.4159262000003,1673.4993544,1673.9827379999997,,,,,,,,,,,,,,,,,,,,,,,,down,5.029010899999776,None,space,0.564053299999614,None,P142,001,2025-04-09_09h58.21.000,posner_endo_new1,2024.2.4,60.05829257867202,2025-04-09 09h58.32.565324 +0100,
cube_r.png,0.1,0.31,valid,39,39,0,down,4.629842000000281,None,space,0.5811960000000909,None,,,,,,,,,0,39,39,39,1673.9987926000003,,,,,,,,,,,,,1673.9829342000003,1673.9987926000003,1673.9987926000003,1673.9987926000003,1678.6446506000002,,,,1678.651613,1678.6632976,1678.6632976,1678.7106224,1678.7108711,1678.7272897000003,1678.7272897000003,1678.7272897000003,1678.7938790999997,1679.3108148000001,,,,,,,,,,,,,,,,,,,,,,,,down,4.629842000000281,None,space,0.5811960000000909,None,P142,001,2025-04-09_09h58.21.000,posner_endo_new1,2024.2.4,60.05829257867202,2025-04-09 09h58.32.565324 +0100,
cube_l.png,0.1,0.31,invalid,40,40,0,down,7.551000400000703,None,space,0.6401218999999401,None,,,,,,,,,0,40,40,40,1679.3260291999995,,,,,,,,,,,,,1679.3110027000002,1679.3260291999995,1679.3260291999995,1679.3260291999995,1686.8863859000003,,,,1686.8933205000003,1686.9050066999998,1686.9050066999998,1686.9523363999997,1686.9525813999999,1686.9687548000002,1686.9687548000002,1686.9687548000002,1687.0348649999996,1687.6190564999997,,,,,,,,,,,,,,,,,,,,,,,,down,7.551000400000703,None,space,0.6401218999999401,None,P142,001,2025-04-09_09h58.21.000,posner_endo_new1,2024.2.4,60.05829257867202,2025-04-09 09h58.32.565324 +0100,
cube_l.png,0.1,10,catch,41,41,0,down,5.193412300000091,None,None,,,,,,,,,,,0,41,41,41,1687.6347870999998,,,,,,,,,,,,,1687.6192460000002,1687.6347870999998,1687.6347870999998,1687.6347870999998,1692.8298493000002,,,,1692.8368117999999,1692.8486652000001,1692.8486652000001,1692.8963278,1692.8965716000002,1692.9125708000001,1692.9125708000001,1692.9125708000001,1692.9793141,1695.9101253,,,,1694.9937920000002,1695.926351,1695.926351,1695.926351,,,,,,,,,,,,,,,,,down,5.193412300000091,None,None,,,P142,001,2025-04-09_09h58.21.000,posner_endo_new1,2024.2.4,60.05829257867202,2025-04-09 09h58.32.565324 +0100,
cube_l.png,0.1,-0.31,valid,42,42,0,down,4.070237100000668,None,space,0.48548200000004726,None,,,,,,,,,0,42,42,42,1695.926351,,,,,,,,,,,,,1695.9103003999999,1695.926351,1695.926351,1695.926351,1700.0062903999997,,,,1700.0132351000002,1700.0248445999996,1700.0248445999996,1700.0723316000003,1700.072577,1700.0884751000003,1700.0884751000003,1700.0884751000003,1700.1552130999999,1700.5888260000002,,,,,,,,,,,,,,,,,,,,,,,,down,4.070237100000668,None,space,0.48548200000004726,None,P142,001,2025-04-09_09h58.21.000,posner_endo_new1,2024.2.4,60.05829257867202,2025-04-09 09h58.32.565324 +0100,
cube_l.png,0.1,10,catch,43,43,0,down,4.783561700000064,None,None,,,,,,,,,,,0,43,43,43,1700.6049512999998,,,,,,,,,,,,,1700.5890167999996,1700.6049512999998,1700.6049512999998,1700.6049512999998,1705.4008888999997,,,,1705.4078669,1705.4195249000004,1705.4195249000004,1705.4665537,1705.4668075999998,1705.4832335,1705.4832335,1705.4832335,1705.5663713000004,1708.4805827,,,,1707.5809605000004,1708.4965647,1708.4965647,1708.4965647,,,,,,,,,,,,,,,,,down,4.783561700000064,None,None,,,P142,001,2025-04-09_09h58.21.000,posner_endo_new1,2024.2.4,60.05829257867202,2025-04-09 09h58.32.565324 +0100,
cube_l.png,0.1,0.31,invalid,44,44,0,down,2.0523762000002534,None,space,0.4657276999996611,None,,,,,,,,,0,44,44,44,1708.4965647,,,,,,,,,,,,,1708.4807598999996,1708.4965647,1708.4965647,1708.4965647,1710.5622608000003,,,,1710.5692606000002,1710.5809652999997,1710.5809652999997,1710.628114,1710.6283622,1710.6446098999995,1710.6446098999995,1710.6446098999995,1710.7278864999998,1711.1117412000003,,,,,,,,,,,,,,,,,,,,,,,,down,2.0523762000002534,None,space,0.4657276999996611,None,P142,001,2025-04-09_09h58.21.000,posner_endo_new1,2024.2.4,60.05829257867202,2025-04-09 09h58.32.565324 +0100,
cube_l.png,0.1,0.31,invalid,45,45,0,down,5.205936299999848,None,space,0.7198345999995581,None,,,,,,,,,0,45,45,45,1711.1271187000002,,,,,,,,,,,,,1711.1119282999998,1711.1271187000002,1711.1271187000002,1711.1271187000002,1716.3397273,,,,1716.3466461999997,1716.3587779999998,1716.3587779999998,1716.4055196999998,1716.4057678,1716.4218947999998,1716.4218947999998,1716.4218947999998,1716.5051322999998,1717.1555909999997,,,,,,,,,,,,,,,,,,,,,,,,down,5.205936299999848,None,space,0.7198345999995581,None,P142,001,2025-04-09_09h58.21.000,posner_endo_new1,2024.2.4,60.05829257867202,2025-04-09 09h58.32.565324 +0100,
cube_r.png,0.1,0.31,valid,46,46,0,down,3.697131100000661,None,space,0.8987596999995731,None,,,,,,,,,0,46,46,46,1717.1713461,,,,,,,,,,,,,1717.1557798000003,1717.1713461,1717.1713461,1717.1713461,1720.8850891000002,,,,1720.8919791999997,1720.9036216000004,1720.9036216000004,1720.9509887000004,1720.9512351000003,1720.9673221000003,1720.9673221000003,1720.9673221000003,1721.0507389000004,1721.8673135,,,,,,,,,,,,,,,,,,,,,,,,down,3.697131100000661,None,space,0.8987596999995731,None,P142,001,2025-04-09_09h58.21.000,posner_endo_new1,2024.2.4,60.05829257867202,2025-04-09 09h58.32.565324 +0100,
cube_l.png,0.1,-0.31,valid,47,47,0,down,4.650299800000539,None,space,0.4350728999997955,None,,,,,,,,,0,47,47,47,1721.8827015999996,,,,,,,,,,,,,1721.8675012000003,1721.8827015999996,1721.8827015999996,1721.8827015999996,1726.5458288999998,,,,1726.5527547000002,1726.5644381000002,1726.5644381000002,1726.6116086000002,1726.6118638999997,1726.6283332000003,1726.6283332000003,1726.6283332000003,1726.6948672999997,1727.0787528,,,,,,,,,,,,,,,,,,,,,,,,down,4.650299800000539,None,space,0.4350728999997955,None,P142,001,2025-04-09_09h58.21.000,posner_endo_new1,2024.2.4,60.05829257867202,2025-04-09 09h58.32.565324 +0100,
cube_r.png,0.1,-0.31,invalid,48,48,0,down,5.302667699999802,None,space,0.5582495999997263,None,,,,,,,,,0,48,48,48,1727.0940105,,,,,,,,,,,,,1727.0789476,1727.0940105,1727.0940105,1727.0940105,1732.4060800999996,,,,1732.4130187,1732.4247761999995,1732.4247761999995,1732.4726586999996,1732.4729042,1732.4890793000004,1732.4890793000004,1732.4890793000004,1732.5556642000001,1733.0557889000002,,,,,,,,,,,,,,,,,,,,,,,,down,5.302667699999802,None,space,0.5582495999997263,None,P142,001,2025-04-09_09h58.21.000,posner_endo_new1,2024.2.4,60.05829257867202,2025-04-09 09h58.32.565324 +0100,
cube_r.png,0.1,10,catch,49,49,0,down,5.444333200000074,None,None,,,,,,,,,,,0,49,49,49,1733.0719212000004,,,,,,,,,,,,,1733.0559752,1733.0719212000004,1733.0719212000004,1733.0719212000004,1738.5170199000004,,,,1738.5239353999996,1738.535688,1738.535688,1738.5829051,1738.5831533,1738.5995980999996,1738.5995980999996,1738.5995980999996,1738.666024,1741.5966670999996,,,,1740.6804702999998,1741.6130436000003,1741.6130436000003,1741.6130436000003,,,,,,,,,,,,,,,,,down,5.444333200000074,None,None,,,P142,001,2025-04-09_09h58.21.000,posner_endo_new1,2024.2.4,60.05829257867202,2025-04-09 09h58.32.565324 +0100,
cube_l.png,0.1,-0.31,valid,50,50,0,down,1.4396489999999176,None,space,0.4451133000002301,None,,,,,,,,,0,50,50,50,1741.6130436000003,,,,,,,,,,,,,1741.5968399000003,1741.6130436000003,1741.6130436000003,1741.6130436000003,1743.0624909999997,,,,1743.0693732999998,1743.0810853000003,1743.0810853000003,1743.1282705000003,1743.1285166999996,1743.1447711,1743.1447711,1743.1447711,1743.2280013999998,1743.5947607999997,,,,,,,,,,,,,,,,,,,,,,,,down,1.4396489999999176,None,space,0.4451133000002301,None,P142,001,2025-04-09_09h58.21.000,posner_endo_new1,2024.2.4,60.05829257867202,2025-04-09 09h58.32.565324 +0100,
cube_l.png,0.1,-0.31,valid,51,51,0,down,3.6271184999995967,None,space,0.6839020999996137,None,,,,,,,,,0,51,51,51,1743.6108812000002,,,,,,,,,,,,,1743.5949502000003,1743.6108812000002,1743.6108812000002,1743.6108812000002,1747.2417023999997,,,,1747.2486987000002,1747.2602420000003,1747.2602420000003,1747.3072801999997,1747.3075261000004,1747.3237502000002,1747.3237502000002,1747.3237502000002,1747.4071990000002,1748.0240594999996,,,,,,,,,,,,,,,,,,,,,,,,down,3.6271184999995967,None,space,0.6839020999996137,None,P142,001,2025-04-09_09h58.21.000,posner_endo_new1,2024.2.4,60.05829257867202,2025-04-09 09h58.32.565324 +0100,
cube_r.png,0.1,-0.31,invalid,52,52,0,down,5.109117699999842,None,space,0.5039667999999438,None,,,,,,,,,0,52,52,52,1748.0396111999999,,,,,,,,,,,,,1748.0242472999998,1748.0396111999999,1748.0396111999999,1748.0396111999999,1753.1520307,,,,1753.1589514999996,1753.1706164999996,1753.1706164999996,1753.2180494000004,1753.2182928000002,1753.2345109999997,1753.2345109999997,1753.2345109999997,1753.3177233999995,1753.7514965,,,,,,,,,,,,,,,,,,,,,,,,down,5.109117699999842,None,space,0.5039667999999438,None,P142,001,2025-04-09_09h58.21.000,posner_endo_new1,2024.2.4,60.05829257867202,2025-04-09 09h58.32.565324 +0100,
cube_l.png,0.1,-0.31,valid,53,53,0,down,4.965878500000144,None,space,0.4336703999997553,None,,,,,,,,,0,53,53,53,1753.7673334,,,,,,,,,,,,,1753.7516912,1753.7673334,1753.7673334,1753.7673334,1758.7462701000004,,,,1758.7532112999997,1758.7650356000004,1758.7650356000004,1758.8123582999997,1758.8126056,1758.8288438,1758.8288438,1758.8288438,1758.9119643000004,1759.2791914,,,,,,,,,,,,,,,,,,,,,,,,down,4.965878500000144,None,space,0.4336703999997553,None,P142,001,2025-04-09_09h58.21.000,posner_endo_new1,2024.2.4,60.05829257867202,2025-04-09 09h58.32.565324 +0100,
cube_r.png,0.1,10,catch,54,54,0,down,5.398061599999892,None,None,,,,,,,,,,,0,54,54,54,1759.2950321999997,,,,,,,,,,,,,1759.2793764999997,1759.2950321999997,1759.2950321999997,1759.2950321999997,1764.70665,,,,1764.7136252999999,1764.7253188000004,1764.7253188000004,1764.7728631999998,1764.7731099000002,1764.7892972,1764.7892972,1764.7892972,1764.8562797000004,1767.7865443,,,,1766.8705633999998,1767.8030413999995,1767.8030413999995,1767.8030413999995,,,,,,,,,,,,,,,,,down,5.398061599999892,None,None,,,P142,001,2025-04-09_09h58.21.000,posner_endo_new1,2024.2.4,60.05829257867202,2025-04-09 09h58.32.565324 +0100,
cube_l.png,0.1,0.31,invalid,55,55,0,down,2.0173469999999725,None,space,0.5412586000002193,None,,,,,,,,,0,55,55,55,1767.8030413999995,,,,,,,,,,,,,1767.7867180000003,1767.8030413999995,1767.8030413999995,1767.8030413999995,1769.8350059000004,,,,1769.8419119999999,1769.8539001,1769.8539001,1769.9007712000002,1769.9010146,1769.9175075000003,1769.9175075000003,1769.9175075000003,1769.9841700999996,1770.4676627999997,,,,,,,,,,,,,,,,,,,,,,,,down,2.0173469999999725,None,space,0.5412586000002193,None,P142,001,2025-04-09_09h58.21.000,posner_endo_new1,2024.2.4,60.05829257867202,2025-04-09 09h58.32.565324 +0100,
cube_l.png,0.1,-0.31,valid,56,56,0,down,4.658732099999725,None,space,0.43682130000070174,None,,,,,,,,,0,56,56,56,1770.4835411000004,,,,,,,,,,,,,1770.4678502999996,1770.4835411000004,1770.4835411000004,1770.4835411000004,1775.1460944,,,,1775.1530273999997,1775.1646147000001,1775.1646147000001,1775.2121196999997,1775.2123645000001,1775.2288611000004,1775.2288611000004,1775.2288611000004,1775.2951004999995,1775.678583,,,,,,,,,,,,,,,,,,,,,,,,down,4.658732099999725,None,space,0.43682130000070174,None,P142,001,2025-04-09_09h58.21.000,posner_endo_new1,2024.2.4,60.05829257867202,2025-04-09 09h58.32.565324 +0100,
cube_r.png,0.1,0.31,valid,57,57,0,down,3.49403810000058,None,space,0.6182771000003413,None,,,,,,,,,0,57,57,57,1775.6948230999997,,,,,,,,,,,,,1775.6787729999996,1775.6948230999997,1775.6948230999997,1775.6948230999997,1779.1919260000004,,,,1779.1988517999998,1779.2105967999996,1779.2105967999996,1779.2579889999997,1779.2582352,1779.2744241999999,1779.2744241999999,1779.2744241999999,1779.3410178000004,1779.9079937999995,,,,,,,,,,,,,,,,,,,,,,,,down,3.49403810000058,None,space,0.6182771000003413,None,P142,001,2025-04-09_09h58.21.000,posner_endo_new1,2024.2.4,60.05829257867202,2025-04-09 09h58.32.565324 +0100,
cube_r.png,0.1,-0.31,invalid,58,58,0,down,2.6729670999993687,None,space,0.4863681999995606,None,,,,,,,,,0,58,58,58,1779.9238507999999,,,,,,,,,,,,,1779.9081813000003,1779.9238507999999,1779.9238507999999,1779.9238507999999,1782.6054588999996,,,,1782.6123684000004,1782.6238971000002,1782.6238971000002,1782.6711736999996,1782.6714054000004,1782.6878834,1782.6878834,1782.6878834,1782.7708788,1783.1879471000002,,,,,,,,,,,,,,,,,,,,,,,,down,2.6729670999993687,None,space,0.4863681999995606,None,P142,001,2025-04-09_09h58.21.000,posner_endo_new1,2024.2.4,60.05829257867202,2025-04-09 09h58.32.565324 +0100,
cube_l.png,0.1,0.31,invalid,59,59,0,down,9.28078540000024,None,space,0.3970035000002099,None,,,,,,,,,0,59,59,59,1783.2039228000003,,,,,,,,,,,,,1783.1881215000003,1783.2039228000003,1783.2039228000003,1783.2039228000003,1792.4950830999996,,,,1792.5010985,1792.5127323999995,1792.5127323999995,1792.5610459,1792.5612793,1792.5776618,1792.5776618,1792.5776618,1792.6443614999998,1792.9778778,,,,,,,,,,,,,,,,,,,,,,,,down,9.28078540000024,None,space,0.3970035000002099,None,P142,001,2025-04-09_09h58.21.000,posner_endo_new1,2024.2.4,60.05829257867202,2025-04-09 09h58.32.565324 +0100,
