cue_img,cue_soa,target_y,trial,thisN,thisTrialN,thisRepN,key_control2.keys,key_control2.rt,key_control2.duration,key_resp.keys,key_resp.rt,key_resp.duration,practice.thisRepN,practice.thisTrialN,practice.thisN,practice.thisIndex,block1.thisRepN,block1.thisTrialN,block1.thisN,block1.thisIndex,block2.thisRepN,block2.thisTrialN,block2.thisN,block2.thisIndex,thisRow.t,notes,instructions.started,instructions_txt.started,key_control.started,instructions.stopped,key_control.keys,key_control.rt,key_control.duration,ready.started,ready_txt.started,ready_txt.stopped,ready.stopped,fix.started,fixation.started,key_control2.started,fixation_cross.started,fix.stopped,practice.key_control2.keys,practice.key_control2.rt,practice.key_control2.duration,cue.started,cube.started,fixation_cross_cue.started,cue.stopped,target.started,fixation_target.started,fixation_cross_target.started,key_resp.started,star.started,target.stopped,practice.key_resp.keys,practice.key_resp.rt,practice.key_resp.duration,star.stopped,fixation_target.stopped,fixation_cross_target.stopped,key_resp.stopped,block1.key_control2.keys,block1.key_control2.rt,block1.key_control2.duration,block1.key_resp.keys,block1.key_resp.rt,block1.key_resp.duration,break_2.started,text.started,key_control3.started,text.stopped,break_2.stopped,key_control3.keys,key_control3.rt,key_control3.duration,block2.key_control2.keys,block2.key_control2.rt,block2.key_control2.duration,block2.key_resp.keys,block2.key_resp.rt,block2.key_resp.duration,participant,session,date,expName,psychopyVersion,frameRate,expStart,
,,,,,,,,,,,,,,,,,,,,,,,,,,,0.007387300000118557,0.028715000000374857,0.028715000000374857,8.178725099998701,up,8.135292099999788,None,,,,,,,,,,,,,,,,,,,,,,,,,,,,,,,,,,,,,,,,,,,,,,,,,,P143,001,2025-04-09_12h14.09.439,posner_endo_new1,2024.2.4,59.96066580322332,2025-04-09 12h14.19.140767 +0100,
,,,,,,,,,,,,,,,,,,,,,,,,,,,,,,,,,,8.178796899999725,8.190717399998903,11.189398499998788,11.17031339999994,,,,,,,,,,,,,,,,,,,,,,,,,,,,,,,,,,,,,,,,,,,,,,P143,001,2025-04-09_12h14.09.439,posner_endo_new1,2024.2.4,59.96066580322332,2025-04-09 12h14.19.140767 +0100,
cube_l.png,0.1,0.31,invalid,0,0,0,down,26.094827599999917,None,space,0.3604759000008926,None,0,0,0,5,,,,,,,,,11.189398499998788,,,,,,,,,,,,,11.178122299999814,11.189398499998788,11.189398499998788,11.189398499998788,37.2936408000005,down,26.094827599999917,None,37.304430799998954,37.31469169999946,37.31469169999946,37.36007880000034,37.360309399999096,37.37605479999911,37.37605479999911,37.37605479999911,37.44308329999876,37.74345379999977,space,0.3604759000008926,None,,,,,,,,,,,,,,,,,,,,,,,,,P143,001,2025-04-09_12h14.09.439,posner_endo_new1,2024.2.4,59.96066580322332,2025-04-09 12h14.19.140767 +0100,
cube_r.png,0.1,-0.31,invalid,1,1,0,down,3.7244723999992857,None,space,0.36821280000003753,None,0,1,1,2,,,,,,,,,37.759505799998806,,,,,,,,,,,,,37.74363230000017,37.759505799998806,37.759505799998806,37.759505799998806,41.48975539999992,down,3.7244723999992857,None,41.49722990000009,41.508505499999956,41.508505499999956,41.55576739999924,41.55599979999897,41.57240970000021,41.57240970000021,41.57240970000021,41.65561589999925,41.956066499999,space,0.36821280000003753,None,,,,,,,,,,,,,,,,,,,,,,,,,P143,001,2025-04-09_12h14.09.439,posner_endo_new1,2024.2.4,59.96066580322332,2025-04-09 12h14.19.140767 +0100,
cube_r.png,0.1,-0.31,invalid,2,2,0,down,3.817383699999482,None,space,0.4719074000004184,None,0,2,2,9,,,,,,,,,41.97193719999996,,,,,,,,,,,,,41.956239499999356,41.97193719999996,41.97193719999996,41.97193719999996,45.80208599999969,down,3.817383699999482,None,45.80944090000048,45.8209683999994,45.8209683999994,45.868011799999294,45.86824129999877,45.88456869999936,45.88456869999936,45.88456869999936,45.9508453999988,46.3682374,space,0.4719074000004184,None,,,,,,,,,,,,,,,,,,,,,,,,,P143,001,2025-04-09_12h14.09.439,posner_endo_new1,2024.2.4,59.96066580322332,2025-04-09 12h14.19.140767 +0100,
cube_l.png,0.1,-0.31,valid,3,3,0,down,1.9164805000000342,None,space,0.38874810000015714,None,0,3,3,8,,,,,,,,,46.38361540000005,,,,,,,,,,,,,46.36840630000006,46.38361540000005,46.38361540000005,46.38361540000005,48.31608140000026,down,1.9164805000000342,None,48.32319800000005,48.33481179999944,48.33481179999944,48.38226769999892,48.38249739999992,48.39865309999914,48.39865309999914,48.39865309999914,48.464995599999384,48.79902469999979,space,0.38874810000015714,None,,,,,,,,,,,,,,,,,,,,,,,,,P143,001,2025-04-09_12h14.09.439,posner_endo_new1,2024.2.4,59.96066580322332,2025-04-09 12h14.19.140767 +0100,
cube_r.png,0.1,0.31,valid,4,4,0,down,2.748492900000201,None,space,0.3392342000006465,None,0,4,4,10,,,,,,,,,48.81493930000033,,,,,,,,,,,,,48.79919510000036,48.81493930000033,48.81493930000033,48.81493930000033,51.57965200000035,down,2.748492900000201,None,51.586668399999326,51.59820049999871,51.59820049999871,51.64539390000027,51.64561800000047,51.661728699999,51.661728699999,51.661728699999,51.7451645000001,52.01231779999944,space,0.3392342000006465,None,,,,,,,,,,,,,,,,,,,,,,,,,P143,001,2025-04-09_12h14.09.439,posner_endo_new1,2024.2.4,59.96066580322332,2025-04-09 12h14.19.140767 +0100,
cube_r.png,0.1,-0.31,invalid,5,5,0,down,2.5594782999996823,None,space,0.3604580999999598,None,0,5,5,6,,,,,,,,,52.02799520000008,,,,,,,,,,,,,52.01247919999878,52.02799520000008,52.02799520000008,52.02799520000008,54.593125899998995,down,2.5594782999996823,None,54.59977649999928,54.611669699999766,54.611669699999766,54.65903669999898,54.659259300000485,54.67555739999989,54.67555739999989,54.67555739999989,54.75876319999952,55.04248849999931,space,0.3604580999999598,None,,,,,,,,,,,,,,,,,,,,,,,,,P143,001,2025-04-09_12h14.09.439,posner_endo_new1,2024.2.4,59.96066580322332,2025-04-09 12h14.19.140767 +0100,
cube_l.png,0.1,-0.31,valid,6,6,0,down,3.0731544000009308,None,space,0.2749325000004319,None,0,6,6,0,,,,,,,,,55.0582990999992,,,,,,,,,,,,,55.04265139999916,55.0582990999992,55.0582990999992,55.0582990999992,58.13969949999955,down,3.0731544000009308,None,58.14585149999948,58.15768449999996,58.15768449999996,58.205444299999726,58.20566390000022,58.22179390000019,58.22179390000019,58.22179390000019,58.30522459999884,58.50594389999969,space,0.2749325000004319,None,,,,,,,,,,,,,,,,,,,,,,,,,P143,001,2025-04-09_12h14.09.439,posner_endo_new1,2024.2.4,59.96066580322332,2025-04-09 12h14.19.140767 +0100,
cube_l.png,0.1,-0.31,valid,7,7,0,down,3.5696610000013607,None,space,0.2938116000004811,None,0,7,7,4,,,,,,,,,58.52177579999989,,,,,,,,,,,,,58.50610469999992,58.52177579999989,58.52177579999989,58.52177579999989,62.10194489999958,down,3.5696610000013607,None,62.1084308999998,62.120270499999606,62.120270499999606,62.16787459999978,62.16809470000044,62.184527100000196,62.184527100000196,62.184527100000196,62.25121709999985,62.48491979999926,space,0.2938116000004811,None,,,,,,,,,,,,,,,,,,,,,,,,,P143,001,2025-04-09_12h14.09.439,posner_endo_new1,2024.2.4,59.96066580322332,2025-04-09 12h14.19.140767 +0100,
cube_r.png,0.1,10,catch,8,8,0,down,2.039306499998929,None,None,,,0,8,8,3,,,,,,,,,62.500833899999634,,,,,,,,,,,,,62.48508140000013,62.500833899999634,62.500833899999634,62.500833899999634,64.549465099999,down,2.039306499998929,None,64.55574390000038,64.56733069999973,64.56733069999973,64.61536979999983,64.61559269999998,64.63162000000011,64.63162000000011,64.63162000000011,64.71535419999964,67.6294543999993,None,,,66.7300935000003,67.64558529999886,67.64558529999886,67.64558529999886,,,,,,,,,,,,,,,,,,,,,P143,001,2025-04-09_12h14.09.439,posner_endo_new1,2024.2.4,59.96066580322332,2025-04-09 12h14.19.140767 +0100,
cube_r.png,0.1,0.31,valid,9,9,0,down,0.6140349999986938,None,space,0.5058940999988408,None,0,9,9,7,,,,,,,,,67.64558529999886,,,,,,,,,,,,,67.62960349999958,67.64558529999886,67.64558529999886,67.64558529999886,68.2622594000004,down,0.6140349999986938,None,68.26844119999987,68.2803958000004,68.2803958000004,68.32837739999923,68.32860069999879,68.34494409999934,68.34494409999934,68.34494409999934,68.41150989999915,68.86177239999961,space,0.5058940999988408,None,,,,,,,,,,,,,,,,,,,,,,,,,P143,001,2025-04-09_12h14.09.439,posner_endo_new1,2024.2.4,59.96066580322332,2025-04-09 12h14.19.140767 +0100,
cube_l.png,0.1,0.31,invalid,10,10,0,down,2.981950899998992,None,space,0.28999370000019553,None,0,10,10,1,,,,,,,,,68.87787969999954,,,,,,,,,,,,,68.86193060000005,68.87787969999954,68.87787969999954,68.87787969999954,71.87553230000049,down,2.981950899998992,None,71.88161169999876,71.8935032999998,71.8935032999998,71.94121489999998,71.94143789999907,71.95804039999894,71.95804039999894,71.95804039999894,72.04137199999968,72.25833129999955,space,0.28999370000019553,None,,,,,,,,,,,,,,,,,,,,,,,,,P143,001,2025-04-09_12h14.09.439,posner_endo_new1,2024.2.4,59.96066580322332,2025-04-09 12h14.19.140767 +0100,
,,,,,,,,,,,,,,,,,,,,,,,,,,,,,,,,,,72.25844560000041,72.2742347000003,75.2747844000005,75.25481949999994,,,,,,,,,,,,,,,,,,,,,,,,,,,,,,,,,,,,,,,,,,,,,,P143,001,2025-04-09_12h14.09.439,posner_endo_new1,2024.2.4,59.96066580322332,2025-04-09 12h14.19.140767 +0100,
cube_l.png,0.1,10,catch,0,0,0,down,4.60970769999949,None,None,,,,,,,0,0,0,0,,,,,75.2747844000005,,,,,,,,,,,,,75.2660137999992,75.2747844000005,75.2747844000005,75.2747844000005,79.9005804999997,,,,79.90676679999888,79.9185379999999,79.9185379999999,79.96649470000011,79.966720299999,79.98298429999886,79.98298429999886,79.98298429999886,80.04971159999877,82.98042890000033,,,,82.06416979999995,82.99650800000018,82.99650800000018,82.99650800000018,down,4.60970769999949,None,None,,,,,,,,,,,,,,,,,P143,001,2025-04-09_12h14.09.439,posner_endo_new1,2024.2.4,59.96066580322332,2025-04-09 12h14.19.140767 +0100,
cube_l.png,0.1,10,catch,1,1,0,down,3.5274618999992526,None,None,,,,,,,0,1,1,1,,,,,82.99650800000018,,,,,,,,,,,,,82.98058610000044,82.99650800000018,82.99650800000018,82.99650800000018,86.52716919999875,,,,86.53353269999934,86.54538370000046,86.54538370000046,86.59301609999966,86.59323789999871,86.60952449999968,86.60952449999968,86.60952449999968,86.6926943999988,89.60680709999906,,,,88.70749950000027,89.6232043,89.6232043,89.6232043,down,3.5274618999992526,None,None,,,,,,,,,,,,,,,,,P143,001,2025-04-09_12h14.09.439,posner_endo_new1,2024.2.4,59.96066580322332,2025-04-09 12h14.19.140767 +0100,
cube_l.png,0.1,0.31,invalid,2,2,0,down,0.4843658999998297,None,space,0.42359880000003614,None,,,,,0,2,2,2,,,,,89.6232043,,,,,,,,,,,,,89.60696259999895,89.6232043,89.6232043,89.6232043,90.12344320000011,,,,90.12960569999996,90.14145649999955,90.14145649999955,90.18927959999928,90.18950269999914,90.2057719000004,90.2057719000004,90.2057719000004,90.27250879999883,90.63957680000021,,,,,,,,down,0.4843658999998297,None,space,0.42359880000003614,None,,,,,,,,,,,,,,,P143,001,2025-04-09_12h14.09.439,posner_endo_new1,2024.2.4,59.96066580322332,2025-04-09 12h14.19.140767 +0100,
cube_l.png,0.1,0.31,invalid,3,3,0,down,2.6443693000001076,None,space,0.3646914000000834,None,,,,,0,3,3,3,,,,,90.6554713000005,,,,,,,,,,,,,90.6397606999999,90.6554713000005,90.6554713000005,90.6554713000005,93.30372340000031,,,,93.30984530000023,93.32161909999922,93.32161909999922,93.36942679999993,93.36964809999881,93.38600310000038,93.38600310000038,93.38600310000038,93.46925639999972,93.75324849999924,,,,,,,,down,2.6443693000001076,None,space,0.3646914000000834,None,,,,,,,,,,,,,,,P143,001,2025-04-09_12h14.09.439,posner_endo_new1,2024.2.4,59.96066580322332,2025-04-09 12h14.19.140767 +0100,
cube_l.png,0.1,-0.31,valid,4,4,0,down,2.2269628000012744,None,space,0.31687630000124045,None,,,,,0,4,4,4,,,,,93.76909179999893,,,,,,,,,,,,,93.75341809999918,93.76909179999893,93.76909179999893,93.76909179999893,96.00078930000018,,,,96.0069566000002,96.01874789999965,96.01874789999965,96.06688079999913,96.06710170000042,96.08345259999987,96.08345259999987,96.08345259999987,96.14973429999918,96.41704919999938,,,,,,,,down,2.2269628000012744,None,space,0.31687630000124045,None,,,,,,,,,,,,,,,P143,001,2025-04-09_12h14.09.439,posner_endo_new1,2024.2.4,59.96066580322332,2025-04-09 12h14.19.140767 +0100,
cube_r.png,0.1,-0.31,invalid,5,5,0,down,2.9869111999996676,None,space,0.21332319999964966,None,,,,,0,5,5,5,,,,,96.4329689999995,,,,,,,,,,,,,96.41721990000042,96.4329689999995,96.4329689999995,96.4329689999995,99.43060229999901,,,,99.43670849999944,99.44823150000047,99.44823150000047,99.49615379999886,99.49637369999982,99.5129227999987,99.5129227999987,99.5129227999987,99.59614460000012,99.73041679999915,,,,,,,,down,2.9869111999996676,None,space,0.21332319999964966,None,,,,,,,,,,,,,,,P143,001,2025-04-09_12h14.09.439,posner_endo_new1,2024.2.4,59.96066580322332,2025-04-09 12h14.19.140767 +0100,
cube_r.png,0.1,0.31,valid,6,6,0,down,2.9304828999993333,None,space,0.3249230000001262,None,,,,,0,6,6,6,,,,,99.7459646999996,,,,,,,,,,,,,99.73058589999891,99.7459646999996,99.7459646999996,99.7459646999996,102.67717409999932,,,,102.68337989999964,102.69511739999871,102.69511739999871,102.74304610000036,102.74326610000026,102.75974229999883,102.75974229999883,102.75974229999883,102.82617000000027,103.09355109999888,,,,,,,,down,2.9304828999993333,None,space,0.3249230000001262,None,,,,,,,,,,,,,,,P143,001,2025-04-09_12h14.09.439,posner_endo_new1,2024.2.4,59.96066580322332,2025-04-09 12h14.19.140767 +0100,
cube_r.png,0.1,-0.31,invalid,7,7,0,down,2.9666324999998324,None,space,0.39615150000099675,None,,,,,0,7,7,7,,,,,103.10964459999923,,,,,,,,,,,,,103.09372239999902,103.10964459999923,103.10964459999923,103.10964459999923,106.09052399999928,,,,106.09664379999958,106.10851720000028,106.10851720000028,106.15641309999955,106.15663680000034,106.17291829999886,106.17291829999886,106.17291829999886,106.2563969999992,106.57320880000043,,,,,,,,down,2.9666324999998324,None,space,0.39615150000099675,None,,,,,,,,,,,,,,,P143,001,2025-04-09_12h14.09.439,posner_endo_new1,2024.2.4,59.96066580322332,2025-04-09 12h14.19.140767 +0100,
cube_l.png,0.1,-0.31,valid,8,8,0,down,3.487151499999527,None,space,0.3265957999992679,None,,,,,0,8,8,8,,,,,106.5891176999994,,,,,,,,,,,,,106.57337919999918,106.5891176999994,106.5891176999994,106.5891176999994,110.08618939999906,,,,110.09229779999987,110.1038967000004,110.1038967000004,110.15227029999915,110.15249269999913,110.16884829999981,110.16884829999981,110.16884829999981,110.23561719999998,110.50248350000038,,,,,,,,down,3.487151499999527,None,space,0.3265957999992679,None,,,,,,,,,,,,,,,P143,001,2025-04-09_12h14.09.439,posner_endo_new1,2024.2.4,59.96066580322332,2025-04-09 12h14.19.140767 +0100,
cube_r.png,0.1,-0.31,invalid,9,9,0,down,2.637101000000257,None,space,0.4320286000001943,None,,,,,0,9,9,9,,,,,110.51851799999895,,,,,,,,,,,,,110.50265299999955,110.51851799999895,110.51851799999895,110.51851799999895,113.1668355999991,,,,113.17305800000031,113.18519430000015,113.18519430000015,113.23257240000021,113.23279419999926,113.24919620000037,113.24919620000037,113.24919620000037,113.33244840000043,113.68294989999958,,,,,,,,down,2.637101000000257,None,space,0.4320286000001943,None,,,,,,,,,,,,,,,P143,001,2025-04-09_12h14.09.439,posner_endo_new1,2024.2.4,59.96066580322332,2025-04-09 12h14.19.140767 +0100,
cube_l.png,0.1,0.31,invalid,10,10,0,down,2.833556399998997,None,space,0.3140347999997175,None,,,,,0,10,10,10,,,,,113.698279799999,,,,,,,,,,,,,113.68312179999884,113.698279799999,113.698279799999,113.698279799999,116.54650039999979,,,,116.55268389999947,116.56446179999875,116.56446179999875,116.61239749999913,116.61261670000022,116.62910899999952,116.62910899999952,116.62910899999952,116.6957827999995,116.94592279999961,,,,,,,,down,2.833556399998997,None,space,0.3140347999997175,None,,,,,,,,,,,,,,,P143,001,2025-04-09_12h14.09.439,posner_endo_new1,2024.2.4,59.96066580322332,2025-04-09 12h14.19.140767 +0100,
cube_r.png,0.1,-0.31,invalid,11,11,0,down,3.274674199999936,None,space,0.23323859999982233,None,,,,,0,11,11,11,,,,,116.96178200000031,,,,,,,,,,,,,116.94610040000043,116.96178200000031,116.96178200000031,116.96178200000031,120.24280849999923,,,,120.24899379999988,120.26106629999958,120.26106629999958,120.30839849999938,120.30861969999933,120.3250678000004,120.3250678000004,120.3250678000004,120.39158599999973,120.55904809999993,,,,,,,,down,3.274674199999936,None,space,0.23323859999982233,None,,,,,,,,,,,,,,,P143,001,2025-04-09_12h14.09.439,posner_endo_new1,2024.2.4,59.96066580322332,2025-04-09 12h14.19.140767 +0100,
cube_r.png,0.1,0.31,valid,12,12,0,down,3.1820835000016814,None,space,0.3335487000003923,None,,,,,0,12,12,12,,,,,120.5749080000005,,,,,,,,,,,,,120.55922029999965,120.5749080000005,120.5749080000005,120.5749080000005,123.77234010000029,,,,123.77852050000001,123.79007449999881,123.79007449999881,123.83822899999905,123.83845089999886,123.8548824999998,123.8548824999998,123.8548824999998,123.93809019999935,124.20544410000002,,,,,,,,down,3.1820835000016814,None,space,0.3335487000003923,None,,,,,,,,,,,,,,,P143,001,2025-04-09_12h14.09.439,posner_endo_new1,2024.2.4,59.96066580322332,2025-04-09 12h14.19.140767 +0100,
cube_l.png,0.1,10,catch,13,13,0,down,3.399402700000792,None,None,,,,,,,0,13,13,13,,,,,124.22125620000043,,,,,,,,,,,,,124.20561759999873,124.22125620000043,124.22125620000043,124.22125620000043,127.63515109999935,,,,127.64133359999869,127.65316639999946,127.65316639999946,127.70127329999923,127.70149320000019,127.71779409999908,127.71779409999908,127.71779409999908,127.80095939999956,130.71497649999947,,,,129.81509709999955,130.73119529999894,130.73119529999894,130.73119529999894,down,3.399402700000792,None,None,,,,,,,,,,,,,,,,,P143,001,2025-04-09_12h14.09.439,posner_endo_new1,2024.2.4,59.96066580322332,2025-04-09 12h14.19.140767 +0100,
cube_r.png,0.1,-0.31,invalid,14,14,0,down,0.8330587000000378,None,space,0.33804240000063146,None,,,,,0,14,14,14,,,,,130.73119529999894,,,,,,,,,,,,,130.71513380000033,130.73119529999894,130.73119529999894,130.73119529999894,131.58115969999926,,,,131.5873107999996,131.59846079999988,131.59846079999988,131.64710519999971,131.6473258999995,131.66357400000015,131.66357400000015,131.66357400000015,131.73013549999996,132.01393180000014,,,,,,,,down,0.8330587000000378,None,space,0.33804240000063146,None,,,,,,,,,,,,,,,P143,001,2025-04-09_12h14.09.439,posner_endo_new1,2024.2.4,59.96066580322332,2025-04-09 12h14.19.140767 +0100,
cube_l.png,0.1,-0.31,valid,15,15,0,down,2.2060794000008173,None,space,0.34084619999885035,None,,,,,0,15,15,15,,,,,132.0298858999995,,,,,,,,,,,,,132.0141034999997,132.0298858999995,132.0298858999995,132.0298858999995,134.24449230000027,,,,134.25072369999907,134.2623524999999,134.2623524999999,134.3109141999994,134.31113679999908,134.32761089999985,134.32761089999985,134.32761089999985,134.39411889999974,134.67777709999973,,,,,,,,down,2.2060794000008173,None,space,0.34084619999885035,None,,,,,,,,,,,,,,,P143,001,2025-04-09_12h14.09.439,posner_endo_new1,2024.2.4,59.96066580322332,2025-04-09 12h14.19.140767 +0100,
cube_r.png,0.1,10,catch,16,16,0,down,3.7107866000005743,None,None,,,,,,,0,16,16,16,,,,,134.6937410999999,,,,,,,,,,,,,134.67794510000022,134.6937410999999,134.6937410999999,134.6937410999999,138.4073583999998,,,,138.4134243999997,138.42486110000027,138.42486110000027,138.4735454999991,138.47376839999924,138.4898589000004,138.4898589000004,138.4898589000004,138.55658690000018,141.48736329999883,,,,140.57112450000022,141.5035700999997,141.5035700999997,141.5035700999997,down,3.7107866000005743,None,None,,,,,,,,,,,,,,,,,P143,001,2025-04-09_12h14.09.439,posner_endo_new1,2024.2.4,59.96066580322332,2025-04-09 12h14.19.140767 +0100,
cube_r.png,0.1,10,catch,17,17,0,down,1.2203612000012072,None,None,,,,,,,0,17,17,17,,,,,141.5035700999997,,,,,,,,,,,,,141.48752129999957,141.5035700999997,141.5035700999997,141.5035700999997,142.7362852999995,,,,142.74258290000034,142.75473260000035,142.75473260000035,142.80227860000014,142.80250259999957,142.8189139999995,142.8189139999995,142.8189139999995,142.90212520000023,145.81608339999912,,,,144.916712799999,145.83231849999902,145.83231849999902,145.83231849999902,down,1.2203612000012072,None,None,,,,,,,,,,,,,,,,,P143,001,2025-04-09_12h14.09.439,posner_endo_new1,2024.2.4,59.96066580322332,2025-04-09 12h14.19.140767 +0100,
cube_l.png,0.1,0.31,invalid,18,18,0,down,0.6517080999983591,None,space,0.468328200000542,None,,,,,0,18,18,18,,,,,145.83231849999902,,,,,,,,,,,,,145.8162401999998,145.83231849999902,145.83231849999902,145.83231849999902,146.49919520000003,,,,146.50534999999945,146.51695759999893,146.51695759999893,146.5652184999999,146.56544219999887,146.58157989999927,146.58157989999927,146.58157989999927,146.6482501999999,147.06531259999974,,,,,,,,down,0.6517080999983591,None,space,0.468328200000542,None,,,,,,,,,,,,,,,P143,001,2025-04-09_12h14.09.439,posner_endo_new1,2024.2.4,59.96066580322332,2025-04-09 12h14.19.140767 +0100,
cube_l.png,0.1,10,catch,19,19,0,down,2.315388700000767,None,None,,,,,,,0,19,19,19,,,,,147.08098699999937,,,,,,,,,,,,,147.0654811000004,147.08098699999937,147.08098699999937,147.08098699999937,149.4129522000003,,,,149.4191547999999,149.43056669999896,149.43056669999896,149.4788768999988,149.4791069999992,149.4953690000002,149.4953690000002,149.4953690000002,149.56206389999898,152.49292160000005,,,,151.5764691000004,152.50904809999884,152.50904809999884,152.50904809999884,down,2.315388700000767,None,None,,,,,,,,,,,,,,,,,P143,001,2025-04-09_12h14.09.439,posner_endo_new1,2024.2.4,59.96066580322332,2025-04-09 12h14.19.140767 +0100,
cube_l.png,0.1,0.31,invalid,20,20,0,down,0.14339909999944211,None,space,0.37805780000053346,None,,,,,0,20,20,20,,,,,152.50904809999884,,,,,,,,,,,,,152.49307939999926,152.50904809999884,152.50904809999884,152.50904809999884,152.65965340000002,,,,152.66593359999933,152.6776418999998,152.6776418999998,152.7254439999997,152.7256680999999,152.74201319999884,152.74201319999884,152.74201319999884,152.8088248999993,153.12543679999908,,,,,,,,down,0.14339909999944211,None,space,0.37805780000053346,None,,,,,,,,,,,,,,,P143,001,2025-04-09_12h14.09.439,posner_endo_new1,2024.2.4,59.96066580322332,2025-04-09 12h14.19.140767 +0100,
cube_l.png,0.1,-0.31,valid,21,21,0,down,2.7901637999984814,None,space,0.3659067000007781,None,,,,,0,21,21,21,,,,,153.1416410999991,,,,,,,,,,,,,153.12561379999897,153.1416410999991,153.1416410999991,153.1416410999991,155.9395053999997,,,,155.9457284,155.9575877999996,155.9575877999996,156.00533369999903,156.00555340000028,156.02205779999895,156.02205779999895,156.02205779999895,156.08850689999963,156.3893423999998,,,,,,,,down,2.7901637999984814,None,space,0.3659067000007781,None,,,,,,,,,,,,,,,P143,001,2025-04-09_12h14.09.439,posner_endo_new1,2024.2.4,59.96066580322332,2025-04-09 12h14.19.140767 +0100,
cube_r.png,0.1,0.31,valid,22,22,0,down,2.3269030999999814,None,space,0.35329319999982545,None,,,,,0,22,22,22,,,,,156.4051440000003,,,,,,,,,,,,,156.38951169999928,156.4051440000003,156.4051440000003,156.4051440000003,158.73673979999876,,,,158.7428600000003,158.75454089999948,158.75454089999948,158.8026489999993,158.80287569999928,158.8192743999989,158.8192743999989,158.8192743999989,158.90258419999918,159.18634009999914,,,,,,,,down,2.3269030999999814,None,space,0.35329319999982545,None,,,,,,,,,,,,,,,P143,001,2025-04-09_12h14.09.439,posner_endo_new1,2024.2.4,59.96066580322332,2025-04-09 12h14.19.140767 +0100,
cube_r.png,0.1,-0.31,invalid,23,23,0,down,3.2504589000000124,None,space,0.37592059999951744,None,,,,,0,23,23,23,,,,,159.20202009999957,,,,,,,,,,,,,159.18650999999954,159.20202009999957,159.20202009999957,159.20202009999957,162.46618449999914,,,,162.47617100000025,162.4863867999993,162.4863867999993,162.53196500000013,162.5324017999992,162.54836409999916,162.54836409999916,162.54836409999916,162.6316924999992,162.93234610000036,,,,,,,,down,3.2504589000000124,None,space,0.37592059999951744,None,,,,,,,,,,,,,,,P143,001,2025-04-09_12h14.09.439,posner_endo_new1,2024.2.4,59.96066580322332,2025-04-09 12h14.19.140767 +0100,
cube_r.png,0.1,0.31,valid,24,24,0,down,2.1195454000007885,None,space,0.3692474999988917,None,,,,,0,24,24,24,,,,,162.94838489999893,,,,,,,,,,,,,162.93259469999975,162.94838489999893,162.94838489999893,162.94838489999893,165.08060589999877,,,,165.09067390000018,165.10070129999986,165.10070129999986,165.14627739999924,165.14657719999923,165.162444399999,165.162444399999,165.162444399999,165.24617529999887,165.54671229999985,,,,,,,,down,2.1195454000007885,None,space,0.3692474999988917,None,,,,,,,,,,,,,,,P143,001,2025-04-09_12h14.09.439,posner_endo_new1,2024.2.4,59.96066580322332,2025-04-09 12h14.19.140767 +0100,
cube_r.png,0.1,-0.31,invalid,25,25,0,down,2.602289300000848,None,space,0.4097884000002523,None,,,,,0,25,25,25,,,,,165.5623502999988,,,,,,,,,,,,,165.5469706999993,165.5623502999988,165.5623502999988,165.5623502999988,168.17727159999959,,,,168.1871981000004,168.19726379999884,168.19726379999884,168.2431319999996,168.24343520000002,168.2595951000003,168.2595951000003,168.2595951000003,168.34281349999947,168.67688369999996,,,,,,,,down,2.602289300000848,None,space,0.4097884000002523,None,,,,,,,,,,,,,,,P143,001,2025-04-09_12h14.09.439,posner_endo_new1,2024.2.4,59.96066580322332,2025-04-09 12h14.19.140767 +0100,
cube_l.png,0.1,-0.31,valid,26,26,0,down,2.5682957000008173,None,space,0.307594899999458,None,,,,,0,26,26,26,,,,,168.6921609000001,,,,,,,,,,,,,168.67713340000046,168.6921609000001,168.6921609000001,168.6921609000001,171.27415759999894,,,,171.28418280000005,171.29430719999982,171.29430719999982,171.33984359999886,171.34014500000012,171.35655939999924,171.35655939999924,171.35655939999924,171.43935129999954,171.67360459999873,,,,,,,,down,2.5682957000008173,None,space,0.307594899999458,None,,,,,,,,,,,,,,,P143,001,2025-04-09_12h14.09.439,posner_endo_new1,2024.2.4,59.96066580322332,2025-04-09 12h14.19.140767 +0100,
cube_r.png,0.1,0.31,valid,27,27,0,down,2.6991574999992736,None,space,0.36547190000055707,None,,,,,0,27,27,27,,,,,171.68913149999935,,,,,,,,,,,,,171.6738538999998,171.68913149999935,171.68913149999935,171.68913149999935,174.40433239999948,,,,174.41437649999898,174.42444710000018,174.42444710000018,174.4697785999997,174.4700783999997,174.4866069999989,174.4866069999989,174.4866069999989,174.56959459999962,174.8542054999998,,,,,,,,down,2.6991574999992736,None,space,0.36547190000055707,None,,,,,,,,,,,,,,,P143,001,2025-04-09_12h14.09.439,posner_endo_new1,2024.2.4,59.96066580322332,2025-04-09 12h14.19.140767 +0100,
cube_r.png,0.1,10,catch,28,28,0,down,2.311240600000019,None,None,,,,,,,0,28,28,28,,,,,174.86914419999994,,,,,,,,,,,,,174.85445809999874,174.86914419999994,174.86914419999994,174.86914419999994,177.18452509999952,,,,177.19449259999965,177.20456469999954,177.20456469999954,177.2506156999989,177.25091839999914,177.266882599999,177.266882599999,177.266882599999,177.33362699999998,180.26462319999882,,,,179.34797789999902,180.28028300000005,180.28028300000005,180.28028300000005,down,2.311240600000019,None,None,,,,,,,,,,,,,,,,,P143,001,2025-04-09_12h14.09.439,posner_endo_new1,2024.2.4,59.96066580322332,2025-04-09 12h14.19.140767 +0100,
cube_r.png,0.1,0.31,valid,29,29,0,down,0.25153639999916777,None,space,0.43478570000115724,None,,,,,0,29,29,29,,,,,180.28028300000005,,,,,,,,,,,,,180.2648541999988,180.28028300000005,180.28028300000005,180.28028300000005,180.54816749999918,,,,180.55834680000044,180.56846629999927,180.56846629999927,180.61388909999914,180.61420089999956,180.62987619999876,180.62987619999876,180.62987619999876,180.7135218000003,181.08041419999972,,,,,,,,down,0.25153639999916777,None,space,0.43478570000115724,None,,,,,,,,,,,,,,,P143,001,2025-04-09_12h14.09.439,posner_endo_new1,2024.2.4,59.96066580322332,2025-04-09 12h14.19.140767 +0100,
cube_r.png,0.1,0.31,valid,30,30,0,down,2.4914217999994435,None,space,0.3348802999989857,None,,,,,0,30,30,30,,,,,181.09648639999978,,,,,,,,,,,,,181.08066990000043,181.09648639999978,181.09648639999978,181.09648639999978,183.5948860999997,,,,183.6047600999991,183.6147022999994,183.6147022999994,183.66061069999887,183.66091899999992,183.67715709999902,183.67715709999902,183.67715709999902,183.76032769999983,184.02793310000015,,,,,,,,down,2.4914217999994435,None,space,0.3348802999989857,None,,,,,,,,,,,,,,,P143,001,2025-04-09_12h14.09.439,posner_endo_new1,2024.2.4,59.96066580322332,2025-04-09 12h14.19.140767 +0100,
cube_l.png,0.1,-0.31,valid,31,31,0,down,2.9532061999998405,None,space,0.2879851999987295,None,,,,,0,31,31,31,,,,,184.04308390000006,,,,,,,,,,,,,184.02818809999917,184.04308390000006,184.04308390000006,184.04308390000006,187.00789819999954,,,,187.01798690000032,187.02806359999886,187.02806359999886,187.07382019999932,187.07412180000028,187.09013669999877,187.09013669999877,187.09013669999877,187.17362159999902,187.3910419999993,,,,,,,,down,2.9532061999998405,None,space,0.2879851999987295,None,,,,,,,,,,,,,,,P143,001,2025-04-09_12h14.09.439,posner_endo_new1,2024.2.4,59.96066580322332,2025-04-09 12h14.19.140767 +0100,
cube_r.png,0.1,0.31,valid,32,32,0,down,2.965644500000053,None,space,0.3462078000011388,None,,,,,0,32,32,32,,,,,187.4065645999999,,,,,,,,,,,,,187.3912951000002,187.4065645999999,187.4065645999999,187.4065645999999,190.38798560000032,,,,190.3979922999988,190.40801749999991,190.40801749999991,190.4538164000005,190.4541197999988,190.4702774999987,190.4702774999987,190.4702774999987,190.5535136999988,190.8211640999998,,,,,,,,down,2.965644500000053,None,space,0.3462078000011388,None,,,,,,,,,,,,,,,P143,001,2025-04-09_12h14.09.439,posner_endo_new1,2024.2.4,59.96066580322332,2025-04-09 12h14.19.140767 +0100,
cube_r.png,0.1,-0.31,invalid,33,33,0,down,2.7200960999998642,None,space,0.29827149999982794,None,,,,,0,33,33,33,,,,,190.8365475999999,,,,,,,,,,,,,190.82141769999907,190.8365475999999,190.8365475999999,190.8365475999999,193.56771630000003,,,,193.57771519999915,193.58787139999913,193.58787139999913,193.6339924999993,193.63429619999988,193.65036489999875,193.65036489999875,193.65036489999875,193.73334880000039,193.95083049999994,,,,,,,,down,2.7200960999998642,None,space,0.29827149999982794,None,,,,,,,,,,,,,,,P143,001,2025-04-09_12h14.09.439,posner_endo_new1,2024.2.4,59.96066580322332,2025-04-09 12h14.19.140767 +0100,
cube_r.png,0.1,10,catch,34,34,0,down,2.9169463999987784,None,None,,,,,,,0,34,34,34,,,,,193.9668400999999,,,,,,,,,,,,,193.95107629999984,193.9668400999999,193.9668400999999,193.9668400999999,196.89807999999903,,,,196.90819929999998,196.91841720000048,196.91841720000048,196.96340710000004,196.96371439999893,196.98005319999902,196.98005319999902,196.98005319999902,197.06356979999873,199.97783919999893,,,,199.07812279999962,199.9937857999994,199.9937857999994,199.9937857999994,down,2.9169463999987784,None,None,,,,,,,,,,,,,,,,,P143,001,2025-04-09_12h14.09.439,posner_endo_new1,2024.2.4,59.96066580322332,2025-04-09 12h14.19.140767 +0100,
cube_r.png,0.1,0.31,valid,35,35,0,down,0.45111809999980323,None,space,0.36565429999973276,None,,,,,0,35,35,35,,,,,199.9937857999994,,,,,,,,,,,,,199.9780684999987,199.9937857999994,199.9937857999994,199.9937857999994,200.46074469999985,,,,200.47065230000044,200.48078170000008,200.48078170000008,200.52643399999943,200.5267361999995,200.54298589999962,200.54298589999962,200.54298589999962,200.62644499999988,200.91083789999902,,,,,,,,down,0.45111809999980323,None,space,0.36565429999973276,None,,,,,,,,,,,,,,,P143,001,2025-04-09_12h14.09.439,posner_endo_new1,2024.2.4,59.96066580322332,2025-04-09 12h14.19.140767 +0100,
cube_r.png,0.1,-0.31,invalid,36,36,0,down,3.774483400000463,None,space,0.3911205999993399,None,,,,,0,36,36,36,,,,,200.925835,,,,,,,,,,,,,200.91108770000028,200.925835,200.925835,200.925835,204.70682859999943,,,,204.71702299999924,204.72702500000014,204.72702500000014,204.77215780000006,204.77247390000048,204.78902989999915,204.78902989999915,204.78902989999915,204.8720983000003,205.1891687999996,,,,,,,,down,3.774483400000463,None,space,0.3911205999993399,None,,,,,,,,,,,,,,,P143,001,2025-04-09_12h14.09.439,posner_endo_new1,2024.2.4,59.96066580322332,2025-04-09 12h14.19.140767 +0100,
cube_l.png,0.1,0.31,invalid,37,37,0,down,2.1594430999994074,None,space,0.39347880000059376,None,,,,,0,37,37,37,,,,,205.2049017999998,,,,,,,,,,,,,205.18942939999943,205.2049017999998,205.2049017999998,205.2049017999998,207.37064110000028,,,,207.38104600000042,207.3910753,207.3910753,207.43615750000026,207.4364657999995,207.4527634999995,207.4527634999995,207.4527634999995,207.53601290000006,207.853518599999,,,,,,,,down,2.1594430999994074,None,space,0.39347880000059376,None,,,,,,,,,,,,,,,P143,001,2025-04-09_12h14.09.439,posner_endo_new1,2024.2.4,59.96066580322332,2025-04-09 12h14.19.140767 +0100,
cube_l.png,0.1,0.31,invalid,38,38,0,down,3.4710350000004837,None,space,0.3402306999996654,None,,,,,0,38,38,38,,,,,207.86920869999994,,,,,,,,,,,,,207.85376759999963,207.86920869999994,207.86920869999994,207.86920869999994,211.3498443999997,,,,211.3596407999994,211.36976729999878,211.36976729999878,211.41568480000024,211.41598750000048,211.43198049999955,211.43198049999955,211.43198049999955,211.51551970000037,211.78240749999895,,,,,,,,down,3.4710350000004837,None,space,0.3402306999996654,None,,,,,,,,,,,,,,,P143,001,2025-04-09_12h14.09.439,posner_endo_new1,2024.2.4,59.96066580322332,2025-04-09 12h14.19.140767 +0100,
cube_r.png,0.1,0.31,valid,39,39,0,down,2.845799900000202,None,space,0.3753340000002936,None,,,,,0,39,39,39,,,,,211.79840839999997,,,,,,,,,,,,,211.7826563999988,211.79840839999997,211.79840839999997,211.79840839999997,214.64666719999877,,,,214.6564746999993,214.66655379999975,214.66655379999975,214.7122500000005,214.7125509999987,214.7288778000002,214.7288778000002,214.7288778000002,214.81177790000038,215.11265999999887,,,,,,,,down,2.845799900000202,None,space,0.3753340000002936,None,,,,,,,,,,,,,,,P143,001,2025-04-09_12h14.09.439,posner_endo_new1,2024.2.4,59.96066580322332,2025-04-09 12h14.19.140767 +0100,
cube_l.png,0.1,0.31,invalid,40,40,0,down,2.8519573000012315,None,space,0.45684979999896314,None,,,,,0,40,40,40,,,,,215.12856459999966,,,,,,,,,,,,,215.11290729999928,215.12856459999966,215.12856459999966,215.12856459999966,217.99297549999937,,,,218.0027528999999,218.01284779999878,218.01284779999878,218.05860109999958,218.05890389999877,218.0754281999998,218.0754281999998,218.0754281999998,218.14193549999982,218.54259610000008,,,,,,,,down,2.8519573000012315,None,space,0.45684979999896314,None,,,,,,,,,,,,,,,P143,001,2025-04-09_12h14.09.439,posner_endo_new1,2024.2.4,59.96066580322332,2025-04-09 12h14.19.140767 +0100,
cube_l.png,0.1,10,catch,41,41,0,down,3.166089500000453,None,None,,,,,,,0,41,41,41,,,,,218.5582617,,,,,,,,,,,,,218.54284319999897,218.5582617,218.5582617,218.5582617,221.73945920000006,,,,221.74956649999876,221.75975730000027,221.75975730000027,221.80496289999974,221.80527169999914,221.8216124999999,221.8216124999999,221.8216124999999,221.90488659999937,224.81876790000024,,,,223.91908049999984,224.8349201000001,224.8349201000001,224.8349201000001,down,3.166089500000453,None,None,,,,,,,,,,,,,,,,,P143,001,2025-04-09_12h14.09.439,posner_endo_new1,2024.2.4,59.96066580322332,2025-04-09 12h14.19.140767 +0100,
cube_l.png,0.1,-0.31,valid,42,42,0,down,2.312939399998868,None,space,0.3321125000002212,None,,,,,0,42,42,42,,,,,224.8349201000001,,,,,,,,,,,,,224.81899559999874,224.8349201000001,224.8349201000001,224.8349201000001,227.15020120000008,,,,227.1602036000004,227.17034849999982,227.17034849999982,227.21629439999924,227.21659699999873,227.2326890000004,227.2326890000004,227.2326890000004,227.31606949999878,227.56687779999993,,,,,,,,down,2.312939399998868,None,space,0.3321125000002212,None,,,,,,,,,,,,,,,P143,001,2025-04-09_12h14.09.439,posner_endo_new1,2024.2.4,59.96066580322332,2025-04-09 12h14.19.140767 +0100,
cube_l.png,0.1,10,catch,43,43,0,down,2.7582791999993788,None,None,,,,,,,0,43,43,43,,,,,227.5820934000003,,,,,,,,,,,,,227.5671241,227.5820934000003,227.5820934000003,227.5820934000003,230.34701969999878,,,,230.35716460000003,230.36727059999976,230.36727059999976,230.41263679999975,230.41294259999995,230.42914840000049,230.42914840000049,230.42914840000049,230.5127339999999,233.42705579999893,,,,232.52689819999978,233.44271320000007,233.44271320000007,233.44271320000007,down,2.7582791999993788,None,None,,,,,,,,,,,,,,,,,P143,001,2025-04-09_12h14.09.439,posner_endo_new1,2024.2.4,59.96066580322332,2025-04-09 12h14.19.140767 +0100,
cube_l.png,0.1,0.31,invalid,44,44,0,down,5.16989840000133,None,space,0.35532400000010966,None,,,,,0,44,44,44,,,,,233.44271320000007,,,,,,,,,,,,,233.4272951999992,233.44271320000007,233.44271320000007,233.44271320000007,238.62169059999906,,,,238.63159129999985,238.64162659999965,238.64162659999965,238.68782549999924,238.68812739999885,238.70422130000043,238.70422130000043,238.70422130000043,238.7708987999995,239.07172869999886,,,,,,,,down,5.16989840000133,None,space,0.35532400000010966,None,,,,,,,,,,,,,,,P143,001,2025-04-09_12h14.09.439,posner_endo_new1,2024.2.4,59.96066580322332,2025-04-09 12h14.19.140767 +0100,
cube_l.png,0.1,0.31,invalid,45,45,0,down,3.3573520999998436,None,space,0.43294000000059896,None,,,,,0,45,45,45,,,,,239.0871150999992,,,,,,,,,,,,,239.07197789999918,239.0871150999992,239.0871150999992,239.0871150999992,242.4513694999987,,,,242.46154690000003,242.4715682999995,242.4715682999995,242.5171250000003,242.51742639999975,242.53351689999909,242.53351689999909,242.53351689999909,242.61696979999942,242.9677584000001,,,,,,,,down,3.3573520999998436,None,space,0.43294000000059896,None,,,,,,,,,,,,,,,P143,001,2025-04-09_12h14.09.439,posner_endo_new1,2024.2.4,59.96066580322332,2025-04-09 12h14.19.140767 +0100,
cube_r.png,0.1,0.31,valid,46,46,0,down,3.4771144000005734,None,space,0.36290009999902395,None,,,,,0,46,46,46,,,,,242.98331409999992,,,,,,,,,,,,,242.96800429999894,242.98331409999992,242.98331409999992,242.98331409999992,246.46416809999937,,,,246.47436430000016,246.4843151999994,246.4843151999994,246.52972239999872,246.53002679999918,246.54632180000044,246.54632180000044,246.54632180000044,246.6296745999989,246.91330170000037,,,,,,,,down,3.4771144000005734,None,space,0.36290009999902395,None,,,,,,,,,,,,,,,P143,001,2025-04-09_12h14.09.439,posner_endo_new1,2024.2.4,59.96066580322332,2025-04-09 12h14.19.140767 +0100,
cube_l.png,0.1,-0.31,valid,47,47,0,down,2.9708417000001646,None,space,0.31705459999830055,None,,,,,0,47,47,47,,,,,246.9293361,,,,,,,,,,,,,246.91354800000045,246.9293361,246.9293361,246.9293361,249.91019659999984,,,,249.92004169999927,249.93019129999993,249.93019129999993,249.97596639999938,249.9762813999987,249.99287530000038,249.99287530000038,249.99287530000038,250.07570209999903,250.32633859999987,,,,,,,,down,2.9708417000001646,None,space,0.31705459999830055,None,,,,,,,,,,,,,,,P143,001,2025-04-09_12h14.09.439,posner_endo_new1,2024.2.4,59.96066580322332,2025-04-09 12h14.19.140767 +0100,
cube_r.png,0.1,-0.31,invalid,48,48,0,down,2.6616222000011476,None,space,0.40709900000001653,None,,,,,0,48,48,48,,,,,250.34231349999936,,,,,,,,,,,,,250.32658379999884,250.34231349999936,250.34231349999936,250.34231349999936,253.00728829999935,,,,253.01719869999943,253.02728559999923,253.02728559999923,253.07322159999967,253.0735265000003,253.08965679999892,253.08965679999892,253.08965679999892,253.17258559999937,253.50684120000005,,,,,,,,down,2.6616222000011476,None,space,0.40709900000001653,None,,,,,,,,,,,,,,,P143,001,2025-04-09_12h14.09.439,posner_endo_new1,2024.2.4,59.96066580322332,2025-04-09 12h14.19.140767 +0100,
cube_r.png,0.1,10,catch,49,49,0,down,2.4571097000007285,None,None,,,,,,,0,49,49,49,,,,,253.52270259999932,,,,,,,,,,,,,253.50708789999953,253.52270259999932,253.52270259999932,253.52270259999932,255.98770879999938,,,,255.9975562999989,256.00772399999914,256.00772399999914,256.0532975999995,256.0535989,256.06963989999895,256.06963989999895,256.06963989999895,256.15280249999887,259.0674089000004,,,,258.16770349999933,259.08356249999997,259.08356249999997,259.08356249999997,down,2.4571097000007285,None,None,,,,,,,,,,,,,,,,,P143,001,2025-04-09_12h14.09.439,posner_endo_new1,2024.2.4,59.96066580322332,2025-04-09 12h14.19.140767 +0100,
cube_l.png,0.1,-0.31,valid,50,50,0,down,0.42519130000073346,None,space,0.4318036000004213,None,,,,,0,50,50,50,,,,,259.08356249999997,,,,,,,,,,,,,259.06763709999905,259.08356249999997,259.08356249999997,259.08356249999997,259.51720939999905,,,,259.52723270000024,259.5373032999996,259.5373032999996,259.58325289999993,259.58356189999904,259.59974059999877,259.59974059999877,259.59974059999877,259.6660166999991,260.0333460999991,,,,,,,,down,0.42519130000073346,None,space,0.4318036000004213,None,,,,,,,,,,,,,,,P143,001,2025-04-09_12h14.09.439,posner_endo_new1,2024.2.4,59.96066580322332,2025-04-09 12h14.19.140767 +0100,
cube_l.png,0.1,-0.31,valid,51,51,0,down,2.4426762999992206,None,space,0.397217499999897,None,,,,,0,51,51,51,,,,,260.04933359999995,,,,,,,,,,,,,260.0335963999987,260.04933359999995,260.04933359999995,260.04933359999995,262.4974282999992,,,,262.50732909999897,262.5174733999993,262.5174733999993,262.5635198,262.56382029999986,262.5797186,262.5797186,262.5797186,262.66329679999944,262.9806618999992,,,,,,,,down,2.4426762999992206,None,space,0.397217499999897,None,,,,,,,,,,,,,,,P143,001,2025-04-09_12h14.09.439,posner_endo_new1,2024.2.4,59.96066580322332,2025-04-09 12h14.19.140767 +0100,
cube_r.png,0.1,-0.31,invalid,52,52,0,down,3.5121546999998827,None,space,0.3510887999982515,None,,,,,0,52,52,52,,,,,262.9963011,,,,,,,,,,,,,262.9809105000004,262.9963011,262.9963011,262.9963011,266.51057319999927,,,,266.5205212000001,266.5307608000003,266.5307608000003,266.57604999999967,266.5763506000003,266.59252430000015,266.59252430000015,266.59252430000015,266.6756442999995,266.9596098999991,,,,,,,,down,3.5121546999998827,None,space,0.3510887999982515,None,,,,,,,,,,,,,,,P143,001,2025-04-09_12h14.09.439,posner_endo_new1,2024.2.4,59.96066580322332,2025-04-09 12h14.19.140767 +0100,
cube_l.png,0.1,-0.31,valid,53,53,0,down,4.844828799999959,None,space,0.3317922999995062,None,,,,,0,53,53,53,,,,,266.9753168999996,,,,,,,,,,,,,266.95986319999975,266.9753168999996,266.9753168999996,266.9753168999996,271.8216106,,,,271.83140619999904,271.8414899999989,271.8414899999989,271.88730229999965,271.8876117,271.90339610000046,271.90339610000046,271.90339610000046,271.9869877000001,272.23754389999885,,,,,,,,down,4.844828799999959,None,space,0.3317922999995062,None,,,,,,,,,,,,,,,P143,001,2025-04-09_12h14.09.439,posner_endo_new1,2024.2.4,59.96066580322332,2025-04-09 12h14.19.140767 +0100,
cube_r.png,0.1,10,catch,54,54,0,down,2.9194238999989466,None,None,,,,,,,0,54,54,54,,,,,272.25319689999924,,,,,,,,,,,,,272.2377954000003,272.25319689999924,272.25319689999924,272.25319689999924,275.18474810000043,,,,275.19441899999947,275.20455690000017,275.20455690000017,275.2504399999998,275.25074739999945,275.2667695,275.2667695,275.2667695,275.35007229999974,278.264498999999,,,,277.3645773999997,278.28023029999895,278.28023029999895,278.28023029999895,down,2.9194238999989466,None,None,,,,,,,,,,,,,,,,,P143,001,2025-04-09_12h14.09.439,posner_endo_new1,2024.2.4,59.96066580322332,2025-04-09 12h14.19.140767 +0100,
cube_l.png,0.1,0.31,invalid,55,55,0,down,None,None,space,0.3846379999995406,None,,,,,0,55,55,55,,,,,278.28023029999895,,,,,,,,,,,,,278.26474469999994,278.28023029999895,278.28023029999895,278.28023029999895,278.7643764000004,,,,278.7739982000003,278.7841021999993,278.7841021999993,278.829878999999,278.83018339999944,278.84667499999887,278.84667499999887,278.84667499999887,278.9130630999989,279.2473143999996,,,,,,,,down,None,None,space,0.3846379999995406,None,,,,,,,,,,,,,,,P143,001,2025-04-09_12h14.09.439,posner_endo_new1,2024.2.4,59.96066580322332,2025-04-09 12h14.19.140767 +0100,
cube_l.png,0.1,-0.31,valid,56,56,0,down,2.64555830000063,None,space,0.37364979999983916,None,,,,,0,56,56,56,,,,,279.26255239999955,,,,,,,,,,,,,279.24755860000005,279.26255239999955,279.26255239999955,279.26255239999955,281.9111929999999,,,,281.9209128000002,281.9311359000003,281.9311359000003,281.9769290000004,281.9772376000001,281.99329260000013,281.99329260000013,281.99329260000013,282.07646919999934,282.3772676999997,,,,,,,,down,2.64555830000063,None,space,0.37364979999983916,None,,,,,,,,,,,,,,,P143,001,2025-04-09_12h14.09.439,posner_endo_new1,2024.2.4,59.96066580322332,2025-04-09 12h14.19.140767 +0100,
cube_r.png,0.1,0.31,valid,57,57,0,down,2.9231110000000626,None,space,0.36150239999915357,None,,,,,0,57,57,57,,,,,282.39315369999895,,,,,,,,,,,,,282.3775175999999,282.39315369999895,282.39315369999895,282.39315369999895,285.32455069999924,,,,285.3342905999998,285.34446339999886,285.34446339999886,285.3898501999993,285.3901600999998,285.40664789999937,285.40664789999937,285.40664789999937,285.4898943999997,285.7741188,,,,,,,,down,2.9231110000000626,None,space,0.36150239999915357,None,,,,,,,,,,,,,,,P143,001,2025-04-09_12h14.09.439,posner_endo_new1,2024.2.4,59.96066580322332,2025-04-09 12h14.19.140767 +0100,
cube_r.png,0.1,-0.31,invalid,58,58,0,down,2.591466899999432,None,space,0.3627221999995527,None,,,,,0,58,58,58,,,,,285.7892677,,,,,,,,,,,,,285.7743642000005,285.7892677,285.7892677,285.7892677,288.38805049999974,,,,288.39775550000013,288.40785999999935,288.40785999999935,288.45370879999973,288.45401180000044,288.46983439999894,288.46983439999894,288.46983439999894,288.553054,288.8374712999994,,,,,,,,down,2.591466899999432,None,space,0.3627221999995527,None,,,,,,,,,,,,,,,P143,001,2025-04-09_12h14.09.439,posner_endo_new1,2024.2.4,59.96066580322332,2025-04-09 12h14.19.140767 +0100,
cube_l.png,0.1,0.31,invalid,59,59,0,down,2.55897399999958,None,space,0.4142843999998149,None,,,,,0,59,59,59,,,,,288.85302260000026,,,,,,,,,,,,,288.8377184000001,288.85302260000026,288.85302260000026,288.85302260000026,291.41839059999984,,,,291.4281350000001,291.43828439999925,291.43828439999925,291.4837585999994,291.4840755999994,291.5005229999988,291.5005229999988,291.5005229999988,291.5837348999994,291.9177990999997,,,,,,,,down,2.55897399999958,None,space,0.4142843999998149,None,,,,,,,,,,,,,,,P143,001,2025-04-09_12h14.09.439,posner_endo_new1,2024.2.4,59.96066580322332,2025-04-09 12h14.19.140767 +0100,
,,,,,,,,,,,,,,,,,,,,,,,,,,,,,,,,,,,,,,,,,,,,,,,,,,,,,,,,,,,,,,,,,,,,,291.9179573000001,291.9329141999988,291.9329141999988,351.93835079999917,369.27206359999946,space,77.32733129999906,None,,,,,,,P143,001,2025-04-09_12h14.09.439,posner_endo_new1,2024.2.4,59.96066580322332,2025-04-09 12h14.19.140767 +0100,
,,,,,,,,,,,,,,,,,,,,,,,,,,,,,,,,,,369.2721419999998,369.2876166999995,372.35796279999886,372.2684200999993,,,,,,,,,,,,,,,,,,,,,,,,,,,,,,,,,,,,,,,,,,,,,,P143,001,2025-04-09_12h14.09.439,posner_endo_new1,2024.2.4,59.96066580322332,2025-04-09 12h14.19.140767 +0100,
cube_l.png,0.1,10,catch,0,0,0,up,9.262579399999595,None,None,,,,,,,,,,,0,0,0,0,372.35796279999886,,,,,,,,,,,,,372.349635999999,372.35796279999886,372.35796279999886,372.35796279999886,381.6258275,,,,381.6320856000002,381.6440590000002,381.6440590000002,381.69186699999955,381.6920919999993,381.7079672999989,381.7079672999989,381.7079672999989,381.7915002999998,384.70564249999916,,,,383.8062668999992,384.72181660000024,384.72181660000024,384.72181660000024,,,,,,,,,,,,,,,up,9.262579399999595,None,None,,,P143,001,2025-04-09_12h14.09.439,posner_endo_new1,2024.2.4,59.96066580322332,2025-04-09 12h14.19.140767 +0100,
cube_l.png,0.1,10,catch,1,1,0,up,0.5708747000007861,None,None,,,,,,,,,,,0,1,1,1,384.72181660000024,,,,,,,,,,,,,384.7058066999998,384.72181660000024,384.72181660000024,384.72181660000024,385.3052425999995,,,,385.31132269999944,385.32295890000023,385.32295890000023,385.37135019999914,385.371573299999,385.38789109999925,385.38789109999925,385.38789109999925,385.4543985,388.38487030000033,,,,387.46907850000025,388.40168809999886,388.40168809999886,388.40168809999886,,,,,,,,,,,,,,,up,0.5708747000007861,None,None,,,P143,001,2025-04-09_12h14.09.439,posner_endo_new1,2024.2.4,59.96066580322332,2025-04-09 12h14.19.140767 +0100,
cube_l.png,0.1,0.31,invalid,2,2,0,up,0.17088440000043192,None,space,0.20292220000010275,None,,,,,,,,,0,2,2,2,388.40168809999886,,,,,,,,,,,,,388.3850294999993,388.40168809999886,388.40168809999886,388.40168809999886,388.5853396000002,,,,388.5913418,388.6029460999998,388.6029460999998,388.65123119999953,388.6514539,388.6679359999998,388.6679359999998,388.6679359999998,388.75108480000017,388.8849234999998,,,,,,,,,,,,,,,,,,,,,,up,0.17088440000043192,None,space,0.20292220000010275,None,P143,001,2025-04-09_12h14.09.439,posner_endo_new1,2024.2.4,59.96066580322332,2025-04-09 12h14.19.140767 +0100,
cube_l.png,0.1,0.31,invalid,3,3,0,up,2.832158699999127,None,space,0.3505280999997922,None,,,,,,,,,0,3,3,3,388.9007892999998,,,,,,,,,,,,,388.88509929999964,388.9007892999998,388.9007892999998,388.9007892999998,391.7486891999997,,,,391.7546717999994,391.7661936000004,391.7661936000004,391.8142728999992,391.8144948999998,391.8312840999988,391.8312840999988,391.8312840999988,391.89784399999917,392.1982143000005,,,,,,,,,,,,,,,,,,,,,,up,2.832158699999127,None,space,0.3505280999997922,None,P143,001,2025-04-09_12h14.09.439,posner_endo_new1,2024.2.4,59.96066580322332,2025-04-09 12h14.19.140767 +0100,
cube_l.png,0.1,-0.31,valid,4,4,0,up,2.8067549999996118,None,space,0.3595076000001427,None,,,,,,,,,0,4,4,4,392.2141257000003,,,,,,,,,,,,,392.1983879999989,392.2141257000003,392.2141257000003,392.2141257000003,395.0286288999996,,,,395.0346480999997,395.0461404999987,395.0461404999987,395.09479739999915,395.09502299999986,395.11126669999976,395.11126669999976,395.11126669999976,395.17771639999955,395.4782254999991,,,,,,,,,,,,,,,,,,,,,,up,2.8067549999996118,None,space,0.3595076000001427,None,P143,001,2025-04-09_12h14.09.439,posner_endo_new1,2024.2.4,59.96066580322332,2025-04-09 12h14.19.140767 +0100,
cube_r.png,0.1,-0.31,invalid,5,5,0,up,2.8943508000011207,None,space,0.45827749999989464,None,,,,,,,,,0,5,5,5,395.4939283999993,,,,,,,,,,,,,395.47839810000005,395.4939283999993,395.4939283999993,395.4939283999993,398.39228919999914,,,,398.4050413999994,398.41506449999906,398.41506449999906,398.4576111999995,398.4578571000002,398.4741923999991,398.4741923999991,398.4741923999991,398.55768960000023,398.94130719999885,,,,,,,,,,,,,,,,,,,,,,up,2.8943508000011207,None,space,0.45827749999989464,None,P143,001,2025-04-09_12h14.09.439,posner_endo_new1,2024.2.4,59.96066580322332,2025-04-09 12h14.19.140767 +0100,
cube_r.png,0.1,0.31,valid,6,6,0,up,3.2308479999992414,None,space,0.35819160000028205,None,,,,,,,,,0,6,6,6,398.9573495000004,,,,,,,,,,,,,398.94150739999895,398.9573495000004,398.9573495000004,398.9573495000004,402.2048440999988,,,,402.21248860000014,402.22325830000045,402.22325830000045,402.2702720999987,402.27052379999986,402.28658899999937,402.28658899999937,402.28658899999937,402.3705601999991,402.6542583999999,,,,,,,,,,,,,,,,,,,,,,up,3.2308479999992414,None,space,0.35819160000028205,None,P143,001,2025-04-09_12h14.09.439,posner_endo_new1,2024.2.4,59.96066580322332,2025-04-09 12h14.19.140767 +0100,
cube_r.png,0.1,-0.31,invalid,7,7,0,up,2.653938299999936,None,space,0.3910124999983964,None,,,,,,,,,0,7,7,7,402.67024239999955,,,,,,,,,,,,,402.654429799999,402.67024239999955,402.67024239999955,402.67024239999955,405.33485069999915,,,,405.3411237,405.3528444000003,405.3528444000003,405.40089699999953,405.4011210999997,405.4175656999996,405.4175656999996,405.4175656999996,405.48409849999916,405.8175558999992,,,,,,,,,,,,,,,,,,,,,,up,2.653938299999936,None,space,0.3910124999983964,None,P143,001,2025-04-09_12h14.09.439,posner_endo_new1,2024.2.4,59.96066580322332,2025-04-09 12h14.19.140767 +0100,
cube_l.png,0.1,-0.31,valid,8,8,0,up,3.154664800000319,None,space,0.3058185999998386,None,,,,,,,,,0,8,8,8,405.83360379999976,,,,,,,,,,,,,405.8177266999992,405.83360379999976,405.83360379999976,405.83360379999976,408.99789090000013,,,,409.0039610999993,409.01563650000026,409.01563650000026,409.06365650000043,409.06387899999936,409.0804528999997,409.0804528999997,409.0804528999997,409.163692099999,409.39747050000005,,,,,,,,,,,,,,,,,,,,,,up,3.154664800000319,None,space,0.3058185999998386,None,P143,001,2025-04-09_12h14.09.439,posner_endo_new1,2024.2.4,59.96066580322332,2025-04-09 12h14.19.140767 +0100,
cube_r.png,0.1,-0.31,invalid,9,9,0,up,2.943065800000113,None,space,0.346856400001343,None,,,,,,,,,0,9,9,9,409.4134264000004,,,,,,,,,,,,,409.3976432999989,409.4134264000004,409.4134264000004,409.4134264000004,412.3611089999995,,,,412.3672107000002,412.3790109999991,412.3790109999991,412.4269826999989,412.4272046999995,412.44363150000027,412.44363150000027,412.44363150000027,412.51006079999934,412.79417079999985,,,,,,,,,,,,,,,,,,,,,,up,2.943065800000113,None,space,0.346856400001343,None,P143,001,2025-04-09_12h14.09.439,posner_endo_new1,2024.2.4,59.96066580322332,2025-04-09 12h14.19.140767 +0100,
cube_l.png,0.1,0.31,invalid,10,10,0,up,3.0024181000007957,None,space,0.441243500001292,None,,,,,,,,,0,10,10,10,412.80983170000036,,,,,,,,,,,,,412.7943445000001,412.80983170000036,412.80983170000036,412.80983170000036,415.82417559999885,,,,415.83018660000016,415.8416613999998,415.8416613999998,415.8901432999992,415.8903653999987,415.9066858999995,415.9066858999995,415.9066858999995,415.98995789999935,416.3568803999988,,,,,,,,,,,,,,,,,,,,,,up,3.0024181000007957,None,space,0.441243500001292,None,P143,001,2025-04-09_12h14.09.439,posner_endo_new1,2024.2.4,59.96066580322332,2025-04-09 12h14.19.140767 +0100,
cube_r.png,0.1,-0.31,invalid,11,11,0,up,2.9437665000004927,None,space,0.22947840000051656,None,,,,,,,,,0,11,11,11,416.3729024000004,,,,,,,,,,,,,416.3570562999994,416.3729024000004,416.3729024000004,416.3729024000004,419.32074459999967,,,,419.3268608999988,419.3388415999998,419.3388415999998,419.3865403999989,419.3867637000003,419.40290449999884,419.40290449999884,419.40290449999884,419.48644649999915,419.6372021999996,,,,,,,,,,,,,,,,,,,,,,up,2.9437665000004927,None,space,0.22947840000051656,None,P143,001,2025-04-09_12h14.09.439,posner_endo_new1,2024.2.4,59.96066580322332,2025-04-09 12h14.19.140767 +0100,
cube_r.png,0.1,0.31,valid,12,12,0,up,2.223630200000116,None,space,0.40793090000079246,None,,,,,,,,,0,12,12,12,419.6531765999989,,,,,,,,,,,,,419.63737779999974,419.6531765999989,419.6531765999989,419.6531765999989,421.88460680000026,,,,421.8907748999991,421.90265460000046,421.90265460000046,421.95077109999875,421.95099449999907,421.96740750000026,421.96740750000026,421.96740750000026,422.03391530000044,422.38421339999877,,,,,,,,,,,,,,,,,,,,,,up,2.223630200000116,None,space,0.40793090000079246,None,P143,001,2025-04-09_12h14.09.439,posner_endo_new1,2024.2.4,59.96066580322332,2025-04-09 12h14.19.140767 +0100,
cube_l.png,0.1,10,catch,13,13,0,up,3.093132699999842,None,None,,,,,,,,,,,0,13,13,13,422.3999643999996,,,,,,,,,,,,,422.3843859999997,422.3999643999996,422.3999643999996,422.3999643999996,425.49761079999917,,,,425.5036206999994,425.51513539999905,425.51513539999905,425.56378330000007,425.56400759999997,425.58026450000034,425.58026450000034,425.58026450000034,425.64692979999927,428.5775842000003,,,,427.661500799999,428.59375139999975,428.59375139999975,428.59375139999975,,,,,,,,,,,,,,,up,3.093132699999842,None,None,,,P143,001,2025-04-09_12h14.09.439,posner_endo_new1,2024.2.4,59.96066580322332,2025-04-09 12h14.19.140767 +0100,
cube_r.png,0.1,-0.31,invalid,14,14,0,up,0.3393163000000641,None,space,0.3880797999991046,None,,,,,,,,,0,14,14,14,428.59375139999975,,,,,,,,,,,,,428.57775349999974,428.59375139999975,428.59375139999975,428.59375139999975,428.94429019999916,,,,428.95034979999946,428.9621346999993,428.9621346999993,429.01016619999973,429.0103901000002,429.02664790000017,429.02664790000017,429.02664790000017,429.09337179999966,429.4269127999996,,,,,,,,,,,,,,,,,,,,,,up,0.3393163000000641,None,space,0.3880797999991046,None,P143,001,2025-04-09_12h14.09.439,posner_endo_new1,2024.2.4,59.96066580322332,2025-04-09 12h14.19.140767 +0100,
cube_l.png,0.1,-0.31,valid,15,15,0,up,2.9372860999992554,None,space,0.4261824000004708,None,,,,,,,,,0,15,15,15,429.4429466999991,,,,,,,,,,,,,429.42708499999935,429.4429466999991,429.4429466999991,429.4429466999991,432.39062769999873,,,,432.39669719999983,432.40836019999915,432.40836019999915,432.45670529999916,432.4569269000003,432.4731740999996,432.4731740999996,432.4731740999996,432.55625599999985,432.90636730000006,,,,,,,,,,,,,,,,,,,,,,up,2.9372860999992554,None,space,0.4261824000004708,None,P143,001,2025-04-09_12h14.09.439,posner_endo_new1,2024.2.4,59.96066580322332,2025-04-09 12h14.19.140767 +0100,
cube_r.png,0.1,10,catch,16,16,0,up,2.3543276000000333,None,None,,,,,,,,,,,0,16,16,16,432.92263289999937,,,,,,,,,,,,,432.9065535999998,432.92263289999937,432.92263289999937,432.92263289999937,435.28763479999907,,,,435.29361210000025,435.30531659999906,435.30531659999906,435.35354369999914,435.3537650999988,435.3703117999994,435.3703117999994,435.3703117999994,435.45339409999906,438.36764609999955,,,,437.4680845999992,438.3837461999992,438.3837461999992,438.3837461999992,,,,,,,,,,,,,,,up,2.3543276000000333,None,None,,,P143,001,2025-04-09_12h14.09.439,posner_endo_new1,2024.2.4,59.96066580322332,2025-04-09 12h14.19.140767 +0100,
cube_r.png,0.1,10,catch,17,17,0,up,0.5812134999996488,None,None,,,,,,,,,,,0,17,17,17,438.3837461999992,,,,,,,,,,,,,438.36780819999876,438.3837461999992,438.3837461999992,438.3837461999992,438.966964199999,,,,438.9730564999991,438.98436539999966,438.98436539999966,439.0331322000002,439.0333563000004,439.0497011999996,439.0497011999996,439.0497011999996,439.1160746000005,442.04711339999994,,,,441.1305296999999,442.0631840999995,442.0631840999995,442.0631840999995,,,,,,,,,,,,,,,up,0.5812134999996488,None,None,,,P143,001,2025-04-09_12h14.09.439,posner_endo_new1,2024.2.4,59.96066580322332,2025-04-09 12h14.19.140767 +0100,
cube_l.png,0.1,0.31,invalid,18,18,0,up,0.11773130000074161,None,space,0.36904060000051686,None,,,,,,,,,0,18,18,18,442.0631840999995,,,,,,,,,,,,,442.0472757999996,442.0631840999995,442.0631840999995,442.0631840999995,442.19751799999904,,,,442.2036119000004,442.21525719999954,442.21525719999954,442.26329799999985,442.2635212999994,442.2799200999998,442.2799200999998,442.2799200999998,442.3630183999994,442.6635504999995,,,,,,,,,,,,,,,,,,,,,,up,0.11773130000074161,None,space,0.36904060000051686,None,P143,001,2025-04-09_12h14.09.439,posner_endo_new1,2024.2.4,59.96066580322332,2025-04-09 12h14.19.140767 +0100,
cube_l.png,0.1,10,catch,19,19,0,up,2.8133297999993374,None,None,,,,,,,,,,,0,19,19,19,442.67952909999985,,,,,,,,,,,,,442.66372760000013,442.67952909999985,442.67952909999985,442.67952909999985,445.4938783999987,,,,445.4998796,445.5115287999997,445.5115287999997,445.559844899999,445.56006829999933,445.5764326999997,445.5764326999997,445.5764326999997,445.64282269999967,448.5740253999993,,,,447.6574827000004,448.5899518999995,448.5899518999995,448.5899518999995,,,,,,,,,,,,,,,up,2.8133297999993374,None,None,,,P143,001,2025-04-09_12h14.09.439,posner_endo_new1,2024.2.4,59.96066580322332,2025-04-09 12h14.19.140767 +0100,
cube_l.png,0.1,0.31,invalid,20,20,0,up,3.2702582999991137,None,space,0.49359540000114066,None,,,,,,,,,0,20,20,20,448.5899518999995,,,,,,,,,,,,,448.5741863000003,448.5899518999995,448.5899518999995,448.5899518999995,451.8706643000005,,,,451.87665670000024,451.88827689999925,451.88827689999925,451.9365392999989,451.93676249999953,451.9532099999997,451.9532099999997,451.9532099999997,452.0197343999989,452.45309029999953,,,,,,,,,,,,,,,,,,,,,,up,3.2702582999991137,None,space,0.49359540000114066,None,P143,001,2025-04-09_12h14.09.439,posner_endo_new1,2024.2.4,59.96066580322332,2025-04-09 12h14.19.140767 +0100,
cube_l.png,0.1,-0.31,valid,21,21,0,up,2.7430669000004855,None,space,0.404013199999099,None,,,,,,,,,0,21,21,21,452.46927440000036,,,,,,,,,,,,,452.4532631999991,452.46927440000036,452.46927440000036,452.46927440000036,455.2174266999991,,,,455.2234693999999,455.2353459999995,455.2353459999995,455.2832022999992,455.2834275999994,455.29985659999875,455.29985659999875,455.29985659999875,455.3831833999993,455.71671349999997,,,,,,,,,,,,,,,,,,,,,,up,2.7430669000004855,None,space,0.404013199999099,None,P143,001,2025-04-09_12h14.09.439,posner_endo_new1,2024.2.4,59.96066580322332,2025-04-09 12h14.19.140767 +0100,
cube_r.png,0.1,0.31,valid,22,22,0,up,2.1682689000008395,None,space,0.402669799999785,None,,,,,,,,,0,22,22,22,455.73234669999874,,,,,,,,,,,,,455.7168916999999,455.73234669999874,455.73234669999874,455.73234669999874,457.9140815999999,,,,457.9201940999992,457.93170350000037,457.93170350000037,457.9803928000001,457.9806155999995,457.9970680999995,457.9970680999995,457.9970680999995,458.06360759999916,458.4135884999996,,,,,,,,,,,,,,,,,,,,,,up,2.1682689000008395,None,space,0.402669799999785,None,P143,001,2025-04-09_12h14.09.439,posner_endo_new1,2024.2.4,59.96066580322332,2025-04-09 12h14.19.140767 +0100,
cube_r.png,0.1,-0.31,invalid,23,23,0,up,7.279060999999274,None,space,0.41946519999874,None,,,,,,,,,0,23,23,23,458.4299468999998,,,,,,,,,,,,,458.4137611999995,458.4299468999998,458.4299468999998,458.4299468999998,465.72326710000016,,,,465.72933489999923,465.74115729999903,465.74115729999903,465.78914989999976,465.7893752,465.80553299999883,465.80553299999883,465.80553299999883,465.8721304999999,466.23942129999887,,,,,,,,,,,,,,,,,,,,,,up,7.279060999999274,None,space,0.41946519999874,None,P143,001,2025-04-09_12h14.09.439,posner_endo_new1,2024.2.4,59.96066580322332,2025-04-09 12h14.19.140767 +0100,
cube_r.png,0.1,0.31,valid,24,24,0,up,3.0702596999999514,None,space,0.36068949999935285,None,,,,,,,,,0,24,24,24,466.2549051999995,,,,,,,,,,,,,466.23959319999994,466.2549051999995,466.2549051999995,466.2549051999995,469.33610749999934,,,,469.3421804999998,469.35409059999984,469.35409059999984,469.40214129999913,469.4023651999996,469.41864329999953,469.41864329999953,469.41864329999953,469.48536950000016,469.78574019999905,,,,,,,,,,,,,,,,,,,,,,up,3.0702596999999514,None,space,0.36068949999935285,None,P143,001,2025-04-09_12h14.09.439,posner_endo_new1,2024.2.4,59.96066580322332,2025-04-09 12h14.19.140767 +0100,
cube_r.png,0.1,-0.31,invalid,25,25,0,up,3.4518057000004774,None,space,0.3891514000006282,None,,,,,,,,,0,25,25,25,469.8015025000004,,,,,,,,,,,,,469.78591830000005,469.8015025000004,469.8015025000004,469.8015025000004,473.2655104000005,,,,473.2715429999989,473.28341290000026,473.28341290000026,473.33141909999904,473.3316421999989,473.3479602999996,473.3479602999996,473.3479602999996,473.4145271999987,473.74809639999876,,,,,,,,,,,,,,,,,,,,,,up,3.4518057000004774,None,space,0.3891514000006282,None,P143,001,2025-04-09_12h14.09.439,posner_endo_new1,2024.2.4,59.96066580322332,2025-04-09 12h14.19.140767 +0100,
cube_l.png,0.1,-0.31,valid,26,26,0,up,2.5201013000005332,None,space,0.5201863000002049,None,,,,,,,,,0,26,26,26,473.7642802999999,,,,,,,,,,,,,473.7482702999987,473.7642802999999,473.7642802999999,473.7642802999999,476.29578519999995,,,,476.30181230000017,476.3135012999992,476.3135012999992,476.3617420999999,476.36196369999925,476.37834099999964,476.37834099999964,476.37834099999964,476.4449217000001,476.9119198999997,,,,,,,,,,,,,,,,,,,,,,up,2.5201013000005332,None,space,0.5201863000002049,None,P143,001,2025-04-09_12h14.09.439,posner_endo_new1,2024.2.4,59.96066580322332,2025-04-09 12h14.19.140767 +0100,
cube_r.png,0.1,0.31,valid,27,27,0,up,2.461801999999807,None,space,0.34757019999960903,None,,,,,,,,,0,27,27,27,476.92785749999894,,,,,,,,,,,,,476.9120927999993,476.92785749999894,476.92785749999894,476.92785749999894,479.3923212999998,,,,479.3983301999997,479.40980409999975,479.40980409999975,479.4586712,479.4588939000005,479.4750176999987,479.4750176999987,479.4750176999987,479.54167849999976,479.8253748999996,,,,,,,,,,,,,,,,,,,,,,up,2.461801999999807,None,space,0.34757019999960903,None,P143,001,2025-04-09_12h14.09.439,posner_endo_new1,2024.2.4,59.96066580322332,2025-04-09 12h14.19.140767 +0100,
cube_r.png,0.1,10,catch,28,28,0,up,2.9549611000002187,None,None,,,,,,,,,,,0,28,28,28,479.84134599999925,,,,,,,,,,,,,479.8255561999995,479.84134599999925,479.84134599999925,479.84134599999925,482.8058652999989,,,,482.8118410999996,482.82331279999926,482.82331279999926,482.8719351999989,482.87215639999886,482.88848139999936,482.88848139999936,482.88848139999936,482.9548046,485.88592339999923,,,,484.9695759999995,485.9021297999989,485.9021297999989,485.9021297999989,,,,,,,,,,,,,,,up,2.9549611000002187,None,None,,,P143,001,2025-04-09_12h14.09.439,posner_endo_new1,2024.2.4,59.96066580322332,2025-04-09 12h14.19.140767 +0100,
cube_r.png,0.1,0.31,valid,29,29,0,up,0.3842512999999599,None,space,0.48763230000076874,None,,,,,,,,,0,29,29,29,485.9021297999989,,,,,,,,,,,,,485.88608419999946,485.9021297999989,485.9021297999989,485.9021297999989,486.3023307000003,,,,486.30840519999947,486.3202693000003,486.3202693000003,486.36832109999887,486.3685442999995,486.3847403999989,486.3847403999989,486.3847403999989,486.4679723999998,486.88492399999996,,,,,,,,,,,,,,,,,,,,,,up,0.3842512999999599,None,space,0.48763230000076874,None,P143,001,2025-04-09_12h14.09.439,posner_endo_new1,2024.2.4,59.96066580322332,2025-04-09 12h14.19.140767 +0100,
cube_r.png,0.1,0.31,valid,30,30,0,up,2.8155655000009574,None,space,0.3982964999995602,None,,,,,,,,,0,30,30,30,486.9007590000001,,,,,,,,,,,,,486.88509539999905,486.9007590000001,486.9007590000001,486.9007590000001,489.7321216,,,,489.73811879999994,489.74963949999983,489.74963949999983,489.7978631999995,489.79808500000036,489.8145629999999,489.8145629999999,489.8145629999999,489.89767029999894,490.21504769999956,,,,,,,,,,,,,,,,,,,,,,up,2.8155655000009574,None,space,0.3982964999995602,None,P143,001,2025-04-09_12h14.09.439,posner_endo_new1,2024.2.4,59.96066580322332,2025-04-09 12h14.19.140767 +0100,
cube_l.png,0.1,-0.31,valid,31,31,0,up,2.5587961000001087,None,space,0.42325680000067223,None,,,,,,,,,0,31,31,31,490.23084259999996,,,,,,,,,,,,,490.21522189999996,490.23084259999996,490.23084259999996,490.23084259999996,492.79570799999965,,,,492.80182609999974,492.81359639999937,492.81359639999937,492.86173620000045,492.8619601999999,492.87821110000004,492.87821110000004,492.87821110000004,492.94489969999995,493.31188269999984,,,,,,,,,,,,,,,,,,,,,,up,2.5587961000001087,None,space,0.42325680000067223,None,P143,001,2025-04-09_12h14.09.439,posner_endo_new1,2024.2.4,59.96066580322332,2025-04-09 12h14.19.140767 +0100,
cube_r.png,0.1,0.31,valid,32,32,0,up,3.005355799999961,None,space,0.3547304999992775,None,,,,,,,,,0,32,32,32,493.3277651999997,,,,,,,,,,,,,493.3120691000004,493.3277651999997,493.3277651999997,493.3277651999997,496.34209399999963,,,,496.3481293999994,496.3599328,496.3599328,496.40816950000044,496.4083905999996,496.42458199999965,496.42458199999965,496.42458199999965,496.50778139999966,496.7912639999995,,,,,,,,,,,,,,,,,,,,,,up,3.005355799999961,None,space,0.3547304999992775,None,P143,001,2025-04-09_12h14.09.439,posner_endo_new1,2024.2.4,59.96066580322332,2025-04-09 12h14.19.140767 +0100,
cube_r.png,0.1,-0.31,invalid,33,33,0,up,3.1893563000012364,None,space,0.2082855999997264,None,,,,,,,,,0,33,33,33,496.80744479999885,,,,,,,,,,,,,496.791441899999,496.80744479999885,496.80744479999885,496.80744479999885,500.00460139999996,,,,500.01078039999993,500.0223195999988,500.0223195999988,500.0708838999999,500.0711059999994,500.08719799999926,500.08719799999926,500.08719799999926,500.1705509000003,500.30460200000016,,,,,,,,,,,,,,,,,,,,,,up,3.1893563000012364,None,space,0.2082855999997264,None,P143,001,2025-04-09_12h14.09.439,posner_endo_new1,2024.2.4,59.96066580322332,2025-04-09 12h14.19.140767 +0100,
cube_r.png,0.1,10,catch,34,34,0,up,2.516475000000355,None,None,,,,,,,,,,,0,34,34,34,500.32037429999946,,,,,,,,,,,,,500.30477880000035,500.32037429999946,500.32037429999946,500.32037429999946,502.8520150000004,,,,502.8580368999992,502.8697491999992,502.8697491999992,502.91799919999903,502.91822499999944,502.934459099999,502.934459099999,502.934459099999,503.00102399999923,505.9318482999988,,,,505.0158047999994,505.9482554999995,505.9482554999995,505.9482554999995,,,,,,,,,,,,,,,up,2.516475000000355,None,None,,,P143,001,2025-04-09_12h14.09.439,posner_endo_new1,2024.2.4,59.96066580322332,2025-04-09 12h14.19.140767 +0100,
cube_r.png,0.1,0.31,valid,35,35,0,up,0.13671509999949194,None,space,0.39430259999971895,None,,,,,,,,,0,35,35,35,505.9482554999995,,,,,,,,,,,,,505.93201469999985,505.9482554999995,505.9482554999995,505.9482554999995,506.0988247000005,,,,506.1048269999992,506.1167588999997,506.1167588999997,506.16460349999943,506.16483119999975,506.18115559999933,506.18115559999933,506.18115559999933,506.26442399999905,506.5817116999988,,,,,,,,,,,,,,,,,,,,,,up,0.13671509999949194,None,space,0.39430259999971895,None,P143,001,2025-04-09_12h14.09.439,posner_endo_new1,2024.2.4,59.96066580322332,2025-04-09 12h14.19.140767 +0100,
cube_r.png,0.1,-0.31,invalid,36,36,0,up,2.5351401999996597,None,space,0.3353047000000515,None,,,,,,,,,0,36,36,36,506.59747529999913,,,,,,,,,,,,,506.5818841,506.59747529999913,506.59747529999913,506.59747529999913,509.1454475999999,,,,509.1514030999988,509.1630406000004,509.1630406000004,509.2114032999998,509.21162600000025,509.22800280000047,509.22800280000047,509.22800280000047,509.2946781999999,509.57844939999995,,,,,,,,,,,,,,,,,,,,,,up,2.5351401999996597,None,space,0.3353047000000515,None,P143,001,2025-04-09_12h14.09.439,posner_endo_new1,2024.2.4,59.96066580322332,2025-04-09 12h14.19.140767 +0100,
cube_l.png,0.1,0.31,invalid,37,37,0,up,2.562372799999139,None,space,0.43837470000107714,None,,,,,,,,,0,37,37,37,509.5944652999988,,,,,,,,,,,,,509.57862939999904,509.5944652999988,509.5944652999988,509.5944652999988,512.1591989999997,,,,512.1652432999999,512.1767815999992,512.1767815999992,512.2251490999988,512.2253705000003,512.2411362000003,512.2411362000003,512.2411362000003,512.3083831000004,512.6920728999994,,,,,,,,,,,,,,,,,,,,,,up,2.562372799999139,None,space,0.43837470000107714,None,P143,001,2025-04-09_12h14.09.439,posner_endo_new1,2024.2.4,59.96066580322332,2025-04-09 12h14.19.140767 +0100,
cube_l.png,0.1,0.31,invalid,38,38,0,up,3.3371136999994633,None,space,0.3922511000000668,None,,,,,,,,,0,38,38,38,512.7079947000002,,,,,,,,,,,,,512.6922458999998,512.7079947000002,512.7079947000002,512.7079947000002,516.0554126999996,,,,516.0614132999999,516.0731409999989,516.0731409999989,516.1211124000001,516.1213348000001,516.137439099999,516.137439099999,516.137439099999,516.2208429000002,516.5378729000004,,,,,,,,,,,,,,,,,,,,,,up,3.3371136999994633,None,space,0.3922511000000668,None,P143,001,2025-04-09_12h14.09.439,posner_endo_new1,2024.2.4,59.96066580322332,2025-04-09 12h14.19.140767 +0100,
cube_r.png,0.1,0.31,valid,39,39,0,up,3.1387056999992637,None,space,0.33830870000019786,None,,,,,,,,,0,39,39,39,516.5538828999997,,,,,,,,,,,,,516.5380451000001,516.5538828999997,516.5538828999997,516.5538828999997,519.7014306000001,,,,519.7074627000002,519.7190099999989,519.7190099999989,519.7674182999999,519.7676436000002,519.7839485000004,519.7839485000004,519.7839485000004,519.8506299000001,520.1341601000004,,,,,,,,,,,,,,,,,,,,,,up,3.1387056999992637,None,space,0.33830870000019786,None,P143,001,2025-04-09_12h14.09.439,posner_endo_new1,2024.2.4,59.96066580322332,2025-04-09 12h14.19.140767 +0100,
cube_l.png,0.1,0.31,invalid,40,40,0,up,2.7587045000000217,None,space,0.4359958999993978,None,,,,,,,,,0,40,40,40,520.1503156999988,,,,,,,,,,,,,520.134339799999,520.1503156999988,520.1503156999988,520.1503156999988,522.9144766999998,,,,522.9204860999998,522.9320728999992,522.9320728999992,522.9809915999995,522.9812131999988,522.9974569999995,522.9974569999995,522.9974569999995,523.0639020999988,523.4479097999993,,,,,,,,,,,,,,,,,,,,,,up,2.7587045000000217,None,space,0.4359958999993978,None,P143,001,2025-04-09_12h14.09.439,posner_endo_new1,2024.2.4,59.96066580322332,2025-04-09 12h14.19.140767 +0100,
cube_l.png,0.1,10,catch,41,41,0,up,3.1189876000007644,None,space,0.34292700000150944,None,,,,,,,,,0,41,41,41,523.4631733999995,,,,,,,,,,,,,523.448083199999,523.4631733999995,523.4631733999995,523.4631733999995,526.5944070999994,,,,526.6004582999994,526.6121091000005,526.6121091000005,526.6602853000004,526.6605136999988,526.6768665,526.6768665,526.6768665,526.7436230000003,527.0272872000005,,,,,,,,,,,,,,,,,,,,,,up,3.1189876000007644,None,space,0.34292700000150944,None,P143,001,2025-04-09_12h14.09.439,posner_endo_new1,2024.2.4,59.96066580322332,2025-04-09 12h14.19.140767 +0100,
cube_l.png,0.1,-0.31,valid,42,42,0,up,3.417359100001704,None,space,0.36311510000086855,None,,,,,,,,,0,42,42,42,527.0432987999993,,,,,,,,,,,,,527.0274585999996,527.0432987999993,527.0432987999993,527.0432987999993,530.4737652000003,,,,530.4800073999995,530.4917100999992,530.4917100999992,530.5398683999992,530.5401069,530.5564089999989,530.5564089999989,530.5564089999989,530.6228136999998,530.9235377999994,,,,,,,,,,,,,,,,,,,,,,up,3.417359100001704,None,space,0.36311510000086855,None,P143,001,2025-04-09_12h14.09.439,posner_endo_new1,2024.2.4,59.96066580322332,2025-04-09 12h14.19.140767 +0100,
cube_l.png,0.1,10,catch,43,43,0,up,2.8743478000014875,None,None,,,,,,,,,,,0,43,43,43,530.9393825999996,,,,,,,,,,,,,530.9237214000004,530.9393825999996,530.9393825999996,530.9393825999996,533.8208931999998,,,,533.8339013000004,533.8442677000003,533.8442677000003,533.8861132000002,533.8863741999994,533.9027533999997,533.9027533999997,533.9027533999997,533.985995699999,536.9003002999998,,,,536.0003029999989,536.9161900999989,536.9161900999989,536.9161900999989,,,,,,,,,,,,,,,up,2.8743478000014875,None,None,,,P143,001,2025-04-09_12h14.09.439,posner_endo_new1,2024.2.4,59.96066580322332,2025-04-09 12h14.19.140767 +0100,
cube_l.png,0.1,0.31,invalid,44,44,0,up,0.19282470000143803,None,space,0.4055862999994133,None,,,,,,,,,0,44,44,44,536.9161900999989,,,,,,,,,,,,,536.9006073,536.9161900999989,536.9161900999989,536.9161900999989,537.1172575,,,,537.1300021999996,537.1400221999993,537.1400221999993,537.1826256999993,537.1828996000004,537.1994579000002,537.1994579000002,537.1994579000002,537.2824424999999,537.6166058999988,,,,,,,,,,,,,,,,,,,,,,up,0.19282470000143803,None,space,0.4055862999994133,None,P143,001,2025-04-09_12h14.09.439,posner_endo_new1,2024.2.4,59.96066580322332,2025-04-09 12h14.19.140767 +0100,
cube_l.png,0.1,0.31,invalid,45,45,0,up,2.6846172000005026,None,space,0.42861230000016803,None,,,,,,,,,0,45,45,45,537.6324482999989,,,,,,,,,,,,,537.6168306,537.6324482999989,537.6324482999989,537.6324482999989,540.3306327999999,,,,540.3391229999997,540.3492611999991,540.3492611999991,540.3963872000004,540.3966650000002,540.4128994999992,540.4128994999992,540.4128994999992,540.4957536000002,540.8465242000002,,,,,,,,,,,,,,,,,,,,,,up,2.6846172000005026,None,space,0.42861230000016803,None,P143,001,2025-04-09_12h14.09.439,posner_endo_new1,2024.2.4,59.96066580322332,2025-04-09 12h14.19.140767 +0100,
cube_r.png,0.1,0.31,valid,46,46,0,up,3.1827762000011717,None,space,0.3937251000006654,None,,,,,,,,,0,46,46,46,540.8625116999992,,,,,,,,,,,,,540.846757199999,540.8625116999992,540.8625116999992,540.8625116999992,544.0597471000001,,,,544.0682184999987,544.0788596999992,544.0788596999992,544.1259740999994,544.1262471999999,544.1422039999998,544.1422039999998,544.1422039999998,544.2255222999993,544.5429583000005,,,,,,,,,,,,,,,,,,,,,,up,3.1827762000011717,None,space,0.3937251000006654,None,P143,001,2025-04-09_12h14.09.439,posner_endo_new1,2024.2.4,59.96066580322332,2025-04-09 12h14.19.140767 +0100,
cube_l.png,0.1,-0.31,valid,47,47,0,up,6.934611399999994,None,space,0.31983409999884316,None,,,,,,,,,0,47,47,47,544.5587489999998,,,,,,,,,,,,,544.5431834999999,544.5587489999998,544.5587489999998,544.5587489999998,551.5021005999988,,,,551.5106966999992,551.5210828999989,551.5210828999989,551.5683117999997,551.5685942,551.5844519000002,551.5844519000002,551.5844519000002,551.6513851,551.9183297999989,,,,,,,,,,,,,,,,,,,,,,up,6.934611399999994,None,space,0.31983409999884316,None,P143,001,2025-04-09_12h14.09.439,posner_endo_new1,2024.2.4,59.96066580322332,2025-04-09 12h14.19.140767 +0100,
cube_r.png,0.1,-0.31,invalid,48,48,0,up,2.870345699999234,None,space,0.42508400000042457,None,,,,,,,,,0,48,48,48,551.9342884999987,,,,,,,,,,,,,551.9185655000001,551.9342884999987,551.9342884999987,551.9342884999987,554.8153998999987,,,,554.8238401999988,554.8344595999988,554.8344595999988,554.8815909999994,554.8818649999994,554.8976880999999,554.8976880999999,554.8976880999999,554.9812129000002,555.3315710999996,,,,,,,,,,,,,,,,,,,,,,up,2.870345699999234,None,space,0.42508400000042457,None,P143,001,2025-04-09_12h14.09.439,posner_endo_new1,2024.2.4,59.96066580322332,2025-04-09 12h14.19.140767 +0100,
cube_r.png,0.1,10,catch,49,49,0,up,2.3856015000001207,None,None,,,,,,,,,,,0,49,49,49,555.3472636999995,,,,,,,,,,,,,555.3317974999991,555.3472636999995,555.3472636999995,555.3472636999995,557.7457233999994,,,,557.7541745999988,557.7647514,557.7647514,557.8115546999998,557.8118276999994,557.8282746999994,557.8282746999994,557.8282746999994,557.9112875999999,560.8259294999989,,,,559.9262595,560.8421473999988,560.8421473999988,560.8421473999988,,,,,,,,,,,,,,,up,2.3856015000001207,None,None,,,P143,001,2025-04-09_12h14.09.439,posner_endo_new1,2024.2.4,59.96066580322332,2025-04-09 12h14.19.140767 +0100,
cube_l.png,0.1,-0.31,valid,50,50,0,up,0.3639760000005481,None,space,0.3653500000000349,None,,,,,,,,,0,50,50,50,560.8421473999988,,,,,,,,,,,,,560.8261390999996,560.8421473999988,560.8421473999988,560.8421473999988,561.2090102000002,,,,561.2174417999995,561.2278444000003,561.2278444000003,561.2750101999991,561.2752960999987,561.2915319000003,561.2915319000003,561.2915319000003,561.357847199999,561.6586604999993,,,,,,,,,,,,,,,,,,,,,,up,0.3639760000005481,None,space,0.3653500000000349,None,P143,001,2025-04-09_12h14.09.439,posner_endo_new1,2024.2.4,59.96066580322332,2025-04-09 12h14.19.140767 +0100,
cube_l.png,0.1,-0.31,valid,51,51,0,up,2.786363100000017,None,space,0.3229092000001401,None,,,,,,,,,0,51,51,51,561.6741022999995,,,,,,,,,,,,,561.6589057000001,561.6741022999995,561.6741022999995,561.6741022999995,564.472316899999,,,,564.4807213999993,564.491195999999,564.491195999999,564.5383227000002,564.5385998999991,564.5545619000004,564.5545619000004,564.5545619000004,564.621615099999,564.8883975999997,,,,,,,,,,,,,,,,,,,,,,up,2.786363100000017,None,space,0.3229092000001401,None,P143,001,2025-04-09_12h14.09.439,posner_endo_new1,2024.2.4,59.96066580322332,2025-04-09 12h14.19.140767 +0100,
cube_r.png,0.1,-0.31,invalid,52,52,0,up,3.2846494000004895,None,space,0.377414200000203,None,,,,,,,,,0,52,52,52,564.9044665000001,,,,,,,,,,,,,564.8886251999993,564.9044665000001,564.9044665000001,564.9044665000001,568.2017818000004,,,,568.2101593999996,568.2207667999992,568.2207667999992,568.2675001999996,568.2677726000002,568.2843133999995,568.2843133999995,568.2843133999995,568.3510698999999,568.6684129999994,,,,,,,,,,,,,,,,,,,,,,up,3.2846494000004895,None,space,0.377414200000203,None,P143,001,2025-04-09_12h14.09.439,posner_endo_new1,2024.2.4,59.96066580322332,2025-04-09 12h14.19.140767 +0100,
cube_l.png,0.1,-0.31,valid,53,53,0,up,2.6896068999994895,None,space,0.2302689999996801,None,,,,,,,,,0,53,53,53,568.6837023999997,,,,,,,,,,,,,568.6686491,568.6837023999997,568.6837023999997,568.6837023999997,571.3817976999999,,,,571.3901649999989,571.4007827999994,571.4007827999994,571.4479487999997,571.4482243000002,571.4644939999998,571.4644939999998,571.4644939999998,571.531062099999,571.6983511999988,,,,,,,,,,,,,,,,,,,,,,up,2.6896068999994895,None,space,0.2302689999996801,None,P143,001,2025-04-09_12h14.09.439,posner_endo_new1,2024.2.4,59.96066580322332,2025-04-09 12h14.19.140767 +0100,
cube_r.png,0.1,10,catch,54,54,0,up,2.3554826000017783,None,None,,,,,,,,,,,0,54,54,54,571.7138615999993,,,,,,,,,,,,,571.6985759999989,571.7138615999993,571.7138615999993,571.7138615999993,574.0792994999993,,,,574.0877927000001,574.0980349999991,574.0980349999991,574.1451433000002,574.1454218999988,574.1613572999995,574.1613572999995,574.1613572999995,574.2284261000004,577.1590173000004,,,,576.2425786999993,577.1754137999997,577.1754137999997,577.1754137999997,,,,,,,,,,,,,,,up,2.3554826000017783,None,None,,,P143,001,2025-04-09_12h14.09.439,posner_endo_new1,2024.2.4,59.96066580322332,2025-04-09 12h14.19.140767 +0100,
cube_l.png,0.1,0.31,invalid,55,55,0,up,0.2776235999990604,None,space,0.39545150000049034,None,,,,,,,,,0,55,55,55,577.1754137999997,,,,,,,,,,,,,577.1592258000001,577.1754137999997,577.1754137999997,577.1754137999997,577.4589101999991,,,,577.4673545999995,577.4779777999993,577.4779777999993,577.5251504999997,577.5254280999998,577.5416851999998,577.5416851999998,577.5416851999998,577.6078407000005,577.9421963999994,,,,,,,,,,,,,,,,,,,,,,up,0.2776235999990604,None,space,0.39545150000049034,None,P143,001,2025-04-09_12h14.09.439,posner_endo_new1,2024.2.4,59.96066580322332,2025-04-09 12h14.19.140767 +0100,
cube_l.png,0.1,-0.31,valid,56,56,0,up,2.4876249999997526,None,space,0.4145735000001878,None,,,,,,,,,0,56,56,56,577.9578903999991,,,,,,,,,,,,,577.9424204999996,577.9578903999991,577.9578903999991,577.9578903999991,580.4558376999994,,,,580.4643739000003,580.4749402999987,580.4749402999987,580.5222013000002,580.5224763999995,580.538217199999,580.538217199999,580.538217199999,580.6218690999995,580.9558304000002,,,,,,,,,,,,,,,,,,,,,,up,2.4876249999997526,None,space,0.4145735000001878,None,P143,001,2025-04-09_12h14.09.439,posner_endo_new1,2024.2.4,59.96066580322332,2025-04-09 12h14.19.140767 +0100,
cube_r.png,0.1,0.31,valid,57,57,0,up,2.9054732999993576,None,space,0.3350530000006984,None,,,,,,,,,0,57,57,57,580.9716217000005,,,,,,,,,,,,,580.9560533000003,580.9716217000005,580.9716217000005,580.9716217000005,583.8857446000002,,,,583.8942050999995,583.9047716999994,583.9047716999994,583.9517443999994,583.9520168999989,583.9681037999999,583.9681037999999,583.9681037999999,584.0347258999991,584.3189688999992,,,,,,,,,,,,,,,,,,,,,,up,2.9054732999993576,None,space,0.3350530000006984,None,P143,001,2025-04-09_12h14.09.439,posner_endo_new1,2024.2.4,59.96066580322332,2025-04-09 12h14.19.140767 +0100,
cube_r.png,0.1,-0.31,invalid,58,58,0,up,3.318866399999024,None,space,0.26721829999951296,None,,,,,,,,,0,58,58,58,584.3346739999997,,,,,,,,,,,,,584.3191965999995,584.3346739999997,584.3346739999997,584.3346739999997,587.6652510999993,,,,587.673675,587.6841867000003,587.6841867000003,587.7314718999987,587.7317497999993,587.7479900999988,587.7479900999988,587.7479900999988,587.8140853000004,588.0319674999992,,,,,,,,,,,,,,,,,,,,,,up,3.318866399999024,None,space,0.26721829999951296,None,P143,001,2025-04-09_12h14.09.439,posner_endo_new1,2024.2.4,59.96066580322332,2025-04-09 12h14.19.140767 +0100,
cube_l.png,0.1,0.31,invalid,59,59,0,up,13.78139420000116,None,space,0.3191039000012097,None,,,,,,,,,0,59,59,59,588.0472689999988,,,,,,,,,,,,,588.0321925999997,588.0472689999988,588.0472689999988,588.0472689999988,601.8345339999996,,,,601.8430556000003,601.8530997999987,601.8530997999987,601.9001804999989,601.9004585000002,601.916579499999,601.916579499999,601.916579499999,602.0002007999992,602.2507024999995,,,,,,,,,,,,,,,,,,,,,,up,13.78139420000116,None,space,0.3191039000012097,None,P143,001,2025-04-09_12h14.09.439,posner_endo_new1,2024.2.4,59.96066580322332,2025-04-09 12h14.19.140767 +0100,
