cue_img,cue_soa,target_y,trial,thisN,thisTrialN,thisRepN,key_control2.keys,key_control2.rt,key_control2.duration,key_resp.keys,key_resp.rt,key_resp.duration,practice.thisRepN,practice.thisTrialN,practice.thisN,practice.thisIndex,block1.thisRepN,block1.thisTrialN,block1.thisN,block1.thisIndex,block2.thisRepN,block2.thisTrialN,block2.thisN,block2.thisIndex,thisRow.t,notes,instructions.started,instructions_txt.started,key_control.started,instructions.stopped,key_control.keys,key_control.rt,key_control.duration,ready.started,ready_txt.started,ready_txt.stopped,ready.stopped,fix.started,fixation.started,key_control2.started,fixation_cross.started,fix.stopped,practice.key_control2.keys,practice.key_control2.rt,practice.key_control2.duration,cue.started,cube.started,fixation_cross_cue.started,cue.stopped,target.started,fixation_target.started,fixation_cross_target.started,key_resp.started,star.started,target.stopped,practice.key_resp.keys,practice.key_resp.rt,practice.key_resp.duration,star.stopped,fixation_target.stopped,fixation_cross_target.stopped,key_resp.stopped,block1.key_control2.keys,block1.key_control2.rt,block1.key_control2.duration,block1.key_resp.keys,block1.key_resp.rt,block1.key_resp.duration,break_2.started,text.started,key_control3.started,text.stopped,break_2.stopped,key_control3.keys,key_control3.rt,key_control3.duration,block2.key_control2.keys,block2.key_control2.rt,block2.key_control2.duration,block2.key_resp.keys,block2.key_resp.rt,block2.key_resp.duration,participant,session,date,expName,psychopyVersion,frameRate,expStart,
,,,,,,,,,,,,,,,,,,,,,,,,,,,0.007412099999783095,0.02893210000002,0.02893210000002,295.2337950000001,up,295.1951216000016,None,,,,,,,,,,,,,,,,,,,,,,,,,,,,,,,,,,,,,,,,,,,,,,,,,,P144,001,2025-04-09_12h52.51.923,posner_endo_new1,2024.2.4,60.04942067312334,2025-04-09 12h52.57.590074 +0100,
,,,,,,,,,,,,,,,,,,,,,,,,,,,,,,,,,,295.233849799999,295.24679449999894,298.24697259999994,298.2275651,,,,,,,,,,,,,,,,,,,,,,,,,,,,,,,,,,,,,,,,,,,,,,P144,001,2025-04-09_12h52.51.923,posner_endo_new1,2024.2.4,60.04942067312334,2025-04-09 12h52.57.590074 +0100,
cube_l.png,0.1,-0.31,valid,0,0,0,down,9.53723319999881,None,space,0.34893989999909536,None,0,0,0,0,,,,,,,,,298.24697259999994,,,,,,,,,,,,,298.23491939999985,298.24697259999994,298.24697259999994,298.24697259999994,307.8013976000002,down,9.53723319999881,None,307.8257186999999,307.8353729999999,307.8353729999999,307.8675076999989,307.8677424999987,307.8838333999993,307.8838333999993,307.8838333999993,307.96708599999874,308.2344682999992,space,0.34893989999909536,None,,,,,,,,,,,,,,,,,,,,,,,,,P144,001,2025-04-09_12h52.51.923,posner_endo_new1,2024.2.4,60.04942067312334,2025-04-09 12h52.57.590074 +0100,
cube_r.png,0.1,-0.31,invalid,1,1,0,down,4.862514899999951,None,space,0.5041696000007505,None,0,1,1,2,,,,,,,,,308.25029709999944,,,,,,,,,,,,,308.2346316000003,308.25029709999944,308.25029709999944,308.25029709999944,313.1294318,down,4.862514899999951,None,313.14271480000025,313.1523992000002,313.1523992000002,313.19490190000033,313.195297799999,313.21137400000043,313.21137400000043,313.21137400000043,313.2946295999991,313.7288334999994,space,0.5041696000007505,None,,,,,,,,,,,,,,,,,,,,,,,,,P144,001,2025-04-09_12h52.51.923,posner_endo_new1,2024.2.4,60.04942067312334,2025-04-09 12h52.57.590074 +0100,
cube_r.png,0.1,0.31,valid,2,2,0,down,3.2886250000010477,None,space,0.36927810000088357,None,0,2,2,7,,,,,,,,,313.74415260000023,,,,,,,,,,,,,313.72913829999925,313.74415260000023,313.74415260000023,313.74415260000023,317.0420839999988,down,3.2886250000010477,None,317.05527529999927,317.06528049999906,317.06528049999906,317.1079450999987,317.10822759999974,317.12443129999883,317.12443129999883,317.12443129999883,317.2076906000002,317.5083502999987,space,0.36927810000088357,None,,,,,,,,,,,,,,,,,,,,,,,,,P144,001,2025-04-09_12h52.51.923,posner_endo_new1,2024.2.4,60.04942067312334,2025-04-09 12h52.57.590074 +0100,
cube_r.png,0.1,-0.31,invalid,3,3,0,down,4.427988499999628,None,space,0.5909113000016077,None,0,3,3,6,,,,,,,,,317.5241384000001,,,,,,,,,,,,,317.50856620000013,317.5241384000001,317.5241384000001,317.5241384000001,321.95400039999913,down,4.427988499999628,None,321.96679009999934,321.9768074000003,321.9768074000003,322.01968490000036,322.01996899999904,322.0360781999989,322.0360781999989,322.0360781999989,322.11946890000036,322.6365730999987,space,0.5909113000016077,None,,,,,,,,,,,,,,,,,,,,,,,,,P144,001,2025-04-09_12h52.51.923,posner_endo_new1,2024.2.4,60.04942067312334,2025-04-09 12h52.57.590074 +0100,
cube_l.png,0.1,0.31,invalid,4,4,0,down,5.132522899999458,None,space,0.7601439999998547,None,0,4,4,5,,,,,,,,,322.6522593999998,,,,,,,,,,,,,322.63678249999975,322.6522593999998,322.6522593999998,322.6522593999998,327.7978261999997,down,5.132522899999458,None,327.80882910000037,327.81853319999937,327.81853319999937,327.86367269999937,327.8639277000002,327.8803107999993,327.8803107999993,327.8803107999993,327.96347609999975,328.64711799999895,space,0.7601439999998547,None,,,,,,,,,,,,,,,,,,,,,,,,,P144,001,2025-04-09_12h52.51.923,posner_endo_new1,2024.2.4,60.04942067312334,2025-04-09 12h52.57.590074 +0100,
cube_r.png,0.1,0.31,valid,5,5,0,down,6.2817371000001,None,space,0.5625730000010662,None,0,5,5,10,,,,,,,,,328.66261779999877,,,,,,,,,,,,,328.6473004999989,328.66261779999877,328.66261779999877,328.66261779999877,334.9570685999988,down,6.2817371000001,None,334.9644644,334.97589659999903,334.97589659999903,335.0230668000004,335.0233202999989,335.03962929999943,335.03962929999943,335.03962929999943,335.1061852999992,335.60659269999996,space,0.5625730000010662,None,,,,,,,,,,,,,,,,,,,,,,,,,P144,001,2025-04-09_12h52.51.923,posner_endo_new1,2024.2.4,60.04942067312334,2025-04-09 12h52.57.590074 +0100,
cube_l.png,0.1,-0.31,valid,6,6,0,down,5.242639100000815,None,space,0.48815950000062003,None,0,6,6,8,,,,,,,,,335.62233019999985,,,,,,,,,,,,,335.60677810000016,335.62233019999985,335.62233019999985,335.62233019999985,340.86766069999976,down,5.242639100000815,None,340.87503970000034,340.88649859999896,340.88649859999896,340.9336325999993,340.9338814999992,340.9501978999997,340.9501978999997,340.9501978999997,341.0167943999986,341.4504627999995,space,0.48815950000062003,None,,,,,,,,,,,,,,,,,,,,,,,,,P144,001,2025-04-09_12h52.51.923,posner_endo_new1,2024.2.4,60.04942067312334,2025-04-09 12h52.57.590074 +0100,
cube_r.png,0.1,10,catch,7,7,0,down,6.5264366999999766,None,None,,,0,7,7,3,,,,,,,,,341.4663643999993,,,,,,,,,,,,,341.45064639999873,341.4663643999993,341.4663643999993,341.4663643999993,347.99385540000003,down,6.5264366999999766,None,348.0012749999987,348.0124863000001,348.0124863000001,348.0597648999992,348.0600211000001,348.07601259999865,348.07601259999865,348.07601259999865,348.15952110000035,351.0735611,None,,,350.1741323999995,351.08985369999937,351.08985369999937,351.08985369999937,,,,,,,,,,,,,,,,,,,,,P144,001,2025-04-09_12h52.51.923,posner_endo_new1,2024.2.4,60.04942067312334,2025-04-09 12h52.57.590074 +0100,
cube_l.png,0.1,0.31,invalid,8,8,0,down,3.726945100001103,None,space,0.5338596000001417,None,0,8,8,1,,,,,,,,,351.08985369999937,,,,,,,,,,,,,351.0737322999994,351.08985369999937,351.08985369999937,351.08985369999937,354.8202017000003,down,3.726945100001103,None,354.82762509999884,354.83897889999935,354.83897889999935,354.88600919999953,354.8862599999993,354.9026639999993,354.9026639999993,354.9026639999993,354.9860458999992,355.452779199999,space,0.5338596000001417,None,,,,,,,,,,,,,,,,,,,,,,,,,P144,001,2025-04-09_12h52.51.923,posner_endo_new1,2024.2.4,60.04942067312334,2025-04-09 12h52.57.590074 +0100,
cube_l.png,0.1,-0.31,valid,9,9,0,down,6.283796599998823,None,space,0.495199799999682,None,0,9,9,4,,,,,,,,,355.46867679999923,,,,,,,,,,,,,355.4529629999997,355.46867679999923,355.46867679999923,355.46867679999923,361.7631143999988,down,6.283796599998823,None,361.77062449999903,361.7817871999996,361.7817871999996,361.829009699999,361.829570599999,361.8454021999987,361.8454021999987,361.8454021999987,361.92864819999886,362.34704520000014,space,0.495199799999682,None,,,,,,,,,,,,,,,,,,,,,,,,,P144,001,2025-04-09_12h52.51.923,posner_endo_new1,2024.2.4,60.04942067312334,2025-04-09 12h52.57.590074 +0100,
cube_r.png,0.1,-0.31,invalid,10,10,0,down,5.703170900000259,None,space,0.5235307000002649,None,0,10,10,9,,,,,,,,,362.3615596999989,,,,,,,,,,,,,362.3474910999994,362.3615596999989,362.3615596999989,362.3615596999989,368.07432270000027,down,5.703170900000259,None,368.09313010000005,368.10423439999977,368.10423439999977,368.1393035000001,368.1396573999991,368.1557355999994,368.1557355999994,368.1557355999994,368.23903229999996,368.68965579999895,space,0.5235307000002649,None,,,,,,,,,,,,,,,,,,,,,,,,,P144,001,2025-04-09_12h52.51.923,posner_endo_new1,2024.2.4,60.04942067312334,2025-04-09 12h52.57.590074 +0100,
,,,,,,,,,,,,,,,,,,,,,,,,,,,,,,,,,,368.6898449,368.70515559999876,371.71167330000026,371.686336499999,,,,,,,,,,,,,,,,,,,,,,,,,,,,,,,,,,,,,,,,,,,,,,P144,001,2025-04-09_12h52.51.923,posner_endo_new1,2024.2.4,60.04942067312334,2025-04-09 12h52.57.590074 +0100,
cube_l.png,0.1,10,catch,0,0,0,down,10.080835700000534,None,None,,,,,,,0,0,0,0,,,,,371.71167330000026,,,,,,,,,,,,,371.7028336000003,371.71167330000026,371.71167330000026,371.71167330000026,381.8092608999996,,,,381.8153249999996,381.8268060999999,381.8268060999999,381.8752353,381.8754623999994,381.8916534,381.8916534,381.8916534,381.9751132000001,384.8891996000002,,,,383.98963339999864,384.90530039999976,384.90530039999976,384.90530039999976,down,10.080835700000534,None,None,,,,,,,,,,,,,,,,,P144,001,2025-04-09_12h52.51.923,posner_endo_new1,2024.2.4,60.04942067312334,2025-04-09 12h52.57.590074 +0100,
cube_l.png,0.1,10,catch,1,1,0,down,1.48776480000015,None,None,,,,,,,0,1,1,1,,,,,384.90530039999976,,,,,,,,,,,,,384.88935800000036,384.90530039999976,384.90530039999976,384.90530039999976,386.404364,,,,386.4103732000003,386.42200969999976,386.42200969999976,386.47053719999894,386.4707645999988,386.48709359999884,386.48709359999884,386.48709359999884,386.5536097999993,389.4845153999995,,,,388.5681996000003,389.50062909999906,389.50062909999906,389.50062909999906,down,1.48776480000015,None,None,,,,,,,,,,,,,,,,,P144,001,2025-04-09_12h52.51.923,posner_endo_new1,2024.2.4,60.04942067312334,2025-04-09 12h52.57.590074 +0100,
cube_l.png,0.1,0.31,invalid,2,2,0,down,2.820298600001479,None,space,0.4370362000008754,None,,,,,0,2,2,2,,,,,389.50062909999906,,,,,,,,,,,,,389.4846727999993,389.50062909999906,389.50062909999906,389.50062909999906,392.3317883999989,,,,392.3378238999994,392.34958389999883,392.34958389999883,392.3977950999997,392.3980245999992,392.414329199999,392.414329199999,392.414329199999,392.48091469999963,392.8644955,,,,,,,,down,2.820298600001479,None,space,0.4370362000008754,None,,,,,,,,,,,,,,,P144,001,2025-04-09_12h52.51.923,posner_endo_new1,2024.2.4,60.04942067312334,2025-04-09 12h52.57.590074 +0100,
cube_l.png,0.1,0.31,invalid,3,3,0,down,6.527836400000524,None,space,0.4941383000004862,None,,,,,0,3,3,3,,,,,392.88056999999935,,,,,,,,,,,,,392.8646749999989,392.88056999999935,392.88056999999935,392.88056999999935,399.4246578000002,,,,399.4308509000002,399.44266909999897,399.44266909999897,399.4905110999989,399.4907364999999,399.5069898999991,399.5069898999991,399.5069898999991,399.57363579999947,400.0071791999999,,,,,,,,down,6.527836400000524,None,space,0.4941383000004862,None,,,,,,,,,,,,,,,P144,001,2025-04-09_12h52.51.923,posner_endo_new1,2024.2.4,60.04942067312334,2025-04-09 12h52.57.590074 +0100,
cube_l.png,0.1,-0.31,valid,4,4,0,down,5.680886800000735,None,space,0.41126810000059777,None,,,,,0,4,4,4,,,,,400.0232696000003,,,,,,,,,,,,,400.00734959999863,400.0232696000003,400.0232696000003,400.0232696000003,405.7184552999988,,,,405.72821739999927,405.7383209999989,405.7383209999989,405.7841515,405.7844585999992,405.80063469999914,405.80063469999914,405.80063469999914,405.8838588999988,406.2180172999997,,,,,,,,down,5.680886800000735,None,space,0.41126810000059777,None,,,,,,,,,,,,,,,P144,001,2025-04-09_12h52.51.923,posner_endo_new1,2024.2.4,60.04942067312334,2025-04-09 12h52.57.590074 +0100,
cube_r.png,0.1,-0.31,invalid,5,5,0,down,5.488261399999828,None,space,0.4294266000015341,None,,,,,0,5,5,5,,,,,406.233524199999,,,,,,,,,,,,,406.21827889999986,406.233524199999,406.233524199999,406.233524199999,411.7289619999992,,,,411.73870519999946,411.74880889999986,411.74880889999986,411.79471659999945,411.7950273999995,411.8111642999993,411.8111642999993,411.8111642999993,411.89444829999957,412.24518030000036,,,,,,,,down,5.488261399999828,None,space,0.4294266000015341,None,,,,,,,,,,,,,,,P144,001,2025-04-09_12h52.51.923,posner_endo_new1,2024.2.4,60.04942067312334,2025-04-09 12h52.57.590074 +0100,
cube_r.png,0.1,0.31,valid,6,6,0,down,4.460261800000808,None,space,0.4683705999996164,None,,,,,0,6,6,6,,,,,412.2605480000002,,,,,,,,,,,,,412.24543110000013,412.2605480000002,412.2605480000002,412.2605480000002,416.72384799999963,,,,416.73362199999974,416.74375019999934,416.74375019999934,416.78957919999993,416.7899032999994,416.8061003999992,416.8061003999992,416.8061003999992,416.88938289999896,417.2899834999989,,,,,,,,down,4.460261800000808,None,space,0.4683705999996164,None,,,,,,,,,,,,,,,P144,001,2025-04-09_12h52.51.923,posner_endo_new1,2024.2.4,60.04942067312334,2025-04-09 12h52.57.590074 +0100,
cube_r.png,0.1,-0.31,invalid,7,7,0,down,5.631282199999987,None,space,0.40258469999935187,None,,,,,0,7,7,7,,,,,417.30553639999926,,,,,,,,,,,,,417.2902333999991,417.30553639999926,417.30553639999926,417.30553639999926,422.9508453999988,,,,422.96054189999995,422.97074280000015,422.97074280000015,423.01654549999876,423.0168569999987,423.03310710000005,423.03310710000005,423.03310710000005,423.1163386999997,423.45032269999865,,,,,,,,down,5.631282199999987,None,space,0.40258469999935187,None,,,,,,,,,,,,,,,P144,001,2025-04-09_12h52.51.923,posner_endo_new1,2024.2.4,60.04942067312334,2025-04-09 12h52.57.590074 +0100,
cube_l.png,0.1,-0.31,valid,8,8,0,down,5.199555500001225,None,space,0.4630142000005435,None,,,,,0,8,8,8,,,,,423.46597069999916,,,,,,,,,,,,,423.4505845999993,423.46597069999916,423.46597069999916,423.46597069999916,428.6782059999987,,,,428.6880352999997,428.69821310000043,428.69821310000043,428.7441025999997,428.74440979999963,428.7604881999996,428.7604881999996,428.7604881999996,428.84381439999925,429.2278210000004,,,,,,,,down,5.199555500001225,None,space,0.4630142000005435,None,,,,,,,,,,,,,,,P144,001,2025-04-09_12h52.51.923,posner_endo_new1,2024.2.4,60.04942067312334,2025-04-09 12h52.57.590074 +0100,
cube_r.png,0.1,-0.31,invalid,9,9,0,down,4.79727499999899,None,space,0.4639655999999377,None,,,,,0,9,9,9,,,,,429.2433712000002,,,,,,,,,,,,,429.22807769999963,429.2433712000002,429.2433712000002,429.2433712000002,434.0562424999989,,,,434.0660396000003,434.07575319999887,434.07575319999887,434.1217892000004,434.12201730000015,434.13856529999975,434.13856529999975,434.13856529999975,434.2215665999993,434.6053957000004,,,,,,,,down,4.79727499999899,None,space,0.4639655999999377,None,,,,,,,,,,,,,,,P144,001,2025-04-09_12h52.51.923,posner_endo_new1,2024.2.4,60.04942067312334,2025-04-09 12h52.57.590074 +0100,
cube_l.png,0.1,0.31,invalid,10,10,0,down,4.8439230999993015,None,space,0.4773914000015793,None,,,,,0,10,10,10,,,,,434.62112439999873,,,,,,,,,,,,,434.6055698,434.62112439999873,434.62112439999873,434.62112439999873,439.4671000999988,,,,439.473079899999,439.48473079999894,439.48473079999894,439.5329357999999,439.53316339999947,439.54948799999875,439.54948799999875,439.54948799999875,439.6162091999995,440.03299009999864,,,,,,,,down,4.8439230999993015,None,space,0.4773914000015793,None,,,,,,,,,,,,,,,P144,001,2025-04-09_12h52.51.923,posner_endo_new1,2024.2.4,60.04942067312334,2025-04-09 12h52.57.590074 +0100,
cube_r.png,0.1,-0.31,invalid,11,11,0,down,6.007871399999203,None,space,0.5072350999998889,None,,,,,0,11,11,11,,,,,440.0490196999999,,,,,,,,,,,,,440.0331654999991,440.0490196999999,440.0490196999999,440.0490196999999,446.06050759999926,,,,446.0670212999994,446.07870509999884,446.07870509999884,446.1262466999997,446.12647370000013,446.14293279999947,446.14293279999947,446.14293279999947,446.2261569000002,446.6596434000003,,,,,,,,down,6.007871399999203,None,space,0.5072350999998889,None,,,,,,,,,,,,,,,P144,001,2025-04-09_12h52.51.923,posner_endo_new1,2024.2.4,60.04942067312334,2025-04-09 12h52.57.590074 +0100,
cube_r.png,0.1,0.31,valid,12,12,0,down,4.980557599999884,None,space,0.5161724999998114,None,,,,,0,12,12,12,,,,,446.6757340000004,,,,,,,,,,,,,446.65981250000004,446.6757340000004,446.6757340000004,446.6757340000004,451.6711560999993,,,,451.6772473000001,451.6889109999993,451.6889109999993,451.73725959999865,451.73748909999995,451.7534371999991,451.7534371999991,451.7534371999991,451.8203388999991,452.27064319999954,,,,,,,,down,4.980557599999884,None,space,0.5161724999998114,None,,,,,,,,,,,,,,,P144,001,2025-04-09_12h52.51.923,posner_endo_new1,2024.2.4,60.04942067312334,2025-04-09 12h52.57.590074 +0100,
cube_l.png,0.1,10,catch,13,13,0,down,5.29878380000082,None,None,,,,,,,0,13,13,13,,,,,452.2865184000002,,,,,,,,,,,,,452.270812499999,452.2865184000002,452.2865184000002,452.2865184000002,457.59875139999895,,,,457.6085076999989,457.61854440000025,457.61854440000025,457.6643984000002,457.6647073000004,457.6810117999994,457.6810117999994,457.6810117999994,457.76421630000004,460.6785240999998,,,,459.7788956000004,460.69462810000005,460.69462810000005,460.69462810000005,down,5.29878380000082,None,None,,,,,,,,,,,,,,,,,P144,001,2025-04-09_12h52.51.923,posner_endo_new1,2024.2.4,60.04942067312334,2025-04-09 12h52.57.590074 +0100,
cube_r.png,0.1,-0.31,invalid,14,14,0,down,2.0262008999998216,None,space,0.4956181999987166,None,,,,,0,14,14,14,,,,,460.69462810000005,,,,,,,,,,,,,460.67875579999964,460.69462810000005,460.69462810000005,460.69462810000005,462.7269161999993,,,,462.73667810000006,462.74681839999903,462.74681839999903,462.79262389999894,462.79293700000017,462.80900029999975,462.80900029999975,462.80900029999975,462.89230119999957,463.30962779999936,,,,,,,,down,2.0262008999998216,None,space,0.4956181999987166,None,,,,,,,,,,,,,,,P144,001,2025-04-09_12h52.51.923,posner_endo_new1,2024.2.4,60.04942067312334,2025-04-09 12h52.57.590074 +0100,
cube_l.png,0.1,-0.31,valid,15,15,0,down,4.907521999999517,None,space,0.9811367000002065,None,,,,,0,15,15,15,,,,,463.32529689999865,,,,,,,,,,,,,463.3098761000001,463.32529689999865,463.32529689999865,463.32529689999865,468.2380138999997,,,,468.24775640000007,468.2578790999996,468.2578790999996,468.30363279999983,468.303948499999,468.32015990000036,468.32015990000036,468.32015990000036,468.4034238000004,469.30358499999966,,,,,,,,down,4.907521999999517,None,space,0.9811367000002065,None,,,,,,,,,,,,,,,P144,001,2025-04-09_12h52.51.923,posner_endo_new1,2024.2.4,60.04942067312334,2025-04-09 12h52.57.590074 +0100,
cube_r.png,0.1,10,catch,16,16,0,down,7.4977178999997705,None,None,,,,,,,0,16,16,16,,,,,469.3191074999995,,,,,,,,,,,,,469.3038352000003,469.3191074999995,469.3191074999995,469.3191074999995,476.8292779000003,,,,476.83957910000026,476.8497695999995,476.8497695999995,476.89476979999927,476.8950772999997,476.9113397000001,476.9113397000001,476.9113397000001,476.9946977999989,479.90891399999964,,,,479.00934640000014,479.9249356,479.9249356,479.9249356,down,7.4977178999997705,None,None,,,,,,,,,,,,,,,,,P144,001,2025-04-09_12h52.51.923,posner_endo_new1,2024.2.4,60.04942067312334,2025-04-09 12h52.57.590074 +0100,
cube_r.png,0.1,10,catch,17,17,0,down,2.4916771999996854,None,None,,,,,,,0,17,17,17,,,,,479.9249356,,,,,,,,,,,,,479.90914449999946,479.9249356,479.9249356,479.9249356,482.42331679999916,,,,482.4331736999993,482.44333799999913,482.44333799999913,482.4891459999999,482.4894542000002,482.5056284000002,482.5056284000002,482.5056284000002,482.5890046000004,485.50297299999875,,,,484.6035259,485.5191252000004,485.5191252000004,485.5191252000004,down,2.4916771999996854,None,None,,,,,,,,,,,,,,,,,P144,001,2025-04-09_12h52.51.923,posner_endo_new1,2024.2.4,60.04942067312334,2025-04-09 12h52.57.590074 +0100,
cube_l.png,0.1,0.31,invalid,18,18,0,down,3.1059660999999323,None,space,0.38868379999985336,None,,,,,0,18,18,18,,,,,485.5191252000004,,,,,,,,,,,,,485.50313129999995,485.5191252000004,485.5191252000004,485.5191252000004,488.63325599999916,,,,488.6393406999996,488.6510767,488.6510767,488.6994739999991,488.6996995999998,488.71601159999955,488.71601159999955,488.71601159999955,488.7825804999993,489.1162857999989,,,,,,,,down,3.1059660999999323,None,space,0.38868379999985336,None,,,,,,,,,,,,,,,P144,001,2025-04-09_12h52.51.923,posner_endo_new1,2024.2.4,60.04942067312334,2025-04-09 12h52.57.590074 +0100,
cube_l.png,0.1,10,catch,19,19,0,down,7.340357099999892,None,None,,,,,,,0,19,19,19,,,,,489.13241430000016,,,,,,,,,,,,,489.1164560999987,489.13241430000016,489.13241430000016,489.13241430000016,496.4754214000004,,,,496.4815173999996,496.4933282999991,496.4933282999991,496.5414657000001,496.54170349999913,496.5578953000004,496.5578953000004,496.5578953000004,496.6245087999996,499.5554353999996,,,,498.63910659999965,499.57157369999913,499.57157369999913,499.57157369999913,down,7.340357099999892,None,None,,,,,,,,,,,,,,,,,P144,001,2025-04-09_12h52.51.923,posner_endo_new1,2024.2.4,60.04942067312334,2025-04-09 12h52.57.590074 +0100,
cube_l.png,0.1,0.31,invalid,20,20,0,down,2.541900300000634,None,space,0.41334379999898374,None,,,,,0,20,20,20,,,,,499.57157369999913,,,,,,,,,,,,,499.5556032000004,499.57157369999913,499.57157369999913,499.57157369999913,502.12013939999997,,,,502.1349322999995,502.145422399999,502.145422399999,502.1853711999993,502.1858164999994,502.2018184999997,502.2018184999997,502.2018184999997,502.28506500000003,502.61960050000016,,,,,,,,down,2.541900300000634,None,space,0.41334379999898374,None,,,,,,,,,,,,,,,P144,001,2025-04-09_12h52.51.923,posner_endo_new1,2024.2.4,60.04942067312334,2025-04-09 12h52.57.590074 +0100,
cube_l.png,0.1,-0.31,valid,21,21,0,down,5.086011899998994,None,space,0.5167760000003909,None,,,,,0,21,21,21,,,,,502.63514439999926,,,,,,,,,,,,,502.6198566999992,502.63514439999926,502.63514439999926,502.63514439999926,507.730978399999,,,,507.74077229999966,507.7508517999995,507.7508517999995,507.796662499999,507.79697269999997,507.8131032000001,507.8131032000001,507.8131032000001,507.8965000999997,508.33089889999974,,,,,,,,down,5.086011899998994,None,space,0.5167760000003909,None,,,,,,,,,,,,,,,P144,001,2025-04-09_12h52.51.923,posner_endo_new1,2024.2.4,60.04942067312334,2025-04-09 12h52.57.590074 +0100,
cube_r.png,0.1,0.31,valid,22,22,0,down,6.591311999998652,None,space,0.43241370000032475,None,,,,,0,22,22,22,,,,,508.3459512999998,,,,,,,,,,,,,508.33114899999964,508.3459512999998,508.3459512999998,508.3459512999998,514.9402923999987,,,,514.9499913,514.9601903000002,514.9601903000002,515.0060056000002,515.0063202000001,515.0225145000004,515.0225145000004,515.0225145000004,515.1056934999997,515.4564542999997,,,,,,,,down,6.591311999998652,None,space,0.43241370000032475,None,,,,,,,,,,,,,,,P144,001,2025-04-09_12h52.51.923,posner_endo_new1,2024.2.4,60.04942067312334,2025-04-09 12h52.57.590074 +0100,
cube_r.png,0.1,-0.31,invalid,23,23,0,down,4.793005500001527,None,space,0.4284112000004825,None,,,,,0,23,23,23,,,,,515.4720075999994,,,,,,,,,,,,,515.4567029999998,515.4720075999994,515.4720075999994,515.4720075999994,520.2680376999997,,,,520.2777280999999,520.2879324999994,520.2879324999994,520.3338445999998,520.3341645,520.3503996999989,520.3503996999989,520.3503996999989,520.4336243999987,520.7843501999996,,,,,,,,down,4.793005500001527,None,space,0.4284112000004825,None,,,,,,,,,,,,,,,P144,001,2025-04-09_12h52.51.923,posner_endo_new1,2024.2.4,60.04942067312334,2025-04-09 12h52.57.590074 +0100,
cube_r.png,0.1,0.31,valid,24,24,0,down,4.960917100001097,None,space,0.4787235999992845,None,,,,,0,24,24,24,,,,,520.7998300999989,,,,,,,,,,,,,520.7845995999996,520.7998300999989,520.7998300999989,520.7998300999989,525.7626350999999,,,,525.7726126999987,525.7827020999994,525.7827020999994,525.8283875999987,525.8287038999988,525.8447184999986,525.8447184999986,525.8447184999986,525.9279506000003,526.3287139000004,,,,,,,,down,4.960917100001097,None,space,0.4787235999992845,None,,,,,,,,,,,,,,,P144,001,2025-04-09_12h52.51.923,posner_endo_new1,2024.2.4,60.04942067312334,2025-04-09 12h52.57.590074 +0100,
cube_r.png,0.1,-0.31,invalid,25,25,0,down,4.505991100000756,None,space,0.4164951000002475,None,,,,,0,25,25,25,,,,,526.3442189999987,,,,,,,,,,,,,526.3289637999987,526.3442189999987,526.3442189999987,526.3442189999987,530.8572078999987,,,,530.8672384999991,530.8774144999988,530.8774144999988,530.9231810000001,530.9234892999993,530.9395315000002,530.9395315000002,530.9395315000002,531.0228033000003,531.3570615999997,,,,,,,,down,4.505991100000756,None,space,0.4164951000002475,None,,,,,,,,,,,,,,,P144,001,2025-04-09_12h52.51.923,posner_endo_new1,2024.2.4,60.04942067312334,2025-04-09 12h52.57.590074 +0100,
cube_l.png,0.1,-0.31,valid,26,26,0,down,4.379957700000887,None,space,0.39696250000088185,None,,,,,0,26,26,26,,,,,531.3724260999988,,,,,,,,,,,,,531.3573141999987,531.3724260999988,531.3724260999988,531.3724260999988,535.7691044000003,,,,535.7789530999999,535.788786699999,535.788786699999,535.8345628999996,535.8348745000003,535.8511841999989,535.8511841999989,535.8511841999989,535.9343687,536.2518229999987,,,,,,,,down,4.379957700000887,None,space,0.39696250000088185,None,,,,,,,,,,,,,,,P144,001,2025-04-09_12h52.51.923,posner_endo_new1,2024.2.4,60.04942067312334,2025-04-09 12h52.57.590074 +0100,
cube_r.png,0.1,0.31,valid,27,27,0,down,3.3253498999984004,None,space,0.5282642999991367,None,,,,,0,27,27,27,,,,,536.2674804999988,,,,,,,,,,,,,536.2520998999989,536.2674804999988,536.2674804999988,536.2674804999988,539.5983529999994,,,,539.6073051999992,539.6169215999998,539.6169215999998,539.6642427999996,539.6644706999996,539.6807446000003,539.6807446000003,539.6807446000003,539.7638614999996,540.214158499999,,,,,,,,down,3.3253498999984004,None,space,0.5282642999991367,None,,,,,,,,,,,,,,,P144,001,2025-04-09_12h52.51.923,posner_endo_new1,2024.2.4,60.04942067312334,2025-04-09 12h52.57.590074 +0100,
cube_r.png,0.1,10,catch,28,28,0,down,5.387011099999654,None,None,,,,,,,0,28,28,28,,,,,540.2301511999995,,,,,,,,,,,,,540.2143368999987,540.2301511999995,540.2301511999995,540.2301511999995,545.625391399999,,,,545.6319351999991,545.6435648999995,545.6435648999995,545.6912469999988,545.6914765000001,545.7077026999996,545.7077026999996,545.7077026999996,545.7743849999988,548.7051788999997,,,,547.7889727999991,548.7215497999987,548.7215497999987,548.7215497999987,down,5.387011099999654,None,None,,,,,,,,,,,,,,,,,P144,001,2025-04-09_12h52.51.923,posner_endo_new1,2024.2.4,60.04942067312334,2025-04-09 12h52.57.590074 +0100,
cube_r.png,0.1,0.31,valid,29,29,0,down,1.1679364999999962,None,space,0.424946799999816,None,,,,,0,29,29,29,,,,,548.7215497999987,,,,,,,,,,,,,548.7053361999988,548.7215497999987,548.7215497999987,548.7215497999987,549.9041469000003,,,,549.910545499999,549.9224264000004,549.9224264000004,549.9701989999994,549.9704244999994,549.9867704999997,549.9867704999997,549.9867704999997,550.0534771999992,550.4203103999989,,,,,,,,down,1.1679364999999962,None,space,0.424946799999816,None,,,,,,,,,,,,,,,P144,001,2025-04-09_12h52.51.923,posner_endo_new1,2024.2.4,60.04942067312334,2025-04-09 12h52.57.590074 +0100,
cube_r.png,0.1,0.31,valid,30,30,0,down,5.613114399999176,None,space,0.4179155999991053,None,,,,,0,30,30,30,,,,,550.4362784999994,,,,,,,,,,,,,550.4204785000002,550.4362784999994,550.4362784999994,550.4362784999994,556.0645929000002,,,,556.0707536999998,556.0824656000004,556.0824656000004,556.1306810999995,556.1309084000004,556.1472020000001,556.1472020000001,556.1472020000001,556.2138512000001,556.5806971000002,,,,,,,,down,5.613114399999176,None,space,0.4179155999991053,None,,,,,,,,,,,,,,,P144,001,2025-04-09_12h52.51.923,posner_endo_new1,2024.2.4,60.04942067312334,2025-04-09 12h52.57.590074 +0100,
cube_l.png,0.1,-0.31,valid,31,31,0,down,6.3489623999994365,None,space,0.48525770000014745,None,,,,,0,31,31,31,,,,,556.5966040999992,,,,,,,,,,,,,556.5808686,556.5966040999992,556.5966040999992,556.5966040999992,562.9580050000004,,,,562.9695499999998,562.9798076999996,562.9798076999996,563.0234717999992,563.0238208999999,563.0400835,563.0400835,563.0400835,563.1233862999998,563.5407663999995,,,,,,,,down,6.3489623999994365,None,space,0.48525770000014745,None,,,,,,,,,,,,,,,P144,001,2025-04-09_12h52.51.923,posner_endo_new1,2024.2.4,60.04942067312334,2025-04-09 12h52.57.590074 +0100,
cube_r.png,0.1,0.31,valid,32,32,0,down,4.549088899999333,None,space,0.42226080000000366,None,,,,,0,32,32,32,,,,,563.5560635999991,,,,,,,,,,,,,563.5410520999994,563.5560635999991,563.5560635999991,563.5560635999991,568.1194892000003,,,,568.1309794999997,568.1412371999995,568.1412371999995,568.1849573,568.1853116999991,568.2015646999989,568.2015646999989,568.2015646999989,568.2846658999988,568.6355671999991,,,,,,,,down,4.549088899999333,None,space,0.42226080000000366,None,,,,,,,,,,,,,,,P144,001,2025-04-09_12h52.51.923,posner_endo_new1,2024.2.4,60.04942067312334,2025-04-09 12h52.57.590074 +0100,
cube_r.png,0.1,-0.31,invalid,33,33,0,down,5.230167600000641,None,space,0.37713479999911215,None,,,,,0,33,33,33,,,,,568.6510839000002,,,,,,,,,,,,,568.6358605999994,568.6510839000002,568.6510839000002,568.6510839000002,573.896863599999,,,,573.9085134999987,573.9187879000001,573.9187879000001,573.9624421999997,573.9627915000001,573.9788575000002,573.9788575000002,573.9788575000002,574.0622246999992,574.3630608999993,,,,,,,,down,5.230167600000641,None,space,0.37713479999911215,None,,,,,,,,,,,,,,,P144,001,2025-04-09_12h52.51.923,posner_endo_new1,2024.2.4,60.04942067312334,2025-04-09 12h52.57.590074 +0100,
cube_r.png,0.1,10,catch,34,34,0,down,5.550715900000796,None,None,,,,,,,0,34,34,34,,,,,574.3785221999988,,,,,,,,,,,,,574.3633477999992,574.3785221999988,574.3785221999988,574.3785221999988,579.9406934999988,,,,579.9523611000004,579.9626508000001,579.9626508000001,580.0063296999997,580.0066919000001,580.0227025000004,580.0227025000004,580.0227025000004,580.1058679999987,583.0202410999991,,,,582.1206935999999,583.0362917000002,583.0362917000002,583.0362917000002,down,5.550715900000796,None,None,,,,,,,,,,,,,,,,,P144,001,2025-04-09_12h52.51.923,posner_endo_new1,2024.2.4,60.04942067312334,2025-04-09 12h52.57.590074 +0100,
cube_r.png,0.1,0.31,valid,35,35,0,down,1.820722600001318,None,space,0.4099960000003193,None,,,,,0,35,35,35,,,,,583.0362917000002,,,,,,,,,,,,,583.0205053999998,583.0362917000002,583.0362917000002,583.0362917000002,584.8689840999996,,,,584.878523899999,584.8882355999995,584.8882355999995,584.9345207999995,584.9347784999991,584.9509371000004,584.9509371000004,584.9509371000004,585.0342141000001,585.3677580000003,,,,,,,,down,1.820722600001318,None,space,0.4099960000003193,None,,,,,,,,,,,,,,,P144,001,2025-04-09_12h52.51.923,posner_endo_new1,2024.2.4,60.04942067312334,2025-04-09 12h52.57.590074 +0100,
cube_r.png,0.1,-0.31,invalid,36,36,0,down,3.9127674999999726,None,space,0.43782809999902383,None,,,,,0,36,36,36,,,,,585.3839811999987,,,,,,,,,,,,,585.3679455000001,585.3839811999987,585.3839811999987,585.3839811999987,589.2975194999999,,,,589.3044501999993,589.3160721999993,589.3160721999993,589.3633368999999,589.3635897999993,589.3797756999993,589.3797756999993,589.3797756999993,589.4631506999995,589.8307449999993,,,,,,,,down,3.9127674999999726,None,space,0.43782809999902383,None,,,,,,,,,,,,,,,P144,001,2025-04-09_12h52.51.923,posner_endo_new1,2024.2.4,60.04942067312334,2025-04-09 12h52.57.590074 +0100,
cube_l.png,0.1,0.31,invalid,37,37,0,down,5.571054000000004,None,space,0.48499470000024303,None,,,,,0,37,37,37,,,,,589.8460911000002,,,,,,,,,,,,,589.8309363999997,589.8460911000002,589.8460911000002,589.8460911000002,595.4245689999989,,,,595.4315207,595.4433079999999,595.4433079999999,595.4903610999991,595.4905997999995,595.5070885999994,595.5070885999994,595.5070885999994,595.573615199999,596.0072440000004,,,,,,,,down,5.571054000000004,None,space,0.48499470000024303,None,,,,,,,,,,,,,,,P144,001,2025-04-09_12h52.51.923,posner_endo_new1,2024.2.4,60.04942067312334,2025-04-09 12h52.57.590074 +0100,
cube_l.png,0.1,0.31,invalid,38,38,0,down,5.53830999999991,None,space,0.4421519999996235,None,,,,,0,38,38,38,,,,,596.0231480999992,,,,,,,,,,,,,596.0074272000002,596.0231480999992,596.0231480999992,596.0231480999992,601.5680794,,,,601.5750302999986,601.5868929999997,601.5868929999997,601.6341653,601.6343952999996,601.6506694,601.6506694,601.6506694,601.7172664999998,602.1008117000001,,,,,,,,down,5.53830999999991,None,space,0.4421519999996235,None,,,,,,,,,,,,,,,P144,001,2025-04-09_12h52.51.923,posner_endo_new1,2024.2.4,60.04942067312334,2025-04-09 12h52.57.590074 +0100,
cube_r.png,0.1,0.31,valid,39,39,0,down,5.108767300000181,None,space,0.48862430000008317,None,,,,,0,39,39,39,,,,,602.1169544000004,,,,,,,,,,,,,602.1009852999996,602.1169544000004,602.1169544000004,602.1169544000004,607.2289055000001,,,,607.2352898999998,607.2469211999996,607.2469211999996,607.2948933999996,607.2954023999991,607.3113245000004,607.3113245000004,607.3113245000004,607.3946178999995,607.8126269999993,,,,,,,,down,5.108767300000181,None,space,0.48862430000008317,None,,,,,,,,,,,,,,,P144,001,2025-04-09_12h52.51.923,posner_endo_new1,2024.2.4,60.04942067312334,2025-04-09 12h52.57.590074 +0100,
cube_l.png,0.1,0.31,invalid,40,40,0,down,3.8457803999990574,None,space,0.5148696000014752,None,,,,,0,40,40,40,,,,,607.8274586999996,,,,,,,,,,,,,607.8130664,607.8274586999996,607.8274586999996,607.8274586999996,611.6750902999993,,,,611.6867074000002,611.6969774999998,611.6969774999998,611.7405042999999,611.7408572000004,611.7570369999994,611.7570369999994,611.7570369999994,611.8404141999999,612.2745548999992,,,,,,,,down,3.8457803999990574,None,space,0.5148696000014752,None,,,,,,,,,,,,,,,P144,001,2025-04-09_12h52.51.923,posner_endo_new1,2024.2.4,60.04942067312334,2025-04-09 12h52.57.590074 +0100,
cube_l.png,0.1,10,catch,41,41,0,down,4.967791099999886,None,None,,,,,,,0,41,41,41,,,,,612.2897730000004,,,,,,,,,,,,,612.2748449999999,612.2897730000004,612.2897730000004,612.2897730000004,617.2691591999992,,,,617.2787914,617.2885737999986,617.2885737999986,617.3348896999996,617.3351442999992,617.351224,617.351224,617.351224,617.4347806999995,620.3487000999994,,,,619.4491462999995,620.3648327999999,620.3648327999999,620.3648327999999,down,4.967791099999886,None,None,,,,,,,,,,,,,,,,,P144,001,2025-04-09_12h52.51.923,posner_endo_new1,2024.2.4,60.04942067312334,2025-04-09 12h52.57.590074 +0100,
cube_l.png,0.1,-0.31,valid,42,42,0,down,3.436419100000421,None,space,0.4001042999989295,None,,,,,0,42,42,42,,,,,620.3648327999999,,,,,,,,,,,,,620.3488849999994,620.3648327999999,620.3648327999999,620.3648327999999,623.8121866999991,,,,623.8198176999995,623.8310456999989,623.8310456999989,623.8780327000004,623.8782857999995,623.8945583999994,623.8945583999994,623.8945583999994,623.9777732000002,624.3114931,,,,,,,,down,3.436419100000421,None,space,0.4001042999989295,None,,,,,,,,,,,,,,,P144,001,2025-04-09_12h52.51.923,posner_endo_new1,2024.2.4,60.04942067312334,2025-04-09 12h52.57.590074 +0100,
cube_l.png,0.1,10,catch,43,43,0,down,2.617824799999653,None,None,,,,,,,0,43,43,43,,,,,624.3275358999999,,,,,,,,,,,,,624.3116883999992,624.3275358999999,624.3275358999999,624.3275358999999,626.9589054999997,,,,626.9663127000003,626.9778633999995,626.9778633999995,627.0248080000001,627.0250629000002,627.041476299999,627.041476299999,627.041476299999,627.1079788999996,630.0386875000004,,,,629.1224440999995,630.0549219000004,630.0549219000004,630.0549219000004,down,2.617824799999653,None,None,,,,,,,,,,,,,,,,,P144,001,2025-04-09_12h52.51.923,posner_endo_new1,2024.2.4,60.04942067312334,2025-04-09 12h52.57.590074 +0100,
cube_l.png,0.1,0.31,invalid,44,44,0,down,4.466476400000829,None,space,0.3787023999993835,None,,,,,0,44,44,44,,,,,630.0549219000004,,,,,,,,,,,,,630.0388669999993,630.0549219000004,630.0549219000004,630.0549219000004,634.5344289999994,,,,634.5418259999988,634.5534109,634.5534109,634.6003518999987,634.6008740999987,634.6168078999999,634.6168078999999,634.6168078999999,634.7000243999992,635.0010743999992,,,,,,,,down,4.466476400000829,None,space,0.3787023999993835,None,,,,,,,,,,,,,,,P144,001,2025-04-09_12h52.51.923,posner_endo_new1,2024.2.4,60.04942067312334,2025-04-09 12h52.57.590074 +0100,
cube_l.png,0.1,0.31,invalid,45,45,0,down,4.968982099999266,None,space,0.5089960999994219,None,,,,,0,45,45,45,,,,,635.0165118999994,,,,,,,,,,,,,635.0013467999997,635.0165118999994,635.0165118999994,635.0165118999994,639.9959767,,,,640.0070013999994,640.0172239000003,640.0172239000003,640.0616059999993,640.0619403000001,640.0781513999991,640.0781513999991,640.0781513999991,640.1613441999998,640.5954229999988,,,,,,,,down,4.968982099999266,None,space,0.5089960999994219,None,,,,,,,,,,,,,,,P144,001,2025-04-09_12h52.51.923,posner_endo_new1,2024.2.4,60.04942067312334,2025-04-09 12h52.57.590074 +0100,
cube_r.png,0.1,0.31,valid,46,46,0,down,3.0779259000009915,None,space,0.4602517999992415,None,,,,,0,46,46,46,,,,,640.6109133999998,,,,,,,,,,,,,640.5956895999989,640.6109133999998,640.6109133999998,640.6109133999998,643.6923139999999,,,,643.7034456000001,643.7137616,643.7137616,643.7579176999989,643.7582559000002,643.774317899999,643.774317899999,643.774317899999,643.8575363999989,644.2416241999999,,,,,,,,down,3.0779259000009915,None,space,0.4602517999992415,None,,,,,,,,,,,,,,,P144,001,2025-04-09_12h52.51.923,posner_endo_new1,2024.2.4,60.04942067312334,2025-04-09 12h52.57.590074 +0100,
cube_l.png,0.1,-0.31,valid,47,47,0,down,4.7773734999991575,None,space,0.3736545000010665,None,,,,,0,47,47,47,,,,,644.2571243999992,,,,,,,,,,,,,644.2418952999997,644.2571243999992,644.2571243999992,644.2571243999992,649.0369240999989,,,,649.0471737999997,649.0569654999999,649.0569654999999,649.102476,649.1027224999998,649.1188736000004,649.1188736000004,649.1188736000004,649.2020419,649.5026386999998,,,,,,,,down,4.7773734999991575,None,space,0.3736545000010665,None,,,,,,,,,,,,,,,P144,001,2025-04-09_12h52.51.923,posner_endo_new1,2024.2.4,60.04942067312334,2025-04-09 12h52.57.590074 +0100,
cube_r.png,0.1,-0.31,invalid,48,48,0,down,5.602471899999728,None,space,0.37777490000007674,None,,,,,0,48,48,48,,,,,649.5185385000004,,,,,,,,,,,,,649.502821099999,649.5185385000004,649.5185385000004,649.5185385000004,655.1301807999989,,,,655.137176799999,655.1490537999998,655.1490537999998,655.1960541999997,655.1962948,655.2125096,655.2125096,655.2125096,655.279339499999,655.5961969,,,,,,,,down,5.602471899999728,None,space,0.37777490000007674,None,,,,,,,,,,,,,,,P144,001,2025-04-09_12h52.51.923,posner_endo_new1,2024.2.4,60.04942067312334,2025-04-09 12h52.57.590074 +0100,
cube_r.png,0.1,10,catch,49,49,0,down,5.3485589000010805,None,None,,,,,,,0,49,49,49,,,,,655.6122655999989,,,,,,,,,,,,,655.596379999999,655.6122655999989,655.6122655999989,655.6122655999989,660.9740376999998,,,,660.9810134999989,660.9929648999987,660.9929648999987,661.0402087999992,661.0404534999998,661.0565970999996,661.0565970999996,661.0565970999996,661.1232789999995,664.0540946000001,,,,663.1378965999993,664.0702987999994,664.0702987999994,664.0702987999994,down,5.3485589000010805,None,None,,,,,,,,,,,,,,,,,P144,001,2025-04-09_12h52.51.923,posner_endo_new1,2024.2.4,60.04942067312334,2025-04-09 12h52.57.590074 +0100,
cube_l.png,0.1,-0.31,valid,50,50,0,down,3.2827221999996254,None,space,0.46078730000044743,None,,,,,0,50,50,50,,,,,664.0702987999994,,,,,,,,,,,,,664.0542636999999,664.0702987999994,664.0702987999994,664.0702987999994,667.3677377999993,,,,667.3747867999991,667.386649099999,667.386649099999,667.4337366,667.4339822000002,667.450104399999,667.450104399999,667.450104399999,667.5334571999992,667.9170570999995,,,,,,,,down,3.2827221999996254,None,space,0.46078730000044743,None,,,,,,,,,,,,,,,P144,001,2025-04-09_12h52.51.923,posner_endo_new1,2024.2.4,60.04942067312334,2025-04-09 12h52.57.590074 +0100,
cube_l.png,0.1,-0.31,valid,51,51,0,down,4.29191130000072,None,space,0.40794559999994817,None,,,,,0,51,51,51,,,,,667.9329750999987,,,,,,,,,,,,,667.9172407999995,667.9329750999987,667.9329750999987,667.9329750999987,672.2295114999997,,,,672.2364773999998,672.2482335999994,672.2482335999994,672.2953512000004,672.2955984,672.3118288999995,672.3118288999995,672.3118288999995,672.3784536999992,672.7288702999995,,,,,,,,down,4.29191130000072,None,space,0.40794559999994817,None,,,,,,,,,,,,,,,P144,001,2025-04-09_12h52.51.923,posner_endo_new1,2024.2.4,60.04942067312334,2025-04-09 12h52.57.590074 +0100,
cube_r.png,0.1,-0.31,invalid,52,52,0,down,4.0482248999996955,None,space,0.35696509999979753,None,,,,,0,52,52,52,,,,,672.7447909999992,,,,,,,,,,,,,672.7290524,672.7447909999992,672.7447909999992,672.7447909999992,676.8079041000001,,,,676.814800099999,676.8266784999996,676.8266784999996,676.8741078999992,676.8743360999997,676.8905966999992,676.8905966999992,676.8905966999992,676.9570867000002,677.2575020999993,,,,,,,,down,4.0482248999996955,None,space,0.35696509999979753,None,,,,,,,,,,,,,,,P144,001,2025-04-09_12h52.51.923,posner_endo_new1,2024.2.4,60.04942067312334,2025-04-09 12h52.57.590074 +0100,
cube_l.png,0.1,-0.31,valid,53,53,0,down,3.8481104999991658,None,space,0.4456136000007973,None,,,,,0,53,53,53,,,,,677.2735353999997,,,,,,,,,,,,,677.2576735000002,677.2735353999997,677.2735353999997,677.2735353999997,681.1368626000003,,,,681.143065799999,681.1547376999988,681.1547376999988,681.2028587000004,681.2030932999987,681.2193891999996,681.2193891999996,681.2193891999996,681.2859518999994,681.6696871999993,,,,,,,,down,3.8481104999991658,None,space,0.4456136000007973,None,,,,,,,,,,,,,,,P144,001,2025-04-09_12h52.51.923,posner_endo_new1,2024.2.4,60.04942067312334,2025-04-09 12h52.57.590074 +0100,
cube_r.png,0.1,10,catch,54,54,0,down,3.7312526000005164,None,None,,,,,,,0,54,54,54,,,,,681.685572299999,,,,,,,,,,,,,681.6698625999998,681.685572299999,681.685572299999,681.685572299999,685.4333470000001,,,,685.4507659999999,685.4612411999988,685.4612411999988,685.4985567000003,685.4989140999987,685.5150242,685.5150242,685.5150242,685.5983051999992,688.5126048000002,,,,687.6129471000004,688.5286743999986,688.5286743999986,688.5286743999986,down,3.7312526000005164,None,None,,,,,,,,,,,,,,,,,P144,001,2025-04-09_12h52.51.923,posner_endo_new1,2024.2.4,60.04942067312334,2025-04-09 12h52.57.590074 +0100,
cube_l.png,0.1,0.31,invalid,55,55,0,down,1.9136237000002438,None,space,0.5224269999998796,None,,,,,0,55,55,55,,,,,688.5286743999986,,,,,,,,,,,,,688.5128810999995,688.5286743999986,688.5286743999986,688.5286743999986,690.4448080999991,,,,690.4563091,690.4665234000004,690.4665234000004,690.5101507999989,690.5105090999987,690.5266035000004,690.5266035000004,690.5266035000004,690.6098506999988,691.0604234999992,,,,,,,,down,1.9136237000002438,None,space,0.5224269999998796,None,,,,,,,,,,,,,,,P144,001,2025-04-09_12h52.51.923,posner_endo_new1,2024.2.4,60.04942067312334,2025-04-09 12h52.57.590074 +0100,
cube_l.png,0.1,-0.31,valid,56,56,0,down,4.9014618000001065,None,space,0.41857730000083393,None,,,,,0,56,56,56,,,,,691.0760238999992,,,,,,,,,,,,,691.060705599999,691.0760238999992,691.0760238999992,691.0760238999992,695.9889036000004,,,,695.9986255000003,696.0084014000004,696.0084014000004,696.0544305000003,696.0547055999996,696.0708978000002,696.0708978000002,696.0708978000002,696.1542069999996,696.5047711999996,,,,,,,,down,4.9014618000001065,None,space,0.41857730000083393,None,,,,,,,,,,,,,,,P144,001,2025-04-09_12h52.51.923,posner_endo_new1,2024.2.4,60.04942067312334,2025-04-09 12h52.57.590074 +0100,
cube_r.png,0.1,0.31,valid,57,57,0,down,3.74454440000045,None,space,0.42143749999922875,None,,,,,0,57,57,57,,,,,696.5204424999993,,,,,,,,,,,,,696.5049626,696.5204424999993,696.5204424999993,696.5204424999993,700.267769099999,,,,700.2751214,700.2862846999997,700.2862846999997,700.3335114000001,700.3337634999989,700.3498507999993,700.3498507999993,700.3498507999993,700.4330687999991,700.7835630999998,,,,,,,,down,3.74454440000045,None,space,0.42143749999922875,None,,,,,,,,,,,,,,,P144,001,2025-04-09_12h52.51.923,posner_endo_new1,2024.2.4,60.04942067312334,2025-04-09 12h52.57.590074 +0100,
cube_r.png,0.1,-0.31,invalid,58,58,0,down,3.6822109000004275,None,space,0.5299673000008625,None,,,,,0,58,58,58,,,,,700.7993858999998,,,,,,,,,,,,,700.7837603999997,700.7993858999998,700.7993858999998,700.7993858999998,704.4964074999989,,,,704.5037316999988,704.5153145000004,704.5153145000004,704.5622624999996,704.5625178999999,704.578933499999,704.578933499999,704.578933499999,704.6453703999996,705.1125892,,,,,,,,down,3.6822109000004275,None,space,0.5299673000008625,None,,,,,,,,,,,,,,,P144,001,2025-04-09_12h52.51.923,posner_endo_new1,2024.2.4,60.04942067312334,2025-04-09 12h52.57.590074 +0100,
cube_l.png,0.1,0.31,invalid,59,59,0,down,3.7690884999992704,None,space,0.6195342999999411,None,,,,,0,59,59,59,,,,,705.128361699999,,,,,,,,,,,,,705.1127801999992,705.128361699999,705.128361699999,705.128361699999,708.9086331999988,,,,708.9160097000004,708.9272863999995,708.9272863999995,708.9745423000004,708.9748065000003,708.9910523999988,708.9910523999988,708.9910523999988,709.0577285999989,709.6244374999987,,,,,,,,down,3.7690884999992704,None,space,0.6195342999999411,None,,,,,,,,,,,,,,,P144,001,2025-04-09_12h52.51.923,posner_endo_new1,2024.2.4,60.04942067312334,2025-04-09 12h52.57.590074 +0100,
,,,,,,,,,,,,,,,,,,,,,,,,,,,,,,,,,,,,,,,,,,,,,,,,,,,,,,,,,,,,,,,,,,,,,709.6245638,709.6403223999987,709.6403223999987,769.6457285999986,780.1526291999999,space,70.50585370000044,None,,,,,,,P144,001,2025-04-09_12h52.51.923,posner_endo_new1,2024.2.4,60.04942067312334,2025-04-09 12h52.57.590074 +0100,
,,,,,,,,,,,,,,,,,,,,,,,,,,,,,,,,,,780.1526923999991,780.1681775999987,783.2375727999988,783.1491052000001,,,,,,,,,,,,,,,,,,,,,,,,,,,,,,,,,,,,,,,,,,,,,,P144,001,2025-04-09_12h52.51.923,posner_endo_new1,2024.2.4,60.04942067312334,2025-04-09 12h52.57.590074 +0100,
cube_l.png,0.1,10,catch,0,0,0,up,7.939522300001045,None,None,,,,,,,,,,,0,0,0,0,783.2375727999988,,,,,,,,,,,,,783.2292588,783.2375727999988,783.2375727999988,783.2375727999988,791.1912572000001,,,,791.1992001999988,791.2100351999998,791.2100351999998,791.2572057999987,791.2577650999992,791.2735756999991,791.2735756999991,791.2735756999991,791.3568135999994,794.2713191999992,,,,793.3716002000001,794.2873574999994,794.2873574999994,794.2873574999994,,,,,,,,,,,,,,,up,7.939522300001045,None,None,,,P144,001,2025-04-09_12h52.51.923,posner_endo_new1,2024.2.4,60.04942067312334,2025-04-09 12h52.57.590074 +0100,
cube_l.png,0.1,10,catch,1,1,0,up,1.1779485000006389,None,None,,,,,,,,,,,0,1,1,1,794.2873574999994,,,,,,,,,,,,,794.2715891999997,794.2873574999994,794.2873574999994,794.2873574999994,795.4708644000002,,,,795.4797022000002,795.4895102999999,795.4895102999999,795.5363490999989,795.5366063999991,795.5526407999987,795.5526407999987,795.5526407999987,795.6359524999989,798.5502063000004,,,,797.650604299999,798.5662391999995,798.5662391999995,798.5662391999995,,,,,,,,,,,,,,,up,1.1779485000006389,None,None,,,P144,001,2025-04-09_12h52.51.923,posner_endo_new1,2024.2.4,60.04942067312334,2025-04-09 12h52.57.590074 +0100,
cube_l.png,0.1,0.31,invalid,2,2,0,up,1.2907341999998607,None,space,0.3874016000008851,None,,,,,,,,,0,2,2,2,798.5662391999995,,,,,,,,,,,,,798.5503912999993,798.5662391999995,798.5662391999995,798.5662391999995,799.8658768999994,,,,799.8733826999996,799.8844874999995,799.8844874999995,799.931708099999,799.9319606999998,799.948104699999,799.948104699999,799.948104699999,800.0314817999988,800.3485146999992,,,,,,,,,,,,,,,,,,,,,,up,1.2907341999998607,None,space,0.3874016000008851,None,P144,001,2025-04-09_12h52.51.923,posner_endo_new1,2024.2.4,60.04942067312334,2025-04-09 12h52.57.590074 +0100,
cube_l.png,0.1,0.31,invalid,3,3,0,up,3.5329510000010487,None,space,0.39097059999949124,None,,,,,,,,,0,3,3,3,800.3644291,,,,,,,,,,,,,800.3487160999994,800.3644291,800.3644291,800.3644291,803.9116493999991,,,,803.9190641999994,803.9303562999994,803.9303562999994,803.9776418000001,803.9778998000002,803.9939108999988,803.9939108999988,803.9939108999988,804.0772380999988,804.3944522999991,,,,,,,,,,,,,,,,,,,,,,up,3.5329510000010487,None,space,0.39097059999949124,None,P144,001,2025-04-09_12h52.51.923,posner_endo_new1,2024.2.4,60.04942067312334,2025-04-09 12h52.57.590074 +0100,
cube_l.png,0.1,-0.31,valid,4,4,0,up,3.8636739000012312,None,space,0.4328086000004987,None,,,,,,,,,0,4,4,4,804.4101954999987,,,,,,,,,,,,,804.3946512000002,804.4101954999987,804.4101954999987,804.4101954999987,808.290525299999,,,,808.2981776999986,808.3092173999994,808.3092173999994,808.3563603000002,808.3565884999989,808.3729375000003,808.3729375000003,808.3729375000003,808.4395539999987,808.8078188,,,,,,,,,,,,,,,,,,,,,,up,3.8636739000012312,None,space,0.4328086000004987,None,P144,001,2025-04-09_12h52.51.923,posner_endo_new1,2024.2.4,60.04942067312334,2025-04-09 12h52.57.590074 +0100,
cube_r.png,0.1,-0.31,invalid,5,5,0,up,3.947195200000351,None,space,0.3998972999997932,None,,,,,,,,,0,5,5,5,808.8223521999989,,,,,,,,,,,,,808.8082975999987,808.8223521999989,808.8223521999989,808.8223521999989,812.7866283999992,,,,812.8054296999999,812.8163519999998,812.8163519999998,812.8518829000004,812.852232199999,812.8683263000003,812.8683263000003,812.8683263000003,812.9520804999993,813.2693975999991,,,,,,,,,,,,,,,,,,,,,,up,3.947195200000351,None,space,0.3998972999997932,None,P144,001,2025-04-09_12h52.51.923,posner_endo_new1,2024.2.4,60.04942067312334,2025-04-09 12h52.57.590074 +0100,
cube_r.png,0.1,0.31,valid,6,6,0,up,3.4129396000007546,None,space,0.3821932000009838,None,,,,,,,,,0,6,6,6,813.2845404,,,,,,,,,,,,,813.2696858999989,813.2845404,813.2845404,813.2845404,816.6990305999989,,,,816.7106320999992,816.7209685999987,816.7209685999987,816.7645534000003,816.7649051999997,816.7810174999995,816.7810174999995,816.7810174999995,816.8641541999987,817.165242699999,,,,,,,,,,,,,,,,,,,,,,up,3.4129396000007546,None,space,0.3821932000009838,None,P144,001,2025-04-09_12h52.51.923,posner_endo_new1,2024.2.4,60.04942067312334,2025-04-09 12h52.57.590074 +0100,
cube_r.png,0.1,-0.31,invalid,7,7,0,up,3.8612126000007265,None,space,0.33005490000141435,None,,,,,,,,,0,7,7,7,817.1805855000002,,,,,,,,,,,,,817.165539399999,817.1805855000002,817.1805855000002,817.1805855000002,821.0446133999994,,,,821.0561761999998,821.0664250999998,821.0664250999998,821.1100881000002,821.1104398999996,821.1264979999996,821.1264979999996,821.1264979999996,821.2099319999998,821.460891499999,,,,,,,,,,,,,,,,,,,,,,up,3.8612126000007265,None,space,0.33005490000141435,None,P144,001,2025-04-09_12h52.51.923,posner_endo_new1,2024.2.4,60.04942067312334,2025-04-09 12h52.57.590074 +0100,
cube_l.png,0.1,-0.31,valid,8,8,0,up,1.7175509999997303,None,space,0.4513744999985647,None,,,,,,,,,0,8,8,8,821.4761968999992,,,,,,,,,,,,,821.4611817999994,821.4761968999992,821.4761968999992,821.4761968999992,823.2088465999987,,,,823.2203616999996,823.2306728999993,823.2306728999993,823.2745164999997,823.2748713000001,823.2911112999991,823.2911112999991,823.2911112999991,823.3742215000002,823.7583316,,,,,,,,,,,,,,,,,,,,,,up,1.7175509999997303,None,space,0.4513744999985647,None,P144,001,2025-04-09_12h52.51.923,posner_endo_new1,2024.2.4,60.04942067312334,2025-04-09 12h52.57.590074 +0100,
cube_r.png,0.1,-0.31,invalid,9,9,0,up,2.2514498999989883,None,space,0.3490354000005027,None,,,,,,,,,0,9,9,9,823.7738630999993,,,,,,,,,,,,,823.7586272999997,823.7738630999993,823.7738630999993,823.7738630999993,826.0393039999999,,,,826.0483478999995,826.0580616999996,826.0580616999996,826.1045963999986,826.1048551000003,826.1215082999988,826.1215082999988,826.1215082999988,826.2047033999988,826.4721136999997,,,,,,,,,,,,,,,,,,,,,,up,2.2514498999989883,None,space,0.3490354000005027,None,P144,001,2025-04-09_12h52.51.923,posner_endo_new1,2024.2.4,60.04942067312334,2025-04-09 12h52.57.590074 +0100,
cube_l.png,0.1,0.31,invalid,10,10,0,up,1.3144850000007864,None,space,0.38815040000008594,None,,,,,,,,,0,10,10,10,826.4876762000004,,,,,,,,,,,,,826.4723059999997,826.4876762000004,826.4876762000004,826.4876762000004,827.8039990999987,,,,827.810881899999,827.8226911000002,827.8226911000002,827.8698069999991,827.8700528999998,827.8863120999995,827.8863120999995,827.8863120999995,827.9696330999996,828.2866806999991,,,,,,,,,,,,,,,,,,,,,,up,1.3144850000007864,None,space,0.38815040000008594,None,P144,001,2025-04-09_12h52.51.923,posner_endo_new1,2024.2.4,60.04942067312334,2025-04-09 12h52.57.590074 +0100,
cube_r.png,0.1,-0.31,invalid,11,11,0,up,2.402863699999216,None,space,0.3627068000005238,None,,,,,,,,,0,11,11,11,828.3026664999998,,,,,,,,,,,,,828.2868670999997,828.3026664999998,828.3026664999998,828.3026664999998,830.7173934000002,,,,830.7242958999996,830.7362656999994,830.7362656999994,830.7834953999991,830.7840457999991,830.7998823999988,830.7998823999988,830.7998823999988,830.8665308999989,831.1682316999995,,,,,,,,,,,,,,,,,,,,,,up,2.402863699999216,None,space,0.3627068000005238,None,P144,001,2025-04-09_12h52.51.923,posner_endo_new1,2024.2.4,60.04942067312334,2025-04-09 12h52.57.590074 +0100,
cube_r.png,0.1,0.31,valid,12,12,0,up,2.7464300999999978,None,space,0.37459990000024845,None,,,,,,,,,0,12,12,12,831.1828131999991,,,,,,,,,,,,,831.1687132999996,831.1828131999991,831.1828131999991,831.1828131999991,833.9314998999998,,,,833.9429622999996,833.9533164999993,833.9533164999993,833.9969500999996,833.9973038999997,834.0133876,834.0133876,834.0133876,834.0966528999998,834.3976162999988,,,,,,,,,,,,,,,,,,,,,,up,2.7464300999999978,None,space,0.37459990000024845,None,P144,001,2025-04-09_12h52.51.923,posner_endo_new1,2024.2.4,60.04942067312334,2025-04-09 12h52.57.590074 +0100,
cube_l.png,0.1,10,catch,13,13,0,up,6.221610500000679,None,None,,,,,,,,,,,0,13,13,13,834.4130337999995,,,,,,,,,,,,,834.3979158000002,834.4130337999995,834.4130337999995,834.4130337999995,840.6411709999993,,,,840.6527298000001,840.6631540999988,840.6631540999988,840.7067913999999,840.7071417999996,840.7231451999996,840.7231451999996,840.7231451999996,840.8064975999987,843.7205674999987,,,,842.8211523999998,843.7367674999987,843.7367674999987,843.7367674999987,,,,,,,,,,,,,,,up,6.221610500000679,None,None,,,P144,001,2025-04-09_12h52.51.923,posner_endo_new1,2024.2.4,60.04942067312334,2025-04-09 12h52.57.590074 +0100,
cube_r.png,0.1,-0.31,invalid,14,14,0,up,3.184449099999256,None,space,0.3891988000013953,None,,,,,,,,,0,14,14,14,843.7367674999987,,,,,,,,,,,,,843.7207612999991,843.7367674999987,843.7367674999987,843.7367674999987,846.9343884999998,,,,846.9418079999996,846.9530882999989,846.9530882999989,847.0001347999987,847.0006560999991,847.0165281999998,847.0165281999998,847.0165281999998,847.0998014999986,847.4179370000002,,,,,,,,,,,,,,,,,,,,,,up,3.184449099999256,None,space,0.3891988000013953,None,P144,001,2025-04-09_12h52.51.923,posner_endo_new1,2024.2.4,60.04942067312334,2025-04-09 12h52.57.590074 +0100,
cube_l.png,0.1,-0.31,valid,15,15,0,up,2.824588200001017,None,space,0.39130440000008093,None,,,,,,,,,0,15,15,15,847.4328028,,,,,,,,,,,,,847.4183795999998,847.4328028,847.4328028,847.4328028,850.2644927999991,,,,850.2754817999994,850.2856828000004,850.2856828000004,850.3305080999999,850.3308431999994,850.3468106,850.3468106,850.3468106,850.4299171000002,850.7474836999991,,,,,,,,,,,,,,,,,,,,,,up,2.824588200001017,None,space,0.39130440000008093,None,P144,001,2025-04-09_12h52.51.923,posner_endo_new1,2024.2.4,60.04942067312334,2025-04-09 12h52.57.590074 +0100,
cube_r.png,0.1,10,catch,16,16,0,up,2.486757700000453,None,None,,,,,,,,,,,0,16,16,16,850.7630069999996,,,,,,,,,,,,,850.7477662000001,850.7630069999996,850.7630069999996,850.7630069999996,853.2615722999999,,,,853.2725350000001,853.2827766999999,853.2827766999999,853.3272450000004,853.3275792000004,853.3435676999998,853.3435676999998,853.3435676999998,853.4270189999988,856.3412857999992,,,,855.4415379000002,856.357289399999,856.357289399999,856.357289399999,,,,,,,,,,,,,,,up,2.486757700000453,None,None,,,P144,001,2025-04-09_12h52.51.923,posner_endo_new1,2024.2.4,60.04942067312334,2025-04-09 12h52.57.590074 +0100,
cube_r.png,0.1,10,catch,17,17,0,up,0.10073989999909827,None,None,,,,,,,,,,,0,17,17,17,856.357289399999,,,,,,,,,,,,,856.3415452999998,856.357289399999,856.357289399999,856.357289399999,856.4749281999993,,,,856.4859058000002,856.4958370000004,856.4958370000004,856.5405274000004,856.5408682999987,856.5571535999989,856.5571535999989,856.5571535999989,856.6402958999988,859.5546876999997,,,,858.6549305999997,859.5706453000003,859.5706453000003,859.5706453000003,,,,,,,,,,,,,,,up,0.10073989999909827,None,None,,,P144,001,2025-04-09_12h52.51.923,posner_endo_new1,2024.2.4,60.04942067312334,2025-04-09 12h52.57.590074 +0100,
cube_l.png,0.1,0.31,invalid,18,18,0,up,3.3593373999992764,None,space,0.3444565000008879,None,,,,,,,,,0,18,18,18,859.5706453000003,,,,,,,,,,,,,859.5549460000002,859.5706453000003,859.5706453000003,859.5706453000003,862.9349886999989,,,,862.9462294999994,862.9564138999995,862.9564138999995,863.0006262999996,863.000969499999,863.0172478000004,863.0172478000004,863.0172478000004,863.1003423000002,863.3678595999991,,,,,,,,,,,,,,,,,,,,,,up,3.3593373999992764,None,space,0.3444565000008879,None,P144,001,2025-04-09_12h52.51.923,posner_endo_new1,2024.2.4,60.04942067312334,2025-04-09 12h52.57.590074 +0100,
cube_l.png,0.1,10,catch,19,19,0,up,2.881918700000824,None,None,,,,,,,,,,,0,19,19,19,863.3836317999994,,,,,,,,,,,,,863.3681442999987,863.3836317999994,863.3836317999994,863.3836317999994,866.2815887999986,,,,866.2926501999991,866.3028359,866.3028359,866.3471731999998,866.3475137999994,866.3638695999998,866.3638695999998,866.3638695999998,866.4469505999987,869.3612627999992,,,,868.4616439000001,869.3771711999998,869.3771711999998,869.3771711999998,,,,,,,,,,,,,,,up,2.881918700000824,None,None,,,P144,001,2025-04-09_12h52.51.923,posner_endo_new1,2024.2.4,60.04942067312334,2025-04-09 12h52.57.590074 +0100,
cube_l.png,0.1,0.31,invalid,20,20,0,up,0.08825710000019171,None,space,0.3762576999997691,None,,,,,,,,,0,20,20,20,869.3771711999998,,,,,,,,,,,,,869.3615257999991,869.3771711999998,869.3771711999998,869.3771711999998,869.4782938999997,,,,869.4875625000004,869.4972780999997,869.4972780999997,869.5438826999998,869.5441276999991,869.5604501999987,869.5604501999987,869.5604501999987,869.6438225999991,869.9442151000003,,,,,,,,,,,,,,,,,,,,,,up,0.08825710000019171,None,space,0.3762576999997691,None,P144,001,2025-04-09_12h52.51.923,posner_endo_new1,2024.2.4,60.04942067312334,2025-04-09 12h52.57.590074 +0100,
cube_l.png,0.1,-0.31,valid,21,21,0,up,3.857602500000212,None,space,0.42177260000062233,None,,,,,,,,,0,21,21,21,869.9599256000001,,,,,,,,,,,,,869.9444035999986,869.9599256000001,869.9599256000001,869.9599256000001,873.8236610999993,,,,873.8306228999991,873.8423645000003,873.8423645000003,873.8893270999997,873.889570899999,873.9059861999995,873.9059861999995,873.9059861999995,873.9893319999992,874.3395517999998,,,,,,,,,,,,,,,,,,,,,,up,3.857602500000212,None,space,0.42177260000062233,None,P144,001,2025-04-09_12h52.51.923,posner_endo_new1,2024.2.4,60.04942067312334,2025-04-09 12h52.57.590074 +0100,
cube_r.png,0.1,0.31,valid,22,22,0,up,6.8620207999993,None,space,0.42894890000025043,None,,,,,,,,,0,22,22,22,874.3555343999997,,,,,,,,,,,,,874.339737799999,874.3555343999997,874.3555343999997,874.3555343999997,881.2325872000001,,,,881.2397056999998,881.250924599999,881.250924599999,881.2982663999992,881.2987143999999,881.3147369999988,881.3147369999988,881.3147369999988,881.3983174999994,881.7492258000002,,,,,,,,,,,,,,,,,,,,,,up,6.8620207999993,None,space,0.42894890000025043,None,P144,001,2025-04-09_12h52.51.923,posner_endo_new1,2024.2.4,60.04942067312334,2025-04-09 12h52.57.590074 +0100,
cube_r.png,0.1,-0.31,invalid,23,23,0,up,5.900846700000329,None,space,0.41386359999887645,None,,,,,,,,,0,23,23,23,881.7646788000002,,,,,,,,,,,,,881.7494791999998,881.7646788000002,881.7646788000002,881.7646788000002,887.6763319999991,,,,887.686114099999,887.696178799999,887.696178799999,887.7420136000001,887.7423261999993,887.7585189999991,887.7585189999991,887.7585189999991,887.8418057999988,888.1757791,,,,,,,,,,,,,,,,,,,,,,up,5.900846700000329,None,space,0.41386359999887645,None,P144,001,2025-04-09_12h52.51.923,posner_endo_new1,2024.2.4,60.04942067312334,2025-04-09 12h52.57.590074 +0100,
cube_r.png,0.1,0.31,valid,24,24,0,up,4.579034899999897,None,space,0.404930400000012,None,,,,,,,,,0,24,24,24,888.1913499999991,,,,,,,,,,,,,888.1760321000002,888.1913499999991,888.1913499999991,888.1913499999991,892.7714044000004,,,,892.7814455999996,892.7915314000002,892.7915314000002,892.8366518000003,892.8369619999994,892.8533423999997,892.8533423999997,892.8533423999997,892.9367365999988,893.2706065000002,,,,,,,,,,,,,,,,,,,,,,up,4.579034899999897,None,space,0.404930400000012,None,P144,001,2025-04-09_12h52.51.923,posner_endo_new1,2024.2.4,60.04942067312334,2025-04-09 12h52.57.590074 +0100,
cube_r.png,0.1,-0.31,invalid,25,25,0,up,4.451937099998759,None,space,0.42906130000119447,None,,,,,,,,,0,25,25,25,893.286226799999,,,,,,,,,,,,,893.2708610999998,893.286226799999,893.286226799999,893.286226799999,897.7492707999991,,,,897.7590542999988,897.7691963999987,897.7691963999987,897.8150907999989,897.8154008999991,897.8318714999987,897.8318714999987,897.8318714999987,897.9148542000003,898.2655273,,,,,,,,,,,,,,,,,,,,,,up,4.451937099998759,None,space,0.42906130000119447,None,P144,001,2025-04-09_12h52.51.923,posner_endo_new1,2024.2.4,60.04942067312334,2025-04-09 12h52.57.590074 +0100,
cube_l.png,0.1,-0.31,valid,26,26,0,up,5.760456799998792,None,space,0.39945280000029015,None,,,,,,,,,0,26,26,26,898.2812431000002,,,,,,,,,,,,,898.2657791000001,898.2812431000002,898.2812431000002,898.2812431000002,904.0430921999996,,,,904.052923199999,904.0630557999993,904.0630557999993,904.1086545999988,904.1089704999995,904.1251506999997,904.1251506999997,904.1251506999997,904.2084682999994,904.5258725999993,,,,,,,,,,,,,,,,,,,,,,up,5.760456799998792,None,space,0.39945280000029015,None,P144,001,2025-04-09_12h52.51.923,posner_endo_new1,2024.2.4,60.04942067312334,2025-04-09 12h52.57.590074 +0100,
cube_r.png,0.1,0.31,valid,27,27,0,up,6.491879699999117,None,space,0.3479243999991013,None,,,,,,,,,0,27,27,27,904.5413864000002,,,,,,,,,,,,,904.5261255999994,904.5413864000002,904.5413864000002,904.5413864000002,911.0359135999988,,,,911.0456646999992,911.0558361000003,911.0558361000003,911.101582199999,911.1018925999997,911.1180447999996,911.1180447999996,911.1180447999996,911.2012364999991,911.4688511000004,,,,,,,,,,,,,,,,,,,,,,up,6.491879699999117,None,space,0.3479243999991013,None,P144,001,2025-04-09_12h52.51.923,posner_endo_new1,2024.2.4,60.04942067312334,2025-04-09 12h52.57.590074 +0100,
cube_r.png,0.1,10,catch,28,28,0,up,4.797492399999101,None,None,,,,,,,,,,,0,28,28,28,911.4843368000002,,,,,,,,,,,,,911.4691086999992,911.4843368000002,911.4843368000002,911.4843368000002,916.2971331999997,,,,916.3069557999988,916.3170338,916.3170338,916.3628403000002,916.3631483999998,916.3793062000004,916.3793062000004,916.3793062000004,916.4626613,919.3769173000001,,,,918.4771375,919.3928553999995,919.3928553999995,919.3928553999995,,,,,,,,,,,,,,,up,4.797492399999101,None,None,,,P144,001,2025-04-09_12h52.51.923,posner_endo_new1,2024.2.4,60.04942067312334,2025-04-09 12h52.57.590074 +0100,
cube_r.png,0.1,0.31,valid,29,29,0,up,3.2011067000003095,None,space,0.38374280000061844,None,,,,,,,,,0,29,29,29,919.3928553999995,,,,,,,,,,,,,919.37716,919.3928553999995,919.3928553999995,919.3928553999995,922.6073536999993,,,,922.6167003999999,922.6264797000003,922.6264797000003,922.6731373000002,922.673369099999,922.6895843999991,922.6895843999991,922.6895843999991,922.7728393999987,923.0899073,,,,,,,,,,,,,,,,,,,,,,up,3.2011067000003095,None,space,0.38374280000061844,None,P144,001,2025-04-09_12h52.51.923,posner_endo_new1,2024.2.4,60.04942067312334,2025-04-09 12h52.57.590074 +0100,
cube_r.png,0.1,0.31,valid,30,30,0,up,6.064168900000368,None,space,0.3053419000007125,None,,,,,,,,,0,30,30,30,923.105734499999,,,,,,,,,,,,,923.090079399999,923.105734499999,923.105734499999,923.105734499999,929.1834961000004,,,,929.1899467000003,929.2016074999992,929.2016074999992,929.2497349999994,929.2499682999987,929.2661294999998,929.2661294999998,929.2661294999998,929.3331457999993,929.5831488999993,,,,,,,,,,,,,,,,,,,,,,up,6.064168900000368,None,space,0.3053419000007125,None,P144,001,2025-04-09_12h52.51.923,posner_endo_new1,2024.2.4,60.04942067312334,2025-04-09 12h52.57.590074 +0100,
cube_l.png,0.1,-0.31,valid,31,31,0,up,4.434516400000575,None,space,0.35662200000115263,None,,,,,,,,,0,31,31,31,929.5991775000002,,,,,,,,,,,,,929.5833215000002,929.5991775000002,929.5991775000002,929.5991775000002,934.0452750000004,,,,934.0517065999993,934.063564099999,934.063564099999,934.1112859999994,934.1115126000004,934.1280427999991,934.1280427999991,934.1280427999991,934.1943832999987,934.4948950999988,,,,,,,,,,,,,,,,,,,,,,up,4.434516400000575,None,space,0.35662200000115263,None,P144,001,2025-04-09_12h52.51.923,posner_endo_new1,2024.2.4,60.04942067312334,2025-04-09 12h52.57.590074 +0100,
cube_r.png,0.1,0.31,valid,32,32,0,up,3.827393100000336,None,space,0.3881561000016518,None,,,,,,,,,0,32,32,32,934.5108837999996,,,,,,,,,,,,,934.4950806999987,934.5108837999996,934.5108837999996,934.5108837999996,938.3409835000002,,,,938.3470569000001,938.3587735000001,938.3587735000001,938.406995899999,938.4072204999993,938.4234717999989,938.4234717999989,938.4234717999989,938.4900965999987,938.8235561999991,,,,,,,,,,,,,,,,,,,,,,up,3.827393100000336,None,space,0.3881561000016518,None,P144,001,2025-04-09_12h52.51.923,posner_endo_new1,2024.2.4,60.04942067312334,2025-04-09 12h52.57.590074 +0100,
cube_r.png,0.1,-0.31,invalid,33,33,0,up,10.394700099999682,None,space,0.4159651000009035,None,,,,,,,,,0,33,33,33,938.8397042999986,,,,,,,,,,,,,938.8237315999995,938.8397042999986,938.8397042999986,938.8397042999986,949.2470040999997,,,,949.2575445000002,949.2671372000004,949.2671372000004,949.3124656999989,949.3127227999994,949.3292586999996,949.3292586999996,949.3292586999996,949.4121727999991,949.7462882,,,,,,,,,,,,,,,,,,,,,,up,10.394700099999682,None,space,0.4159651000009035,None,P144,001,2025-04-09_12h52.51.923,posner_endo_new1,2024.2.4,60.04942067312334,2025-04-09 12h52.57.590074 +0100,
cube_r.png,0.1,10,catch,34,34,0,up,8.504178500001217,None,None,,,,,,,,,,,0,34,34,34,949.761792199999,,,,,,,,,,,,,949.7464856999995,949.761792199999,949.761792199999,949.761792199999,958.2707240999989,,,,958.2781966000002,958.2895576999999,958.2895576999999,958.3363554999996,958.3366114,958.3530869999995,958.3530869999995,958.3530869999995,958.4363023999995,961.3505461999994,,,,960.4509531000003,961.3667764999991,961.3667764999991,961.3667764999991,,,,,,,,,,,,,,,up,8.504178500001217,None,None,,,P144,001,2025-04-09_12h52.51.923,posner_endo_new1,2024.2.4,60.04942067312334,2025-04-09 12h52.57.590074 +0100,
cube_r.png,0.1,0.31,valid,35,35,0,up,6.946753899999749,None,space,0.4595350999989023,None,,,,,,,,,0,35,35,35,961.3667764999991,,,,,,,,,,,,,961.3507327999996,961.3667764999991,961.3667764999991,961.3667764999991,968.3270960999998,,,,968.3346877999993,968.3457710999992,968.3457710999992,968.3928342999989,968.3930970999991,968.4095811999996,968.4095811999996,968.4095811999996,968.4926699999996,968.8763449999988,,,,,,,,,,,,,,,,,,,,,,up,6.946753899999749,None,space,0.4595350999989023,None,P144,001,2025-04-09_12h52.51.923,posner_endo_new1,2024.2.4,60.04942067312334,2025-04-09 12h52.57.590074 +0100,
cube_r.png,0.1,-0.31,invalid,36,36,0,up,3.8294043999994756,None,space,0.5375867999991897,None,,,,,,,,,0,36,36,36,968.8923137999991,,,,,,,,,,,,,968.876542,968.8923137999991,968.8923137999991,968.8923137999991,972.7227426999998,,,,972.7301545999999,972.7413732999994,972.7413732999994,972.7883805000001,972.7889094000002,972.8047589999987,972.8047589999987,972.8047589999987,972.8882701999992,973.3557211999996,,,,,,,,,,,,,,,,,,,,,,up,3.8294043999994756,None,space,0.5375867999991897,None,P144,001,2025-04-09_12h52.51.923,posner_endo_new1,2024.2.4,60.04942067312334,2025-04-09 12h52.57.590074 +0100,
cube_l.png,0.1,0.31,invalid,37,37,0,up,3.798332099999243,None,space,0.3830593000002409,None,,,,,,,,,0,37,37,37,973.3711105000002,,,,,,,,,,,,,973.356009699999,973.3711105000002,973.3711105000002,973.3711105000002,977.1851081000004,,,,977.1966314000001,977.2069959,977.2069959,977.2506572999991,977.2510084999994,977.267131999999,977.267131999999,977.267131999999,977.3505334999991,977.6514687999988,,,,,,,,,,,,,,,,,,,,,,up,3.798332099999243,None,space,0.3830593000002409,None,P144,001,2025-04-09_12h52.51.923,posner_endo_new1,2024.2.4,60.04942067312334,2025-04-09 12h52.57.590074 +0100,
cube_l.png,0.1,0.31,invalid,38,38,0,up,5.046803299999738,None,space,0.3830643000001146,None,,,,,,,,,0,38,38,38,977.6667008999993,,,,,,,,,,,,,977.6517576999995,977.6667008999993,977.6667008999993,977.6667008999993,982.7292896999988,,,,982.7384241999989,982.7482258,982.7482258,982.7949824999996,982.7952249999998,982.8113419000001,982.8113419000001,982.8113419000001,982.8947085,983.1953362000004,,,,,,,,,,,,,,,,,,,,,,up,5.046803299999738,None,space,0.3830643000001146,None,P144,001,2025-04-09_12h52.51.923,posner_endo_new1,2024.2.4,60.04942067312334,2025-04-09 12h52.57.590074 +0100,
cube_r.png,0.1,0.31,valid,39,39,0,up,5.758323099998961,None,space,0.36435259999962,None,,,,,,,,,0,39,39,39,983.2111169999989,,,,,,,,,,,,,983.1955258999988,983.2111169999989,983.2111169999989,983.2111169999989,988.9725196999989,,,,988.9795582999996,988.9912489999988,988.9912489999988,989.0385657999996,989.038811299999,989.0551388999993,989.0551388999993,989.0551388999993,989.1216115999996,989.4222551000003,,,,,,,,,,,,,,,,,,,,,,up,5.758323099998961,None,space,0.36435259999962,None,P144,001,2025-04-09_12h52.51.923,posner_endo_new1,2024.2.4,60.04942067312334,2025-04-09 12h52.57.590074 +0100,
cube_l.png,0.1,0.31,invalid,40,40,0,up,3.8117864999985613,None,space,0.35995179999918037,None,,,,,,,,,0,40,40,40,989.4379527000001,,,,,,,,,,,,,989.4224462000002,989.4379527000001,989.4379527000001,989.4379527000001,993.2516758000002,,,,993.2586484999993,993.2704491999993,993.2704491999993,993.3173831999993,993.3176272000001,993.3340317000002,993.3340317000002,993.3340317000002,993.4173649999993,993.7010430999999,,,,,,,,,,,,,,,,,,,,,,up,3.8117864999985613,None,space,0.35995179999918037,None,P144,001,2025-04-09_12h52.51.923,posner_endo_new1,2024.2.4,60.04942067312334,2025-04-09 12h52.57.590074 +0100,
cube_l.png,0.1,10,catch,41,41,0,up,5.493111599998883,None,space,0.29822280000007595,None,,,,,,,,,0,41,41,41,993.7170038999993,,,,,,,,,,,,,993.7012290000002,993.7170038999993,993.7170038999993,993.7170038999993,999.2121017999998,,,,999.2190871000003,999.2307846999993,999.2307846999993,999.2781125000001,999.2783483999992,999.2946833999995,999.2946833999995,999.2946833999995,999.3612572000002,999.5951121999988,,,,,,,,,,,,,,,,,,,,,,up,5.493111599998883,None,space,0.29822280000007595,None,P144,001,2025-04-09_12h52.51.923,posner_endo_new1,2024.2.4,60.04942067312334,2025-04-09 12h52.57.590074 +0100,
cube_l.png,0.1,-0.31,valid,42,42,0,up,5.958579799998915,None,space,0.4727476999996725,None,,,,,,,,,0,42,42,42,999.6109281999998,,,,,,,,,,,,,999.5952848999987,999.6109281999998,999.6109281999998,999.6109281999998,1005.5722261999999,,,,1005.5782737999998,1005.5899577,1005.5899577,1005.6383231999989,1005.6385484000002,1005.6548846999995,1005.6548846999995,1005.6548846999995,1005.7215077000001,1006.1383729999998,,,,,,,,,,,,,,,,,,,,,,up,5.958579799998915,None,space,0.4727476999996725,None,P144,001,2025-04-09_12h52.51.923,posner_endo_new1,2024.2.4,60.04942067312334,2025-04-09 12h52.57.590074 +0100,
cube_l.png,0.1,10,catch,43,43,0,up,4.272927500000151,None,None,,,,,,,,,,,0,43,43,43,1006.1543469999997,,,,,,,,,,,,,1006.1385455,1006.1543469999997,1006.1543469999997,1006.1543469999997,1010.4339932999992,,,,1010.4400604000002,1010.4516365,1010.4516365,1010.5000949999994,1010.5003227999987,1010.5166018,1010.5166018,1010.5166018,1010.5830034999999,1013.5138423999997,,,,1012.5976491000001,1013.5301163000004,1013.5301163000004,1013.5301163000004,,,,,,,,,,,,,,,up,4.272927500000151,None,None,,,P144,001,2025-04-09_12h52.51.923,posner_endo_new1,2024.2.4,60.04942067312334,2025-04-09 12h52.57.590074 +0100,
cube_l.png,0.1,0.31,invalid,44,44,0,up,1.079367899999852,None,space,0.39934510000057344,None,,,,,,,,,0,44,44,44,1013.5301163000004,,,,,,,,,,,,,1013.5140061999991,1013.5301163000004,1013.5301163000004,1013.5301163000004,1014.6130961999988,,,,1014.6191779000001,1014.6308929999996,1014.6308929999996,1014.6790015999995,1014.6792288999986,1014.6956885,1014.6956885,1014.6956885,1014.7620843999994,1015.0960364000002,,,,,,,,,,,,,,,,,,,,,,up,1.079367899999852,None,space,0.39934510000057344,None,P144,001,2025-04-09_12h52.51.923,posner_endo_new1,2024.2.4,60.04942067312334,2025-04-09 12h52.57.590074 +0100,
cube_l.png,0.1,0.31,invalid,45,45,0,up,5.089534400000048,None,space,0.44321640000089246,None,,,,,,,,,0,45,45,45,1015.1119414999994,,,,,,,,,,,,,1015.0962106999996,1015.1119414999994,1015.1119414999994,1015.1119414999994,1020.2076718999997,,,,1020.2176163999993,1020.227713799999,1020.227713799999,1020.2733853999998,1020.2736960999991,1020.2899018999997,1020.2899018999997,1020.2899018999997,1020.3731121000001,1020.7404661,,,,,,,,,,,,,,,,,,,,,,up,5.089534400000048,None,space,0.44321640000089246,None,P144,001,2025-04-09_12h52.51.923,posner_endo_new1,2024.2.4,60.04942067312334,2025-04-09 12h52.57.590074 +0100,
cube_r.png,0.1,0.31,valid,46,46,0,up,4.029644700000063,None,space,0.39428699999916716,None,,,,,,,,,0,46,46,46,1020.7561112999992,,,,,,,,,,,,,1020.7407263999994,1020.7561112999992,1020.7561112999992,1020.7561112999992,1024.802904099999,,,,1024.8126928000001,1024.8227857000002,1024.8227857000002,1024.8686729,1024.868984499999,1024.8852098999996,1024.8852098999996,1024.8852098999996,1024.9684187999992,1025.2858336999998,,,,,,,,,,,,,,,,,,,,,,up,4.029644700000063,None,space,0.39428699999916716,None,P144,001,2025-04-09_12h52.51.923,posner_endo_new1,2024.2.4,60.04942067312334,2025-04-09 12h52.57.590074 +0100,
cube_l.png,0.1,-0.31,valid,47,47,0,up,3.4521589999985736,None,space,0.379474699999264,None,,,,,,,,,0,47,47,47,1025.3013888999994,,,,,,,,,,,,,1025.2860861999998,1025.3013888999994,1025.3013888999994,1025.3013888999994,1028.7656136999994,,,,1028.7753491999993,1028.7855404000002,1028.7855404000002,1028.8314367999992,1028.8317599000002,1028.8478720999992,1028.8478720999992,1028.8478720999992,1028.9310883999988,1029.2317552999993,,,,,,,,,,,,,,,,,,,,,,up,3.4521589999985736,None,space,0.379474699999264,None,P144,001,2025-04-09_12h52.51.923,posner_endo_new1,2024.2.4,60.04942067312334,2025-04-09 12h52.57.590074 +0100,
cube_r.png,0.1,-0.31,invalid,48,48,0,up,6.2984282999987045,None,space,0.4386459000015748,None,,,,,,,,,0,48,48,48,1029.2473254999986,,,,,,,,,,,,,1029.2320143999987,1029.2473254999986,1029.2473254999986,1029.2473254999986,1035.558627299999,,,,1035.5684451999987,1035.5786773,1035.5786773,1035.6243178000004,1035.6246281000003,1035.6407995999998,1035.6407995999998,1035.6407995999998,1035.7241397999987,1036.0914799000002,,,,,,,,,,,,,,,,,,,,,,up,6.2984282999987045,None,space,0.4386459000015748,None,P144,001,2025-04-09_12h52.51.923,posner_endo_new1,2024.2.4,60.04942067312334,2025-04-09 12h52.57.590074 +0100,
cube_r.png,0.1,10,catch,49,49,0,up,4.83053579999978,None,None,,,,,,,,,,,0,49,49,49,1036.1070608999999,,,,,,,,,,,,,1036.0917364999987,1036.1070608999999,1036.1070608999999,1036.1070608999999,1040.9532331999999,,,,1040.9632394,1040.9735032999997,1040.9735032999997,1041.0189415999994,1041.0192513000002,1041.0353220999987,1041.0353220999987,1041.0353220999987,1041.1185434,1044.0329373000004,,,,1043.1332665999998,1044.0490106999987,1044.0490106999987,1044.0490106999987,,,,,,,,,,,,,,,up,4.83053579999978,None,None,,,P144,001,2025-04-09_12h52.51.923,posner_endo_new1,2024.2.4,60.04942067312334,2025-04-09 12h52.57.590074 +0100,
cube_l.png,0.1,-0.31,valid,50,50,0,up,2.025287500000559,None,space,0.40552219999881345,None,,,,,,,,,0,50,50,50,1044.0490106999987,,,,,,,,,,,,,1044.0331731999995,1044.0490106999987,1044.0490106999987,1044.0490106999987,1046.0812026999993,,,,1046.0909715999987,1046.1012066000003,1046.1012066000003,1046.1469779999989,1046.1473007999994,1046.1635764000002,1046.1635764000002,1046.1635764000002,1046.2467858,1046.5808466999988,,,,,,,,,,,,,,,,,,,,,,up,2.025287500000559,None,space,0.40552219999881345,None,P144,001,2025-04-09_12h52.51.923,posner_endo_new1,2024.2.4,60.04942067312334,2025-04-09 12h52.57.590074 +0100,
cube_l.png,0.1,-0.31,valid,51,51,0,up,4.973551999999472,None,space,0.41574969999965106,None,,,,,,,,,0,51,51,51,1046.5963722999986,,,,,,,,,,,,,1046.5811175,1046.5963722999986,1046.5963722999986,1046.5963722999986,1051.5756678999987,,,,1051.585488499999,1051.595666199999,1051.595666199999,1051.6413235,1051.6416313999998,1051.6578248999995,1051.6578248999995,1051.6578248999995,1051.7411518999997,1052.0753081999992,,,,,,,,,,,,,,,,,,,,,,up,4.973551999999472,None,space,0.41574969999965106,None,P144,001,2025-04-09_12h52.51.923,posner_endo_new1,2024.2.4,60.04942067312334,2025-04-09 12h52.57.590074 +0100,
cube_r.png,0.1,-0.31,invalid,52,52,0,up,4.591060500000822,None,space,0.4373873000004096,None,,,,,,,,,0,52,52,52,1052.0908068999997,,,,,,,,,,,,,1052.0755651,1052.0908068999997,1052.0908068999997,1052.0908068999997,1056.687157299999,,,,1056.6969430999998,1056.7071118000003,1056.7071118000003,1056.7527840999992,1056.753092699999,1056.7692528999996,1056.7692528999996,1056.7692528999996,1056.8525264,1057.2199710999994,,,,,,,,,,,,,,,,,,,,,,up,4.591060500000822,None,space,0.4373873000004096,None,P144,001,2025-04-09_12h52.51.923,posner_endo_new1,2024.2.4,60.04942067312334,2025-04-09 12h52.57.590074 +0100,
cube_l.png,0.1,-0.31,valid,53,53,0,up,6.598184399999809,None,space,0.4244742999999289,None,,,,,,,,,0,53,53,53,1057.2354775999993,,,,,,,,,,,,,1057.2202355999998,1057.2354775999993,1057.2354775999993,1057.2354775999993,1063.8463644999993,,,,1063.8559196999995,1063.8654798999996,1063.8654798999996,1063.9120459999995,1063.9122773999989,1063.928656099999,1063.928656099999,1063.928656099999,1064.011948199999,1064.3622498000004,,,,,,,,,,,,,,,,,,,,,,up,6.598184399999809,None,space,0.4244742999999289,None,P144,001,2025-04-09_12h52.51.923,posner_endo_new1,2024.2.4,60.04942067312334,2025-04-09 12h52.57.590074 +0100,
cube_r.png,0.1,10,catch,54,54,0,up,5.135373200000686,None,None,,,,,,,,,,,0,54,54,54,1064.3782816999992,,,,,,,,,,,,,1064.3624220000002,1064.3782816999992,1064.3782816999992,1064.3782816999992,1069.5236372999989,,,,1069.5298086000003,1069.5416535000004,1069.5416535000004,1069.5896799000002,1069.5899116,1069.6061532000003,1069.6061532000003,1069.6061532000003,1069.6727689999989,1072.6035018000002,,,,1071.6874391000001,1072.6197933000003,1072.6197933000003,1072.6197933000003,,,,,,,,,,,,,,,up,5.135373200000686,None,None,,,P144,001,2025-04-09_12h52.51.923,posner_endo_new1,2024.2.4,60.04942067312334,2025-04-09 12h52.57.590074 +0100,
cube_l.png,0.1,0.31,invalid,55,55,0,up,1.9338991999993596,None,space,0.4487542000006215,None,,,,,,,,,0,55,55,55,1072.6197933000003,,,,,,,,,,,,,1072.6036609000002,1072.6197933000003,1072.6197933000003,1072.6197933000003,1074.5685135999993,,,,1074.5745436999987,1074.5862990999995,1074.5862990999995,1074.6342833999988,1074.6345103999993,1074.6510497,1074.6510497,1074.6510497,1074.7176622999996,1075.1015025999986,,,,,,,,,,,,,,,,,,,,,,up,1.9338991999993596,None,space,0.4487542000006215,None,P144,001,2025-04-09_12h52.51.923,posner_endo_new1,2024.2.4,60.04942067312334,2025-04-09 12h52.57.590074 +0100,
cube_l.png,0.1,-0.31,valid,56,56,0,up,5.1246344999999565,None,space,0.42084090000025753,None,,,,,,,,,0,56,56,56,1075.1172322999992,,,,,,,,,,,,,1075.1016741999993,1075.1172322999992,1075.1172322999992,1075.1172322999992,1080.2458265999994,,,,1080.2519317999995,1080.2635713,1080.2635713,1080.3120081999987,1080.3122373999995,1080.3287166999999,1080.3287166999999,1080.3287166999999,1080.395208599999,1080.7622450999988,,,,,,,,,,,,,,,,,,,,,,up,5.1246344999999565,None,space,0.42084090000025753,None,P144,001,2025-04-09_12h52.51.923,posner_endo_new1,2024.2.4,60.04942067312334,2025-04-09 12h52.57.590074 +0100,
cube_r.png,0.1,0.31,valid,57,57,0,up,4.45554970000012,None,space,0.41088630000012927,None,,,,,,,,,0,57,57,57,1080.7782343,,,,,,,,,,,,,1080.7624176999998,1080.7782343,1080.7782343,1080.7782343,1085.2407989999992,,,,1085.2468548999987,1085.2585185999997,1085.2585185999997,1085.3069180999992,1085.3071456999987,1085.3232303000004,1085.3232303000004,1085.3232303000004,1085.3900420999998,1085.7405717000001,,,,,,,,,,,,,,,,,,,,,,up,4.45554970000012,None,space,0.41088630000012927,None,P144,001,2025-04-09_12h52.51.923,posner_endo_new1,2024.2.4,60.04942067312334,2025-04-09 12h52.57.590074 +0100,
cube_r.png,0.1,-0.31,invalid,58,58,0,up,6.685323400000925,None,space,0.431937299999845,None,,,,,,,,,0,58,58,58,1085.7563651,,,,,,,,,,,,,1085.7407454000004,1085.7563651,1085.7563651,1085.7563651,1092.4506272999988,,,,1092.4654016999993,1092.4757842999988,1092.4757842999988,1092.5163386000004,1092.5166338999989,1092.5327034999991,1092.5327034999991,1092.5327034999991,1092.615982899999,1092.9667596999989,,,,,,,,,,,,,,,,,,,,,,up,6.685323400000925,None,space,0.431937299999845,None,P144,001,2025-04-09_12h52.51.923,posner_endo_new1,2024.2.4,60.04942067312334,2025-04-09 12h52.57.590074 +0100,
cube_l.png,0.1,0.31,invalid,59,59,0,up,4.70038249999925,None,space,0.4489886999999726,None,,,,,,,,,0,59,59,59,1092.9823453999998,,,,,,,,,,,,,1092.9669947000002,1092.9823453999998,1092.9823453999998,1092.9823453999998,1097.6952588999993,,,,1097.7050737999998,1097.7151372999997,1097.7151372999997,1097.7608612999993,1097.7611727000003,1097.7774563999992,1097.7774563999992,1097.7774563999992,1097.860656499999,1098.2281982000004,,,,,,,,,,,,,,,,,,,,,,up,4.70038249999925,None,space,0.4489886999999726,None,P144,001,2025-04-09_12h52.51.923,posner_endo_new1,2024.2.4,60.04942067312334,2025-04-09 12h52.57.590074 +0100,
