cue_img,cue_soa,target_y,trial,thisN,thisTrialN,thisRepN,key_control2.keys,key_control2.rt,key_control2.duration,key_resp.keys,key_resp.rt,key_resp.duration,practice.thisRepN,practice.thisTrialN,practice.thisN,practice.thisIndex,block1.thisRepN,block1.thisTrialN,block1.thisN,block1.thisIndex,block2.thisRepN,block2.thisTrialN,block2.thisN,block2.thisIndex,thisRow.t,notes,instructions.started,instructions_txt.started,key_control.started,instructions.stopped,key_control.keys,key_control.rt,key_control.duration,ready.started,ready_txt.started,ready_txt.stopped,ready.stopped,fix.started,fixation.started,key_control2.started,fixation_cross.started,fix.stopped,practice.key_control2.keys,practice.key_control2.rt,practice.key_control2.duration,cue.started,cube.started,fixation_cross_cue.started,cue.stopped,target.started,fixation_target.started,fixation_cross_target.started,key_resp.started,star.started,target.stopped,practice.key_resp.keys,practice.key_resp.rt,practice.key_resp.duration,star.stopped,fixation_target.stopped,fixation_cross_target.stopped,key_resp.stopped,block1.key_control2.keys,block1.key_control2.rt,block1.key_control2.duration,block1.key_resp.keys,block1.key_resp.rt,block1.key_resp.duration,break_2.started,text.started,key_control3.started,text.stopped,break_2.stopped,key_control3.keys,key_control3.rt,key_control3.duration,block2.key_control2.keys,block2.key_control2.rt,block2.key_control2.duration,block2.key_resp.keys,block2.key_resp.rt,block2.key_resp.duration,participant,session,date,expName,psychopyVersion,frameRate,expStart,
,,,,,,,,,,,,,,,,,,,,,,,,,,,0.007414699997752905,0.029750699999567587,0.029750699999567587,19.332915799997863,up,19.298789999997098,None,,,,,,,,,,,,,,,,,,,,,,,,,,,,,,,,,,,,,,,,,,,,,,,,,,P145,001,2025-04-09_14h09.28.448,posner_endo_new1,2024.2.4,60.026207441694794,2025-04-09 14h09.39.007652 +0100,
,,,,,,,,,,,,,,,,,,,,,,,,,,,,,,,,,,19.332954899997276,19.34585700000025,22.36244799999986,22.32703069999843,,,,,,,,,,,,,,,,,,,,,,,,,,,,,,,,,,,,,,,,,,,,,,P145,001,2025-04-09_14h09.28.448,posner_endo_new1,2024.2.4,60.026207441694794,2025-04-09 14h09.39.007652 +0100,
cube_l.png,0.1,-0.31,valid,0,0,0,up,10.149529799997254,None,space,0.6166446999995969,None,0,0,0,0,,,,,,,,,22.36244799999986,,,,,,,,,,,,,22.347200799998973,22.36244799999986,22.36244799999986,22.36244799999986,32.517063499999495,up,10.149529799997254,None,32.53482439999789,32.54598249999981,32.54598249999981,32.58248470000035,32.582713600000716,32.5991240000003,32.5991240000003,32.5991240000003,32.68243000000075,33.23272079999879,space,0.6166446999995969,None,,,,,,,,,,,,,,,,,,,,,,,,,P145,001,2025-04-09_14h09.28.448,posner_endo_new1,2024.2.4,60.026207441694794,2025-04-09 14h09.39.007652 +0100,
cube_l.png,0.1,0.31,invalid,1,1,0,up,1.7439917999981844,None,space,0.486908199996833,None,0,1,1,1,,,,,,,,,33.248380900000484,,,,,,,,,,,,,33.232885800000076,33.248380900000484,33.248380900000484,33.248380900000484,34.99687509999785,up,1.7439917999981844,None,35.004112599999644,35.015819599997485,35.015819599997485,35.06329410000035,35.06352530000004,35.08004159999837,35.08004159999837,35.08004159999837,35.146540099998674,35.58002679999845,space,0.486908199996833,None,,,,,,,,,,,,,,,,,,,,,,,,,P145,001,2025-04-09_14h09.28.448,posner_endo_new1,2024.2.4,60.026207441694794,2025-04-09 14h09.39.007652 +0100,
cube_r.png,0.1,10,catch,2,2,0,up,1.8689960000010615,None,None,,,0,2,2,3,,,,,,,,,35.59596139999849,,,,,,,,,,,,,35.580191599998216,35.59596139999849,35.59596139999849,35.59596139999849,37.47774049999862,up,1.8689960000010615,None,37.4843813999978,37.49612999999954,37.49612999999954,37.54361609999978,37.54384260000006,37.56065309999758,37.56065309999758,37.56065309999758,37.62738800000079,40.55767289999858,None,,,39.64191429999846,40.5741554999986,40.5741554999986,40.5741554999986,,,,,,,,,,,,,,,,,,,,,P145,001,2025-04-09_14h09.28.448,posner_endo_new1,2024.2.4,60.026207441694794,2025-04-09 14h09.39.007652 +0100,
cube_r.png,0.1,0.31,valid,3,3,0,up,2.370269200000621,None,space,0.44847419999859994,None,0,3,3,10,,,,,,,,,40.5741554999986,,,,,,,,,,,,,40.55782460000046,40.5741554999986,40.5741554999986,40.5741554999986,42.95588510000016,up,2.370269200000621,None,42.96245590000035,42.974303599999985,42.974303599999985,43.021642199997586,43.02186950000032,43.03798099999767,43.03798099999767,43.03798099999767,43.121852899999794,43.48900660000072,space,0.44847419999859994,None,,,,,,,,,,,,,,,,,,,,,,,,,P145,001,2025-04-09_14h09.28.448,posner_endo_new1,2024.2.4,60.026207441694794,2025-04-09 14h09.39.007652 +0100,
cube_r.png,0.1,-0.31,invalid,4,4,0,up,1.82378030000109,None,space,0.40499780000027386,None,0,4,4,6,,,,,,,,,43.50460749999911,,,,,,,,,,,,,43.48916929999905,43.50460749999911,43.50460749999911,43.50460749999911,45.33671659999891,up,1.82378030000109,None,45.34308229999806,45.35473269999784,45.35473269999784,45.40247119999913,45.40269959999932,45.419411999999284,45.419411999999284,45.419411999999284,45.485833799997636,45.836124199999176,space,0.40499780000027386,None,,,,,,,,,,,,,,,,,,,,,,,,,P145,001,2025-04-09_14h09.28.448,posner_endo_new1,2024.2.4,60.026207441694794,2025-04-09 14h09.39.007652 +0100,
cube_l.png,0.1,0.31,invalid,5,5,0,up,1.8926618000004964,None,space,0.39902900000015507,None,0,5,5,5,,,,,,,,,45.8523454999995,,,,,,,,,,,,,45.8362859000008,45.8523454999995,45.8523454999995,45.8523454999995,47.750946599997405,up,1.8926618000004964,None,47.75720779999756,47.768867099999625,47.768867099999625,47.817083800000546,47.81731410000066,47.833792400000675,47.833792400000675,47.833792400000675,47.91667719999896,48.23413459999938,space,0.39902900000015507,None,,,,,,,,,,,,,,,,,,,,,,,,,P145,001,2025-04-09_14h09.28.448,posner_endo_new1,2024.2.4,60.026207441694794,2025-04-09 14h09.39.007652 +0100,
cube_r.png,0.1,-0.31,invalid,6,6,0,up,1.9428631000009773,None,space,0.42036150000058115,None,0,6,6,9,,,,,,,,,48.24988769999982,,,,,,,,,,,,,48.23429469999974,48.24988769999982,48.24988769999982,48.24988769999982,50.19852959999844,up,1.9428631000009773,None,50.204611599998316,50.21626990000004,50.21626990000004,50.26464929999929,50.264883399999235,50.28103170000031,50.28103170000031,50.28103170000031,50.34778709999955,50.714526699997805,space,0.42036150000058115,None,,,,,,,,,,,,,,,,,,,,,,,,,P145,001,2025-04-09_14h09.28.448,posner_endo_new1,2024.2.4,60.026207441694794,2025-04-09 14h09.39.007652 +0100,
cube_l.png,0.1,-0.31,valid,7,7,0,up,1.901832600000489,None,space,0.4219045999998343,None,0,7,7,8,,,,,,,,,50.7306107000004,,,,,,,,,,,,,50.714690199998586,50.7306107000004,50.7306107000004,50.7306107000004,52.64610289999837,up,1.901832600000489,None,52.65214669999841,52.66389039999922,52.66389039999922,52.71193719999792,52.71216519999871,52.7286380000005,52.7286380000005,52.7286380000005,52.81156579999879,53.16212549999909,space,0.4219045999998343,None,,,,,,,,,,,,,,,,,,,,,,,,,P145,001,2025-04-09_14h09.28.448,posner_endo_new1,2024.2.4,60.026207441694794,2025-04-09 14h09.39.007652 +0100,
cube_l.png,0.1,-0.31,valid,8,8,0,up,1.8946190000024217,None,space,0.3671793000030448,None,0,8,8,4,,,,,,,,,53.17825939999966,,,,,,,,,,,,,53.162291799999366,53.17825939999966,53.17825939999966,53.17825939999966,55.07667450000008,up,1.8946190000024217,None,55.082876899999974,55.0945501999995,55.0945501999995,55.14299670000037,55.143223600000056,55.15946649999751,55.15946649999751,55.15946649999751,55.226041499998246,55.54283270000087,space,0.3671793000030448,None,,,,,,,,,,,,,,,,,,,,,,,,,P145,001,2025-04-09_14h09.28.448,posner_endo_new1,2024.2.4,60.026207441694794,2025-04-09 14h09.39.007652 +0100,
cube_r.png,0.1,0.31,valid,9,9,0,up,1.8731486999968183,None,space,0.3342267999978503,None,0,9,9,7,,,,,,,,,55.55897809999806,,,,,,,,,,,,,55.54299399999945,55.55897809999806,55.55897809999806,55.55897809999806,57.44118789999993,up,1.8731486999968183,None,57.447317599999224,57.45913749999818,57.45913749999818,57.50699899999745,57.507225900000776,57.523695199997746,57.523695199997746,57.523695199997746,57.59031889999824,57.87404489999972,space,0.3342267999978503,None,,,,,,,,,,,,,,,,,,,,,,,,,P145,001,2025-04-09_14h09.28.448,posner_endo_new1,2024.2.4,60.026207441694794,2025-04-09 14h09.39.007652 +0100,
cube_r.png,0.1,-0.31,invalid,10,10,0,up,2.0467031999978644,None,space,0.4110565000009956,None,0,10,10,2,,,,,,,,,57.889904699997714,,,,,,,,,,,,,57.87420959999872,57.889904699997714,57.889904699997714,57.889904699997714,59.93848549999893,up,2.0467031999978644,None,59.94465909999781,59.95641389999946,59.95641389999946,60.00438629999917,60.00461340000038,60.021006700000726,60.021006700000726,60.021006700000726,60.087677199997415,60.43803990000015,space,0.4110565000009956,None,,,,,,,,,,,,,,,,,,,,,,,,,P145,001,2025-04-09_14h09.28.448,posner_endo_new1,2024.2.4,60.026207441694794,2025-04-09 14h09.39.007652 +0100,
,,,,,,,,,,,,,,,,,,,,,,,,,,,,,,,,,,60.438151300000754,60.45394820000001,63.487221299998055,63.43590509999922,,,,,,,,,,,,,,,,,,,,,,,,,,,,,,,,,,,,,,,,,,,,,,P145,001,2025-04-09_14h09.28.448,posner_endo_new1,2024.2.4,60.026207441694794,2025-04-09 14h09.39.007652 +0100,
cube_l.png,0.1,10,catch,0,0,0,up,14.600844900000084,None,None,,,,,,,0,0,0,0,,,,,63.487221299998055,,,,,,,,,,,,,63.478332200000295,63.487221299998055,63.487221299998055,63.487221299998055,78.10512299999755,,,,78.12983560000066,78.14189540000007,78.14189540000007,78.16916499999934,78.1696114999977,78.18611109999983,78.18611109999983,78.18611109999983,78.26933300000019,81.18439880000005,,,,80.28394929999922,81.1996693000001,81.1996693000001,81.1996693000001,up,14.600844900000084,None,None,,,,,,,,,,,,,,,,,P145,001,2025-04-09_14h09.28.448,posner_endo_new1,2024.2.4,60.026207441694794,2025-04-09 14h09.39.007652 +0100,
cube_l.png,0.1,10,catch,1,1,0,up,4.224500100001023,None,None,,,,,,,0,1,1,1,,,,,81.1996693000001,,,,,,,,,,,,,81.18493269999817,81.1996693000001,81.1996693000001,81.1996693000001,85.42946669999947,,,,85.44238309999855,85.45327179999731,85.45327179999731,85.49517840000044,85.49568989999898,85.51154830000087,85.51154830000087,85.51154830000087,85.59480819999953,88.50951870000063,,,,87.60942109999814,88.5251446000002,88.5251446000002,88.5251446000002,up,4.224500100001023,None,None,,,,,,,,,,,,,,,,,P145,001,2025-04-09_14h09.28.448,posner_endo_new1,2024.2.4,60.026207441694794,2025-04-09 14h09.39.007652 +0100,
cube_l.png,0.1,0.31,invalid,2,2,0,up,11.067361000001256,None,space,0.6338208999986819,None,,,,,0,2,2,2,,,,,88.5251446000002,,,,,,,,,,,,,88.50992889999907,88.5251446000002,88.5251446000002,88.5251446000002,99.60029930000019,,,,99.6248169999999,99.63493079999898,99.63493079999898,99.66370319999987,99.6640942999984,99.6801779999987,99.6801779999987,99.6801779999987,99.76344020000033,100.33087119999982,,,,,,,,up,11.067361000001256,None,space,0.6338208999986819,None,,,,,,,,,,,,,,,P145,001,2025-04-09_14h09.28.448,posner_endo_new1,2024.2.4,60.026207441694794,2025-04-09 14h09.39.007652 +0100,
cube_l.png,0.1,0.31,invalid,3,3,0,up,6.4867956999987655,None,space,0.49593819999790867,None,,,,,0,3,3,3,,,,,100.34617029999936,,,,,,,,,,,,,100.33121709999978,100.34617029999936,100.34617029999936,100.34617029999936,106.84089110000059,,,,106.85469549999834,106.86473520000072,106.86473520000072,106.90632489999916,106.9067189999987,106.9227893999996,106.9227893999996,106.9227893999996,107.00603069999852,107.42376990000048,,,,,,,,up,6.4867956999987655,None,space,0.49593819999790867,None,,,,,,,,,,,,,,,P145,001,2025-04-09_14h09.28.448,posner_endo_new1,2024.2.4,60.026207441694794,2025-04-09 14h09.39.007652 +0100,
cube_l.png,0.1,-0.31,valid,4,4,0,up,7.913977500000328,None,space,0.4421199999997043,None,,,,,0,4,4,4,,,,,107.43892799999958,,,,,,,,,,,,,107.42409389999739,107.43892799999958,107.43892799999958,107.43892799999958,115.36735520000002,,,,115.3916962000003,115.40386600000056,115.40386600000056,115.4310564999978,115.43149609999818,115.44751419999739,115.44751419999739,115.44751419999739,115.53075510000053,115.89883949999785,,,,,,,,up,7.913977500000328,None,space,0.4421199999997043,None,,,,,,,,,,,,,,,P145,001,2025-04-09_14h09.28.448,posner_endo_new1,2024.2.4,60.026207441694794,2025-04-09 14h09.39.007652 +0100,
cube_r.png,0.1,-0.31,invalid,5,5,0,up,13.678867899998295,None,space,0.540255599997181,None,,,,,0,5,5,5,,,,,115.91375619999963,,,,,,,,,,,,,115.89921029999823,115.91375619999963,115.91375619999963,115.91375619999963,129.60111909999978,,,,129.61068629999863,129.6206478999993,129.6206478999993,129.6666019000004,129.66689000000042,129.68330520000018,129.68330520000018,129.68330520000018,129.766670099998,130.2338232000002,,,,,,,,up,13.678867899998295,None,space,0.540255599997181,None,,,,,,,,,,,,,,,P145,001,2025-04-09_14h09.28.448,posner_endo_new1,2024.2.4,60.026207441694794,2025-04-09 14h09.39.007652 +0100,
cube_r.png,0.1,0.31,valid,6,6,0,up,2.198606400001154,None,space,0.41414889999941806,None,,,,,0,6,6,6,,,,,130.24946139999884,,,,,,,,,,,,,130.23405329999878,130.24946139999884,130.24946139999884,130.24946139999884,132.4647941999974,,,,132.47403479999775,132.48390870000003,132.48390870000003,132.53060829999959,132.53090569999767,132.54705710000053,132.54705710000053,132.54705710000053,132.63023590000012,132.96425309999904,,,,,,,,up,2.198606400001154,None,space,0.41414889999941806,None,,,,,,,,,,,,,,,P145,001,2025-04-09_14h09.28.448,posner_endo_new1,2024.2.4,60.026207441694794,2025-04-09 14h09.39.007652 +0100,
cube_r.png,0.1,-0.31,invalid,7,7,0,up,1.772689999997965,None,space,0.36018399999738904,None,,,,,0,7,7,7,,,,,132.97996369999964,,,,,,,,,,,,,132.96448640000017,132.97996369999964,132.97996369999964,132.97996369999964,134.76256439999997,,,,134.77179039999828,134.78182759999981,134.78182759999981,134.82811759999822,134.82840529999885,134.8446170999996,134.8446170999996,134.8446170999996,134.92800159999751,135.21209269999963,,,,,,,,up,1.772689999997965,None,space,0.36018399999738904,None,,,,,,,,,,,,,,,P145,001,2025-04-09_14h09.28.448,posner_endo_new1,2024.2.4,60.026207441694794,2025-04-09 14h09.39.007652 +0100,
cube_l.png,0.1,-0.31,valid,8,8,0,up,1.7654802999968524,None,space,0.4202270999994653,None,,,,,0,8,8,8,,,,,135.22733639999933,,,,,,,,,,,,,135.21232619999864,135.22733639999933,135.22733639999933,135.22733639999933,136.9937366999984,,,,137.00319019999733,137.01312970000072,137.01312970000072,137.05920709999918,137.0594971999999,137.07576150000023,137.07576150000023,137.07576150000023,137.15897770000083,137.5096608999993,,,,,,,,up,1.7654802999968524,None,space,0.4202270999994653,None,,,,,,,,,,,,,,,P145,001,2025-04-09_14h09.28.448,posner_endo_new1,2024.2.4,60.026207441694794,2025-04-09 14h09.39.007652 +0100,
cube_r.png,0.1,-0.31,invalid,9,9,0,up,1.8592923999967752,None,space,0.4573868000006769,None,,,,,0,9,9,9,,,,,137.52526840000064,,,,,,,,,,,,,137.50990119999915,137.52526840000064,137.52526840000064,137.52526840000064,139.39106579999861,,,,139.4003104000003,139.41032489999998,139.41032489999998,139.45678670000052,139.45707409999886,139.47328059999927,139.47328059999927,139.47328059999927,139.5566790999983,139.94053150000036,,,,,,,,up,1.8592923999967752,None,space,0.4573868000006769,None,,,,,,,,,,,,,,,P145,001,2025-04-09_14h09.28.448,posner_endo_new1,2024.2.4,60.026207441694794,2025-04-09 14h09.39.007652 +0100,
cube_l.png,0.1,0.31,invalid,10,10,0,up,1.5887859999966167,None,space,0.4542227999991155,None,,,,,0,10,10,10,,,,,139.95613759999833,,,,,,,,,,,,,139.94076660000064,139.95613759999833,139.95613759999833,139.95613759999833,141.55545669999992,,,,141.56482119999782,141.57487989999936,141.57487989999936,141.62109259999852,141.62138129999948,141.63776479999797,141.63776479999797,141.63776479999797,141.7211227000007,142.10487139999896,,,,,,,,up,1.5887859999966167,None,space,0.4542227999991155,None,,,,,,,,,,,,,,,P145,001,2025-04-09_14h09.28.448,posner_endo_new1,2024.2.4,60.026207441694794,2025-04-09 14h09.39.007652 +0100,
cube_r.png,0.1,-0.31,invalid,11,11,0,up,1.9838663000009547,None,space,0.46873000000050524,None,,,,,0,11,11,11,,,,,142.12071599999763,,,,,,,,,,,,,142.10511539999789,142.12071599999763,142.12071599999763,142.12071599999763,144.11949829999867,,,,144.1288042999986,144.13874609999766,144.13874609999766,144.1854209999983,144.18571529999826,144.20181619999858,144.20181619999858,144.20181619999858,144.28518500000064,144.68577269999878,,,,,,,,up,1.9838663000009547,None,space,0.46873000000050524,None,,,,,,,,,,,,,,,P145,001,2025-04-09_14h09.28.448,posner_endo_new1,2024.2.4,60.026207441694794,2025-04-09 14h09.39.007652 +0100,
cube_r.png,0.1,0.31,valid,12,12,0,up,1.8925613000028534,None,space,0.3915309000003617,None,,,,,0,12,12,12,,,,,144.70137279999835,,,,,,,,,,,,,144.68600399999923,144.70137279999835,144.70137279999835,144.70137279999835,146.60051179999937,,,,146.60989359999803,146.61977049999768,146.61977049999768,146.66610500000024,146.66639129999749,146.682697799999,146.682697799999,146.682697799999,146.765768199999,147.08310530000017,,,,,,,,up,1.8925613000028534,None,space,0.3915309000003617,None,,,,,,,,,,,,,,,P145,001,2025-04-09_14h09.28.448,posner_endo_new1,2024.2.4,60.026207441694794,2025-04-09 14h09.39.007652 +0100,
cube_l.png,0.1,10,catch,13,13,0,up,1.7180535000006785,None,None,,,,,,,0,13,13,13,,,,,147.0988331999979,,,,,,,,,,,,,147.08333969999876,147.0988331999979,147.0988331999979,147.0988331999979,148.83138809999946,,,,148.84068449999904,148.85079860000042,148.85079860000042,148.897132099999,148.89742269999988,148.91398689999914,148.91398689999914,148.91398689999914,148.99683860000005,151.91108919999897,,,,151.01149639999858,151.92736510000032,151.92736510000032,151.92736510000032,up,1.7180535000006785,None,None,,,,,,,,,,,,,,,,,P145,001,2025-04-09_14h09.28.448,posner_endo_new1,2024.2.4,60.026207441694794,2025-04-09 14h09.39.007652 +0100,
cube_r.png,0.1,-0.31,invalid,14,14,0,up,4.497309500002302,None,space,0.4042200000003504,None,,,,,0,14,14,14,,,,,151.92736510000032,,,,,,,,,,,,,151.91131099999984,151.92736510000032,151.92736510000032,151.92736510000032,156.44031099999847,,,,156.44968099999824,156.45964040000035,156.45964040000035,156.50606269999844,156.50635239999974,156.5226006999983,156.5226006999983,156.5226006999983,156.60570440000083,156.93967259999772,,,,,,,,up,4.497309500002302,None,space,0.4042200000003504,None,,,,,,,,,,,,,,,P145,001,2025-04-09_14h09.28.448,posner_endo_new1,2024.2.4,60.026207441694794,2025-04-09 14h09.39.007652 +0100,
cube_l.png,0.1,-0.31,valid,15,15,0,up,3.789212800002133,None,space,0.39227589999791235,None,,,,,0,15,15,15,,,,,156.95555299999978,,,,,,,,,,,,,156.93990719999783,156.95555299999978,156.95555299999978,156.95555299999978,160.75252399999954,,,,160.76186759999837,160.7718559999994,160.7718559999994,160.81837950000045,160.81867240000065,160.83475270000054,160.83475270000054,160.83475270000054,160.91820189999999,161.23532329999944,,,,,,,,up,3.789212800002133,None,space,0.39227589999791235,None,,,,,,,,,,,,,,,P145,001,2025-04-09_14h09.28.448,posner_endo_new1,2024.2.4,60.026207441694794,2025-04-09 14h09.39.007652 +0100,
cube_r.png,0.1,10,catch,16,16,0,up,1.9732411000004504,None,None,,,,,,,0,16,16,16,,,,,161.25099090000003,,,,,,,,,,,,,161.23555249999845,161.25099090000003,161.25099090000003,161.25099090000003,163.23333869999988,,,,163.24262479999743,163.2525609999975,163.2525609999975,163.29912209999748,163.2994093999987,163.31560099999842,163.31560099999842,163.31560099999842,163.39891349999743,166.3132693999978,,,,165.41380709999794,166.32928529999845,166.32928529999845,166.32928529999845,up,1.9732411000004504,None,None,,,,,,,,,,,,,,,,,P145,001,2025-04-09_14h09.28.448,posner_endo_new1,2024.2.4,60.026207441694794,2025-04-09 14h09.39.007652 +0100,
cube_r.png,0.1,10,catch,17,17,0,up,1.79120409999814,None,None,,,,,,,0,17,17,17,,,,,166.32928529999845,,,,,,,,,,,,,166.31349409999893,166.32928529999845,166.32928529999845,166.32928529999845,168.12833909999972,,,,168.13766849999956,168.14773409999907,168.14773409999907,168.19405099999858,168.19433769999887,168.21065549999912,168.21065549999912,168.21065549999912,168.29388529999778,171.2080571000006,,,,170.30849820000003,171.22416429999794,171.22416429999794,171.22416429999794,up,1.79120409999814,None,None,,,,,,,,,,,,,,,,,P145,001,2025-04-09_14h09.28.448,posner_endo_new1,2024.2.4,60.026207441694794,2025-04-09 14h09.39.007652 +0100,
cube_l.png,0.1,0.31,invalid,18,18,0,up,1.832704799999192,None,space,0.8539743000001181,None,,,,,0,18,18,18,,,,,171.22416429999794,,,,,,,,,,,,,171.20827590000044,171.22416429999794,171.22416429999794,171.22416429999794,173.07315639999797,,,,173.08273689999987,173.09237519999806,173.09237519999806,173.13904249999905,173.13933270000052,173.1556246,173.1556246,173.1556246,173.23874989999968,174.02229989999978,,,,,,,,up,1.832704799999192,None,space,0.8539743000001181,None,,,,,,,,,,,,,,,P145,001,2025-04-09_14h09.28.448,posner_endo_new1,2024.2.4,60.026207441694794,2025-04-09 14h09.39.007652 +0100,
cube_l.png,0.1,10,catch,19,19,0,up,3.826456300001155,None,None,,,,,,,0,19,19,19,,,,,174.0381129999987,,,,,,,,,,,,,174.0225352999987,174.0381129999987,174.0381129999987,174.0381129999987,177.8684792999993,,,,177.87772380000024,177.88766399999804,177.88766399999804,177.9342790999981,177.93458199999804,177.95088849999956,177.95088849999956,177.95088849999956,178.03391239999837,180.94809779999923,,,,180.0485579999986,180.96421899999768,180.96421899999768,180.96421899999768,up,3.826456300001155,None,None,,,,,,,,,,,,,,,,,P145,001,2025-04-09_14h09.28.448,posner_endo_new1,2024.2.4,60.026207441694794,2025-04-09 14h09.39.007652 +0100,
cube_l.png,0.1,0.31,invalid,20,20,0,up,0.9886243000000832,None,space,0.46950440000000526,None,,,,,0,20,20,20,,,,,180.96421899999768,,,,,,,,,,,,,180.94831449999765,180.96421899999768,180.96421899999768,180.96421899999768,181.9641539999975,,,,181.97348190000048,181.9834888999976,181.9834888999976,182.02990409999984,182.03019139999742,182.04650319999928,182.04650319999928,182.04650319999928,182.12972140000056,182.53026490000047,,,,,,,,up,0.9886243000000832,None,space,0.46950440000000526,None,,,,,,,,,,,,,,,P145,001,2025-04-09_14h09.28.448,posner_endo_new1,2024.2.4,60.026207441694794,2025-04-09 14h09.39.007652 +0100,
cube_l.png,0.1,-0.31,valid,21,21,0,up,1.51829859999998,None,space,0.44565069999953266,None,,,,,0,21,21,21,,,,,182.54613049999898,,,,,,,,,,,,,182.5305045999994,182.54613049999898,182.54613049999898,182.54613049999898,184.0787496999983,,,,184.0879012000005,184.09794909999982,184.09794909999982,184.14454719999776,184.14483479999762,184.1610968999994,184.1610968999994,184.1610968999994,184.2441340999976,184.6116112999989,,,,,,,,up,1.51829859999998,None,space,0.44565069999953266,None,,,,,,,,,,,,,,,P145,001,2025-04-09_14h09.28.448,posner_endo_new1,2024.2.4,60.026207441694794,2025-04-09 14h09.39.007652 +0100,
cube_r.png,0.1,0.31,valid,22,22,0,up,1.7428197000008367,None,space,0.6257571000023745,None,,,,,0,22,22,22,,,,,184.62731659999918,,,,,,,,,,,,,184.61184270000012,184.62731659999918,184.62731659999918,184.62731659999918,186.3764188999994,,,,186.38579759999993,186.39579690000028,186.39579690000028,186.4420371999986,186.4423268999999,186.4587661000005,186.4587661000005,186.4587661000005,186.5416551999988,187.09228760000042,,,,,,,,up,1.7428197000008367,None,space,0.6257571000023745,None,,,,,,,,,,,,,,,P145,001,2025-04-09_14h09.28.448,posner_endo_new1,2024.2.4,60.026207441694794,2025-04-09 14h09.39.007652 +0100,
cube_r.png,0.1,-0.31,invalid,23,23,0,up,3.380280000001221,None,space,0.42964629999914905,None,,,,,0,23,23,23,,,,,187.10808339999858,,,,,,,,,,,,,187.092527599998,187.10808339999858,187.10808339999858,187.10808339999858,190.50549689999752,,,,190.51467449999836,190.52444079999987,190.52444079999987,190.57123130000036,190.57151969999904,190.58780399999887,190.58780399999887,190.58780399999887,190.67100779999964,191.02175379999971,,,,,,,,up,3.380280000001221,None,space,0.42964629999914905,None,,,,,,,,,,,,,,,P145,001,2025-04-09_14h09.28.448,posner_endo_new1,2024.2.4,60.026207441694794,2025-04-09 14h09.39.007652 +0100,
cube_r.png,0.1,0.31,valid,24,24,0,up,4.027602199999819,None,space,0.37356759999966016,None,,,,,0,24,24,24,,,,,191.03741900000023,,,,,,,,,,,,,191.02198449999923,191.03741900000023,191.03741900000023,191.03741900000023,195.06778569999733,,,,195.0771237000008,195.08696100000088,195.08696100000088,195.13333050000074,195.13362100000086,195.1498408999978,195.1498408999978,195.1498408999978,195.23309789999985,195.53357399999732,,,,,,,,up,4.027602199999819,None,space,0.37356759999966016,None,,,,,,,,,,,,,,,P145,001,2025-04-09_14h09.28.448,posner_endo_new1,2024.2.4,60.026207441694794,2025-04-09 14h09.39.007652 +0100,
cube_r.png,0.1,-0.31,invalid,25,25,0,up,4.499563299999863,None,space,0.33734460000050603,None,,,,,0,25,25,25,,,,,195.5493796999981,,,,,,,,,,,,,195.53380679999827,195.5493796999981,195.5493796999981,195.5493796999981,200.06244549999974,,,,200.07154199999786,200.08157189999838,200.08157189999838,200.1281248999985,200.1284130999993,200.14472620000015,200.14472620000015,200.14472620000015,200.2278688999977,200.49535449999894,,,,,,,,up,4.499563299999863,None,space,0.33734460000050603,None,,,,,,,,,,,,,,,P145,001,2025-04-09_14h09.28.448,posner_endo_new1,2024.2.4,60.026207441694794,2025-04-09 14h09.39.007652 +0100,
cube_l.png,0.1,-0.31,valid,26,26,0,up,4.898053699998854,None,space,0.41315360000226065,None,,,,,0,26,26,26,,,,,200.5109076000008,,,,,,,,,,,,,200.49558649999744,200.5109076000008,200.5109076000008,200.5109076000008,205.42372369999794,,,,205.43276780000087,205.4428274999991,205.4428274999991,205.48930669999754,205.4895976000007,205.50583489999917,205.50583489999917,205.50583489999917,205.58910520000063,205.92332700000043,,,,,,,,up,4.898053699998854,None,space,0.41315360000226065,None,,,,,,,,,,,,,,,P145,001,2025-04-09_14h09.28.448,posner_endo_new1,2024.2.4,60.026207441694794,2025-04-09 14h09.39.007652 +0100,
cube_r.png,0.1,0.31,valid,27,27,0,up,2.1903856999997515,None,space,0.3297145999968052,None,,,,,0,27,27,27,,,,,205.93887529999847,,,,,,,,,,,,,205.92356289999952,205.93887529999847,205.93887529999847,205.93887529999847,208.1374778999998,,,,208.14638510000077,208.15646600000036,208.15646600000036,208.20339899999817,208.2036866999988,208.22012419999737,208.22012419999737,208.22012419999737,208.30306890000065,208.55364429999827,,,,,,,,up,2.1903856999997515,None,space,0.3297145999968052,None,,,,,,,,,,,,,,,P145,001,2025-04-09_14h09.28.448,posner_endo_new1,2024.2.4,60.026207441694794,2025-04-09 14h09.39.007652 +0100,
cube_r.png,0.1,10,catch,28,28,0,up,2.119718300000386,None,None,,,,,,,0,28,28,28,,,,,208.56938869999794,,,,,,,,,,,,,208.55388010000024,208.56938869999794,208.56938869999794,208.56938869999794,210.70162069999787,,,,210.71063030000005,210.72079799999847,210.72079799999847,210.76739839999937,210.76768900000025,210.7838582000004,210.7838582000004,210.7838582000004,210.86703009999837,213.7813271999985,,,,212.88169959999868,213.79739899999913,213.79739899999913,213.79739899999913,up,2.119718300000386,None,None,,,,,,,,,,,,,,,,,P145,001,2025-04-09_14h09.28.448,posner_endo_new1,2024.2.4,60.026207441694794,2025-04-09 14h09.39.007652 +0100,
cube_r.png,0.1,0.31,valid,29,29,0,up,1.875538800002687,None,space,0.4716187000012724,None,,,,,0,29,29,29,,,,,213.79739899999913,,,,,,,,,,,,,213.78154169999834,213.79739899999913,213.79739899999913,213.79739899999913,215.67977269999756,,,,215.6886775999992,215.69864790000065,215.69864790000065,215.74557579999964,215.74586809999892,215.76210639999772,215.76210639999772,215.76210639999772,215.84530059999815,216.2458267999973,,,,,,,,up,1.875538800002687,None,space,0.4716187000012724,None,,,,,,,,,,,,,,,P145,001,2025-04-09_14h09.28.448,posner_endo_new1,2024.2.4,60.026207441694794,2025-04-09 14h09.39.007652 +0100,
cube_r.png,0.1,0.31,valid,30,30,0,up,1.6835415999994439,None,space,0.48451399999976275,None,,,,,0,30,30,30,,,,,216.26153369999884,,,,,,,,,,,,,216.2460547999981,216.26153369999884,216.26153369999884,216.26153369999884,217.96088039999813,,,,217.96993029999794,217.97992229999727,217.97992229999727,218.02657550000004,218.02686220000032,218.04301990000022,218.04301990000022,218.04301990000022,218.12636139999813,218.54340619999857,,,,,,,,up,1.6835415999994439,None,space,0.48451399999976275,None,,,,,,,,,,,,,,,P145,001,2025-04-09_14h09.28.448,posner_endo_new1,2024.2.4,60.026207441694794,2025-04-09 14h09.39.007652 +0100,
cube_l.png,0.1,-0.31,valid,31,31,0,up,1.9778326999985438,None,space,0.36281790000066394,None,,,,,0,31,31,31,,,,,218.55923379999876,,,,,,,,,,,,,218.54363899999953,218.55923379999876,218.55923379999876,218.55923379999876,220.54168919999938,,,,220.55059120000078,220.56057919999876,220.56057919999876,220.60733479999908,220.60762329999852,220.62375709999833,220.62375709999833,220.62375709999833,220.7070335999997,220.99127009999938,,,,,,,,up,1.9778326999985438,None,space,0.36281790000066394,None,,,,,,,,,,,,,,,P145,001,2025-04-09_14h09.28.448,posner_endo_new1,2024.2.4,60.026207441694794,2025-04-09 14h09.39.007652 +0100,
cube_r.png,0.1,0.31,valid,32,32,0,up,1.673625000003085,None,space,0.34537749999799416,None,,,,,0,32,32,32,,,,,221.00682649999726,,,,,,,,,,,,,220.99150440000085,221.00682649999726,221.00682649999726,221.00682649999726,222.68920719999733,,,,222.69802789999812,222.7080485999977,222.7080485999977,222.7551471000006,222.75544159999845,222.7716017999992,222.7716017999992,222.7716017999992,222.85496299999795,223.12214849999873,,,,,,,,up,1.673625000003085,None,space,0.34537749999799416,None,,,,,,,,,,,,,,,P145,001,2025-04-09_14h09.28.448,posner_endo_new1,2024.2.4,60.026207441694794,2025-04-09 14h09.39.007652 +0100,
cube_r.png,0.1,-0.31,invalid,33,33,0,up,1.8707692999996652,None,space,0.45170150000194553,None,,,,,0,33,33,33,,,,,223.13788139999815,,,,,,,,,,,,,223.1223790999975,223.13788139999815,223.13788139999815,223.13788139999815,225.02032279999912,,,,225.0294952999975,225.0395693999999,225.0395693999999,225.08621889999995,225.08650879999914,225.10258160000012,225.10258160000012,225.10258160000012,225.18583529999887,225.56971019999764,,,,,,,,up,1.8707692999996652,None,space,0.45170150000194553,None,,,,,,,,,,,,,,,P145,001,2025-04-09_14h09.28.448,posner_endo_new1,2024.2.4,60.026207441694794,2025-04-09 14h09.39.007652 +0100,
cube_r.png,0.1,10,catch,34,34,0,up,1.63974220000091,None,None,,,,,,,0,34,34,34,,,,,225.58541920000062,,,,,,,,,,,,,225.56994169999962,225.58541920000062,225.58541920000062,225.58541920000062,227.23466769999868,,,,227.24353449999762,227.2535355,227.2535355,227.30060500000036,227.3009052999987,227.31690569999773,227.31690569999773,227.31690569999773,227.40018919999784,230.31436299999768,,,,229.41518050000013,230.3305440999975,230.3305440999975,230.3305440999975,up,1.63974220000091,None,None,,,,,,,,,,,,,,,,,P145,001,2025-04-09_14h09.28.448,posner_endo_new1,2024.2.4,60.026207441694794,2025-04-09 14h09.39.007652 +0100,
cube_r.png,0.1,0.31,valid,35,35,0,up,4.318700499999977,None,space,0.4677426000016567,None,,,,,0,35,35,35,,,,,230.3305440999975,,,,,,,,,,,,,230.31457930000033,230.3305440999975,230.3305440999975,230.3305440999975,234.66040900000007,,,,234.6692882999996,234.6792835999986,234.6792835999986,234.72617499999978,234.72646689999965,234.74266729999727,234.74266729999727,234.74266729999727,234.82604870000068,235.22645339999872,,,,,,,,up,4.318700499999977,None,space,0.4677426000016567,None,,,,,,,,,,,,,,,P145,001,2025-04-09_14h09.28.448,posner_endo_new1,2024.2.4,60.026207441694794,2025-04-09 14h09.39.007652 +0100,
cube_r.png,0.1,-0.31,invalid,36,36,0,up,1.83061479999742,None,space,0.4427581999989343,None,,,,,0,36,36,36,,,,,235.24215220000042,,,,,,,,,,,,,235.22668499999781,235.24215220000042,235.24215220000042,235.24215220000042,237.0748485999975,,,,237.0837388,237.09394509999765,237.09394509999765,237.14040439999735,237.14070599999832,237.15704539999933,237.15704539999933,237.15704539999933,237.24012369999764,237.60737529999824,,,,,,,,up,1.83061479999742,None,space,0.4427581999989343,None,,,,,,,,,,,,,,,P145,001,2025-04-09_14h09.28.448,posner_endo_new1,2024.2.4,60.026207441694794,2025-04-09 14h09.39.007652 +0100,
cube_l.png,0.1,0.31,invalid,37,37,0,up,1.7613205000016023,None,space,0.5147862999983772,None,,,,,0,37,37,37,,,,,237.623091999998,,,,,,,,,,,,,237.60761359999742,237.623091999998,237.623091999998,237.623091999998,239.38896229999955,,,,239.39789329999985,239.4080228999992,239.4080228999992,239.4546687999973,239.4549561999993,239.47120809999979,239.47120809999979,239.47120809999979,239.5545173999999,239.9885534999994,,,,,,,,up,1.7613205000016023,None,space,0.5147862999983772,None,,,,,,,,,,,,,,,P145,001,2025-04-09_14h09.28.448,posner_endo_new1,2024.2.4,60.026207441694794,2025-04-09 14h09.39.007652 +0100,
cube_l.png,0.1,0.31,invalid,38,38,0,up,1.7244157999994059,None,space,0.460364299997309,None,,,,,0,38,38,38,,,,,240.00402369999938,,,,,,,,,,,,,239.9887839999974,240.00402369999938,240.00402369999938,240.00402369999938,241.73656349999874,,,,241.74538969999776,241.75540929999988,241.75540929999988,241.80229999999938,241.802592,241.8187801999993,241.8187801999993,241.8187801999993,241.90210139999908,242.28598079999938,,,,,,,,up,1.7244157999994059,None,space,0.460364299997309,None,,,,,,,,,,,,,,,P145,001,2025-04-09_14h09.28.448,posner_endo_new1,2024.2.4,60.026207441694794,2025-04-09 14h09.39.007652 +0100,
cube_r.png,0.1,0.31,valid,39,39,0,up,1.5642335000011371,None,space,0.4100583999970695,None,,,,,0,39,39,39,,,,,242.30164879999938,,,,,,,,,,,,,242.28621559999738,242.30164879999938,242.30164879999938,242.30164879999938,243.8678450999978,,,,243.87687249999726,243.88686009999947,243.88686009999947,243.93356679999852,243.933857,243.9499309999992,243.9499309999992,243.9499309999992,244.03318539999964,244.3671648999989,,,,,,,,up,1.5642335000011371,None,space,0.4100583999970695,None,,,,,,,,,,,,,,,P145,001,2025-04-09_14h09.28.448,posner_endo_new1,2024.2.4,60.026207441694794,2025-04-09 14h09.39.007652 +0100,
cube_l.png,0.1,0.31,invalid,40,40,0,up,1.8427253000008932,None,space,0.5193059999983234,None,,,,,0,40,40,40,,,,,244.3827515999983,,,,,,,,,,,,,244.36739659999876,244.3827515999983,244.3827515999983,244.3827515999983,246.23210339999787,,,,246.24104729999817,246.25104369999826,246.25104369999826,246.2977030999973,246.29799249999996,246.3141531000001,246.3141531000001,246.3141531000001,246.3973745000003,246.84796939999796,,,,,,,,up,1.8427253000008932,None,space,0.5193059999983234,None,,,,,,,,,,,,,,,P145,001,2025-04-09_14h09.28.448,posner_endo_new1,2024.2.4,60.026207441694794,2025-04-09 14h09.39.007652 +0100,
cube_l.png,0.1,10,catch,41,41,0,up,1.6330529000006209,None,None,,,,,,,0,41,41,41,,,,,246.86368289999882,,,,,,,,,,,,,246.8481991999979,246.86368289999882,246.86368289999882,246.86368289999882,248.51272809999864,,,,248.52161369999885,248.5317173000003,248.5317173000003,248.57878359999813,248.57907820000037,248.59522079999806,248.59522079999806,248.59522079999806,248.6617516999977,251.59273079999912,,,,250.6763605999986,251.6088211999995,251.6088211999995,251.6088211999995,up,1.6330529000006209,None,None,,,,,,,,,,,,,,,,,P145,001,2025-04-09_14h09.28.448,posner_endo_new1,2024.2.4,60.026207441694794,2025-04-09 14h09.39.007652 +0100,
cube_l.png,0.1,-0.31,valid,42,42,0,up,2.0324208000020008,None,space,0.4396352999974624,None,,,,,0,42,42,42,,,,,251.6088211999995,,,,,,,,,,,,,251.5929490999988,251.6088211999995,251.6088211999995,251.6088211999995,253.65772699999798,,,,253.66671879999922,253.67647149999902,253.67647149999902,253.72338579999996,253.7236798999984,253.73996179999813,253.73996179999813,253.73996179999813,253.82321600000068,254.19037369999933,,,,,,,,up,2.0324208000020008,None,space,0.4396352999974624,None,,,,,,,,,,,,,,,P145,001,2025-04-09_14h09.28.448,posner_endo_new1,2024.2.4,60.026207441694794,2025-04-09 14h09.39.007652 +0100,
cube_l.png,0.1,10,catch,43,43,0,up,1.7707021000023815,None,None,,,,,,,0,43,43,43,,,,,254.2061845999997,,,,,,,,,,,,,254.19060709999758,254.2061845999997,254.2061845999997,254.2061845999997,255.98864359999789,,,,255.9974860000002,256.0074722999998,256.0074722999998,256.0543985999975,256.0546866000004,256.0708529000003,256.0708529000003,256.0708529000003,256.1542669999981,259.06853579999733,,,,258.1689110999978,259.0844517999976,259.0844517999976,259.0844517999976,up,1.7707021000023815,None,None,,,,,,,,,,,,,,,,,P145,001,2025-04-09_14h09.28.448,posner_endo_new1,2024.2.4,60.026207441694794,2025-04-09 14h09.39.007652 +0100,
cube_l.png,0.1,0.31,invalid,44,44,0,up,1.8920078000010108,None,space,0.40173610000056215,None,,,,,0,44,44,44,,,,,259.0844517999976,,,,,,,,,,,,,259.0687481999994,259.0844517999976,259.0844517999976,259.0844517999976,260.9834043999981,,,,260.99223829999755,261.00252399999954,261.00252399999954,261.0493605999982,261.0496534999984,261.06582010000056,261.06582010000056,261.06582010000056,261.1491453999988,261.48301399999764,,,,,,,,up,1.8920078000010108,None,space,0.40173610000056215,None,,,,,,,,,,,,,,,P145,001,2025-04-09_14h09.28.448,posner_endo_new1,2024.2.4,60.026207441694794,2025-04-09 14h09.39.007652 +0100,
cube_l.png,0.1,0.31,invalid,45,45,0,up,2.0221844000006968,None,space,0.5303275000005669,None,,,,,0,45,45,45,,,,,261.4986766000002,,,,,,,,,,,,,261.48324429999775,261.4986766000002,261.4986766000002,261.4986766000002,263.5317928000004,,,,263.55059210000036,263.5618739999991,263.5618739999991,263.5967724000002,263.5973262000007,263.6131630999989,263.6131630999989,263.6131630999989,263.6964135999988,264.1480956999985,,,,,,,,up,2.0221844000006968,None,space,0.5303275000005669,None,,,,,,,,,,,,,,,P145,001,2025-04-09_14h09.28.448,posner_endo_new1,2024.2.4,60.026207441694794,2025-04-09 14h09.39.007652 +0100,
cube_r.png,0.1,0.31,valid,46,46,0,up,1.58213760000217,None,space,0.488967599998432,None,,,,,0,46,46,46,,,,,264.1626125999974,,,,,,,,,,,,,264.14856470000086,264.1626125999974,264.1626125999974,264.1626125999974,265.7465811000002,,,,265.7650143999999,265.77512919999936,265.77512919999936,265.81104159999813,265.8113744000002,265.8276068999985,265.8276068999985,265.8276068999985,265.91082959999767,266.3282376999996,,,,,,,,up,1.58213760000217,None,space,0.488967599998432,None,,,,,,,,,,,,,,,P145,001,2025-04-09_14h09.28.448,posner_endo_new1,2024.2.4,60.026207441694794,2025-04-09 14h09.39.007652 +0100,
cube_l.png,0.1,-0.31,valid,47,47,0,up,1.5293480000000272,None,space,0.4348829000009573,None,,,,,0,47,47,47,,,,,266.34361680000075,,,,,,,,,,,,,266.3285130999975,266.34361680000075,266.34361680000075,266.34361680000075,267.87681729999895,,,,267.88771039999847,267.89773910000076,267.89773910000076,267.94220399999904,267.94254699999874,267.95875519999754,267.95875519999754,267.95875519999754,268.041986799999,268.40943499999776,,,,,,,,up,1.5293480000000272,None,space,0.4348829000009573,None,,,,,,,,,,,,,,,P145,001,2025-04-09_14h09.28.448,posner_endo_new1,2024.2.4,60.026207441694794,2025-04-09 14h09.39.007652 +0100,
cube_r.png,0.1,-0.31,invalid,48,48,0,up,1.296238099999755,None,space,0.5131452000023273,None,,,,,0,48,48,48,,,,,268.42497419999927,,,,,,,,,,,,,268.40970839999864,268.42497419999927,268.42497419999927,268.42497419999927,269.7247733999975,,,,269.73574519999966,269.7458215999977,269.7458215999977,269.7903163999981,269.7906526000006,269.8068521999994,269.8068521999994,269.8068521999994,269.89018489999944,270.32414620000054,,,,,,,,up,1.296238099999755,None,space,0.5131452000023273,None,,,,,,,,,,,,,,,P145,001,2025-04-09_14h09.28.448,posner_endo_new1,2024.2.4,60.026207441694794,2025-04-09 14h09.39.007652 +0100,
cube_r.png,0.1,10,catch,49,49,0,up,1.677632499999163,None,None,,,,,,,0,49,49,49,,,,,270.3396267999997,,,,,,,,,,,,,270.3244143999982,270.3396267999997,270.3396267999997,270.3396267999997,272.02242289999776,,,,272.0334236999988,272.0435824999986,272.0435824999986,272.08799720000025,272.08833559999766,272.1045123999975,272.1045123999975,272.1045123999975,272.1878403999981,275.1021770999978,,,,274.20235749999847,275.1180471999978,275.1180471999978,275.1180471999978,up,1.677632499999163,None,None,,,,,,,,,,,,,,,,,P145,001,2025-04-09_14h09.28.448,posner_endo_new1,2024.2.4,60.026207441694794,2025-04-09 14h09.39.007652 +0100,
cube_l.png,0.1,-0.31,valid,50,50,0,up,1.898386799999571,None,space,0.4228211999979976,None,,,,,0,50,50,50,,,,,275.1180471999978,,,,,,,,,,,,,275.10243329999867,275.1180471999978,275.1180471999978,275.1180471999978,277.0175378999993,,,,277.02846639999916,277.0385721999992,277.0385721999992,277.0829948999999,277.0833308000001,277.0994541,277.0994541,277.0994541,277.1826868999997,277.5334146999994,,,,,,,,up,1.898386799999571,None,space,0.4228211999979976,None,,,,,,,,,,,,,,,P145,001,2025-04-09_14h09.28.448,posner_endo_new1,2024.2.4,60.026207441694794,2025-04-09 14h09.39.007652 +0100,
cube_l.png,0.1,-0.31,valid,51,51,0,up,1.6435869999986608,None,space,0.44823710000127903,None,,,,,0,51,51,51,,,,,277.5489605999974,,,,,,,,,,,,,277.53368639999826,277.5489605999974,277.5489605999974,277.5489605999974,279.1984530000009,,,,279.20776809999734,279.2173693000004,279.2173693000004,279.26396569999997,279.2642228000004,279.2804976999978,279.2804976999978,279.2804976999978,279.3638519999986,279.7308671999999,,,,,,,,up,1.6435869999986608,None,space,0.44823710000127903,None,,,,,,,,,,,,,,,P145,001,2025-04-09_14h09.28.448,posner_endo_new1,2024.2.4,60.026207441694794,2025-04-09 14h09.39.007652 +0100,
cube_r.png,0.1,-0.31,invalid,52,52,0,up,1.6548094999998284,None,space,0.43625780000002123,None,,,,,0,52,52,52,,,,,279.7463652000006,,,,,,,,,,,,,279.73105120000037,279.7463652000006,279.7463652000006,279.7463652000006,281.4127945,,,,281.4196869999978,281.4311725999978,281.4311725999978,281.47843179999836,281.47867459999907,281.49496409999847,281.49496409999847,281.49496409999847,281.5781504999977,281.9451737999989,,,,,,,,up,1.6548094999998284,None,space,0.43625780000002123,None,,,,,,,,,,,,,,,P145,001,2025-04-09_14h09.28.448,posner_endo_new1,2024.2.4,60.026207441694794,2025-04-09 14h09.39.007652 +0100,
cube_l.png,0.1,-0.31,valid,53,53,0,up,1.783974499998294,None,space,0.3963273000008485,None,,,,,0,53,53,53,,,,,281.96118209999986,,,,,,,,,,,,,281.9453551000006,281.96118209999986,281.96118209999986,281.96118209999986,283.7603080999979,,,,283.7689208999982,283.77887949999786,283.77887949999786,283.82595690000016,283.82621799999833,283.8424851999989,283.8424851999989,283.8424851999989,283.9257316000003,284.2429759000006,,,,,,,,up,1.783974499998294,None,space,0.3963273000008485,None,,,,,,,,,,,,,,,P145,001,2025-04-09_14h09.28.448,posner_endo_new1,2024.2.4,60.026207441694794,2025-04-09 14h09.39.007652 +0100,
cube_r.png,0.1,10,catch,54,54,0,up,1.6862447000021348,None,None,,,,,,,0,54,54,54,,,,,284.25883260000046,,,,,,,,,,,,,284.2431742999979,284.25883260000046,284.25883260000046,284.25883260000046,285.9578397999976,,,,285.9651937999988,285.9765363999977,285.9765363999977,286.0236361999996,286.02388679999785,286.0404400999978,286.0404400999978,286.0404400999978,286.1235393999996,289.03770339999755,,,,288.13815590000013,289.05393080000067,289.05393080000067,289.05393080000067,up,1.6862447000021348,None,None,,,,,,,,,,,,,,,,,P145,001,2025-04-09_14h09.28.448,posner_endo_new1,2024.2.4,60.026207441694794,2025-04-09 14h09.39.007652 +0100,
cube_l.png,0.1,0.31,invalid,55,55,0,up,1.9387271999985387,None,space,0.4286963000013202,None,,,,,0,55,55,55,,,,,289.05393080000067,,,,,,,,,,,,,289.03788820000045,289.05393080000067,289.05393080000067,289.05393080000067,291.0025483999998,,,,291.0099732999988,291.0217147999974,291.0217147999974,291.06867749999947,291.0689354999995,291.08510190000015,291.08510190000015,291.08510190000015,291.15166829999725,291.5185210999989,,,,,,,,up,1.9387271999985387,None,space,0.4286963000013202,None,,,,,,,,,,,,,,,P145,001,2025-04-09_14h09.28.448,posner_endo_new1,2024.2.4,60.026207441694794,2025-04-09 14h09.39.007652 +0100,
cube_l.png,0.1,-0.31,valid,56,56,0,up,1.7063684999993711,None,space,0.43273709999994026,None,,,,,0,56,56,56,,,,,291.5347129999973,,,,,,,,,,,,,291.51871449999817,291.5347129999973,291.5347129999973,291.5347129999973,293.25042629999734,,,,293.25781690000076,293.2693732000007,293.2693732000007,293.31642029999784,293.316675099999,293.3327430999998,293.3327430999998,293.3327430999998,293.39943389999826,293.7665885999995,,,,,,,,up,1.7063684999993711,None,space,0.43273709999994026,None,,,,,,,,,,,,,,,P145,001,2025-04-09_14h09.28.448,posner_endo_new1,2024.2.4,60.026207441694794,2025-04-09 14h09.39.007652 +0100,
cube_r.png,0.1,0.31,valid,57,57,0,up,1.906615600000805,None,space,0.386345099999744,None,,,,,0,57,57,57,,,,,293.78234639999937,,,,,,,,,,,,,293.7667806999998,293.78234639999937,293.78234639999937,293.78234639999937,295.6978992000004,,,,295.7052483999978,295.7167888999975,295.7167888999975,295.7637175999989,295.7639683999987,295.7802415999977,295.7802415999977,295.7802415999977,295.8468212999978,296.1806929999984,,,,,,,,up,1.906615600000805,None,space,0.386345099999744,None,,,,,,,,,,,,,,,P145,001,2025-04-09_14h09.28.448,posner_endo_new1,2024.2.4,60.026207441694794,2025-04-09 14h09.39.007652 +0100,
cube_r.png,0.1,-0.31,invalid,58,58,0,up,1.6771377000004577,None,space,0.41788650000307825,None,,,,,0,58,58,58,,,,,296.1962520999987,,,,,,,,,,,,,296.1808870999994,296.1962520999987,296.1962520999987,296.1962520999987,297.8790422999991,,,,297.8864035000006,297.8978071999991,297.8978071999991,297.94503789999726,297.9452883999984,297.96144189999904,297.96144189999904,297.96144189999904,298.04463269999906,298.3952403999974,,,,,,,,up,1.6771377000004577,None,space,0.41788650000307825,None,,,,,,,,,,,,,,,P145,001,2025-04-09_14h09.28.448,posner_endo_new1,2024.2.4,60.026207441694794,2025-04-09 14h09.39.007652 +0100,
cube_l.png,0.1,0.31,invalid,59,59,0,up,1.8697744000019156,None,space,0.40804410000055213,None,,,,,0,59,59,59,,,,,298.41098409999904,,,,,,,,,,,,,298.3954412999992,298.41098409999904,298.41098409999904,298.41098409999904,300.29324690000067,,,,300.30057979999765,300.3120113999976,300.3120113999976,300.3590894000008,300.3593475999987,300.3755624000005,300.3755624000005,300.3755624000005,300.44224229999963,300.7925112999983,,,,,,,,up,1.8697744000019156,None,space,0.40804410000055213,None,,,,,,,,,,,,,,,P145,001,2025-04-09_14h09.28.448,posner_endo_new1,2024.2.4,60.026207441694794,2025-04-09 14h09.39.007652 +0100,
,,,,,,,,,,,,,,,,,,,,,,,,,,,,,,,,,,,,,,,,,,,,,,,,,,,,,,,,,,,,,,,,,,,,,300.7926387000007,300.80858909999733,300.80858909999733,360.81411149999985,366.32761489999757,space,65.50465130000157,None,,,,,,,P145,001,2025-04-09_14h09.28.448,posner_endo_new1,2024.2.4,60.026207441694794,2025-04-09 14h09.39.007652 +0100,
,,,,,,,,,,,,,,,,,,,,,,,,,,,,,,,,,,366.3277875999993,366.34179550000044,369.4418175999999,369.3233884000001,,,,,,,,,,,,,,,,,,,,,,,,,,,,,,,,,,,,,,,,,,,,,,P145,001,2025-04-09_14h09.28.448,posner_endo_new1,2024.2.4,60.026207441694794,2025-04-09 14h09.39.007652 +0100,
cube_l.png,0.1,10,catch,0,0,0,down,7.327274300001591,None,None,,,,,,,,,,,0,0,0,0,369.4418175999999,,,,,,,,,,,,,369.43368289999853,369.4418175999999,369.4418175999999,369.4418175999999,376.78353720000086,,,,376.8069214999996,376.8190638999986,376.8190638999986,376.84747290000087,376.84792789999847,376.8639065999996,376.8639065999996,376.8639065999996,376.9471654000008,379.8618934999977,,,,378.96202059999996,379.8777392999982,379.8777392999982,379.8777392999982,,,,,,,,,,,,,,,down,7.327274300001591,None,None,,,P145,001,2025-04-09_14h09.28.448,posner_endo_new1,2024.2.4,60.026207441694794,2025-04-09 14h09.39.007652 +0100,
cube_l.png,0.1,10,catch,1,1,0,down,0.09173000000009779,None,None,,,,,,,,,,,0,1,1,1,379.8777392999982,,,,,,,,,,,,,379.86212890000024,379.8777392999982,379.8777392999982,379.8777392999982,379.9786204999982,,,,379.98830149999776,379.99837209999896,379.99837209999896,380.044375999998,380.0446875999987,380.0609659999973,380.0609659999973,380.0609659999973,380.1441510000004,383.0579546000008,,,,382.1584449999973,383.07456479999746,383.07456479999746,383.07456479999746,,,,,,,,,,,,,,,down,0.09173000000009779,None,None,,,P145,001,2025-04-09_14h09.28.448,posner_endo_new1,2024.2.4,60.026207441694794,2025-04-09 14h09.39.007652 +0100,
cube_l.png,0.1,0.31,invalid,2,2,0,down,5.2863735999999335,None,space,0.5234388999997464,None,,,,,,,,,0,2,2,2,383.07456479999746,,,,,,,,,,,,,383.05811639999956,383.07456479999746,383.07456479999746,383.07456479999746,388.3700279000004,,,,388.3797854999975,388.38989070000025,388.38989070000025,388.43591860000015,388.4362285999996,388.4523068999988,388.4523068999988,388.4523068999988,388.5356243999995,388.9863345999984,,,,,,,,,,,,,,,,,,,,,,down,5.2863735999999335,None,space,0.5234388999997464,None,P145,001,2025-04-09_14h09.28.448,posner_endo_new1,2024.2.4,60.026207441694794,2025-04-09 14h09.39.007652 +0100,
cube_l.png,0.1,0.31,invalid,3,3,0,down,2.2631633000019065,None,space,0.43032459999813,None,,,,,,,,,0,3,3,3,389.0017489999991,,,,,,,,,,,,,388.98658950000026,389.0017489999991,389.0017489999991,389.0017489999991,391.2673107999981,,,,391.2771513999978,391.28718300000037,391.28718300000037,391.3328760000004,391.3331851999974,391.3494787999989,391.3494787999989,391.3494787999989,391.4325976,391.7834206000007,,,,,,,,,,,,,,,,,,,,,,down,2.2631633000019065,None,space,0.43032459999813,None,P145,001,2025-04-09_14h09.28.448,posner_endo_new1,2024.2.4,60.026207441694794,2025-04-09 14h09.39.007652 +0100,
cube_l.png,0.1,-0.31,valid,4,4,0,down,1.6426291999996465,None,space,0.6429869000021426,None,,,,,,,,,0,4,4,4,391.7988996999993,,,,,,,,,,,,,391.7836759999991,391.7988996999993,391.7988996999993,391.7988996999993,393.44833859999926,,,,393.4580566000004,393.4679722000001,393.4679722000001,393.51396549999845,393.5142758000002,393.5305234000007,393.5305234000007,393.5305234000007,393.61371759999747,394.18096009999863,,,,,,,,,,,,,,,,,,,,,,down,1.6426291999996465,None,space,0.6429869000021426,None,P145,001,2025-04-09_14h09.28.448,posner_endo_new1,2024.2.4,60.026207441694794,2025-04-09 14h09.39.007652 +0100,
cube_r.png,0.1,-0.31,invalid,5,5,0,down,1.3245504000005894,None,space,0.4684945000008156,None,,,,,,,,,0,5,5,5,394.196508099998,,,,,,,,,,,,,394.1812131000006,394.196508099998,394.196508099998,394.196508099998,395.52947499999937,,,,395.53909999999814,395.5491464000006,395.5491464000006,395.595165499999,395.5954779999993,395.6117572000003,395.6117572000003,395.6117572000003,395.69498159999785,396.0955919000007,,,,,,,,,,,,,,,,,,,,,,down,1.3245504000005894,None,space,0.4684945000008156,None,P145,001,2025-04-09_14h09.28.448,posner_endo_new1,2024.2.4,60.026207441694794,2025-04-09 14h09.39.007652 +0100,
cube_r.png,0.1,0.31,valid,6,6,0,down,1.5385806999984197,None,space,0.645465300000069,None,,,,,,,,,0,6,6,6,396.11113900000055,,,,,,,,,,,,,396.0958458999994,396.11113900000055,396.11113900000055,396.11113900000055,397.6606735999994,,,,397.67037490000075,397.68046369999865,397.68046369999865,397.7263768999983,397.7266911000006,397.7429083999996,397.7429083999996,397.7429083999996,397.8261648000007,398.39341029999923,,,,,,,,,,,,,,,,,,,,,,down,1.5385806999984197,None,space,0.645465300000069,None,P145,001,2025-04-09_14h09.28.448,posner_endo_new1,2024.2.4,60.026207441694794,2025-04-09 14h09.39.007652 +0100,
cube_r.png,0.1,-0.31,invalid,7,7,0,down,1.4161709999971208,None,space,0.44701879999774974,None,,,,,,,,,0,7,7,7,398.4088763,,,,,,,,,,,,,398.39366959999825,398.4088763,398.4088763,398.4088763,399.84188390000054,,,,399.8515235999985,399.86125249999895,399.86125249999895,399.90741969999726,399.9077283000006,399.9239806999976,399.9239806999976,399.9239806999976,400.00725709999824,400.3747244999977,,,,,,,,,,,,,,,,,,,,,,down,1.4161709999971208,None,space,0.44701879999774974,None,P145,001,2025-04-09_14h09.28.448,posner_endo_new1,2024.2.4,60.026207441694794,2025-04-09 14h09.39.007652 +0100,
cube_l.png,0.1,-0.31,valid,8,8,0,down,1.6913249000026553,None,space,0.3636439000001701,None,,,,,,,,,0,8,8,8,400.3900848999983,,,,,,,,,,,,,400.3749829999979,400.3900848999983,400.3900848999983,400.3900848999983,402.0895907999984,,,,402.09926319999795,402.10931659999915,402.10931659999915,402.15523779999785,402.1555550999983,402.17165770000065,402.17165770000065,402.17165770000065,402.2549734999993,402.5392953999981,,,,,,,,,,,,,,,,,,,,,,down,1.6913249000026553,None,space,0.3636439000001701,None,P145,001,2025-04-09_14h09.28.448,posner_endo_new1,2024.2.4,60.026207441694794,2025-04-09 14h09.39.007652 +0100,
cube_r.png,0.1,-0.31,invalid,9,9,0,down,1.758346700000402,None,space,0.4410384000002523,None,,,,,,,,,0,9,9,9,402.5547114000001,,,,,,,,,,,,,402.5395486999987,402.5547114000001,402.5547114000001,402.5547114000001,404.32080549999955,,,,404.33060230000046,404.34074119999786,404.34074119999786,404.3862502999982,404.3865588999979,404.4027767000007,404.4027767000007,404.4027767000007,404.4860066000001,404.8534230999976,,,,,,,,,,,,,,,,,,,,,,down,1.758346700000402,None,space,0.4410384000002523,None,P145,001,2025-04-09_14h09.28.448,posner_endo_new1,2024.2.4,60.026207441694794,2025-04-09 14h09.39.007652 +0100,
cube_l.png,0.1,0.31,invalid,10,10,0,down,1.8761166999975103,None,space,0.46102890000111074,None,,,,,,,,,0,10,10,10,404.868935399998,,,,,,,,,,,,,404.8536862000001,404.868935399998,404.868935399998,404.868935399998,406.7513491999998,,,,406.7609792000003,406.7710077999982,406.7710077999982,406.81713279999894,406.81744120000076,406.8336989999989,406.8336989999989,406.8336989999989,406.91698650000035,407.30097770000066,,,,,,,,,,,,,,,,,,,,,,down,1.8761166999975103,None,space,0.46102890000111074,None,P145,001,2025-04-09_14h09.28.448,posner_endo_new1,2024.2.4,60.026207441694794,2025-04-09 14h09.39.007652 +0100,
cube_r.png,0.1,-0.31,invalid,11,11,0,down,3.4689682999996876,None,space,0.36775219999981346,None,,,,,,,,,0,11,11,11,407.31646759999785,,,,,,,,,,,,,407.3012536999995,407.31646759999785,407.31646759999785,407.31646759999785,410.7972571999999,,,,410.80701679999765,410.8170403000004,410.8170403000004,410.86296030000085,410.8632700999988,410.87949619999927,410.87949619999927,410.87949619999927,410.9627639999999,411.26335889999973,,,,,,,,,,,,,,,,,,,,,,down,3.4689682999996876,None,space,0.36775219999981346,None,P145,001,2025-04-09_14h09.28.448,posner_endo_new1,2024.2.4,60.026207441694794,2025-04-09 14h09.39.007652 +0100,
cube_r.png,0.1,0.31,valid,12,12,0,down,2.2422765999981493,None,space,0.3701450999978988,None,,,,,,,,,0,12,12,12,411.2790791999978,,,,,,,,,,,,,411.263621099999,411.2790791999978,411.2790791999978,411.2790791999978,413.52790249999816,,,,413.53757340000084,413.54757059999974,413.54757059999974,413.59355399999913,413.59386000000086,413.6100527999988,413.6100527999988,413.6100527999988,413.6933088000005,413.99400629999946,,,,,,,,,,,,,,,,,,,,,,down,2.2422765999981493,None,space,0.3701450999978988,None,P145,001,2025-04-09_14h09.28.448,posner_endo_new1,2024.2.4,60.026207441694794,2025-04-09 14h09.39.007652 +0100,
cube_l.png,0.1,10,catch,13,13,0,down,1.4798091000011482,None,None,,,,,,,,,,,0,13,13,13,414.0096776999999,,,,,,,,,,,,,413.99428980000084,414.0096776999999,414.0096776999999,414.0096776999999,415.4926185000004,,,,415.5024099000002,415.51247030000013,415.51247030000013,415.5583043000006,415.55861659999937,415.5746732999978,415.5746732999978,415.5746732999978,415.6580283999974,418.57228960000066,,,,417.6725387999977,418.58824249999816,418.58824249999816,418.58824249999816,,,,,,,,,,,,,,,down,1.4798091000011482,None,None,,,P145,001,2025-04-09_14h09.28.448,posner_endo_new1,2024.2.4,60.026207441694794,2025-04-09 14h09.39.007652 +0100,
cube_r.png,0.1,-0.31,invalid,14,14,0,down,3.885334200000216,None,space,0.4078754999973171,None,,,,,,,,,0,14,14,14,418.58824249999816,,,,,,,,,,,,,418.5725345999999,418.58824249999816,418.58824249999816,418.58824249999816,422.485389999998,,,,422.49527859999944,422.5052926999997,422.5052926999997,422.5509405999983,422.5512506999985,422.56759899999815,422.56759899999815,422.56759899999815,422.6507227999973,422.98480109999946,,,,,,,,,,,,,,,,,,,,,,down,3.885334200000216,None,space,0.4078754999973171,None,P145,001,2025-04-09_14h09.28.448,posner_endo_new1,2024.2.4,60.026207441694794,2025-04-09 14h09.39.007652 +0100,
cube_l.png,0.1,-0.31,valid,15,15,0,down,1.6572717999988527,None,space,0.4779484999999113,None,,,,,,,,,0,15,15,15,423.0005304999977,,,,,,,,,,,,,422.98505229999864,423.0005304999977,423.0005304999977,423.0005304999977,424.66651880000063,,,,424.6760699999977,424.6856048000009,424.6856048000009,424.73219219999737,424.732418399999,424.74824779999835,424.74824779999835,424.74824779999835,424.8320089000008,425.232316499998,,,,,,,,,,,,,,,,,,,,,,down,1.6572717999988527,None,space,0.4779484999999113,None,P145,001,2025-04-09_14h09.28.448,posner_endo_new1,2024.2.4,60.026207441694794,2025-04-09 14h09.39.007652 +0100,
cube_r.png,0.1,10,catch,16,16,0,down,1.9613233999989461,None,None,,,,,,,,,,,0,16,16,16,425.24814250000054,,,,,,,,,,,,,425.2324898000006,425.24814250000054,425.24814250000054,425.24814250000054,427.2136447999983,,,,427.2201411999995,427.23186409999835,427.23186409999835,427.27946879999945,427.27969889999804,427.2961776999982,427.2961776999982,427.2961776999982,427.3794264999997,430.29304339999726,,,,429.3939962000004,430.30971139999747,430.30971139999747,430.30971139999747,,,,,,,,,,,,,,,down,1.9613233999989461,None,None,,,P145,001,2025-04-09_14h09.28.448,posner_endo_new1,2024.2.4,60.026207441694794,2025-04-09 14h09.39.007652 +0100,
cube_r.png,0.1,10,catch,17,17,0,down,2.435374000000593,None,None,,,,,,,,,,,0,17,17,17,430.30971139999747,,,,,,,,,,,,,430.2932077000005,430.30971139999747,430.30971139999747,430.30971139999747,432.7578681999985,,,,432.76394719999735,432.77546879999863,432.77546879999863,432.8239673999997,432.82419789999767,432.84027810000043,432.84027810000043,432.84027810000043,432.90724430000046,435.8374898000002,,,,434.92172429999846,435.853858399998,435.853858399998,435.853858399998,,,,,,,,,,,,,,,down,2.435374000000593,None,None,,,P145,001,2025-04-09_14h09.28.448,posner_endo_new1,2024.2.4,60.026207441694794,2025-04-09 14h09.39.007652 +0100,
cube_l.png,0.1,0.31,invalid,18,18,0,down,2.2592942000010225,None,space,0.5127055999982986,None,,,,,,,,,0,18,18,18,435.853858399998,,,,,,,,,,,,,435.837650999998,435.853858399998,435.853858399998,435.853858399998,438.1189502999987,,,,438.12500029999865,438.13669129999835,438.13669129999835,438.18508250000014,438.18530929999906,438.20162359999813,438.20162359999813,438.20162359999813,438.26813729999776,438.71868849999737,,,,,,,,,,,,,,,,,,,,,,down,2.2592942000010225,None,space,0.5127055999982986,None,P145,001,2025-04-09_14h09.28.448,posner_endo_new1,2024.2.4,60.026207441694794,2025-04-09 14h09.39.007652 +0100,
cube_l.png,0.1,10,catch,19,19,0,down,1.483153899996978,None,None,,,,,,,,,,,0,19,19,19,438.73443199999747,,,,,,,,,,,,,438.7188621999994,438.73443199999747,438.73443199999747,438.73443199999747,440.2335084000006,,,,440.2394882999979,440.2511597999983,440.2511597999983,440.2996843000001,440.29991059999884,440.31610739999815,440.31610739999815,440.31610739999815,440.3828001999973,443.3134984999997,,,,442.397114899999,443.32981479999944,443.32981479999944,443.32981479999944,,,,,,,,,,,,,,,down,1.483153899996978,None,None,,,P145,001,2025-04-09_14h09.28.448,posner_endo_new1,2024.2.4,60.026207441694794,2025-04-09 14h09.39.007652 +0100,
cube_l.png,0.1,0.31,invalid,20,20,0,down,2.167336800001067,None,space,0.49274680000235094,None,,,,,,,,,0,20,20,20,443.32981479999944,,,,,,,,,,,,,443.31365949999963,443.32981479999944,443.32981479999944,443.32981479999944,445.51137430000017,,,,445.5174393999987,445.52912549999746,445.52912549999746,445.5775259000002,445.5777507999992,445.59409159999996,445.59409159999996,445.59409159999996,445.66044200000033,446.0944817999989,,,,,,,,,,,,,,,,,,,,,,down,2.167336800001067,None,space,0.49274680000235094,None,P145,001,2025-04-09_14h09.28.448,posner_endo_new1,2024.2.4,60.026207441694794,2025-04-09 14h09.39.007652 +0100,
cube_l.png,0.1,-0.31,valid,21,21,0,down,2.6826734999995097,None,space,0.33717979999710224,None,,,,,,,,,0,21,21,21,446.1104114000009,,,,,,,,,,,,,446.09465519999867,446.1104114000009,446.1104114000009,446.1104114000009,448.80803469999955,,,,448.8140308000002,448.82567429999835,448.82567429999835,448.8740414999993,448.87426869999763,448.89072959999976,448.89072959999976,448.89072959999976,448.95734430000084,449.24135770000066,,,,,,,,,,,,,,,,,,,,,,down,2.6826734999995097,None,space,0.33717979999710224,None,P145,001,2025-04-09_14h09.28.448,posner_endo_new1,2024.2.4,60.026207441694794,2025-04-09 14h09.39.007652 +0100,
cube_r.png,0.1,0.31,valid,22,22,0,down,2.0325670999991416,None,space,0.34978140000021085,None,,,,,,,,,0,22,22,22,449.25707429999966,,,,,,,,,,,,,449.24152929999764,449.25707429999966,449.25707429999966,449.25707429999966,451.30567789999986,,,,451.3118245000005,451.3237857999993,451.3237857999993,451.3716838,451.37191320000056,451.3881107999987,451.3881107999987,451.3881107999987,451.47136019999743,451.7386848999995,,,,,,,,,,,,,,,,,,,,,,down,2.0325670999991416,None,space,0.34978140000021085,None,P145,001,2025-04-09_14h09.28.448,posner_endo_new1,2024.2.4,60.026207441694794,2025-04-09 14h09.39.007652 +0100,
cube_r.png,0.1,-0.31,invalid,23,23,0,down,1.3353470000001835,None,space,0.389954400001443,None,,,,,,,,,0,23,23,23,451.7544698999991,,,,,,,,,,,,,451.7388601999992,451.7544698999991,451.7544698999991,451.7544698999991,453.1040050999982,,,,453.1100207999989,453.1216471000007,453.1216471000007,453.16987359999985,453.1701003999988,453.1862790999985,453.1862790999985,453.1862790999985,453.2696154000005,453.5866437000004,,,,,,,,,,,,,,,,,,,,,,down,1.3353470000001835,None,space,0.389954400001443,None,P145,001,2025-04-09_14h09.28.448,posner_endo_new1,2024.2.4,60.026207441694794,2025-04-09 14h09.39.007652 +0100,
cube_r.png,0.1,0.31,valid,24,24,0,down,1.5994095999994897,None,space,0.3360056999990775,None,,,,,,,,,0,24,24,24,453.6024705999989,,,,,,,,,,,,,453.5868158999983,453.6024705999989,453.6024705999989,453.6024705999989,455.2182133999995,,,,455.2243075000006,455.2359385999989,455.2359385999989,455.28427539999757,455.2845000999987,455.3009361000004,455.3009361000004,455.3009361000004,455.36739640000087,455.65117309999914,,,,,,,,,,,,,,,,,,,,,,down,1.5994095999994897,None,space,0.3360056999990775,None,P145,001,2025-04-09_14h09.28.448,posner_endo_new1,2024.2.4,60.026207441694794,2025-04-09 14h09.39.007652 +0100,
cube_r.png,0.1,-0.31,invalid,25,25,0,down,1.445882399999391,None,space,0.3656671999997343,None,,,,,,,,,0,25,25,25,455.6671024999996,,,,,,,,,,,,,455.65134509999916,455.6671024999996,455.6671024999996,455.6671024999996,457.1163229999984,,,,457.12234979999994,457.1339475999994,457.1339475999994,457.18233899999905,457.1825650999999,457.1988917999988,457.1988917999988,457.1988917999988,457.2653924999977,457.5660437000006,,,,,,,,,,,,,,,,,,,,,,down,1.445882399999391,None,space,0.3656671999997343,None,P145,001,2025-04-09_14h09.28.448,posner_endo_new1,2024.2.4,60.026207441694794,2025-04-09 14h09.39.007652 +0100,
cube_l.png,0.1,-0.31,valid,26,26,0,down,1.6280346999992616,None,space,0.3566864999993413,None,,,,,,,,,0,26,26,26,457.58167649999814,,,,,,,,,,,,,457.56621710000036,457.58167649999814,457.58167649999814,457.58167649999814,459.21437119999973,,,,459.22038389999943,459.23211509999965,459.23211509999965,459.2799023000007,459.2801287000002,459.29674259999956,459.29674259999956,459.29674259999956,459.380059799998,459.66366689999995,,,,,,,,,,,,,,,,,,,,,,down,1.6280346999992616,None,space,0.3566864999993413,None,P145,001,2025-04-09_14h09.28.448,posner_endo_new1,2024.2.4,60.026207441694794,2025-04-09 14h09.39.007652 +0100,
cube_r.png,0.1,0.31,valid,27,27,0,down,1.778157500000816,None,space,0.3388268999988213,None,,,,,,,,,0,27,27,27,459.6797521999979,,,,,,,,,,,,,459.66383869999845,459.6797521999979,459.6797521999979,459.6797521999979,461.4619748999976,,,,461.4679542999984,461.4796334999992,461.4796334999992,461.5277891000005,461.5280156999979,461.5443899999991,461.5443899999991,461.5443899999991,461.6110923999986,461.8948617999995,,,,,,,,,,,,,,,,,,,,,,down,1.778157500000816,None,space,0.3388268999988213,None,P145,001,2025-04-09_14h09.28.448,posner_endo_new1,2024.2.4,60.026207441694794,2025-04-09 14h09.39.007652 +0100,
cube_r.png,0.1,10,catch,28,28,0,down,1.6506969000001845,None,None,,,,,,,,,,,0,28,28,28,461.91074780000054,,,,,,,,,,,,,461.8950358999973,461.91074780000054,461.91074780000054,461.91074780000054,463.5764737999998,,,,463.5824307999974,463.5940974999976,463.5940974999976,463.64205559999755,463.6422816999984,463.6589918999998,463.6589918999998,463.6589918999998,463.74211549999745,466.65661049999835,,,,465.7563635000006,466.67249919999813,466.67249919999813,466.67249919999813,,,,,,,,,,,,,,,down,1.6506969000001845,None,None,,,P145,001,2025-04-09_14h09.28.448,posner_endo_new1,2024.2.4,60.026207441694794,2025-04-09 14h09.39.007652 +0100,
cube_r.png,0.1,0.31,valid,29,29,0,down,1.5691769999975804,None,space,0.43275310000171885,None,,,,,,,,,0,29,29,29,466.67249919999813,,,,,,,,,,,,,466.6567704000008,466.67249919999813,466.67249919999813,466.67249919999813,468.25502499999857,,,,468.2610356999976,468.2727128999977,468.2727128999977,468.32088099999964,468.3211074999999,468.33743630000026,468.33743630000026,468.33743630000026,468.40415669999857,468.7712345,,,,,,,,,,,,,,,,,,,,,,down,1.5691769999975804,None,space,0.43275310000171885,None,P145,001,2025-04-09_14h09.28.448,posner_endo_new1,2024.2.4,60.026207441694794,2025-04-09 14h09.39.007652 +0100,
cube_r.png,0.1,0.31,valid,30,30,0,down,1.8216711999994004,None,space,0.43494600000121864,None,,,,,,,,,0,30,30,30,468.7871438000002,,,,,,,,,,,,,468.7714083999999,468.7871438000002,468.7871438000002,468.7871438000002,470.61940499999764,,,,470.6253503000007,470.63701279999805,470.63701279999805,470.6852352999995,470.68546140000035,470.70188749999943,470.70188749999943,470.70188749999943,470.78486879999764,471.1519429,,,,,,,,,,,,,,,,,,,,,,down,1.8216711999994004,None,space,0.43494600000121864,None,P145,001,2025-04-09_14h09.28.448,posner_endo_new1,2024.2.4,60.026207441694794,2025-04-09 14h09.39.007652 +0100,
cube_l.png,0.1,-0.31,valid,31,31,0,down,1.4489600000015344,None,space,0.34446200000093086,None,,,,,,,,,0,31,31,31,471.16813170000023,,,,,,,,,,,,,471.1521176999995,471.16813170000023,471.16813170000023,471.16813170000023,472.63342209999973,,,,472.639543199999,472.65068379999866,472.65068379999866,472.70002889999887,472.7002608999974,472.71602669999993,472.71602669999993,472.71602669999993,472.78304690000004,473.0666560999998,,,,,,,,,,,,,,,,,,,,,,down,1.4489600000015344,None,space,0.34446200000093086,None,P145,001,2025-04-09_14h09.28.448,posner_endo_new1,2024.2.4,60.026207441694794,2025-04-09 14h09.39.007652 +0100,
cube_r.png,0.1,0.31,valid,32,32,0,down,1.5911339000012958,None,space,0.31687840000086,None,,,,,,,,,0,32,32,32,473.08271759999843,,,,,,,,,,,,,473.0668468999975,473.08271759999843,473.08271759999843,473.08271759999843,474.68185470000026,,,,474.6880214999983,474.69978120000087,474.69978120000087,474.74769559999913,474.7479217,474.7641927000004,474.7641927000004,474.7641927000004,474.8309905999995,475.09786600000007,,,,,,,,,,,,,,,,,,,,,,down,1.5911339000012958,None,space,0.31687840000086,None,P145,001,2025-04-09_14h09.28.448,posner_endo_new1,2024.2.4,60.026207441694794,2025-04-09 14h09.39.007652 +0100,
cube_r.png,0.1,-0.31,invalid,33,33,0,down,1.743987099998776,None,space,0.3614720000005036,None,,,,,,,,,0,33,33,33,475.1138672999987,,,,,,,,,,,,,475.0980443999979,475.1138672999987,475.1138672999987,475.1138672999987,476.8629312999983,,,,476.8689467000004,476.88055370000075,476.88055370000075,476.92882669999744,476.92905619999874,476.9453751000001,476.9453751000001,476.9453751000001,477.0285511999973,477.3124825999985,,,,,,,,,,,,,,,,,,,,,,down,1.743987099998776,None,space,0.3614720000005036,None,P145,001,2025-04-09_14h09.28.448,posner_endo_new1,2024.2.4,60.026207441694794,2025-04-09 14h09.39.007652 +0100,
cube_r.png,0.1,10,catch,34,34,0,down,1.712983699999313,None,None,,,,,,,,,,,0,34,34,34,477.32838020000054,,,,,,,,,,,,,477.3126540999983,477.32838020000054,477.32838020000054,477.32838020000054,479.04365809999945,,,,479.04958310000075,479.0611800999977,479.0611800999977,479.1096092999978,479.1098392999993,479.126630499999,479.126630499999,479.126630499999,479.19302009999956,482.12374740000087,,,,481.20755819999977,482.14008869999816,482.14008869999816,482.14008869999816,,,,,,,,,,,,,,,down,1.712983699999313,None,None,,,P145,001,2025-04-09_14h09.28.448,posner_endo_new1,2024.2.4,60.026207441694794,2025-04-09 14h09.39.007652 +0100,
cube_r.png,0.1,0.31,valid,35,35,0,down,1.332834199998615,None,space,0.4101445000014792,None,,,,,,,,,0,35,35,35,482.14008869999816,,,,,,,,,,,,,482.1239170999979,482.14008869999816,482.14008869999816,482.14008869999816,483.4891631999999,,,,483.4951755999973,483.50663259999783,483.50663259999783,483.5552385999981,483.55546870000035,483.5715375,483.5715375,483.5715375,483.638504999999,483.9889156999998,,,,,,,,,,,,,,,,,,,,,,down,1.332834199998615,None,space,0.4101445000014792,None,P145,001,2025-04-09_14h09.28.448,posner_endo_new1,2024.2.4,60.026207441694794,2025-04-09 14h09.39.007652 +0100,
cube_r.png,0.1,-0.31,invalid,36,36,0,down,1.8766694000005373,None,space,0.4031914000006509,None,,,,,,,,,0,36,36,36,484.0048610999984,,,,,,,,,,,,,483.9890897000005,484.0048610999984,484.0048610999984,484.0048610999984,485.88652779999757,,,,485.8925320999988,485.90411309999763,485.90411309999763,485.9528406999998,485.9530674999987,485.9694834999973,485.9694834999973,485.9694834999973,486.0361497999984,486.3860657000005,,,,,,,,,,,,,,,,,,,,,,down,1.8766694000005373,None,space,0.4031914000006509,None,P145,001,2025-04-09_14h09.28.448,posner_endo_new1,2024.2.4,60.026207441694794,2025-04-09 14h09.39.007652 +0100,
cube_l.png,0.1,0.31,invalid,37,37,0,down,1.463008599999739,None,space,0.44604569999864907,None,,,,,,,,,0,37,37,37,486.40251839999837,,,,,,,,,,,,,486.3862389999995,486.40251839999837,486.40251839999837,486.40251839999837,487.86831359999996,,,,487.8743031999984,487.8859642999996,487.8859642999996,487.93418029999884,487.9344063999997,487.95045929999833,487.95045929999833,487.95045929999833,488.03398879999804,488.40129159999924,,,,,,,,,,,,,,,,,,,,,,down,1.463008599999739,None,space,0.44604569999864907,None,P145,001,2025-04-09_14h09.28.448,posner_endo_new1,2024.2.4,60.026207441694794,2025-04-09 14h09.39.007652 +0100,
cube_l.png,0.1,0.31,invalid,38,38,0,down,1.5043107999990752,None,space,0.32723880000048666,None,,,,,,,,,0,38,38,38,488.4170559999984,,,,,,,,,,,,,488.4014654999992,488.4170559999984,488.4170559999984,488.4170559999984,489.93290499999785,,,,489.93891249999797,489.95048339999994,489.95048339999994,489.998746199999,489.99897190000047,490.01541519999955,490.01541519999955,490.01541519999955,490.08182339999985,490.3489934999998,,,,,,,,,,,,,,,,,,,,,,down,1.5043107999990752,None,space,0.32723880000048666,None,P145,001,2025-04-09_14h09.28.448,posner_endo_new1,2024.2.4,60.026207441694794,2025-04-09 14h09.39.007652 +0100,
cube_r.png,0.1,0.31,valid,39,39,0,down,1.9569221999990987,None,space,0.38548769999761134,None,,,,,,,,,0,39,39,39,490.3648761000004,,,,,,,,,,,,,490.3491854999993,490.3648761000004,490.3648761000004,490.3648761000004,492.3304916999987,,,,492.33662170000025,492.34822039999926,492.34822039999926,492.39622099999906,492.3964457000002,492.4132604000006,492.4132604000006,492.4132604000006,492.47945020000043,492.81320779999805,,,,,,,,,,,,,,,,,,,,,,down,1.9569221999990987,None,space,0.38548769999761134,None,P145,001,2025-04-09_14h09.28.448,posner_endo_new1,2024.2.4,60.026207441694794,2025-04-09 14h09.39.007652 +0100,
cube_l.png,0.1,0.31,invalid,40,40,0,down,1.932462900000246,None,space,0.3465704000009282,None,,,,,,,,,0,40,40,40,492.8290980999991,,,,,,,,,,,,,492.8133877,492.8290980999991,492.8290980999991,492.8290980999991,494.7778068999978,,,,494.78396950000024,494.7956488999989,494.7956488999989,494.8435135,494.84374359999856,494.8603217999989,494.8603217999989,494.8603217999989,494.94371089999913,495.2110522999974,,,,,,,,,,,,,,,,,,,,,,down,1.932462900000246,None,space,0.3465704000009282,None,P145,001,2025-04-09_14h09.28.448,posner_endo_new1,2024.2.4,60.026207441694794,2025-04-09 14h09.39.007652 +0100,
cube_l.png,0.1,10,catch,41,41,0,down,1.7029632000012498,None,None,,,,,,,,,,,0,41,41,41,495.2262702000007,,,,,,,,,,,,,495.21122829999877,495.2262702000007,495.2262702000007,495.2262702000007,496.9421853999993,,,,496.9481653999974,496.9597501999997,496.9597501999997,497.00790309999866,497.00813729999936,497.02472209999905,497.02472209999905,497.02472209999905,497.0915857,500.02208210000026,,,,499.1059643000008,500.0386087000006,500.0386087000006,500.0386087000006,,,,,,,,,,,,,,,down,1.7029632000012498,None,None,,,P145,001,2025-04-09_14h09.28.448,posner_endo_new1,2024.2.4,60.026207441694794,2025-04-09 14h09.39.007652 +0100,
cube_l.png,0.1,-0.31,valid,42,42,0,down,2.1708087000006344,None,space,0.42189890000008745,None,,,,,,,,,0,42,42,42,500.0386087000006,,,,,,,,,,,,,500.0222446000007,500.0386087000006,500.0386087000006,500.0386087000006,502.2202735999999,,,,502.22631209999963,502.2377932999989,502.2377932999989,502.28642469999977,502.2866479999975,502.30249840000033,502.30249840000033,502.30249840000033,502.3693213000006,502.73634799999854,,,,,,,,,,,,,,,,,,,,,,down,2.1708087000006344,None,space,0.42189890000008745,None,P145,001,2025-04-09_14h09.28.448,posner_endo_new1,2024.2.4,60.026207441694794,2025-04-09 14h09.39.007652 +0100,
cube_l.png,0.1,10,catch,43,43,0,down,1.5608213000014075,None,None,,,,,,,,,,,0,43,43,43,502.75241409999944,,,,,,,,,,,,,502.73652030000085,502.75241409999944,502.75241409999944,502.75241409999944,504.31828219999807,,,,504.32440529999803,504.3361569999979,504.3361569999979,504.38405599999896,504.38428170000043,504.40055989999746,504.40055989999746,504.40055989999746,504.4836479000005,507.39919569999984,,,,506.49816289999944,507.41448599999785,507.41448599999785,507.41448599999785,,,,,,,,,,,,,,,down,1.5608213000014075,None,None,,,P145,001,2025-04-09_14h09.28.448,posner_endo_new1,2024.2.4,60.026207441694794,2025-04-09 14h09.39.007652 +0100,
cube_l.png,0.1,0.31,invalid,44,44,0,down,2.1386835999983305,None,space,0.4706192999983614,None,,,,,,,,,0,44,44,44,507.41448599999785,,,,,,,,,,,,,507.3997649999983,507.41448599999785,507.41448599999785,507.41448599999785,509.5646333000004,,,,509.58776379999836,509.5998658999997,509.5998658999997,509.62854850000076,509.62899109999853,509.6452797999991,509.6452797999991,509.6452797999991,509.72850859999744,510.1291941999989,,,,,,,,,,,,,,,,,,,,,,down,2.1386835999983305,None,space,0.4706192999983614,None,P145,001,2025-04-09_14h09.28.448,posner_endo_new1,2024.2.4,60.026207441694794,2025-04-09 14h09.39.007652 +0100,
cube_l.png,0.1,0.31,invalid,45,45,0,down,1.82484100000147,None,space,0.5010320000001229,None,,,,,,,,,0,45,45,45,510.14485889999924,,,,,,,,,,,,,510.12944929999867,510.14485889999924,510.14485889999924,510.14485889999924,511.9772583999984,,,,511.98697639999955,511.9969189000003,511.9969189000003,512.0430479999995,512.0433574999988,512.0594606999985,512.0594606999985,512.0594606999985,512.1427097999986,512.5765818,,,,,,,,,,,,,,,,,,,,,,down,1.82484100000147,None,space,0.5010320000001229,None,P145,001,2025-04-09_14h09.28.448,posner_endo_new1,2024.2.4,60.026207441694794,2025-04-09 14h09.39.007652 +0100,
cube_r.png,0.1,0.31,valid,46,46,0,down,1.1690361000000848,None,space,0.5415716000024986,None,,,,,,,,,0,46,46,46,512.5922495999985,,,,,,,,,,,,,512.5768427000003,512.5922495999985,512.5922495999985,512.5922495999985,513.7753687000004,,,,513.7850389999985,513.7951017999985,513.7951017999985,513.8411301999986,513.841443199999,513.8575993999984,513.8575993999984,513.8575993999984,513.9408675999985,514.4081561999992,,,,,,,,,,,,,,,,,,,,,,down,1.1690361000000848,None,space,0.5415716000024986,None,P145,001,2025-04-09_14h09.28.448,posner_endo_new1,2024.2.4,60.026207441694794,2025-04-09 14h09.39.007652 +0100,
cube_l.png,0.1,-0.31,valid,47,47,0,down,2.0659249000018463,None,space,0.41426420000061626,None,,,,,,,,,0,47,47,47,514.423788199998,,,,,,,,,,,,,514.4084206000007,514.423788199998,514.423788199998,514.423788199998,516.5060396999979,,,,516.5156815999981,516.5257471000004,516.5257471000004,516.5717420000001,516.5720502999975,516.5881707999979,516.5881707999979,516.5881707999979,516.6713834999973,517.0055648999987,,,,,,,,,,,,,,,,,,,,,,down,2.0659249000018463,None,space,0.41426420000061626,None,P145,001,2025-04-09_14h09.28.448,posner_endo_new1,2024.2.4,60.026207441694794,2025-04-09 14h09.39.007652 +0100,
cube_r.png,0.1,-0.31,invalid,48,48,0,down,1.7887934000027599,None,space,0.421320100002049,None,,,,,,,,,0,48,48,48,517.021181199998,,,,,,,,,,,,,517.0058303000005,517.021181199998,517.021181199998,517.021181199998,518.8203188000007,,,,518.8300904999996,518.8401134999986,518.8401134999986,518.8859970999983,518.8863055000002,518.9025311000005,518.9025311000005,518.9025311000005,518.9856865000002,519.3364675999983,,,,,,,,,,,,,,,,,,,,,,down,1.7887934000027599,None,space,0.421320100002049,None,P145,001,2025-04-09_14h09.28.448,posner_endo_new1,2024.2.4,60.026207441694794,2025-04-09 14h09.39.007652 +0100,
cube_r.png,0.1,10,catch,49,49,0,down,2.009124399999564,None,None,,,,,,,,,,,0,49,49,49,519.3520652999978,,,,,,,,,,,,,519.3367197999978,519.3520652999978,519.3520652999978,519.3520652999978,521.3677228999986,,,,521.377394799998,521.3873535999992,521.3873535999992,521.4333955999973,521.4337076999982,521.4500031999996,521.4500031999996,521.4500031999996,521.5330633999984,524.4474774999981,,,,523.5478208999994,524.4634918999982,524.4634918999982,524.4634918999982,,,,,,,,,,,,,,,down,2.009124399999564,None,None,,,P145,001,2025-04-09_14h09.28.448,posner_endo_new1,2024.2.4,60.026207441694794,2025-04-09 14h09.39.007652 +0100,
cube_l.png,0.1,-0.31,valid,50,50,0,down,1.3945636000025843,None,space,0.4575105999974767,None,,,,,,,,,0,50,50,50,524.4634918999982,,,,,,,,,,,,,524.4477259999985,524.4634918999982,524.4634918999982,524.4634918999982,525.8630902000004,,,,525.8729448999984,525.8830008999976,525.8830008999976,525.928809099998,525.9291221999993,525.945330399998,525.945330399998,525.945330399998,526.0285627999983,526.4128944999975,,,,,,,,,,,,,,,,,,,,,,down,1.3945636000025843,None,space,0.4575105999974767,None,P145,001,2025-04-09_14h09.28.448,posner_endo_new1,2024.2.4,60.026207441694794,2025-04-09 14h09.39.007652 +0100,
cube_l.png,0.1,-0.31,valid,51,51,0,down,1.8612894999969285,None,space,0.3829747999989195,None,,,,,,,,,0,51,51,51,526.4280889000001,,,,,,,,,,,,,526.4131481999975,526.4280889000001,526.4280889000001,526.4280889000001,528.2940062999987,,,,528.3039255000003,528.3138856000005,528.3138856000005,528.3595803999997,528.3598906999978,528.3760895999985,528.3760895999985,528.3760895999985,528.4593542000002,528.7603926999982,,,,,,,,,,,,,,,,,,,,,,down,1.8612894999969285,None,space,0.3829747999989195,None,P145,001,2025-04-09_14h09.28.448,posner_endo_new1,2024.2.4,60.026207441694794,2025-04-09 14h09.39.007652 +0100,
cube_r.png,0.1,-0.31,invalid,52,52,0,down,1.9219894999987446,None,space,0.37207520000083605,None,,,,,,,,,0,52,52,52,528.7758032999991,,,,,,,,,,,,,528.7606473999986,528.7758032999991,528.7758032999991,528.7758032999991,530.708107399998,,,,530.7178091999995,530.7278616000003,530.7278616000003,530.7738231999974,530.7741337000007,530.7904511999986,530.7904511999986,530.7904511999986,530.8735822999988,531.1743571999978,,,,,,,,,,,,,,,,,,,,,,down,1.9219894999987446,None,space,0.37207520000083605,None,P145,001,2025-04-09_14h09.28.448,posner_endo_new1,2024.2.4,60.026207441694794,2025-04-09 14h09.39.007652 +0100,
cube_l.png,0.1,-0.31,valid,53,53,0,down,1.6430345000007947,None,space,0.32010929999887594,None,,,,,,,,,0,53,53,53,531.1899578999983,,,,,,,,,,,,,531.1746433000008,531.1899578999983,531.1899578999983,531.1899578999983,532.839286399998,,,,532.8489931000004,532.8590614999994,532.8590614999994,532.9050165000008,532.9053252999984,532.9216405999978,532.9216405999978,532.9216405999978,533.0047481000001,533.2555635999997,,,,,,,,,,,,,,,,,,,,,,down,1.6430345000007947,None,space,0.32010929999887594,None,P145,001,2025-04-09_14h09.28.448,posner_endo_new1,2024.2.4,60.026207441694794,2025-04-09 14h09.39.007652 +0100,
cube_r.png,0.1,10,catch,54,54,0,down,1.658231399997021,None,None,,,,,,,,,,,0,54,54,54,533.2712274000005,,,,,,,,,,,,,533.2558188999974,533.2712274000005,533.2712274000005,533.2712274000005,534.9374107000003,,,,534.9470715999996,534.9570812999991,534.9570812999991,535.0029073999976,535.0032148999999,535.0193857999984,535.0193857999984,535.0193857999984,535.1026517999999,538.0169482999991,,,,537.1172064999992,538.0329734000006,538.0329734000006,538.0329734000006,,,,,,,,,,,,,,,down,1.658231399997021,None,None,,,P145,001,2025-04-09_14h09.28.448,posner_endo_new1,2024.2.4,60.026207441694794,2025-04-09 14h09.39.007652 +0100,
cube_l.png,0.1,0.31,invalid,55,55,0,down,1.97677560000011,None,space,0.47086029999991297,None,,,,,,,,,0,55,55,55,538.0329734000006,,,,,,,,,,,,,538.0171899999987,538.0329734000006,538.0329734000006,538.0329734000006,540.0156244999998,,,,540.0255314999995,540.0356343999993,540.0356343999993,540.081080699998,540.0813901999973,540.0975588000001,540.0975588000001,540.0975588000001,540.1808189000003,540.5814718999973,,,,,,,,,,,,,,,,,,,,,,down,1.97677560000011,None,space,0.47086029999991297,None,P145,001,2025-04-09_14h09.28.448,posner_endo_new1,2024.2.4,60.026207441694794,2025-04-09 14h09.39.007652 +0100,
cube_l.png,0.1,-0.31,valid,56,56,0,down,1.8526180000008026,None,space,0.40338080000219634,None,,,,,,,,,0,56,56,56,540.5969999000008,,,,,,,,,,,,,540.5817320999995,540.5969999000008,540.5969999000008,540.5969999000008,542.4628391999977,,,,542.4725827000002,542.4826735999995,542.4826735999995,542.5284286999995,542.5287415999992,542.5450693999992,542.5450693999992,542.5450693999992,542.6282154,542.9621143999975,,,,,,,,,,,,,,,,,,,,,,down,1.8526180000008026,None,space,0.40338080000219634,None,P145,001,2025-04-09_14h09.28.448,posner_endo_new1,2024.2.4,60.026207441694794,2025-04-09 14h09.39.007652 +0100,
cube_r.png,0.1,0.31,valid,57,57,0,down,1.1832347000017762,None,space,0.4050772999980836,None,,,,,,,,,0,57,57,57,542.9779589999998,,,,,,,,,,,,,542.9623671000008,542.9779589999998,542.9779589999998,542.9779589999998,544.1777349999975,,,,544.187505599999,544.1972757000003,544.1972757000003,544.2434103999985,544.2437155000007,544.2599115999983,544.2599115999983,544.2599115999983,544.3431275000003,544.6772894999995,,,,,,,,,,,,,,,,,,,,,,down,1.1832347000017762,None,space,0.4050772999980836,None,P145,001,2025-04-09_14h09.28.448,posner_endo_new1,2024.2.4,60.026207441694794,2025-04-09 14h09.39.007652 +0100,
cube_r.png,0.1,-0.31,invalid,58,58,0,down,1.9644163999982993,None,space,0.37128000000302563,None,,,,,,,,,0,58,58,58,544.6928058999983,,,,,,,,,,,,,544.6775436999997,544.6928058999983,544.6928058999983,544.6928058999983,546.6585965999984,,,,546.6682156999996,546.678200899998,546.678200899998,546.7242088999992,546.7245268000006,546.7407674999995,546.7407674999995,546.7407674999995,546.8239662999986,547.1247812999973,,,,,,,,,,,,,,,,,,,,,,down,1.9644163999982993,None,space,0.37128000000302563,None,P145,001,2025-04-09_14h09.28.448,posner_endo_new1,2024.2.4,60.026207441694794,2025-04-09 14h09.39.007652 +0100,
cube_l.png,0.1,0.31,invalid,59,59,0,down,2.085050300000148,None,space,0.3508213000022806,None,,,,,,,,,0,59,59,59,547.1403611999995,,,,,,,,,,,,,547.1250475999987,547.1403611999995,547.1403611999995,547.1403611999995,549.2391747000001,,,,549.2487631000004,549.2587348999987,549.2587348999987,549.3049771000005,549.3052886999976,549.3213913,549.3213913,549.3213913,549.404692199998,549.6887953000005,,,,,,,,,,,,,,,,,,,,,,down,2.085050300000148,None,space,0.3508213000022806,None,P145,001,2025-04-09_14h09.28.448,posner_endo_new1,2024.2.4,60.026207441694794,2025-04-09 14h09.39.007652 +0100,
