cue_img,cue_soa,target_y,trial,thisN,thisTrialN,thisRepN,key_control2.keys,key_control2.rt,key_control2.duration,key_resp.keys,key_resp.rt,key_resp.duration,practice.thisRepN,practice.thisTrialN,practice.thisN,practice.thisIndex,block1.thisRepN,block1.thisTrialN,block1.thisN,block1.thisIndex,block2.thisRepN,block2.thisTrialN,block2.thisN,block2.thisIndex,thisRow.t,notes,instructions.started,instructions_txt.started,key_control.started,instructions.stopped,key_control.keys,key_control.rt,key_control.duration,ready.started,ready_txt.started,ready_txt.stopped,ready.stopped,fix.started,fixation.started,key_control2.started,fixation_cross.started,fix.stopped,practice.key_control2.keys,practice.key_control2.rt,practice.key_control2.duration,cue.started,cube.started,fixation_cross_cue.started,cue.stopped,target.started,fixation_target.started,fixation_cross_target.started,key_resp.started,star.started,target.stopped,practice.key_resp.keys,practice.key_resp.rt,practice.key_resp.duration,star.stopped,fixation_target.stopped,fixation_cross_target.stopped,key_resp.stopped,block1.key_control2.keys,block1.key_control2.rt,block1.key_control2.duration,block1.key_resp.keys,block1.key_resp.rt,block1.key_resp.duration,break_2.started,text.started,key_control3.started,text.stopped,break_2.stopped,key_control3.keys,key_control3.rt,key_control3.duration,block2.key_control2.keys,block2.key_control2.rt,block2.key_control2.duration,block2.key_resp.keys,block2.key_resp.rt,block2.key_resp.duration,participant,session,date,expName,psychopyVersion,frameRate,expStart,
,,,,,,,,,,,,,,,,,,,,,,,,,,,0.007400200000120094,0.020861299999523908,0.020861299999523908,4.322649800000363,up,4.286224699997547,None,,,,,,,,,,,,,,,,,,,,,,,,,,,,,,,,,,,,,,,,,,,,,,,,,,P146,001,2025-04-09_15h09.12.980,posner_endo_new1,2024.2.4,60.07402321032092,2025-04-09 15h09.20.843881 +0100,
,,,,,,,,,,,,,,,,,,,,,,,,,,,,,,,,,,4.322694700000284,4.333985799999937,7.352613899998687,7.315087799997855,,,,,,,,,,,,,,,,,,,,,,,,,,,,,,,,,,,,,,,,,,,,,,P146,001,2025-04-09_15h09.12.980,posner_endo_new1,2024.2.4,60.07402321032092,2025-04-09 15h09.20.843881 +0100,
cube_l.png,0.1,-0.31,valid,0,0,0,up,29.01876590000029,None,space,0.4791025999984413,None,0,0,0,0,,,,,,,,,7.352613899998687,,,,,,,,,,,,,7.337569899998925,7.352613899998687,7.352613899998687,7.352613899998687,36.38541809999879,up,29.01876590000029,None,36.40086039999733,36.411815899999056,36.411815899999056,36.4511765999996,36.4513956999981,36.46772760000022,36.46772760000022,36.46772760000022,36.55089139999836,36.951449899999716,space,0.4791025999984413,None,,,,,,,,,,,,,,,,,,,,,,,,,P146,001,2025-04-09_15h09.12.980,posner_endo_new1,2024.2.4,60.07402321032092,2025-04-09 15h09.20.843881 +0100,
cube_l.png,0.1,0.31,invalid,1,1,0,up,4.220668200003274,None,space,0.37565830000312417,None,0,1,1,1,,,,,,,,,36.96728919999805,,,,,,,,,,,,,36.95161779999762,36.96728919999805,36.96728919999805,36.96728919999805,41.19726829999854,up,4.220668200003274,None,41.2083907999986,41.21829230000003,41.21829230000003,41.26300899999842,41.263310999998794,41.279464799998095,41.279464799998095,41.279464799998095,41.36269600000014,41.66344290000052,space,0.37565830000312417,None,,,,,,,,,,,,,,,,,,,,,,,,,P146,001,2025-04-09_15h09.12.980,posner_endo_new1,2024.2.4,60.07402321032092,2025-04-09 15h09.20.843881 +0100,
cube_r.png,0.1,-0.31,invalid,2,2,0,up,4.212043299998186,None,space,0.36673979999977746,None,0,2,2,9,,,,,,,,,41.67901349999738,,,,,,,,,,,,,41.66368109999894,41.67901349999738,41.67901349999738,41.67901349999738,45.892466699999204,up,4.212043299998186,None,45.903718199999275,45.91371679999793,45.91371679999793,45.95792369999981,45.958226499999,45.974662999997236,45.974662999997236,45.974662999997236,46.05778640000062,46.358446999998705,space,0.36673979999977746,None,,,,,,,,,,,,,,,,,,,,,,,,,P146,001,2025-04-09_15h09.12.980,posner_endo_new1,2024.2.4,60.07402321032092,2025-04-09 15h09.20.843881 +0100,
cube_r.png,0.1,0.31,valid,3,3,0,up,3.2048931999997876,None,space,0.3480318999972951,None,0,3,3,10,,,,,,,,,46.37425579999763,,,,,,,,,,,,,46.358686199997464,46.37425579999763,46.37425579999763,46.37425579999763,49.588653599999816,up,3.2048931999997876,None,49.599180699999124,49.609168499999214,49.609168499999214,49.65435199999774,49.65465419999964,49.670856199998525,49.670856199998525,49.670856199998525,49.754148899999564,50.02165999999852,space,0.3480318999972951,None,,,,,,,,,,,,,,,,,,,,,,,,,P146,001,2025-04-09_15h09.12.980,posner_endo_new1,2024.2.4,60.07402321032092,2025-04-09 15h09.20.843881 +0100,
cube_r.png,0.1,-0.31,invalid,4,4,0,up,4.494726999997511,None,space,0.3139292999985628,None,0,4,4,2,,,,,,,,,50.03721649999716,,,,,,,,,,,,,50.02190209999753,50.03721649999716,50.03721649999716,50.03721649999716,54.533749199999875,up,4.494726999997511,None,54.54414259999976,54.554068800000096,54.554068800000096,54.59927989999778,54.599579099998664,54.61587529999815,54.61587529999815,54.61587529999815,54.69906769999943,54.93311639999956,space,0.3139292999985628,None,,,,,,,,,,,,,,,,,,,,,,,,,P146,001,2025-04-09_15h09.12.980,posner_endo_new1,2024.2.4,60.07402321032092,2025-04-09 15h09.20.843881 +0100,
cube_r.png,0.1,-0.31,invalid,5,5,0,up,3.9990419000023394,None,space,0.47828080000181217,None,0,5,5,6,,,,,,,,,54.94890889999806,,,,,,,,,,,,,54.93335279999883,54.94890889999806,54.94890889999806,54.94890889999806,58.96240249999755,up,3.9990419000023394,None,58.97253669999918,58.98259609999877,58.98259609999877,59.02815279999777,59.02845209999941,59.04459979999956,59.04459979999956,59.04459979999956,59.12783329999729,59.528722399998514,space,0.47828080000181217,None,,,,,,,,,,,,,,,,,,,,,,,,,P146,001,2025-04-09_15h09.12.980,posner_endo_new1,2024.2.4,60.07402321032092,2025-04-09 15h09.20.843881 +0100,
cube_r.png,0.1,10,catch,6,6,0,up,3.354967899998883,None,None,,,0,6,6,3,,,,,,,,,59.54407919999721,,,,,,,,,,,,,59.528964900000574,59.54407919999721,59.54407919999721,59.54407919999721,62.90842920000068,up,3.354967899998883,None,62.91845599999942,62.928269199997885,62.928269199997885,62.97407629999725,62.97437499999796,62.990567400000145,62.990567400000145,62.990567400000145,63.07380939999712,65.98821820000012,None,,,65.08850849999726,66.00415979999889,66.00415979999889,66.00415979999889,,,,,,,,,,,,,,,,,,,,,P146,001,2025-04-09_15h09.12.980,posner_endo_new1,2024.2.4,60.07402321032092,2025-04-09 15h09.20.843881 +0100,
cube_r.png,0.1,0.31,valid,7,7,0,up,5.686879200002295,None,space,0.3892199999972945,None,0,7,7,7,,,,,,,,,66.00415979999889,,,,,,,,,,,,,65.9884381999982,66.00415979999889,66.00415979999889,66.00415979999889,71.6993745999971,up,5.686879200002295,None,71.70955589999721,71.71965529999943,71.71965529999943,71.76511069999833,71.76541089999955,71.7816426999998,71.7816426999998,71.7816426999998,71.86480459999802,72.18229860000065,space,0.3892199999972945,None,,,,,,,,,,,,,,,,,,,,,,,,,P146,001,2025-04-09_15h09.12.980,posner_endo_new1,2024.2.4,60.07402321032092,2025-04-09 15h09.20.843881 +0100,
cube_l.png,0.1,0.31,invalid,8,8,0,up,3.349504599998909,None,space,0.4444225000006554,None,0,8,8,5,,,,,,,,,72.19788979999794,,,,,,,,,,,,,72.18254609999713,72.19788979999794,72.19788979999794,72.19788979999794,75.56218689999878,up,3.349504599998909,None,75.57063469999775,75.58106839999891,75.58106839999891,75.62791669999933,75.62813829999868,75.64436159999968,75.64436159999968,75.64436159999968,75.72755739999775,76.0948884999998,space,0.4444225000006554,None,,,,,,,,,,,,,,,,,,,,,,,,,P146,001,2025-04-09_15h09.12.980,posner_endo_new1,2024.2.4,60.07402321032092,2025-04-09 15h09.20.843881 +0100,
cube_l.png,0.1,-0.31,valid,9,9,0,up,3.7811672999996517,None,space,0.35529139999925974,None,0,9,9,8,,,,,,,,,76.11049469999853,,,,,,,,,,,,,76.09505129999889,76.11049469999853,76.11049469999853,76.11049469999853,79.90750230000049,up,3.7811672999996517,None,79.91417499999807,79.92524129999947,79.92524129999947,79.97332180000012,79.9738131999984,79.9897865999992,79.9897865999992,79.9897865999992,80.07297679999829,80.3577527999987,space,0.35529139999925974,None,,,,,,,,,,,,,,,,,,,,,,,,,P146,001,2025-04-09_15h09.12.980,posner_endo_new1,2024.2.4,60.07402321032092,2025-04-09 15h09.20.843881 +0100,
cube_l.png,0.1,-0.31,valid,10,10,0,up,4.944043799998326,None,space,0.4316147000026831,None,0,10,10,4,,,,,,,,,80.37268539999786,,,,,,,,,,,,,80.35816839999825,80.37268539999786,80.37268539999786,80.37268539999786,85.31915259999732,up,4.944043799998326,None,85.33129840000038,85.34158469999966,85.34158469999966,85.38456139999835,85.38490629999797,85.40102399999887,85.40102399999887,85.40102399999887,85.48431899999923,85.83530690000043,space,0.4316147000026831,None,,,,,,,,,,,,,,,,,,,,,,,,,P146,001,2025-04-09_15h09.12.980,posner_endo_new1,2024.2.4,60.07402321032092,2025-04-09 15h09.20.843881 +0100,
,,,,,,,,,,,,,,,,,,,,,,,,,,,,,,,,,,85.83549439999842,85.85052150000047,88.8624925999975,88.8315139999977,,,,,,,,,,,,,,,,,,,,,,,,,,,,,,,,,,,,,,,,,,,,,,P146,001,2025-04-09_15h09.12.980,posner_endo_new1,2024.2.4,60.07402321032092,2025-04-09 15h09.20.843881 +0100,
cube_l.png,0.1,10,catch,0,0,0,up,4.96546490000037,None,None,,,,,,,0,0,0,0,,,,,88.8624925999975,,,,,,,,,,,,,88.85322919999817,88.8624925999975,88.8624925999975,88.8624925999975,93.84370599999966,,,,93.8558477000006,93.86605869999767,93.86605869999767,93.90917759999866,93.90952259999904,93.92575379999835,93.92575379999835,93.92575379999835,94.00894920000064,96.92342409999765,,,,96.02358809999714,96.9392861999986,96.9392861999986,96.9392861999986,up,4.96546490000037,None,None,,,,,,,,,,,,,,,,,P146,001,2025-04-09_15h09.12.980,posner_endo_new1,2024.2.4,60.07402321032092,2025-04-09 15h09.20.843881 +0100,
cube_l.png,0.1,10,catch,1,1,0,up,0.9125115999995614,None,None,,,,,,,0,1,1,1,,,,,96.9392861999986,,,,,,,,,,,,,96.92368899999929,96.9392861999986,96.9392861999986,96.9392861999986,97.85642649999863,,,,97.86860199999865,97.87887349999801,97.87887349999801,97.92178269999931,97.92212129999825,97.93832999999722,97.93832999999722,97.93832999999722,98.0215062999996,100.93597999999838,,,,100.03615839999838,100.95187679999799,100.95187679999799,100.95187679999799,up,0.9125115999995614,None,None,,,,,,,,,,,,,,,,,P146,001,2025-04-09_15h09.12.980,posner_endo_new1,2024.2.4,60.07402321032092,2025-04-09 15h09.20.843881 +0100,
cube_l.png,0.1,0.31,invalid,2,2,0,up,0.06761460000052466,None,space,0.37489409999761847,None,,,,,0,2,2,2,,,,,100.95187679999799,,,,,,,,,,,,,100.93624809999892,100.95187679999799,100.95187679999799,100.95187679999799,101.03631989999849,,,,101.0486877000003,101.05861729999742,101.05861729999742,101.1018914999986,101.1022312999994,101.11846969999897,101.11846969999897,101.11846969999897,101.20167699999729,101.50248609999835,,,,,,,,up,0.06761460000052466,None,space,0.37489409999761847,None,,,,,,,,,,,,,,,P146,001,2025-04-09_15h09.12.980,posner_endo_new1,2024.2.4,60.07402321032092,2025-04-09 15h09.20.843881 +0100,
cube_l.png,0.1,0.31,invalid,3,3,0,up,1.4057616999998572,None,space,0.3754871999990428,None,,,,,0,3,3,3,,,,,101.51797119999901,,,,,,,,,,,,,101.50278029999754,101.51797119999901,101.51797119999901,101.51797119999901,102.93390390000059,,,,102.9408803999977,102.95266519999859,102.95266519999859,102.99987039999905,103.00009019999925,103.01647450000019,103.01647450000019,103.01647450000019,103.09962129999985,103.39988319999975,,,,,,,,up,1.4057616999998572,None,space,0.3754871999990428,None,,,,,,,,,,,,,,,P146,001,2025-04-09_15h09.12.980,posner_endo_new1,2024.2.4,60.07402321032092,2025-04-09 15h09.20.843881 +0100,
cube_l.png,0.1,-0.31,valid,4,4,0,up,7.251627599998756,None,space,0.33008840000184136,None,,,,,0,4,4,4,,,,,103.41609550000067,,,,,,,,,,,,,103.40005729999757,103.41609550000067,103.41609550000067,103.41609550000067,110.67651349999869,,,,110.6885798000003,110.69892419999815,110.69892419999815,110.74187569999776,110.74211970000033,110.75862819999747,110.75862819999747,110.75862819999747,110.84161709999898,111.09241579999798,,,,,,,,up,7.251627599998756,None,space,0.33008840000184136,None,,,,,,,,,,,,,,,P146,001,2025-04-09_15h09.12.980,posner_endo_new1,2024.2.4,60.07402321032092,2025-04-09 15h09.20.843881 +0100,
cube_r.png,0.1,-0.31,invalid,5,5,0,up,2.791452499997831,None,space,0.354350900001009,None,,,,,0,5,5,5,,,,,111.10798459999933,,,,,,,,,,,,,111.09261060000063,111.10798459999933,111.10798459999933,111.10798459999933,113.90701309999713,,,,113.92477299999882,113.93564340000012,113.93564340000012,113.97205389999726,113.97239590000027,113.98860059999788,113.98860059999788,113.98860059999788,114.07173129999865,114.356022699998,,,,,,,,up,2.791452499997831,None,space,0.354350900001009,None,,,,,,,,,,,,,,,P146,001,2025-04-09_15h09.12.980,posner_endo_new1,2024.2.4,60.07402321032092,2025-04-09 15h09.20.843881 +0100,
cube_r.png,0.1,0.31,valid,6,6,0,up,4.81661659999736,None,space,0.37495239999771,None,,,,,0,6,6,6,,,,,114.37151529999755,,,,,,,,,,,,,114.35630979999769,114.37151529999755,114.37151529999755,114.37151529999755,119.20112879999942,,,,119.21297829999821,119.2233027000002,119.2233027000002,119.26664949999758,119.26699809999991,119.28299609999885,119.28299609999885,119.28299609999885,119.36645049999788,119.66732240000056,,,,,,,,up,4.81661659999736,None,space,0.37495239999771,None,,,,,,,,,,,,,,,P146,001,2025-04-09_15h09.12.980,posner_endo_new1,2024.2.4,60.07402321032092,2025-04-09 15h09.20.843881 +0100,
cube_r.png,0.1,-0.31,invalid,7,7,0,up,3.8170194999984233,None,space,0.40525589999742806,None,,,,,0,7,7,7,,,,,119.68279260000054,,,,,,,,,,,,,119.66761149999729,119.68279260000054,119.68279260000054,119.68279260000054,123.51331079999727,,,,123.52501539999867,123.53533369999786,123.53533369999786,123.57910379999885,123.57944370000041,123.59521659999882,123.59521659999882,123.59521659999882,123.67868850000013,124.01274519999788,,,,,,,,up,3.8170194999984233,None,space,0.40525589999742806,None,,,,,,,,,,,,,,,P146,001,2025-04-09_15h09.12.980,posner_endo_new1,2024.2.4,60.07402321032092,2025-04-09 15h09.20.843881 +0100,
cube_l.png,0.1,-0.31,valid,8,8,0,up,3.4478396000013163,None,space,0.3450440000015078,None,,,,,0,8,8,8,,,,,124.02828239999872,,,,,,,,,,,,,124.01303239999834,124.02828239999872,124.02828239999872,124.02828239999872,127.4926295999976,,,,127.50450609999825,127.51439389999723,127.51439389999723,127.55811809999796,127.55845689999842,127.57497229999717,127.57497229999717,127.57497229999717,127.65798799999902,127.92547419999755,,,,,,,,up,3.4478396000013163,None,space,0.3450440000015078,None,,,,,,,,,,,,,,,P146,001,2025-04-09_15h09.12.980,posner_endo_new1,2024.2.4,60.07402321032092,2025-04-09 15h09.20.843881 +0100,
cube_r.png,0.1,-0.31,invalid,9,9,0,up,7.5984896999980265,None,space,0.4591513999985182,None,,,,,0,9,9,9,,,,,127.94103220000034,,,,,,,,,,,,,127.92577059999894,127.94103220000034,127.94103220000034,127.94103220000034,135.5510488,,,,135.56296440000006,135.57333110000036,135.57333110000036,135.61664989999917,135.61698899999828,135.63313539999945,135.63313539999945,135.63313539999945,135.71641079999972,136.1005460999986,,,,,,,,up,7.5984896999980265,None,space,0.4591513999985182,None,,,,,,,,,,,,,,,P146,001,2025-04-09_15h09.12.980,posner_endo_new1,2024.2.4,60.07402321032092,2025-04-09 15h09.20.843881 +0100,
cube_l.png,0.1,0.31,invalid,10,10,0,up,4.376177899997856,None,space,0.40436690000206,None,,,,,0,10,10,10,,,,,136.1159525999974,,,,,,,,,,,,,136.10083229999873,136.1159525999974,136.1159525999974,136.1159525999974,140.4961489999987,,,,140.50823399999717,140.51835819999906,140.51835819999906,140.5615915999988,140.5619302999985,140.57854249999946,140.57854249999946,140.57854249999946,140.6613174999984,140.99553709999964,,,,,,,,up,4.376177899997856,None,space,0.40436690000206,None,,,,,,,,,,,,,,,P146,001,2025-04-09_15h09.12.980,posner_endo_new1,2024.2.4,60.07402321032092,2025-04-09 15h09.20.843881 +0100,
cube_r.png,0.1,-0.31,invalid,11,11,0,up,4.921012899998459,None,space,0.34315500000229804,None,,,,,0,11,11,11,,,,,141.01088560000062,,,,,,,,,,,,,140.99583509999866,141.01088560000062,141.01088560000062,141.01088560000062,145.9405482000002,,,,145.95085929999914,145.96053159999792,145.96053159999792,146.00606889999835,146.00630199999796,146.02256839999973,146.02256839999973,146.02256839999973,146.1058035999995,146.37279599999965,,,,,,,,up,4.921012899998459,None,space,0.34315500000229804,None,,,,,,,,,,,,,,,P146,001,2025-04-09_15h09.12.980,posner_endo_new1,2024.2.4,60.07402321032092,2025-04-09 15h09.20.843881 +0100,
cube_r.png,0.1,0.31,valid,12,12,0,up,4.023691299997154,None,space,0.42695050000111223,None,,,,,0,12,12,12,,,,,146.38878320000003,,,,,,,,,,,,,146.37297989999934,146.38878320000003,146.38878320000003,146.38878320000003,150.41882859999896,,,,150.4260312999977,150.43751189999966,150.43751189999966,150.4847708999987,150.48498779999863,150.50132089999897,150.50132089999897,150.50132089999897,150.56793139999718,150.93503149999742,,,,,,,,up,4.023691299997154,None,space,0.42695050000111223,None,,,,,,,,,,,,,,,P146,001,2025-04-09_15h09.12.980,posner_endo_new1,2024.2.4,60.07402321032092,2025-04-09 15h09.20.843881 +0100,
cube_l.png,0.1,10,catch,13,13,0,up,3.293294099999912,None,None,,,,,,,0,13,13,13,,,,,150.95078499999727,,,,,,,,,,,,,150.93520119999812,150.95078499999727,150.95078499999727,150.95078499999727,154.24904640000022,,,,154.26700709999932,154.2783918999994,154.2783918999994,154.31409189999977,154.31458379999822,154.3305404999992,154.3305404999992,154.3305404999992,154.4137832999986,157.32830710000053,,,,156.42852889999995,157.3442819999982,157.3442819999982,157.3442819999982,up,3.293294099999912,None,None,,,,,,,,,,,,,,,,,P146,001,2025-04-09_15h09.12.980,posner_endo_new1,2024.2.4,60.07402321032092,2025-04-09 15h09.20.843881 +0100,
cube_r.png,0.1,-0.31,invalid,14,14,0,up,0.723537200003193,None,space,0.5443134999986796,None,,,,,0,14,14,14,,,,,157.3442819999982,,,,,,,,,,,,,157.32858529999794,157.3442819999982,157.3442819999982,157.3442819999982,158.07828589999917,,,,158.0900898,158.10050539999793,158.10050539999793,158.1437115999979,158.14405049999914,158.16014219999852,158.16014219999852,158.16014219999852,158.24337770000056,158.71100350000052,,,,,,,,up,0.723537200003193,None,space,0.5443134999986796,None,,,,,,,,,,,,,,,P146,001,2025-04-09_15h09.12.980,posner_endo_new1,2024.2.4,60.07402321032092,2025-04-09 15h09.20.843881 +0100,
cube_l.png,0.1,-0.31,valid,15,15,0,up,5.485588100000314,None,space,0.5340112000012596,None,,,,,0,15,15,15,,,,,158.72620370000004,,,,,,,,,,,,,158.71129209999708,158.72620370000004,158.72620370000004,158.72620370000004,164.22184360000028,,,,164.23375499999747,164.24399459999768,164.24399459999768,164.28738499999963,164.28773100000035,164.3038407999993,164.3038407999993,164.3038407999993,164.3870711999989,164.85445569999865,,,,,,,,up,5.485588100000314,None,space,0.5340112000012596,None,,,,,,,,,,,,,,,P146,001,2025-04-09_15h09.12.980,posner_endo_new1,2024.2.4,60.07402321032092,2025-04-09 15h09.20.843881 +0100,
cube_r.png,0.1,10,catch,16,16,0,up,5.59746339999765,None,None,,,,,,,0,16,16,16,,,,,164.86996229999932,,,,,,,,,,,,,164.8547421000003,164.86996229999932,164.86996229999932,164.86996229999932,170.48213079999914,,,,170.49097970000003,170.50076249999984,170.50076249999984,170.54766240000026,170.54789659999733,170.56422889999885,170.56422889999885,170.56422889999885,170.64753259999998,173.56154379999862,,,,172.66224569999758,173.57786949999718,173.57786949999718,173.57786949999718,up,5.59746339999765,None,None,,,,,,,,,,,,,,,,,P146,001,2025-04-09_15h09.12.980,posner_endo_new1,2024.2.4,60.07402321032092,2025-04-09 15h09.20.843881 +0100,
cube_r.png,0.1,10,catch,17,17,0,up,2.1144115999995847,None,None,,,,,,,0,17,17,17,,,,,173.57786949999718,,,,,,,,,,,,,173.5617284,173.57786949999718,173.57786949999718,173.57786949999718,175.69324579999738,,,,175.70036640000035,175.71209339999768,175.71209339999768,175.75899449999997,175.75922759999958,175.77537809999922,175.77537809999922,175.77537809999922,175.85873399999764,178.77305709999928,,,,177.8733785000004,178.78912279999713,178.78912279999713,178.78912279999713,up,2.1144115999995847,None,None,,,,,,,,,,,,,,,,,P146,001,2025-04-09_15h09.12.980,posner_endo_new1,2024.2.4,60.07402321032092,2025-04-09 15h09.20.843881 +0100,
cube_l.png,0.1,0.31,invalid,18,18,0,up,0.6704122000010102,None,space,0.3840617000023485,None,,,,,0,18,18,18,,,,,178.78912279999713,,,,,,,,,,,,,178.77322819999972,178.78912279999713,178.78912279999713,178.78912279999713,179.47239529999933,,,,179.47945119999713,179.49137989999872,179.49137989999872,179.5384723999996,179.53869180000038,179.5549362999991,179.5549362999991,179.5549362999991,179.62153240000043,179.9553057999983,,,,,,,,up,0.6704122000010102,None,space,0.3840617000023485,None,,,,,,,,,,,,,,,P146,001,2025-04-09_15h09.12.980,posner_endo_new1,2024.2.4,60.07402321032092,2025-04-09 15h09.20.843881 +0100,
cube_l.png,0.1,10,catch,19,19,0,up,2.176741500003118,None,None,,,,,,,0,19,19,19,,,,,179.97120639999775,,,,,,,,,,,,,179.955476799998,179.97120639999775,179.97120639999775,179.97120639999775,182.15318320000006,,,,182.15938149999783,182.1711722,182.1711722,182.21911510000064,182.219341,182.23566879999998,182.23566879999998,182.23566879999998,182.31873319999795,185.23400279999987,,,,184.33354730000065,185.2493188999979,185.2493188999979,185.2493188999979,up,2.176741500003118,None,None,,,,,,,,,,,,,,,,,P146,001,2025-04-09_15h09.12.980,posner_endo_new1,2024.2.4,60.07402321032092,2025-04-09 15h09.20.843881 +0100,
cube_l.png,0.1,0.31,invalid,20,20,0,up,1.6987724999999045,None,space,0.4347280000001774,None,,,,,0,20,20,20,,,,,185.2493188999979,,,,,,,,,,,,,185.2345557999979,185.2493188999979,185.2493188999979,185.2493188999979,186.9504089999973,,,,186.9743027000004,186.98640089999753,186.98640089999753,187.0136758999979,187.01402059999964,187.03023589999793,187.03023589999793,187.03023589999793,187.11392309999792,187.4814458999972,,,,,,,,up,1.6987724999999045,None,space,0.4347280000001774,None,,,,,,,,,,,,,,,P146,001,2025-04-09_15h09.12.980,posner_endo_new1,2024.2.4,60.07402321032092,2025-04-09 15h09.20.843881 +0100,
cube_l.png,0.1,-0.31,valid,21,21,0,up,3.45098340000186,None,space,0.3946202000006451,None,,,,,0,21,21,21,,,,,187.49681989999954,,,,,,,,,,,,,187.4817409999996,187.49681989999954,187.49681989999954,187.49681989999954,190.96252129999993,,,,190.98621339999954,190.9984371999999,190.9984371999999,191.02660449999894,191.02704259999882,191.04292839999835,191.04292839999835,191.04292839999835,191.1261218999971,191.44397299999764,,,,,,,,up,3.45098340000186,None,space,0.3946202000006451,None,,,,,,,,,,,,,,,P146,001,2025-04-09_15h09.12.980,posner_endo_new1,2024.2.4,60.07402321032092,2025-04-09 15h09.20.843881 +0100,
cube_r.png,0.1,0.31,valid,22,22,0,up,3.5044189999971422,None,space,0.3706348000014259,None,,,,,0,22,22,22,,,,,191.45911479999995,,,,,,,,,,,,,191.44434229999752,191.45911479999995,191.45911479999995,191.45911479999995,194.97363309999855,,,,194.9835529999982,194.9936987000001,194.9936987000001,195.03920469999866,195.03950939999777,195.0557865999981,195.0557865999981,195.0557865999981,195.1390250000004,195.43970629999967,,,,,,,,up,3.5044189999971422,None,space,0.3706348000014259,None,,,,,,,,,,,,,,,P146,001,2025-04-09_15h09.12.980,posner_endo_new1,2024.2.4,60.07402321032092,2025-04-09 15h09.20.843881 +0100,
cube_r.png,0.1,-0.31,invalid,23,23,0,up,3.35607820000223,None,space,0.41177410000091186,None,,,,,0,23,23,23,,,,,195.45531219999975,,,,,,,,,,,,,195.43995489999725,195.45531219999975,195.45531219999975,195.45531219999975,198.81979149999825,,,,198.82970489999934,198.83967309999935,198.83967309999935,198.88530779999928,198.88561309999932,198.90184379999846,198.90184379999846,198.90184379999846,198.9848295999982,199.3193844999987,,,,,,,,up,3.35607820000223,None,space,0.41177410000091186,None,,,,,,,,,,,,,,,P146,001,2025-04-09_15h09.12.980,posner_endo_new1,2024.2.4,60.07402321032092,2025-04-09 15h09.20.843881 +0100,
cube_r.png,0.1,0.31,valid,24,24,0,up,5.869849499998963,None,space,0.3913921000021219,None,,,,,0,24,24,24,,,,,199.33462370000052,,,,,,,,,,,,,199.3196386999989,199.33462370000052,199.33462370000052,199.33462370000052,205.21315010000035,,,,205.22325679999994,205.23338370000056,205.23338370000056,205.27875149999818,205.27905689999898,205.29527550000057,205.29527550000057,205.29527550000057,205.37852869999915,205.69598269999915,,,,,,,,up,5.869849499998963,None,space,0.3913921000021219,None,,,,,,,,,,,,,,,P146,001,2025-04-09_15h09.12.980,posner_endo_new1,2024.2.4,60.07402321032092,2025-04-09 15h09.20.843881 +0100,
cube_r.png,0.1,-0.31,invalid,25,25,0,up,1.2039769000002707,None,space,0.6035961999987194,None,,,,,0,25,25,25,,,,,205.7115922999983,,,,,,,,,,,,,205.69625149999774,205.7115922999983,205.7115922999983,205.7115922999983,206.9281052999977,,,,206.9380259999998,206.94778909999877,206.94778909999877,206.99379939999926,206.9940198000004,207.01023359999817,207.01023359999817,207.01023359999817,207.09344399999827,207.6269855999999,,,,,,,,up,1.2039769000002707,None,space,0.6035961999987194,None,,,,,,,,,,,,,,,P146,001,2025-04-09_15h09.12.980,posner_endo_new1,2024.2.4,60.07402321032092,2025-04-09 15h09.20.843881 +0100,
cube_l.png,0.1,-0.31,valid,26,26,0,up,1.440850999999384,None,space,0.6246989999999641,None,,,,,0,26,26,26,,,,,207.64300319999893,,,,,,,,,,,,,207.62717169999814,207.64300319999893,207.64300319999893,207.64300319999893,209.0922565999972,,,,209.10168340000018,209.11396429999877,209.11396429999877,209.15791320000062,209.15835069999957,209.1743495999981,209.1743495999981,209.1743495999981,209.25760969999828,209.80855709999742,,,,,,,,up,1.440850999999384,None,space,0.6246989999999641,None,,,,,,,,,,,,,,,P146,001,2025-04-09_15h09.12.980,posner_endo_new1,2024.2.4,60.07402321032092,2025-04-09 15h09.20.843881 +0100,
cube_r.png,0.1,0.31,valid,27,27,0,up,1.339840099997673,None,space,0.45648960000107763,None,,,,,0,27,27,27,,,,,209.82372079999914,,,,,,,,,,,,,209.8089254999977,209.82372079999914,209.82372079999914,209.82372079999914,211.1735422999991,,,,211.18338219999714,211.19351389999792,211.19351389999792,211.23943119999967,211.2397353999986,211.25592719999986,211.25592719999986,211.25592719999986,211.3390870999974,211.7230356,,,,,,,,up,1.339840099997673,None,space,0.45648960000107763,None,,,,,,,,,,,,,,,P146,001,2025-04-09_15h09.12.980,posner_endo_new1,2024.2.4,60.07402321032092,2025-04-09 15h09.20.843881 +0100,
cube_r.png,0.1,10,catch,28,28,0,up,2.529281199997058,None,None,,,,,,,0,28,28,28,,,,,211.73877779999748,,,,,,,,,,,,,211.72328429999834,211.73877779999748,211.73877779999748,211.73877779999748,214.2705489,,,,214.2803039999999,214.29037210000024,214.29037210000024,214.33628589999716,214.33658549999745,214.35270559999844,214.35270559999844,214.35270559999844,214.43598129999737,217.35030419999748,,,,216.45057459999953,217.36629979999998,217.36629979999998,217.36629979999998,up,2.529281199997058,None,None,,,,,,,,,,,,,,,,,P146,001,2025-04-09_15h09.12.980,posner_endo_new1,2024.2.4,60.07402321032092,2025-04-09 15h09.20.843881 +0100,
cube_r.png,0.1,0.31,valid,29,29,0,up,1.925875000000815,None,space,0.47130570000081207,None,,,,,0,29,29,29,,,,,217.36629979999998,,,,,,,,,,,,,217.3505344999976,217.36629979999998,217.36629979999998,217.36629979999998,219.298506799998,,,,219.3083603999985,219.31840379999994,219.31840379999994,219.36449229999926,219.36478969999735,219.38090799999918,219.38090799999918,219.38090799999918,219.46416739999768,219.8648248999998,,,,,,,,up,1.925875000000815,None,space,0.47130570000081207,None,,,,,,,,,,,,,,,P146,001,2025-04-09_15h09.12.980,posner_endo_new1,2024.2.4,60.07402321032092,2025-04-09 15h09.20.843881 +0100,
cube_r.png,0.1,0.31,valid,30,30,0,up,1.1556649999984074,None,space,0.39816699999937555,None,,,,,0,30,30,30,,,,,219.88042919999862,,,,,,,,,,,,,219.86507419999907,219.88042919999862,219.88042919999862,219.88042919999862,221.04693209999823,,,,221.05664669999896,221.06673969999974,221.06673969999974,221.1125823000002,221.11288169999898,221.12908919999973,221.12908919999973,221.12908919999973,221.21247149999908,221.52990899999713,,,,,,,,up,1.1556649999984074,None,space,0.39816699999937555,None,,,,,,,,,,,,,,,P146,001,2025-04-09_15h09.12.980,posner_endo_new1,2024.2.4,60.07402321032092,2025-04-09 15h09.20.843881 +0100,
cube_l.png,0.1,-0.31,valid,31,31,0,up,3.7945512000005692,None,space,0.4098617999989074,None,,,,,0,31,31,31,,,,,221.5453626999988,,,,,,,,,,,,,221.53015740000046,221.5453626999988,221.5453626999988,221.5453626999988,225.34251790000053,,,,225.3522711000005,225.36231889999908,225.36231889999908,225.4082355999999,225.4085363999984,225.42486069999723,225.42486069999723,225.42486069999723,225.50786719999815,225.84197779999886,,,,,,,,up,3.7945512000005692,None,space,0.4098617999989074,None,,,,,,,,,,,,,,,P146,001,2025-04-09_15h09.12.980,posner_endo_new1,2024.2.4,60.07402321032092,2025-04-09 15h09.20.843881 +0100,
cube_r.png,0.1,0.31,valid,32,32,0,up,3.32256580000103,None,space,0.5081463000024087,None,,,,,0,32,32,32,,,,,225.85766149999836,,,,,,,,,,,,,225.84222669999872,225.85766149999836,225.85766149999836,225.85766149999836,229.18855739999708,,,,229.19816789999823,229.20798789999753,229.20798789999753,229.25424089999797,229.25446229999943,229.27081669999825,229.27081669999825,229.27081669999825,229.35427259999778,229.78790119999758,,,,,,,,up,3.32256580000103,None,space,0.5081463000024087,None,,,,,,,,,,,,,,,P146,001,2025-04-09_15h09.12.980,posner_endo_new1,2024.2.4,60.07402321032092,2025-04-09 15h09.20.843881 +0100,
cube_r.png,0.1,-0.31,invalid,33,33,0,up,1.2798158999976295,None,space,0.4670141999995394,None,,,,,0,33,33,33,,,,,229.80365220000022,,,,,,,,,,,,,229.78807020000022,229.80365220000022,229.80365220000022,229.80365220000022,231.0863236999976,,,,231.0924331999995,231.10410359999878,231.10410359999878,231.15227839999716,231.15277729999798,231.16870339999878,231.16870339999878,231.16870339999878,231.25194550000015,231.65335659999982,,,,,,,,up,1.2798158999976295,None,space,0.4670141999995394,None,,,,,,,,,,,,,,,P146,001,2025-04-09_15h09.12.980,posner_endo_new1,2024.2.4,60.07402321032092,2025-04-09 15h09.20.843881 +0100,
cube_r.png,0.1,10,catch,34,34,0,up,7.503470200001175,None,None,,,,,,,0,34,34,34,,,,,231.66823899999872,,,,,,,,,,,,,231.65379269999903,231.66823899999872,231.66823899999872,231.66823899999872,239.17857340000046,,,,239.1892592999975,239.19893409999713,239.19893409999713,239.24407439999777,239.24431790000017,239.26063280000017,239.26063280000017,239.26063280000017,239.343928899998,242.25824689999718,,,,241.35847590000049,242.27415649999966,242.27415649999966,242.27415649999966,up,7.503470200001175,None,None,,,,,,,,,,,,,,,,,P146,001,2025-04-09_15h09.12.980,posner_endo_new1,2024.2.4,60.07402321032092,2025-04-09 15h09.20.843881 +0100,
cube_r.png,0.1,0.31,valid,35,35,0,up,4.625970900000539,None,space,0.35312290000001667,None,,,,,0,35,35,35,,,,,242.27415649999966,,,,,,,,,,,,,242.25841690000016,242.27415649999966,242.27415649999966,242.27415649999966,246.9038600999993,,,,246.91086240000004,246.92251249999754,246.92251249999754,246.96949559999848,246.96971819999817,246.98617349999768,246.98617349999768,246.98617349999768,247.06939929999862,247.35295819999737,,,,,,,,up,4.625970900000539,None,space,0.35312290000001667,None,,,,,,,,,,,,,,,P146,001,2025-04-09_15h09.12.980,posner_endo_new1,2024.2.4,60.07402321032092,2025-04-09 15h09.20.843881 +0100,
cube_r.png,0.1,-0.31,invalid,36,36,0,up,1.0750650000009045,None,space,0.4245708000016748,None,,,,,0,36,36,36,,,,,247.36896329999945,,,,,,,,,,,,,247.3531280999996,247.36896329999945,247.36896329999945,247.36896329999945,248.451771,,,,248.45947650000016,248.47083159999966,248.47083159999966,248.51804679999987,248.51859639999748,248.53440860000046,248.53440860000046,248.53440860000046,248.6009993000007,248.9692350999976,,,,,,,,up,1.0750650000009045,None,space,0.4245708000016748,None,,,,,,,,,,,,,,,P146,001,2025-04-09_15h09.12.980,posner_endo_new1,2024.2.4,60.07402321032092,2025-04-09 15h09.20.843881 +0100,
cube_l.png,0.1,0.31,invalid,37,37,0,up,4.011577400000533,None,space,0.42748260000007576,None,,,,,0,37,37,37,,,,,248.98398309999902,,,,,,,,,,,,,248.96971969999868,248.98398309999902,248.98398309999902,248.98398309999902,252.99861579999924,,,,253.01719550000053,253.02756790000058,253.02756790000058,253.06340249999994,253.0637457999983,253.07988209999894,253.07988209999894,253.07988209999894,253.16307439999946,253.5139898999987,,,,,,,,up,4.011577400000533,None,space,0.42748260000007576,None,,,,,,,,,,,,,,,P146,001,2025-04-09_15h09.12.980,posner_endo_new1,2024.2.4,60.07402321032092,2025-04-09 15h09.20.843881 +0100,
cube_l.png,0.1,0.31,invalid,38,38,0,up,1.3064454000013939,None,space,0.4276255000004312,None,,,,,0,38,38,38,,,,,253.5294103999986,,,,,,,,,,,,,253.51427999999942,253.5294103999986,253.5294103999986,253.5294103999986,254.8458998999995,,,,254.85760709999886,254.86790619999738,254.86790619999738,254.91156939999928,254.91191199999957,254.92803139999887,254.92803139999887,254.92803139999887,255.01135019999856,255.36201599999913,,,,,,,,up,1.3064454000013939,None,space,0.4276255000004312,None,,,,,,,,,,,,,,,P146,001,2025-04-09_15h09.12.980,posner_endo_new1,2024.2.4,60.07402321032092,2025-04-09 15h09.20.843881 +0100,
cube_r.png,0.1,0.31,valid,39,39,0,up,1.2185376999987056,None,space,0.3674669000029098,None,,,,,0,39,39,39,,,,,255.37759679999726,,,,,,,,,,,,,255.3622988999996,255.37759679999726,255.37759679999726,255.37759679999726,256.6107484999993,,,,256.62035399999877,256.6299720999996,256.6299720999996,256.6764207999986,256.6766734999983,256.6929549999986,256.6929549999986,256.6929549999986,256.7761342999984,257.07692920000045,,,,,,,,up,1.2185376999987056,None,space,0.3674669000029098,None,,,,,,,,,,,,,,,P146,001,2025-04-09_15h09.12.980,posner_endo_new1,2024.2.4,60.07402321032092,2025-04-09 15h09.20.843881 +0100,
cube_l.png,0.1,0.31,invalid,40,40,0,up,3.5112049999988812,None,space,0.34971439999935683,None,,,,,0,40,40,40,,,,,257.0925234999995,,,,,,,,,,,,,257.07711149999886,257.0925234999995,257.0925234999995,257.0925234999995,260.60636859999795,,,,260.6134205999988,260.62511839999934,260.62511839999934,260.6722798999981,260.67249869999796,260.68887600000016,260.68887600000016,260.68887600000016,260.7721509999974,261.03931699999885,,,,,,,,up,3.5112049999988812,None,space,0.34971439999935683,None,,,,,,,,,,,,,,,P146,001,2025-04-09_15h09.12.980,posner_endo_new1,2024.2.4,60.07402321032092,2025-04-09 15h09.20.843881 +0100,
cube_l.png,0.1,10,catch,41,41,0,up,7.077437799998734,None,None,,,,,,,0,41,41,41,,,,,261.05514419999963,,,,,,,,,,,,,261.0394850999983,261.05514419999963,261.05514419999963,261.05514419999963,268.1489924999987,,,,268.1605157999984,268.1705903999973,268.1705903999973,268.21456129999933,268.21490229999836,268.2310547999987,268.2310547999987,268.2310547999987,268.3144080999991,271.2287424999995,,,,270.3289947999983,271.2446577999981,271.2446577999981,271.2446577999981,up,7.077437799998734,None,None,,,,,,,,,,,,,,,,,P146,001,2025-04-09_15h09.12.980,posner_endo_new1,2024.2.4,60.07402321032092,2025-04-09 15h09.20.843881 +0100,
cube_l.png,0.1,-0.31,valid,42,42,0,up,1.3112259000008635,None,space,0.47735430000102497,None,,,,,0,42,42,42,,,,,271.2446577999981,,,,,,,,,,,,,271.2290099999991,271.2446577999981,271.2446577999981,271.2446577999981,272.56124219999765,,,,272.57281839999996,272.5829806999973,272.5829806999973,272.6268104999981,272.6271489999999,272.6432367999987,272.6432367999987,272.6432367999987,272.7264918999972,273.12727799999993,,,,,,,,up,1.3112259000008635,None,space,0.47735430000102497,None,,,,,,,,,,,,,,,P146,001,2025-04-09_15h09.12.980,posner_endo_new1,2024.2.4,60.07402321032092,2025-04-09 15h09.20.843881 +0100,
cube_l.png,0.1,10,catch,43,43,0,up,6.861720600001718,None,None,,,,,,,0,43,43,43,,,,,273.1427444000001,,,,,,,,,,,,,273.1275676000005,273.1427444000001,273.1427444000001,273.1427444000001,280.02019499999733,,,,280.0318124000005,280.0420935000002,280.0420935000002,280.08579909999753,280.0861389999991,280.1022630000007,280.1022630000007,280.1022630000007,280.18557149999833,283.1000172999993,,,,282.20019390000016,283.11603569999716,283.11603569999716,283.11603569999716,up,6.861720600001718,None,None,,,,,,,,,,,,,,,,,P146,001,2025-04-09_15h09.12.980,posner_endo_new1,2024.2.4,60.07402321032092,2025-04-09 15h09.20.843881 +0100,
cube_l.png,0.1,0.31,invalid,44,44,0,up,1.007943200002046,None,space,0.5679481999977725,None,,,,,0,44,44,44,,,,,283.11603569999716,,,,,,,,,,,,,283.1002862999994,283.11603569999716,283.11603569999716,283.11603569999716,284.1328250999977,,,,284.1442394000005,284.15449889999945,284.15449889999945,284.19805389999965,284.1983947999979,284.2146694999974,284.2146694999974,284.2146694999974,284.2979529000004,284.79864689999886,,,,,,,,up,1.007943200002046,None,space,0.5679481999977725,None,,,,,,,,,,,,,,,P146,001,2025-04-09_15h09.12.980,posner_endo_new1,2024.2.4,60.07402321032092,2025-04-09 15h09.20.843881 +0100,
cube_l.png,0.1,0.31,invalid,45,45,0,up,6.630201800002396,None,space,0.42545650000101887,None,,,,,0,45,45,45,,,,,284.814117599999,,,,,,,,,,,,,284.79893230000016,284.814117599999,284.814117599999,284.814117599999,291.45863090000057,,,,291.470147,291.48038859999724,291.48038859999724,291.52415349999865,291.5244977000002,291.54051999999865,291.54051999999865,291.54051999999865,291.62397919999785,291.9746529999975,,,,,,,,up,6.630201800002396,None,space,0.42545650000101887,None,,,,,,,,,,,,,,,P146,001,2025-04-09_15h09.12.980,posner_endo_new1,2024.2.4,60.07402321032092,2025-04-09 15h09.20.843881 +0100,
cube_r.png,0.1,0.31,valid,46,46,0,up,4.325682200000301,None,space,0.38931049999882816,None,,,,,0,46,46,46,,,,,291.99013939999713,,,,,,,,,,,,,291.97493869999744,291.99013939999713,291.99013939999713,291.99013939999713,296.3203085999994,,,,296.331826499998,296.34207779999997,296.34207779999997,296.38579539999773,296.3861367999998,296.402315299998,296.402315299998,296.402315299998,296.4856196999972,296.80301730000065,,,,,,,,up,4.325682200000301,None,space,0.38931049999882816,None,,,,,,,,,,,,,,,P146,001,2025-04-09_15h09.12.980,posner_endo_new1,2024.2.4,60.07402321032092,2025-04-09 15h09.20.843881 +0100,
cube_l.png,0.1,-0.31,valid,47,47,0,up,3.377482700001565,None,space,0.4010430999987875,None,,,,,0,47,47,47,,,,,296.81843089999893,,,,,,,,,,,,,296.80329770000026,296.81843089999893,296.81843089999893,296.81843089999893,300.19975109999723,,,,300.2100993999993,300.21973389999766,300.21973389999766,300.26527010000063,300.26552269999956,300.28162379999776,300.28162379999776,300.28162379999776,300.36498109999957,300.6988992999977,,,,,,,,up,3.377482700001565,None,space,0.4010430999987875,None,,,,,,,,,,,,,,,P146,001,2025-04-09_15h09.12.980,posner_endo_new1,2024.2.4,60.07402321032092,2025-04-09 15h09.20.843881 +0100,
cube_r.png,0.1,-0.31,invalid,48,48,0,up,4.049318900000799,None,space,0.4969074000000546,None,,,,,0,48,48,48,,,,,300.7146728999978,,,,,,,,,,,,,300.6990896999996,300.7146728999978,300.7146728999978,300.7146728999978,304.7777298999972,,,,304.7850613999981,304.79672089999804,304.79672089999804,304.84387659999993,304.8441267999988,304.8604411999986,304.8604411999986,304.8604411999986,304.9269029999996,305.3604787000004,,,,,,,,up,4.049318900000799,None,space,0.4969074000000546,None,,,,,,,,,,,,,,,P146,001,2025-04-09_15h09.12.980,posner_endo_new1,2024.2.4,60.07402321032092,2025-04-09 15h09.20.843881 +0100,
cube_r.png,0.1,10,catch,49,49,0,up,1.3472113000025274,None,None,,,,,,,0,49,49,49,,,,,305.37642760000017,,,,,,,,,,,,,305.3606672999995,305.37642760000017,305.37642760000017,305.37642760000017,306.7259798999985,,,,306.733358999998,306.7446934999971,306.7446934999971,306.79188710000017,306.7921314999985,306.8081955999987,306.8081955999987,306.8081955999987,306.89143559999866,309.8056388999976,,,,308.90623140000025,309.8220430000001,309.8220430000001,309.8220430000001,up,1.3472113000025274,None,None,,,,,,,,,,,,,,,,,P146,001,2025-04-09_15h09.12.980,posner_endo_new1,2024.2.4,60.07402321032092,2025-04-09 15h09.20.843881 +0100,
cube_l.png,0.1,-0.31,valid,50,50,0,up,1.8300597999987076,None,space,0.44721109999954933,None,,,,,0,50,50,50,,,,,309.8220430000001,,,,,,,,,,,,,309.80582109999887,309.8220430000001,309.8220430000001,309.8220430000001,311.6543911999979,,,,311.6617585999993,311.6726896,311.6726896,311.7201247999983,311.7204688999991,311.7366951999975,311.7366951999975,311.7366951999975,311.8198384999996,312.18750849999924,,,,,,,,up,1.8300597999987076,None,space,0.44721109999954933,None,,,,,,,,,,,,,,,P146,001,2025-04-09_15h09.12.980,posner_endo_new1,2024.2.4,60.07402321032092,2025-04-09 15h09.20.843881 +0100,
cube_l.png,0.1,-0.31,valid,51,51,0,up,4.905437400000665,None,space,0.3780824000023131,None,,,,,0,51,51,51,,,,,312.20275480000055,,,,,,,,,,,,,312.18778819999716,312.20275480000055,312.20275480000055,312.20275480000055,317.11567939999804,,,,317.1273050999989,317.13755749999837,317.13755749999837,317.1813430999973,317.18158609999955,317.1977415000001,317.1977415000001,317.1977415000001,317.28089980000004,317.58143389999896,,,,,,,,up,4.905437400000665,None,space,0.3780824000023131,None,,,,,,,,,,,,,,,P146,001,2025-04-09_15h09.12.980,posner_endo_new1,2024.2.4,60.07402321032092,2025-04-09 15h09.20.843881 +0100,
cube_r.png,0.1,-0.31,invalid,52,52,0,up,1.4625090999979875,None,space,0.5773719000026176,None,,,,,0,52,52,52,,,,,317.5973226999995,,,,,,,,,,,,,317.5816285999972,317.5973226999995,317.5973226999995,317.5973226999995,319.063354599999,,,,319.0707532999986,319.09375459999865,319.09375459999865,319.1293540999977,319.12959749999936,319.1458230999997,319.1458230999997,319.1458230999997,319.2290761999975,319.7292998999983,,,,,,,,up,1.4625090999979875,None,space,0.5773719000026176,None,,,,,,,,,,,,,,,P146,001,2025-04-09_15h09.12.980,posner_endo_new1,2024.2.4,60.07402321032092,2025-04-09 15h09.20.843881 +0100,
cube_l.png,0.1,-0.31,valid,53,53,0,up,1.1870364999995218,None,space,0.48452569999790285,None,,,,,0,53,53,53,,,,,319.7452014999981,,,,,,,,,,,,,319.72949159999916,319.7452014999981,319.7452014999981,319.7452014999981,320.9447612999975,,,,320.95204939999894,320.9634823999986,320.9634823999986,321.01050459999897,321.01075990000027,321.02696920000017,321.02696920000017,321.02696920000017,321.09365609999804,321.5274122999981,,,,,,,,up,1.1870364999995218,None,space,0.48452569999790285,None,,,,,,,,,,,,,,,P146,001,2025-04-09_15h09.12.980,posner_endo_new1,2024.2.4,60.07402321032092,2025-04-09 15h09.20.843881 +0100,
cube_r.png,0.1,10,catch,54,54,0,up,1.4607608000005712,None,None,,,,,,,0,54,54,54,,,,,321.54329979999966,,,,,,,,,,,,,321.5276073999994,321.54329979999966,321.54329979999966,321.54329979999966,323.0091771999978,,,,323.0164775999983,323.0283812999987,323.0283812999987,323.07549039999867,323.0757324999977,323.09154359999957,323.09154359999957,323.09154359999957,323.15835270000025,326.08922019999955,,,,325.17283309999766,326.1053847000003,326.1053847000003,326.1053847000003,up,1.4607608000005712,None,None,,,,,,,,,,,,,,,,,P146,001,2025-04-09_15h09.12.980,posner_endo_new1,2024.2.4,60.07402321032092,2025-04-09 15h09.20.843881 +0100,
cube_l.png,0.1,0.31,invalid,55,55,0,up,1.4600749999990512,None,space,0.32079869999870425,None,,,,,0,55,55,55,,,,,326.1053847000003,,,,,,,,,,,,,326.08939859999737,326.1053847000003,326.1053847000003,326.1053847000003,327.5714666999993,,,,327.5788140000004,327.5901494999998,327.5901494999998,327.6370876999972,327.6373289999974,327.65376529999776,327.65376529999776,327.65376529999776,327.7370434999975,327.9873764999975,,,,,,,,up,1.4600749999990512,None,space,0.32079869999870425,None,,,,,,,,,,,,,,,P146,001,2025-04-09_15h09.12.980,posner_endo_new1,2024.2.4,60.07402321032092,2025-04-09 15h09.20.843881 +0100,
cube_l.png,0.1,-0.31,valid,56,56,0,up,2.4821785999993153,None,space,0.3419473000030848,None,,,,,0,56,56,56,,,,,328.0031839000003,,,,,,,,,,,,,327.9875675000003,328.0031839000003,328.0031839000003,328.0031839000003,330.50169099999766,,,,330.5089960000005,330.52047929999753,330.52047929999753,330.56763059999867,330.56787669999903,330.58392749999985,330.58392749999985,330.58392749999985,330.6675273999972,330.9345145999978,,,,,,,,up,2.4821785999993153,None,space,0.3419473000030848,None,,,,,,,,,,,,,,,P146,001,2025-04-09_15h09.12.980,posner_endo_new1,2024.2.4,60.07402321032092,2025-04-09 15h09.20.843881 +0100,
cube_r.png,0.1,0.31,valid,57,57,0,up,1.3899600999975519,None,space,0.40521930000249995,None,,,,,0,57,57,57,,,,,330.950302199999,,,,,,,,,,,,,330.93470499999967,330.950302199999,330.950302199999,330.950302199999,332.3498331999981,,,,332.3571508999994,332.36855809999906,332.36855809999906,332.41567369999757,332.4159146999991,332.4322519999987,332.4322519999987,332.4322519999987,332.49881569999707,332.8493199000004,,,,,,,,up,1.3899600999975519,None,space,0.40521930000249995,None,,,,,,,,,,,,,,,P146,001,2025-04-09_15h09.12.980,posner_endo_new1,2024.2.4,60.07402321032092,2025-04-09 15h09.20.843881 +0100,
cube_r.png,0.1,-0.31,invalid,58,58,0,up,3.394524299998011,None,space,0.385648499999661,None,,,,,0,58,58,58,,,,,332.8652062000001,,,,,,,,,,,,,332.8495143,332.8652062000001,332.8652062000001,332.8652062000001,336.26245709999785,,,,336.2697826000003,336.28117719999864,336.28117719999864,336.3283529,336.32859619999726,336.34485270000005,336.34485270000005,336.34485270000005,336.4280703999975,336.74523399999816,,,,,,,,up,3.394524299998011,None,space,0.385648499999661,None,,,,,,,,,,,,,,,P146,001,2025-04-09_15h09.12.980,posner_endo_new1,2024.2.4,60.07402321032092,2025-04-09 15h09.20.843881 +0100,
cube_l.png,0.1,0.31,invalid,59,59,0,up,7.420565500000521,None,space,0.3413086000000476,None,,,,,0,59,59,59,,,,,336.7608340000006,,,,,,,,,,,,,336.7454238999999,336.7608340000006,336.7608340000006,336.7608340000006,344.18768569999884,,,,344.19505840000056,344.20629349999945,344.20629349999945,344.25353379999797,344.25378609999825,344.2699384000007,344.2699384000007,344.2699384000007,344.3534550999975,344.6203327000003,,,,,,,,up,7.420565500000521,None,space,0.3413086000000476,None,,,,,,,,,,,,,,,P146,001,2025-04-09_15h09.12.980,posner_endo_new1,2024.2.4,60.07402321032092,2025-04-09 15h09.20.843881 +0100,
,,,,,,,,,,,,,,,,,,,,,,,,,,,,,,,,,,,,,,,,,,,,,,,,,,,,,,,,,,,,,,,,,,,,,344.6204579000005,344.6364401999999,344.6364401999999,404.6415369999995,409.4382286999971,space,64.78436630000215,None,,,,,,,P146,001,2025-04-09_15h09.12.980,posner_endo_new1,2024.2.4,60.07402321032092,2025-04-09 15h09.20.843881 +0100,
,,,,,,,,,,,,,,,,,,,,,,,,,,,,,,,,,,409.438349,409.4533049999991,412.5288615999998,412.43444109999837,,,,,,,,,,,,,,,,,,,,,,,,,,,,,,,,,,,,,,,,,,,,,,P146,001,2025-04-09_15h09.12.980,posner_endo_new1,2024.2.4,60.07402321032092,2025-04-09 15h09.20.843881 +0100,
cube_l.png,0.1,10,catch,0,0,0,down,6.707479600001534,None,None,,,,,,,,,,,0,0,0,0,412.5288615999998,,,,,,,,,,,,,412.5206822,412.5288615999998,412.5288615999998,412.5288615999998,419.24475339999844,,,,419.25671279999733,419.2669662999979,419.2669662999979,419.31037119999746,419.31071370000063,419.326803699998,419.326803699998,419.326803699998,419.41007790000003,422.3245358999993,,,,421.42479269999967,422.34036600000036,422.34036600000036,422.34036600000036,,,,,,,,,,,,,,,down,6.707479600001534,None,None,,,P146,001,2025-04-09_15h09.12.980,posner_endo_new1,2024.2.4,60.07402321032092,2025-04-09 15h09.20.843881 +0100,
cube_l.png,0.1,10,catch,1,1,0,down,0.7277429999994638,None,None,,,,,,,,,,,0,1,1,1,422.34036600000036,,,,,,,,,,,,,422.3248045,422.34036600000036,422.34036600000036,422.34036600000036,423.0741423999971,,,,423.08547270000054,423.0958185999989,423.0958185999989,423.1397055999987,423.14004790000035,423.15629179999814,423.15629179999814,423.15629179999814,423.2394426999999,426.15386749999743,,,,425.2541012999973,426.1696763999971,426.1696763999971,426.1696763999971,,,,,,,,,,,,,,,down,0.7277429999994638,None,None,,,P146,001,2025-04-09_15h09.12.980,posner_endo_new1,2024.2.4,60.07402321032092,2025-04-09 15h09.20.843881 +0100,
cube_l.png,0.1,0.31,invalid,2,2,0,down,3.1960881000013615,None,space,0.5306263999991643,None,,,,,,,,,0,2,2,2,426.1696763999971,,,,,,,,,,,,,426.1541373999971,426.1696763999971,426.1696763999971,426.1696763999971,429.3678489999984,,,,429.37935350000043,429.3897586999992,429.3897586999992,429.4332648999989,429.43360810000013,429.44981519999783,429.44981519999783,429.44981519999783,429.5330101999971,429.9836835999995,,,,,,,,,,,,,,,,,,,,,,down,3.1960881000013615,None,space,0.5306263999991643,None,P146,001,2025-04-09_15h09.12.980,posner_endo_new1,2024.2.4,60.07402321032092,2025-04-09 15h09.20.843881 +0100,
cube_l.png,0.1,0.31,invalid,3,3,0,down,4.6293068999984825,None,space,0.43545330000051763,None,,,,,,,,,0,3,3,3,429.99913639999795,,,,,,,,,,,,,429.98397289999775,429.99913639999795,429.99913639999795,429.99913639999795,434.64562699999806,,,,434.6571226999986,434.66724859999886,434.66724859999886,434.71116939999774,434.71151330000066,434.7277211999972,434.7277211999972,434.7277211999972,434.8109674999978,435.17841279999993,,,,,,,,,,,,,,,,,,,,,,down,4.6293068999984825,None,space,0.43545330000051763,None,P146,001,2025-04-09_15h09.12.980,posner_endo_new1,2024.2.4,60.07402321032092,2025-04-09 15h09.20.843881 +0100,
cube_l.png,0.1,-0.31,valid,4,4,0,down,3.714100799999869,None,space,0.42023170000175014,None,,,,,,,,,0,4,4,4,435.1939302999999,,,,,,,,,,,,,435.17870299999777,435.1939302999999,435.1939302999999,435.1939302999999,438.92466019999847,,,,438.93600549999974,438.9460928999979,438.9460928999979,438.9902441999984,438.9905832999975,439.0067257999981,439.0067257999981,439.0067257999981,439.0900451999987,439.4407742000003,,,,,,,,,,,,,,,,,,,,,,down,3.714100799999869,None,space,0.42023170000175014,None,P146,001,2025-04-09_15h09.12.980,posner_endo_new1,2024.2.4,60.07402321032092,2025-04-09 15h09.20.843881 +0100,
cube_r.png,0.1,-0.31,invalid,5,5,0,down,4.140411599997606,None,space,0.3722636999991664,None,,,,,,,,,0,5,5,5,439.456195499999,,,,,,,,,,,,,439.4410663999988,439.456195499999,439.456195499999,439.456195499999,443.6030852999975,,,,443.6115858999983,443.6216339999992,443.6216339999992,443.6687830999981,443.66902539999865,443.6850736999986,443.6850736999986,443.6850736999986,443.768377299999,444.06905579999875,,,,,,,,,,,,,,,,,,,,,,down,4.140411599997606,None,space,0.3722636999991664,None,P146,001,2025-04-09_15h09.12.980,posner_endo_new1,2024.2.4,60.07402321032092,2025-04-09 15h09.20.843881 +0100,
cube_r.png,0.1,0.31,valid,6,6,0,down,3.431132100002287,None,space,0.3846386999975948,None,,,,,,,,,0,6,6,6,444.08482549999826,,,,,,,,,,,,,444.0692511999987,444.08482549999826,444.08482549999826,444.08482549999826,447.5321573000001,,,,447.5395237999983,447.5508606000003,447.5508606000003,447.59816259999934,447.5984095999993,447.61454749999757,447.61454749999757,447.61454749999757,447.6980051999999,448.01493409999966,,,,,,,,,,,,,,,,,,,,,,down,3.431132100002287,None,space,0.3846386999975948,None,P146,001,2025-04-09_15h09.12.980,posner_endo_new1,2024.2.4,60.07402321032092,2025-04-09 15h09.20.843881 +0100,
cube_r.png,0.1,-0.31,invalid,7,7,0,down,3.0292105999978958,None,space,0.3549540000021807,None,,,,,,,,,0,7,7,7,448.0307596999992,,,,,,,,,,,,,448.0151373999979,448.0307596999992,448.0307596999992,448.0307596999992,451.0620433999975,,,,451.06935469999735,451.0809492999979,451.0809492999979,451.12767899999744,451.1281796999974,451.1440978999999,451.1440978999999,451.1440978999999,451.22737029999917,451.5121364999977,,,,,,,,,,,,,,,,,,,,,,down,3.0292105999978958,None,space,0.3549540000021807,None,P146,001,2025-04-09_15h09.12.980,posner_endo_new1,2024.2.4,60.07402321032092,2025-04-09 15h09.20.843881 +0100,
cube_l.png,0.1,-0.31,valid,8,8,0,down,3.44555930000206,None,space,0.30945430000065244,None,,,,,,,,,0,8,8,8,451.52709029999824,,,,,,,,,,,,,451.5125631999981,451.52709029999824,451.52709029999824,451.52709029999824,454.97499809999863,,,,454.9865658999988,454.9968111999988,454.9968111999988,455.04053489999933,455.0408709000003,455.05695209999976,455.05695209999976,455.05695209999976,455.1401831000003,455.3745689999996,,,,,,,,,,,,,,,,,,,,,,down,3.44555930000206,None,space,0.30945430000065244,None,P146,001,2025-04-09_15h09.12.980,posner_endo_new1,2024.2.4,60.07402321032092,2025-04-09 15h09.20.843881 +0100,
cube_r.png,0.1,-0.31,invalid,9,9,0,down,3.5505775999990874,None,space,0.37394619999759016,None,,,,,,,,,0,9,9,9,455.3899563999985,,,,,,,,,,,,,455.3748584999994,455.3899563999985,455.3899563999985,455.3899563999985,458.9542303999988,,,,458.9657010999981,458.9760783999991,458.9760783999991,459.0197401999976,459.02007779999985,459.03628409999874,459.03628409999874,459.03628409999874,459.11960129999716,459.4204796999984,,,,,,,,,,,,,,,,,,,,,,down,3.5505775999990874,None,space,0.37394619999759016,None,P146,001,2025-04-09_15h09.12.980,posner_endo_new1,2024.2.4,60.07402321032092,2025-04-09 15h09.20.843881 +0100,
cube_l.png,0.1,0.31,invalid,10,10,0,down,3.6244259999984934,None,space,0.3252558999993198,None,,,,,,,,,0,10,10,10,459.4358510999991,,,,,,,,,,,,,459.4207771000001,459.4358510999991,459.4358510999991,459.4358510999991,463.06657119999727,,,,463.07793129999845,463.0882368999992,463.0882368999992,463.13236289999986,463.13269899999796,463.14869589999944,463.14869589999944,463.14869589999944,463.2318602999985,463.4829067999999,,,,,,,,,,,,,,,,,,,,,,down,3.6244259999984934,None,space,0.3252558999993198,None,P146,001,2025-04-09_15h09.12.980,posner_endo_new1,2024.2.4,60.07402321032092,2025-04-09 15h09.20.843881 +0100,
cube_r.png,0.1,-0.31,invalid,11,11,0,down,4.482038800000737,None,space,0.3229643999984546,None,,,,,,,,,0,11,11,11,463.4983711999994,,,,,,,,,,,,,463.48319699999774,463.4983711999994,463.4983711999994,463.4983711999994,467.99489849999736,,,,468.00662459999876,468.01692659999753,468.01692659999753,468.06060589999834,468.0609444999973,468.0771703999999,468.0771703999999,468.0771703999999,468.16033210000023,468.4111503999993,,,,,,,,,,,,,,,,,,,,,,down,4.482038800000737,None,space,0.3229643999984546,None,P146,001,2025-04-09_15h09.12.980,posner_endo_new1,2024.2.4,60.07402321032092,2025-04-09 15h09.20.843881 +0100,
cube_r.png,0.1,0.31,valid,12,12,0,down,3.9213206000022183,None,space,0.3274823000028846,None,,,,,,,,,0,12,12,12,468.4265960999983,,,,,,,,,,,,,468.41143889999876,468.4265960999983,468.4265960999983,468.4265960999983,472.3571297999988,,,,472.3687078999974,472.3790356999998,472.3790356999998,472.4228054999985,472.4231441999982,472.4392450999985,472.4392450999985,472.4392450999985,472.52239220000047,472.7733939999998,,,,,,,,,,,,,,,,,,,,,,down,3.9213206000022183,None,space,0.3274823000028846,None,P146,001,2025-04-09_15h09.12.980,posner_endo_new1,2024.2.4,60.07402321032092,2025-04-09 15h09.20.843881 +0100,
cube_l.png,0.1,10,catch,13,13,0,down,3.3116399999998976,None,None,,,,,,,,,,,0,13,13,13,472.7888932999995,,,,,,,,,,,,,472.7736956999979,472.7888932999995,472.7888932999995,472.7888932999995,476.1033333999985,,,,476.1147730999983,476.1250516,476.1250516,476.16889939999965,476.1692382000001,476.1853833999994,476.1853833999994,476.1853833999994,476.26866229999723,479.18304649999845,,,,478.2831344999977,479.19902509999883,479.19902509999883,479.19902509999883,,,,,,,,,,,,,,,down,3.3116399999998976,None,None,,,P146,001,2025-04-09_15h09.12.980,posner_endo_new1,2024.2.4,60.07402321032092,2025-04-09 15h09.20.843881 +0100,
cube_r.png,0.1,-0.31,invalid,14,14,0,down,3.9098468999982288,None,space,0.5877511000035156,None,,,,,,,,,0,14,14,14,479.19902509999883,,,,,,,,,,,,,479.18332960000043,479.19902509999883,479.19902509999883,479.19902509999883,483.1130099000002,,,,483.1218100999977,483.1316646999985,483.1316646999985,483.1783538999989,483.1785988999982,483.1948416999985,483.1948416999985,483.1948416999985,483.27799609999784,483.7951295999992,,,,,,,,,,,,,,,,,,,,,,down,3.9098468999982288,None,space,0.5877511000035156,None,P146,001,2025-04-09_15h09.12.980,posner_endo_new1,2024.2.4,60.07402321032092,2025-04-09 15h09.20.843881 +0100,
cube_l.png,0.1,-0.31,valid,15,15,0,down,3.8909148999991885,None,space,0.4118887000004179,None,,,,,,,,,0,15,15,15,483.8109521999977,,,,,,,,,,,,,483.79532689999905,483.8109521999977,483.8109521999977,483.8109521999977,487.7079386000005,,,,487.71528079999916,487.7266973000005,487.7266973000005,487.77362899999935,487.77387309999904,487.7902744999992,487.7902744999992,487.7902744999992,487.8735343999979,488.2072287999981,,,,,,,,,,,,,,,,,,,,,,down,3.8909148999991885,None,space,0.4118887000004179,None,P146,001,2025-04-09_15h09.12.980,posner_endo_new1,2024.2.4,60.07402321032092,2025-04-09 15h09.20.843881 +0100,
cube_r.png,0.1,10,catch,16,16,0,down,3.9337132000000565,None,space,0.2960275000004913,None,,,,,,,,,0,16,16,16,488.22314929999993,,,,,,,,,,,,,488.20742959999916,488.22314929999993,488.22314929999993,488.22314929999993,492.16979899999933,,,,492.17709990000003,492.1888687999999,492.1888687999999,492.2359288999978,492.2361753999976,492.25244499999826,492.25244499999826,492.25244499999826,492.3190355000006,492.55307139999786,,,,,,,,,,,,,,,,,,,,,,down,3.9337132000000565,None,space,0.2960275000004913,None,P146,001,2025-04-09_15h09.12.980,posner_endo_new1,2024.2.4,60.07402321032092,2025-04-09 15h09.20.843881 +0100,
cube_r.png,0.1,10,catch,17,17,0,down,3.7479209000011906,None,None,,,,,,,,,,,0,17,17,17,492.5688384999994,,,,,,,,,,,,,492.55326649999915,492.5688384999994,492.5688384999994,492.5688384999994,496.33225709999897,,,,496.3396275999985,496.35125549999793,496.35125549999793,496.39811199999895,496.39835719999974,496.41484819999823,496.41484819999823,496.41484819999823,496.4813127999987,499.4121163999989,,,,498.49605729999894,499.4282506999989,499.4282506999989,499.4282506999989,,,,,,,,,,,,,,,down,3.7479209000011906,None,None,,,P146,001,2025-04-09_15h09.12.980,posner_endo_new1,2024.2.4,60.07402321032092,2025-04-09 15h09.20.843881 +0100,
cube_l.png,0.1,0.31,invalid,18,18,0,down,0.632442500002071,None,space,0.35280670000065584,None,,,,,,,,,0,18,18,18,499.4282506999989,,,,,,,,,,,,,499.41230369999903,499.4282506999989,499.4282506999989,499.4282506999989,500.0618364999973,,,,500.0691874999975,500.08128679999936,500.08128679999936,500.1277087999988,500.12796249999883,500.14446399999724,500.14446399999724,500.14446399999724,500.2109135999999,500.51150079999934,,,,,,,,,,,,,,,,,,,,,,down,0.632442500002071,None,space,0.35280670000065584,None,P146,001,2025-04-09_15h09.12.980,posner_endo_new1,2024.2.4,60.07402321032092,2025-04-09 15h09.20.843881 +0100,
cube_l.png,0.1,10,catch,19,19,0,down,3.901081299998623,None,None,,,,,,,,,,,0,19,19,19,500.52723200000037,,,,,,,,,,,,,500.511703199998,500.52723200000037,500.52723200000037,500.52723200000037,504.44064810000054,,,,504.4479616999997,504.45960099999866,504.45960099999866,504.5064889999994,504.50673259999894,504.52294690000053,504.52294690000053,504.52294690000053,504.58969849999994,507.52066719999857,,,,506.6043193999976,507.53683159999855,507.53683159999855,507.53683159999855,,,,,,,,,,,,,,,down,3.901081299998623,None,None,,,P146,001,2025-04-09_15h09.12.980,posner_endo_new1,2024.2.4,60.07402321032092,2025-04-09 15h09.20.843881 +0100,
cube_l.png,0.1,0.31,invalid,20,20,0,down,0.07537990000128048,None,space,0.4982670999997936,None,,,,,,,,,0,20,20,20,507.53683159999855,,,,,,,,,,,,,507.5208533999976,507.53683159999855,507.53683159999855,507.53683159999855,507.62084369999866,,,,507.6281730999981,507.6396543999981,507.6396543999981,507.6865555000004,507.68679989999873,507.7032115000002,507.7032115000002,507.7032115000002,507.7863892999994,508.2037096999993,,,,,,,,,,,,,,,,,,,,,,down,0.07537990000128048,None,space,0.4982670999997936,None,P146,001,2025-04-09_15h09.12.980,posner_endo_new1,2024.2.4,60.07402321032092,2025-04-09 15h09.20.843881 +0100,
cube_l.png,0.1,-0.31,valid,21,21,0,down,4.177330800001073,None,space,0.5226768000029551,None,,,,,,,,,0,21,21,21,508.2193664000006,,,,,,,,,,,,,508.20390679999764,508.2193664000006,508.2193664000006,508.2193664000006,512.3993807000006,,,,512.4067118999992,512.4181215999997,512.4181215999997,512.465064699998,512.465307399998,512.4816365000006,512.4816365000006,512.4816365000006,512.5649673999978,513.0153610999987,,,,,,,,,,,,,,,,,,,,,,down,4.177330800001073,None,space,0.5226768000029551,None,P146,001,2025-04-09_15h09.12.980,posner_endo_new1,2024.2.4,60.07402321032092,2025-04-09 15h09.20.843881 +0100,
cube_r.png,0.1,0.31,valid,22,22,0,down,2.49378649999926,None,space,0.3645041999989189,None,,,,,,,,,0,22,22,22,513.0310777999985,,,,,,,,,,,,,513.0155621999984,513.0310777999985,513.0310777999985,513.0310777999985,515.5292340999986,,,,515.5351764999978,515.5468442999991,515.5468442999991,515.5952182000001,515.5954461000001,515.6118671999975,515.6118671999975,515.6118671999975,515.6781725000001,515.9789060999974,,,,,,,,,,,,,,,,,,,,,,down,2.49378649999926,None,space,0.3645041999989189,None,P146,001,2025-04-09_15h09.12.980,posner_endo_new1,2024.2.4,60.07402321032092,2025-04-09 15h09.20.843881 +0100,
cube_r.png,0.1,-0.31,invalid,23,23,0,down,4.089390700002696,None,space,0.3682609000024968,None,,,,,,,,,0,23,23,23,515.9949041999971,,,,,,,,,,,,,515.9790797999995,515.9949041999971,515.9949041999971,515.9949041999971,520.0918077999995,,,,520.1032360999998,520.1134383999997,520.1134383999997,520.1572828999997,520.1576241000002,520.1737795999979,520.1737795999979,520.1737795999979,520.2569884000004,520.5579913000001,,,,,,,,,,,,,,,,,,,,,,down,4.089390700002696,None,space,0.3682609000024968,None,P146,001,2025-04-09_15h09.12.980,posner_endo_new1,2024.2.4,60.07402321032092,2025-04-09 15h09.20.843881 +0100,
cube_r.png,0.1,0.31,valid,24,24,0,down,3.654621000001498,None,space,0.4151975000022503,None,,,,,,,,,0,24,24,24,520.5734088999998,,,,,,,,,,,,,520.5582799999975,520.5734088999998,520.5734088999998,520.5734088999998,524.2374094999977,,,,524.2488405999975,524.2591446000006,524.2591446000006,524.3031654999977,524.3035141,524.3195688999986,524.3195688999986,524.3195688999986,524.4029288999991,524.7371324999986,,,,,,,,,,,,,,,,,,,,,,down,3.654621000001498,None,space,0.4151975000022503,None,P146,001,2025-04-09_15h09.12.980,posner_endo_new1,2024.2.4,60.07402321032092,2025-04-09 15h09.20.843881 +0100,
cube_r.png,0.1,-0.31,invalid,25,25,0,down,2.2924185000010766,None,space,0.6441234999983863,None,,,,,,,,,0,25,25,25,524.7525418999976,,,,,,,,,,,,,524.7374319999981,524.7525418999976,524.7525418999976,524.7525418999976,527.0513314999989,,,,527.0627380999977,527.073011299999,527.073011299999,527.1168679000002,527.1172045999992,527.1334377999992,527.1334377999992,527.1334377999992,527.2167234999979,527.7839611999989,,,,,,,,,,,,,,,,,,,,,,down,2.2924185000010766,None,space,0.6441234999983863,None,P146,001,2025-04-09_15h09.12.980,posner_endo_new1,2024.2.4,60.07402321032092,2025-04-09 15h09.20.843881 +0100,
cube_l.png,0.1,-0.31,valid,26,26,0,down,3.2931573999994725,None,space,0.44201479999901494,None,,,,,,,,,0,26,26,26,527.799369299999,,,,,,,,,,,,,527.7842501999985,527.799369299999,527.799369299999,527.799369299999,531.097208799998,,,,531.1086923000003,531.1190615999985,531.1190615999985,531.1627466999998,531.1630872999995,531.1792631999997,531.1792631999997,531.1792631999997,531.2625173999986,531.6300363999981,,,,,,,,,,,,,,,,,,,,,,down,3.2931573999994725,None,space,0.44201479999901494,None,P146,001,2025-04-09_15h09.12.980,posner_endo_new1,2024.2.4,60.07402321032092,2025-04-09 15h09.20.843881 +0100,
cube_r.png,0.1,0.31,valid,27,27,0,down,3.6155032999995456,None,space,0.32947689999855356,None,,,,,,,,,0,27,27,27,531.6454126999997,,,,,,,,,,,,,531.6303329000002,531.6454126999997,531.6454126999997,531.6454126999997,535.2762805999992,,,,535.2876905999983,535.2981102999984,535.2981102999984,535.3418010999994,535.3421474999996,535.3583609999987,535.3583609999987,535.3583609999987,535.4415210000006,535.692481099999,,,,,,,,,,,,,,,,,,,,,,down,3.6155032999995456,None,space,0.32947689999855356,None,P146,001,2025-04-09_15h09.12.980,posner_endo_new1,2024.2.4,60.07402321032092,2025-04-09 15h09.20.843881 +0100,
cube_r.png,0.1,10,catch,28,28,0,down,2.7686787999991793,None,space,0.30144129999825964,None,,,,,,,,,0,28,28,28,535.7079548999973,,,,,,,,,,,,,535.6927823000005,535.7079548999973,535.7079548999973,535.7079548999973,538.4896331999989,,,,538.4997532999987,538.509507499999,538.509507499999,538.5552353999992,538.5554687999975,538.5716262999995,538.5716262999995,538.5716262999995,538.6548922999973,538.8889146999973,,,,,,,,,,,,,,,,,,,,,,down,2.7686787999991793,None,space,0.30144129999825964,None,P146,001,2025-04-09_15h09.12.980,posner_endo_new1,2024.2.4,60.07402321032092,2025-04-09 15h09.20.843881 +0100,
cube_r.png,0.1,0.31,valid,29,29,0,down,4.331634999998641,None,space,0.36998119999771006,None,,,,,,,,,0,29,29,29,538.9046968999974,,,,,,,,,,,,,538.8891019000002,538.9046968999974,538.9046968999974,538.9046968999974,543.2510822999975,,,,543.2579908000007,543.2695676000003,543.2695676000003,543.3169524000004,543.317188099998,543.3335316999983,543.3335316999983,543.3335316999983,543.4000603999993,543.7173459000005,,,,,,,,,,,,,,,,,,,,,,down,4.331634999998641,None,space,0.36998119999771006,None,P146,001,2025-04-09_15h09.12.980,posner_endo_new1,2024.2.4,60.07402321032092,2025-04-09 15h09.20.843881 +0100,
cube_r.png,0.1,0.31,valid,30,30,0,down,3.5601274999971793,None,space,0.3699702999983856,None,,,,,,,,,0,30,30,30,543.7330038,,,,,,,,,,,,,543.7175351999977,543.7330038,543.7330038,543.7330038,547.2970427,,,,547.3039540999998,547.3158479999984,547.3158479999984,547.362753999998,547.3632650999971,547.3792183000005,547.3792183000005,547.3792183000005,547.4624886999991,547.7638241999994,,,,,,,,,,,,,,,,,,,,,,down,3.5601274999971793,None,space,0.3699702999983856,None,P146,001,2025-04-09_15h09.12.980,posner_endo_new1,2024.2.4,60.07402321032092,2025-04-09 15h09.20.843881 +0100,
cube_l.png,0.1,-0.31,valid,31,31,0,down,4.089995599999384,None,space,0.4434346000016376,None,,,,,,,,,0,31,31,31,547.778793999998,,,,,,,,,,,,,547.7642730000007,547.778793999998,547.778793999998,547.778793999998,551.8761094999973,,,,551.8876232000002,551.897834899999,551.897834899999,551.9414907999999,551.9418356999995,551.9580447999979,551.9580447999979,551.9580447999979,552.0412593000001,552.4088374999992,,,,,,,,,,,,,,,,,,,,,,down,4.089995599999384,None,space,0.4434346000016376,None,P146,001,2025-04-09_15h09.12.980,posner_endo_new1,2024.2.4,60.07402321032092,2025-04-09 15h09.20.843881 +0100,
cube_r.png,0.1,0.31,valid,32,32,0,down,3.0526568000022962,None,space,0.39477459999761777,None,,,,,,,,,0,32,32,32,552.4242038999982,,,,,,,,,,,,,552.4091466999998,552.4242038999982,552.4242038999982,552.4242038999982,555.4888190999991,,,,555.5003147999996,555.5106708999992,555.5106708999992,555.5544596,555.5547970000007,555.5710601999999,555.5710601999999,555.5710601999999,555.6542627999988,555.9720060999971,,,,,,,,,,,,,,,,,,,,,,down,3.0526568000022962,None,space,0.39477459999761777,None,P146,001,2025-04-09_15h09.12.980,posner_endo_new1,2024.2.4,60.07402321032092,2025-04-09 15h09.20.843881 +0100,
cube_r.png,0.1,-0.31,invalid,33,33,0,down,2.6568562000029488,None,space,0.3928626000015356,None,,,,,,,,,0,33,33,33,555.9872209999994,,,,,,,,,,,,,555.9722991999988,555.9872209999994,555.9872209999994,555.9872209999994,558.652457199998,,,,558.6612619999978,558.671113299999,558.671113299999,558.7179426000002,558.7181756999998,558.7344107999998,558.7344107999998,558.7344107999998,558.8176557999977,559.1347926999988,,,,,,,,,,,,,,,,,,,,,,down,2.6568562000029488,None,space,0.3928626000015356,None,P146,001,2025-04-09_15h09.12.980,posner_endo_new1,2024.2.4,60.07402321032092,2025-04-09 15h09.20.843881 +0100,
cube_r.png,0.1,10,catch,34,34,0,down,2.3023599999978615,None,None,,,,,,,,,,,0,34,34,34,559.1505505999994,,,,,,,,,,,,,559.1349826000005,559.1505505999994,559.1505505999994,559.1505505999994,561.4658261000004,,,,561.4727407999999,561.4840861999983,561.4840861999983,561.5316375999973,561.5321354999978,561.5480403000001,561.5480403000001,561.5480403000001,561.6313424,564.5458806999995,,,,563.6460468000005,564.5618512999972,564.5618512999972,564.5618512999972,,,,,,,,,,,,,,,down,2.3023599999978615,None,None,,,P146,001,2025-04-09_15h09.12.980,posner_endo_new1,2024.2.4,60.07402321032092,2025-04-09 15h09.20.843881 +0100,
cube_r.png,0.1,0.31,valid,35,35,0,down,2.682298899999296,None,space,0.3318886000015482,None,,,,,,,,,0,35,35,35,564.5618512999972,,,,,,,,,,,,,564.5461571999986,564.5618512999972,564.5618512999972,564.5618512999972,567.2602339999976,,,,567.2703361999993,567.2800074000006,567.2800074000006,567.3257967999998,567.3260286999976,567.3423822999976,567.3423822999976,567.3423822999976,567.4256984999993,567.6763026999979,,,,,,,,,,,,,,,,,,,,,,down,2.682298899999296,None,space,0.3318886000015482,None,P146,001,2025-04-09_15h09.12.980,posner_endo_new1,2024.2.4,60.07402321032092,2025-04-09 15h09.20.843881 +0100,
cube_r.png,0.1,-0.31,invalid,36,36,0,down,3.5766718000013498,None,space,0.4015343999999459,None,,,,,,,,,0,36,36,36,567.6920322000005,,,,,,,,,,,,,567.6764871999985,567.6920322000005,567.6920322000005,567.6920322000005,571.2724893999984,,,,571.2793765999995,571.2907938999997,571.2907938999997,571.3382994999993,571.3387995999983,571.3549036999975,571.3549036999975,571.3549036999975,571.4215344000004,571.7724407999995,,,,,,,,,,,,,,,,,,,,,,down,3.5766718000013498,None,space,0.4015343999999459,None,P146,001,2025-04-09_15h09.12.980,posner_endo_new1,2024.2.4,60.07402321032092,2025-04-09 15h09.20.843881 +0100,
cube_l.png,0.1,0.31,invalid,37,37,0,down,1.2813876999971399,None,space,0.47365040000295267,None,,,,,,,,,0,37,37,37,571.7876398999979,,,,,,,,,,,,,571.7727330999987,571.7876398999979,571.7876398999979,571.7876398999979,573.071030799998,,,,573.0824979999998,573.0928515999985,573.0928515999985,573.1365107999991,573.1368494999988,573.1530370999972,573.1530370999972,573.1530370999972,573.236339799998,573.6371230999976,,,,,,,,,,,,,,,,,,,,,,down,1.2813876999971399,None,space,0.47365040000295267,None,P146,001,2025-04-09_15h09.12.980,posner_endo_new1,2024.2.4,60.07402321032092,2025-04-09 15h09.20.843881 +0100,
cube_l.png,0.1,0.31,invalid,38,38,0,down,3.352298300000257,None,space,0.37759449999794015,None,,,,,,,,,0,38,38,38,573.6525221999982,,,,,,,,,,,,,573.6374117999985,573.6525221999982,573.6525221999982,573.6525221999982,577.0168749999975,,,,577.0283401999986,577.038636199999,577.038636199999,577.0825781999993,577.0829290000001,577.0989979999977,577.0989979999977,577.0989979999977,577.1821984999988,577.4833024,,,,,,,,,,,,,,,,,,,,,,down,3.352298300000257,None,space,0.37759449999794015,None,P146,001,2025-04-09_15h09.12.980,posner_endo_new1,2024.2.4,60.07402321032092,2025-04-09 15h09.20.843881 +0100,
cube_r.png,0.1,0.31,valid,39,39,0,down,3.3138934999988123,None,space,0.484444200003054,None,,,,,,,,,0,39,39,39,577.498639999998,,,,,,,,,,,,,577.4835977999974,577.498639999998,577.498639999998,577.498639999998,580.8294234999994,,,,580.8409702999998,580.8508070999997,580.8508070999997,580.8952907999992,580.8956385999991,580.9117530000003,580.9117530000003,580.9117530000003,580.9950628000006,581.4124765999986,,,,,,,,,,,,,,,,,,,,,,down,3.3138934999988123,None,space,0.484444200003054,None,P146,001,2025-04-09_15h09.12.980,posner_endo_new1,2024.2.4,60.07402321032092,2025-04-09 15h09.20.843881 +0100,
cube_l.png,0.1,0.31,invalid,40,40,0,down,3.704590899997129,None,space,0.3281688999995822,None,,,,,,,,,0,40,40,40,581.4280686999991,,,,,,,,,,,,,581.4127726999977,581.4280686999991,581.4280686999991,581.4280686999991,585.1420321000005,,,,585.1508285999989,585.1607202999985,585.1607202999985,585.2074329999996,585.2076663999978,585.224020499998,585.224020499998,585.224020499998,585.307241999999,585.5580656999991,,,,,,,,,,,,,,,,,,,,,,down,3.704590899997129,None,space,0.3281688999995822,None,P146,001,2025-04-09_15h09.12.980,posner_endo_new1,2024.2.4,60.07402321032092,2025-04-09 15h09.20.843881 +0100,
cube_l.png,0.1,10,catch,41,41,0,down,3.7266697000013664,None,None,,,,,,,,,,,0,41,41,41,585.5740917000003,,,,,,,,,,,,,585.5582538999988,585.5740917000003,585.5740917000003,585.5740917000003,589.3042019999993,,,,589.311095099998,589.3224211999986,589.3224211999986,589.3698659000001,589.3703669999995,589.3863041000004,589.3863041000004,589.3863041000004,589.4695281999993,592.384176399999,,,,591.4843736000003,592.4000648999972,592.4000648999972,592.4000648999972,,,,,,,,,,,,,,,down,3.7266697000013664,None,None,,,P146,001,2025-04-09_15h09.12.980,posner_endo_new1,2024.2.4,60.07402321032092,2025-04-09 15h09.20.843881 +0100,
cube_l.png,0.1,-0.31,valid,42,42,0,down,1.2445819999993546,None,space,0.3933118999993894,None,,,,,,,,,0,42,42,42,592.4000648999972,,,,,,,,,,,,,592.384447299999,592.4000648999972,592.4000648999972,592.4000648999972,593.6501323999983,,,,593.6616419999991,593.6718473999972,593.6718473999972,593.7155132999978,593.7158573999986,593.7320440999974,593.7320440999974,593.7320440999974,593.8153643999976,594.1328863999988,,,,,,,,,,,,,,,,,,,,,,down,1.2445819999993546,None,space,0.3933118999993894,None,P146,001,2025-04-09_15h09.12.980,posner_endo_new1,2024.2.4,60.07402321032092,2025-04-09 15h09.20.843881 +0100,
cube_l.png,0.1,10,catch,43,43,0,down,2.608182100000704,None,None,,,,,,,,,,,0,43,43,43,594.1482279999982,,,,,,,,,,,,,594.1331804999973,594.1482279999982,594.1482279999982,594.1482279999982,596.7635288999991,,,,596.7749839999997,596.7851998000006,596.7851998000006,596.8290022000001,596.8293459999986,596.8455837999973,596.8455837999973,596.8455837999973,596.9288089000001,599.8431891999971,,,,598.9433007999978,599.8591199000002,599.8591199000002,599.8591199000002,,,,,,,,,,,,,,,down,2.608182100000704,None,None,,,P146,001,2025-04-09_15h09.12.980,posner_endo_new1,2024.2.4,60.07402321032092,2025-04-09 15h09.20.843881 +0100,
cube_l.png,0.1,0.31,invalid,44,44,0,down,0.6254454999980226,None,space,0.45797809999930905,None,,,,,,,,,0,44,44,44,599.8591199000002,,,,,,,,,,,,,599.8434596000006,599.8591199000002,599.8591199000002,599.8591199000002,600.4930180999982,,,,600.5043819999992,600.5147360999981,600.5147360999981,600.5585864999994,600.5589249999975,600.5753695999992,600.5753695999992,600.5753695999992,600.6584108999996,601.0425668999997,,,,,,,,,,,,,,,,,,,,,,down,0.6254454999980226,None,space,0.45797809999930905,None,P146,001,2025-04-09_15h09.12.980,posner_endo_new1,2024.2.4,60.07402321032092,2025-04-09 15h09.20.843881 +0100,
cube_l.png,0.1,0.31,invalid,45,45,0,down,2.6745708999987983,None,space,0.4615048999985447,None,,,,,,,,,0,45,45,45,601.0579469999975,,,,,,,,,,,,,601.0428551999976,601.0579469999975,601.0579469999975,601.0579469999975,603.7394993999987,,,,603.7494936999974,603.7591771000007,603.7591771000007,603.8053796999993,603.8056131999983,603.8218237000001,603.8218237000001,603.8218237000001,603.9050293999971,604.2888762000002,,,,,,,,,,,,,,,,,,,,,,down,2.6745708999987983,None,space,0.4615048999985447,None,P146,001,2025-04-09_15h09.12.980,posner_endo_new1,2024.2.4,60.07402321032092,2025-04-09 15h09.20.843881 +0100,
cube_r.png,0.1,0.31,valid,46,46,0,down,1.7163657000019157,None,space,0.5129584999995132,None,,,,,,,,,0,46,46,46,604.3046651000004,,,,,,,,,,,,,604.2890603999986,604.3046651000004,604.3046651000004,604.3046651000004,606.0368969999981,,,,606.0438046999989,606.0557091999981,606.0557091999981,606.1028062999976,606.1033035,606.1192271,606.1192271,606.1192271,606.2024683999989,606.6372460999992,,,,,,,,,,,,,,,,,,,,,,down,1.7163657000019157,None,space,0.5129584999995132,None,P146,001,2025-04-09_15h09.12.980,posner_endo_new1,2024.2.4,60.07402321032092,2025-04-09 15h09.20.843881 +0100,
cube_l.png,0.1,-0.31,valid,47,47,0,down,2.7770700000000943,None,space,0.48182989999986603,None,,,,,,,,,0,47,47,47,606.6519890999989,,,,,,,,,,,,,606.6376788999987,606.6519890999989,606.6519890999989,606.6519890999989,609.4339383000006,,,,609.4454530000003,609.4557902999986,609.4557902999986,609.4994172999977,609.4997659999972,609.5159090999987,609.5159090999987,609.5159090999987,609.5991568999998,610.0001136999999,,,,,,,,,,,,,,,,,,,,,,down,2.7770700000000943,None,space,0.48182989999986603,None,P146,001,2025-04-09_15h09.12.980,posner_endo_new1,2024.2.4,60.07402321032092,2025-04-09 15h09.20.843881 +0100,
cube_r.png,0.1,-0.31,invalid,48,48,0,down,2.7985811999969883,None,space,0.6256013000020175,None,,,,,,,,,0,48,48,48,610.0154961999979,,,,,,,,,,,,,610.0004128999972,610.0154961999979,610.0154961999979,610.0154961999979,612.8304613,,,,612.8403703999975,612.8498499999987,612.8498499999987,612.8960165999997,612.8962556999977,612.912532899998,612.912532899998,612.912532899998,612.9957304999989,613.5458323999992,,,,,,,,,,,,,,,,,,,,,,down,2.7985811999969883,None,space,0.6256013000020175,None,P146,001,2025-04-09_15h09.12.980,posner_endo_new1,2024.2.4,60.07402321032092,2025-04-09 15h09.20.843881 +0100,
cube_r.png,0.1,10,catch,49,49,0,down,7.35461690000011,None,None,,,,,,,,,,,0,49,49,49,613.5616773999973,,,,,,,,,,,,,613.5460160999974,613.5616773999973,613.5616773999973,613.5616773999973,620.9219507999987,,,,620.9288835000007,620.9405334999974,620.9405334999974,620.9876454000005,620.9878761999971,621.0041306999992,621.0041306999992,621.0041306999992,621.0876680000001,624.0016240999976,,,,623.1021083999985,624.0178688999986,624.0178688999986,624.0178688999986,,,,,,,,,,,,,,,down,7.35461690000011,None,None,,,P146,001,2025-04-09_15h09.12.980,posner_endo_new1,2024.2.4,60.07402321032092,2025-04-09 15h09.20.843881 +0100,
cube_l.png,0.1,-0.31,valid,50,50,0,down,1.12259769999946,None,space,0.5807671000002301,None,,,,,,,,,0,50,50,50,624.0178688999986,,,,,,,,,,,,,624.0017965999978,624.0178688999986,624.0178688999986,624.0178688999986,625.1507423999974,,,,625.1575865999985,625.169413399999,625.169413399999,625.2166934999987,625.2169125,625.2332695000005,625.2332695000005,625.2332695000005,625.2996878999984,625.816691699998,,,,,,,,,,,,,,,,,,,,,,down,1.12259769999946,None,space,0.5807671000002301,None,P146,001,2025-04-09_15h09.12.980,posner_endo_new1,2024.2.4,60.07402321032092,2025-04-09 15h09.20.843881 +0100,
cube_l.png,0.1,-0.31,valid,51,51,0,down,4.403976200002944,None,space,0.5202667000012298,None,,,,,,,,,0,51,51,51,625.8326130999994,,,,,,,,,,,,,625.8168607000007,625.8326130999994,625.8326130999994,625.8326130999994,630.2454865,,,,630.2514744999971,630.2631270999991,630.2631270999991,630.3114956999998,630.3117175999978,630.3279946000002,630.3279946000002,630.3279946000002,630.3945597999991,630.8616215999973,,,,,,,,,,,,,,,,,,,,,,down,4.403976200002944,None,space,0.5202667000012298,None,P146,001,2025-04-09_15h09.12.980,posner_endo_new1,2024.2.4,60.07402321032092,2025-04-09 15h09.20.843881 +0100,
cube_r.png,0.1,-0.31,invalid,52,52,0,down,2.2314221000015095,None,space,0.8708207999989099,None,,,,,,,,,0,52,52,52,630.8775752000001,,,,,,,,,,,,,630.8617924999999,630.8775752000001,630.8775752000001,630.8775752000001,633.1258407999994,,,,633.1354659999997,633.1453131999988,633.1453131999988,633.1919099999977,633.1922128999977,633.2084059999979,633.2084059999979,633.2084059999979,633.2748971999972,634.0918080999982,,,,,,,,,,,,,,,,,,,,,,down,2.2314221000015095,None,space,0.8708207999989099,None,P146,001,2025-04-09_15h09.12.980,posner_endo_new1,2024.2.4,60.07402321032092,2025-04-09 15h09.20.843881 +0100,
cube_l.png,0.1,-0.31,valid,53,53,0,down,3.8252040000006673,None,space,0.5546266999990621,None,,,,,,,,,0,53,53,53,634.1074265999996,,,,,,,,,,,,,634.0920624999999,634.1074265999996,634.1074265999996,634.1074265999996,637.9379324999973,,,,637.9476018999994,637.9578359999978,637.9578359999978,638.0035796999982,638.0038907999988,638.0201639000006,638.0201639000006,638.0201639000006,638.1033924999974,638.5872681999972,,,,,,,,,,,,,,,,,,,,,,down,3.8252040000006673,None,space,0.5546266999990621,None,P146,001,2025-04-09_15h09.12.980,posner_endo_new1,2024.2.4,60.07402321032092,2025-04-09 15h09.20.843881 +0100,
cube_r.png,0.1,10,catch,54,54,0,down,4.714137099999789,None,space,0.3660533000002033,None,,,,,,,,,0,54,54,54,638.6028551999989,,,,,,,,,,,,,638.5875166999976,638.6028551999989,638.6028551999989,638.6028551999989,643.3324434999995,,,,643.3421906999974,643.3522306999985,643.3522306999985,643.3980389999997,643.398341199998,643.4146112999988,643.4146112999988,643.4146112999988,643.4978969999975,643.781880399998,,,,,,,,,,,,,,,,,,,,,,down,4.714137099999789,None,space,0.3660533000002033,None,P146,001,2025-04-09_15h09.12.980,posner_endo_new1,2024.2.4,60.07402321032092,2025-04-09 15h09.20.843881 +0100,
cube_l.png,0.1,0.31,invalid,55,55,0,down,2.383621900000435,None,space,0.4056112000034773,None,,,,,,,,,0,55,55,55,643.7975009000002,,,,,,,,,,,,,643.7821313999993,643.7975009000002,643.7975009000002,643.7975009000002,646.1960171999999,,,,646.2056929999999,646.2158901000003,646.2158901000003,646.2619037000004,646.2622061999973,646.278311099999,646.278311099999,646.278311099999,646.3616411000003,646.6956099999989,,,,,,,,,,,,,,,,,,,,,,down,2.383621900000435,None,space,0.4056112000034773,None,P146,001,2025-04-09_15h09.12.980,posner_endo_new1,2024.2.4,60.07402321032092,2025-04-09 15h09.20.843881 +0100,
cube_l.png,0.1,-0.31,valid,56,56,0,down,1.9812357000009797,None,space,0.47862739999982296,None,,,,,,,,,0,56,56,56,646.7112688999987,,,,,,,,,,,,,646.6958675999995,646.7112688999987,646.7112688999987,646.7112688999987,648.6935300999976,,,,648.7030775999992,648.7130174999984,648.7130174999984,648.7592963999996,648.7596027999971,648.7757665999998,648.7757665999998,648.7757665999998,648.8590498999984,649.2597709999973,,,,,,,,,,,,,,,,,,,,,,down,1.9812357000009797,None,space,0.47862739999982296,None,P146,001,2025-04-09_15h09.12.980,posner_endo_new1,2024.2.4,60.07402321032092,2025-04-09 15h09.20.843881 +0100,
cube_r.png,0.1,0.31,valid,57,57,0,down,3.6091919999998936,None,space,0.41266360000008717,None,,,,,,,,,0,57,57,57,649.2753231999995,,,,,,,,,,,,,649.2600203999973,649.2753231999995,649.2753231999995,649.2753231999995,652.8892770999992,,,,652.8988725999989,652.9090627000005,652.9090627000005,652.9549655999981,652.9552636999979,652.9715593999972,652.9715593999972,652.9715593999972,653.0547578999976,653.3888778,,,,,,,,,,,,,,,,,,,,,,down,3.6091919999998936,None,space,0.41266360000008717,None,P146,001,2025-04-09_15h09.12.980,posner_endo_new1,2024.2.4,60.07402321032092,2025-04-09 15h09.20.843881 +0100,
cube_r.png,0.1,-0.31,invalid,58,58,0,down,1.9846958999987692,None,space,0.5201466999969853,None,,,,,,,,,0,58,58,58,653.4043117000001,,,,,,,,,,,,,653.3891277000002,653.4043117000001,653.4043117000001,653.4043117000001,655.4033541999997,,,,655.4130689999984,655.4231837000007,655.4231837000007,655.4691170000006,655.4694151000003,655.4856717999974,655.4856717999974,655.4856717999974,655.5688842999989,656.0195891000003,,,,,,,,,,,,,,,,,,,,,,down,1.9846958999987692,None,space,0.5201466999969853,None,P146,001,2025-04-09_15h09.12.980,posner_endo_new1,2024.2.4,60.07402321032092,2025-04-09 15h09.20.843881 +0100,
cube_l.png,0.1,0.31,invalid,59,59,0,down,6.169692000003124,None,space,0.3543448000018543,None,,,,,,,,,0,59,59,59,656.0350948999985,,,,,,,,,,,,,656.0198447999974,656.0350948999985,656.0350948999985,656.0350948999985,662.2130961000003,,,,662.2228388000003,662.2329677999987,662.2329677999987,662.2787606999991,662.2790686999979,662.2953656999998,662.2953656999998,662.2953656999998,662.3785461999978,662.6626312999979,,,,,,,,,,,,,,,,,,,,,,down,6.169692000003124,None,space,0.3543448000018543,None,P146,001,2025-04-09_15h09.12.980,posner_endo_new1,2024.2.4,60.07402321032092,2025-04-09 15h09.20.843881 +0100,
