cue_img,cue_soa,target_y,trial,thisN,thisTrialN,thisRepN,key_control2.keys,key_control2.rt,key_control2.duration,key_resp.keys,key_resp.rt,key_resp.duration,practice.thisRepN,practice.thisTrialN,practice.thisN,practice.thisIndex,block1.thisRepN,block1.thisTrialN,block1.thisN,block1.thisIndex,block2.thisRepN,block2.thisTrialN,block2.thisN,block2.thisIndex,thisRow.t,notes,instructions.started,instructions_txt.started,key_control.started,instructions.stopped,key_control.keys,key_control.rt,key_control.duration,ready.started,ready_txt.started,ready_txt.stopped,ready.stopped,fix.started,fixation.started,key_control2.started,fixation_cross.started,fix.stopped,practice.key_control2.keys,practice.key_control2.rt,practice.key_control2.duration,cue.started,cube.started,fixation_cross_cue.started,cue.stopped,target.started,fixation_target.started,fixation_cross_target.started,key_resp.started,star.started,star.stopped,fixation_target.stopped,fixation_cross_target.stopped,key_resp.stopped,target.stopped,practice.key_resp.keys,practice.key_resp.rt,practice.key_resp.duration,block1.key_control2.keys,block1.key_control2.rt,block1.key_control2.duration,block1.key_resp.keys,block1.key_resp.rt,block1.key_resp.duration,break_2.started,text.started,key_control3.started,text.stopped,break_2.stopped,key_control3.keys,key_control3.rt,key_control3.duration,block2.key_control2.keys,block2.key_control2.rt,block2.key_control2.duration,block2.key_resp.keys,block2.key_resp.rt,block2.key_resp.duration,participant,session,date,expName,psychopyVersion,frameRate,expStart,
,,,,,,,,,,,,,,,,,,,,,,,,,,,0.007416000007651746,0.029244300007121637,0.029244300007121637,7.958170199999586,up,7.911600599996746,None,,,,,,,,,,,,,,,,,,,,,,,,,,,,,,,,,,,,,,,,,,,,,,,,,,P1047,001,2025-04-11_08h29.29.702,posner_endo_new1,2024.2.4,60.10811044319445,2025-04-11 08h29.39.709741 +0100,
,,,,,,,,,,,,,,,,,,,,,,,,,,,,,,,,,,7.958235099999001,7.973827699999674,10.985948500005179,10.9544251000043,,,,,,,,,,,,,,,,,,,,,,,,,,,,,,,,,,,,,,,,,,,,,,P1047,001,2025-04-11_08h29.29.702,posner_endo_new1,2024.2.4,60.10811044319445,2025-04-11 08h29.39.709741 +0100,
cube_r.png,0.1,10,catch,0,0,0,down,22.4265943000064,None,None,,,0,0,0,3,,,,,,,,,10.985948500005179,,,,,,,,,,,,,10.972252000006847,10.985948500005179,10.985948500005179,10.985948500005179,33.415467500002705,down,22.4265943000064,None,33.434809700003825,33.44542980000551,33.44542980000551,33.48123960000521,33.4814664000005,33.4977310999966,33.4977310999966,33.4977310999966,33.580858900008025,35.595363300002646,36.51100179999776,36.51100179999776,36.51100179999776,36.49501470000541,None,,,,,,,,,,,,,,,,,,,,,,,P1047,001,2025-04-11_08h29.29.702,posner_endo_new1,2024.2.4,60.10811044319445,2025-04-11 08h29.39.709741 +0100,
cube_r.png,0.1,-0.31,invalid,1,1,0,down,3.2779091999982484,None,space,0.7358726999955252,None,0,1,1,9,,,,,,,,,36.51100179999776,,,,,,,,,,,,,36.4951718999946,36.51100179999776,36.51100179999776,36.51100179999776,39.791583800004446,down,3.2779091999982484,None,39.79856419999851,39.81028089999745,39.81028089999745,39.85769299999811,39.85792209999636,39.87452130000747,39.87452130000747,39.87452130000747,39.94098739999754,,,,,40.62440990000323,space,0.7358726999955252,None,,,,,,,,,,,,,,,,,,,,,P1047,001,2025-04-11_08h29.29.702,posner_endo_new1,2024.2.4,60.10811044319445,2025-04-11 08h29.39.709741 +0100,
cube_l.png,0.1,0.31,invalid,2,2,0,down,2.5324714000016684,None,space,0.47593489999417216,None,0,2,2,5,,,,,,,,,40.6402156999975,,,,,,,,,,,,,40.62457590000122,40.6402156999975,40.6402156999975,40.6402156999975,43.18837750000239,down,2.5324714000016684,None,43.19943079999939,43.20939190000354,43.20939190000354,43.25437090000196,43.25459680000495,43.27104980000877,43.27104980000877,43.27104980000877,43.33772250000038,,,,,43.75474899999972,space,0.47593489999417216,None,,,,,,,,,,,,,,,,,,,,,P1047,001,2025-04-11_08h29.29.702,posner_endo_new1,2024.2.4,60.10811044319445,2025-04-11 08h29.39.709741 +0100,
cube_r.png,0.1,-0.31,invalid,3,3,0,down,11.75461859999632,None,space,0.44918419999885373,None,0,3,3,2,,,,,,,,,43.77045130000624,,,,,,,,,,,,,43.75491299999703,43.77045130000624,43.77045130000624,43.77045130000624,55.52579820000392,down,11.75461859999632,None,55.53237129999616,55.54413170000771,55.54413170000771,55.59161070000846,55.59183629999461,55.608308700000634,55.608308700000634,55.608308700000634,55.674833500001114,,,,,56.058653300002334,space,0.44918419999885373,None,,,,,,,,,,,,,,,,,,,,,P1047,001,2025-04-11_08h29.29.702,posner_endo_new1,2024.2.4,60.10811044319445,2025-04-11 08h29.39.709741 +0100,
cube_l.png,0.1,-0.31,valid,4,4,0,down,3.074985100000049,None,space,0.5438015999970958,None,0,4,4,8,,,,,,,,,56.07456249999814,,,,,,,,,,,,,56.058820200007176,56.07456249999814,56.07456249999814,56.07456249999814,59.15534430000116,down,3.074985100000049,None,59.16221019999648,59.17402469999797,59.17402469999797,59.221393600004376,59.221621100004995,59.238026699997135,59.238026699997135,59.238026699997135,59.304294999994454,,,,,59.788266899995506,space,0.5438015999970958,None,,,,,,,,,,,,,,,,,,,,,P1047,001,2025-04-11_08h29.29.702,posner_endo_new1,2024.2.4,60.10811044319445,2025-04-11 08h29.39.709741 +0100,
cube_l.png,0.1,0.31,invalid,5,5,0,down,19.26476739998907,None,space,1.105158999998821,None,0,5,5,1,,,,,,,,,59.80399139999645,,,,,,,,,,,,,59.78843660000712,59.80399139999645,59.80399139999645,59.80399139999645,79.08462530000543,down,19.26476739998907,None,79.09105440000712,79.10292659999686,79.10292659999686,79.1510552999971,79.15128469999763,79.16745809999702,79.16745809999702,79.16745809999702,79.23415390000446,,,,,80.28377270000055,space,1.105158999998821,None,,,,,,,,,,,,,,,,,,,,,P1047,001,2025-04-11_08h29.29.702,posner_endo_new1,2024.2.4,60.10811044319445,2025-04-11 08h29.39.709741 +0100,
cube_l.png,0.1,-0.31,valid,6,6,0,down,34.417100400009076,None,space,0.4432415999908699,None,0,6,6,4,,,,,,,,,80.29978460000711,,,,,,,,,,,,,80.28394039999694,80.29978460000711,80.29978460000711,80.29978460000711,114.73173359999782,down,34.417100400009076,None,114.73843850000412,114.75016530000721,114.75016530000721,114.7975357999967,114.79776260000654,114.814394800007,114.814394800007,114.814394800007,114.88105540000834,,,,,115.26450119999936,space,0.4432415999908699,None,,,,,,,,,,,,,,,,,,,,,P1047,001,2025-04-11_08h29.29.702,posner_endo_new1,2024.2.4,60.10811044319445,2025-04-11 08h29.39.709741 +0100,
cube_r.png,0.1,-0.31,invalid,7,7,0,down,3.55544139999256,None,space,0.44019850000040606,None,0,7,7,6,,,,,,,,,115.28074349999952,,,,,,,,,,,,,115.2646689999965,115.28074349999952,115.28074349999952,115.28074349999952,118.84418379999988,down,3.55544139999256,None,118.8506941999949,118.86236559999816,118.86236559999816,118.9099242999946,118.91014859999996,118.9269282000023,118.9269282000023,118.9269282000023,118.99358579999534,,,,,119.37717520000297,space,0.44019850000040606,None,,,,,,,,,,,,,,,,,,,,,P1047,001,2025-04-11_08h29.29.702,posner_endo_new1,2024.2.4,60.10811044319445,2025-04-11 08h29.39.709741 +0100,
cube_r.png,0.1,0.31,valid,8,8,0,down,3.7075861000048462,None,space,0.5074077000026591,None,0,8,8,7,,,,,,,,,119.39286150000407,,,,,,,,,,,,,119.3773446999985,119.39286150000407,119.39286150000407,119.39286150000407,123.10838780000631,down,3.7075861000048462,None,123.13314079999691,123.14552320000075,123.14552320000075,123.1721680000046,123.17248150000523,123.18862349999836,123.18862349999836,123.18862349999836,123.27231729999767,,,,,123.70605120000255,space,0.5074077000026591,None,,,,,,,,,,,,,,,,,,,,,P1047,001,2025-04-11_08h29.29.702,posner_endo_new1,2024.2.4,60.10811044319445,2025-04-11 08h29.39.709741 +0100,
cube_r.png,0.1,0.31,valid,9,9,0,down,3.9387595000007423,None,space,0.3283566000027349,None,0,9,9,10,,,,,,,,,123.7218361999985,,,,,,,,,,,,,123.70621530000062,123.7218361999985,123.7218361999985,123.7218361999985,127.66868020000402,down,3.9387595000007423,None,127.67499840000528,127.68668260000413,127.68668260000413,127.73413989999972,127.7343627000082,127.75070639999467,127.75070639999467,127.75070639999467,127.81740909999644,,,,,128.08503360000032,space,0.3283566000027349,None,,,,,,,,,,,,,,,,,,,,,P1047,001,2025-04-11_08h29.29.702,posner_endo_new1,2024.2.4,60.10811044319445,2025-04-11 08h29.39.709741 +0100,
cube_l.png,0.1,-0.31,valid,10,10,0,down,5.53559060000407,None,space,0.38425659999484196,None,0,10,10,0,,,,,,,,,128.10069220000878,,,,,,,,,,,,,128.08520159999898,128.10069220000878,128.10069220000878,128.10069220000878,133.6458111999964,down,5.53559060000407,None,133.6520629000006,133.66372730000876,133.66372730000876,133.7118291000079,133.71205580000242,133.72849730000598,133.72849730000598,133.72849730000598,133.79492139999638,,,,,134.1287650000013,space,0.38425659999484196,None,,,,,,,,,,,,,,,,,,,,,P1047,001,2025-04-11_08h29.29.702,posner_endo_new1,2024.2.4,60.10811044319445,2025-04-11 08h29.39.709741 +0100,
,,,,,,,,,,,,,,,,,,,,,,,,,,,,,,,,,,134.1288829999976,134.14457699999912,137.1591788000078,137.12544830000843,,,,,,,,,,,,,,,,,,,,,,,,,,,,,,,,,,,,,,,,,,,,,,P1047,001,2025-04-11_08h29.29.702,posner_endo_new1,2024.2.4,60.10811044319445,2025-04-11 08h29.39.709741 +0100,
cube_l.png,0.1,10,catch,0,0,0,down,20.80590080001275,None,None,,,,,,,0,0,0,0,,,,,137.1591788000078,,,,,,,,,,,,,137.1503029000014,137.1591788000078,137.1591788000078,137.1591788000078,157.97212800000852,,,,157.9916341000062,158.00334369999473,158.00334369999473,158.03688590000093,158.03717930000857,158.0534456000023,158.0534456000023,158.0534456000023,158.13681169999472,160.15138769999612,161.06707859999733,161.06707859999733,161.06707859999733,161.0510551000043,,,,down,20.80590080001275,None,None,,,,,,,,,,,,,,,,,P1047,001,2025-04-11_08h29.29.702,posner_endo_new1,2024.2.4,60.10811044319445,2025-04-11 08h29.39.709741 +0100,
cube_l.png,0.1,10,catch,1,1,0,down,4.14549189999525,None,None,,,,,,,0,1,1,1,,,,,161.06707859999733,,,,,,,,,,,,,161.05127179999545,161.06707859999733,161.06707859999733,161.06707859999733,165.21397460000298,,,,165.22310699999798,165.23318120000476,165.23318120000476,165.2794492999965,165.2797400999989,165.29607029999897,165.29607029999897,165.29607029999897,165.37930280000728,167.39392869999574,168.3096469000011,168.3096469000011,168.3096469000011,168.29360540000198,,,,down,4.14549189999525,None,None,,,,,,,,,,,,,,,,,P1047,001,2025-04-11_08h29.29.702,posner_endo_new1,2024.2.4,60.10811044319445,2025-04-11 08h29.39.709741 +0100,
cube_l.png,0.1,0.31,invalid,2,2,0,down,2.3274110999918776,None,space,0.41135409999697004,None,,,,,0,2,2,2,,,,,168.3096469000011,,,,,,,,,,,,,168.29382449999684,168.3096469000011,168.3096469000011,168.3096469000011,170.64166550000664,,,,170.65063839999493,170.6606488999969,170.6606488999969,170.70750560000306,170.70779119999497,170.72379950000322,170.72379950000322,170.72379950000322,170.80705610000587,,,,,171.14119219999702,,,,down,2.3274110999918776,None,space,0.41135409999697004,None,,,,,,,,,,,,,,,P1047,001,2025-04-11_08h29.29.702,posner_endo_new1,2024.2.4,60.10811044319445,2025-04-11 08h29.39.709741 +0100,
cube_l.png,0.1,0.31,invalid,3,3,0,down,5.4806142000015825,None,space,0.5568142000120133,None,,,,,0,3,3,3,,,,,171.15631639999629,,,,,,,,,,,,,171.14143810000678,171.15631639999629,171.15631639999629,171.15631639999629,176.65204060000542,,,,176.66108790000726,176.67113329999847,176.67113329999847,176.71785090000776,176.71814379999705,176.73431549999805,176.73431549999805,176.73431549999805,176.81769890000578,,,,,177.30133370000112,,,,down,5.4806142000015825,None,space,0.5568142000120133,None,,,,,,,,,,,,,,,P1047,001,2025-04-11_08h29.29.702,posner_endo_new1,2024.2.4,60.10811044319445,2025-04-11 08h29.39.709741 +0100,
cube_l.png,0.1,-0.31,valid,4,4,0,down,4.936218999995617,None,space,0.5745917000022018,None,,,,,0,4,4,4,,,,,177.31709739999496,,,,,,,,,,,,,177.3015674000053,177.31709739999496,177.31709739999496,177.31709739999496,182.26298670000688,,,,182.27195920000668,182.2820600999985,182.2820600999985,182.32872289999796,182.32900850000442,182.3451561999973,182.3451561999973,182.3451561999973,182.4285297000024,,,,,182.92895440000575,,,,down,4.936218999995617,None,space,0.5745917000022018,None,,,,,,,,,,,,,,,P1047,001,2025-04-11_08h29.29.702,posner_endo_new1,2024.2.4,60.10811044319445,2025-04-11 08h29.39.709741 +0100,
cube_r.png,0.1,-0.31,invalid,5,5,0,down,5.292076699988684,None,space,0.46424829999159556,None,,,,,0,5,5,5,,,,,182.94471090000297,,,,,,,,,,,,,182.92919530000654,182.94471090000297,182.94471090000297,182.94471090000297,188.2417046000046,,,,188.26523879999877,188.27669709999464,188.27669709999464,188.30562470000586,188.30597539999872,188.32207320000452,188.32207320000452,188.32207320000452,188.40556420000212,,,,,188.78993670000636,,,,down,5.292076699988684,None,space,0.46424829999159556,None,,,,,,,,,,,,,,,P1047,001,2025-04-11_08h29.29.702,posner_endo_new1,2024.2.4,60.10811044319445,2025-04-11 08h29.39.709741 +0100,
cube_r.png,0.1,0.31,valid,6,6,0,down,3.7352090000058524,None,space,0.5367989999940619,None,,,,,0,6,6,6,,,,,188.80521540000336,,,,,,,,,,,,,188.790233000007,188.80521540000336,188.80521540000336,188.80521540000336,192.55258689999755,,,,192.56163650000235,192.57130110000435,192.57130110000435,192.6182073999953,192.61844910000218,192.63484510000853,192.63484510000853,192.63484510000853,192.71800969999458,,,,,193.18459790000634,,,,down,3.7352090000058524,None,space,0.5367989999940619,None,,,,,,,,,,,,,,,P1047,001,2025-04-11_08h29.29.702,posner_endo_new1,2024.2.4,60.10811044319445,2025-04-11 08h29.39.709741 +0100,
cube_r.png,0.1,-0.31,invalid,7,7,0,down,5.476245800004108,None,space,0.7666402000031667,None,,,,,0,7,7,7,,,,,193.20080249999592,,,,,,,,,,,,,193.18478850000247,193.20080249999592,193.20080249999592,193.20080249999592,198.67931200000749,,,,198.68638890000875,198.69793290000234,198.69793290000234,198.74528460000874,198.7455237999966,198.76171410000825,198.76171410000825,198.76171410000825,198.8451156999945,,,,,199.5451858000015,,,,down,5.476245800004108,None,space,0.7666402000031667,None,,,,,,,,,,,,,,,P1047,001,2025-04-11_08h29.29.702,posner_endo_new1,2024.2.4,60.10811044319445,2025-04-11 08h29.39.709741 +0100,
cube_l.png,0.1,-0.31,valid,8,8,0,down,5.05156760000682,None,space,0.6632574999966891,None,,,,,0,8,8,8,,,,,199.5610532999999,,,,,,,,,,,,,199.5453725999978,199.5610532999999,199.5610532999999,199.5610532999999,204.6232946999953,,,,204.63027470000088,204.64197559999593,204.64197559999593,204.68926650000503,204.68949340000108,204.70600010000635,204.70600010000635,204.70600010000635,204.7890139999945,,,,,205.3724441999948,,,,down,5.05156760000682,None,space,0.6632574999966891,None,,,,,,,,,,,,,,,P1047,001,2025-04-11_08h29.29.702,posner_endo_new1,2024.2.4,60.10811044319445,2025-04-11 08h29.39.709741 +0100,
cube_r.png,0.1,-0.31,invalid,9,9,0,down,4.992663700002595,None,space,0.5192495000083,None,,,,,0,9,9,9,,,,,205.38841110000794,,,,,,,,,,,,,205.37261910000234,205.38841110000794,205.38841110000794,205.38841110000794,210.38387360000343,,,,210.38986959999602,210.401434600004,210.401434600004,210.44995870000275,210.45018549999804,210.46662010000728,210.46662010000728,210.46662010000728,210.53302740000072,,,,,210.99964900000487,,,,down,4.992663700002595,None,space,0.5192495000083,None,,,,,,,,,,,,,,,P1047,001,2025-04-11_08h29.29.702,posner_endo_new1,2024.2.4,60.10811044319445,2025-04-11 08h29.39.709741 +0100,
cube_l.png,0.1,0.31,invalid,10,10,0,down,5.37269550000201,None,space,0.46272649998718407,None,,,,,0,10,10,10,,,,,211.0154881000053,,,,,,,,,,,,,210.99982179999643,211.0154881000053,211.0154881000053,211.0154881000053,216.39422030000424,,,,216.40037469999515,216.41199710000365,216.41199710000365,216.460602200008,216.4608281999972,216.477025900007,216.477025900007,216.477025900007,216.54369320000114,,,,,216.94394670000474,,,,down,5.37269550000201,None,space,0.46272649998718407,None,,,,,,,,,,,,,,,P1047,001,2025-04-11_08h29.29.702,posner_endo_new1,2024.2.4,60.10811044319445,2025-04-11 08h29.39.709741 +0100,
cube_r.png,0.1,-0.31,invalid,11,11,0,down,5.05311310000252,None,space,0.47490089999337215,None,,,,,0,11,11,11,,,,,216.9599820000003,,,,,,,,,,,,,216.94412590000138,216.9599820000003,216.9599820000003,216.9599820000003,222.02208429999882,,,,222.02810759999556,222.03985790000297,222.03985790000297,222.0879835999949,222.08821159999934,222.1044089000061,222.1044089000061,222.1044089000061,222.17105449999508,,,,,222.5880218999955,,,,down,5.05311310000252,None,space,0.47490089999337215,None,,,,,,,,,,,,,,,P1047,001,2025-04-11_08h29.29.702,posner_endo_new1,2024.2.4,60.10811044319445,2025-04-11 08h29.39.709741 +0100,
cube_r.png,0.1,0.31,valid,12,12,0,down,5.825366000004578,None,space,0.4576085000007879,None,,,,,0,12,12,12,,,,,222.6040107000008,,,,,,,,,,,,,222.58819470000162,222.6040107000008,222.6040107000008,222.6040107000008,228.43420479999622,,,,228.45740699999442,228.46945170000254,228.46945170000254,228.497761000006,228.49811359999876,228.5142954000039,228.5142954000039,228.5142954000039,228.5978000000032,,,,,228.98207739999634,,,,down,5.825366000004578,None,space,0.4576085000007879,None,,,,,,,,,,,,,,,P1047,001,2025-04-11_08h29.29.702,posner_endo_new1,2024.2.4,60.10811044319445,2025-04-11 08h29.39.709741 +0100,
cube_l.png,0.1,10,catch,13,13,0,down,5.231787900003837,None,None,,,,,,,0,13,13,13,,,,,228.99738820000493,,,,,,,,,,,,,228.98236789999646,228.99738820000493,228.99738820000493,228.99738820000493,234.24326190000284,,,,234.2548158999998,234.26494239999738,234.26494239999738,234.30875090000336,234.30909720000636,234.32514129999618,234.32514129999618,234.32514129999618,234.40846380000585,236.4231359999976,237.3389227000007,237.3389227000007,237.3389227000007,237.32290060000378,,,,down,5.231787900003837,None,None,,,,,,,,,,,,,,,,,P1047,001,2025-04-11_08h29.29.702,posner_endo_new1,2024.2.4,60.10811044319445,2025-04-11 08h29.39.709741 +0100,
cube_r.png,0.1,-0.31,invalid,14,14,0,down,2.8813211000087904,None,space,0.5117548999987775,None,,,,,0,14,14,14,,,,,237.3389227000007,,,,,,,,,,,,,237.32317079999484,237.3389227000007,237.3389227000007,237.3389227000007,240.23705640000117,,,,240.24871309999435,240.25849249999737,240.25849249999737,240.3026400999952,240.30298979999498,240.31920009999885,240.31920009999885,240.31920009999885,240.4023567999975,,,,,240.83641180000268,,,,down,2.8813211000087904,None,space,0.5117548999987775,None,,,,,,,,,,,,,,,P1047,001,2025-04-11_08h29.29.702,posner_endo_new1,2024.2.4,60.10811044319445,2025-04-11 08h29.39.709741 +0100,
cube_l.png,0.1,-0.31,valid,15,15,0,down,4.640732299987576,None,space,0.4627507999975933,None,,,,,0,15,15,15,,,,,240.85188650000782,,,,,,,,,,,,,240.83670650000568,240.85188650000782,240.85188650000782,240.85188650000782,245.49841600000218,,,,245.50999439999578,245.52018049999606,245.52018049999606,245.5639738000027,245.56432059999497,245.58058500000334,245.58058500000334,245.58058500000334,245.66366639999615,,,,,246.0480291999993,,,,down,4.640732299987576,None,space,0.4627507999975933,None,,,,,,,,,,,,,,,P1047,001,2025-04-11_08h29.29.702,posner_endo_new1,2024.2.4,60.10811044319445,2025-04-11 08h29.39.709741 +0100,
cube_r.png,0.1,10,catch,16,16,0,down,5.301300300008734,None,None,,,,,,,0,16,16,16,,,,,246.0632934000023,,,,,,,,,,,,,246.04832250000618,246.0632934000023,246.0632934000023,246.0632934000023,251.37565950000135,,,,251.38724530000763,251.3975214999955,251.3975214999955,251.4413491000014,251.44170300000405,251.45779810000386,251.45779810000386,251.45779810000386,251.54101620000438,253.55562880000798,254.47141120000742,254.47141120000742,254.47141120000742,254.45545180000772,,,,down,5.301300300008734,None,None,,,,,,,,,,,,,,,,,P1047,001,2025-04-11_08h29.29.702,posner_endo_new1,2024.2.4,60.10811044319445,2025-04-11 08h29.39.709741 +0100,
cube_r.png,0.1,10,catch,17,17,0,down,4.309431000001496,None,None,,,,,,,0,17,17,17,,,,,254.47141120000742,,,,,,,,,,,,,254.4557222000003,254.47141120000742,254.47141120000742,254.47141120000742,258.7848976999958,,,,258.7964895000041,258.8067221999954,258.8067221999954,258.850331499998,258.85068010000396,258.86675660000765,258.86675660000765,258.86675660000765,258.9500504000025,260.9644558,261.88047709999955,261.88047709999955,261.88047709999955,261.8645949000056,,,,down,4.309431000001496,None,None,,,,,,,,,,,,,,,,,P1047,001,2025-04-11_08h29.29.702,posner_endo_new1,2024.2.4,60.10811044319445,2025-04-11 08h29.39.709741 +0100,
cube_l.png,0.1,0.31,invalid,18,18,0,down,3.788005799986422,None,space,0.40547009999863803,None,,,,,0,18,18,18,,,,,261.88047709999955,,,,,,,,,,,,,261.86486450000666,261.88047709999955,261.88047709999955,261.88047709999955,265.67773229999875,,,,265.6892338000034,265.69938420000835,265.69938420000835,265.7433402000024,265.74369119999756,265.7597322000074,265.7597322000074,265.7597322000074,265.8430238000001,,,,,266.17724839999573,,,,down,3.788005799986422,None,space,0.40547009999863803,None,,,,,,,,,,,,,,,P1047,001,2025-04-11_08h29.29.702,posner_endo_new1,2024.2.4,60.10811044319445,2025-04-11 08h29.39.709741 +0100,
cube_l.png,0.1,10,catch,19,19,0,down,6.124061700000311,None,None,,,,,,,0,19,19,19,,,,,266.1926552000077,,,,,,,,,,,,,266.17753830000584,266.1926552000077,266.1926552000077,266.1926552000077,272.32094970000617,,,,272.3303697000083,272.33996379999735,272.33996379999735,272.38657099999546,272.3868152000068,272.4032167999976,272.4032167999976,272.4032167999976,272.48620860000665,274.5009429000056,275.41670420000446,275.41670420000446,275.41670420000446,275.40062490000855,,,,down,6.124061700000311,None,None,,,,,,,,,,,,,,,,,P1047,001,2025-04-11_08h29.29.702,posner_endo_new1,2024.2.4,60.10811044319445,2025-04-11 08h29.39.709741 +0100,
cube_l.png,0.1,0.31,invalid,20,20,0,down,3.563919400010491,None,space,1.432162099998095,None,,,,,0,20,20,20,,,,,275.41670420000446,,,,,,,,,,,,,275.4007988000085,275.41670420000446,275.41670420000446,275.41670420000446,278.9971310999972,,,,279.00411890000396,279.0156324999989,279.0156324999989,279.0631474999973,279.06339120000484,279.0795208000054,279.0795208000054,279.0795208000054,279.14629770000465,,,,,280.5125423999998,,,,down,3.563919400010491,None,space,1.432162099998095,None,,,,,,,,,,,,,,,P1047,001,2025-04-11_08h29.29.702,posner_endo_new1,2024.2.4,60.10811044319445,2025-04-11 08h29.39.709741 +0100,
cube_l.png,0.1,-0.31,valid,21,21,0,down,4.036513600003673,None,space,0.4044629999989411,None,,,,,0,21,21,21,,,,,280.52826210000785,,,,,,,,,,,,,280.51273810000566,280.52826210000785,280.52826210000785,280.52826210000785,284.5747839999967,,,,284.581755399995,284.5933551000053,284.5933551000053,284.6407918000041,284.6410321000003,284.6574263000075,284.6574263000075,284.6574263000075,284.72397590000764,,,,,285.0743790999986,,,,down,4.036513600003673,None,space,0.4044629999989411,None,,,,,,,,,,,,,,,P1047,001,2025-04-11_08h29.29.702,posner_endo_new1,2024.2.4,60.10811044319445,2025-04-11 08h29.39.709741 +0100,
cube_r.png,0.1,0.31,valid,22,22,0,down,4.898498800001107,None,space,0.6210697999922559,None,,,,,0,22,22,22,,,,,285.090228800007,,,,,,,,,,,,,285.07456639999873,285.090228800007,285.090228800007,285.090228800007,290.00210009999864,,,,290.0090474000026,290.02074999999604,290.02074999999604,290.06860369999777,290.06884049999644,290.08491669999785,290.08491669999785,290.08491669999785,290.15152329999546,,,,,290.71840410000004,,,,down,4.898498800001107,None,space,0.6210697999922559,None,,,,,,,,,,,,,,,P1047,001,2025-04-11_08h29.29.702,posner_endo_new1,2024.2.4,60.10811044319445,2025-04-11 08h29.39.709741 +0100,
cube_r.png,0.1,-0.31,invalid,23,23,0,down,4.0702227000001585,None,space,0.4447034999902826,None,,,,,0,23,23,23,,,,,290.7343897999963,,,,,,,,,,,,,290.71857779999846,290.7343897999963,290.7343897999963,290.7343897999963,294.8142941999977,,,,294.8203191000066,294.83180210000137,294.83180210000137,294.8801169000071,294.8803426000086,294.8968645999994,294.8968645999994,294.8968645999994,294.9633640999964,,,,,295.34716760000447,,,,down,4.0702227000001585,None,space,0.4447034999902826,None,,,,,,,,,,,,,,,P1047,001,2025-04-11_08h29.29.702,posner_endo_new1,2024.2.4,60.10811044319445,2025-04-11 08h29.39.709741 +0100,
cube_r.png,0.1,0.31,valid,24,24,0,down,4.62655580000137,None,space,0.5011426999990363,None,,,,,0,24,24,24,,,,,295.3628841000027,,,,,,,,,,,,,295.347340399996,295.3628841000027,295.3628841000027,295.3628841000027,299.99202550000336,,,,299.9980299000017,300.00950630000443,300.00950630000443,300.0582970999967,300.0585267999995,300.0747795000061,300.0747795000061,300.0747795000061,300.14142739999807,,,,,300.5916548999958,,,,down,4.62655580000137,None,space,0.5011426999990363,None,,,,,,,,,,,,,,,P1047,001,2025-04-11_08h29.29.702,posner_endo_new1,2024.2.4,60.10811044319445,2025-04-11 08h29.39.709741 +0100,
cube_r.png,0.1,-0.31,invalid,25,25,0,down,5.469281799989403,None,space,0.5120107999973698,None,,,,,0,25,25,25,,,,,300.6076589000004,,,,,,,,,,,,,300.5918351,300.6076589000004,300.6076589000004,300.6076589000004,306.08780229999684,,,,306.10899760000757,306.1193093000038,306.1193093000038,306.15187549999973,306.1522219000035,306.16847089999646,306.16847089999646,306.16847089999646,306.25166829999944,,,,,306.6858251999947,,,,down,5.469281799989403,None,space,0.5120107999973698,None,,,,,,,,,,,,,,,P1047,001,2025-04-11_08h29.29.702,posner_endo_new1,2024.2.4,60.10811044319445,2025-04-11 08h29.39.709741 +0100,
cube_l.png,0.1,-0.31,valid,26,26,0,down,3.920021899990388,None,space,0.43588849999650847,None,,,,,0,26,26,26,,,,,306.7012964000023,,,,,,,,,,,,,306.6861151000048,306.7012964000023,306.7012964000023,306.7012964000023,310.6316941999976,,,,310.64093900000444,310.6505546999979,310.6505546999979,310.69749999999476,310.6977437000023,310.71394560000044,310.71394560000044,310.71394560000044,310.79716980000376,,,,,311.1641917000088,,,,down,3.920021899990388,None,space,0.43588849999650847,None,,,,,,,,,,,,,,,P1047,001,2025-04-11_08h29.29.702,posner_endo_new1,2024.2.4,60.10811044319445,2025-04-11 08h29.39.709741 +0100,
cube_r.png,0.1,0.31,valid,27,27,0,down,5.152879400004167,None,space,0.3393971000041347,None,,,,,0,27,27,27,,,,,311.18008770000597,,,,,,,,,,,,,311.1643793999974,311.18008770000597,311.18008770000597,311.18008770000597,316.34231100000034,,,,316.3493019000016,316.3609559000033,316.3609559000033,316.4083551000076,316.40857909999613,316.42440020000504,316.42440020000504,316.42440020000504,316.4912900000054,,,,,316.7750537999964,,,,down,5.152879400004167,None,space,0.3393971000041347,None,,,,,,,,,,,,,,,P1047,001,2025-04-11_08h29.29.702,posner_endo_new1,2024.2.4,60.10811044319445,2025-04-11 08h29.39.709741 +0100,
cube_r.png,0.1,10,catch,28,28,0,down,3.269742500007851,None,None,,,,,,,0,28,28,28,,,,,316.7910766999994,,,,,,,,,,,,,316.7752307000046,316.7910766999994,316.7910766999994,316.7910766999994,320.07170719999704,,,,320.07772460000706,320.0896228000056,320.0896228000056,320.1376816999982,320.13790580000204,320.15410050000355,320.15410050000355,320.15410050000355,320.22091800000635,322.235018899999,323.1673879000009,323.1673879000009,323.1673879000009,323.15155189999496,,,,down,3.269742500007851,None,None,,,,,,,,,,,,,,,,,P1047,001,2025-04-11_08h29.29.702,posner_endo_new1,2024.2.4,60.10811044319445,2025-04-11 08h29.39.709741 +0100,
cube_r.png,0.1,0.31,valid,29,29,0,down,9.581464600007166,None,space,0.6126093000057153,None,,,,,0,29,29,29,,,,,323.1673879000009,,,,,,,,,,,,,323.1518524999992,323.1673879000009,323.1673879000009,323.1673879000009,332.75893579999683,,,,332.77171090000775,332.78211010000086,332.78211010000086,332.824781000003,332.8250676000025,332.8414139000088,332.8414139000088,332.8414139000088,332.90788850000536,,,,,333.45848770000157,,,,down,9.581464600007166,None,space,0.6126093000057153,None,,,,,,,,,,,,,,,P1047,001,2025-04-11_08h29.29.702,posner_endo_new1,2024.2.4,60.10811044319445,2025-04-11 08h29.39.709741 +0100,
cube_r.png,0.1,0.31,valid,30,30,0,down,6.378465100002359,None,space,0.5105456999881426,None,,,,,0,30,30,30,,,,,333.4737346000038,,,,,,,,,,,,,333.458713,333.4737346000038,333.4737346000038,333.4737346000038,339.86837759999617,,,,339.8769234000065,339.8870975000027,339.8870975000027,339.9341854000086,339.9344687999983,339.95062649999454,339.95062649999454,339.95062649999454,340.03391090000514,,,,,340.4678750000021,,,,down,6.378465100002359,None,space,0.5105456999881426,None,,,,,,,,,,,,,,,P1047,001,2025-04-11_08h29.29.702,posner_endo_new1,2024.2.4,60.10811044319445,2025-04-11 08h29.39.709741 +0100,
cube_l.png,0.1,-0.31,valid,31,31,0,down,5.345318099993165,None,space,0.4733307999995304,None,,,,,0,31,31,31,,,,,340.4831928000058,,,,,,,,,,,,,340.4681008000043,340.4831928000058,340.4831928000058,340.4831928000058,345.84542430000147,,,,345.8538933999953,345.8642175999994,345.8642175999994,345.911431600005,345.91171240000403,345.92783830000553,345.92783830000553,345.92783830000553,345.9943931000016,,,,,346.411666400003,,,,down,5.345318099993165,None,space,0.4733307999995304,None,,,,,,,,,,,,,,,P1047,001,2025-04-11_08h29.29.702,posner_endo_new1,2024.2.4,60.10811044319445,2025-04-11 08h29.39.709741 +0100,
cube_r.png,0.1,0.31,valid,32,32,0,down,5.145118799991906,None,space,0.5337407000042731,None,,,,,0,32,32,32,,,,,346.4273484000005,,,,,,,,,,,,,346.4118925000075,346.4273484000005,346.4273484000005,346.4273484000005,351.5895351000072,,,,351.5981468999962,351.60820149999927,351.60820149999927,351.6554494000011,351.65572759999486,351.67209710000316,351.67209710000316,351.67209710000316,351.7387332000071,,,,,352.2223774000013,,,,down,5.145118799991906,None,space,0.5337407000042731,None,,,,,,,,,,,,,,,P1047,001,2025-04-11_08h29.29.702,posner_endo_new1,2024.2.4,60.10811044319445,2025-04-11 08h29.39.709741 +0100,
cube_r.png,0.1,-0.31,invalid,33,33,0,down,3.9185473999968963,None,space,0.5320553000055952,None,,,,,0,33,33,33,,,,,352.23824550000427,,,,,,,,,,,,,352.22260330000427,352.23824550000427,352.23824550000427,352.23824550000427,356.1682456999988,,,,356.1766976000072,356.1870229000051,356.1870229000051,356.2343664000073,356.2346458999964,356.25071750000643,356.25071750000643,356.25071750000643,356.31736349999846,,,,,356.7844477000035,,,,down,3.9185473999968963,None,space,0.5320553000055952,None,,,,,,,,,,,,,,,P1047,001,2025-04-11_08h29.29.702,posner_endo_new1,2024.2.4,60.10811044319445,2025-04-11 08h29.39.709741 +0100,
cube_r.png,0.1,10,catch,34,34,0,down,3.437147000004188,None,None,,,,,,,0,34,34,34,,,,,356.79997659999935,,,,,,,,,,,,,356.78467180000735,356.79997659999935,356.79997659999935,356.79997659999935,360.24742519999563,,,,360.2558726999996,360.2660967999982,360.2660967999982,360.3133592999948,360.31363810000767,360.32990500000597,360.32990500000597,360.32990500000597,360.41309859999456,362.42763489999925,363.34344290000445,363.34344290000445,363.34344290000445,363.327395100001,,,,down,3.437147000004188,None,None,,,,,,,,,,,,,,,,,P1047,001,2025-04-11_08h29.29.702,posner_endo_new1,2024.2.4,60.10811044319445,2025-04-11 08h29.39.709741 +0100,
cube_r.png,0.1,0.31,valid,35,35,0,down,3.245326099990052,None,space,0.48319610000180546,None,,,,,0,35,35,35,,,,,363.34344290000445,,,,,,,,,,,,,363.3276057000039,363.34344290000445,363.34344290000445,363.34344290000445,366.59103440000035,,,,366.5996368000051,366.60973959999683,366.60973959999683,366.6566964999947,366.65697520000685,366.6734812000068,366.6734812000068,366.6734812000068,366.756615300008,,,,,367.1736469000025,,,,down,3.245326099990052,None,space,0.48319610000180546,None,,,,,,,,,,,,,,,P1047,001,2025-04-11_08h29.29.702,posner_endo_new1,2024.2.4,60.10811044319445,2025-04-11 08h29.39.709741 +0100,
cube_r.png,0.1,-0.31,invalid,36,36,0,down,5.2396976000018185,None,space,0.5171487000043271,None,,,,,0,36,36,36,,,,,367.1893878999981,,,,,,,,,,,,,367.1738769000076,367.1893878999981,367.1893878999981,367.1893878999981,372.43490560000646,,,,372.4434235999943,372.4537568000087,372.4537568000087,372.50085209999816,372.5011435000051,372.51729940000223,372.51729940000223,372.51729940000223,372.6006281000009,,,,,373.05119019999984,,,,down,5.2396976000018185,None,space,0.5171487000043271,None,,,,,,,,,,,,,,,P1047,001,2025-04-11_08h29.29.702,posner_endo_new1,2024.2.4,60.10811044319445,2025-04-11 08h29.39.709741 +0100,
cube_l.png,0.1,0.31,invalid,37,37,0,down,3.842248400003882,None,space,0.5475947999948403,None,,,,,0,37,37,37,,,,,373.06679820000136,,,,,,,,,,,,,373.051423900004,373.06679820000136,373.06679820000136,373.06679820000136,376.913933799995,,,,376.9223854000011,376.93242949999694,376.93242949999694,376.97951730000204,376.97979620000115,376.99601289999555,376.99601289999555,376.99601289999555,377.07924960000673,,,,,377.54652129999886,,,,down,3.842248400003882,None,space,0.5475947999948403,None,,,,,,,,,,,,,,,P1047,001,2025-04-11_08h29.29.702,posner_endo_new1,2024.2.4,60.10811044319445,2025-04-11 08h29.39.709741 +0100,
cube_l.png,0.1,0.31,invalid,38,38,0,down,4.506168000007165,None,space,0.43895889999112114,None,,,,,0,38,38,38,,,,,377.5622178000049,,,,,,,,,,,,,377.54674499999965,377.5622178000049,377.5622178000049,377.5622178000049,382.07508140000573,,,,382.0835322000057,382.0939040000085,382.0939040000085,382.1409868000046,382.14126780000515,382.1576400000049,382.1576400000049,382.1576400000049,382.2241073000041,,,,,382.60788989999855,,,,down,4.506168000007165,None,space,0.43895889999112114,None,,,,,,,,,,,,,,,P1047,001,2025-04-11_08h29.29.702,posner_endo_new1,2024.2.4,60.10811044319445,2025-04-11 08h29.39.709741 +0100,
cube_r.png,0.1,0.31,valid,39,39,0,down,11.74940929999866,None,space,0.4541901000047801,None,,,,,0,39,39,39,,,,,382.62363250000635,,,,,,,,,,,,,382.6081139000016,382.62363250000635,382.62363250000635,382.62363250000635,394.3791591000045,,,,394.3876830999943,394.39785069999925,394.39785069999925,394.4450368999969,394.44531789999746,394.46162479999475,394.46162479999475,394.46162479999475,394.52798680000706,,,,,394.9285983000009,,,,down,11.74940929999866,None,space,0.4541901000047801,None,,,,,,,,,,,,,,,P1047,001,2025-04-11_08h29.29.702,posner_endo_new1,2024.2.4,60.10811044319445,2025-04-11 08h29.39.709741 +0100,
cube_l.png,0.1,0.31,invalid,40,40,0,down,9.92415570000594,None,space,0.4020221999962814,None,,,,,0,40,40,40,,,,,394.94451010000193,,,,,,,,,,,,,394.928826000003,394.94451010000193,394.94451010000193,394.94451010000193,404.8852627000015,,,,404.8968210000021,404.90663520000817,404.90663520000817,404.9507764000009,404.95112599999993,404.9673824000056,404.9673824000056,404.9673824000056,405.0505151999969,,,,,405.38478900000337,,,,down,9.92415570000594,None,space,0.4020221999962814,None,,,,,,,,,,,,,,,P1047,001,2025-04-11_08h29.29.702,posner_endo_new1,2024.2.4,60.10811044319445,2025-04-11 08h29.39.709741 +0100,
cube_l.png,0.1,10,catch,41,41,0,down,3.6121137000009185,None,None,,,,,,,0,41,41,41,,,,,405.40014939999674,,,,,,,,,,,,,405.38507829999435,405.40014939999674,405.40014939999674,405.40014939999674,409.01438740000594,,,,409.0217282000085,409.0329023000086,409.0329023000086,409.08002249999845,409.0803758999973,409.09652600000845,409.09652600000845,409.09652600000845,409.1797416000045,411.19439760000387,412.1100402000011,412.1100402000011,412.1100402000011,412.09419070000877,,,,down,3.6121137000009185,None,None,,,,,,,,,,,,,,,,,P1047,001,2025-04-11_08h29.29.702,posner_endo_new1,2024.2.4,60.10811044319445,2025-04-11 08h29.39.709741 +0100,
cube_l.png,0.1,-0.31,valid,42,42,0,down,1.2470399000012549,None,space,0.519129200009047,None,,,,,0,42,42,42,,,,,412.1100402000011,,,,,,,,,,,,,412.09445869999763,412.1100402000011,412.1100402000011,412.1100402000011,413.36010249999526,,,,413.37158679999993,413.3818803000031,413.3818803000031,413.4256633000041,413.4259117000038,413.44213840000157,413.44213840000157,413.44213840000157,413.5254050000076,,,,,413.9757555999968,,,,down,1.2470399000012549,None,space,0.519129200009047,None,,,,,,,,,,,,,,,P1047,001,2025-04-11_08h29.29.702,posner_endo_new1,2024.2.4,60.10811044319445,2025-04-11 08h29.39.709741 +0100,
cube_l.png,0.1,10,catch,43,43,0,down,4.57295420000446,None,None,,,,,,,0,43,43,43,,,,,413.9914598000032,,,,,,,,,,,,,413.9759516000049,413.9914598000032,413.9914598000032,413.9914598000032,418.5709741000028,,,,418.5783678000007,418.58981479999784,418.58981479999784,418.6370026000077,418.63725200000044,418.65344639999967,418.65344639999967,418.65344639999967,418.7201512000029,420.73460189999605,421.6668842000072,421.6668842000072,421.6668842000072,421.65091270000266,,,,down,4.57295420000446,None,None,,,,,,,,,,,,,,,,,P1047,001,2025-04-11_08h29.29.702,posner_endo_new1,2024.2.4,60.10811044319445,2025-04-11 08h29.39.709741 +0100,
cube_l.png,0.1,0.31,invalid,44,44,0,down,2.1539175999932922,None,space,0.6329884000006132,None,,,,,0,44,44,44,,,,,421.6668842000072,,,,,,,,,,,,,421.651096600006,421.6668842000072,421.6668842000072,421.6668842000072,423.8323670999962,,,,423.83976760000223,423.8510868000012,423.8510868000012,423.8983831000078,423.89863270000205,423.9147421999951,423.9147421999951,423.9147421999951,423.980982699999,,,,,424.54853719999664,,,,down,2.1539175999932922,None,space,0.6329884000006132,None,,,,,,,,,,,,,,,P1047,001,2025-04-11_08h29.29.702,posner_endo_new1,2024.2.4,60.10811044319445,2025-04-11 08h29.39.709741 +0100,
cube_l.png,0.1,0.31,invalid,45,45,0,down,5.048393200006103,None,space,0.4417037000093842,None,,,,,0,45,45,45,,,,,424.5640584000066,,,,,,,,,,,,,424.54873809999845,424.5640584000066,424.5640584000066,424.5640584000066,429.6264061999973,,,,429.6338767999987,429.6451422999962,429.6451422999962,429.6920698000031,429.69232020000345,429.70895729999756,429.70895729999756,429.70895729999756,429.775478399999,,,,,430.159109900007,,,,down,5.048393200006103,None,space,0.4417037000093842,None,,,,,,,,,,,,,,,P1047,001,2025-04-11_08h29.29.702,posner_endo_new1,2024.2.4,60.10811044319445,2025-04-11 08h29.39.709741 +0100,
cube_r.png,0.1,0.31,valid,46,46,0,down,17.83034260000568,None,space,0.4579830000002403,None,,,,,0,46,46,46,,,,,430.1747985999973,,,,,,,,,,,,,430.1593053999968,430.1747985999973,430.1747985999973,430.1747985999973,448.0078882999951,,,,448.01776089999476,448.028152400002,448.028152400002,448.0734376000037,448.07374880000134,448.0899062999961,448.0899062999961,448.0899062999961,448.17313369999465,,,,,448.55719400000817,,,,down,17.83034260000568,None,space,0.4579830000002403,None,,,,,,,,,,,,,,,P1047,001,2025-04-11_08h29.29.702,posner_endo_new1,2024.2.4,60.10811044319445,2025-04-11 08h29.39.709741 +0100,
cube_l.png,0.1,-0.31,valid,47,47,0,down,5.688906999988831,None,space,0.5581404999975348,None,,,,,0,47,47,47,,,,,448.5727254000085,,,,,,,,,,,,,448.55744499999855,448.5727254000085,448.5727254000085,448.5727254000085,454.26807720000215,,,,454.2778011000046,454.28776300000027,454.28776300000027,454.3337625999993,454.3340781000006,454.3502123000071,454.3502123000071,454.3502123000071,454.4334923999995,,,,,454.917589699995,,,,down,5.688906999988831,None,space,0.5581404999975348,None,,,,,,,,,,,,,,,P1047,001,2025-04-11_08h29.29.702,posner_endo_new1,2024.2.4,60.10811044319445,2025-04-11 08h29.39.709741 +0100,
cube_r.png,0.1,-0.31,invalid,48,48,0,down,5.8562284000072395,None,space,0.39011520000349265,None,,,,,0,48,48,48,,,,,454.93293619999895,,,,,,,,,,,,,454.91783849999774,454.93293619999895,454.93293619999895,454.93293619999895,460.79463000000396,,,,460.80437680000614,460.8144014999998,460.8144014999998,460.8603296000074,460.8606366000022,460.87692490000336,460.87692490000336,460.87692490000336,460.9599862000032,,,,,461.27750379999634,,,,down,5.8562284000072395,None,space,0.39011520000349265,None,,,,,,,,,,,,,,,P1047,001,2025-04-11_08h29.29.702,posner_endo_new1,2024.2.4,60.10811044319445,2025-04-11 08h29.39.709741 +0100,
cube_r.png,0.1,10,catch,49,49,0,down,3.191485699993791,None,space,0.5283127999864519,None,,,,,0,49,49,49,,,,,461.2930306000053,,,,,,,,,,,,,461.27775269999984,461.2930306000053,461.2930306000053,461.2930306000053,464.49099999999453,,,,464.500687000007,464.51064710000355,464.51064710000355,464.55657580000116,464.55688469999586,464.5730818000011,464.5730818000011,464.5730818000011,464.65632120000373,,,,,465.1070597000071,,,,down,3.191485699993791,None,space,0.5283127999864519,None,,,,,,,,,,,,,,,P1047,001,2025-04-11_08h29.29.702,posner_endo_new1,2024.2.4,60.10811044319445,2025-04-11 08h29.39.709741 +0100,
cube_l.png,0.1,-0.31,valid,50,50,0,down,9.226513899993734,None,space,0.5124584000004688,None,,,,,0,50,50,50,,,,,465.1224530000036,,,,,,,,,,,,,465.1073303000012,465.1224530000036,465.1224530000036,465.1224530000036,474.36403650000284,,,,474.37376190000214,474.3838790000009,474.3838790000009,474.4298897999979,474.4301972999965,474.4462956000061,474.4462956000061,474.4462956000061,474.52934500000265,,,,,474.96357870000065,,,,down,9.226513899993734,None,space,0.5124584000004688,None,,,,,,,,,,,,,,,P1047,001,2025-04-11_08h29.29.702,posner_endo_new1,2024.2.4,60.10811044319445,2025-04-11 08h29.39.709741 +0100,
cube_l.png,0.1,-0.31,valid,51,51,0,down,5.52923759999976,None,space,0.30327430000761524,None,,,,,0,51,51,51,,,,,474.979084599996,,,,,,,,,,,,,474.96383540000534,474.979084599996,474.979084599996,474.979084599996,480.5244495000079,,,,480.534207699995,480.54424840000866,480.54424840000866,480.5905284000037,480.59119120000105,480.60691250000673,480.60691250000673,480.60691250000673,480.6734996000014,,,,,480.9255684999953,,,,down,5.52923759999976,None,space,0.30327430000761524,None,,,,,,,,,,,,,,,P1047,001,2025-04-11_08h29.29.702,posner_endo_new1,2024.2.4,60.10811044319445,2025-04-11 08h29.39.709741 +0100,
cube_r.png,0.1,-0.31,invalid,52,52,0,down,4.6330720000114525,None,space,0.341844199996558,None,,,,,0,52,52,52,,,,,480.939924899998,,,,,,,,,,,,,480.9261542000022,480.939924899998,480.939924899998,480.939924899998,485.58748640000704,,,,485.6109230000002,485.6230798000033,485.6230798000033,485.6514371000085,485.6518861000077,485.6681169000076,485.6681169000076,485.6681169000076,485.7514794000017,,,,,486.01894999999786,,,,down,4.6330720000114525,None,space,0.341844199996558,None,,,,,,,,,,,,,,,P1047,001,2025-04-11_08h29.29.702,posner_endo_new1,2024.2.4,60.10811044319445,2025-04-11 08h29.39.709741 +0100,
cube_l.png,0.1,-0.31,valid,53,53,0,down,5.330054499994731,None,space,0.40412550000473857,None,,,,,0,53,53,53,,,,,486.0344913000008,,,,,,,,,,,,,486.0191993000044,486.0344913000008,486.0344913000008,486.0344913000008,491.3800981999957,,,,491.3892269000062,491.39868990000105,491.39868990000105,491.4458674000052,491.4461001000018,491.46222869999474,491.46222869999474,491.46222869999474,491.54547670000466,,,,,491.87924199999543,,,,down,5.330054499994731,None,space,0.40412550000473857,None,,,,,,,,,,,,,,,P1047,001,2025-04-11_08h29.29.702,posner_endo_new1,2024.2.4,60.10811044319445,2025-04-11 08h29.39.709741 +0100,
cube_r.png,0.1,10,catch,54,54,0,down,10.14902820000134,None,None,,,,,,,0,54,54,54,,,,,491.8951689999958,,,,,,,,,,,,,491.87941700000374,491.8951689999958,491.8951689999958,491.8951689999958,502.0523708999972,,,,502.058572599999,502.07031530000677,502.07031530000677,502.11771489999956,502.11793910000415,502.1343155000068,502.1343155000068,502.1343155000068,502.2180192999949,504.23263090000546,505.1482560000004,505.1482560000004,505.1482560000004,505.13207970000803,,,,down,10.14902820000134,None,None,,,,,,,,,,,,,,,,,P1047,001,2025-04-11_08h29.29.702,posner_endo_new1,2024.2.4,60.10811044319445,2025-04-11 08h29.39.709741 +0100,
cube_l.png,0.1,0.31,invalid,55,55,0,down,11.75281069999619,None,space,0.5318910000059986,None,,,,,0,55,55,55,,,,,505.1482560000004,,,,,,,,,,,,,505.13225290000264,505.1482560000004,505.1482560000004,505.1482560000004,516.9034971000074,,,,516.9095420000085,516.9211371999991,516.9211371999991,516.9696700000059,516.9698948000005,516.9860214000073,516.9860214000073,516.9860214000073,517.0528207000025,,,,,517.5198396000051,,,,down,11.75281069999619,None,space,0.5318910000059986,None,,,,,,,,,,,,,,,P1047,001,2025-04-11_08h29.29.702,posner_endo_new1,2024.2.4,60.10811044319445,2025-04-11 08h29.39.709741 +0100,
cube_l.png,0.1,-0.31,valid,56,56,0,down,5.757224800006952,None,space,0.41799539999919944,None,,,,,0,56,56,56,,,,,517.5355486000044,,,,,,,,,,,,,517.5200134000042,517.5355486000044,517.5355486000044,517.5355486000044,523.2970653000084,,,,523.3030843000015,523.3146819999965,523.3146819999965,523.3626899000083,523.3629154999944,523.3797087999992,523.3797087999992,523.3797087999992,523.4461067000084,,,,,523.813210399996,,,,down,5.757224800006952,None,space,0.41799539999919944,None,,,,,,,,,,,,,,,P1047,001,2025-04-11_08h29.29.702,posner_endo_new1,2024.2.4,60.10811044319445,2025-04-11 08h29.39.709741 +0100,
cube_r.png,0.1,0.31,valid,57,57,0,down,3.4154012000071816,None,space,0.4696598000009544,None,,,,,0,57,57,57,,,,,523.8291642999975,,,,,,,,,,,,,523.8133821000083,523.8291642999975,523.8291642999975,523.8291642999975,527.2598979000031,,,,527.2659764999989,527.2776414999971,527.2776414999971,527.3255384000076,527.3257635000045,527.3417476000031,527.3417476000031,527.3417476000031,527.4087527000083,,,,,527.8256985000044,,,,down,3.4154012000071816,None,space,0.4696598000009544,None,,,,,,,,,,,,,,,P1047,001,2025-04-11_08h29.29.702,posner_endo_new1,2024.2.4,60.10811044319445,2025-04-11 08h29.39.709741 +0100,
cube_r.png,0.1,-0.31,invalid,58,58,0,down,5.931034900000668,None,space,0.5488366000063252,None,,,,,0,58,58,58,,,,,527.8416889000073,,,,,,,,,,,,,527.8258705000044,527.8416889000073,527.8416889000073,527.8416889000073,533.7881037000043,,,,533.8098355999973,533.8201273000013,533.8201273000013,533.8519835000043,533.8523352000047,533.868527700004,533.868527700004,533.868527700004,533.9520386000077,,,,,534.4197043000022,,,,down,5.931034900000668,None,space,0.5488366000063252,None,,,,,,,,,,,,,,,P1047,001,2025-04-11_08h29.29.702,posner_endo_new1,2024.2.4,60.10811044319445,2025-04-11 08h29.39.709741 +0100,
cube_l.png,0.1,0.31,invalid,59,59,0,down,2.4655943000107072,None,space,0.6480818999989424,None,,,,,0,59,59,59,,,,,534.4348000000027,,,,,,,,,,,,,534.419987900008,534.4348000000027,534.4348000000027,534.4348000000027,536.9165683000028,,,,536.9239205000049,536.9353178000019,536.9353178000019,536.9825342999975,536.9828838999965,536.9989815000008,536.9989815000008,536.9989815000008,537.0822270000062,,,,,537.6494717000023,,,,down,2.4655943000107072,None,space,0.6480818999989424,None,,,,,,,,,,,,,,,P1047,001,2025-04-11_08h29.29.702,posner_endo_new1,2024.2.4,60.10811044319445,2025-04-11 08h29.39.709741 +0100,
,,,,,,,,,,,,,,,,,,,,,,,,,,,,,,,,,,,,,,,,,,,,,,,,,,,,,,,,,,,,,,,,,,,,,537.6496591000032,537.6648982000042,537.6648982000042,597.6702593000082,610.0918626000057,space,72.42003400000976,None,,,,,,,P1047,001,2025-04-11_08h29.29.702,posner_endo_new1,2024.2.4,60.10811044319445,2025-04-11 08h29.39.709741 +0100,
,,,,,,,,,,,,,,,,,,,,,,,,,,,,,,,,,,610.0919259000075,610.1074518999958,613.199103100007,613.0882749000011,,,,,,,,,,,,,,,,,,,,,,,,,,,,,,,,,,,,,,,,,,,,,,P1047,001,2025-04-11_08h29.29.702,posner_endo_new1,2024.2.4,60.10811044319445,2025-04-11 08h29.39.709741 +0100,
cube_l.png,0.1,10,catch,0,0,0,up,12.903071000007913,None,None,,,,,,,,,,,0,0,0,0,613.199103100007,,,,,,,,,,,,,613.1906787000044,613.199103100007,613.199103100007,613.199103100007,626.1087608999951,,,,626.1149172000005,626.126685700001,626.126685700001,626.1742903999984,626.1745245000056,626.1910432000004,626.1910432000004,626.1910432000004,626.2742398999981,628.2886098000017,629.2052279000054,629.2052279000054,629.2052279000054,629.1884881000005,,,,,,,,,,,,,,,,,,up,12.903071000007913,None,None,,,P1047,001,2025-04-11_08h29.29.702,posner_endo_new1,2024.2.4,60.10811044319445,2025-04-11 08h29.39.709741 +0100,
cube_l.png,0.1,10,catch,1,1,0,up,4.215900699986378,None,None,,,,,,,,,,,0,1,1,1,629.2052279000054,,,,,,,,,,,,,629.1886519999971,629.2052279000054,629.2052279000054,629.2052279000054,633.4344610999979,,,,633.4405805999995,633.4524903999991,633.4524903999991,633.5003329000028,633.500563499998,633.5165810000035,633.5165810000035,633.5165810000035,633.5835827999981,635.5981943000079,636.5305286000075,636.5305286000075,636.5305286000075,636.5144520000031,,,,,,,,,,,,,,,,,,up,4.215900699986378,None,None,,,P1047,001,2025-04-11_08h29.29.702,posner_endo_new1,2024.2.4,60.10811044319445,2025-04-11 08h29.39.709741 +0100,
cube_l.png,0.1,0.31,invalid,2,2,0,up,2.538449199986644,None,space,0.4328538999980083,None,,,,,,,,,0,2,2,2,636.5305286000075,,,,,,,,,,,,,636.514616600005,636.5305286000075,636.5305286000075,636.5305286000075,639.0786882999964,,,,639.0847506999999,639.0964677000011,639.0964677000011,639.1446961000038,639.1449228999991,639.1611123000039,639.1611123000039,639.1611123000039,639.2277782000019,,,,,639.5948088000005,,,,,,,,,,,,,,,,,,up,2.538449199986644,None,space,0.4328538999980083,None,P1047,001,2025-04-11_08h29.29.702,posner_endo_new1,2024.2.4,60.10811044319445,2025-04-11 08h29.39.709741 +0100,
cube_l.png,0.1,0.31,invalid,3,3,0,up,5.426329699999769,None,space,0.4609660999994958,None,,,,,,,,,0,3,3,3,639.610781299998,,,,,,,,,,,,,639.5949894000078,639.610781299998,639.610781299998,639.610781299998,645.0392131999979,,,,645.0451859000023,645.0566457999957,645.0566457999957,645.1052939000074,645.1055226000026,645.121648100001,645.121648100001,645.121648100001,645.2051445999969,,,,,645.5884598999983,,,,,,,,,,,,,,,,,,up,5.426329699999769,None,space,0.4609660999994958,None,P1047,001,2025-04-11_08h29.29.702,posner_endo_new1,2024.2.4,60.10811044319445,2025-04-11 08h29.39.709741 +0100,
cube_l.png,0.1,-0.31,valid,4,4,0,up,6.952680399990641,None,space,0.46101939999789465,None,,,,,,,,,0,4,4,4,645.604293700002,,,,,,,,,,,,,645.5886373999965,645.604293700002,645.604293700002,645.604293700002,652.5648914000049,,,,652.5709577999951,652.5827331000037,652.5827331000037,652.6307681000035,652.6309923999943,652.6474288000027,652.6474288000027,652.6474288000027,652.7305548000004,,,,,653.1143469999952,,,,,,,,,,,,,,,,,,up,6.952680399990641,None,space,0.46101939999789465,None,P1047,001,2025-04-11_08h29.29.702,posner_endo_new1,2024.2.4,60.10811044319445,2025-04-11 08h29.39.709741 +0100,
cube_r.png,0.1,-0.31,invalid,5,5,0,up,6.538290399999823,None,space,0.5997156000084942,None,,,,,,,,,0,5,5,5,653.1302640000067,,,,,,,,,,,,,653.1145248999965,653.1302640000067,653.1302640000067,653.1302640000067,659.6742584000021,,,,659.6803422000085,659.6920510000054,659.6920510000054,659.7403684000019,659.7405954999995,659.7567299000075,659.7567299000075,659.7567299000075,659.823304000005,,,,,660.373139000003,,,,,,,,,,,,,,,,,,up,6.538290399999823,None,space,0.5997156000084942,None,P1047,001,2025-04-11_08h29.29.702,posner_endo_new1,2024.2.4,60.10811044319445,2025-04-11 08h29.39.709741 +0100,
cube_r.png,0.1,0.31,valid,6,6,0,up,5.7032277999969665,None,space,0.32225280000420753,None,,,,,,,,,0,6,6,6,660.3894752000051,,,,,,,,,,,,,660.3733155000082,660.3894752000051,660.3894752000051,660.3894752000051,666.1029828000028,,,,666.1261783000082,666.1383094000048,666.1383094000048,666.1666431000049,666.1669962000014,666.1830743000028,666.1830743000028,666.1830743000028,666.2666043000063,,,,,666.5175478000019,,,,,,,,,,,,,,,,,,up,5.7032277999969665,None,space,0.32225280000420753,None,P1047,001,2025-04-11_08h29.29.702,posner_endo_new1,2024.2.4,60.10811044319445,2025-04-11 08h29.39.709741 +0100,
cube_r.png,0.1,-0.31,invalid,7,7,0,up,8.191841100007878,None,space,0.457769400003599,None,,,,,,,,,0,7,7,7,666.5330303999945,,,,,,,,,,,,,666.5178395999974,666.5330303999945,666.5330303999945,666.5330303999945,674.7260457000084,,,,674.7376534000068,674.7477548000024,674.7477548000024,674.7913493000087,674.7916976999986,674.8077920000069,674.8077920000069,674.8077920000069,674.8911988000036,,,,,675.2752497000038,,,,,,,,,,,,,,,,,,up,8.191841100007878,None,space,0.457769400003599,None,P1047,001,2025-04-11_08h29.29.702,posner_endo_new1,2024.2.4,60.10811044319445,2025-04-11 08h29.39.709741 +0100,
cube_l.png,0.1,-0.31,valid,8,8,0,up,11.498238699990907,None,space,0.5056901999923866,None,,,,,,,,,0,8,8,8,675.2906880000082,,,,,,,,,,,,,675.2755497000035,675.2906880000082,675.2906880000082,675.2906880000082,686.7969455999992,,,,686.8085804000002,686.8187372999964,686.8187372999964,686.862386000008,686.8627358999947,686.8788378000027,686.8788378000027,686.8788378000027,686.9620697000064,,,,,687.3963475000055,,,,,,,,,,,,,,,,,,up,11.498238699990907,None,space,0.5056901999923866,None,P1047,001,2025-04-11_08h29.29.702,posner_endo_new1,2024.2.4,60.10811044319445,2025-04-11 08h29.39.709741 +0100,
cube_r.png,0.1,-0.31,invalid,9,9,0,up,5.7688200999982655,None,space,0.37290529999881983,None,,,,,,,,,0,9,9,9,687.4116513000045,,,,,,,,,,,,,687.3966523999989,687.4116513000045,687.4116513000045,687.4116513000045,693.1916612000059,,,,693.2148146999971,693.2271636000078,693.2271636000078,693.2556493000011,693.2560465999995,693.2721691000042,693.2721691000042,693.2721691000042,693.3552349999954,,,,,693.6563106999965,,,,,,,,,,,,,,,,,,up,5.7688200999982655,None,space,0.37290529999881983,None,P1047,001,2025-04-11_08h29.29.702,posner_endo_new1,2024.2.4,60.10811044319445,2025-04-11 08h29.39.709741 +0100,
cube_l.png,0.1,0.31,invalid,10,10,0,up,4.73266139999032,None,space,0.48393980000400916,None,,,,,,,,,0,10,10,10,693.6716119000048,,,,,,,,,,,,,693.6566440000024,693.6716119000048,693.6716119000048,693.6716119000048,698.4180110000016,,,,698.4265333000076,698.4368516999966,698.4368516999966,698.4839971000038,698.4842802000057,698.5004164999991,698.5004164999991,698.5004164999991,698.5836024000018,,,,,699.0009148999961,,,,,,,,,,,,,,,,,,up,4.73266139999032,None,space,0.48393980000400916,None,P1047,001,2025-04-11_08h29.29.702,posner_endo_new1,2024.2.4,60.10811044319445,2025-04-11 08h29.39.709741 +0100,
cube_r.png,0.1,-0.31,invalid,11,11,0,up,6.923673500001314,None,space,0.4028961000003619,None,,,,,,,,,0,11,11,11,699.016606300007,,,,,,,,,,,,,699.0011461999966,699.016606300007,699.016606300007,699.016606300007,705.943780600006,,,,705.9523184999998,705.9623929000081,705.9623929000081,706.0092446000053,706.009916199997,706.026265499997,706.026265499997,706.026265499997,706.1089480999944,,,,,706.4435037000076,,,,,,,,,,,,,,,,,,up,6.923673500001314,None,space,0.4028961000003619,None,P1047,001,2025-04-11_08h29.29.702,posner_endo_new1,2024.2.4,60.10811044319445,2025-04-11 08h29.39.709741 +0100,
cube_r.png,0.1,0.31,valid,12,12,0,up,6.097651599993696,None,space,0.3173927000025287,None,,,,,,,,,0,12,12,12,706.4586122000037,,,,,,,,,,,,,706.4438869000005,706.4586122000037,706.4586122000037,706.4586122000037,712.5706308000081,,,,712.5805589999945,712.5905123999983,712.5905123999983,712.6360800999973,712.6363909000065,712.6526519000035,712.6526519000035,712.6526519000035,712.7358253999992,,,,,712.9866163999977,,,,,,,,,,,,,,,,,,up,6.097651599993696,None,space,0.3173927000025287,None,P1047,001,2025-04-11_08h29.29.702,posner_endo_new1,2024.2.4,60.10811044319445,2025-04-11 08h29.39.709741 +0100,
cube_l.png,0.1,10,catch,13,13,0,up,5.442681200001971,None,None,,,,,,,,,,,0,13,13,13,713.0021848000033,,,,,,,,,,,,,712.9868702999956,713.0021848000033,713.0021848000033,713.0021848000033,718.4477189000027,,,,718.4574488000071,718.4674359000055,718.4674359000055,718.5133634999947,718.5136704000033,718.529893400002,718.529893400002,718.529893400002,718.6132269999944,720.627218499998,721.5436827999947,721.5436827999947,721.5436827999947,721.5268619999988,,,,,,,,,,,,,,,,,,up,5.442681200001971,None,None,,,P1047,001,2025-04-11_08h29.29.702,posner_endo_new1,2024.2.4,60.10811044319445,2025-04-11 08h29.39.709741 +0100,
cube_r.png,0.1,-0.31,invalid,14,14,0,up,2.532973099994706,None,space,0.42814769998949487,None,,,,,,,,,0,14,14,14,721.5436827999947,,,,,,,,,,,,,721.5270339999988,721.5436827999947,721.5436827999947,721.5436827999947,724.0915757000039,,,,724.0976232999965,724.1092840000056,724.1092840000056,724.1574737000046,724.157696299997,724.173807500003,724.173807500003,724.173807500003,724.2407152999949,,,,,724.6079080000054,,,,,,,,,,,,,,,,,,up,2.532973099994706,None,space,0.42814769998949487,None,P1047,001,2025-04-11_08h29.29.702,posner_endo_new1,2024.2.4,60.10811044319445,2025-04-11 08h29.39.709741 +0100,
cube_l.png,0.1,-0.31,valid,15,15,0,up,6.005247400011285,None,space,0.44385630000033416,None,,,,,,,,,0,15,15,15,724.6236612000066,,,,,,,,,,,,,724.608087200002,724.6236612000066,724.6236612000066,724.6236612000066,730.6350725000084,,,,730.6411924999993,730.6529428000067,730.6529428000067,730.7009335000039,730.7011611000053,730.7173198999953,730.7173198999953,730.7173198999953,730.8008289999998,,,,,731.1677309000079,,,,,,,,,,,,,,,,,,up,6.005247400011285,None,space,0.44385630000033416,None,P1047,001,2025-04-11_08h29.29.702,posner_endo_new1,2024.2.4,60.10811044319445,2025-04-11 08h29.39.709741 +0100,
cube_r.png,0.1,10,catch,16,16,0,up,4.125177699999767,None,None,,,,,,,,,,,0,16,16,16,731.1837205000047,,,,,,,,,,,,,731.1679062000039,731.1837205000047,731.1837205000047,731.1837205000047,735.3136479999957,,,,735.3198204000073,735.3316500000074,735.3316500000074,735.3793617000047,735.3795868000016,735.3961234000017,735.3961234000017,735.3961234000017,735.4791734000028,737.4941838999948,738.4096213000012,738.4096213000012,738.4096213000012,738.3933965000033,,,,,,,,,,,,,,,,,,up,4.125177699999767,None,None,,,P1047,001,2025-04-11_08h29.29.702,posner_endo_new1,2024.2.4,60.10811044319445,2025-04-11 08h29.39.709741 +0100,
cube_r.png,0.1,10,catch,17,17,0,up,2.932157899995218,None,None,,,,,,,,,,,0,17,17,17,738.4096213000012,,,,,,,,,,,,,738.3935632000066,738.4096213000012,738.4096213000012,738.4096213000012,741.3574660000013,,,,741.3634669000021,741.3750693000038,741.3750693000038,741.4233210999955,741.4235468999977,741.4399421999988,741.4399421999988,741.4399421999988,741.5229207999946,743.5375946999993,744.4536223000032,744.4536223000032,744.4536223000032,744.437341900004,,,,,,,,,,,,,,,,,,up,2.932157899995218,None,None,,,P1047,001,2025-04-11_08h29.29.702,posner_endo_new1,2024.2.4,60.10811044319445,2025-04-11 08h29.39.709741 +0100,
cube_l.png,0.1,0.31,invalid,18,18,0,up,4.614946999994572,None,space,0.6648968999943463,None,,,,,,,,,0,18,18,18,744.4536223000032,,,,,,,,,,,,,744.4375071999966,744.4536223000032,744.4536223000032,744.4536223000032,749.084454099997,,,,749.1077175999962,749.119305500004,749.119305500004,749.1486622000084,749.1490099000075,749.1651227999973,749.1651227999973,749.1651227999973,749.2483819000045,,,,,749.8323850000015,,,,,,,,,,,,,,,,,,up,4.614946999994572,None,space,0.6648968999943463,None,P1047,001,2025-04-11_08h29.29.702,posner_endo_new1,2024.2.4,60.10811044319445,2025-04-11 08h29.39.709741 +0100,
cube_l.png,0.1,10,catch,19,19,0,up,5.020440799999051,None,space,0.545576999997138,None,,,,,,,,,0,19,19,19,749.8477643000078,,,,,,,,,,,,,749.8326853000035,749.8477643000078,749.8477643000078,749.8477643000078,754.8772689000034,,,,754.8887744999956,754.8988962000003,754.8988962000003,754.9427107999945,754.9429606000049,754.9593095000018,754.9593095000018,754.9593095000018,755.0424163999996,,,,,755.5095861000009,,,,,,,,,,,,,,,,,,up,5.020440799999051,None,space,0.545576999997138,None,P1047,001,2025-04-11_08h29.29.702,posner_endo_new1,2024.2.4,60.10811044319445,2025-04-11 08h29.39.709741 +0100,
cube_l.png,0.1,0.31,invalid,20,20,0,up,5.583700200004387,None,space,0.43622220000543166,None,,,,,,,,,0,20,20,20,755.5253071000043,,,,,,,,,,,,,755.5097872000042,755.5253071000043,755.5253071000043,755.5253071000043,761.1204339999967,,,,761.1278352000081,761.1392582999979,761.1392582999979,761.1863687000005,761.1866181000078,761.2029586999997,761.2029586999997,761.2029586999997,761.2694964999973,,,,,761.6531414000056,,,,,,,,,,,,,,,,,,up,5.583700200004387,None,space,0.43622220000543166,None,P1047,001,2025-04-11_08h29.29.702,posner_endo_new1,2024.2.4,60.10811044319445,2025-04-11 08h29.39.709741 +0100,
cube_l.png,0.1,-0.31,valid,21,21,0,up,3.5198411000019405,None,space,0.65810820000479,None,,,,,,,,,0,21,21,21,761.6690722000058,,,,,,,,,,,,,761.6533468999987,761.6690722000058,761.6690722000058,761.6690722000058,765.1996132000058,,,,765.2069508999994,765.2184624000074,765.2184624000074,765.2651996000059,765.2654494000017,765.2820943999977,765.2820943999977,765.2820943999977,765.3653190000041,,,,,765.9488653000008,,,,,,,,,,,,,,,,,,up,3.5198411000019405,None,space,0.65810820000479,None,P1047,001,2025-04-11_08h29.29.702,posner_endo_new1,2024.2.4,60.10811044319445,2025-04-11 08h29.39.709741 +0100,
cube_r.png,0.1,0.31,valid,22,22,0,up,3.775776299997233,None,space,2.2859098999906564,None,,,,,,,,,0,22,22,22,765.9647048000043,,,,,,,,,,,,,765.9490713999985,765.9647048000043,765.9647048000043,765.9647048000043,769.7450382999959,,,,769.7524059999996,769.763806700008,769.763806700008,769.8109662000061,769.8112188000086,769.8274628000072,769.8274628000072,769.8274628000072,769.9107472000032,771.9251118999964,,,,772.1267267000076,,,,,,,,,,,,,,,,,,up,3.775776299997233,None,space,2.2859098999906564,None,P1047,001,2025-04-11_08h29.29.702,posner_endo_new1,2024.2.4,60.10811044319445,2025-04-11 08h29.39.709741 +0100,
cube_r.png,0.1,-0.31,invalid,23,23,0,up,7.311774500005413,None,space,0.453332600009162,None,,,,,,,,,0,23,23,23,772.1415290000004,,,,,,,,,,,,,772.127163600002,772.1415290000004,772.1415290000004,772.1415290000004,779.4692236999981,,,,779.4863732999947,779.4973439000023,779.4973439000023,779.5342360000068,779.5347514000023,779.5506485000078,779.5506485000078,779.5506485000078,779.6339488000085,,,,,780.0186260000046,,,,,,,,,,,,,,,,,,up,7.311774500005413,None,space,0.453332600009162,None,P1047,001,2025-04-11_08h29.29.702,posner_endo_new1,2024.2.4,60.10811044319445,2025-04-11 08h29.39.709741 +0100,
cube_r.png,0.1,0.31,valid,24,24,0,up,2.6431389000063064,None,space,0.5023701000027359,None,,,,,,,,,0,24,24,24,780.0334736000077,,,,,,,,,,,,,780.019071600007,780.0334736000077,780.0334736000077,780.0334736000077,782.6822137999989,,,,782.6916691000079,782.7013066000072,782.7013066000072,782.7479448999948,782.7481953999959,782.764439599996,782.764439599996,782.764439599996,782.8475542000087,,,,,783.2812013000075,,,,,,,,,,,,,,,,,,up,2.6431389000063064,None,space,0.5023701000027359,None,P1047,001,2025-04-11_08h29.29.702,posner_endo_new1,2024.2.4,60.10811044319445,2025-04-11 08h29.39.709741 +0100,
cube_r.png,0.1,-0.31,invalid,25,25,0,up,9.612121600002865,None,space,0.4385266000026604,None,,,,,,,,,0,25,25,25,783.2970918000065,,,,,,,,,,,,,783.2814084999991,783.2970918000065,783.2970918000065,783.2970918000065,792.9213348000048,,,,792.9287179999956,792.9402427000023,792.9402427000023,792.9872527999978,792.9875049999973,793.003377400004,793.003377400004,793.003377400004,793.0867842000007,,,,,793.4541008000087,,,,,,,,,,,,,,,,,,up,9.612121600002865,None,space,0.4385266000026604,None,P1047,001,2025-04-11_08h29.29.702,posner_endo_new1,2024.2.4,60.10811044319445,2025-04-11 08h29.39.709741 +0100,
cube_l.png,0.1,-0.31,valid,26,26,0,up,6.0952555000112625,None,space,0.39263560000108555,None,,,,,,,,,0,26,26,26,793.4699045000016,,,,,,,,,,,,,793.4543012000067,793.4699045000016,793.4699045000016,793.4699045000016,799.5810528000002,,,,799.5884702000039,799.5998585000052,799.5998585000052,799.6470554999978,799.6473053999944,799.6635632999969,799.6635632999969,799.6635632999969,799.7301576000027,,,,,800.0640974999988,,,,,,,,,,,,,,,,,,up,6.0952555000112625,None,space,0.39263560000108555,None,P1047,001,2025-04-11_08h29.29.702,posner_endo_new1,2024.2.4,60.10811044319445,2025-04-11 08h29.39.709741 +0100,
cube_r.png,0.1,0.31,valid,27,27,0,up,4.140672999987146,None,space,0.7361647999932757,None,,,,,,,,,0,27,27,27,800.0797803000023,,,,,,,,,,,,,800.0643008000043,800.0797803000023,800.0797803000023,800.0797803000023,804.2265576000063,,,,804.2339748999948,804.245064600007,804.245064600007,804.2921774999995,804.2924327000073,804.3087221000023,804.3087221000023,804.3087221000023,804.391905299999,,,,,805.0589385000058,,,,,,,,,,,,,,,,,,up,4.140672999987146,None,space,0.7361647999932757,None,P1047,001,2025-04-11_08h29.29.702,posner_endo_new1,2024.2.4,60.10811044319445,2025-04-11 08h29.39.709741 +0100,
cube_r.png,0.1,10,catch,28,28,0,up,7.8584035000094445,None,None,,,,,,,,,,,0,28,28,28,805.0747283999954,,,,,,,,,,,,,805.0591443000012,805.0747283999954,805.0747283999954,805.0747283999954,812.9341777000081,,,,812.9415352000069,812.9646876000043,812.9646876000043,813.0000871000084,813.0003365000011,813.0167165000021,813.0167165000021,813.0167165000021,813.0830810000043,815.0973969000042,816.0301696999959,816.0301696999959,816.0301696999959,816.0139250000066,,,,,,,,,,,,,,,,,,up,7.8584035000094445,None,None,,,P1047,001,2025-04-11_08h29.29.702,posner_endo_new1,2024.2.4,60.10811044319445,2025-04-11 08h29.39.709741 +0100,
cube_r.png,0.1,0.31,valid,29,29,0,up,8.758342500004801,None,space,0.5244470999896294,None,,,,,,,,,0,29,29,29,816.0301696999959,,,,,,,,,,,,,816.0141119000036,816.0301696999959,816.0301696999959,816.0301696999959,824.790831300008,,,,824.811649700001,824.8220522000047,824.8220522000047,824.8544915999955,824.8549340000027,824.8708560999949,824.8708560999949,824.8708560999949,824.9540351000032,,,,,825.4051454,,,,,,,,,,,,,,,,,,up,8.758342500004801,None,space,0.5244470999896294,None,P1047,001,2025-04-11_08h29.29.702,posner_endo_new1,2024.2.4,60.10811044319445,2025-04-11 08h29.39.709741 +0100,
cube_r.png,0.1,0.31,valid,30,30,0,up,10.560989799996605,None,space,0.5297428000048967,None,,,,,,,,,0,30,30,30,825.4202308999957,,,,,,,,,,,,,825.4055275999999,825.4202308999957,825.4202308999957,825.4202308999957,835.9940571000043,,,,836.0038238999987,836.0138650000008,836.0138650000008,836.0598797999992,836.0602021999948,836.0763061000034,836.0763061000034,836.0763061000034,836.1595363000088,,,,,836.6101864999946,,,,,,,,,,,,,,,,,,up,10.560989799996605,None,space,0.5297428000048967,None,P1047,001,2025-04-11_08h29.29.702,posner_endo_new1,2024.2.4,60.10811044319445,2025-04-11 08h29.39.709741 +0100,
cube_l.png,0.1,-0.31,valid,31,31,0,up,7.523100399994291,None,space,0.48311529999773484,None,,,,,,,,,0,31,31,31,836.6257732999948,,,,,,,,,,,,,836.610451200002,836.6257732999948,836.6257732999948,836.6257732999948,844.1525362999964,,,,844.1625519000081,844.1725715000066,844.1725715000066,844.2180650000082,844.2183745000075,844.2345645000023,844.2345645000023,844.2345645000023,844.3179386999982,,,,,844.718715199997,,,,,,,,,,,,,,,,,,up,7.523100399994291,None,space,0.48311529999773484,None,P1047,001,2025-04-11_08h29.29.702,posner_endo_new1,2024.2.4,60.10811044319445,2025-04-11 08h29.39.709741 +0100,
cube_r.png,0.1,0.31,valid,32,32,0,up,15.134452799989958,None,space,0.42917850000958424,None,,,,,,,,,0,32,32,32,844.7340983000031,,,,,,,,,,,,,844.718990399997,844.7340983000031,844.7340983000031,844.7340983000031,859.8698660000082,,,,859.879316999999,859.8887681000051,859.8887681000051,859.9353969000076,859.9356226999953,859.9521540999995,859.9521540999995,859.9521540999995,860.0346987999947,,,,,860.3855972000019,,,,,,,,,,,,,,,,,,up,15.134452799989958,None,space,0.42917850000958424,None,P1047,001,2025-04-11_08h29.29.702,posner_endo_new1,2024.2.4,60.10811044319445,2025-04-11 08h29.39.709741 +0100,
cube_r.png,0.1,-0.31,invalid,33,33,0,up,17.41905389999738,None,space,0.4006740000040736,None,,,,,,,,,0,33,33,33,860.4016303999961,,,,,,,,,,,,,860.3857741999964,860.4016303999961,860.4016303999961,860.4016303999961,877.8342507000052,,,,877.8407915999996,877.852539200001,877.852539200001,877.8998218000052,877.9000497000088,877.916922000004,877.916922000004,877.916922000004,878.0000866000046,,,,,878.3338369999983,,,,,,,,,,,,,,,,,,up,17.41905389999738,None,space,0.4006740000040736,None,P1047,001,2025-04-11_08h29.29.702,posner_endo_new1,2024.2.4,60.10811044319445,2025-04-11 08h29.39.709741 +0100,
cube_r.png,0.1,10,catch,34,34,0,up,12.038420700002462,None,None,,,,,,,,,,,0,34,34,34,878.3498108000058,,,,,,,,,,,,,878.3340185999987,878.3498108000058,878.3498108000058,878.3498108000058,890.4050553999987,,,,890.4149364000041,890.424677300005,890.424677300005,890.4707630000048,890.4710780000023,890.4872897000023,890.4872897000023,890.4872897000023,890.5704522000015,892.5851668999967,893.5008171000081,893.5008171000081,893.5008171000081,893.4849510000058,,,,,,,,,,,,,,,,,,up,12.038420700002462,None,None,,,P1047,001,2025-04-11_08h29.29.702,posner_endo_new1,2024.2.4,60.10811044319445,2025-04-11 08h29.39.709741 +0100,
cube_r.png,0.1,0.31,valid,35,35,0,up,3.615551700000651,None,space,0.5123749999911524,None,,,,,,,,,0,35,35,35,893.5008171000081,,,,,,,,,,,,,893.4851896000037,893.5008171000081,893.5008171000081,893.5008171000081,897.1314585000073,,,,897.1411783000076,897.1512867999991,897.1512867999991,897.1971988000005,897.1975268999959,897.2138413000066,897.2138413000066,897.2138413000066,897.2970104999986,,,,,897.7310346000013,,,,,,,,,,,,,,,,,,up,3.615551700000651,None,space,0.5123749999911524,None,P1047,001,2025-04-11_08h29.29.702,posner_endo_new1,2024.2.4,60.10811044319445,2025-04-11 08h29.39.709741 +0100,
cube_r.png,0.1,-0.31,invalid,36,36,0,up,6.026042299999972,None,space,0.35631060000741854,None,,,,,,,,,0,36,36,36,897.7464884000074,,,,,,,,,,,,,897.7312949000043,897.7464884000074,897.7464884000074,897.7464884000074,903.7748162000062,,,,903.7846067000064,903.7945851999975,903.7945851999975,903.8403733000014,903.840683500006,903.8570045000088,903.8570045000088,903.8570045000088,903.9401560999977,,,,,904.2245163000043,,,,,,,,,,,,,,,,,,up,6.026042299999972,None,space,0.35631060000741854,None,P1047,001,2025-04-11_08h29.29.702,posner_endo_new1,2024.2.4,60.10811044319445,2025-04-11 08h29.39.709741 +0100,
cube_l.png,0.1,0.31,invalid,37,37,0,up,7.7088576999958605,None,space,0.4391489999979967,None,,,,,,,,,0,37,37,37,904.2400823000062,,,,,,,,,,,,,904.2247767999943,904.2400823000062,904.2400823000062,904.2400823000062,911.9500438999967,,,,911.9590600000083,911.9686470000015,911.9686470000015,912.0152477999945,912.0154720999999,912.0315035999956,912.0315035999956,912.0315035999956,912.1153000000049,,,,,912.4822240000067,,,,,,,,,,,,,,,,,,up,7.7088576999958605,None,space,0.4391489999979967,None,P1047,001,2025-04-11_08h29.29.702,posner_endo_new1,2024.2.4,60.10811044319445,2025-04-11 08h29.39.709741 +0100,
cube_l.png,0.1,0.31,invalid,38,38,0,up,6.274736200008192,None,space,0.43499820001306944,None,,,,,,,,,0,38,38,38,912.4980299000017,,,,,,,,,,,,,912.4823999000073,912.4980299000017,912.4980299000017,912.4980299000017,918.7754289000004,,,,918.7818782999966,918.7935121000046,918.7935121000046,918.8416985000076,918.8419261999952,918.8581980000017,918.8581980000017,918.8581980000017,918.9249096999993,,,,,919.3085162000061,,,,,,,,,,,,,,,,,,up,6.274736200008192,None,space,0.43499820001306944,None,P1047,001,2025-04-11_08h29.29.702,posner_endo_new1,2024.2.4,60.10811044319445,2025-04-11 08h29.39.709741 +0100,
cube_r.png,0.1,0.31,valid,39,39,0,up,6.216695499999332,None,space,0.5785529999993742,None,,,,,,,,,0,39,39,39,919.3246078000084,,,,,,,,,,,,,919.3086928999983,919.3246078000084,919.3246078000084,919.3246078000084,925.5540312999947,,,,925.5773459000047,925.5873616000026,925.5873616000026,925.617783099995,925.618180400008,925.6342507000081,925.6342507000081,925.6342507000081,925.7175064000039,,,,,926.2183428999997,,,,,,,,,,,,,,,,,,up,6.216695499999332,None,space,0.5785529999993742,None,P1047,001,2025-04-11_08h29.29.702,posner_endo_new1,2024.2.4,60.10811044319445,2025-04-11 08h29.39.709741 +0100,
cube_l.png,0.1,0.31,invalid,40,40,0,up,6.611123599999701,None,space,0.41132590000052005,None,,,,,,,,,0,40,40,40,926.2336352999992,,,,,,,,,,,,,926.2186860000074,926.2336352999992,926.2336352999992,926.2336352999992,932.8615107000078,,,,932.8742485999974,932.8839166999969,932.8839166999969,932.9270360999944,932.9274286,932.943429100007,932.943429100007,932.943429100007,933.0266916999972,,,,,933.3611247999943,,,,,,,,,,,,,,,,,,up,6.611123599999701,None,space,0.41132590000052005,None,P1047,001,2025-04-11_08h29.29.702,posner_endo_new1,2024.2.4,60.10811044319445,2025-04-11 08h29.39.709741 +0100,
cube_l.png,0.1,10,catch,41,41,0,up,7.740783500004909,None,None,,,,,,,,,,,0,41,41,41,933.3763328000059,,,,,,,,,,,,,933.3614569000056,933.3763328000059,933.3763328000059,933.3763328000059,941.1198662999959,,,,941.1326899999985,941.1428007000068,941.1428007000068,941.185647499995,941.1859244000079,941.202068300001,941.202068300001,941.202068300001,941.2853925999952,943.2999631999992,944.2158593000058,944.2158593000058,944.2158593000058,944.1997562000033,,,,,,,,,,,,,,,,,,up,7.740783500004909,None,None,,,P1047,001,2025-04-11_08h29.29.702,posner_endo_new1,2024.2.4,60.10811044319445,2025-04-11 08h29.39.709741 +0100,
cube_l.png,0.1,-0.31,valid,42,42,0,up,2.452823500003433,None,space,0.5420842999883462,None,,,,,,,,,0,42,42,42,944.2158593000058,,,,,,,,,,,,,944.1999696999992,944.2158593000058,944.2158593000058,944.2158593000058,946.6806919000082,,,,946.6890958000004,946.6993220000004,946.6993220000004,946.7466266999982,946.7469092999963,946.7630131000042,946.7630131000042,946.7630131000042,946.8463754999975,,,,,947.3132939000061,,,,,,,,,,,,,,,,,,up,2.452823500003433,None,space,0.5420842999883462,None,P1047,001,2025-04-11_08h29.29.702,posner_endo_new1,2024.2.4,60.10811044319445,2025-04-11 08h29.39.709741 +0100,
cube_l.png,0.1,10,catch,43,43,0,up,4.900181699995301,None,None,,,,,,,,,,,0,43,43,43,947.3290656000027,,,,,,,,,,,,,947.3135307000048,947.3290656000027,947.3290656000027,947.3290656000027,952.2416580999998,,,,952.2501585999998,952.260396800004,952.260396800004,952.3076373000076,952.3079187999974,952.3240591000067,952.3240591000067,952.3240591000067,952.4071652999992,954.4219806000037,955.3377981999947,955.3377981999947,955.3377981999947,955.3224957000057,,,,,,,,,,,,,,,,,,up,4.900181699995301,None,None,,,P1047,001,2025-04-11_08h29.29.702,posner_endo_new1,2024.2.4,60.10811044319445,2025-04-11 08h29.39.709741 +0100,
cube_l.png,0.1,0.31,invalid,44,44,0,up,5.763060600002063,None,space,0.5206690000050003,None,,,,,,,,,0,44,44,44,955.3377981999947,,,,,,,,,,,,,955.3230477000034,955.3377981999947,955.3377981999947,955.3377981999947,961.1176133999979,,,,961.1410662999988,961.1526546999958,961.1526546999958,961.1813876000087,961.1817844000034,961.1978658000007,961.1978658000007,961.1978658000007,961.281112800003,,,,,961.7319485000044,,,,,,,,,,,,,,,,,,up,5.763060600002063,None,space,0.5206690000050003,None,P1047,001,2025-04-11_08h29.29.702,posner_endo_new1,2024.2.4,60.10811044319445,2025-04-11 08h29.39.709741 +0100,
cube_l.png,0.1,0.31,invalid,45,45,0,up,9.921658700011903,None,space,0.4360778999980539,None,,,,,,,,,0,45,45,45,961.7472964000044,,,,,,,,,,,,,961.7322787000012,961.7472964000044,961.7472964000044,961.7472964000044,971.6719572000002,,,,971.6847477999981,971.6948110999947,971.6948110999947,971.7372538000054,971.7376510000031,971.7537487999944,971.7537487999944,971.7537487999944,971.8370298999944,,,,,972.2046474999952,,,,,,,,,,,,,,,,,,up,9.921658700011903,None,space,0.4360778999980539,None,P1047,001,2025-04-11_08h29.29.702,posner_endo_new1,2024.2.4,60.10811044319445,2025-04-11 08h29.39.709741 +0100,
cube_r.png,0.1,0.31,valid,46,46,0,up,5.089303700005985,None,space,0.5432340000115801,None,,,,,,,,,0,46,46,46,972.219909499996,,,,,,,,,,,,,972.2049848000024,972.219909499996,972.219909499996,972.219909499996,977.3160372999992,,,,977.3245221999969,977.3346483000059,977.3346483000059,977.3818248000025,977.3821046999947,977.398535100001,977.398535100001,977.398535100001,977.4816131999978,,,,,977.9486654000066,,,,,,,,,,,,,,,,,,up,5.089303700005985,None,space,0.5432340000115801,None,P1047,001,2025-04-11_08h29.29.702,posner_endo_new1,2024.2.4,60.10811044319445,2025-04-11 08h29.39.709741 +0100,
cube_l.png,0.1,-0.31,valid,47,47,0,up,3.8158376999926986,None,space,0.45236569999542553,None,,,,,,,,,0,47,47,47,977.9644852000056,,,,,,,,,,,,,977.9488950999948,977.9644852000056,977.9644852000056,977.9644852000056,981.7949014000042,,,,981.8033618000045,981.8135365000053,981.8135365000053,981.8606202999945,981.8609043000033,981.8770489000017,981.8770489000017,981.8770489000017,981.9603414000012,,,,,982.3442325000069,,,,,,,,,,,,,,,,,,up,3.8158376999926986,None,space,0.45236569999542553,None,P1047,001,2025-04-11_08h29.29.702,posner_endo_new1,2024.2.4,60.10811044319445,2025-04-11 08h29.39.709741 +0100,
cube_r.png,0.1,-0.31,invalid,48,48,0,up,4.228788100008387,None,space,0.5346598000032827,None,,,,,,,,,0,48,48,48,982.3601296999987,,,,,,,,,,,,,982.3444700999971,982.3601296999987,982.3601296999987,982.3601296999987,986.5900191999972,,,,986.5986414000072,986.6088828000065,986.6088828000065,986.6557494000008,986.6560343000019,986.6721646000078,986.6721646000078,986.6721646000078,986.7555404000013,,,,,987.2226263000048,,,,,,,,,,,,,,,,,,up,4.228788100008387,None,space,0.5346598000032827,None,P1047,001,2025-04-11_08h29.29.702,posner_endo_new1,2024.2.4,60.10811044319445,2025-04-11 08h29.39.709741 +0100,
cube_r.png,0.1,10,catch,49,49,0,up,3.774975299995276,None,None,,,,,,,,,,,0,49,49,49,987.2379934000055,,,,,,,,,,,,,987.222858299996,987.2379934000055,987.2379934000055,987.2379934000055,991.0186857000081,,,,991.0271102999977,991.0374756999954,991.0374756999954,991.0845262000075,991.0848059999989,991.1010455000069,991.1010455000069,991.1010455000069,991.1842656999943,993.198977299995,994.1146545999945,994.1146545999945,994.1146545999945,994.0987123000086,,,,,,,,,,,,,,,,,,up,3.774975299995276,None,None,,,P1047,001,2025-04-11_08h29.29.702,posner_endo_new1,2024.2.4,60.10811044319445,2025-04-11 08h29.39.709741 +0100,
cube_l.png,0.1,-0.31,valid,50,50,0,up,1.4588380999921355,None,space,0.43304239999270067,None,,,,,,,,,0,50,50,50,994.1146545999945,,,,,,,,,,,,,994.0989247999969,994.1146545999945,994.1146545999945,994.1146545999945,995.5806639000075,,,,995.5891000999982,995.5993648000003,995.5993648000003,995.6465574000031,995.6468357999984,995.6631391999981,995.6631391999981,995.6631391999981,995.7294399999955,,,,,996.0971004000021,,,,,,,,,,,,,,,,,,up,1.4588380999921355,None,space,0.43304239999270067,None,P1047,001,2025-04-11_08h29.29.702,posner_endo_new1,2024.2.4,60.10811044319445,2025-04-11 08h29.39.709741 +0100,
cube_l.png,0.1,-0.31,valid,51,51,0,up,10.835879799997201,None,space,0.46658100000058766,None,,,,,,,,,0,51,51,51,996.1125254000071,,,,,,,,,,,,,996.0973507000017,996.1125254000071,996.1125254000071,996.1125254000071,1006.9525486000057,,,,1006.9623624000087,1006.9724999000027,1006.9724999000027,1007.0182602999994,1007.0185713999963,1007.0346487000061,1007.0346487000061,1007.0346487000061,1007.1179800999962,,,,,1007.5022559000063,,,,,,,,,,,,,,,,,,up,10.835879799997201,None,space,0.46658100000058766,None,P1047,001,2025-04-11_08h29.29.702,posner_endo_new1,2024.2.4,60.10811044319445,2025-04-11 08h29.39.709741 +0100,
cube_r.png,0.1,-0.31,invalid,52,52,0,up,3.3679139999876497,None,space,0.644821599998977,None,,,,,,,,,0,52,52,52,1007.5174434000073,,,,,,,,,,,,,1007.502510499995,1007.5174434000073,1007.5174434000073,1007.5174434000073,1010.8984598999959,,,,1010.9081028000073,1010.9181587000057,1010.9181587000057,1010.964158200004,1010.9644684000086,1010.9806218000012,1010.9806218000012,1010.9806218000012,1011.0639489000023,,,,,1011.6312210000033,,,,,,,,,,,,,,,,,,up,3.3679139999876497,None,space,0.644821599998977,None,P1047,001,2025-04-11_08h29.29.702,posner_endo_new1,2024.2.4,60.10811044319445,2025-04-11 08h29.39.709741 +0100,
cube_l.png,0.1,-0.31,valid,53,53,0,up,5.053815999999642,None,space,0.7845225000055507,None,,,,,,,,,0,53,53,53,1011.6465591000015,,,,,,,,,,,,,1011.6314845000015,1011.6465591000015,1011.6465591000015,1011.6465591000015,1016.709654300008,,,,1016.7192505999992,1016.7286834999977,1016.7286834999977,1016.7748649999994,1016.7750986000028,1016.7913415000075,1016.7913415000075,1016.7913415000075,1016.8746444999997,,,,,1017.5914950000006,,,,,,,,,,,,,,,,,,up,5.053815999999642,None,space,0.7845225000055507,None,P1047,001,2025-04-11_08h29.29.702,posner_endo_new1,2024.2.4,60.10811044319445,2025-04-11 08h29.39.709741 +0100,
cube_r.png,0.1,10,catch,54,54,0,up,4.157258999999613,None,None,,,,,,,,,,,0,54,54,54,1017.6074718000018,,,,,,,,,,,,,1017.5916713000042,1017.6074718000018,1017.6074718000018,1017.6074718000018,1021.7724414999975,,,,1021.7926002000022,1021.8030444000033,1021.8030444000033,1021.8361858999997,1021.8366399000079,1021.852690300002,1021.852690300002,1021.852690300002,1021.9358174999943,1023.9505405999953,1024.8664033999958,1024.8664033999958,1024.8664033999958,1024.8502257000073,,,,,,,,,,,,,,,,,,up,4.157258999999613,None,None,,,P1047,001,2025-04-11_08h29.29.702,posner_endo_new1,2024.2.4,60.10811044319445,2025-04-11 08h29.39.709741 +0100,
cube_l.png,0.1,0.31,invalid,55,55,0,up,4.19433189999836,None,space,0.45619080000324175,None,,,,,,,,,0,55,55,55,1024.8664033999958,,,,,,,,,,,,,1024.8504642000044,1024.8664033999958,1024.8664033999958,1024.8664033999958,1029.0632328000065,,,,1029.0729562000051,1029.0829613999958,1029.0829613999958,1029.128885500002,1029.129194699999,1029.1454224000045,1029.1454224000045,1029.1454224000045,1029.2286643999978,,,,,1029.6125742000004,,,,,,,,,,,,,,,,,,up,4.19433189999836,None,space,0.45619080000324175,None,P1047,001,2025-04-11_08h29.29.702,posner_endo_new1,2024.2.4,60.10811044319445,2025-04-11 08h29.39.709741 +0100,
cube_l.png,0.1,-0.31,valid,56,56,0,up,9.744429599988507,None,space,0.5033599000016693,None,,,,,,,,,0,56,56,56,1029.6283121000015,,,,,,,,,,,,,1029.6128318999981,1029.6283121000015,1029.6283121000015,1029.6283121000015,1039.3859192999953,,,,1039.3957241000026,1039.4058231999952,1039.4058231999952,1039.4516008000064,1039.4519086000073,1039.468243700001,1039.468243700001,1039.468243700001,1039.5514795000054,,,,,1039.9854143999983,,,,,,,,,,,,,,,,,,up,9.744429599988507,None,space,0.5033599000016693,None,P1047,001,2025-04-11_08h29.29.702,posner_endo_new1,2024.2.4,60.10811044319445,2025-04-11 08h29.39.709741 +0100,
cube_r.png,0.1,0.31,valid,57,57,0,up,5.556250900001032,None,space,0.3878473000077065,None,,,,,,,,,0,57,57,57,1040.0009086000064,,,,,,,,,,,,,1039.9856788000034,1040.0009086000064,1040.0009086000064,1040.0009086000064,1045.5630745999952,,,,1045.5728376000043,1045.5829111000057,1045.5829111000057,1045.6287032999971,1045.629010500008,1045.6451084,1045.6451084,1045.6451084,1045.7286009999953,,,,,1046.0457870999962,,,,,,,,,,,,,,,,,,up,5.556250900001032,None,space,0.3878473000077065,None,P1047,001,2025-04-11_08h29.29.702,posner_endo_new1,2024.2.4,60.10811044319445,2025-04-11 08h29.39.709741 +0100,
cube_r.png,0.1,-0.31,invalid,58,58,0,up,7.742977799993241,None,space,0.363054799992824,None,,,,,,,,,0,58,58,58,1046.0614728000073,,,,,,,,,,,,,1046.0460491999984,1046.0614728000073,1046.0614728000073,1046.0614728000073,1053.821273900001,,,,1053.8311033000064,1053.840922999996,1053.840922999996,1053.886902600003,1053.8872105000046,1053.9033815000003,1053.9033815000003,1053.9033815000003,1053.986621300006,,,,,1054.2709596000059,,,,,,,,,,,,,,,,,,up,7.742977799993241,None,space,0.363054799992824,None,P1047,001,2025-04-11_08h29.29.702,posner_endo_new1,2024.2.4,60.10811044319445,2025-04-11 08h29.39.709741 +0100,
cube_l.png,0.1,0.31,invalid,59,59,0,up,3.7349201000033645,None,space,0.6341560000000754,None,,,,,,,,,0,59,59,59,1054.2863197999977,,,,,,,,,,,,,1054.2712144999969,1054.2863197999977,1054.2863197999977,1054.2863197999977,1058.0334106999944,,,,1058.0431543000013,1058.053110599998,1058.053110599998,1058.0992709999991,1058.0995805999992,1058.1158394999948,1058.1158394999948,1058.1158394999948,1058.1990072000044,,,,,1058.7660955000028,,,,,,,,,,,,,,,,,,up,3.7349201000033645,None,space,0.6341560000000754,None,P1047,001,2025-04-11_08h29.29.702,posner_endo_new1,2024.2.4,60.10811044319445,2025-04-11 08h29.39.709741 +0100,
