cue_img,cue_soa,target_y,trial,thisN,thisTrialN,thisRepN,key_control2.keys,key_control2.rt,key_control2.duration,key_resp.keys,key_resp.rt,key_resp.duration,practice.thisRepN,practice.thisTrialN,practice.thisN,practice.thisIndex,block1.thisRepN,block1.thisTrialN,block1.thisN,block1.thisIndex,block2.thisRepN,block2.thisTrialN,block2.thisN,block2.thisIndex,thisRow.t,notes,instructions.started,instructions_txt.started,key_control.started,instructions.stopped,key_control.keys,key_control.rt,key_control.duration,ready.started,ready_txt.started,ready_txt.stopped,ready.stopped,fix.started,fixation.started,key_control2.started,fixation_cross.started,fix.stopped,practice.key_control2.keys,practice.key_control2.rt,practice.key_control2.duration,cue.started,cube.started,fixation_cross_cue.started,cue.stopped,target.started,fixation_target.started,fixation_cross_target.started,key_resp.started,star.started,target.stopped,practice.key_resp.keys,practice.key_resp.rt,practice.key_resp.duration,star.stopped,fixation_target.stopped,fixation_cross_target.stopped,key_resp.stopped,block1.key_control2.keys,block1.key_control2.rt,block1.key_control2.duration,block1.key_resp.keys,block1.key_resp.rt,block1.key_resp.duration,break_2.started,text.started,key_control3.started,text.stopped,break_2.stopped,key_control3.keys,key_control3.rt,key_control3.duration,block2.key_control2.keys,block2.key_control2.rt,block2.key_control2.duration,block2.key_resp.keys,block2.key_resp.rt,block2.key_resp.duration,participant,session,date,expName,psychopyVersion,frameRate,expStart,
,,,,,,,,,,,,,,,,,,,,,,,,,,,0.0074317999969935045,0.026569499998004176,0.026569499998004176,24.076654899996356,up,24.037707000010414,None,,,,,,,,,,,,,,,,,,,,,,,,,,,,,,,,,,,,,,,,,,,,,,,,,,P148,001,2025-04-11_09h33.09.489,posner_endo_new1,2024.2.4,60.02429783385659,2025-04-11 09h33.22.234828 +0100,
,,,,,,,,,,,,,,,,,,,,,,,,,,,,,,,,,,24.076723599995603,24.088546499988297,27.113767899994855,27.069614099993487,,,,,,,,,,,,,,,,,,,,,,,,,,,,,,,,,,,,,,,,,,,,,,P148,001,2025-04-11_09h33.09.489,posner_endo_new1,2024.2.4,60.02429783385659,2025-04-11 09h33.22.234828 +0100,
cube_l.png,0.1,-0.31,valid,0,0,0,down,28.606843200002913,None,space,0.5704291000001831,None,0,0,0,4,,,,,,,,,27.113767899994855,,,,,,,,,,,,,27.09816189999401,27.113767899994855,27.113767899994855,27.113767899994855,55.72472139999445,down,28.606843200002913,None,55.75778749999881,55.76860469998792,55.76860469998792,55.78840219999256,55.78869849999319,55.80496159999166,55.80496159999166,55.80496159999166,55.88886310000089,56.38905069998873,space,0.5704291000001831,None,,,,,,,,,,,,,,,,,,,,,,,,,P148,001,2025-04-11_09h33.09.489,posner_endo_new1,2024.2.4,60.02429783385659,2025-04-11 09h33.22.234828 +0100,
cube_r.png,0.1,0.31,valid,1,1,0,down,9.100005500004045,None,space,0.3468494999979157,None,0,1,1,7,,,,,,,,,56.40471229999093,,,,,,,,,,,,,56.389289699989604,56.40471229999093,56.40471229999093,56.40471229999093,65.51463739998871,down,9.100005500004045,None,65.5374557999894,65.54739309998695,65.54739309998695,65.57856149999134,65.57890549999138,65.59551679999277,65.59551679999277,65.59551679999277,65.67859149999276,65.94642309998744,space,0.3468494999979157,None,,,,,,,,,,,,,,,,,,,,,,,,,P148,001,2025-04-11_09h33.09.489,posner_endo_new1,2024.2.4,60.02429783385659,2025-04-11 09h33.22.234828 +0100,
cube_r.png,0.1,10,catch,2,2,0,down,3.022239300000365,None,None,,,0,2,2,3,,,,,,,,,65.9617520999891,,,,,,,,,,,,,65.94669309999153,65.9617520999891,65.9617520999891,65.9617520999891,68.99277679999068,down,3.022239300000365,None,69.005067399994,69.01530519999505,69.01530519999505,69.05853869998828,69.05888679999043,69.07516809999652,69.07516809999652,69.07516809999652,69.14175999999861,72.07243089999247,None,,,71.1562772999896,72.08874369999103,72.08874369999103,72.08874369999103,,,,,,,,,,,,,,,,,,,,,P148,001,2025-04-11_09h33.09.489,posner_endo_new1,2024.2.4,60.02429783385659,2025-04-11 09h33.22.234828 +0100,
cube_l.png,0.1,-0.31,valid,3,3,0,down,3.9752617000049213,None,space,0.35555849999946076,None,0,3,3,0,,,,,,,,,72.08874369999103,,,,,,,,,,,,,72.07268569999724,72.08874369999103,72.08874369999103,72.08874369999103,76.06935079999676,down,3.9752617000049213,None,76.08141199999955,76.09163229999831,76.09163229999831,76.13478659999964,76.13513749999402,76.15142429999833,76.15142429999833,76.15142429999833,76.23439179999696,76.5186141999875,space,0.35555849999946076,None,,,,,,,,,,,,,,,,,,,,,,,,,P148,001,2025-04-11_09h33.09.489,posner_endo_new1,2024.2.4,60.02429783385659,2025-04-11 09h33.22.234828 +0100,
cube_r.png,0.1,-0.31,invalid,4,4,0,down,6.505926900004852,None,space,0.598580400008359,None,0,4,4,6,,,,,,,,,76.5341730999935,,,,,,,,,,,,,76.51888509999844,76.5341730999935,76.5341730999935,76.5341730999935,83.04528879999998,down,6.505926900004852,None,83.05731989999185,83.06763229999342,83.06763229999342,83.11109999999462,83.11144459999923,83.12749039998744,83.12749039998744,83.12749039998744,83.21064799999294,83.7279841999989,space,0.598580400008359,None,,,,,,,,,,,,,,,,,,,,,,,,,P148,001,2025-04-11_09h33.09.489,posner_endo_new1,2024.2.4,60.02429783385659,2025-04-11 09h33.22.234828 +0100,
cube_r.png,0.1,-0.31,invalid,5,5,0,down,7.640864300003159,None,space,0.39715620000788476,None,0,5,5,9,,,,,,,,,83.74356789999001,,,,,,,,,,,,,83.72825829999056,83.74356789999001,83.74356789999001,83.74356789999001,91.38672439999937,down,7.640864300003159,None,91.39698789999238,91.40662119998888,91.40662119998888,91.45239729998866,91.45264099999622,91.4689098999952,91.4689098999952,91.4689098999952,91.55222449998837,91.86952989999554,space,0.39715620000788476,None,,,,,,,,,,,,,,,,,,,,,,,,,P148,001,2025-04-11_09h33.09.489,posner_endo_new1,2024.2.4,60.02429783385659,2025-04-11 09h33.22.234828 +0100,
cube_l.png,0.1,0.31,invalid,6,6,0,down,5.531990200004657,None,space,0.36898899999505375,None,0,6,6,5,,,,,,,,,91.8846756999992,,,,,,,,,,,,,91.869701299991,91.8846756999992,91.8846756999992,91.8846756999992,97.43206799999462,down,5.531990200004657,None,97.45511439999973,97.46538769999461,97.46538769999461,97.49583439998969,97.49617689999286,97.51234809999005,97.51234809999005,97.51234809999005,97.5956809999916,97.89652979999664,space,0.36898899999505375,None,,,,,,,,,,,,,,,,,,,,,,,,,P148,001,2025-04-11_09h33.09.489,posner_endo_new1,2024.2.4,60.02429783385659,2025-04-11 09h33.22.234828 +0100,
cube_l.png,0.1,0.31,invalid,7,7,0,down,9.535907799989218,None,space,0.3812361000018427,None,0,7,7,1,,,,,,,,,97.91232259999379,,,,,,,,,,,,,97.89679590000014,97.91232259999379,97.91232259999379,97.91232259999379,107.45373219999601,down,9.535907799989218,None,107.46618579998903,107.4764157999889,107.4764157999889,107.519429699998,107.5197754999972,107.53582009999081,107.53582009999081,107.53582009999081,107.61873139999807,107.91999769999529,space,0.3812361000018427,None,,,,,,,,,,,,,,,,,,,,,,,,,P148,001,2025-04-11_09h33.09.489,posner_endo_new1,2024.2.4,60.02429783385659,2025-04-11 09h33.22.234828 +0100,
cube_r.png,0.1,0.31,valid,8,8,0,down,6.5448231999907875,None,space,0.39929460000712425,None,0,8,8,10,,,,,,,,,107.93551029999799,,,,,,,,,,,,,107.92027779998898,107.93551029999799,107.93551029999799,107.93551029999799,114.49631379998755,down,6.5448231999907875,None,114.50846569999703,114.51861559999816,114.51861559999816,114.5620734999975,114.56230849999702,114.57871329999762,114.57871329999762,114.57871329999762,114.66169779999473,114.97908679999819,space,0.39929460000712425,None,,,,,,,,,,,,,,,,,,,,,,,,,P148,001,2025-04-11_09h33.09.489,posner_endo_new1,2024.2.4,60.02429783385659,2025-04-11 09h33.22.234828 +0100,
cube_l.png,0.1,-0.31,valid,9,9,0,down,5.109646799988695,None,space,0.3268277000024682,None,0,9,9,8,,,,,,,,,114.99493829999119,,,,,,,,,,,,,114.97926029999508,114.99493829999119,114.99493829999119,114.99493829999119,120.10903680000047,down,5.109646799988695,None,120.13344099999813,120.14331319999474,120.14331319999474,120.17260519998672,120.17294919998676,120.1894239999965,120.1894239999965,120.1894239999965,120.27288979999139,120.52364819998911,space,0.3268277000024682,None,,,,,,,,,,,,,,,,,,,,,,,,,P148,001,2025-04-11_09h33.09.489,posner_endo_new1,2024.2.4,60.02429783385659,2025-04-11 09h33.22.234828 +0100,
cube_r.png,0.1,-0.31,invalid,10,10,0,down,5.765185700001894,None,space,0.3270936999906553,None,0,10,10,2,,,,,,,,,120.53926779999165,,,,,,,,,,,,,120.52391489999718,120.53926779999165,120.53926779999165,120.53926779999165,126.31759829999646,down,5.765185700001894,None,126.32968899999105,126.34002009998949,126.34002009998949,126.38343919999897,126.38368659999105,126.39947799999209,126.39947799999209,126.39947799999209,126.48330729998997,126.73349289999169,space,0.3270936999906553,None,,,,,,,,,,,,,,,,,,,,,,,,,P148,001,2025-04-11_09h33.09.489,posner_endo_new1,2024.2.4,60.02429783385659,2025-04-11 09h33.22.234828 +0100,
,,,,,,,,,,,,,,,,,,,,,,,,,,,,,,,,,,126.7336348999961,126.74911279999651,129.77772579999873,129.73156149999704,,,,,,,,,,,,,,,,,,,,,,,,,,,,,,,,,,,,,,,,,,,,,,P148,001,2025-04-11_09h33.09.489,posner_endo_new1,2024.2.4,60.02429783385659,2025-04-11 09h33.22.234828 +0100,
cube_l.png,0.1,10,catch,0,0,0,down,12.350465099996654,None,None,,,,,,,0,0,0,0,,,,,129.77772579999873,,,,,,,,,,,,,129.76908899999398,129.77772579999873,129.77772579999873,129.77772579999873,142.13654729998962,,,,142.15772899999865,142.16786769998726,142.16786769998726,142.20015009999042,142.2005427999975,142.21668879999197,142.21668879999197,142.21668879999197,142.29990479999105,145.21465939999325,,,,144.3144612999895,145.23016439999628,145.23016439999628,145.23016439999628,down,12.350465099996654,None,None,,,,,,,,,,,,,,,,,P148,001,2025-04-11_09h33.09.489,posner_endo_new1,2024.2.4,60.02429783385659,2025-04-11 09h33.22.234828 +0100,
cube_l.png,0.1,10,catch,1,1,0,down,0.33047079999232665,None,None,,,,,,,0,1,1,1,,,,,145.23016439999628,,,,,,,,,,,,,145.21495259999938,145.23016439999628,145.23016439999628,145.23016439999628,145.56452770000033,,,,145.57794309999736,145.58796879999863,145.58796879999863,145.62991329999932,145.63029699999606,145.64645119999477,145.64645119999477,145.64645119999477,145.7296687999915,148.64417429998866,,,,147.74432559999696,148.6599722999963,148.6599722999963,148.6599722999963,down,0.33047079999232665,None,None,,,,,,,,,,,,,,,,,P148,001,2025-04-11_09h33.09.489,posner_endo_new1,2024.2.4,60.02429783385659,2025-04-11 09h33.22.234828 +0100,
cube_l.png,0.1,0.31,invalid,2,2,0,down,3.3245832999964477,None,space,0.32187980000162497,None,,,,,0,2,2,2,,,,,148.6599722999963,,,,,,,,,,,,,148.64446899999166,148.6599722999963,148.6599722999963,148.6599722999963,151.99139369999466,,,,152.00482989999,152.0148688999907,152.0148688999907,152.05669849998958,152.05697409999266,152.07324709999375,152.07324709999375,152.07324709999375,152.15643719999935,152.4070431,,,,,,,,down,3.3245832999964477,None,space,0.32187980000162497,None,,,,,,,,,,,,,,,P148,001,2025-04-11_09h33.09.489,posner_endo_new1,2024.2.4,60.02429783385659,2025-04-11 09h33.22.234828 +0100,
cube_l.png,0.1,0.31,invalid,3,3,0,down,5.033687699993607,None,space,0.3304744000051869,None,,,,,0,3,3,3,,,,,152.42323169999872,,,,,,,,,,,,,152.40726859999995,152.42323169999872,152.42323169999872,152.42323169999872,157.47067159999278,,,,157.49078759999247,157.50131709998823,157.50131709998823,157.5345576999971,157.53501239999605,157.55103339999914,157.55103339999914,157.55103339999914,157.63427819999924,157.8854788999888,,,,,,,,down,5.033687699993607,None,space,0.3304744000051869,None,,,,,,,,,,,,,,,P148,001,2025-04-11_09h33.09.489,posner_endo_new1,2024.2.4,60.02429783385659,2025-04-11 09h33.22.234828 +0100,
cube_l.png,0.1,-0.31,valid,4,4,0,down,4.691300400008913,None,space,0.46433270000852644,None,,,,,0,4,4,4,,,,,157.9010406999878,,,,,,,,,,,,,157.8857236999902,157.9010406999878,157.9010406999878,157.9010406999878,162.59713529999135,,,,162.6073608000006,162.61744729999918,162.61744729999918,162.66260959999636,162.66291249998903,162.67979529999138,162.67979529999138,162.67979529999138,162.7627061999956,163.14642079999612,,,,,,,,down,4.691300400008913,None,space,0.46433270000852644,None,,,,,,,,,,,,,,,P148,001,2025-04-11_09h33.09.489,posner_endo_new1,2024.2.4,60.02429783385659,2025-04-11 09h33.22.234828 +0100,
cube_r.png,0.1,-0.31,invalid,5,5,0,down,6.326256199987256,None,space,0.32243559999915306,None,,,,,0,5,5,5,,,,,163.16225829999894,,,,,,,,,,,,,163.146668699992,163.16225829999894,163.16225829999894,163.16225829999894,169.4899982999923,,,,169.50025089998962,169.5103109999909,169.5103109999909,169.55577110000013,169.55607299999974,169.5724545999983,169.5724545999983,169.5724545999983,169.6553211999999,169.90600519999862,,,,,,,,down,6.326256199987256,None,space,0.32243559999915306,None,,,,,,,,,,,,,,,P148,001,2025-04-11_09h33.09.489,posner_endo_new1,2024.2.4,60.02429783385659,2025-04-11 09h33.22.234828 +0100,
cube_r.png,0.1,0.31,valid,6,6,0,down,9.494948499996099,None,space,0.30976839999493677,None,,,,,0,6,6,6,,,,,169.9217670999933,,,,,,,,,,,,,169.90624849998858,169.9217670999933,169.9217670999933,169.9217670999933,179.43002209998667,,,,179.44086129999778,179.450966599994,179.450966599994,179.4957943999907,179.4961062999937,179.5119080999866,179.5119080999866,179.5119080999866,179.5954311999958,179.82955359999323,,,,,,,,down,9.494948499996099,None,space,0.30976839999493677,None,,,,,,,,,,,,,,,P148,001,2025-04-11_09h33.09.489,posner_endo_new1,2024.2.4,60.02429783385659,2025-04-11 09h33.22.234828 +0100,
cube_r.png,0.1,-0.31,invalid,7,7,0,down,9.251825700004702,None,space,0.3705587000004016,None,,,,,0,7,7,7,,,,,179.8450257999939,,,,,,,,,,,,,179.82979979999072,179.8450257999939,179.8450257999939,179.8450257999939,189.10519429999113,,,,189.12964959999954,189.1422784999886,189.1422784999886,189.16867929999717,189.16898689999653,189.18513579999853,189.18513579999853,189.18513579999853,189.26856679999037,189.56928630000039,,,,,,,,down,9.251825700004702,None,space,0.3705587000004016,None,,,,,,,,,,,,,,,P148,001,2025-04-11_09h33.09.489,posner_endo_new1,2024.2.4,60.02429783385659,2025-04-11 09h33.22.234828 +0100,
cube_l.png,0.1,-0.31,valid,8,8,0,down,9.207112299991422,None,space,0.3795574999967357,None,,,,,0,8,8,8,,,,,189.58521949998976,,,,,,,,,,,,,189.56953299998713,189.58521949998976,189.58521949998976,189.58521949998976,198.79558919998817,,,,198.82075289999193,198.8322773999971,198.8322773999971,198.8587353999901,198.85904189999565,198.87547309999354,198.87547309999354,198.87547309999354,198.95902449999994,199.25980590000108,,,,,,,,down,9.207112299991422,None,space,0.3795574999967357,None,,,,,,,,,,,,,,,P148,001,2025-04-11_09h33.09.489,posner_endo_new1,2024.2.4,60.02429783385659,2025-04-11 09h33.22.234828 +0100,
cube_r.png,0.1,-0.31,invalid,9,9,0,down,9.765706899997895,None,space,0.3711087999981828,None,,,,,0,9,9,9,,,,,199.27513039999758,,,,,,,,,,,,,199.26006409998809,199.27513039999758,199.27513039999758,199.27513039999758,209.051143699995,,,,209.0748198999936,209.08702319998702,209.08702319998702,209.1151048999891,209.1154944999871,209.13154609999037,209.13154609999037,209.13154609999037,209.21483709999302,209.51587740000105,,,,,,,,down,9.765706899997895,None,space,0.3711087999981828,None,,,,,,,,,,,,,,,P148,001,2025-04-11_09h33.09.489,posner_endo_new1,2024.2.4,60.02429783385659,2025-04-11 09h33.22.234828 +0100,
cube_l.png,0.1,0.31,invalid,10,10,0,down,10.756578100001207,None,space,0.33878700000059325,None,,,,,0,10,10,10,,,,,209.53123219999543,,,,,,,,,,,,,209.5161989999906,209.53123219999543,209.53123219999543,209.53123219999543,220.30471009999746,,,,220.31330919999164,220.323298599993,220.323298599993,220.3705759000004,220.3710793999926,220.38692649999575,220.38692649999575,220.38692649999575,220.47016929999518,220.7375095999887,,,,,,,,down,10.756578100001207,None,space,0.33878700000059325,None,,,,,,,,,,,,,,,P148,001,2025-04-11_09h33.09.489,posner_endo_new1,2024.2.4,60.02429783385659,2025-04-11 09h33.22.234828 +0100,
cube_r.png,0.1,-0.31,invalid,11,11,0,down,10.398739099997329,None,space,0.4156102999986615,None,,,,,0,11,11,11,,,,,220.7532988999883,,,,,,,,,,,,,220.7378073,220.7532988999883,220.7532988999883,220.7532988999883,231.16058239999984,,,,231.16934379999293,231.17921279999427,231.17921279999427,231.2260998999991,231.22644249998848,231.24255619999894,231.24255619999894,231.24255619999894,231.32572660000005,231.65999049998936,,,,,,,,down,10.398739099997329,None,space,0.4156102999986615,None,,,,,,,,,,,,,,,P148,001,2025-04-11_09h33.09.489,posner_endo_new1,2024.2.4,60.02429783385659,2025-04-11 09h33.22.234828 +0100,
cube_r.png,0.1,0.31,valid,12,12,0,down,5.613156599996728,None,space,0.37726399999519344,None,,,,,0,12,12,12,,,,,231.6754757999879,,,,,,,,,,,,,231.66027719998965,231.6754757999879,231.6754757999879,231.6754757999879,237.3042587999953,,,,237.31613149998884,237.3263736999943,237.3263736999943,237.36975129999337,237.37009349999425,237.3862771999993,237.3862771999993,237.3862771999993,237.46948059998977,237.7702530999959,,,,,,,,down,5.613156599996728,None,space,0.37726399999519344,None,,,,,,,,,,,,,,,P148,001,2025-04-11_09h33.09.489,posner_endo_new1,2024.2.4,60.02429783385659,2025-04-11 09h33.22.234828 +0100,
cube_l.png,0.1,10,catch,13,13,0,down,6.534307300011278,None,None,,,,,,,0,13,13,13,,,,,237.78582769999048,,,,,,,,,,,,,237.77053739999246,237.78582769999048,237.78582769999048,237.78582769999048,244.32997109999997,,,,244.34184919999097,244.3520286999992,244.3520286999992,244.39594179998676,244.3962884999928,244.412107799988,244.412107799988,244.412107799988,244.49564959999407,247.410306699996,,,,246.51021119998768,247.42600619999575,247.42600619999575,247.42600619999575,down,6.534307300011278,None,None,,,,,,,,,,,,,,,,,P148,001,2025-04-11_09h33.09.489,posner_endo_new1,2024.2.4,60.02429783385659,2025-04-11 09h33.22.234828 +0100,
cube_r.png,0.1,-0.31,invalid,14,14,0,down,3.9023447000072338,None,space,0.4974326000083238,None,,,,,0,14,14,14,,,,,247.42600619999575,,,,,,,,,,,,,247.41056919998664,247.42600619999575,247.42600619999575,247.42600619999575,251.339559,,,,251.3513658999873,251.3616747999913,251.3616747999913,251.40545039999415,251.4057957999903,251.42197609999857,251.42197609999857,251.42197609999857,251.50521879999724,251.92245639998873,,,,,,,,down,3.9023447000072338,None,space,0.4974326000083238,None,,,,,,,,,,,,,,,P148,001,2025-04-11_09h33.09.489,posner_endo_new1,2024.2.4,60.02429783385659,2025-04-11 09h33.22.234828 +0100,
cube_l.png,0.1,-0.31,valid,15,15,0,down,3.1817451000097208,None,space,0.37764060001063626,None,,,,,0,15,15,15,,,,,251.938078399995,,,,,,,,,,,,,251.9227405999991,251.938078399995,251.938078399995,251.938078399995,255.1359870999877,,,,255.14776300000085,255.1579536999925,255.1579536999925,255.20149549999041,255.2017438999901,255.21808439999586,255.21808439999586,255.21808439999586,255.30128929999773,255.60365309999906,,,,,,,,down,3.1817451000097208,None,space,0.37764060001063626,None,,,,,,,,,,,,,,,P148,001,2025-04-11_09h33.09.489,posner_endo_new1,2024.2.4,60.02429783385659,2025-04-11 09h33.22.234828 +0100,
cube_r.png,0.1,10,catch,16,16,0,down,16.678375299990876,None,None,,,,,,,0,16,16,16,,,,,255.61798949999502,,,,,,,,,,,,,255.60423029999947,255.61798949999502,255.61798949999502,255.61798949999502,272.3012191999878,,,,272.3102239,272.3201616999868,272.3201616999868,272.3673049999925,272.36759119998896,272.3839114000002,272.3839114000002,272.3839114000002,272.46690279999166,275.3810114999942,,,,274.48141389999364,275.39753949998703,275.39753949998703,275.39753949998703,down,16.678375299990876,None,None,,,,,,,,,,,,,,,,,P148,001,2025-04-11_09h33.09.489,posner_endo_new1,2024.2.4,60.02429783385659,2025-04-11 09h33.22.234828 +0100,
cube_r.png,0.1,10,catch,17,17,0,down,6.611261900005047,None,None,,,,,,,0,17,17,17,,,,,275.39753949998703,,,,,,,,,,,,,275.3812204999995,275.39753949998703,275.39753949998703,275.39753949998703,282.02462489999016,,,,282.0335578999948,282.0436037999898,282.0436037999898,282.09074889999465,282.0912951999926,282.1071505,282.1071505,282.1071505,282.1738225000008,285.10527439998987,,,,284.1884129999962,285.120751999988,285.120751999988,285.120751999988,down,6.611261900005047,None,None,,,,,,,,,,,,,,,,,P148,001,2025-04-11_09h33.09.489,posner_endo_new1,2024.2.4,60.02429783385659,2025-04-11 09h33.22.234828 +0100,
cube_l.png,0.1,0.31,invalid,18,18,0,down,4.959923800008255,None,space,0.39141229999950156,None,,,,,0,18,18,18,,,,,285.120751999988,,,,,,,,,,,,,285.10570919999736,285.120751999988,285.120751999988,285.120751999988,290.08352309999464,,,,290.095342399989,290.10574780000024,290.10574780000024,290.1492806999886,290.1496233999933,290.1654195999872,290.1654195999872,290.1654195999872,290.2488197999919,290.5660358999885,,,,,,,,down,4.959923800008255,None,space,0.39141229999950156,None,,,,,,,,,,,,,,,P148,001,2025-04-11_09h33.09.489,posner_endo_new1,2024.2.4,60.02429783385659,2025-04-11 09h33.22.234828 +0100,
cube_l.png,0.1,10,catch,19,19,0,down,7.762797800009139,None,None,,,,,,,0,19,19,19,,,,,290.58198529999936,,,,,,,,,,,,,290.5663171999913,290.58198529999936,290.58198529999936,290.58198529999936,298.3581702999945,,,,298.37561209998967,298.38790859999426,298.38790859999426,298.4237158999895,298.4241168000008,298.44024479998916,298.44024479998916,298.44024479998916,298.52353279999807,301.4379806999932,,,,300.5380220999941,301.45386199999484,301.45386199999484,301.45386199999484,down,7.762797800009139,None,None,,,,,,,,,,,,,,,,,P148,001,2025-04-11_09h33.09.489,posner_endo_new1,2024.2.4,60.02429783385659,2025-04-11 09h33.22.234828 +0100,
cube_l.png,0.1,0.31,invalid,20,20,0,down,5.258387599998969,None,space,0.34479830000782385,None,,,,,0,20,20,20,,,,,301.45386199999484,,,,,,,,,,,,,301.43828369998664,301.45386199999484,301.45386199999484,301.45386199999484,306.71654319998925,,,,306.72942779998994,306.7399521999905,306.7399521999905,306.78165530000115,306.781917299988,306.7984365999873,306.7984365999873,306.7984365999873,306.88149229998817,307.14888539999083,,,,,,,,down,5.258387599998969,None,space,0.34479830000782385,None,,,,,,,,,,,,,,,P148,001,2025-04-11_09h33.09.489,posner_endo_new1,2024.2.4,60.02429783385659,2025-04-11 09h33.22.234828 +0100,
cube_l.png,0.1,-0.31,valid,21,21,0,down,10.91559839999536,None,space,0.47763219999615103,None,,,,,0,21,21,21,,,,,307.16497149999486,,,,,,,,,,,,,307.1490969999868,307.16497149999486,307.16497149999486,307.16497149999486,318.0896408999979,,,,318.1095443999948,318.12009789999865,318.12009789999865,318.1536367999943,318.15406819999043,318.1700891999935,318.1700891999935,318.1700891999935,318.25341729998763,318.6541201999935,,,,,,,,down,10.91559839999536,None,space,0.47763219999615103,None,,,,,,,,,,,,,,,P148,001,2025-04-11_09h33.09.489,posner_endo_new1,2024.2.4,60.02429783385659,2025-04-11 09h33.22.234828 +0100,
cube_r.png,0.1,0.31,valid,22,22,0,down,10.0028403000033,None,space,0.36427789999288507,None,,,,,0,22,22,22,,,,,318.66973359999247,,,,,,,,,,,,,318.6543641999888,318.66973359999247,318.66973359999247,318.66973359999247,328.6769892000011,,,,328.68677259999095,328.6968741999881,328.6968741999881,328.7427423999907,328.743043399998,328.7592122999922,328.7592122999922,328.7592122999922,328.8424980999989,329.1267999999982,,,,,,,,down,10.0028403000033,None,space,0.36427789999288507,None,,,,,,,,,,,,,,,P148,001,2025-04-11_09h33.09.489,posner_endo_new1,2024.2.4,60.02429783385659,2025-04-11 09h33.22.234828 +0100,
cube_r.png,0.1,-0.31,invalid,23,23,0,down,9.874143599998206,None,space,0.35003439999127295,None,,,,,0,23,23,23,,,,,329.14244619999954,,,,,,,,,,,,,329.1270465999987,329.14244619999954,329.14244619999954,329.14244619999954,339.0331667999999,,,,339.0428668999957,339.0528157999943,339.0528157999943,339.09913619999134,339.09943909999856,339.11539659999835,339.11539659999835,339.11539659999835,339.1820241999958,339.46647849999135,,,,,,,,down,9.874143599998206,None,space,0.35003439999127295,None,,,,,,,,,,,,,,,P148,001,2025-04-11_09h33.09.489,posner_endo_new1,2024.2.4,60.02429783385659,2025-04-11 09h33.22.234828 +0100,
cube_r.png,0.1,0.31,valid,24,24,0,down,10.783696599988616,None,space,0.3084872999897925,None,,,,,0,24,24,24,,,,,339.4814791999961,,,,,,,,,,,,,339.46672249998664,339.4814791999961,339.4814791999961,339.4814791999961,350.27176959998906,,,,350.2815178999881,350.2917746999883,350.2917746999883,350.3376411999925,350.3379458999989,350.3537389999983,350.3537389999983,350.3537389999983,350.4370804999926,350.6714179999981,,,,,,,,down,10.783696599988616,None,space,0.3084872999897925,None,,,,,,,,,,,,,,,P148,001,2025-04-11_09h33.09.489,posner_endo_new1,2024.2.4,60.02429783385659,2025-04-11 09h33.22.234828 +0100,
cube_r.png,0.1,-0.31,invalid,25,25,0,down,12.09692179999547,None,space,0.36619359999895096,None,,,,,0,25,25,25,,,,,350.68705009999394,,,,,,,,,,,,,350.6717362999916,350.68705009999394,350.68705009999394,350.68705009999394,362.79245219999575,,,,362.80234209999617,362.8125175999885,362.8125175999885,362.8577229999937,362.8580318999884,362.87456999999995,362.87456999999995,362.87456999999995,362.95746379999036,363.2420264999964,,,,,,,,down,12.09692179999547,None,space,0.36619359999895096,None,,,,,,,,,,,,,,,P148,001,2025-04-11_09h33.09.489,posner_endo_new1,2024.2.4,60.02429783385659,2025-04-11 09h33.22.234828 +0100,
cube_l.png,0.1,-0.31,valid,26,26,0,down,8.086297899993951,None,space,0.3744855000113603,None,,,,,0,26,26,26,,,,,363.2575439999928,,,,,,,,,,,,,363.2422815999889,363.2575439999928,363.2575439999928,363.2575439999928,371.35001729999203,,,,371.3577896999923,371.3688811999891,371.3688811999891,371.41596279999067,371.41618409998773,371.4324312999961,371.4324312999961,371.4324312999961,371.49859459999425,371.81788139999844,,,,,,,,down,8.086297899993951,None,space,0.3744855000113603,None,,,,,,,,,,,,,,,P148,001,2025-04-11_09h33.09.489,posner_endo_new1,2024.2.4,60.02429783385659,2025-04-11 09h33.22.234828 +0100,
cube_r.png,0.1,0.31,valid,27,27,0,down,5.880235599994194,None,space,0.3682591999968281,None,,,,,0,27,27,27,,,,,371.8323100999987,,,,,,,,,,,,,371.81846749999386,371.8323100999987,371.8323100999987,371.8323100999987,377.72860849999415,,,,377.74877919998835,377.7588696999883,377.7588696999883,377.7926074999996,377.79304279999633,377.8089784999902,377.8089784999902,377.8089784999902,377.8923492999893,378.1929240999889,,,,,,,,down,5.880235599994194,None,space,0.3682591999968281,None,,,,,,,,,,,,,,,P148,001,2025-04-11_09h33.09.489,posner_endo_new1,2024.2.4,60.02429783385659,2025-04-11 09h33.22.234828 +0100,
cube_r.png,0.1,10,catch,28,28,0,down,5.631007700008922,None,None,,,,,,,0,28,28,28,,,,,378.2090018999879,,,,,,,,,,,,,378.1931748999923,378.2090018999879,378.2090018999879,378.2090018999879,383.853847099992,,,,383.86352009999973,383.87546049999946,383.87546049999946,383.9202091999905,383.9208811999997,383.9365179999877,383.9365179999877,383.9365179999877,384.003143199996,386.9347354999918,,,,386.0177226999949,386.950119000001,386.950119000001,386.950119000001,down,5.631007700008922,None,None,,,,,,,,,,,,,,,,,P148,001,2025-04-11_09h33.09.489,posner_endo_new1,2024.2.4,60.02429783385659,2025-04-11 09h33.22.234828 +0100,
cube_r.png,0.1,0.31,valid,29,29,0,down,7.457833500011475,None,space,0.2655858000071021,None,,,,,0,29,29,29,,,,,386.950119000001,,,,,,,,,,,,,386.9352562999993,386.950119000001,386.950119000001,386.950119000001,394.4117288999987,,,,394.43088799998804,394.4413698999997,394.4413698999997,394.47553919999336,394.47597759999917,394.49193920000107,394.49193920000107,394.49193920000107,394.57539509999333,394.7594972999941,,,,,,,,down,7.457833500011475,None,space,0.2655858000071021,None,,,,,,,,,,,,,,,P148,001,2025-04-11_09h33.09.489,posner_endo_new1,2024.2.4,60.02429783385659,2025-04-11 09h33.22.234828 +0100,
cube_r.png,0.1,0.31,valid,30,30,0,down,7.320987800005241,None,space,0.45884820001083426,None,,,,,0,30,30,30,,,,,394.77503279999655,,,,,,,,,,,,,394.759808399991,394.77503279999655,394.77503279999655,394.77503279999655,402.10179659999267,,,,402.11155479999434,402.12189840000065,402.12189840000065,402.16781709999486,402.16812389998813,402.18402879999485,402.18402879999485,402.18402879999485,402.25065429999086,402.65149929998734,,,,,,,,down,7.320987800005241,None,space,0.45884820001083426,None,,,,,,,,,,,,,,,P148,001,2025-04-11_09h33.09.489,posner_endo_new1,2024.2.4,60.02429783385659,2025-04-11 09h33.22.234828 +0100,
cube_l.png,0.1,-0.31,valid,31,31,0,down,2.8929273999965517,None,space,0.4395622000010917,None,,,,,0,31,31,31,,,,,402.6672183999908,,,,,,,,,,,,,402.6517438999872,402.6672183999908,402.6672183999908,402.6672183999908,405.56495789998735,,,,405.5746231999947,405.58474389999174,405.58474389999174,405.63095809999504,405.63126499998907,405.6473349000007,405.6473349000007,405.6473349000007,405.7307976999873,406.0982328999962,,,,,,,,down,2.8929273999965517,None,space,0.4395622000010917,None,,,,,,,,,,,,,,,P148,001,2025-04-11_09h33.09.489,posner_endo_new1,2024.2.4,60.02429783385659,2025-04-11 09h33.22.234828 +0100,
cube_r.png,0.1,0.31,valid,32,32,0,down,5.366689100002986,None,space,0.3151841999933822,None,,,,,0,32,32,32,,,,,406.11334939999506,,,,,,,,,,,,,406.0984783999884,406.11334939999506,406.11334939999506,406.11334939999506,411.49211269999796,,,,411.50189749999845,411.5119970999949,411.5119970999949,411.5582132999989,411.55851569998777,411.57476229999156,411.57476229999156,411.57476229999156,411.6413804999902,411.89256169999135,,,,,,,,down,5.366689100002986,None,space,0.3151841999933822,None,,,,,,,,,,,,,,,P148,001,2025-04-11_09h33.09.489,posner_endo_new1,2024.2.4,60.02429783385659,2025-04-11 09h33.22.234828 +0100,
cube_r.png,0.1,-0.31,invalid,33,33,0,down,8.8362577999942,None,space,0.26067170000169426,None,,,,,0,33,33,33,,,,,411.9075456999999,,,,,,,,,,,,,411.89280619999045,411.9075456999999,411.9075456999999,411.9075456999999,420.7497719999956,,,,420.75956259999657,420.7696536000003,420.7696536000003,420.81512689999363,420.81543049999163,420.8320265999937,420.8320265999937,420.8320265999937,420.91517499998736,421.09912479999184,,,,,,,,down,8.8362577999942,None,space,0.26067170000169426,None,,,,,,,,,,,,,,,P148,001,2025-04-11_09h33.09.489,posner_endo_new1,2024.2.4,60.02429783385659,2025-04-11 09h33.22.234828 +0100,
cube_r.png,0.1,10,catch,34,34,0,down,10.116995399992447,None,None,,,,,,,0,34,34,34,,,,,421.1150503999961,,,,,,,,,,,,,421.09936729999026,421.1150503999961,421.1150503999961,421.1150503999961,431.23906759999227,,,,431.24884459999157,431.2590286999912,431.2590286999912,431.30464269999356,431.304956699998,431.32126569999673,431.32126569999673,431.32126569999673,431.4044281999959,434.3184586999996,,,,433.4189127999998,434.3344664999895,434.3344664999895,434.3344664999895,down,10.116995399992447,None,None,,,,,,,,,,,,,,,,,P148,001,2025-04-11_09h33.09.489,posner_endo_new1,2024.2.4,60.02429783385659,2025-04-11 09h33.22.234828 +0100,
cube_r.png,0.1,0.31,valid,35,35,0,down,5.801563999993959,None,space,0.46830799999588635,None,,,,,0,35,35,35,,,,,434.3344664999895,,,,,,,,,,,,,434.31868810000014,434.3344664999895,434.3344664999895,434.3344664999895,440.1466195999965,,,,440.15638059999037,440.16656119999243,440.16656119999243,440.2120114999998,440.21231609999086,440.2285785999993,440.2285785999993,440.2285785999993,440.311686999994,440.7127371999959,,,,,,,,down,5.801563999993959,None,space,0.46830799999588635,None,,,,,,,,,,,,,,,P148,001,2025-04-11_09h33.09.489,posner_endo_new1,2024.2.4,60.02429783385659,2025-04-11 09h33.22.234828 +0100,
cube_r.png,0.1,-0.31,invalid,36,36,0,down,4.7678521999914665,None,space,0.426061899997876,None,,,,,0,36,36,36,,,,,440.7279329999874,,,,,,,,,,,,,440.712984999991,440.7279329999874,440.7279329999874,440.7279329999874,445.50761869999405,,,,445.51749949999794,445.5276045999926,445.5276045999926,445.5733838999877,445.5736973999883,445.5896314999991,445.5896314999991,445.5896314999991,445.6728265999991,446.02355009999883,,,,,,,,down,4.7678521999914665,None,space,0.426061899997876,None,,,,,,,,,,,,,,,P148,001,2025-04-11_09h33.09.489,posner_endo_new1,2024.2.4,60.02429783385659,2025-04-11 09h33.22.234828 +0100,
cube_l.png,0.1,0.31,invalid,37,37,0,down,8.273465300007956,None,space,0.41825789998983964,None,,,,,0,37,37,37,,,,,446.0392823000002,,,,,,,,,,,,,446.0238274000003,446.0392823000002,446.0392823000002,446.0392823000002,454.3151327999949,,,,454.32480170000053,454.3347544999997,454.3347544999997,454.3811943999899,454.3814941999881,454.3975825999951,454.3975825999951,454.3975825999951,454.4805292999954,454.83157739999297,,,,,,,,down,8.273465300007956,None,space,0.41825789998983964,None,,,,,,,,,,,,,,,P148,001,2025-04-11_09h33.09.489,posner_endo_new1,2024.2.4,60.02429783385659,2025-04-11 09h33.22.234828 +0100,
cube_l.png,0.1,0.31,invalid,38,38,0,down,13.76107609999599,None,space,0.38378270000976045,None,,,,,0,38,38,38,,,,,454.8469819999882,,,,,,,,,,,,,454.8318253999896,454.8469819999882,454.8469819999882,454.8469819999882,468.61742859998776,,,,468.6272215999925,468.63741139999183,468.63741139999183,468.68305389999296,468.6833575999917,468.69938819999516,468.69938819999516,468.69938819999516,468.78282759999274,469.1002981999918,,,,,,,,down,13.76107609999599,None,space,0.38378270000976045,None,,,,,,,,,,,,,,,P148,001,2025-04-11_09h33.09.489,posner_endo_new1,2024.2.4,60.02429783385659,2025-04-11 09h33.22.234828 +0100,
cube_r.png,0.1,0.31,valid,39,39,0,down,10.452383499999996,None,space,0.4204916000016965,None,,,,,0,39,39,39,,,,,469.1155201999936,,,,,,,,,,,,,469.1005417999986,469.1155201999936,469.1155201999936,469.1155201999936,479.5728124999878,,,,479.58272459999716,479.5928603999928,479.5928603999928,479.6384875999938,479.6387883999996,479.6552035999921,479.6552035999921,479.6552035999921,479.7382759999891,480.08906019999995,,,,,,,,down,10.452383499999996,None,space,0.4204916000016965,None,,,,,,,,,,,,,,,P148,001,2025-04-11_09h33.09.489,posner_endo_new1,2024.2.4,60.02429783385659,2025-04-11 09h33.22.234828 +0100,
cube_l.png,0.1,0.31,invalid,40,40,0,down,5.983749599996372,None,space,0.359109900004114,None,,,,,0,40,40,40,,,,,480.1045496999868,,,,,,,,,,,,,480.08930279999913,480.1045496999868,480.1045496999868,480.1045496999868,486.09961349998775,,,,486.1076459999895,486.11790199999814,486.11790199999814,486.1652887999953,486.1655111,486.1813894999941,486.1813894999941,486.1813894999941,486.2649670999963,486.5488246999885,,,,,,,,down,5.983749599996372,None,space,0.359109900004114,None,,,,,,,,,,,,,,,P148,001,2025-04-11_09h33.09.489,posner_endo_new1,2024.2.4,60.02429783385659,2025-04-11 09h33.22.234828 +0100,
cube_l.png,0.1,10,catch,41,41,0,down,5.595931500007282,None,None,,,,,,,0,41,41,41,,,,,486.56437199999345,,,,,,,,,,,,,486.54899179999484,486.56437199999345,486.56437199999345,486.56437199999345,492.17786119999073,,,,492.1987197999988,492.20891239999037,492.20891239999037,492.242078700001,492.2425079999957,492.25854089998757,492.25854089998757,492.25854089998757,492.3417974999902,495.2565012999985,,,,494.3566998999886,495.27216529998987,495.27216529998987,495.27216529998987,down,5.595931500007282,None,None,,,,,,,,,,,,,,,,,P148,001,2025-04-11_09h33.09.489,posner_endo_new1,2024.2.4,60.02429783385659,2025-04-11 09h33.22.234828 +0100,
cube_l.png,0.1,-0.31,valid,42,42,0,down,32.120175099989865,None,space,0.33191619999706745,None,,,,,0,42,42,42,,,,,495.27216529998987,,,,,,,,,,,,,495.2567272999877,495.27216529998987,495.27216529998987,495.27216529998987,527.4073372999992,,,,527.4212469999911,527.4334677000006,527.4334677000006,527.4727659999917,527.4732008999999,527.4892494999949,527.4892494999949,527.4892494999949,527.5723491999961,527.8238795999932,,,,,,,,down,32.120175099989865,None,space,0.33191619999706745,None,,,,,,,,,,,,,,,P148,001,2025-04-11_09h33.09.489,posner_endo_new1,2024.2.4,60.02429783385659,2025-04-11 09h33.22.234828 +0100,
cube_l.png,0.1,10,catch,43,43,0,down,7.841759600007208,None,None,,,,,,,0,43,43,43,,,,,527.8388341999962,,,,,,,,,,,,,527.8242452999984,527.8388341999962,527.8388341999962,527.8388341999962,535.6821478999918,,,,535.6921958999883,535.7024546999892,535.7024546999892,535.7475704999961,535.7478742999956,535.7642898999911,535.7642898999911,535.7642898999911,535.8474109999952,538.7620618999936,,,,537.8622078999906,538.7775445999869,538.7775445999869,538.7775445999869,down,7.841759600007208,None,None,,,,,,,,,,,,,,,,,P148,001,2025-04-11_09h33.09.489,posner_endo_new1,2024.2.4,60.02429783385659,2025-04-11 09h33.22.234828 +0100,
cube_l.png,0.1,0.31,invalid,44,44,0,down,6.254326900001615,None,space,0.31461200000194367,None,,,,,0,44,44,44,,,,,538.7775445999869,,,,,,,,,,,,,538.7622951999947,538.7775445999869,538.7775445999869,538.7775445999869,545.0394241999893,,,,545.04923769999,545.0593255999993,545.0593255999993,545.1045834999968,545.104886999994,545.1213971999969,545.1213971999969,545.1213971999969,545.2046105999907,545.4388760000002,,,,,,,,down,6.254326900001615,None,space,0.31461200000194367,None,,,,,,,,,,,,,,,P148,001,2025-04-11_09h33.09.489,posner_endo_new1,2024.2.4,60.02429783385659,2025-04-11 09h33.22.234828 +0100,
cube_l.png,0.1,0.31,invalid,45,45,0,down,8.2900379000057,None,space,0.38201020000269637,None,,,,,0,45,45,45,,,,,545.4541112999868,,,,,,,,,,,,,545.4391319999995,545.4541112999868,545.4541112999868,545.4541112999868,553.7469311999885,,,,553.7604565999936,553.7727430999948,553.7727430999948,553.813012300001,553.8136707999947,553.8293432999926,553.8293432999926,553.8293432999926,553.9125881999935,554.2149107000005,,,,,,,,down,8.2900379000057,None,space,0.38201020000269637,None,,,,,,,,,,,,,,,P148,001,2025-04-11_09h33.09.489,posner_endo_new1,2024.2.4,60.02429783385659,2025-04-11 09h33.22.234828 +0100,
cube_r.png,0.1,0.31,valid,46,46,0,down,9.227443100011442,None,space,0.43672380001225974,None,,,,,0,46,46,46,,,,,554.229124999998,,,,,,,,,,,,,554.2154897,554.229124999998,554.229124999998,554.229124999998,563.4718371999916,,,,563.4952971999883,563.5074259999965,563.5074259999965,563.5355921000009,563.5359177999926,563.5524255999917,563.5524255999917,563.5524255999917,563.635506999999,564.0028875999997,,,,,,,,down,9.227443100011442,None,space,0.43672380001225974,None,,,,,,,,,,,,,,,P148,001,2025-04-11_09h33.09.489,posner_endo_new1,2024.2.4,60.02429783385659,2025-04-11 09h33.22.234828 +0100,
cube_l.png,0.1,-0.31,valid,47,47,0,down,8.453286200005095,None,space,0.37798400000610854,None,,,,,0,47,47,47,,,,,564.0186465000006,,,,,,,,,,,,,564.0031579999923,564.0186465000006,564.0186465000006,564.0186465000006,572.477881999992,,,,572.4891422999935,572.4993083999871,572.4993083999871,572.5435874999966,572.5439299999998,572.5597730000009,572.5597730000009,572.5597730000009,572.6432684999891,572.9442505999905,,,,,,,,down,8.453286200005095,None,space,0.37798400000610854,None,,,,,,,,,,,,,,,P148,001,2025-04-11_09h33.09.489,posner_endo_new1,2024.2.4,60.02429783385659,2025-04-11 09h33.22.234828 +0100,
cube_r.png,0.1,-0.31,invalid,48,48,0,down,4.008984100000816,None,space,0.46814610000001267,None,,,,,0,48,48,48,,,,,572.9596404999902,,,,,,,,,,,,,572.9445237999898,572.9596404999902,572.9596404999902,572.9596404999902,576.9732797999895,,,,576.9843301999936,576.9945139999909,576.9945139999909,577.0388020999962,577.0391305999947,577.0550765999942,577.0550765999942,577.0550765999942,577.1387667999952,577.5394013999903,,,,,,,,down,4.008984100000816,None,space,0.46814610000001267,None,,,,,,,,,,,,,,,P148,001,2025-04-11_09h33.09.489,posner_endo_new1,2024.2.4,60.02429783385659,2025-04-11 09h33.22.234828 +0100,
cube_r.png,0.1,10,catch,49,49,0,down,4.27742230000149,None,None,,,,,,,0,49,49,49,,,,,577.5548836999951,,,,,,,,,,,,,577.539663699994,577.5548836999951,577.5548836999951,577.5548836999951,581.8348093999957,,,,581.8459633999882,581.8561936999904,581.8561936999904,581.9006993999938,581.9010276999907,581.9167324999871,581.9167324999871,581.9167324999871,582.0004874999868,584.9143526999978,,,,584.014854699999,584.9307334999903,584.9307334999903,584.9307334999903,down,4.27742230000149,None,None,,,,,,,,,,,,,,,,,P148,001,2025-04-11_09h33.09.489,posner_endo_new1,2024.2.4,60.02429783385659,2025-04-11 09h33.22.234828 +0100,
cube_l.png,0.1,-0.31,valid,50,50,0,down,6.758042699992075,None,space,0.3961966999922879,None,,,,,0,50,50,50,,,,,584.9307334999903,,,,,,,,,,,,,584.9146075999888,584.9307334999903,584.9307334999903,584.9307334999903,591.6913464999961,,,,591.7026104999968,591.7127335999976,591.7127335999976,591.757189099997,591.7575230999937,591.7735676000011,591.7735676000011,591.7735676000011,591.8566228999989,592.1741782999889,,,,,,,,down,6.758042699992075,None,space,0.3961966999922879,None,,,,,,,,,,,,,,,P148,001,2025-04-11_09h33.09.489,posner_endo_new1,2024.2.4,60.02429783385659,2025-04-11 09h33.22.234828 +0100,
cube_l.png,0.1,-0.31,valid,51,51,0,down,6.714069699999527,None,space,0.31543829999282025,None,,,,,0,51,51,51,,,,,592.1900376999984,,,,,,,,,,,,,592.1744536999904,592.1900376999984,592.1900376999984,592.1900376999984,598.9175759999926,,,,598.9287269999913,598.9389903999981,598.9389903999981,598.9829993999883,598.9833261999884,598.9996079999983,598.9996079999983,598.9996079999983,599.0825314999965,599.316837499995,,,,,,,,down,6.714069699999527,None,space,0.31543829999282025,None,,,,,,,,,,,,,,,P148,001,2025-04-11_09h33.09.489,posner_endo_new1,2024.2.4,60.02429783385659,2025-04-11 09h33.22.234828 +0100,
cube_r.png,0.1,-0.31,invalid,52,52,0,down,7.451433100010036,None,space,0.3110869999945862,None,,,,,0,52,52,52,,,,,599.332585600001,,,,,,,,,,,,,599.3171088999952,599.332585600001,599.332585600001,599.332585600001,606.7926413999958,,,,606.8038333999866,606.8139973999932,606.8139973999932,606.8582939999906,606.8586192999937,606.87475979999,606.87475979999,606.87475979999,606.9583524999907,607.1920736999891,,,,,,,,down,7.451433100010036,None,space,0.3110869999945862,None,,,,,,,,,,,,,,,P148,001,2025-04-11_09h33.09.489,posner_endo_new1,2024.2.4,60.02429783385659,2025-04-11 09h33.22.234828 +0100,
cube_l.png,0.1,-0.31,valid,53,53,0,down,9.623897700002999,None,space,0.3742774999991525,None,,,,,0,53,53,53,,,,,607.2079406999983,,,,,,,,,,,,,607.1923408000002,607.2079406999983,607.2079406999983,607.2079406999983,616.8488221999869,,,,616.860208699989,616.8700779999926,616.8700779999926,616.9144051999901,616.9147514999931,616.9313124999899,616.9313124999899,616.9313124999899,616.9978918999986,617.3152233000001,,,,,,,,down,9.623897700002999,None,space,0.3742774999991525,None,,,,,,,,,,,,,,,P148,001,2025-04-11_09h33.09.489,posner_endo_new1,2024.2.4,60.02429783385659,2025-04-11 09h33.22.234828 +0100,
cube_r.png,0.1,10,catch,54,54,0,down,3.4531959000014467,None,None,,,,,,,0,54,54,54,,,,,617.330859099995,,,,,,,,,,,,,617.3155037999968,617.330859099995,617.330859099995,617.330859099995,620.7950915999972,,,,620.8062714999978,620.8164351999876,620.8164351999876,620.8607856999879,620.8611163999885,620.8770775999874,620.8770775999874,620.8770775999874,620.9601266999962,623.8749879999959,,,,622.9748399999953,623.8908596999972,623.8908596999972,623.8908596999972,down,3.4531959000014467,None,None,,,,,,,,,,,,,,,,,P148,001,2025-04-11_09h33.09.489,posner_endo_new1,2024.2.4,60.02429783385659,2025-04-11 09h33.22.234828 +0100,
cube_l.png,0.1,0.31,invalid,55,55,0,down,8.229832699988037,None,space,0.3722617000021273,None,,,,,0,55,55,55,,,,,623.8908596999972,,,,,,,,,,,,,623.8752364999964,623.8908596999972,623.8908596999972,623.8908596999972,632.1334738000005,,,,632.1447175999929,632.1549566999893,632.1549566999893,632.1992746999895,632.1996100999968,632.2154180999933,632.2154180999933,632.2154180999933,632.2987947999936,632.5993862999894,,,,,,,,down,8.229832699988037,None,space,0.3722617000021273,None,,,,,,,,,,,,,,,P148,001,2025-04-11_09h33.09.489,posner_endo_new1,2024.2.4,60.02429783385659,2025-04-11 09h33.22.234828 +0100,
cube_l.png,0.1,-0.31,valid,56,56,0,down,8.241280899994308,None,space,0.33543410000856966,None,,,,,0,56,56,56,,,,,632.6151284999942,,,,,,,,,,,,,632.5996761999995,632.6151284999942,632.6151284999942,632.6151284999942,640.8577195999969,,,,640.8690313999978,640.8791275999974,640.8791275999974,640.9235940999934,640.923925799987,640.9399522999884,640.9399522999884,640.9399522999884,641.0230038999871,641.2908516999887,,,,,,,,down,8.241280899994308,None,space,0.33543410000856966,None,,,,,,,,,,,,,,,P148,001,2025-04-11_09h33.09.489,posner_endo_new1,2024.2.4,60.02429783385659,2025-04-11 09h33.22.234828 +0100,
cube_r.png,0.1,0.31,valid,57,57,0,down,5.35834020000766,None,space,0.35560950000945013,None,,,,,0,57,57,57,,,,,641.3060114999971,,,,,,,,,,,,,641.2911247000011,641.3060114999971,641.3060114999971,641.3060114999971,646.6688397999969,,,,646.6798616999877,646.690184799998,646.690184799998,646.7341616999911,646.7344913999987,646.7505878999946,646.7505878999946,646.7505878999946,646.8339874999947,647.1179990999954,,,,,,,,down,5.35834020000766,None,space,0.35560950000945013,None,,,,,,,,,,,,,,,P148,001,2025-04-11_09h33.09.489,posner_endo_new1,2024.2.4,60.02429783385659,2025-04-11 09h33.22.234828 +0100,
cube_r.png,0.1,-0.31,invalid,58,58,0,down,8.275012099999003,None,space,0.291829299996607,None,,,,,0,58,58,58,,,,,647.1337679999997,,,,,,,,,,,,,647.1182689999987,647.1337679999997,647.1337679999997,647.1337679999997,655.4099455999967,,,,655.4211070999881,655.4312219999993,655.4312219999993,655.4753354999993,655.4756697999983,655.4917748999869,655.4917748999869,655.4917748999869,655.5751066999946,655.7926274999918,,,,,,,,down,8.275012099999003,None,space,0.291829299996607,None,,,,,,,,,,,,,,,P148,001,2025-04-11_09h33.09.489,posner_endo_new1,2024.2.4,60.02429783385659,2025-04-11 09h33.22.234828 +0100,
cube_l.png,0.1,0.31,invalid,59,59,0,down,8.448174600009224,None,space,0.38860510000085924,None,,,,,0,59,59,59,,,,,655.8079830999923,,,,,,,,,,,,,655.7928907999885,655.8079830999923,655.8079830999923,655.8079830999923,664.2672046999942,,,,664.2784742999938,664.2885011999897,664.2885011999897,664.3325590999884,664.3328961999941,664.3495461999992,664.3495461999992,664.3495461999992,664.4324316999991,664.7502332000004,,,,,,,,down,8.448174600009224,None,space,0.38860510000085924,None,,,,,,,,,,,,,,,P148,001,2025-04-11_09h33.09.489,posner_endo_new1,2024.2.4,60.02429783385659,2025-04-11 09h33.22.234828 +0100,
,,,,,,,,,,,,,,,,,,,,,,,,,,,,,,,,,,,,,,,,,,,,,,,,,,,,,,,,,,,,,,,,,,,,,664.7504103999963,664.7655123999866,664.7655123999866,724.7710826999974,727.4043934999936,space,62.63511620000645,None,,,,,,,P148,001,2025-04-11_09h33.09.489,posner_endo_new1,2024.2.4,60.02429783385659,2025-04-11 09h33.22.234828 +0100,
,,,,,,,,,,,,,,,,,,,,,,,,,,,,,,,,,,727.4045883999934,727.4183712999948,730.511067799991,730.4000360999926,,,,,,,,,,,,,,,,,,,,,,,,,,,,,,,,,,,,,,,,,,,,,,P148,001,2025-04-11_09h33.09.489,posner_endo_new1,2024.2.4,60.02429783385659,2025-04-11 09h33.22.234828 +0100,
cube_l.png,0.1,10,catch,0,0,0,up,9.809710499990615,None,None,,,,,,,,,,,0,0,0,0,730.511067799991,,,,,,,,,,,,,730.502862999987,730.511067799991,730.511067799991,730.511067799991,740.3229338999954,,,,740.3359372999985,740.3461512999929,740.3461512999929,740.3881895999948,740.3884684999939,740.4047494999977,740.4047494999977,740.4047494999977,740.4879692999966,743.4024863999948,,,,742.5028849999944,743.4185572999995,743.4185572999995,743.4185572999995,,,,,,,,,,,,,,,up,9.809710499990615,None,None,,,P148,001,2025-04-11_09h33.09.489,posner_endo_new1,2024.2.4,60.02429783385659,2025-04-11 09h33.22.234828 +0100,
cube_l.png,0.1,10,catch,1,1,0,up,4.094029200001387,None,None,,,,,,,,,,,0,1,1,1,743.4185572999995,,,,,,,,,,,,,743.4026932999986,743.4185572999995,743.4185572999995,743.4185572999995,747.5152682999906,,,,747.5237775999994,747.5338167000009,747.5338167000009,747.5807821999915,747.5810048999992,747.59770079999,747.59770079999,747.59770079999,747.6808224999986,750.5960903999949,,,,749.6956784999929,750.611388099991,750.611388099991,750.611388099991,,,,,,,,,,,,,,,up,4.094029200001387,None,None,,,P148,001,2025-04-11_09h33.09.489,posner_endo_new1,2024.2.4,60.02429783385659,2025-04-11 09h33.22.234828 +0100,
cube_l.png,0.1,0.31,invalid,2,2,0,up,4.9411068999907,None,space,0.4012210000073537,None,,,,,,,,,0,2,2,2,750.611388099991,,,,,,,,,,,,,750.5966334999976,750.611388099991,750.611388099991,750.611388099991,755.5588857999974,,,,755.5824394999945,755.5945723999903,755.5945723999903,755.6224340999906,755.6227737000008,755.6389346999931,755.6389346999931,755.6389346999931,755.7225868999958,756.0567019000009,,,,,,,,,,,,,,,,,,,,,,up,4.9411068999907,None,space,0.4012210000073537,None,P148,001,2025-04-11_09h33.09.489,posner_endo_new1,2024.2.4,60.02429783385659,2025-04-11 09h33.22.234828 +0100,
cube_l.png,0.1,0.31,invalid,3,3,0,up,8.952072800006135,None,space,0.675328500001342,None,,,,,,,,,0,3,3,3,756.0719627999933,,,,,,,,,,,,,756.0569905999873,756.0719627999933,756.0719627999933,756.0719627999933,765.0308459999942,,,,765.0425560000003,765.0528371999972,765.0528371999972,765.0965569999971,765.096805299996,765.1128781999869,765.1128781999869,765.1128781999869,765.1962613999931,765.7967539999954,,,,,,,,,,,,,,,,,,,,,,up,8.952072800006135,None,space,0.675328500001342,None,P148,001,2025-04-11_09h33.09.489,posner_endo_new1,2024.2.4,60.02429783385659,2025-04-11 09h33.22.234828 +0100,
cube_l.png,0.1,-0.31,valid,4,4,0,up,8.316103399993153,None,space,0.37271499999042135,None,,,,,,,,,0,4,4,4,765.8118200999888,,,,,,,,,,,,,765.7969494999998,765.8118200999888,765.8118200999888,765.8118200999888,774.139662799993,,,,774.163112299997,774.1737042999885,774.1737042999885,774.2033554999944,774.2037035999965,774.2198729999945,774.2198729999945,774.2198729999945,774.3035899999959,774.6041153999977,,,,,,,,,,,,,,,,,,,,,,up,8.316103399993153,None,space,0.37271499999042135,None,P148,001,2025-04-11_09h33.09.489,posner_endo_new1,2024.2.4,60.02429783385659,2025-04-11 09h33.22.234828 +0100,
cube_r.png,0.1,-0.31,invalid,5,5,0,up,5.8361765000008745,None,space,0.3866008999902988,None,,,,,,,,,0,5,5,5,774.6199661999999,,,,,,,,,,,,,774.6044052999932,774.6199661999999,774.6199661999999,774.6199661999999,780.4649623000005,,,,780.4766526999883,780.4868130999967,780.4868130999967,780.5304667999881,780.530712199994,780.5471977999987,780.5471977999987,780.5471977999987,780.6306347999925,780.9493430000002,,,,,,,,,,,,,,,,,,,,,,up,5.8361765000008745,None,space,0.3866008999902988,None,P148,001,2025-04-11_09h33.09.489,posner_endo_new1,2024.2.4,60.02429783385659,2025-04-11 09h33.22.234828 +0100,
cube_r.png,0.1,0.31,valid,6,6,0,up,5.557042600004934,None,space,0.41812649999337737,None,,,,,,,,,0,6,6,6,780.9636108999985,,,,,,,,,,,,,780.9499233999959,780.9636108999985,780.9636108999985,780.9636108999985,786.5256827999983,,,,786.5374672999897,786.5477458999958,786.5477458999958,786.5911909999995,786.5914377000008,786.6075115999993,786.6075115999993,786.6075115999993,786.6906788999913,787.04144429999,,,,,,,,,,,,,,,,,,,,,,up,5.557042600004934,None,space,0.41812649999337737,None,P148,001,2025-04-11_09h33.09.489,posner_endo_new1,2024.2.4,60.02429783385659,2025-04-11 09h33.22.234828 +0100,
cube_r.png,0.1,-0.31,invalid,7,7,0,up,8.135941500004265,None,space,0.2848729999968782,None,,,,,,,,,0,7,7,7,787.0572776999907,,,,,,,,,,,,,787.0417441999889,787.0572776999907,787.0572776999907,787.0572776999907,795.2000448999897,,,,795.2118071000004,795.2220610999939,795.2220610999939,795.2654848999955,795.2658270999964,795.2820945999993,795.2820945999993,795.2820945999993,795.3652478000004,795.5830372999917,,,,,,,,,,,,,,,,,,,,,,up,8.135941500004265,None,space,0.2848729999968782,None,P148,001,2025-04-11_09h33.09.489,posner_endo_new1,2024.2.4,60.02429783385659,2025-04-11 09h33.22.234828 +0100,
cube_l.png,0.1,-0.31,valid,8,8,0,up,7.241815100001986,None,space,0.3066032999922754,None,,,,,,,,,0,8,8,8,795.5982261999889,,,,,,,,,,,,,795.583323599989,795.5982261999889,795.5982261999889,795.5982261999889,802.842269899993,,,,802.8540421999933,802.8642846000002,802.8642846000002,802.907730299994,802.9080791999877,802.9241828999948,802.9241828999948,802.9241828999948,803.007480299988,803.2418397000001,,,,,,,,,,,,,,,,,,,,,,up,7.241815100001986,None,space,0.3066032999922754,None,P148,001,2025-04-11_09h33.09.489,posner_endo_new1,2024.2.4,60.02429783385659,2025-04-11 09h33.22.234828 +0100,
cube_r.png,0.1,-0.31,invalid,9,9,0,up,6.822800299996743,None,space,0.28273509998689406,None,,,,,,,,,0,9,9,9,803.2570403999998,,,,,,,,,,,,,803.242127199992,803.2570403999998,803.2570403999998,803.2570403999998,810.084840999989,,,,810.0966483999946,810.1069458999991,810.1069458999991,810.1502512999868,810.15059379999,810.1669651999982,810.1669651999982,810.1669651999982,810.250198099995,810.4511898999917,,,,,,,,,,,,,,,,,,,,,,up,6.822800299996743,None,space,0.28273509998689406,None,P148,001,2025-04-11_09h33.09.489,posner_endo_new1,2024.2.4,60.02429783385659,2025-04-11 09h33.22.234828 +0100,
cube_l.png,0.1,0.31,invalid,10,10,0,up,12.349454399998649,None,space,0.279312899991055,None,,,,,,,,,0,10,10,10,810.4663766999874,,,,,,,,,,,,,810.4514860999916,810.4663766999874,810.4663766999874,810.4663766999874,822.8215472999873,,,,822.8333047999913,822.8434593999991,822.8434593999991,822.8874240000005,822.8877752999979,822.9035297999944,822.9035297999944,822.9035297999944,822.9869116999907,823.1877533999941,,,,,,,,,,,,,,,,,,,,,,up,12.349454399998649,None,space,0.279312899991055,None,P148,001,2025-04-11_09h33.09.489,posner_endo_new1,2024.2.4,60.02429783385659,2025-04-11 09h33.22.234828 +0100,
cube_r.png,0.1,-0.31,invalid,11,11,0,up,10.69307119998848,None,space,0.27999260000069626,None,,,,,,,,,0,11,11,11,823.2035046999954,,,,,,,,,,,,,823.188041299989,823.2035046999954,823.2035046999954,823.2035046999954,833.9103794999974,,,,833.9219905999926,833.9321965999989,833.9321965999989,833.9760275000008,833.9763680999895,833.992445699987,833.992445699987,833.992445699987,834.0757215999911,834.2767838,,,,,,,,,,,,,,,,,,,,,,up,10.69307119998848,None,space,0.27999260000069626,None,P148,001,2025-04-11_09h33.09.489,posner_endo_new1,2024.2.4,60.02429783385659,2025-04-11 09h33.22.234828 +0100,
cube_r.png,0.1,0.31,valid,12,12,0,up,10.484048400001484,None,space,0.2594043999997666,None,,,,,,,,,0,12,12,12,834.2920788999909,,,,,,,,,,,,,834.2770699999965,834.2920788999909,834.2920788999909,834.2920788999909,844.7826820999908,,,,844.7943909999885,844.8045459999994,844.8045459999994,844.8479661999882,844.8483144999918,844.8646792999934,844.8646792999934,844.8646792999934,844.9478743999935,845.1321904999932,,,,,,,,,,,,,,,,,,,,,,up,10.484048400001484,None,space,0.2594043999997666,None,P148,001,2025-04-11_09h33.09.489,posner_endo_new1,2024.2.4,60.02429783385659,2025-04-11 09h33.22.234828 +0100,
cube_l.png,0.1,10,catch,13,13,0,up,9.717163299996173,None,None,,,,,,,,,,,0,13,13,13,845.1476805999991,,,,,,,,,,,,,845.1324849999946,845.1476805999991,845.1476805999991,845.1476805999991,854.8722507999919,,,,854.8840650999919,854.8942643999908,854.8942643999908,854.9378042999888,854.9381487999926,854.9543104999902,854.9543104999902,854.9543104999902,855.0376624999917,857.9519976999873,,,,857.0522031,857.9679529999994,857.9679529999994,857.9679529999994,,,,,,,,,,,,,,,up,9.717163299996173,None,None,,,P148,001,2025-04-11_09h33.09.489,posner_endo_new1,2024.2.4,60.02429783385659,2025-04-11 09h33.22.234828 +0100,
cube_r.png,0.1,-0.31,invalid,14,14,0,up,6.152487300001667,None,space,0.470988999994006,None,,,,,,,,,0,14,14,14,857.9679529999994,,,,,,,,,,,,,857.952278599987,857.9679529999994,857.9679529999994,857.9679529999994,864.129488999999,,,,864.1386089000007,864.1483745000005,864.1483745000005,864.1947507000004,864.194997499988,864.2114728999877,864.2114728999877,864.2114728999877,864.2948578999931,864.6951162999903,,,,,,,,,,,,,,,,,,,,,,up,6.152487300001667,None,space,0.470988999994006,None,P148,001,2025-04-11_09h33.09.489,posner_endo_new1,2024.2.4,60.02429783385659,2025-04-11 09h33.22.234828 +0100,
cube_l.png,0.1,-0.31,valid,15,15,0,up,5.561027499992633,None,space,0.3951456000067992,None,,,,,,,,,0,15,15,15,864.7110410999885,,,,,,,,,,,,,864.6953134999931,864.7110410999885,864.7110410999885,864.7110410999885,870.2731877999904,,,,870.2848671999964,870.2951549999998,870.2951549999998,870.3387647999916,870.3391135999991,870.355009699997,870.355009699997,870.355009699997,870.4381865999894,870.7556388999947,,,,,,,,,,,,,,,,,,,,,,up,5.561027499992633,None,space,0.3951456000067992,None,P148,001,2025-04-11_09h33.09.489,posner_endo_new1,2024.2.4,60.02429783385659,2025-04-11 09h33.22.234828 +0100,
cube_r.png,0.1,10,catch,16,16,0,up,4.556771200004732,None,None,,,,,,,,,,,0,16,16,16,870.7716042999964,,,,,,,,,,,,,870.755940499992,870.7716042999964,870.7716042999964,870.7716042999964,875.3346516999882,,,,875.3463633999927,875.3565721999912,875.3565721999912,875.400269699996,875.4006171999936,875.4168340999895,875.4168340999895,875.4168340999895,875.4999038999958,878.4144678999874,,,,877.5145476999896,878.4300679999869,878.4300679999869,878.4300679999869,,,,,,,,,,,,,,,up,4.556771200004732,None,None,,,P148,001,2025-04-11_09h33.09.489,posner_endo_new1,2024.2.4,60.02429783385659,2025-04-11 09h33.22.234828 +0100,
cube_r.png,0.1,10,catch,17,17,0,up,4.569842500000959,None,None,,,,,,,,,,,0,17,17,17,878.4300679999869,,,,,,,,,,,,,878.4147387999983,878.4300679999869,878.4300679999869,878.4300679999869,883.0099771999958,,,,883.0217004000006,883.0319840000011,883.0319840000011,883.0754799999995,883.0758252999949,883.0922570999974,883.0922570999974,883.0922570999974,883.1751657999994,886.0899033999885,,,,885.1897705999872,886.1057009999931,886.1057009999931,886.1057009999931,,,,,,,,,,,,,,,up,4.569842500000959,None,None,,,P148,001,2025-04-11_09h33.09.489,posner_endo_new1,2024.2.4,60.02429783385659,2025-04-11 09h33.22.234828 +0100,
cube_l.png,0.1,0.31,invalid,18,18,0,up,8.286628899993957,None,space,0.31134209998708684,None,,,,,,,,,0,18,18,18,886.1057009999931,,,,,,,,,,,,,886.0901714999927,886.1057009999931,886.1057009999931,886.1057009999931,894.3984754999983,,,,894.4078643999965,894.4177789999958,894.4177789999958,894.4643204999884,894.4648261999973,894.4804689000011,894.4804689000011,894.4804689000011,894.5637183999934,894.7986527999892,,,,,,,,,,,,,,,,,,,,,,up,8.286628899993957,None,space,0.31134209998708684,None,P148,001,2025-04-11_09h33.09.489,posner_endo_new1,2024.2.4,60.02429783385659,2025-04-11 09h33.22.234828 +0100,
cube_l.png,0.1,10,catch,19,19,0,up,6.074796200002311,None,None,,,,,,,,,,,0,19,19,19,894.8134109999955,,,,,,,,,,,,,894.7990858999983,894.8134109999955,894.8134109999955,894.8134109999955,900.8915659999911,,,,900.9032727999875,900.9135659999884,900.9135659999884,900.9574200999923,900.9577628999978,900.9739157000004,900.9739157000004,900.9739157000004,901.0572011999902,903.9716304999893,,,,903.0717315999937,903.9876473999902,903.9876473999902,903.9876473999902,,,,,,,,,,,,,,,up,6.074796200002311,None,None,,,P148,001,2025-04-11_09h33.09.489,posner_endo_new1,2024.2.4,60.02429783385659,2025-04-11 09h33.22.234828 +0100,
cube_l.png,0.1,0.31,invalid,20,20,0,up,7.300692299992079,None,space,0.380065100005595,None,,,,,,,,,0,20,20,20,903.9876473999902,,,,,,,,,,,,,903.9718977999873,903.9876473999902,903.9876473999902,903.9876473999902,911.2976084999973,,,,911.309303099988,911.3196574999893,911.3196574999893,911.3633570999955,911.3636956999981,911.3799920999882,911.3799920999882,911.3799920999882,911.4629276999913,911.7640299999912,,,,,,,,,,,,,,,,,,,,,,up,7.300692299992079,None,space,0.380065100005595,None,P148,001,2025-04-11_09h33.09.489,posner_endo_new1,2024.2.4,60.02429783385659,2025-04-11 09h33.22.234828 +0100,
cube_l.png,0.1,-0.31,valid,21,21,0,up,8.068736599991098,None,space,0.3843968000001041,None,,,,,,,,,0,21,21,21,911.7796245999925,,,,,,,,,,,,,911.7643188999937,911.7796245999925,911.7796245999925,911.7796245999925,919.8556206999929,,,,919.8673947999923,919.8776885999978,919.8776885999978,919.9214061999955,919.9217548999877,919.9377273999999,919.9377273999999,919.9377273999999,920.0211485999898,920.3387166999892,,,,,,,,,,,,,,,,,,,,,,up,8.068736599991098,None,space,0.3843968000001041,None,P148,001,2025-04-11_09h33.09.489,posner_endo_new1,2024.2.4,60.02429783385659,2025-04-11 09h33.22.234828 +0100,
cube_r.png,0.1,0.31,valid,22,22,0,up,13.167036600003485,None,space,0.35617259998980444,None,,,,,,,,,0,22,22,22,920.3538090999937,,,,,,,,,,,,,920.3390065999993,920.3538090999937,920.3538090999937,920.3538090999937,933.5252169999876,,,,933.5369734999986,933.5472587999975,933.5472587999975,933.590844899998,933.5910950999969,933.6071024999983,933.6071024999983,933.6071024999983,933.6901102999982,933.9741035999905,,,,,,,,,,,,,,,,,,,,,,up,13.167036600003485,None,space,0.35617259998980444,None,P148,001,2025-04-11_09h33.09.489,posner_endo_new1,2024.2.4,60.02429783385659,2025-04-11 09h33.22.234828 +0100,
cube_r.png,0.1,-0.31,invalid,23,23,0,up,8.826696099989931,None,space,0.3620740000042133,None,,,,,,,,,0,23,23,23,933.989788299994,,,,,,,,,,,,,933.9743178999925,933.989788299994,933.989788299994,933.989788299994,942.8322597999941,,,,942.8439336999872,942.8542895999999,942.8542895999999,942.8979240999906,942.8982684999937,942.9140981999954,942.9140981999954,942.9140981999954,942.9976883999916,943.281891199993,,,,,,,,,,,,,,,,,,,,,,up,8.826696099989931,None,space,0.3620740000042133,None,P148,001,2025-04-11_09h33.09.489,posner_endo_new1,2024.2.4,60.02429783385659,2025-04-11 09h33.22.234828 +0100,
cube_r.png,0.1,0.31,valid,24,24,0,up,7.375170200000866,None,space,0.29415319999679923,None,,,,,,,,,0,24,24,24,943.2975396999973,,,,,,,,,,,,,943.2821838999953,943.2975396999973,943.2975396999973,943.2975396999973,950.6742974999943,,,,950.6880529999908,950.700525399996,950.700525399996,950.7401787999988,950.740853299998,950.7565042999922,950.7565042999922,950.7565042999922,950.839762299991,951.0588487999921,,,,,,,,,,,,,,,,,,,,,,up,7.375170200000866,None,space,0.29415319999679923,None,P148,001,2025-04-11_09h33.09.489,posner_endo_new1,2024.2.4,60.02429783385659,2025-04-11 09h33.22.234828 +0100,
cube_r.png,0.1,-0.31,invalid,25,25,0,up,7.991016200001468,None,space,0.4005081000068458,None,,,,,,,,,0,25,25,25,951.0730253999936,,,,,,,,,,,,,951.0594393999927,951.0730253999936,951.0730253999936,951.0730253999936,959.067269399995,,,,959.0876545999927,959.0978679999971,959.0978679999971,959.1309760000004,959.1313647999923,959.1473803999979,959.1473803999979,959.1473803999979,959.2306909999897,959.5650610999874,,,,,,,,,,,,,,,,,,,,,,up,7.991016200001468,None,space,0.4005081000068458,None,P148,001,2025-04-11_09h33.09.489,posner_endo_new1,2024.2.4,60.02429783385659,2025-04-11 09h33.22.234828 +0100,
cube_l.png,0.1,-0.31,valid,26,26,0,up,4.9797695000015665,None,space,0.3658160000049975,None,,,,,,,,,0,26,26,26,959.5803568999982,,,,,,,,,,,,,959.5653858999867,959.5803568999982,959.5803568999982,959.5803568999982,964.5765095999959,,,,964.589439599993,964.5991475999908,964.5991475999908,964.6421476999967,964.6424141999887,964.6585829999967,964.6585829999967,964.6585829999967,964.7421050999983,965.0256522999989,,,,,,,,,,,,,,,,,,,,,,up,4.9797695000015665,None,space,0.3658160000049975,None,P148,001,2025-04-11_09h33.09.489,posner_endo_new1,2024.2.4,60.02429783385659,2025-04-11 09h33.22.234828 +0100,
cube_r.png,0.1,0.31,valid,27,27,0,up,6.758797900009085,None,space,0.4816292000032263,None,,,,,,,,,0,27,27,27,965.0415829999984,,,,,,,,,,,,,965.025860099995,965.0415829999984,965.0415829999984,965.0415829999984,971.8042410999915,,,,971.8278276999918,971.8402184000006,971.8402184000006,971.8683623999968,971.8686656999926,971.8846101999952,971.8846101999952,971.8846101999952,971.9681147999945,972.3705034999875,,,,,,,,,,,,,,,,,,,,,,up,6.758797900009085,None,space,0.4816292000032263,None,P148,001,2025-04-11_09h33.09.489,posner_endo_new1,2024.2.4,60.02429783385659,2025-04-11 09h33.22.234828 +0100,
cube_r.png,0.1,10,catch,28,28,0,up,4.623720800009323,None,None,,,,,,,,,,,0,28,28,28,972.3845222999953,,,,,,,,,,,,,972.3710858999984,972.3845222999953,972.3845222999953,972.3845222999953,977.0156298999937,,,,977.0392264999973,977.0517003999994,977.0517003999994,977.079378800001,977.0797225999995,977.0960503999959,977.0960503999959,977.0960503999959,977.1792321999965,980.0936939999956,,,,979.1938119999977,980.109610399988,980.109610399988,980.109610399988,,,,,,,,,,,,,,,up,4.623720800009323,None,None,,,P148,001,2025-04-11_09h33.09.489,posner_endo_new1,2024.2.4,60.02429783385659,2025-04-11 09h33.22.234828 +0100,
cube_r.png,0.1,0.31,valid,29,29,0,up,3.1868548999918858,None,space,0.3478519000054803,None,,,,,,,,,0,29,29,29,980.109610399988,,,,,,,,,,,,,980.0939603000006,980.109610399988,980.109610399988,980.109610399988,983.3073368999903,,,,983.319015599991,983.3292392000003,983.3292392000003,983.3731311999873,983.37348319999,983.3895138999942,983.3895138999942,983.3895138999942,983.4729771999991,983.7405672999885,,,,,,,,,,,,,,,,,,,,,,up,3.1868548999918858,None,space,0.3478519000054803,None,P148,001,2025-04-11_09h33.09.489,posner_endo_new1,2024.2.4,60.02429783385659,2025-04-11 09h33.22.234828 +0100,
cube_r.png,0.1,0.31,valid,30,30,0,up,7.964094199996907,None,space,0.2814639999996871,None,,,,,,,,,0,30,30,30,983.7557591999939,,,,,,,,,,,,,983.7408537999872,983.7557591999939,983.7557591999939,983.7557591999939,991.732061799994,,,,991.7437331999972,991.7539556999982,991.7539556999982,991.7977714000008,991.7981141999917,991.8142914999917,991.8142914999917,991.8142914999917,991.8974886999931,992.0985866999981,,,,,,,,,,,,,,,,,,,,,,up,7.964094199996907,None,space,0.2814639999996871,None,P148,001,2025-04-11_09h33.09.489,posner_endo_new1,2024.2.4,60.02429783385659,2025-04-11 09h33.22.234828 +0100,
cube_l.png,0.1,-0.31,valid,31,31,0,up,8.334569899991038,None,space,0.352701399999205,None,,,,,,,,,0,31,31,31,992.1140979999909,,,,,,,,,,,,,992.0988817999896,992.1140979999909,992.1140979999909,992.1140979999909,1000.4565575999877,,,,1000.4681997000007,1000.4785033999942,1000.4785033999942,1000.5221281999984,1000.5224687000009,1000.538799899994,1000.538799899994,1000.538799899994,1000.6218957999954,1000.9060048999963,,,,,,,,,,,,,,,,,,,,,,up,8.334569899991038,None,space,0.352701399999205,None,P148,001,2025-04-11_09h33.09.489,posner_endo_new1,2024.2.4,60.02429783385659,2025-04-11 09h33.22.234828 +0100,
cube_r.png,0.1,0.31,valid,32,32,0,up,5.05439610000758,None,space,0.3844519999984186,None,,,,,,,,,0,32,32,32,1000.9217269999936,,,,,,,,,,,,,1000.9063148999994,1000.9217269999936,1000.9217269999936,1000.9217269999936,1005.9840178999875,,,,1005.9955006999953,1006.0056979999936,1006.0056979999936,1006.0498991999921,1006.0502448999905,1006.0664730999997,1006.0664730999997,1006.0664730999997,1006.1327642999968,1006.4670003999927,,,,,,,,,,,,,,,,,,,,,,up,5.05439610000758,None,space,0.3844519999984186,None,P148,001,2025-04-11_09h33.09.489,posner_endo_new1,2024.2.4,60.02429783385659,2025-04-11 09h33.22.234828 +0100,
cube_r.png,0.1,-0.31,invalid,33,33,0,up,4.381551200000104,None,space,0.3559591000084765,None,,,,,,,,,0,33,33,33,1006.4827233999968,,,,,,,,,,,,,1006.4672915999981,1006.4827233999968,1006.4827233999968,1006.4827233999968,1010.8793699999951,,,,1010.8910080999922,1010.9012708999944,1010.9012708999944,1010.9448993999977,1010.9452507999958,1010.96109479999,1010.96109479999,1010.96109479999,1011.0446389999997,1011.3288318999985,,,,,,,,,,,,,,,,,,,,,,up,4.381551200000104,None,space,0.3559591000084765,None,P148,001,2025-04-11_09h33.09.489,posner_endo_new1,2024.2.4,60.02429783385659,2025-04-11 09h33.22.234828 +0100,
cube_r.png,0.1,10,catch,34,34,0,up,8.391740800012485,None,None,,,,,,,,,,,0,34,34,34,1011.3442308999947,,,,,,,,,,,,,1011.329124699987,1011.3442308999947,1011.3442308999947,1011.3442308999947,1019.7371436999965,,,,1019.7473822999891,1019.756985199987,1019.756985199987,1019.8023370999872,1019.8025787999941,1019.819024299999,1019.819024299999,1019.819024299999,1019.9022670999984,1022.8174814999948,,,,1021.9169954999961,1022.8327870999929,1022.8327870999929,1022.8327870999929,,,,,,,,,,,,,,,up,8.391740800012485,None,None,,,P148,001,2025-04-11_09h33.09.489,posner_endo_new1,2024.2.4,60.02429783385659,2025-04-11 09h33.22.234828 +0100,
cube_r.png,0.1,0.31,valid,35,35,0,up,5.4230398000072455,None,space,0.38753400000859983,None,,,,,,,,,0,35,35,35,1022.8327870999929,,,,,,,,,,,,,1022.818025799992,1022.8327870999929,1022.8327870999929,1022.8327870999929,1028.2632563999941,,,,1028.2868708999886,1028.2990151999984,1028.2990151999984,1028.3266903999902,1028.3270042999939,1028.3430900999956,1028.3430900999956,1028.3430900999956,1028.4268842999882,1028.7438504999882,,,,,,,,,,,,,,,,,,,,,,up,5.4230398000072455,None,space,0.38753400000859983,None,P148,001,2025-04-11_09h33.09.489,posner_endo_new1,2024.2.4,60.02429783385659,2025-04-11 09h33.22.234828 +0100,
cube_r.png,0.1,-0.31,invalid,36,36,0,up,8.86452790000476,None,space,0.39015659999859054,None,,,,,,,,,0,36,36,36,1028.7598750999896,,,,,,,,,,,,,1028.7441007999878,1028.7598750999896,1028.7598750999896,1028.7598750999896,1037.6350486999872,,,,1037.6449018999992,1037.6551054999873,1037.6551054999873,1037.7005540999962,1037.7008589999896,1037.7170618999953,1037.7170618999953,1037.7170618999953,1037.8006121999933,1038.1178558999964,,,,,,,,,,,,,,,,,,,,,,up,8.86452790000476,None,space,0.39015659999859054,None,P148,001,2025-04-11_09h33.09.489,posner_endo_new1,2024.2.4,60.02429783385659,2025-04-11 09h33.22.234828 +0100,
cube_l.png,0.1,0.31,invalid,37,37,0,up,10.29942189999565,None,space,0.47871320000558626,None,,,,,,,,,0,37,37,37,1038.1333356999967,,,,,,,,,,,,,1038.1181122999988,1038.1333356999967,1038.1333356999967,1038.1333356999967,1048.4422845999943,,,,1048.461186799992,1048.4717889999883,1048.4717889999883,1048.506272300001,1048.5067137999868,1048.5226203999919,1048.5226203999919,1048.5226203999919,1048.6059062999993,1049.007018999997,,,,,,,,,,,,,,,,,,,,,,up,10.29942189999565,None,space,0.47871320000558626,None,P148,001,2025-04-11_09h33.09.489,posner_endo_new1,2024.2.4,60.02429783385659,2025-04-11 09h33.22.234828 +0100,
cube_l.png,0.1,0.31,invalid,38,38,0,up,12.403204599992023,None,space,0.4714527000032831,None,,,,,,,,,0,38,38,38,1049.0222869999998,,,,,,,,,,,,,1049.0073940000002,1049.0222869999998,1049.0222869999998,1049.0222869999998,1061.427450099989,,,,1061.4374189999944,1061.4478238999873,1061.4478238999873,1061.4932848999888,1061.4935930999927,1061.509789299991,1061.509789299991,1061.509789299991,1061.5929640999966,1061.9936162999948,,,,,,,,,,,,,,,,,,,,,,up,12.403204599992023,None,space,0.4714527000032831,None,P148,001,2025-04-11_09h33.09.489,posner_endo_new1,2024.2.4,60.02429783385659,2025-04-11 09h33.22.234828 +0100,
cube_r.png,0.1,0.31,valid,39,39,0,up,7.983296900012647,None,space,0.6920020000106888,None,,,,,,,,,0,39,39,39,1062.009240399988,,,,,,,,,,,,,1061.9938670999982,1062.009240399988,1062.009240399988,1062.009240399988,1070.0020011999877,,,,1070.0117104999954,1070.021793299995,1070.021793299995,1070.068002199987,1070.0683081999887,1070.0842698999913,1070.0842698999913,1070.0842698999913,1070.1671856999892,1070.7846988999954,,,,,,,,,,,,,,,,,,,,,,up,7.983296900012647,None,space,0.6920020000106888,None,P148,001,2025-04-11_09h33.09.489,posner_endo_new1,2024.2.4,60.02429783385659,2025-04-11 09h33.22.234828 +0100,
cube_l.png,0.1,0.31,invalid,40,40,0,up,7.28028930000437,None,space,0.4766358000051696,None,,,,,,,,,0,40,40,40,1070.8001914999913,,,,,,,,,,,,,1070.784950699992,1070.8001914999913,1070.8001914999913,1070.8001914999913,1078.093489699997,,,,1078.1033386999916,1078.1135422999942,1078.1135422999942,1078.1594962999952,1078.1598010999878,1078.1757093999913,1078.1757093999913,1078.1757093999913,1078.2589466999925,1078.6597645000002,,,,,,,,,,,,,,,,,,,,,,up,7.28028930000437,None,space,0.4766358000051696,None,P148,001,2025-04-11_09h33.09.489,posner_endo_new1,2024.2.4,60.02429783385659,2025-04-11 09h33.22.234828 +0100,
cube_l.png,0.1,10,catch,41,41,0,up,4.117230699994252,None,None,,,,,,,,,,,0,41,41,41,1078.675542099998,,,,,,,,,,,,,1078.6600149000005,1078.675542099998,1078.675542099998,1078.675542099998,1082.805722399993,,,,1082.8155151999963,1082.8257627999992,1082.8257627999992,1082.8711487999972,1082.8714619999955,1082.887427099995,1082.887427099995,1082.887427099995,1082.9707677999977,1085.8862984999869,,,,1084.9858011999895,1085.9015957999945,1085.9015957999945,1085.9015957999945,,,,,,,,,,,,,,,up,4.117230699994252,None,None,,,P148,001,2025-04-11_09h33.09.489,posner_endo_new1,2024.2.4,60.02429783385659,2025-04-11 09h33.22.234828 +0100,
cube_l.png,0.1,-0.31,valid,42,42,0,up,4.835204600007273,None,space,0.33410039999580476,None,,,,,,,,,0,42,42,42,1085.9015957999945,,,,,,,,,,,,,1085.886858599988,1085.9015957999945,1085.9015957999945,1085.9015957999945,1090.7489055999904,,,,1090.772209399991,1090.7843909999938,1090.7843909999938,1090.8129004999937,1090.8132879999903,1090.8298031999875,1090.8298031999875,1090.8298031999875,1090.913110999987,1091.1816239999898,,,,,,,,,,,,,,,,,,,,,,up,4.835204600007273,None,space,0.33410039999580476,None,P148,001,2025-04-11_09h33.09.489,posner_endo_new1,2024.2.4,60.02429783385659,2025-04-11 09h33.22.234828 +0100,
cube_l.png,0.1,10,catch,43,43,0,up,5.948092599996016,None,space,0.4012652999954298,None,,,,,,,,,0,43,43,43,1091.1960668999964,,,,,,,,,,,,,1091.182209199993,1091.1960668999964,1091.1960668999964,1091.1960668999964,1097.1590746000002,,,,1097.1794251999963,1097.1898847999983,1097.1898847999983,1097.2231035999866,1097.2235431000008,1097.2395044999867,1097.2395044999867,1097.2395044999867,1097.322688299988,1097.656796899988,,,,,,,,,,,,,,,,,,,,,,up,5.948092599996016,None,space,0.4012652999954298,None,P148,001,2025-04-11_09h33.09.489,posner_endo_new1,2024.2.4,60.02429783385659,2025-04-11 09h33.22.234828 +0100,
cube_l.png,0.1,0.31,invalid,44,44,0,up,7.656112299999222,None,space,0.38183940001181327,None,,,,,,,,,0,44,44,44,1097.6727210999961,,,,,,,,,,,,,1097.6570476999914,1097.6727210999961,1097.6727210999961,1097.6727210999961,1105.332654599988,,,,1105.3424716000009,1105.3526659999916,1105.3526659999916,1105.3983642999956,1105.3986690999882,1105.4148051999946,1105.4148051999946,1105.4148051999946,1105.498148499988,1105.798529599997,,,,,,,,,,,,,,,,,,,,,,up,7.656112299999222,None,space,0.38183940001181327,None,P148,001,2025-04-11_09h33.09.489,posner_endo_new1,2024.2.4,60.02429783385659,2025-04-11 09h33.22.234828 +0100,
cube_l.png,0.1,0.31,invalid,45,45,0,up,9.810311799999909,None,space,0.3504612999968231,None,,,,,,,,,0,45,45,45,1105.814321599988,,,,,,,,,,,,,1105.7987833999941,1105.814321599988,1105.814321599988,1105.814321599988,1115.6386743999901,,,,1115.6485123999882,1115.658485699998,1115.658485699998,1115.7043647999963,1115.7046706999972,1115.7209034999978,1115.7209034999978,1115.7209034999978,1115.8040746999905,1116.0882653000008,,,,,,,,,,,,,,,,,,,,,,up,9.810311799999909,None,space,0.3504612999968231,None,P148,001,2025-04-11_09h33.09.489,posner_endo_new1,2024.2.4,60.02429783385659,2025-04-11 09h33.22.234828 +0100,
cube_r.png,0.1,0.31,valid,46,46,0,up,5.392754299988155,None,space,0.34321140000247397,None,,,,,,,,,0,46,46,46,1116.1038053999946,,,,,,,,,,,,,1116.0885241999931,1116.1038053999946,1116.1038053999946,1116.1038053999946,1121.4994239999942,,,,1121.5092134999868,1121.5194036999892,1121.5194036999892,1121.5646807999874,1121.5649844,1121.5814586999913,1121.5814586999913,1121.5814586999913,1121.6648728,1121.9322501999995,,,,,,,,,,,,,,,,,,,,,,up,5.392754299988155,None,space,0.34321140000247397,None,P148,001,2025-04-11_09h33.09.489,posner_endo_new1,2024.2.4,60.02429783385659,2025-04-11 09h33.22.234828 +0100,
cube_l.png,0.1,-0.31,valid,47,47,0,up,5.061012599995593,None,space,0.3559413000039058,None,,,,,,,,,0,47,47,47,1121.9475300999911,,,,,,,,,,,,,1121.9325007000007,1121.9475300999911,1121.9475300999911,1121.9475300999911,1127.0101858999988,,,,1127.0199304999987,1127.0301280999993,1127.0301280999993,1127.0760087999952,1127.0763206999982,1127.092393999992,1127.092393999992,1127.092393999992,1127.15887449999,1127.4596945999947,,,,,,,,,,,,,,,,,,,,,,up,5.061012599995593,None,space,0.3559413000039058,None,P148,001,2025-04-11_09h33.09.489,posner_endo_new1,2024.2.4,60.02429783385659,2025-04-11 09h33.22.234828 +0100,
cube_r.png,0.1,-0.31,invalid,48,48,0,up,8.069214100003592,None,space,0.27863809998962097,None,,,,,,,,,0,48,48,48,1127.4754086999892,,,,,,,,,,,,,1127.4599526999955,1127.4754086999892,1127.4754086999892,1127.4754086999892,1135.5514191999973,,,,1135.5611930999876,1135.5717189999996,1135.5717189999996,1135.6172992999927,1135.6176090999943,1135.63388519999,1135.63388519999,1135.63388519999,1135.7167169999884,1135.917689199996,,,,,,,,,,,,,,,,,,,,,,up,8.069214100003592,None,space,0.27863809998962097,None,P148,001,2025-04-11_09h33.09.489,posner_endo_new1,2024.2.4,60.02429783385659,2025-04-11 09h33.22.234828 +0100,
cube_r.png,0.1,10,catch,49,49,0,up,6.7385121999977855,None,space,0.289172899996629,None,,,,,,,,,0,49,49,49,1135.9335332999908,,,,,,,,,,,,,1135.9179357999965,1135.9335332999908,1135.9335332999908,1135.9335332999908,1142.6772870999994,,,,1142.6862278999906,1142.6958909999958,1142.6958909999958,1142.743579099988,1142.7438107999915,1142.7601204999955,1142.7601204999955,1142.7601204999955,1142.8266352999926,1143.0602461999952,,,,,,,,,,,,,,,,,,,,,,up,6.7385121999977855,None,space,0.289172899996629,None,P148,001,2025-04-11_09h33.09.489,posner_endo_new1,2024.2.4,60.02429783385659,2025-04-11 09h33.22.234828 +0100,
cube_l.png,0.1,-0.31,valid,50,50,0,up,7.875471399995149,None,space,0.23199290000775363,None,,,,,,,,,0,50,50,50,1143.076321399989,,,,,,,,,,,,,1143.0604259999964,1143.076321399989,1143.076321399989,1143.076321399989,1150.952591399997,,,,1150.959414099998,1150.970688299989,1150.970688299989,1151.0182561999973,1151.018760699997,1151.034658199991,1151.034658199991,1151.034658199991,1151.1178609999915,1151.2696907999925,,,,,,,,,,,,,,,,,,,,,,up,7.875471399995149,None,space,0.23199290000775363,None,P148,001,2025-04-11_09h33.09.489,posner_endo_new1,2024.2.4,60.02429783385659,2025-04-11 09h33.22.234828 +0100,
cube_l.png,0.1,-0.31,valid,51,51,0,up,7.412373400002252,None,space,0.35322119999909773,None,,,,,,,,,0,51,51,51,1151.284436499991,,,,,,,,,,,,,1151.270113999999,1151.284436499991,1151.284436499991,1151.284436499991,1158.711412299992,,,,1158.7230409999902,1158.7332409999945,1158.7332409999945,1158.7771956999932,1158.7775404999993,1158.7933385999931,1158.7933385999931,1158.7933385999931,1158.8764315000008,1159.160682799993,,,,,,,,,,,,,,,,,,,,,,up,7.412373400002252,None,space,0.35322119999909773,None,P148,001,2025-04-11_09h33.09.489,posner_endo_new1,2024.2.4,60.02429783385659,2025-04-11 09h33.22.234828 +0100,
cube_r.png,0.1,-0.31,invalid,52,52,0,up,8.008420099999057,None,space,0.3169956000056118,None,,,,,,,,,0,52,52,52,1159.1761016999953,,,,,,,,,,,,,1159.1609708999895,1159.1761016999953,1159.1761016999953,1159.1761016999953,1167.186175499999,,,,1167.1966680999903,1167.2061809000006,1167.2061809000006,1167.2515977000003,1167.2518375999935,1167.268158299994,1167.268158299994,1167.268158299994,1167.351006699988,1167.6019515999942,,,,,,,,,,,,,,,,,,,,,,up,8.008420099999057,None,space,0.3169956000056118,None,P148,001,2025-04-11_09h33.09.489,posner_endo_new1,2024.2.4,60.02429783385659,2025-04-11 09h33.22.234828 +0100,
cube_l.png,0.1,-0.31,valid,53,53,0,up,8.318820899992716,None,space,0.2791873999958625,None,,,,,,,,,0,53,53,53,1167.6177266999875,,,,,,,,,,,,,1167.6021386999928,1167.6177266999875,1167.6177266999875,1167.6177266999875,1175.9453995999938,,,,1175.968981699989,1175.9812437999935,1175.9812437999935,1176.0088897999958,1176.0092460999876,1176.0253941999981,1176.0253941999981,1176.0253941999981,1176.108985599989,1176.3099390999996,,,,,,,,,,,,,,,,,,,,,,up,8.318820899992716,None,space,0.2791873999958625,None,P148,001,2025-04-11_09h33.09.489,posner_endo_new1,2024.2.4,60.02429783385659,2025-04-11 09h33.22.234828 +0100,
cube_r.png,0.1,10,catch,54,54,0,up,8.482712100012577,None,space,0.31822689999535214,None,,,,,,,,,0,54,54,54,1176.3255809999973,,,,,,,,,,,,,1176.3102268999937,1176.3255809999973,1176.3255809999973,1176.3255809999973,1184.817592899999,,,,1184.825155899991,1184.8362584999995,1184.8362584999995,1184.883512299988,1184.8840066999983,1184.9000125999883,1184.9000125999883,1184.9000125999883,1184.9832702999993,1185.2349389999872,,,,,,,,,,,,,,,,,,,,,,up,8.482712100012577,None,space,0.31822689999535214,None,P148,001,2025-04-11_09h33.09.489,posner_endo_new1,2024.2.4,60.02429783385659,2025-04-11 09h33.22.234828 +0100,
cube_l.png,0.1,0.31,invalid,55,55,0,up,13.478817499999423,None,space,1.1863888999941992,None,,,,,,,,,0,55,55,55,1185.2495532999892,,,,,,,,,,,,,1185.2353752999916,1185.2495532999892,1185.2495532999892,1185.2495532999892,1198.7367417999922,,,,1198.7487084999884,1198.7589508999954,1198.7589508999954,1198.8024748999887,1198.8028186999873,1198.8191612999944,1198.8191612999944,1198.8191612999944,1198.9021893999889,1200.0188046999974,,,,,,,,,,,,,,,,,,,,,,up,13.478817499999423,None,space,1.1863888999941992,None,P148,001,2025-04-11_09h33.09.489,posner_endo_new1,2024.2.4,60.02429783385659,2025-04-11 09h33.22.234828 +0100,
cube_l.png,0.1,-0.31,valid,56,56,0,up,10.813384499997483,None,space,0.38765499999863096,None,,,,,,,,,0,56,56,56,1200.034555899998,,,,,,,,,,,,,1200.0190938999876,1200.034555899998,1200.034555899998,1200.034555899998,1210.8581527999922,,,,1210.8698864999897,1210.8802570999978,1210.8802570999978,1210.9234345999866,1210.9237787999882,1210.94019139999,1210.94019139999,1210.94019139999,1211.0231782999908,1211.3409354999894,,,,,,,,,,,,,,,,,,,,,,up,10.813384499997483,None,space,0.38765499999863096,None,P148,001,2025-04-11_09h33.09.489,posner_endo_new1,2024.2.4,60.02429783385659,2025-04-11 09h33.22.234828 +0100,
cube_r.png,0.1,0.31,valid,57,57,0,up,7.283692900004098,None,space,0.34991279999667313,None,,,,,,,,,0,57,57,57,1211.3563735999924,,,,,,,,,,,,,1211.3412256999873,1211.3563735999924,1211.3563735999924,1211.3563735999924,1218.6500050999894,,,,1218.6617147999932,1218.671874199994,1218.671874199994,1218.7155233999947,1218.715863999998,1218.732079399997,1218.732079399997,1218.732079399997,1218.8152687999973,1219.0831793999969,,,,,,,,,,,,,,,,,,,,,,up,7.283692900004098,None,space,0.34991279999667313,None,P148,001,2025-04-11_09h33.09.489,posner_endo_new1,2024.2.4,60.02429783385659,2025-04-11 09h33.22.234828 +0100,
cube_r.png,0.1,-0.31,invalid,58,58,0,up,10.31015039999329,None,space,0.3296987999929115,None,,,,,,,,,0,58,58,58,1219.0983527999924,,,,,,,,,,,,,1219.0834696999955,1219.0983527999924,1219.0983527999924,1219.0983527999924,1229.4224766999978,,,,1229.4342236999946,1229.444405599992,1229.444405599992,1229.4880424000003,1229.4883861999988,1229.5041450999997,1229.5041450999997,1229.5041450999997,1229.587628399997,1229.8388485999894,,,,,,,,,,,,,,,,,,,,,,up,10.31015039999329,None,space,0.3296987999929115,None,P148,001,2025-04-11_09h33.09.489,posner_endo_new1,2024.2.4,60.02429783385659,2025-04-11 09h33.22.234828 +0100,
cube_l.png,0.1,0.31,invalid,59,59,0,up,8.786082599996007,None,space,0.3967727000126615,None,,,,,,,,,0,59,59,59,1229.8540231999941,,,,,,,,,,,,,1229.8391368999874,1229.8540231999941,1229.8540231999941,1229.8540231999941,1238.6455107999936,,,,1238.6529047999938,1238.664784499997,1238.664784499997,1238.7119519999978,1238.7125142000004,1238.7283024999924,1238.7283024999924,1238.7283024999924,1238.7949079999962,1239.1301740999916,,,,,,,,,,,,,,,,,,,,,,up,8.786082599996007,None,space,0.3967727000126615,None,P148,001,2025-04-11_09h33.09.489,posner_endo_new1,2024.2.4,60.02429783385659,2025-04-11 09h33.22.234828 +0100,
