cue_img,cue_soa,target_y,trial,thisN,thisTrialN,thisRepN,key_control2.keys,key_control2.rt,key_control2.duration,key_resp.keys,key_resp.rt,key_resp.duration,practice.thisRepN,practice.thisTrialN,practice.thisN,practice.thisIndex,block1.thisRepN,block1.thisTrialN,block1.thisN,block1.thisIndex,block2.thisRepN,block2.thisTrialN,block2.thisN,block2.thisIndex,thisRow.t,notes,instructions.started,instructions_txt.started,key_control.started,instructions.stopped,key_control.keys,key_control.rt,key_control.duration,ready.started,ready_txt.started,ready_txt.stopped,ready.stopped,fix.started,fixation.started,key_control2.started,fixation_cross.started,fix.stopped,practice.key_control2.keys,practice.key_control2.rt,practice.key_control2.duration,cue.started,cube.started,fixation_cross_cue.started,cue.stopped,target.started,fixation_target.started,fixation_cross_target.started,key_resp.started,star.started,target.stopped,practice.key_resp.keys,practice.key_resp.rt,practice.key_resp.duration,star.stopped,fixation_target.stopped,fixation_cross_target.stopped,key_resp.stopped,block1.key_control2.keys,block1.key_control2.rt,block1.key_control2.duration,block1.key_resp.keys,block1.key_resp.rt,block1.key_resp.duration,break_2.started,text.started,key_control3.started,text.stopped,break_2.stopped,key_control3.keys,key_control3.rt,key_control3.duration,block2.key_control2.keys,block2.key_control2.rt,block2.key_control2.duration,block2.key_resp.keys,block2.key_resp.rt,block2.key_resp.duration,participant,session,date,expName,psychopyVersion,frameRate,expStart,
,,,,,,,,,,,,,,,,,,,,,,,,,,,0.007407000011880882,0.027916000006371178,0.027916000006371178,484.7862211000029,up,484.7451616000035,None,,,,,,,,,,,,,,,,,,,,,,,,,,,,,,,,,,,,,,,,,,,,,,,,,,P149,001,2025-04-11_09h55.46.860,posner_endo_new1,2024.2.4,60.05674160805536,2025-04-11 09h55.53.685725 +0100,
,,,,,,,,,,,,,,,,,,,,,,,,,,,,,,,,,,484.78627210001287,484.7993199000048,487.799365400002,487.7801441000047,,,,,,,,,,,,,,,,,,,,,,,,,,,,,,,,,,,,,,,,,,,,,,P149,001,2025-04-11_09h55.46.860,posner_endo_new1,2024.2.4,60.05674160805536,2025-04-11 09h55.53.685725 +0100,
cube_r.png,0.1,-0.31,invalid,0,0,0,up,47.42953409999609,None,space,0.4821271999971941,None,0,0,0,9,,,,,,,,,487.799365400002,,,,,,,,,,,,,487.78751760000887,487.799365400002,487.799365400002,487.799365400002,535.2323872000125,up,47.42953409999609,None,535.2481213000137,535.2608791000093,535.2608791000093,535.2977717000031,535.2980108000047,535.3141910000122,535.3141910000122,535.3141910000122,535.3974218000076,535.7980217000004,space,0.4821271999971941,None,,,,,,,,,,,,,,,,,,,,,,,,,P149,001,2025-04-11_09h55.46.860,posner_endo_new1,2024.2.4,60.05674160805536,2025-04-11 09h55.53.685725 +0100,
cube_r.png,0.1,-0.31,invalid,1,1,0,up,3.1755306999984896,None,space,0.4419686999899568,None,0,1,1,2,,,,,,,,,535.8138610000024,,,,,,,,,,,,,535.7981991000124,535.8138610000024,535.8138610000024,535.8138610000024,538.9944318000053,up,3.1755306999984896,None,539.0011657000141,539.012975900012,539.012975900012,539.0604681000113,539.0607021000033,539.0770158000087,539.0770158000087,539.0770158000087,539.1437660000083,539.5272224000073,space,0.4419686999899568,None,,,,,,,,,,,,,,,,,,,,,,,,,P149,001,2025-04-11_09h55.46.860,posner_endo_new1,2024.2.4,60.05674160805536,2025-04-11 09h55.53.685725 +0100,
cube_r.png,0.1,0.31,valid,2,2,0,up,2.165866700001061,None,space,0.31392020000203047,None,0,2,2,10,,,,,,,,,539.5432760000112,,,,,,,,,,,,,539.5273916000006,539.5432760000112,539.5432760000112,539.5432760000112,541.7250466000114,up,2.165866700001061,None,541.731640500002,541.7433235000062,541.7433235000062,541.7910723000095,541.791306900006,541.8075494000077,541.8075494000077,541.8075494000077,541.8907545000111,542.1246801000088,space,0.31392020000203047,None,,,,,,,,,,,,,,,,,,,,,,,,,P149,001,2025-04-11_09h55.46.860,posner_endo_new1,2024.2.4,60.05674160805536,2025-04-11 09h55.53.685725 +0100,
cube_l.png,0.1,0.31,invalid,3,3,0,up,1.9923271000006935,None,space,0.24170949999825098,None,0,3,3,1,,,,,,,,,542.1405408999999,,,,,,,,,,,,,542.1248489999998,542.1405408999999,542.1405408999999,542.1405408999999,544.1390566000046,up,1.9923271000006935,None,544.1456216000079,544.1572414000111,544.1572414000111,544.2050966000097,544.205334000013,544.2218272000027,544.2218272000027,544.2218272000027,544.288373000003,544.4723029000015,space,0.24170949999825098,None,,,,,,,,,,,,,,,,,,,,,,,,,P149,001,2025-04-11_09h55.46.860,posner_endo_new1,2024.2.4,60.05674160805536,2025-04-11 09h55.53.685725 +0100,
cube_l.png,0.1,-0.31,valid,4,4,0,up,3.501289599997108,None,space,0.18962020000617485,None,0,4,4,4,,,,,,,,,544.4880805000139,,,,,,,,,,,,,544.4724769000022,544.4880805000139,544.4880805000139,544.4880805000139,548.0023688000074,up,3.501289599997108,None,548.0167950000032,548.0271808000107,548.0271808000107,548.0679450000025,548.0682321000058,548.0844846000109,548.0844846000109,548.0844846000109,548.1676245000126,548.2851815000031,space,0.18962020000617485,None,,,,,,,,,,,,,,,,,,,,,,,,,P149,001,2025-04-11_09h55.46.860,posner_endo_new1,2024.2.4,60.05674160805536,2025-04-11 09h55.53.685725 +0100,
cube_r.png,0.1,10,catch,5,5,0,up,3.784195500003989,None,None,,,0,5,5,3,,,,,,,,,548.3009856000135,,,,,,,,,,,,,548.2853955000028,548.3009856000135,548.3009856000135,548.3009856000135,552.0982323000062,up,3.784195500003989,None,552.1085563000088,552.11879030001,552.11879030001,552.163838700013,552.1641633000108,552.1801548000076,552.1801548000076,552.1801548000076,552.2634614000126,555.177866500002,None,,,554.2782143000077,555.1939027000044,555.1939027000044,555.1939027000044,,,,,,,,,,,,,,,,,,,,,P149,001,2025-04-11_09h55.46.860,posner_endo_new1,2024.2.4,60.05674160805536,2025-04-11 09h55.53.685725 +0100,
cube_l.png,0.1,-0.31,valid,6,6,0,up,1.363601600009133,None,space,0.33506019999913406,None,0,6,6,0,,,,,,,,,555.1939027000044,,,,,,,,,,,,,555.1780925000057,555.1939027000044,555.1939027000044,555.1939027000044,556.5604262000124,up,1.363601600009133,None,556.5708303000138,556.5809571999998,556.5809571999998,556.6259664000099,556.6262786000007,556.642307800008,556.642307800008,556.642307800008,556.725746000011,556.9932211000123,space,0.33506019999913406,None,,,,,,,,,,,,,,,,,,,,,,,,,P149,001,2025-04-11_09h55.46.860,posner_endo_new1,2024.2.4,60.05674160805536,2025-04-11 09h55.53.685725 +0100,
cube_l.png,0.1,-0.31,valid,7,7,0,up,3.500771699997131,None,space,0.3572308000002522,None,0,7,7,8,,,,,,,,,557.0087200000125,,,,,,,,,,,,,556.9934659000137,557.0087200000125,557.0087200000125,557.0087200000125,560.5228504000115,up,3.500771699997131,None,560.5329201000131,560.543093500004,560.543093500004,560.5884517000086,560.5887619000132,560.6050327000121,560.6050327000121,560.6050327000121,560.6882175000064,560.9722879000037,space,0.3572308000002522,None,,,,,,,,,,,,,,,,,,,,,,,,,P149,001,2025-04-11_09h55.46.860,posner_endo_new1,2024.2.4,60.05674160805536,2025-04-11 09h55.53.685725 +0100,
cube_r.png,0.1,0.31,valid,8,8,0,up,3.9533637999993516,None,space,0.31124670000281185,None,0,8,8,7,,,,,,,,,560.9879616000107,,,,,,,,,,,,,560.9725327000051,560.9879616000107,560.9879616000107,560.9879616000107,564.9516591000138,up,3.9533637999993516,None,564.961727700007,564.972001800008,564.972001800008,565.0174346000131,565.0177498000121,565.0338306000049,565.0338306000049,565.0338306000049,565.1171258000104,565.3512349000084,space,0.31124670000281185,None,,,,,,,,,,,,,,,,,,,,,,,,,P149,001,2025-04-11_09h55.46.860,posner_endo_new1,2024.2.4,60.05674160805536,2025-04-11 09h55.53.685725 +0100,
cube_r.png,0.1,-0.31,invalid,9,9,0,up,5.006518900001538,None,space,0.3434001999994507,None,0,9,9,6,,,,,,,,,565.3667902000016,,,,,,,,,,,,,565.3514766000008,565.3667902000016,565.3667902000016,565.3667902000016,570.3793213000026,up,5.006518900001538,None,570.3891607000114,570.3993169000023,570.3993169000023,570.4450729000091,570.4453885000112,570.4616755000025,570.4616755000025,570.4616755000025,570.5448599000083,570.8122010000079,space,0.3434001999994507,None,,,,,,,,,,,,,,,,,,,,,,,,,P149,001,2025-04-11_09h55.46.860,posner_endo_new1,2024.2.4,60.05674160805536,2025-04-11 09h55.53.685725 +0100,
cube_l.png,0.1,0.31,invalid,10,10,0,up,8.801644599996507,None,space,0.3494115000066813,None,0,10,10,5,,,,,,,,,570.8279665000009,,,,,,,,,,,,,570.8124436000071,570.8279665000009,570.8279665000009,570.8279665000009,579.6366429000045,up,8.801644599996507,None,579.6468367000052,579.6570133000059,579.6570133000059,579.7023165000137,579.7026339000004,579.7188864000054,579.7188864000054,579.7188864000054,579.8020447000017,580.0695794000058,space,0.3494115000066813,None,,,,,,,,,,,,,,,,,,,,,,,,,P149,001,2025-04-11_09h55.46.860,posner_endo_new1,2024.2.4,60.05674160805536,2025-04-11 09h55.53.685725 +0100,
,,,,,,,,,,,,,,,,,,,,,,,,,,,,,,,,,,580.0697395000025,580.0850142000127,583.0937752000027,583.0658934000094,,,,,,,,,,,,,,,,,,,,,,,,,,,,,,,,,,,,,,,,,,,,,,P149,001,2025-04-11_09h55.46.860,posner_endo_new1,2024.2.4,60.05674160805536,2025-04-11 09h55.53.685725 +0100,
cube_l.png,0.1,10,catch,0,0,0,up,16.8388941000012,None,None,,,,,,,0,0,0,0,,,,,583.0937752000027,,,,,,,,,,,,,583.0846364000026,583.0937752000027,583.0937752000027,583.0937752000027,599.948836200012,,,,599.955500600001,599.9670715000102,599.9670715000102,600.0147249000001,600.0149622000026,600.0312555000128,600.0312555000128,600.0312555000128,600.1145386999997,603.0286948000139,,,,602.1293030000088,603.0447730000014,603.0447730000014,603.0447730000014,up,16.8388941000012,None,None,,,,,,,,,,,,,,,,,P149,001,2025-04-11_09h55.46.860,posner_endo_new1,2024.2.4,60.05674160805536,2025-04-11 09h55.53.685725 +0100,
cube_l.png,0.1,10,catch,1,1,0,up,0.5279198000062024,None,None,,,,,,,0,1,1,1,,,,,603.0447730000014,,,,,,,,,,,,,603.0288607000111,603.0447730000014,603.0447730000014,603.0447730000014,603.5786182000011,,,,603.585170300008,603.5965997000021,603.5965997000021,603.6443972000125,603.6446314000059,603.6608829000033,603.6608829000033,603.6608829000033,603.7442467000074,606.6584586000099,,,,605.758779300013,606.674531200013,606.674531200013,606.674531200013,up,0.5279198000062024,None,None,,,,,,,,,,,,,,,,,P149,001,2025-04-11_09h55.46.860,posner_endo_new1,2024.2.4,60.05674160805536,2025-04-11 09h55.53.685725 +0100,
cube_l.png,0.1,0.31,invalid,2,2,0,up,3.5225262000021758,None,space,0.3034683000005316,None,,,,,0,2,2,2,,,,,606.674531200013,,,,,,,,,,,,,606.6586265000078,606.674531200013,606.674531200013,606.674531200013,610.2048765000072,,,,610.2115048000123,610.2231723000004,610.2231723000004,610.2710487000004,610.2712806000054,610.2874819000135,610.2874819000135,610.2874819000135,610.3541102000017,610.6047517000115,,,,,,,,up,3.5225262000021758,None,space,0.3034683000005316,None,,,,,,,,,,,,,,,P149,001,2025-04-11_09h55.46.860,posner_endo_new1,2024.2.4,60.05674160805536,2025-04-11 09h55.53.685725 +0100,
cube_l.png,0.1,0.31,invalid,3,3,0,up,3.6406495999981416,None,space,0.33407339999394026,None,,,,,0,3,3,3,,,,,610.6206633000111,,,,,,,,,,,,,610.6049362000049,610.6206633000111,610.6206633000111,610.6206633000111,614.2674022000137,,,,614.2740076000046,614.2857887000137,614.2857887000137,614.3335043000116,614.3337432000117,614.3498890000046,614.3498890000046,614.3498890000046,614.4166234000004,614.7005282000027,,,,,,,,up,3.6406495999981416,None,space,0.33407339999394026,None,,,,,,,,,,,,,,,P149,001,2025-04-11_09h55.46.860,posner_endo_new1,2024.2.4,60.05674160805536,2025-04-11 09h55.53.685725 +0100,
cube_l.png,0.1,-0.31,valid,4,4,0,up,4.864751099987188,None,space,0.3395368000055896,None,,,,,0,4,4,4,,,,,614.7163920000021,,,,,,,,,,,,,614.7007040000026,614.7163920000021,614.7163920000021,614.7163920000021,619.5954681000003,,,,619.6020776000078,619.6137952000136,619.6137952000136,619.6613699000009,619.6616014000028,619.6779861000105,619.6779861000105,619.6779861000105,619.7443856000027,620.0282069000095,,,,,,,,up,4.864751099987188,None,space,0.3395368000055896,None,,,,,,,,,,,,,,,P149,001,2025-04-11_09h55.46.860,posner_endo_new1,2024.2.4,60.05674160805536,2025-04-11 09h55.53.685725 +0100,
cube_r.png,0.1,-0.31,invalid,5,5,0,up,4.416719799992279,None,space,0.32548649999080226,None,,,,,0,5,5,5,,,,,620.0442091000004,,,,,,,,,,,,,620.028384300007,620.0442091000004,620.0442091000004,620.0442091000004,624.4736888000043,,,,624.4802474000026,624.4919905000133,624.4919905000133,624.5395380000118,624.5397696,624.5562591000053,624.5562591000053,624.5562591000053,624.6228544000041,624.8901428000099,,,,,,,,up,4.416719799992279,None,space,0.32548649999080226,None,,,,,,,,,,,,,,,P149,001,2025-04-11_09h55.46.860,posner_endo_new1,2024.2.4,60.05674160805536,2025-04-11 09h55.53.685725 +0100,
cube_r.png,0.1,0.31,valid,6,6,0,up,5.595354200006113,None,space,0.2906111000047531,None,,,,,0,6,6,6,,,,,624.9059705000109,,,,,,,,,,,,,624.8903200000059,624.9059705000109,624.9059705000109,624.9059705000109,630.517594600009,,,,630.5236887000065,630.5350741000002,630.5350741000002,630.5835073000053,630.5837375000119,630.5999892000109,630.5999892000109,630.5999892000109,630.6666518000129,630.900221200005,,,,,,,,up,5.595354200006113,None,space,0.2906111000047531,None,,,,,,,,,,,,,,,P149,001,2025-04-11_09h55.46.860,posner_endo_new1,2024.2.4,60.05674160805536,2025-04-11 09h55.53.685725 +0100,
cube_r.png,0.1,-0.31,invalid,7,7,0,up,3.432115400006296,None,space,0.3186513999971794,None,,,,,0,7,7,7,,,,,630.9166302000085,,,,,,,,,,,,,630.9003894000052,630.9166302000085,630.9166302000085,630.9166302000085,634.3640654000046,,,,634.3788304000045,634.3892457000038,634.3892457000038,634.4293046000093,634.4297806000104,634.445672700007,634.445672700007,634.445672700007,634.5289601000113,634.7802695000137,,,,,,,,up,3.432115400006296,None,space,0.3186513999971794,None,,,,,,,,,,,,,,,P149,001,2025-04-11_09h55.46.860,posner_endo_new1,2024.2.4,60.05674160805536,2025-04-11 09h55.53.685725 +0100,
cube_l.png,0.1,-0.31,valid,8,8,0,up,6.906113000004552,None,space,0.3507952999934787,None,,,,,0,8,8,8,,,,,634.795352400004,,,,,,,,,,,,,634.780640500001,634.795352400004,634.795352400004,634.795352400004,641.7064793000027,,,,641.7166786000016,641.7269418000069,641.7269418000069,641.7720398000092,641.7723534000106,641.7884967000136,641.7884967000136,641.7884967000136,641.8717897000024,642.1559526000055,,,,,,,,up,6.906113000004552,None,space,0.3507952999934787,None,,,,,,,,,,,,,,,P149,001,2025-04-11_09h55.46.860,posner_endo_new1,2024.2.4,60.05674160805536,2025-04-11 09h55.53.685725 +0100,
cube_r.png,0.1,-0.31,invalid,9,9,0,up,6.177396099999896,None,space,0.333338399999775,None,,,,,0,9,9,9,,,,,642.1716277000087,,,,,,,,,,,,,642.1562140000024,642.1716277000087,642.1716277000087,642.1716277000087,648.3660361000075,,,,648.3760030000121,648.3859568000044,648.3859568000044,648.4319615000131,648.4322713000001,648.4485557000007,648.4485557000007,648.4485557000007,648.5150626000104,648.7992562,,,,,,,,up,6.177396099999896,None,space,0.333338399999775,None,,,,,,,,,,,,,,,P149,001,2025-04-11_09h55.46.860,posner_endo_new1,2024.2.4,60.05674160805536,2025-04-11 09h55.53.685725 +0100,
cube_l.png,0.1,0.31,invalid,10,10,0,up,4.302256199996918,None,space,0.3114144999999553,None,,,,,0,10,10,10,,,,,648.814735100008,,,,,,,,,,,,,648.7995098000101,648.814735100008,648.814735100008,648.814735100008,653.1279771000118,,,,653.1377012000012,653.1478367000091,653.1478367000091,653.1937621000106,653.194067400007,653.2103468000132,653.2103468000132,653.2103468000132,653.2934693000134,653.5277465000108,,,,,,,,up,4.302256199996918,None,space,0.3114144999999553,None,,,,,,,,,,,,,,,P149,001,2025-04-11_09h55.46.860,posner_endo_new1,2024.2.4,60.05674160805536,2025-04-11 09h55.53.685725 +0100,
cube_r.png,0.1,-0.31,invalid,11,11,0,up,4.389484800005448,None,space,0.3354685999947833,None,,,,,0,11,11,11,,,,,653.5433145000134,,,,,,,,,,,,,653.5279946000082,653.5433145000134,653.5433145000134,653.5433145000134,657.9398220000003,,,,657.949649400005,657.9596904000064,657.9596904000064,658.0055031000084,658.0058073000109,658.0220949000068,658.0220949000068,658.0220949000068,658.1052976000065,658.3726121000072,,,,,,,,up,4.389484800005448,None,space,0.3354685999947833,None,,,,,,,,,,,,,,,P149,001,2025-04-11_09h55.46.860,posner_endo_new1,2024.2.4,60.05674160805536,2025-04-11 09h55.53.685725 +0100,
cube_r.png,0.1,0.31,valid,12,12,0,up,6.425434700009646,None,space,0.31543089999468066,None,,,,,0,12,12,12,,,,,658.3884134000109,,,,,,,,,,,,,658.3728584000055,658.3884134000109,658.3884134000109,658.3884134000109,664.8164843000122,,,,664.8267488000129,664.836925200012,664.836925200012,664.8819001000084,664.8822108000022,664.8982588000072,664.8982588000072,664.8982588000072,664.9815793000016,665.2159232000122,,,,,,,,up,6.425434700009646,None,space,0.31543089999468066,None,,,,,,,,,,,,,,,P149,001,2025-04-11_09h55.46.860,posner_endo_new1,2024.2.4,60.05674160805536,2025-04-11 09h55.53.685725 +0100,
cube_l.png,0.1,10,catch,13,13,0,up,5.950128399999812,None,None,,,,,,,0,13,13,13,,,,,665.2313930000091,,,,,,,,,,,,,665.2161769000086,665.2313930000091,665.2313930000091,665.2313930000091,671.1929732000135,,,,671.2030630000081,671.2131470000022,671.2131470000022,671.2585867000016,671.2589010000083,671.275137500008,671.275137500008,671.275137500008,671.3584276000038,674.2727117000031,,,,673.372907500001,674.2886787000025,674.2886787000025,674.2886787000025,up,5.950128399999812,None,None,,,,,,,,,,,,,,,,,P149,001,2025-04-11_09h55.46.860,posner_endo_new1,2024.2.4,60.05674160805536,2025-04-11 09h55.53.685725 +0100,
cube_r.png,0.1,-0.31,invalid,14,14,0,up,4.164121100009652,None,space,0.3504455000074813,None,,,,,0,14,14,14,,,,,674.2886787000025,,,,,,,,,,,,,674.2729518000124,674.2886787000025,674.2886787000025,674.2886787000025,678.4688520000054,,,,678.4790743000049,678.4892666000087,678.4892666000087,678.5344741000008,678.5347937000042,678.5510570000042,678.5510570000042,678.5510570000042,678.6342358000111,678.9183835000003,,,,,,,,up,4.164121100009652,None,space,0.3504455000074813,None,,,,,,,,,,,,,,,P149,001,2025-04-11_09h55.46.860,posner_endo_new1,2024.2.4,60.05674160805536,2025-04-11 09h55.53.685725 +0100,
cube_l.png,0.1,-0.31,valid,15,15,0,up,4.359419500004151,None,space,0.33901630000036675,None,,,,,0,15,15,15,,,,,678.9340098000102,,,,,,,,,,,,,678.9186447000102,678.9340098000102,678.9340098000102,678.9340098000102,683.2972757000098,,,,683.3074224000011,683.3175961000088,683.3175961000088,683.3628982000082,683.3632125000004,683.3793681000097,683.3793681000097,683.3793681000097,683.4626157000021,683.730238300006,,,,,,,,up,4.359419500004151,None,space,0.33901630000036675,None,,,,,,,,,,,,,,,P149,001,2025-04-11_09h55.46.860,posner_endo_new1,2024.2.4,60.05674160805536,2025-04-11 09h55.53.685725 +0100,
cube_r.png,0.1,10,catch,16,16,0,up,5.875801500005764,None,None,,,,,,,0,16,16,16,,,,,683.7456856000063,,,,,,,,,,,,,683.7305017000035,683.7456856000063,683.7456856000063,683.7456856000063,689.6242321000027,,,,689.6327839000005,689.6427875000081,689.6427875000081,689.6896681000071,689.6899039000127,689.7062643000099,689.7062643000099,689.7062643000099,689.7895272000023,692.7036590000062,,,,691.8041373000015,692.7197943000065,692.7197943000065,692.7197943000065,up,5.875801500005764,None,None,,,,,,,,,,,,,,,,,P149,001,2025-04-11_09h55.46.860,posner_endo_new1,2024.2.4,60.05674160805536,2025-04-11 09h55.53.685725 +0100,
cube_r.png,0.1,10,catch,17,17,0,up,2.205536599998595,None,None,,,,,,,0,17,17,17,,,,,692.7197943000065,,,,,,,,,,,,,692.7038249000034,692.7197943000065,692.7197943000065,692.7197943000065,694.9349753000133,,,,694.9415786000027,694.9531929000077,694.9531929000077,695.0009907000058,695.0012468000059,695.0173524000129,695.0173524000129,695.0173524000129,695.0839777000074,698.0149277000019,,,,697.0988481000095,698.031251700013,698.031251700013,698.031251700013,up,2.205536599998595,None,None,,,,,,,,,,,,,,,,,P149,001,2025-04-11_09h55.46.860,posner_endo_new1,2024.2.4,60.05674160805536,2025-04-11 09h55.53.685725 +0100,
cube_l.png,0.1,0.31,invalid,18,18,0,up,2.262052699996275,None,space,0.3270178999955533,None,,,,,0,18,18,18,,,,,698.031251700013,,,,,,,,,,,,,698.0150980000035,698.031251700013,698.031251700013,698.031251700013,700.2961244000035,,,,700.3027857000125,700.3145638000133,700.3145638000133,700.362166100007,700.3623952000053,700.3787728000025,700.3787728000025,700.3787728000025,700.445384000006,700.7125679000019,,,,,,,,up,2.262052699996275,None,space,0.3270178999955533,None,,,,,,,,,,,,,,,P149,001,2025-04-11_09h55.46.860,posner_endo_new1,2024.2.4,60.05674160805536,2025-04-11 09h55.53.685725 +0100,
cube_l.png,0.1,10,catch,19,19,0,up,3.484336699999403,None,None,,,,,,,0,19,19,19,,,,,700.7285728000134,,,,,,,,,,,,,700.7127450000116,700.7285728000134,700.7285728000134,700.7285728000134,704.225632200003,,,,704.2323123000097,704.2440885000105,704.2440885000105,704.2914327000035,704.2916724000097,704.3080125000124,704.3080125000124,704.3080125000124,704.3912299000076,707.3054785000131,,,,706.4058225000044,707.3215636000095,707.3215636000095,707.3215636000095,up,3.484336699999403,None,None,,,,,,,,,,,,,,,,,P149,001,2025-04-11_09h55.46.860,posner_endo_new1,2024.2.4,60.05674160805536,2025-04-11 09h55.53.685725 +0100,
cube_l.png,0.1,0.31,invalid,20,20,0,up,2.828929099996458,None,space,0.34108939999714494,None,,,,,0,20,20,20,,,,,707.3215636000095,,,,,,,,,,,,,707.3056547000015,707.3215636000095,707.3215636000095,707.3215636000095,710.1529227000137,,,,710.1590715000057,710.1706585000065,710.1706585000065,710.2186027999996,710.2188376000122,710.2350468000077,710.2350468000077,710.2350468000077,710.3184019000037,710.5855047000077,,,,,,,,up,2.828929099996458,None,space,0.34108939999714494,None,,,,,,,,,,,,,,,P149,001,2025-04-11_09h55.46.860,posner_endo_new1,2024.2.4,60.05674160805536,2025-04-11 09h55.53.685725 +0100,
cube_l.png,0.1,-0.31,valid,21,21,0,up,4.811576399995829,None,space,0.4107641999871703,None,,,,,0,21,21,21,,,,,710.6015763000032,,,,,,,,,,,,,710.5856877000042,710.6015763000032,710.6015763000032,710.6015763000032,715.4146413000126,,,,715.4291946000012,715.439666300008,715.439666300008,715.4797357000061,715.4801826000039,715.496153,715.496153,715.496153,715.5793957000133,715.9138769000128,,,,,,,,up,4.811576399995829,None,space,0.4107641999871703,None,,,,,,,,,,,,,,,P149,001,2025-04-11_09h55.46.860,posner_endo_new1,2024.2.4,60.05674160805536,2025-04-11 09h55.53.685725 +0100,
cube_r.png,0.1,0.31,valid,22,22,0,up,3.8437074000103166,None,space,0.398813700012397,None,,,,,0,22,22,22,,,,,715.9289824000007,,,,,,,,,,,,,715.9142401999998,715.9289824000007,715.9289824000007,715.9289824000007,719.7767986000108,,,,719.7871114000009,719.7971248000104,719.7971248000104,719.84224920001,719.8425669999997,719.8585689000029,719.8585689000029,719.8585689000029,719.9419588000019,720.259478500011,,,,,,,,up,3.8437074000103166,None,space,0.398813700012397,None,,,,,,,,,,,,,,,P149,001,2025-04-11_09h55.46.860,posner_endo_new1,2024.2.4,60.05674160805536,2025-04-11 09h55.53.685725 +0100,
cube_r.png,0.1,-0.31,invalid,23,23,0,up,3.55481640000653,None,space,0.33523160000913776,None,,,,,0,23,23,23,,,,,720.2749480000057,,,,,,,,,,,,,720.2597399000078,720.2749480000057,720.2749480000057,720.2749480000057,723.8390819000051,,,,723.8489635000005,723.8591371000075,723.8591371000075,723.9045848000096,723.9048976000049,723.921291000006,723.921291000006,723.921291000006,724.0045061000128,724.2717076000117,,,,,,,,up,3.55481640000653,None,space,0.33523160000913776,None,,,,,,,,,,,,,,,P149,001,2025-04-11_09h55.46.860,posner_endo_new1,2024.2.4,60.05674160805536,2025-04-11 09h55.53.685725 +0100,
cube_r.png,0.1,0.31,valid,24,24,0,up,6.213564999998198,None,space,0.3321769000031054,None,,,,,0,24,24,24,,,,,724.2874686000141,,,,,,,,,,,,,724.2719556000084,724.2874686000141,724.2874686000141,724.2874686000141,730.5155796000035,,,,730.5254086000059,730.5355890000064,730.5355890000064,730.5811382000102,730.5814385000122,730.5977689000138,730.5977689000138,730.5977689000138,730.6808311000059,730.9320032000105,,,,,,,,up,6.213564999998198,None,space,0.3321769000031054,None,,,,,,,,,,,,,,,P149,001,2025-04-11_09h55.46.860,posner_endo_new1,2024.2.4,60.05674160805536,2025-04-11 09h55.53.685725 +0100,
cube_r.png,0.1,-0.31,invalid,25,25,0,up,5.306015699999989,None,space,0.4104117000097176,None,,,,,0,25,25,25,,,,,730.9474498000054,,,,,,,,,,,,,730.9322508000041,730.9474498000054,730.9474498000054,730.9474498000054,736.259647400002,,,,736.2693991000124,736.2795329000073,736.2795329000073,736.3253682000068,736.3256709000125,736.3418717000022,736.3418717000022,736.3418717000022,736.4250731000066,736.7592110000114,,,,,,,,up,5.306015699999989,None,space,0.4104117000097176,None,,,,,,,,,,,,,,,P149,001,2025-04-11_09h55.46.860,posner_endo_new1,2024.2.4,60.05674160805536,2025-04-11 09h55.53.685725 +0100,
cube_l.png,0.1,-0.31,valid,26,26,0,up,4.726798099989537,None,space,0.34059560000605416,None,,,,,0,26,26,26,,,,,736.7746655000083,,,,,,,,,,,,,736.7594851000031,736.7746655000083,736.7746655000083,736.7746655000083,741.5044081000087,,,,741.5142534000042,741.5243779000011,741.5243779000011,741.5700615000096,741.570372400005,741.5865632000059,741.5865632000059,741.5865632000059,741.6697710000008,741.9371969000058,,,,,,,,up,4.726798099989537,None,space,0.34059560000605416,None,,,,,,,,,,,,,,,P149,001,2025-04-11_09h55.46.860,posner_endo_new1,2024.2.4,60.05674160805536,2025-04-11 09h55.53.685725 +0100,
cube_r.png,0.1,0.31,valid,27,27,0,up,5.37993500000448,None,space,0.341882099994109,None,,,,,0,27,27,27,,,,,741.9527769000124,,,,,,,,,,,,,741.9374436000071,741.9527769000124,741.9527769000124,741.9527769000124,747.3483448000043,,,,747.3582431000104,747.3683117000037,747.3683117000037,747.4140887000103,747.4143896000023,747.4305636000063,747.4305636000063,747.4305636000063,747.5136539000086,747.7812549000082,,,,,,,,up,5.37993500000448,None,space,0.341882099994109,None,,,,,,,,,,,,,,,P149,001,2025-04-11_09h55.46.860,posner_endo_new1,2024.2.4,60.05674160805536,2025-04-11 09h55.53.685725 +0100,
cube_r.png,0.1,10,catch,28,28,0,up,6.816396299996995,None,None,,,,,,,0,28,28,28,,,,,747.7968339000072,,,,,,,,,,,,,747.7815086000046,747.7968339000072,747.7968339000072,747.7968339000072,754.6242327000073,,,,754.6342935000139,754.6444594000059,754.6444594000059,754.689941100005,754.690245100006,754.7065281000105,754.7065281000105,754.7065281000105,754.7896648000024,757.7039941000112,,,,756.8041971000057,757.720072600001,757.720072600001,757.720072600001,up,6.816396299996995,None,None,,,,,,,,,,,,,,,,,P149,001,2025-04-11_09h55.46.860,posner_endo_new1,2024.2.4,60.05674160805536,2025-04-11 09h55.53.685725 +0100,
cube_r.png,0.1,0.31,valid,29,29,0,up,5.084993599986774,None,space,0.35908650000055786,None,,,,,0,29,29,29,,,,,757.720072600001,,,,,,,,,,,,,757.7042342000059,757.720072600001,757.720072600001,757.720072600001,762.8158730000141,,,,762.8256407000008,762.8357452000055,762.8357452000055,762.881586500007,762.8818869000097,762.8980091000121,762.8980091000121,762.8980091000121,762.9813442000013,763.2653887000051,,,,,,,,up,5.084993599986774,None,space,0.35908650000055786,None,,,,,,,,,,,,,,,P149,001,2025-04-11_09h55.46.860,posner_endo_new1,2024.2.4,60.05674160805536,2025-04-11 09h55.53.685725 +0100,
cube_r.png,0.1,0.31,valid,30,30,0,up,5.428658299992094,None,space,0.326613900004304,None,,,,,0,30,30,30,,,,,763.2808679000009,,,,,,,,,,,,,763.2656357000087,763.2808679000009,763.2808679000009,763.2808679000009,768.7264865000034,,,,768.7363171000034,768.7460650000139,768.7460650000139,768.7921302000032,768.7924360000034,768.8087308000104,768.8087308000104,768.8087308000104,768.8919220000098,769.1425305000012,,,,,,,,up,5.428658299992094,None,space,0.326613900004304,None,,,,,,,,,,,,,,,P149,001,2025-04-11_09h55.46.860,posner_endo_new1,2024.2.4,60.05674160805536,2025-04-11 09h55.53.685725 +0100,
cube_l.png,0.1,-0.31,valid,31,31,0,up,3.910440599996946,None,space,0.33216879999963567,None,,,,,0,31,31,31,,,,,769.1583287000103,,,,,,,,,,,,,769.1427787000139,769.1583287000103,769.1583287000103,769.1583287000103,773.0721384000062,,,,773.0821817000106,773.0923218000098,773.0923218000098,773.1377146000013,773.138017300007,773.1543209000083,773.1543209000083,773.1543209000083,773.2373853000026,773.4883816000074,,,,,,,,up,3.910440599996946,None,space,0.33216879999963567,None,,,,,,,,,,,,,,,P149,001,2025-04-11_09h55.46.860,posner_endo_new1,2024.2.4,60.05674160805536,2025-04-11 09h55.53.685725 +0100,
cube_r.png,0.1,0.31,valid,32,32,0,up,5.732872900000075,None,space,0.3294373000098858,None,,,,,0,32,32,32,,,,,773.5038376000011,,,,,,,,,,,,,773.4886396000074,773.5038376000011,773.5038376000011,773.5038376000011,779.2490274000011,,,,779.2590237000113,779.2691432000138,779.2691432000138,779.3147914000001,779.3151030000008,779.3311577000131,779.3311577000131,779.3311577000131,779.4144756000023,779.665342200009,,,,,,,,up,5.732872900000075,None,space,0.3294373000098858,None,,,,,,,,,,,,,,,P149,001,2025-04-11_09h55.46.860,posner_endo_new1,2024.2.4,60.05674160805536,2025-04-11 09h55.53.685725 +0100,
cube_r.png,0.1,-0.31,invalid,33,33,0,up,5.276213899996947,None,space,0.29770900000585243,None,,,,,0,33,33,33,,,,,779.6808529000118,,,,,,,,,,,,,779.6656037000066,779.6808529000118,779.6808529000118,779.6808529000118,784.9599851000094,,,,784.9697916000005,784.9819176000019,784.9819176000019,785.0258299000125,785.0264861000032,785.0421579000104,785.0421579000104,785.0421579000104,785.1253766000009,785.344439700013,,,,,,,,up,5.276213899996947,None,space,0.29770900000585243,None,,,,,,,,,,,,,,,P149,001,2025-04-11_09h55.46.860,posner_endo_new1,2024.2.4,60.05674160805536,2025-04-11 09h55.53.685725 +0100,
cube_r.png,0.1,10,catch,34,34,0,up,4.182827100012219,None,None,,,,,,,0,34,34,34,,,,,785.358647800007,,,,,,,,,,,,,785.3450236000062,785.358647800007,785.358647800007,785.358647800007,789.556582300007,,,,789.5797571000003,789.5920685000019,789.5920685000019,789.6205231000058,789.6209300000046,789.6369364000129,789.6369364000129,789.6369364000129,789.7205968000053,792.6347286000091,,,,791.7349882000126,792.6509713000123,792.6509713000123,792.6509713000123,up,4.182827100012219,None,None,,,,,,,,,,,,,,,,,P149,001,2025-04-11_09h55.46.860,posner_endo_new1,2024.2.4,60.05674160805536,2025-04-11 09h55.53.685725 +0100,
cube_r.png,0.1,0.31,valid,35,35,0,up,0.9140236000093864,None,space,0.36116990000300575,None,,,,,0,35,35,35,,,,,792.6509713000123,,,,,,,,,,,,,792.6349402000051,792.6509713000123,792.6509713000123,792.6509713000123,793.5675762000028,,,,793.5760287000012,793.5858576000028,793.5858576000028,793.6332612000115,793.6337530000019,793.6496583000117,793.6496583000117,793.6496583000117,793.7329559000063,794.0176584000001,,,,,,,,up,0.9140236000093864,None,space,0.36116990000300575,None,,,,,,,,,,,,,,,P149,001,2025-04-11_09h55.46.860,posner_endo_new1,2024.2.4,60.05674160805536,2025-04-11 09h55.53.685725 +0100,
cube_r.png,0.1,-0.31,invalid,36,36,0,up,5.157857500002137,None,space,0.3151355000009062,None,,,,,0,36,36,36,,,,,794.0325910000101,,,,,,,,,,,,,794.0180796000059,794.0325910000101,794.0325910000101,794.0325910000101,799.1948360000097,,,,799.2019074000127,799.2133565000113,799.2133565000113,799.2602709000057,799.2605429000105,799.2774554000061,799.2774554000061,799.2774554000061,799.3438875000138,799.5946660000045,,,,,,,,up,5.157857500002137,None,space,0.3151355000009062,None,,,,,,,,,,,,,,,P149,001,2025-04-11_09h55.46.860,posner_endo_new1,2024.2.4,60.05674160805536,2025-04-11 09h55.53.685725 +0100,
cube_l.png,0.1,0.31,invalid,37,37,0,up,5.578479499992682,None,space,0.3244659999909345,None,,,,,0,37,37,37,,,,,799.6104508999997,,,,,,,,,,,,,799.594848800014,799.6104508999997,799.6104508999997,799.6104508999997,805.2053749000042,,,,805.2113871000038,805.2229838000057,805.2229838000057,805.271324900008,805.2715488000104,805.287844800012,805.287844800012,805.287844800012,805.354502400005,805.6216420000128,,,,,,,,up,5.578479499992682,None,space,0.3244659999909345,None,,,,,,,,,,,,,,,P149,001,2025-04-11_09h55.46.860,posner_endo_new1,2024.2.4,60.05674160805536,2025-04-11 09h55.53.685725 +0100,
cube_l.png,0.1,0.31,invalid,38,38,0,up,3.5030810000025667,None,space,0.3029784000100335,None,,,,,0,38,38,38,,,,,805.6377514000051,,,,,,,,,,,,,805.6218097000092,805.6377514000051,805.6377514000051,805.6377514000051,809.1514830000087,,,,809.1577883999998,809.1694253000023,809.1694253000023,809.2173369000084,809.2175693000027,809.2338921000046,809.2338921000046,809.2338921000046,809.3005167000083,809.5508910000062,,,,,,,,up,3.5030810000025667,None,space,0.3029784000100335,None,,,,,,,,,,,,,,,P149,001,2025-04-11_09h55.46.860,posner_endo_new1,2024.2.4,60.05674160805536,2025-04-11 09h55.53.685725 +0100,
cube_r.png,0.1,0.31,valid,39,39,0,up,6.430111000008765,None,space,0.2964312999974936,None,,,,,0,39,39,39,,,,,809.5669608000026,,,,,,,,,,,,,809.5510709000082,809.5669608000026,809.5669608000026,809.5669608000026,816.0110249999998,,,,816.0173243000027,816.0291147000098,816.0291147000098,816.0771015000064,816.0773339000007,816.0935454999999,816.0935454999999,816.0935454999999,816.1601402000088,816.3940498000011,,,,,,,,up,6.430111000008765,None,space,0.2964312999974936,None,,,,,,,,,,,,,,,P149,001,2025-04-11_09h55.46.860,posner_endo_new1,2024.2.4,60.05674160805536,2025-04-11 09h55.53.685725 +0100,
cube_l.png,0.1,0.31,invalid,40,40,0,up,5.594760099993437,None,space,0.39353099999425467,None,,,,,0,40,40,40,,,,,816.4100388000079,,,,,,,,,,,,,816.3942250000109,816.4100388000079,816.4100388000079,816.4100388000079,822.0217109000077,,,,822.0281189000088,822.0395647000114,822.0395647000114,822.0874952000013,822.0877338000137,822.1041092000087,822.1041092000087,822.1041092000087,822.187548700007,822.504612100005,,,,,,,,up,5.594760099993437,None,space,0.39353099999425467,None,,,,,,,,,,,,,,,P149,001,2025-04-11_09h55.46.860,posner_endo_new1,2024.2.4,60.05674160805536,2025-04-11 09h55.53.685725 +0100,
cube_l.png,0.1,10,catch,41,41,0,up,6.613168099996983,None,None,,,,,,,0,41,41,41,,,,,822.5203776000126,,,,,,,,,,,,,822.5047821000044,822.5203776000126,822.5203776000126,822.5203776000126,829.1479148000071,,,,829.1577464000002,829.1678380000085,829.1678380000085,829.213611500003,829.2139104000089,829.2303188000078,829.2303188000078,829.2303188000078,829.3134048000065,832.2278286000073,,,,831.3280321000057,832.2437438000052,832.2437438000052,832.2437438000052,up,6.613168099996983,None,None,,,,,,,,,,,,,,,,,P149,001,2025-04-11_09h55.46.860,posner_endo_new1,2024.2.4,60.05674160805536,2025-04-11 09h55.53.685725 +0100,
cube_l.png,0.1,-0.31,valid,42,42,0,up,1.4425400000036461,None,space,0.36063570000987966,None,,,,,0,42,42,42,,,,,832.2437438000052,,,,,,,,,,,,,832.2280679000105,832.2437438000052,832.2437438000052,832.2437438000052,833.693362200007,,,,833.7033173000091,833.7134948000021,833.7134948000021,833.7590268000058,833.7593292000092,833.7755858000019,833.7755858000019,833.7755858000019,833.858765300014,834.1427468000038,,,,,,,,up,1.4425400000036461,None,space,0.36063570000987966,None,,,,,,,,,,,,,,,P149,001,2025-04-11_09h55.46.860,posner_endo_new1,2024.2.4,60.05674160805536,2025-04-11 09h55.53.685725 +0100,
cube_l.png,0.1,10,catch,43,43,0,up,4.350473900005454,None,None,,,,,,,0,43,43,43,,,,,834.1584067000076,,,,,,,,,,,,,834.1429915000044,834.1584067000076,834.1584067000076,834.1584067000076,838.5217244000087,,,,838.5315602000046,838.5417331000062,838.5417331000062,838.5873259000073,838.5876282000099,838.6039210000017,838.6039210000017,838.6039210000017,838.6872550000116,841.601488100001,,,,840.7016745000001,841.6174278000108,841.6174278000108,841.6174278000108,up,4.350473900005454,None,None,,,,,,,,,,,,,,,,,P149,001,2025-04-11_09h55.46.860,posner_endo_new1,2024.2.4,60.05674160805536,2025-04-11 09h55.53.685725 +0100,
cube_l.png,0.1,0.31,invalid,44,44,0,up,2.0353524000092875,None,space,0.3489329000003636,None,,,,,0,44,44,44,,,,,841.6174278000108,,,,,,,,,,,,,841.601725200002,841.6174278000108,841.6174278000108,841.6174278000108,843.6663794000051,,,,843.676775400003,843.687038300006,843.687038300006,843.7321440000087,843.7324566000025,843.7485841000016,843.7485841000016,843.7485841000016,843.8317348000128,844.0994834000012,,,,,,,,up,2.0353524000092875,None,space,0.3489329000003636,None,,,,,,,,,,,,,,,P149,001,2025-04-11_09h55.46.860,posner_endo_new1,2024.2.4,60.05674160805536,2025-04-11 09h55.53.685725 +0100,
cube_l.png,0.1,0.31,invalid,45,45,0,up,2.450623800003086,None,space,0.38401780001004227,None,,,,,0,45,45,45,,,,,844.1148921000131,,,,,,,,,,,,,844.0997384000075,844.1148921000131,844.1148921000131,844.1148921000131,846.5801460000075,,,,846.5903628000087,846.600580600003,846.600580600003,846.6457055000064,846.6460171000072,846.6623757000052,846.6623757000052,846.6623757000052,846.7455400000035,847.0629209000035,,,,,,,,up,2.450623800003086,None,space,0.38401780001004227,None,,,,,,,,,,,,,,,P149,001,2025-04-11_09h55.46.860,posner_endo_new1,2024.2.4,60.05674160805536,2025-04-11 09h55.53.685725 +0100,
cube_r.png,0.1,0.31,valid,46,46,0,up,5.118756199997733,None,space,0.35011080000549555,None,,,,,0,46,46,46,,,,,847.0784715000045,,,,,,,,,,,,,847.0631714000046,847.0784715000045,847.0784715000045,847.0784715000045,852.2076611000084,,,,852.2177950000041,852.2286231000035,852.2286231000035,852.2733380000136,852.2736483000044,852.2899096000037,852.2899096000037,852.2899096000037,852.373151000007,852.6573130000033,,,,,,,,up,5.118756199997733,None,space,0.35011080000549555,None,,,,,,,,,,,,,,,P149,001,2025-04-11_09h55.46.860,posner_endo_new1,2024.2.4,60.05674160805536,2025-04-11 09h55.53.685725 +0100,
cube_l.png,0.1,-0.31,valid,47,47,0,up,4.501180499995826,None,space,0.396541399997659,None,,,,,0,47,47,47,,,,,852.6727880000108,,,,,,,,,,,,,852.6575647000136,852.6727880000108,852.6727880000108,852.6727880000108,857.1859755000041,,,,857.1957294000022,857.2058566000051,857.2058566000051,857.2516245000006,857.2519402000034,857.268169700008,857.268169700008,857.268169700008,857.3512897000037,857.6687974000088,,,,,,,,up,4.501180499995826,None,space,0.396541399997659,None,,,,,,,,,,,,,,,P149,001,2025-04-11_09h55.46.860,posner_endo_new1,2024.2.4,60.05674160805536,2025-04-11 09h55.53.685725 +0100,
cube_r.png,0.1,-0.31,invalid,48,48,0,up,3.640979799994966,None,space,0.371405700003379,None,,,,,0,48,48,48,,,,,857.6843982999999,,,,,,,,,,,,,857.6690479000099,857.6843982999999,857.6843982999999,857.6843982999999,861.3315835000103,,,,861.3415460000106,861.3515674000082,861.3515674000082,861.3974868000078,861.3977905000065,861.4138989000057,861.4138989000057,861.4138989000057,861.4971834000025,861.7979366000072,,,,,,,,up,3.640979799994966,None,space,0.371405700003379,None,,,,,,,,,,,,,,,P149,001,2025-04-11_09h55.46.860,posner_endo_new1,2024.2.4,60.05674160805536,2025-04-11 09h55.53.685725 +0100,
cube_r.png,0.1,10,catch,49,49,0,up,4.623746800003573,None,None,,,,,,,0,49,49,49,,,,,861.8135738000128,,,,,,,,,,,,,861.798182100014,861.8135738000128,861.8135738000128,861.8135738000128,866.4432751000131,,,,866.4535193000047,866.4637345000083,866.4637345000083,866.5088238000026,866.5091341000079,866.52533270001,866.52533270001,866.52533270001,866.6085909000103,869.5228481000086,,,,868.6231644000072,869.5389090000099,869.5389090000099,869.5389090000099,up,4.623746800003573,None,None,,,,,,,,,,,,,,,,,P149,001,2025-04-11_09h55.46.860,posner_endo_new1,2024.2.4,60.05674160805536,2025-04-11 09h55.53.685725 +0100,
cube_l.png,0.1,-0.31,valid,50,50,0,up,3.586571100007859,None,space,0.3631039000028977,None,,,,,0,50,50,50,,,,,869.5389090000099,,,,,,,,,,,,,869.523090600007,869.5389090000099,869.5389090000099,869.5389090000099,873.1363206000096,,,,873.1465721000131,873.1567662000016,873.1567662000016,873.2019111000118,873.2022283000115,873.2182446000079,873.2182446000079,873.2182446000079,873.3016593000066,873.5858742000128,,,,,,,,up,3.586571100007859,None,space,0.3631039000028977,None,,,,,,,,,,,,,,,P149,001,2025-04-11_09h55.46.860,posner_endo_new1,2024.2.4,60.05674160805536,2025-04-11 09h55.53.685725 +0100,
cube_l.png,0.1,-0.31,valid,51,51,0,up,5.427725499990629,None,space,0.28252900000370573,None,,,,,0,51,51,51,,,,,873.6013292999996,,,,,,,,,,,,,873.5861273000046,873.6013292999996,873.6013292999996,873.6013292999996,879.0303032000083,,,,879.0404517000134,879.0506721000129,879.0506721000129,879.095819500013,879.0961346000113,879.1123290000105,879.1123290000105,879.1123290000105,879.1955967000104,879.3967021000135,,,,,,,,up,5.427725499990629,None,space,0.28252900000370573,None,,,,,,,,,,,,,,,P149,001,2025-04-11_09h55.46.860,posner_endo_new1,2024.2.4,60.05674160805536,2025-04-11 09h55.53.685725 +0100,
cube_r.png,0.1,-0.31,invalid,52,52,0,up,4.257343599994783,None,space,0.33655789999465924,None,,,,,0,52,52,52,,,,,879.4119995000074,,,,,,,,,,,,,879.3969633000088,879.4119995000074,879.4119995000074,879.4119995000074,883.6753226000001,,,,883.6853032000072,883.6955531000131,883.6955531000131,883.741219100004,883.7415305000031,883.7575778000028,883.7575778000028,883.7575778000028,883.840863400008,884.1085719000112,,,,,,,,up,4.257343599994783,None,space,0.33655789999465924,None,,,,,,,,,,,,,,,P149,001,2025-04-11_09h55.46.860,posner_endo_new1,2024.2.4,60.05674160805536,2025-04-11 09h55.53.685725 +0100,
cube_l.png,0.1,-0.31,valid,53,53,0,up,5.121731999999611,None,space,0.3390364000078989,None,,,,,0,53,53,53,,,,,884.1238381000003,,,,,,,,,,,,,884.1088231000031,884.1238381000003,884.1238381000003,884.1238381000003,889.2528825000045,,,,889.262816500006,889.2730543000071,889.2730543000071,889.3188796000031,889.3191998000111,889.3353401000059,889.3353401000059,889.3353401000059,889.4018839000055,889.6860493000131,,,,,,,,up,5.121731999999611,None,space,0.3390364000078989,None,,,,,,,,,,,,,,,P149,001,2025-04-11_09h55.46.860,posner_endo_new1,2024.2.4,60.05674160805536,2025-04-11 09h55.53.685725 +0100,
cube_r.png,0.1,10,catch,54,54,0,up,4.815910800010897,None,None,,,,,,,0,54,54,54,,,,,889.7016661000089,,,,,,,,,,,,,889.6863124000083,889.7016661000089,889.7016661000089,889.7016661000089,894.5309954000113,,,,894.5409435000038,894.551140800002,894.551140800002,894.5966490999999,894.5969602000114,894.6133718000056,894.6133718000056,894.6133718000056,894.6964417000127,897.6109070000093,,,,896.7111240000086,897.6268496000121,897.6268496000121,897.6268496000121,up,4.815910800010897,None,None,,,,,,,,,,,,,,,,,P149,001,2025-04-11_09h55.46.860,posner_endo_new1,2024.2.4,60.05674160805536,2025-04-11 09h55.53.685725 +0100,
cube_l.png,0.1,0.31,invalid,55,55,0,up,5.098037000003387,None,space,0.3313646000024164,None,,,,,0,55,55,55,,,,,897.6268496000121,,,,,,,,,,,,,897.6111575000104,897.6268496000121,897.6268496000121,897.6268496000121,902.7391392000136,,,,902.7492732000101,902.7594922000135,902.7594922000135,902.804841300007,902.8051531000092,902.8214959000034,902.8214959000034,902.8214959000034,902.9046527000028,903.1558169000054,,,,,,,,up,5.098037000003387,None,space,0.3313646000024164,None,,,,,,,,,,,,,,,P149,001,2025-04-11_09h55.46.860,posner_endo_new1,2024.2.4,60.05674160805536,2025-04-11 09h55.53.685725 +0100,
cube_l.png,0.1,-0.31,valid,56,56,0,up,4.5223612999980105,None,space,0.39317759999539703,None,,,,,0,56,56,56,,,,,903.17113290001,,,,,,,,,,,,,903.1560701000126,903.17113290001,903.17113290001,903.17113290001,907.7009026000014,,,,907.7109637000103,907.7211991000077,907.7211991000077,907.7664499000093,907.7667619000131,907.7831411000079,907.7831411000079,907.7831411000079,907.8663639000006,908.1838626000099,,,,,,,,up,4.5223612999980105,None,space,0.39317759999539703,None,,,,,,,,,,,,,,,P149,001,2025-04-11_09h55.46.860,posner_endo_new1,2024.2.4,60.05674160805536,2025-04-11 09h55.53.685725 +0100,
cube_r.png,0.1,0.31,valid,57,57,0,up,5.949599299987312,None,space,0.3885461000027135,None,,,,,0,57,57,57,,,,,908.1993417000049,,,,,,,,,,,,,908.1841112000111,908.1993417000049,908.1993417000049,908.1993417000049,914.1610545000003,,,,914.1712597000005,914.1815269000072,914.1815269000072,914.2266637000139,914.2269788000121,914.2432266000105,914.2432266000105,914.2432266000105,914.3263906000066,914.6437882000027,,,,,,,,up,5.949599299987312,None,space,0.3885461000027135,None,,,,,,,,,,,,,,,P149,001,2025-04-11_09h55.46.860,posner_endo_new1,2024.2.4,60.05674160805536,2025-04-11 09h55.53.685725 +0100,
cube_r.png,0.1,-0.31,invalid,58,58,0,up,3.617351900000358,None,space,0.3633203999925172,None,,,,,0,58,58,58,,,,,914.6594709000055,,,,,,,,,,,,,914.6440419000137,914.6594709000055,914.6594709000055,914.6594709000055,918.2901505000045,,,,918.3002852000063,918.3105171000061,918.3105171000061,918.3556550000067,918.3559751000139,918.3721978000103,918.3721978000103,918.3721978000103,918.4555391000031,918.7397471000004,,,,,,,,up,3.617351900000358,None,space,0.3633203999925172,None,,,,,,,,,,,,,,,P149,001,2025-04-11_09h55.46.860,posner_endo_new1,2024.2.4,60.05674160805536,2025-04-11 09h55.53.685725 +0100,
cube_l.png,0.1,0.31,invalid,59,59,0,up,6.689586299995426,None,space,0.36588189999747556,None,,,,,0,59,59,59,,,,,918.7551762000076,,,,,,,,,,,,,918.7400009000121,918.7551762000076,918.7551762000076,918.7551762000076,925.4493554000073,,,,925.4593462000048,925.4695780000038,925.4695780000038,925.5150886000047,925.515412800014,925.531513000009,925.531513000009,925.531513000009,925.6148544000025,925.899080800009,,,,,,,,up,6.689586299995426,None,space,0.36588189999747556,None,,,,,,,,,,,,,,,P149,001,2025-04-11_09h55.46.860,posner_endo_new1,2024.2.4,60.05674160805536,2025-04-11 09h55.53.685725 +0100,
,,,,,,,,,,,,,,,,,,,,,,,,,,,,,,,,,,,,,,,,,,,,,,,,,,,,,,,,,,,,,,,,,,,,,925.8992436000117,925.9146156000061,925.9146156000061,985.9197709,995.7442057000007,space,69.82650749999448,None,,,,,,,P149,001,2025-04-11_09h55.46.860,posner_endo_new1,2024.2.4,60.05674160805536,2025-04-11 09h55.53.685725 +0100,
,,,,,,,,,,,,,,,,,,,,,,,,,,,,,,,,,,995.7442824000027,995.759682200005,998.8287968000077,998.7405054000119,,,,,,,,,,,,,,,,,,,,,,,,,,,,,,,,,,,,,,,,,,,,,,P149,001,2025-04-11_09h55.46.860,posner_endo_new1,2024.2.4,60.05674160805536,2025-04-11 09h55.53.685725 +0100,
cube_l.png,0.1,10,catch,0,0,0,down,4.72054080000089,None,None,,,,,,,,,,,0,0,0,0,998.8287968000077,,,,,,,,,,,,,998.820649900008,998.8287968000077,998.8287968000077,998.8287968000077,1003.5528741000016,,,,1003.5631547000085,1003.573458800005,1003.573458800005,1003.6184427000117,1003.6187580000114,1003.6350307000102,1003.6350307000102,1003.6350307000102,1003.7182239000103,1006.6324326000031,,,,1005.7328841000126,1006.6485611000098,1006.6485611000098,1006.6485611000098,,,,,,,,,,,,,,,down,4.72054080000089,None,None,,,P149,001,2025-04-11_09h55.46.860,posner_endo_new1,2024.2.4,60.05674160805536,2025-04-11 09h55.53.685725 +0100,
cube_l.png,0.1,10,catch,1,1,0,down,0.10839340000529774,None,None,,,,,,,,,,,0,1,1,1,1006.6485611000098,,,,,,,,,,,,,1006.6326774000045,1006.6485611000098,1006.6485611000098,1006.6485611000098,1006.7663204000128,,,,1006.7764143000095,1006.7867021000129,1006.7867021000129,1006.8319352000108,1006.8322478000046,1006.8482882000098,1006.8482882000098,1006.8482882000098,1006.931659400012,1009.8460442000069,,,,1008.9463598000002,1009.8618229000131,1009.8618229000131,1009.8618229000131,,,,,,,,,,,,,,,down,0.10839340000529774,None,None,,,P149,001,2025-04-11_09h55.46.860,posner_endo_new1,2024.2.4,60.05674160805536,2025-04-11 09h55.53.685725 +0100,
cube_l.png,0.1,0.31,invalid,2,2,0,down,8.151298099997803,None,space,0.36737730000459123,None,,,,,,,,,0,2,2,2,1009.8618229000131,,,,,,,,,,,,,1009.8462890000083,1009.8618229000131,1009.8618229000131,1009.8618229000131,1018.021507100013,,,,1018.0319643000112,1018.0420959000039,1018.0420959000039,1018.0870424000022,1018.087360000005,1018.1035690000135,1018.1035690000135,1018.1035690000135,1018.1867969000014,1018.487618500003,,,,,,,,,,,,,,,,,,,,,,down,8.151298099997803,None,space,0.36737730000459123,None,P149,001,2025-04-11_09h55.46.860,posner_endo_new1,2024.2.4,60.05674160805536,2025-04-11 09h55.53.685725 +0100,
cube_l.png,0.1,0.31,invalid,3,3,0,down,2.574105200008489,None,space,0.36383719999867026,None,,,,,,,,,0,3,3,3,1018.5030267000111,,,,,,,,,,,,,1018.4878849000088,1018.5030267000111,1018.5030267000111,1018.5030267000111,1021.0849258000089,,,,1021.0948141000117,1021.1050027000019,1021.1050027000019,1021.1505430000107,1021.1508570000005,1021.1669833000051,1021.1669833000051,1021.1669833000051,1021.2502585000038,1021.534568300005,,,,,,,,,,,,,,,,,,,,,,down,2.574105200008489,None,space,0.36383719999867026,None,P149,001,2025-04-11_09h55.46.860,posner_endo_new1,2024.2.4,60.05674160805536,2025-04-11 09h55.53.685725 +0100,
cube_l.png,0.1,-0.31,valid,4,4,0,down,2.990536300014355,None,space,0.39122360000328626,None,,,,,,,,,0,4,4,4,1021.5501343000069,,,,,,,,,,,,,1021.5348311000125,1021.5501343000069,1021.5501343000069,1021.5501343000069,1024.5479276000115,,,,1024.5578591000085,1024.5679654000123,1024.5679654000123,1024.6137356000108,1024.614050300006,1024.630213700002,1024.630213700002,1024.630213700002,1024.7132668000122,1025.0310050000116,,,,,,,,,,,,,,,,,,,,,,down,2.990536300014355,None,space,0.39122360000328626,None,P149,001,2025-04-11_09h55.46.860,posner_endo_new1,2024.2.4,60.05674160805536,2025-04-11 09h55.53.685725 +0100,
cube_r.png,0.1,-0.31,invalid,5,5,0,down,4.990867200001958,None,space,0.4706047000072431,None,,,,,,,,,0,5,5,5,1025.0464582000131,,,,,,,,,,,,,1025.0312656000024,1025.0464582000131,1025.0464582000131,1025.0464582000131,1030.0424520000088,,,,1030.052512500013,1030.0627598000137,1030.0627598000137,1030.1080436000047,1030.1083604000014,1030.1246320000064,1030.1246320000064,1030.1246320000064,1030.2078265000018,1030.608326600006,,,,,,,,,,,,,,,,,,,,,,down,4.990867200001958,None,space,0.4706047000072431,None,P149,001,2025-04-11_09h55.46.860,posner_endo_new1,2024.2.4,60.05674160805536,2025-04-11 09h55.53.685725 +0100,
cube_r.png,0.1,0.31,valid,6,6,0,down,6.0049505999922985,None,space,0.3416233000025386,None,,,,,,,,,0,6,6,6,1030.6240984000033,,,,,,,,,,,,,1030.6085837000137,1030.6240984000033,1030.6240984000033,1030.6240984000033,1036.635447800014,,,,1036.643615500012,1036.6541257000063,1036.6541257000063,1036.7011959000083,1036.7017055000033,1036.717617000002,1036.717617000002,1036.717617000002,1036.800891900013,1037.0690853000124,,,,,,,,,,,,,,,,,,,,,,down,6.0049505999922985,None,space,0.3416233000025386,None,P149,001,2025-04-11_09h55.46.860,posner_endo_new1,2024.2.4,60.05674160805536,2025-04-11 09h55.53.685725 +0100,
cube_r.png,0.1,-0.31,invalid,7,7,0,down,5.273592300000018,None,space,0.3819346000091173,None,,,,,,,,,0,7,7,7,1037.0839144000056,,,,,,,,,,,,,1037.0695315000048,1037.0839144000056,1037.0839144000056,1037.0839144000056,1042.3633605000068,,,,1042.3751120000088,1042.3854265000118,1042.3854265000118,1042.428777500012,1042.4291175000108,1042.4453362000058,1042.4453362000058,1042.4453362000058,1042.5285794000083,1042.829453000013,,,,,,,,,,,,,,,,,,,,,,down,5.273592300000018,None,space,0.3819346000091173,None,P149,001,2025-04-11_09h55.46.860,posner_endo_new1,2024.2.4,60.05674160805536,2025-04-11 09h55.53.685725 +0100,
cube_l.png,0.1,-0.31,valid,8,8,0,down,5.736310699998285,None,space,0.3715937999950256,None,,,,,,,,,0,8,8,8,1042.8448621999996,,,,,,,,,,,,,1042.8297405000048,1042.8448621999996,1042.8448621999996,1042.8448621999996,1048.5901668000006,,,,1048.6019704000064,1048.612264100011,1048.612264100011,1048.655790600009,1048.6561489000014,1048.6723120000097,1048.6723120000097,1048.6723120000097,1048.75546510001,1049.0564052000118,,,,,,,,,,,,,,,,,,,,,,down,5.736310699998285,None,space,0.3715937999950256,None,P149,001,2025-04-11_09h55.46.860,posner_endo_new1,2024.2.4,60.05674160805536,2025-04-11 09h55.53.685725 +0100,
cube_r.png,0.1,-0.31,invalid,9,9,0,down,4.389611199992942,None,space,0.3895743000030052,None,,,,,,,,,0,9,9,9,1049.0718854000006,,,,,,,,,,,,,1049.056702700007,1049.0718854000006,1049.0718854000006,1049.0718854000006,1053.4686206000042,,,,1053.4802709000069,1053.4906559000083,1053.4906559000083,1053.5340329000028,1053.5343932000105,1053.5506017000007,1053.5506017000007,1053.5506017000007,1053.6338451000047,1053.951386700006,,,,,,,,,,,,,,,,,,,,,,down,4.389611199992942,None,space,0.3895743000030052,None,P149,001,2025-04-11_09h55.46.860,posner_endo_new1,2024.2.4,60.05674160805536,2025-04-11 09h55.53.685725 +0100,
cube_l.png,0.1,0.31,invalid,10,10,0,down,4.174578799997107,None,space,0.32321450000745244,None,,,,,,,,,0,10,10,10,1053.9667850000114,,,,,,,,,,,,,1053.9516946000076,1053.9667850000114,1053.9667850000114,1053.9667850000114,1058.1472402000072,,,,1058.1559366000001,1058.1659576000093,1058.1659576000093,1058.2124714000092,1058.2127326000045,1058.2293277000135,1058.2293277000135,1058.2293277000135,1058.312280500002,1058.562945400001,,,,,,,,,,,,,,,,,,,,,,down,4.174578799997107,None,space,0.32321450000745244,None,P149,001,2025-04-11_09h55.46.860,posner_endo_new1,2024.2.4,60.05674160805536,2025-04-11 09h55.53.685725 +0100,
cube_r.png,0.1,-0.31,invalid,11,11,0,down,5.170719799993094,None,space,0.35295509999559727,None,,,,,,,,,0,11,11,11,1058.578520400013,,,,,,,,,,,,,1058.5631527000078,1058.578520400013,1058.578520400013,1058.578520400013,1063.758044000002,,,,1063.7697318000137,1063.7800954000122,1063.7800954000122,1063.8235626000096,1063.8239148000139,1063.8400517000118,1063.8400517000118,1063.8400517000118,1063.9233229000092,1064.2076327000104,,,,,,,,,,,,,,,,,,,,,,down,5.170719799993094,None,space,0.35295509999559727,None,P149,001,2025-04-11_09h55.46.860,posner_endo_new1,2024.2.4,60.05674160805536,2025-04-11 09h55.53.685725 +0100,
cube_r.png,0.1,0.31,valid,12,12,0,down,7.677979200001573,None,space,0.4375873000099091,None,,,,,,,,,0,12,12,12,1064.2229966000014,,,,,,,,,,,,,1064.2079382000084,1064.2229966000014,1064.2229966000014,1064.2229966000014,1071.9163332000026,,,,1071.9253144000104,1071.9356832000049,1071.9356832000049,1071.9819642000075,1071.9822230000136,1071.9984293000016,1071.9984293000016,1071.9984293000016,1072.081633400012,1072.4495539000054,,,,,,,,,,,,,,,,,,,,,,down,7.677979200001573,None,space,0.4375873000099091,None,P149,001,2025-04-11_09h55.46.860,posner_endo_new1,2024.2.4,60.05674160805536,2025-04-11 09h55.53.685725 +0100,
cube_l.png,0.1,10,catch,13,13,0,down,7.180531900012284,None,None,,,,,,,,,,,0,13,13,13,1072.4643825000094,,,,,,,,,,,,,1072.4499991000048,1072.4643825000094,1072.4643825000094,1072.4643825000094,1079.6583989000064,,,,1079.6700998000015,1079.6804346000135,1079.6804346000135,1079.7238393000007,1079.7241937000072,1079.7404487000022,1079.7404487000022,1079.7404487000022,1079.823583800011,1082.738025100014,,,,1081.8382778000087,1082.7539725000097,1082.7539725000097,1082.7539725000097,,,,,,,,,,,,,,,down,7.180531900012284,None,None,,,P149,001,2025-04-11_09h55.46.860,posner_endo_new1,2024.2.4,60.05674160805536,2025-04-11 09h55.53.685725 +0100,
cube_r.png,0.1,-0.31,invalid,14,14,0,down,4.739203600009205,None,space,0.3995197000040207,None,,,,,,,,,0,14,14,14,1082.7539725000097,,,,,,,,,,,,,1082.7383193000132,1082.7539725000097,1082.7539725000097,1082.7539725000097,1087.5005035000067,,,,1087.5121362000064,1087.5224971999996,1087.5224971999996,1087.565941000008,1087.5662959000038,1087.582379000014,1087.582379000014,1087.582379000014,1087.665634600009,1087.9835170000006,,,,,,,,,,,,,,,,,,,,,,down,4.739203600009205,None,space,0.3995197000040207,None,P149,001,2025-04-11_09h55.46.860,posner_endo_new1,2024.2.4,60.05674160805536,2025-04-11 09h55.53.685725 +0100,
cube_l.png,0.1,-0.31,valid,15,15,0,down,5.606512699989253,None,space,0.37797080000746064,None,,,,,,,,,0,15,15,15,1087.9985570999997,,,,,,,,,,,,,1087.9838222000108,1087.9985570999997,1087.9985570999997,1087.9985570999997,1093.6109588000108,,,,1093.6226007000078,1093.6329556000128,1093.6329556000128,1093.6763305000059,1093.6766835000017,1093.6927909000078,1093.6927909000078,1093.6927909000078,1093.7763365000137,1094.0772101000039,,,,,,,,,,,,,,,,,,,,,,down,5.606512699989253,None,space,0.37797080000746064,None,P149,001,2025-04-11_09h55.46.860,posner_endo_new1,2024.2.4,60.05674160805536,2025-04-11 09h55.53.685725 +0100,
cube_r.png,0.1,10,catch,16,16,0,down,5.896556899999268,None,None,,,,,,,,,,,0,16,16,16,1094.0924072000053,,,,,,,,,,,,,1094.0775079000014,1094.0924072000053,1094.0924072000053,1094.0924072000053,1100.004321100001,,,,1100.0159389000037,1100.0263274000026,1100.0263274000026,1100.0697179000126,1100.0700760000036,1100.0863135000109,1100.0863135000109,1100.0863135000109,1100.1695654000068,1103.084025700009,,,,1102.1841705000115,1103.099878100009,1103.099878100009,1103.099878100009,,,,,,,,,,,,,,,down,5.896556899999268,None,None,,,P149,001,2025-04-11_09h55.46.860,posner_endo_new1,2024.2.4,60.05674160805536,2025-04-11 09h55.53.685725 +0100,
cube_r.png,0.1,10,catch,17,17,0,down,4.368834299995797,None,None,,,,,,,,,,,0,17,17,17,1103.099878100009,,,,,,,,,,,,,1103.0843040000036,1103.099878100009,1103.099878100009,1103.099878100009,1107.4799736000132,,,,1107.4917246000114,1107.5021272000013,1107.5021272000013,1107.5455249000079,1107.54587490001,1107.5619053000119,1107.5619053000119,1107.5619053000119,1107.6451812000014,1110.559641300002,,,,1109.6597667000024,1110.5756585000054,1110.5756585000054,1110.5756585000054,,,,,,,,,,,,,,,down,4.368834299995797,None,None,,,P149,001,2025-04-11_09h55.46.860,posner_endo_new1,2024.2.4,60.05674160805536,2025-04-11 09h55.53.685725 +0100,
cube_l.png,0.1,0.31,invalid,18,18,0,down,1.0610627999994904,None,space,0.38514099999156315,None,,,,,,,,,0,18,18,18,1110.5756585000054,,,,,,,,,,,,,1110.5599198000127,1110.5756585000054,1110.5756585000054,1110.5756585000054,1111.6424056000105,,,,1111.654043500006,1111.6642954000126,1111.6642954000126,1111.7078997000062,1111.7082549000042,1111.7242892000068,1111.7242892000068,1111.7242892000068,1111.8077005000087,1112.1252131000074,,,,,,,,,,,,,,,,,,,,,,down,1.0610627999994904,None,space,0.38514099999156315,None,P149,001,2025-04-11_09h55.46.860,posner_endo_new1,2024.2.4,60.05674160805536,2025-04-11 09h55.53.685725 +0100,
cube_l.png,0.1,10,catch,19,19,0,down,6.264649299992016,None,None,,,,,,,,,,,0,19,19,19,1112.1405203000031,,,,,,,,,,,,,1112.125515000007,1112.1405203000031,1112.1405203000031,1112.1405203000031,1118.418676100002,,,,1118.4304352000036,1118.4406861000025,1118.4406861000025,1118.484314100002,1118.4846669000108,1118.5007568,1118.5007568,1118.5007568,1118.5840907000093,1121.4983330000105,,,,1120.5985739000025,1121.514281900003,1121.514281900003,1121.514281900003,,,,,,,,,,,,,,,down,6.264649299992016,None,None,,,P149,001,2025-04-11_09h55.46.860,posner_endo_new1,2024.2.4,60.05674160805536,2025-04-11 09h55.53.685725 +0100,
cube_l.png,0.1,0.31,invalid,20,20,0,down,5.3469321000011405,None,space,0.411905700006173,None,,,,,,,,,0,20,20,20,1121.514281900003,,,,,,,,,,,,,1121.4986175000085,1121.514281900003,1121.514281900003,1121.514281900003,1126.8768004000012,,,,1126.8856606000045,1126.8956447000091,1126.8956447000091,1126.9421691000025,1126.9424272000033,1126.9585583000007,1126.9585583000007,1126.9585583000007,1127.0419334000035,1127.376055300003,,,,,,,,,,,,,,,,,,,,,,down,5.3469321000011405,None,space,0.411905700006173,None,P149,001,2025-04-11_09h55.46.860,posner_endo_new1,2024.2.4,60.05674160805536,2025-04-11 09h55.53.685725 +0100,
cube_l.png,0.1,-0.31,valid,21,21,0,down,7.0776665000012144,None,space,0.42826400000194553,None,,,,,,,,,0,21,21,21,1127.3915175000002,,,,,,,,,,,,,1127.3762599000038,1127.3915175000002,1127.3915175000002,1127.3915175000002,1134.48568350001,,,,1134.4973678000097,1134.5074983000086,1134.5074983000086,1134.551071400012,1134.5514248000109,1134.5677054000116,1134.5677054000116,1134.5677054000116,1134.6509496000072,1135.002066400004,,,,,,,,,,,,,,,,,,,,,,down,7.0776665000012144,None,space,0.42826400000194553,None,P149,001,2025-04-11_09h55.46.860,posner_endo_new1,2024.2.4,60.05674160805536,2025-04-11 09h55.53.685725 +0100,
cube_r.png,0.1,0.31,valid,22,22,0,down,5.068320399994263,None,space,0.3467128999909619,None,,,,,,,,,0,22,22,22,1135.017145100006,,,,,,,,,,,,,1135.0023651000083,1135.017145100006,1135.017145100006,1135.017145100006,1140.0964585000038,,,,1140.1080985000008,1140.1185139000008,1140.1185139000008,1140.162054600005,1140.1624136000028,1140.178620400009,1140.178620400009,1140.178620400009,1140.245162600011,1140.5294368000032,,,,,,,,,,,,,,,,,,,,,,down,5.068320399994263,None,space,0.3467128999909619,None,P149,001,2025-04-11_09h55.46.860,posner_endo_new1,2024.2.4,60.05674160805536,2025-04-11 09h55.53.685725 +0100,
cube_r.png,0.1,-0.31,invalid,23,23,0,down,6.924098200004664,None,space,0.39751860000251327,None,,,,,,,,,0,23,23,23,1140.5449347000103,,,,,,,,,,,,,1140.5297362000128,1140.5449347000103,1140.5449347000103,1140.5449347000103,1147.472560500013,,,,1147.4841432000103,1147.4945010000083,1147.4945010000083,1147.537808100009,1147.5381653000077,1147.5543385000055,1147.5543385000055,1147.5543385000055,1147.6375704000093,1147.9554889000137,,,,,,,,,,,,,,,,,,,,,,down,6.924098200004664,None,space,0.39751860000251327,None,P149,001,2025-04-11_09h55.46.860,posner_endo_new1,2024.2.4,60.05674160805536,2025-04-11 09h55.53.685725 +0100,
cube_r.png,0.1,0.31,valid,24,24,0,down,5.42725409999548,None,space,0.4098957999958657,None,,,,,,,,,0,24,24,24,1147.9705918000109,,,,,,,,,,,,,1147.9557927000133,1147.9705918000109,1147.9705918000109,1147.9705918000109,1153.3996829000098,,,,1153.4113136000087,1153.4220962000109,1153.4220962000109,1153.4653396000067,1153.4656967000046,1153.4816246000119,1153.4816246000119,1153.4816246000119,1153.5649167000083,1153.8991124000022,,,,,,,,,,,,,,,,,,,,,,down,5.42725409999548,None,space,0.4098957999958657,None,P149,001,2025-04-11_09h55.46.860,posner_endo_new1,2024.2.4,60.05674160805536,2025-04-11 09h55.53.685725 +0100,
cube_r.png,0.1,-0.31,invalid,25,25,0,down,6.154634700011229,None,space,0.43465239999932237,None,,,,,,,,,0,25,25,25,1153.914568200009,,,,,,,,,,,,,1153.8994125000027,1153.914568200009,1153.914568200009,1153.914568200009,1160.0762347000127,,,,1160.08783460001,1160.0983687000116,1160.0983687000116,1160.1416758000123,1160.1420272000105,1160.1581909000088,1160.1581909000088,1160.1581909000088,1160.2414664000098,1160.6089347000088,,,,,,,,,,,,,,,,,,,,,,down,6.154634700011229,None,space,0.43465239999932237,None,P149,001,2025-04-11_09h55.46.860,posner_endo_new1,2024.2.4,60.05674160805536,2025-04-11 09h55.53.685725 +0100,
cube_l.png,0.1,-0.31,valid,26,26,0,down,5.740408199999365,None,space,0.38137540000025183,None,,,,,,,,,0,26,26,26,1160.6243331000005,,,,,,,,,,,,,1160.6092329000094,1160.6243331000005,1160.6243331000005,1160.6243331000005,1166.3699308000068,,,,1166.381531600011,1166.3919686000008,1166.3919686000008,1166.435286500011,1166.4355446000118,1166.45169490001,1166.45169490001,1166.45169490001,1166.535076500004,1166.8354756000044,,,,,,,,,,,,,,,,,,,,,,down,5.740408199999365,None,space,0.38137540000025183,None,P149,001,2025-04-11_09h55.46.860,posner_endo_new1,2024.2.4,60.05674160805536,2025-04-11 09h55.53.685725 +0100,
cube_r.png,0.1,0.31,valid,27,27,0,down,9.089710100000957,None,space,0.5054451000032714,None,,,,,,,,,0,27,27,27,1166.851383000001,,,,,,,,,,,,,1166.8356827000098,1166.851383000001,1166.851383000001,1166.851383000001,1175.942994500001,,,,1175.9506230000115,1175.9615297000128,1175.9615297000128,1176.0086215000047,1176.0088777000055,1176.0251387000026,1176.0251387000026,1176.0251387000026,1176.1083196000109,1176.5422011000046,,,,,,,,,,,,,,,,,,,,,,down,9.089710100000957,None,space,0.5054451000032714,None,P149,001,2025-04-11_09h55.46.860,posner_endo_new1,2024.2.4,60.05674160805536,2025-04-11 09h55.53.685725 +0100,
cube_r.png,0.1,10,catch,28,28,0,down,8.607092999998713,None,None,,,,,,,,,,,0,28,28,28,1176.5580512000015,,,,,,,,,,,,,1176.5424077000062,1176.5580512000015,1176.5580512000015,1176.5580512000015,1185.1669477000105,,,,1185.1746382000129,1185.1853598000016,1185.1853598000016,1185.2327109000034,1185.2329664999997,1185.2490251000127,1185.2490251000127,1185.2490251000127,1185.3322699000128,1188.2465391000005,,,,1187.3469282000005,1188.2626413000107,1188.2626413000107,1188.2626413000107,,,,,,,,,,,,,,,down,8.607092999998713,None,None,,,P149,001,2025-04-11_09h55.46.860,posner_endo_new1,2024.2.4,60.05674160805536,2025-04-11 09h55.53.685725 +0100,
cube_r.png,0.1,0.31,valid,29,29,0,down,3.430112599991844,None,space,0.4419253999949433,None,,,,,,,,,0,29,29,29,1188.2626413000107,,,,,,,,,,,,,1188.246733100008,1188.2626413000107,1188.2626413000107,1188.2626413000107,1191.693606300003,,,,1191.7012811000022,1191.7119778000051,1191.7119778000051,1191.7592349000042,1191.7597493000067,1191.7756156000105,1191.7756156000105,1191.7756156000105,1191.8588327000034,1192.2273014000093,,,,,,,,,,,,,,,,,,,,,,down,3.430112599991844,None,space,0.4419253999949433,None,P149,001,2025-04-11_09h55.46.860,posner_endo_new1,2024.2.4,60.05674160805536,2025-04-11 09h55.53.685725 +0100,
cube_r.png,0.1,0.31,valid,30,30,0,down,4.09107419999782,None,space,0.3596415999927558,None,,,,,,,,,0,30,30,30,1192.241732600014,,,,,,,,,,,,,1192.227757200002,1192.241732600014,1192.241732600014,1192.241732600014,1196.3390891000017,,,,1196.3506787000078,1196.3611068000027,1196.3611068000027,1196.4045340000011,1196.404893400002,1196.4210781000002,1196.4210781000002,1196.4210781000002,1196.5042620000022,1196.7885422000109,,,,,,,,,,,,,,,,,,,,,,down,4.09107419999782,None,space,0.3596415999927558,None,P149,001,2025-04-11_09h55.46.860,posner_endo_new1,2024.2.4,60.05674160805536,2025-04-11 09h55.53.685725 +0100,
cube_l.png,0.1,-0.31,valid,31,31,0,down,4.673366299990448,None,space,0.33187330000509974,None,,,,,,,,,0,31,31,31,1196.8039841999998,,,,,,,,,,,,,1196.7888603000029,1196.8039841999998,1196.8039841999998,1196.8039841999998,1201.4839360000042,,,,1201.493555100009,1201.503378600013,1201.503378600013,1201.5492478000087,1201.5494963000092,1201.565816500006,1201.565816500006,1201.565816500006,1201.6492044000042,1201.8997648000077,,,,,,,,,,,,,,,,,,,,,,down,4.673366299990448,None,space,0.33187330000509974,None,P149,001,2025-04-11_09h55.46.860,posner_endo_new1,2024.2.4,60.05674160805536,2025-04-11 09h55.53.685725 +0100,
cube_r.png,0.1,0.31,valid,32,32,0,down,4.697755400004098,None,space,0.3715667999931611,None,,,,,,,,,0,32,32,32,1201.9155170000013,,,,,,,,,,,,,1201.8999739000137,1201.9155170000013,1201.9155170000013,1201.9155170000013,1206.6281421000022,,,,1206.6352867000096,1206.6470274000021,1206.6470274000021,1206.6940495000017,1206.6942995000136,1206.7105281000113,1206.7105281000113,1206.7105281000113,1206.7772775000049,1207.094308300002,,,,,,,,,,,,,,,,,,,,,,down,4.697755400004098,None,space,0.3715667999931611,None,P149,001,2025-04-11_09h55.46.860,posner_endo_new1,2024.2.4,60.05674160805536,2025-04-11 09h55.53.685725 +0100,
cube_r.png,0.1,-0.31,invalid,33,33,0,down,3.934413700000732,None,space,0.4150396999903023,None,,,,,,,,,0,33,33,33,1207.1102503000002,,,,,,,,,,,,,1207.094505400004,1207.1102503000002,1207.1102503000002,1207.1102503000002,1211.0572413000045,,,,1211.0688479000091,1211.079128700003,1211.079128700003,1211.122927000004,1211.1232798000128,1211.1392835000006,1211.1392835000006,1211.1392835000006,1211.2227267000126,1211.5569610000093,,,,,,,,,,,,,,,,,,,,,,down,3.934413700000732,None,space,0.4150396999903023,None,P149,001,2025-04-11_09h55.46.860,posner_endo_new1,2024.2.4,60.05674160805536,2025-04-11 09h55.53.685725 +0100,
cube_r.png,0.1,10,catch,34,34,0,down,2.5046337000094354,None,None,,,,,,,,,,,0,34,34,34,1211.5722838000074,,,,,,,,,,,,,1211.5572713000001,1211.5722838000074,1211.5722838000074,1211.5722838000074,1214.0875995000097,,,,1214.0991416000033,1214.109452100005,1214.109452100005,1214.1531067000033,1214.1534602000029,1214.1694838000112,1214.1694838000112,1214.1694838000112,1214.252847300013,1217.1669893000071,,,,1216.2673563999997,1217.1830925000104,1217.1830925000104,1217.1830925000104,,,,,,,,,,,,,,,down,2.5046337000094354,None,None,,,P149,001,2025-04-11_09h55.46.860,posner_endo_new1,2024.2.4,60.05674160805536,2025-04-11 09h55.53.685725 +0100,
cube_r.png,0.1,0.31,valid,35,35,0,down,2.4138990999927046,None,space,0.8147118000051705,None,,,,,,,,,0,35,35,35,1217.1830925000104,,,,,,,,,,,,,1217.1671582000126,1217.1830925000104,1217.1830925000104,1217.1830925000104,1219.5981021000043,,,,1219.6043394000008,1219.6160728000104,1219.6160728000104,1219.6640730000072,1219.664317200004,1219.6806809000118,1219.6806809000118,1219.6806809000118,1219.747113800011,1220.4972428000037,,,,,,,,,,,,,,,,,,,,,,down,2.4138990999927046,None,space,0.8147118000051705,None,P149,001,2025-04-11_09h55.46.860,posner_endo_new1,2024.2.4,60.05674160805536,2025-04-11 09h55.53.685725 +0100,
cube_r.png,0.1,-0.31,invalid,36,36,0,down,5.596568799999659,None,space,0.42258460000448395,None,,,,,,,,,0,36,36,36,1220.5130273000104,,,,,,,,,,,,,1220.4974280000024,1220.5130273000104,1220.5130273000104,1220.5130273000104,1226.1249712999997,,,,1226.1381499000126,1226.1482990000077,1226.1482990000077,1226.1906373000093,1226.1909096000018,1226.2072143000114,1226.2072143000114,1226.2072143000114,1226.29039200001,1226.6410109000135,,,,,,,,,,,,,,,,,,,,,,down,5.596568799999659,None,space,0.42258460000448395,None,P149,001,2025-04-11_09h55.46.860,posner_endo_new1,2024.2.4,60.05674160805536,2025-04-11 09h55.53.685725 +0100,
cube_l.png,0.1,0.31,invalid,37,37,0,down,5.404468299995642,None,space,0.40804989999742247,None,,,,,,,,,0,37,37,37,1226.6567407000111,,,,,,,,,,,,,1226.6412369000027,1226.6567407000111,1226.6567407000111,1226.6567407000111,1232.068849800009,,,,1232.0770052000007,1232.0873960000026,1232.0873960000026,1232.1345456000126,1232.1348162000068,1232.150975200013,1232.150975200013,1232.150975200013,1232.2343380000093,1232.5683168000105,,,,,,,,,,,,,,,,,,,,,,down,5.404468299995642,None,space,0.40804989999742247,None,P149,001,2025-04-11_09h55.46.860,posner_endo_new1,2024.2.4,60.05674160805536,2025-04-11 09h55.53.685725 +0100,
cube_l.png,0.1,0.31,invalid,38,38,0,down,5.206361000004108,None,space,0.5994043999962742,None,,,,,,,,,0,38,38,38,1232.583910900008,,,,,,,,,,,,,1232.56853460001,1232.583910900008,1232.583910900008,1232.583910900008,1237.796407700007,,,,1237.8028013000003,1237.8145734000136,1237.8145734000136,1237.8621432000073,1237.8623778000037,1237.8785654000094,1237.8785654000094,1237.8785654000094,1237.9619905,1238.4788651000126,,,,,,,,,,,,,,,,,,,,,,down,5.206361000004108,None,space,0.5994043999962742,None,P149,001,2025-04-11_09h55.46.860,posner_endo_new1,2024.2.4,60.05674160805536,2025-04-11 09h55.53.685725 +0100,
cube_r.png,0.1,0.31,valid,39,39,0,down,4.662025199999334,None,space,0.36075399999390356,None,,,,,,,,,0,39,39,39,1238.4946380000038,,,,,,,,,,,,,1238.479047700006,1238.4946380000038,1238.4946380000038,1238.4946380000038,1243.1577560000005,,,,1243.168362700002,1243.1785845000122,1243.1785845000122,1243.2233813000057,1243.2237021000037,1243.2398751,1243.2398751,1243.2398751,1243.3231199000002,1243.6072283000103,,,,,,,,,,,,,,,,,,,,,,down,4.662025199999334,None,space,0.36075399999390356,None,P149,001,2025-04-11_09h55.46.860,posner_endo_new1,2024.2.4,60.05674160805536,2025-04-11 09h55.53.685725 +0100,
cube_l.png,0.1,0.31,invalid,40,40,0,down,5.5826168000057805,None,space,0.353045399999246,None,,,,,,,,,0,40,40,40,1243.6228311000013,,,,,,,,,,,,,1243.607494300013,1243.6228311000013,1243.6228311000013,1243.6228311000013,1249.2181513000105,,,,1249.2287987000018,1249.2389347999997,1249.2389347999997,1249.2836764000094,1249.2839883000124,1249.300374000013,1249.300374000013,1249.300374000013,1249.3835156000132,1249.667723400009,,,,,,,,,,,,,,,,,,,,,,down,5.5826168000057805,None,space,0.353045399999246,None,P149,001,2025-04-11_09h55.46.860,posner_endo_new1,2024.2.4,60.05674160805536,2025-04-11 09h55.53.685725 +0100,
cube_l.png,0.1,10,catch,41,41,0,down,5.809540999995079,None,None,,,,,,,,,,,0,41,41,41,1249.6832060000015,,,,,,,,,,,,,1249.6679872000095,1249.6832060000015,1249.6832060000015,1249.6832060000015,1255.4950076000096,,,,1255.5050824000064,1255.5152411000017,1255.5152411000017,1255.560646500002,1255.5609710000135,1255.5771942000138,1255.5771942000138,1255.5771942000138,1255.6605524000042,1258.574693100003,,,,1257.6750660000107,1258.5908408000105,1258.5908408000105,1258.5908408000105,,,,,,,,,,,,,,,down,5.809540999995079,None,None,,,P149,001,2025-04-11_09h55.46.860,posner_endo_new1,2024.2.4,60.05674160805536,2025-04-11 09h55.53.685725 +0100,
cube_l.png,0.1,-0.31,valid,42,42,0,down,5.478642000001855,None,space,0.3939618000003975,None,,,,,,,,,0,42,42,42,1258.5908408000105,,,,,,,,,,,,,1258.5749431000004,1258.5908408000105,1258.5908408000105,1258.5908408000105,1264.086389300006,,,,1264.0968921000022,1264.1066110000102,1264.1066110000102,1264.1519289999997,1264.1522415000072,1264.1683649000042,1264.1683649000042,1264.1683649000042,1264.251677600012,1264.5691763000068,,,,,,,,,,,,,,,,,,,,,,down,5.478642000001855,None,space,0.3939618000003975,None,P149,001,2025-04-11_09h55.46.860,posner_endo_new1,2024.2.4,60.05674160805536,2025-04-11 09h55.53.685725 +0100,
cube_l.png,0.1,10,catch,43,43,0,down,5.612510099992505,None,None,,,,,,,,,,,0,43,43,43,1264.5846677000081,,,,,,,,,,,,,1264.5694478000078,1264.5846677000081,1264.5846677000081,1264.5846677000081,1270.2134164000017,,,,1270.2236697000044,1270.2339395000017,1270.2339395000017,1270.2790103000007,1270.279329500001,1270.2956155000138,1270.2956155000138,1270.2956155000138,1270.378809300004,1273.293077800001,,,,1272.393346500001,1273.3090515000076,1273.3090515000076,1273.3090515000076,,,,,,,,,,,,,,,down,5.612510099992505,None,None,,,P149,001,2025-04-11_09h55.46.860,posner_endo_new1,2024.2.4,60.05674160805536,2025-04-11 09h55.53.685725 +0100,
cube_l.png,0.1,0.31,invalid,44,44,0,down,6.0644306000031065,None,space,0.4210058000026038,None,,,,,,,,,0,44,44,44,1273.3090515000076,,,,,,,,,,,,,1273.2933270000067,1273.3090515000076,1273.3090515000076,1273.3090515000076,1279.3872272000008,,,,1279.3974391000083,1279.4077543000021,1279.4077543000021,1279.4528924000042,1279.4532031000126,1279.4692616000102,1279.4692616000102,1279.4692616000102,1279.552644700001,1279.9034100000135,,,,,,,,,,,,,,,,,,,,,,down,6.0644306000031065,None,space,0.4210058000026038,None,P149,001,2025-04-11_09h55.46.860,posner_endo_new1,2024.2.4,60.05674160805536,2025-04-11 09h55.53.685725 +0100,
cube_l.png,0.1,0.31,invalid,45,45,0,down,5.998501099995337,None,space,0.45843989998684265,None,,,,,,,,,0,45,45,45,1279.9190387000126,,,,,,,,,,,,,1279.9036727000057,1279.9190387000126,1279.9190387000126,1279.9190387000126,1285.930562900001,,,,1285.9406936000014,1285.9508698000136,1285.9508698000136,1285.9961926000105,1285.9965120000124,1286.012844500001,1286.012844500001,1286.012844500001,1286.095887500007,1286.4799832999997,,,,,,,,,,,,,,,,,,,,,,down,5.998501099995337,None,space,0.45843989998684265,None,P149,001,2025-04-11_09h55.46.860,posner_endo_new1,2024.2.4,60.05674160805536,2025-04-11 09h55.53.685725 +0100,
cube_r.png,0.1,0.31,valid,46,46,0,down,3.3574841000081506,None,space,0.43681759999890346,None,,,,,,,,,0,46,46,46,1286.495655000006,,,,,,,,,,,,,1286.4802766000066,1286.495655000006,1286.495655000006,1286.495655000006,1289.8599519000127,,,,1289.8700999000139,1289.8823909000057,1289.8823909000057,1289.9258953000099,1289.9265656000061,1289.9422346000065,1289.9422346000065,1289.9422346000065,1290.0254360000108,1290.3940894000116,,,,,,,,,,,,,,,,,,,,,,down,3.3574841000081506,None,space,0.43681759999890346,None,P149,001,2025-04-11_09h55.46.860,posner_endo_new1,2024.2.4,60.05674160805536,2025-04-11 09h55.53.685725 +0100,
cube_l.png,0.1,-0.31,valid,47,47,0,down,5.220982800005004,None,space,0.5189773000020068,None,,,,,,,,,0,47,47,47,1290.4084235000046,,,,,,,,,,,,,1290.3946824000013,1290.4084235000046,1290.4084235000046,1290.4084235000046,1295.638792400001,,,,1295.6612025000068,1295.6715852000052,1295.6715852000052,1295.7024757000036,1295.7028174000006,1295.7190604000061,1295.7190604000061,1295.7190604000061,1295.8027175000025,1296.2534514,,,,,,,,,,,,,,,,,,,,,,down,5.220982800005004,None,space,0.5189773000020068,None,P149,001,2025-04-11_09h55.46.860,posner_endo_new1,2024.2.4,60.05674160805536,2025-04-11 09h55.53.685725 +0100,
cube_r.png,0.1,-0.31,invalid,48,48,0,down,5.928061900005559,None,space,0.4094687999895541,None,,,,,,,,,0,48,48,48,1296.2687821,,,,,,,,,,,,,1296.2537579000054,1296.2687821,1296.2687821,1296.2687821,1302.1992498000036,,,,1302.223166300013,1302.235405000014,1302.235405000014,1302.2625081000006,1302.2629084000073,1302.2789523000101,1302.2789523000101,1302.2789523000101,1302.3622055000014,1302.6968483000092,,,,,,,,,,,,,,,,,,,,,,down,5.928061900005559,None,space,0.4094687999895541,None,P149,001,2025-04-11_09h55.46.860,posner_endo_new1,2024.2.4,60.05674160805536,2025-04-11 09h55.53.685725 +0100,
cube_r.png,0.1,10,catch,49,49,0,down,6.1575424000038765,None,None,,,,,,,,,,,0,49,49,49,1302.7118575000059,,,,,,,,,,,,,1302.697187800004,1302.7118575000059,1302.7118575000059,1302.7118575000059,1308.87370370001,,,,1308.8824802000017,1308.8924955000111,1308.8924955000111,1308.9393068000063,1308.9398223000026,1308.9557298,1308.9557298,1308.9557298,1309.0389926000062,1311.9535390000092,,,,1311.0535810000001,1311.9695461000083,1311.9695461000083,1311.9695461000083,,,,,,,,,,,,,,,down,6.1575424000038765,None,None,,,P149,001,2025-04-11_09h55.46.860,posner_endo_new1,2024.2.4,60.05674160805536,2025-04-11 09h55.53.685725 +0100,
cube_l.png,0.1,-0.31,valid,50,50,0,down,2.5476239000126952,None,space,0.4055060999962734,None,,,,,,,,,0,50,50,50,1311.9695461000083,,,,,,,,,,,,,1311.9538323000015,1311.9695461000083,1311.9695461000083,1311.9695461000083,1314.51847000001,,,,1314.5300622000068,1314.540404000014,1314.540404000014,1314.5836667000112,1314.5839194,1314.6001372000028,1314.6001372000028,1314.6001372000028,1314.6833097000053,1315.0172901000042,,,,,,,,,,,,,,,,,,,,,,down,2.5476239000126952,None,space,0.4055060999962734,None,P149,001,2025-04-11_09h55.46.860,posner_endo_new1,2024.2.4,60.05674160805536,2025-04-11 09h55.53.685725 +0100,
cube_l.png,0.1,-0.31,valid,51,51,0,down,5.155736900007469,None,space,0.34779460000572726,None,,,,,,,,,0,51,51,51,1315.033060200003,,,,,,,,,,,,,1315.0175121000066,1315.033060200003,1315.033060200003,1315.033060200003,1320.1953135000076,,,,1320.2030023000116,1320.2140548000025,1320.2140548000025,1320.2611026000086,1320.261363100013,1320.2775076000107,1320.2775076000107,1320.2775076000107,1320.3606424000027,1320.6280237000028,,,,,,,,,,,,,,,,,,,,,,down,5.155736900007469,None,space,0.34779460000572726,None,P149,001,2025-04-11_09h55.46.860,posner_endo_new1,2024.2.4,60.05674160805536,2025-04-11 09h55.53.685725 +0100,
cube_r.png,0.1,-0.31,invalid,52,52,0,down,3.9856294999917736,None,space,0.3554523000057088,None,,,,,,,,,0,52,52,52,1320.6436873000057,,,,,,,,,,,,,1320.6282395000017,1320.6436873000057,1320.6436873000057,1320.6436873000057,1324.6407333000097,,,,1324.6482572000095,1324.6594047000108,1324.6594047000108,1324.7065514000133,1324.706807200011,1324.7231455,1324.7231455,1324.7231455,1324.8063768000138,1325.0902581000119,,,,,,,,,,,,,,,,,,,,,,down,3.9856294999917736,None,space,0.3554523000057088,None,P149,001,2025-04-11_09h55.46.860,posner_endo_new1,2024.2.4,60.05674160805536,2025-04-11 09h55.53.685725 +0100,
cube_l.png,0.1,-0.31,valid,53,53,0,down,5.163378400000511,None,space,0.3480729999864707,None,,,,,,,,,0,53,53,53,1325.1060116000008,,,,,,,,,,,,,1325.090466700014,1325.1060116000008,1325.1060116000008,1325.1060116000008,1330.2848998000118,,,,1330.2924941000092,1330.3036820000125,1330.3036820000125,1330.3504986000044,1330.3507580000005,1330.3672187000047,1330.3672187000047,1330.3672187000047,1330.4504911000113,1330.718090200011,,,,,,,,,,,,,,,,,,,,,,down,5.163378400000511,None,space,0.3480729999864707,None,P149,001,2025-04-11_09h55.46.860,posner_endo_new1,2024.2.4,60.05674160805536,2025-04-11 09h55.53.685725 +0100,
cube_r.png,0.1,10,catch,54,54,0,down,5.296443100000033,None,None,,,,,,,,,,,0,54,54,54,1330.7335206000134,,,,,,,,,,,,,1330.7182977000048,1330.7335206000134,1330.7335206000134,1330.7335206000134,1336.045710300008,,,,1336.0532709000108,1336.0642223000032,1336.0642223000032,1336.1114350000134,1336.1116932000004,1336.1278841000021,1336.1278841000021,1336.1278841000021,1336.2113167000061,1339.1257713000086,,,,1338.2258374000085,1339.1416768000054,1339.1416768000054,1339.1416768000054,,,,,,,,,,,,,,,down,5.296443100000033,None,None,,,P149,001,2025-04-11_09h55.46.860,posner_endo_new1,2024.2.4,60.05674160805536,2025-04-11 09h55.53.685725 +0100,
cube_l.png,0.1,0.31,invalid,55,55,0,down,2.1111442999972496,None,space,0.37195970000175294,None,,,,,,,,,0,55,55,55,1339.1416768000054,,,,,,,,,,,,,1339.126052800013,1339.1416768000054,1339.1416768000054,1339.1416768000054,1341.2575098000088,,,,1341.2691845000081,1341.279563700009,1341.279563700009,1341.322981800011,1341.3233325000037,1341.339330600007,1341.339330600007,1341.339330600007,1341.4226462000079,1341.7236925000034,,,,,,,,,,,,,,,,,,,,,,down,2.1111442999972496,None,space,0.37195970000175294,None,P149,001,2025-04-11_09h55.46.860,posner_endo_new1,2024.2.4,60.05674160805536,2025-04-11 09h55.53.685725 +0100,
cube_l.png,0.1,-0.31,valid,56,56,0,down,4.7385574000072666,None,space,0.3657422999967821,None,,,,,,,,,0,56,56,56,1341.7389427000016,,,,,,,,,,,,,1341.723994,1341.7389427000016,1341.7389427000016,1341.7389427000016,1346.4854984000121,,,,1346.4971236000129,1346.5074601000088,1346.5074601000088,1346.5509365000034,1346.5512966000097,1346.5674299000093,1346.5674299000093,1346.5674299000093,1346.6506988000037,1346.9352265000052,,,,,,,,,,,,,,,,,,,,,,down,4.7385574000072666,None,space,0.3657422999967821,None,P149,001,2025-04-11_09h55.46.860,posner_endo_new1,2024.2.4,60.05674160805536,2025-04-11 09h55.53.685725 +0100,
cube_r.png,0.1,0.31,valid,57,57,0,down,5.039078999994672,None,space,0.520975500010536,None,,,,,,,,,0,57,57,57,1346.950353200009,,,,,,,,,,,,,1346.9355311000108,1346.950353200009,1346.950353200009,1346.950353200009,1351.9962578000122,,,,1352.0050925000105,1352.015055900003,1352.015055900003,1352.0619743000134,1352.062232100012,1352.0784034000098,1352.0784034000098,1352.0784034000098,1352.1617015000083,1352.6120682000037,,,,,,,,,,,,,,,,,,,,,,down,5.039078999994672,None,space,0.520975500010536,None,P149,001,2025-04-11_09h55.46.860,posner_endo_new1,2024.2.4,60.05674160805536,2025-04-11 09h55.53.685725 +0100,
cube_r.png,0.1,-0.31,invalid,58,58,0,down,4.248939800003427,None,space,0.3604286000045249,None,,,,,,,,,0,58,58,58,1352.6278726000019,,,,,,,,,,,,,1352.6122777000128,1352.6278726000019,1352.6278726000019,1352.6278726000019,1356.8917154000083,,,,1356.9089919000107,1356.9199653000105,1356.9199653000105,1356.9568438000133,1356.9571348000027,1356.9734375000116,1356.9734375000116,1356.9734375000116,1357.0565820000047,1357.3408947000135,,,,,,,,,,,,,,,,,,,,,,down,4.248939800003427,None,space,0.3604286000045249,None,P149,001,2025-04-11_09h55.46.860,posner_endo_new1,2024.2.4,60.05674160805536,2025-04-11 09h55.53.685725 +0100,
cube_l.png,0.1,0.31,invalid,59,59,0,down,4.009204399990267,None,space,0.3434770000021672,None,,,,,,,,,0,59,59,59,1357.3562398000067,,,,,,,,,,,,,1357.3411372000119,1357.3562398000067,1357.3562398000067,1357.3562398000067,1361.3699807000085,,,,1361.3789842000115,1361.389313800013,1361.389313800013,1361.4356848000025,1361.4359773000033,1361.4520794000127,1361.4520794000127,1361.4520794000127,1361.535527400003,1361.8027771000052,,,,,,,,,,,,,,,,,,,,,,down,4.009204399990267,None,space,0.3434770000021672,None,P149,001,2025-04-11_09h55.46.860,posner_endo_new1,2024.2.4,60.05674160805536,2025-04-11 09h55.53.685725 +0100,
