cue_img,cue_soa,target_y,trial,thisN,thisTrialN,thisRepN,key_control2.keys,key_control2.rt,key_control2.duration,key_resp.keys,key_resp.rt,key_resp.duration,practice.thisRepN,practice.thisTrialN,practice.thisN,practice.thisIndex,block1.thisRepN,block1.thisTrialN,block1.thisN,block1.thisIndex,block2.thisRepN,block2.thisTrialN,block2.thisN,block2.thisIndex,thisRow.t,notes,instructions.started,instructions_txt.started,key_control.started,instructions.stopped,key_control.keys,key_control.rt,key_control.duration,ready.started,ready_txt.started,ready_txt.stopped,ready.stopped,fix.started,fixation.started,key_control2.started,fixation_cross.started,fix.stopped,practice.key_control2.keys,practice.key_control2.rt,practice.key_control2.duration,cue.started,cube.started,fixation_cross_cue.started,cue.stopped,target.started,fixation_target.started,fixation_cross_target.started,key_resp.started,star.started,target.stopped,practice.key_resp.keys,practice.key_resp.rt,practice.key_resp.duration,star.stopped,fixation_target.stopped,fixation_cross_target.stopped,key_resp.stopped,block1.key_control2.keys,block1.key_control2.rt,block1.key_control2.duration,block1.key_resp.keys,block1.key_resp.rt,block1.key_resp.duration,break_2.started,text.started,key_control3.started,text.stopped,break_2.stopped,key_control3.keys,key_control3.rt,key_control3.duration,block2.key_control2.keys,block2.key_control2.rt,block2.key_control2.duration,block2.key_resp.keys,block2.key_resp.rt,block2.key_resp.duration,participant,session,date,expName,psychopyVersion,frameRate,expStart,
,,,,,,,,,,,,,,,,,,,,,,,,,,,0.007488899995223619,0.019576300008338876,0.019576300008338876,1213.4635849000042,up,1213.4263269999938,None,,,,,,,,,,,,,,,,,,,,,,,,,,,,,,,,,,,,,,,,,,,,,,,,,,P150,001,2025-04-11_10h38.22.317,posner_endo_new1,2024.2.4,59.99469646686229,2025-04-11 10h38.27.533613 +0100,
,,,,,,,,,,,,,,,,,,,,,,,,,,,,,,,,,,1213.4636388000072,1213.4762289000064,1216.481352200004,1216.4570852000033,,,,,,,,,,,,,,,,,,,,,,,,,,,,,,,,,,,,,,,,,,,,,,P150,001,2025-04-11_10h38.22.317,posner_endo_new1,2024.2.4,59.99469646686229,2025-04-11 10h38.27.533613 +0100,
cube_r.png,0.1,0.31,valid,0,0,0,up,3.3882689000020036,None,space,0.5182633000076748,None,0,0,0,7,,,,,,,,,1216.481352200004,,,,,,,,,,,,,1216.465207000001,1216.481352200004,1216.481352200004,1216.481352200004,1219.8719226999965,up,3.3882689000020036,None,1219.9046114000084,1219.9184436000069,1219.9184436000069,1219.9359284000093,1219.9362106000044,1219.9525318000087,1219.9525318000087,1219.9525318000087,1220.0362901000044,1220.4866353999969,space,0.5182633000076748,None,,,,,,,,,,,,,,,,,,,,,,,,,P150,001,2025-04-11_10h38.22.317,posner_endo_new1,2024.2.4,59.99469646686229,2025-04-11 10h38.27.533613 +0100,
cube_l.png,0.1,-0.31,valid,1,1,0,up,4.127437000002828,None,space,0.456327699997928,None,0,1,1,0,,,,,,,,,1220.502544300005,,,,,,,,,,,,,1220.486844500003,1220.502544300005,1220.502544300005,1220.502544300005,1224.6326723000093,up,4.127437000002828,None,1224.6411881999957,1224.6512176999968,1224.6512176999968,1224.6982931000093,1224.6985679000063,1224.7148696000077,1224.7148696000077,1224.7148696000077,1224.7980173999968,1225.1820131999993,space,0.456327699997928,None,,,,,,,,,,,,,,,,,,,,,,,,,P150,001,2025-04-11_10h38.22.317,posner_endo_new1,2024.2.4,59.99469646686229,2025-04-11 10h38.27.533613 +0100,
cube_l.png,0.1,-0.31,valid,2,2,0,up,4.752052299998468,None,space,0.5241969000053359,None,0,2,2,8,,,,,,,,,1225.1978213999973,,,,,,,,,,,,,1225.1822236000007,1225.1978213999973,1225.1978213999973,1225.1978213999973,1229.9604342999955,up,4.752052299998468,None,1229.968973199997,1229.9788831000042,1229.9788831000042,1230.0264171000017,1230.0269569000084,1230.042645499998,1230.042645499998,1230.042645499998,1230.1259053999966,1230.5776153000043,space,0.5241969000053359,None,,,,,,,,,,,,,,,,,,,,,,,,,P150,001,2025-04-11_10h38.22.317,posner_endo_new1,2024.2.4,59.99469646686229,2025-04-11 10h38.27.533613 +0100,
cube_r.png,0.1,0.31,valid,3,3,0,up,6.390263100009179,None,space,0.4116474000038579,None,0,3,3,10,,,,,,,,,1230.592097700006,,,,,,,,,,,,,1230.5780597999983,1230.592097700006,1230.592097700006,1230.592097700006,1236.9875773999956,up,6.390263100009179,None,1237.006175100003,1237.017734299996,1237.017734299996,1237.0523020999972,1237.0525835000008,1237.0688809999992,1237.0688809999992,1237.0688809999992,1237.1520691000042,1237.4861775000027,space,0.4116474000038579,None,,,,,,,,,,,,,,,,,,,,,,,,,P150,001,2025-04-11_10h38.22.317,posner_endo_new1,2024.2.4,59.99469646686229,2025-04-11 10h38.27.533613 +0100,
cube_l.png,0.1,0.31,invalid,4,4,0,up,5.312763699999778,None,space,0.47885269999096636,None,0,4,4,1,,,,,,,,,1237.5017571000062,,,,,,,,,,,,,1237.4863905000093,1237.5017571000062,1237.5017571000062,1237.5017571000062,1242.8305027000024,up,5.312763699999778,None,1242.8393332999985,1242.8494162999996,1242.8494162999996,1242.8963837000047,1242.8966675999982,1242.9128308000072,1242.9128308000072,1242.9128308000072,1242.9962063999992,1243.3967895000096,space,0.47885269999096636,None,,,,,,,,,,,,,,,,,,,,,,,,,P150,001,2025-04-11_10h38.22.317,posner_endo_new1,2024.2.4,59.99469646686229,2025-04-11 10h38.27.533613 +0100,
cube_l.png,0.1,0.31,invalid,5,5,0,up,7.522068799997214,None,space,0.6411802000075113,None,0,5,5,5,,,,,,,,,1243.4123407000006,,,,,,,,,,,,,1243.3970044000016,1243.4123407000006,1243.4123407000006,1243.4123407000006,1250.9388817,up,7.522068799997214,None,1250.9476632000005,1250.9576069000032,1250.9576069000032,1251.0047024000087,1251.0049819999986,1251.0213079000096,1251.0213079000096,1251.0213079000096,1251.1045221000095,1251.6713108999975,space,0.6411802000075113,None,,,,,,,,,,,,,,,,,,,,,,,,,P150,001,2025-04-11_10h38.22.317,posner_endo_new1,2024.2.4,59.99469646686229,2025-04-11 10h38.27.533613 +0100,
cube_r.png,0.1,10,catch,6,6,0,up,6.990851100010332,None,None,,,0,6,6,3,,,,,,,,,1251.6872203000094,,,,,,,,,,,,,1251.6715284000093,1251.6872203000094,1251.6872203000094,1251.6872203000094,1258.681388900004,up,6.990851100010332,None,1258.6928268000047,1258.7031169999973,1258.7031169999973,1258.7469232000003,1258.7472591999976,1258.7633010999998,1258.7633010999998,1258.7633010999998,1258.8466096000047,1261.760991999996,None,,,1260.8611208000075,1261.7769587000075,1261.7769587000075,1261.7769587000075,,,,,,,,,,,,,,,,,,,,,P150,001,2025-04-11_10h38.22.317,posner_endo_new1,2024.2.4,59.99469646686229,2025-04-11 10h38.27.533613 +0100,
cube_r.png,0.1,-0.31,invalid,7,7,0,up,0.5244761999929324,None,space,0.4483889000111958,None,0,7,7,6,,,,,,,,,1261.7769587000075,,,,,,,,,,,,,1261.7612386999972,1261.7769587000075,1261.7769587000075,1261.7769587000075,1262.3108199999988,up,0.5244761999929324,None,1262.322260800007,1262.3325375999993,1262.3325375999993,1262.3764073000057,1262.3767469000013,1262.3930316000042,1262.3930316000042,1262.3930316000042,1262.4762732999952,1262.8439744000061,space,0.4483889000111958,None,,,,,,,,,,,,,,,,,,,,,,,,,P150,001,2025-04-11_10h38.22.317,posner_endo_new1,2024.2.4,59.99469646686229,2025-04-11 10h38.27.533613 +0100,
cube_r.png,0.1,-0.31,invalid,8,8,0,up,5.795251600007759,None,space,0.3941086999984691,None,0,8,8,9,,,,,,,,,1262.8591376999975,,,,,,,,,,,,,1262.8442519999953,1262.8591376999975,1262.8591376999975,1262.8591376999975,1268.6710416999995,up,5.795251600007759,None,1268.6828295000014,1268.6927139000036,1268.6927139000036,1268.7365935999987,1268.7369311000075,1268.7531292000058,1268.7531292000058,1268.7531292000058,1268.8363941999996,1269.154137400008,space,0.3941086999984691,None,,,,,,,,,,,,,,,,,,,,,,,,,P150,001,2025-04-11_10h38.22.317,posner_endo_new1,2024.2.4,59.99469646686229,2025-04-11 10h38.27.533613 +0100,
cube_r.png,0.1,-0.31,invalid,9,9,0,up,5.25233119999757,None,space,0.39566300000296906,None,0,9,9,2,,,,,,,,,1269.1694106000068,,,,,,,,,,,,,1269.1544009000063,1269.1694106000068,1269.1694106000068,1269.1694106000068,1274.4318332999974,up,5.25233119999757,None,1274.4432475000067,1274.4535430999968,1274.4535430999968,1274.4974503999983,1274.4977960999968,1274.5139261000004,1274.5139261000004,1274.5139261000004,1274.5971289000008,1274.9147902999975,space,0.39566300000296906,None,,,,,,,,,,,,,,,,,,,,,,,,,P150,001,2025-04-11_10h38.22.317,posner_endo_new1,2024.2.4,59.99469646686229,2025-04-11 10h38.27.533613 +0100,
cube_l.png,0.1,-0.31,valid,10,10,0,up,5.644165599995176,None,space,0.4015073999908054,None,0,10,10,4,,,,,,,,,1274.9301474999957,,,,,,,,,,,,,1274.9150560999988,1274.9301474999957,1274.9301474999957,1274.9301474999957,1280.5757069999963,up,5.644165599995176,None,1280.587192699997,1280.5974304999982,1280.5974304999982,1280.6412186000089,1280.6415600000037,1280.6576769000094,1280.6576769000094,1280.6576769000094,1280.7409175000066,1281.0750361999962,space,0.4015073999908054,None,,,,,,,,,,,,,,,,,,,,,,,,,P150,001,2025-04-11_10h38.22.317,posner_endo_new1,2024.2.4,59.99469646686229,2025-04-11 10h38.27.533613 +0100,
,,,,,,,,,,,,,,,,,,,,,,,,,,,,,,,,,,1281.0752238999994,1281.090306099999,1284.1023835000087,1284.0715073000028,,,,,,,,,,,,,,,,,,,,,,,,,,,,,,,,,,,,,,,,,,,,,,P150,001,2025-04-11_10h38.22.317,posner_endo_new1,2024.2.4,59.99469646686229,2025-04-11 10h38.27.533613 +0100,
cube_l.png,0.1,10,catch,0,0,0,up,12.111252000002423,None,None,,,,,,,0,0,0,0,,,,,1284.1023835000087,,,,,,,,,,,,,1284.0931194000004,1284.1023835000087,1284.1023835000087,1284.1023835000087,1296.225745200005,,,,1296.232188000009,1296.243916899999,1296.243916899999,1296.2916703000083,1296.2918979999959,1296.3082543000055,1296.3082543000055,1296.3082543000055,1296.3746732,1299.3058179000072,,,,1298.3893784999964,1299.3218784000055,1299.3218784000055,1299.3218784000055,up,12.111252000002423,None,None,,,,,,,,,,,,,,,,,P150,001,2025-04-11_10h38.22.317,posner_endo_new1,2024.2.4,59.99469646686229,2025-04-11 10h38.27.533613 +0100,
cube_l.png,0.1,10,catch,1,1,0,up,2.987829999998212,None,None,,,,,,,0,1,1,1,,,,,1299.3218784000055,,,,,,,,,,,,,1299.3059690000082,1299.3218784000055,1299.3218784000055,1299.3218784000055,1302.3194659,,,,1302.3259132000094,1302.3376725999988,1302.3376725999988,1302.385585600001,1302.3858078000048,1302.4020354999957,1302.4020354999957,1302.4020354999957,1302.4686741000041,1305.3993966999988,,,,1304.483145300008,1305.4156011000014,1305.4156011000014,1305.4156011000014,up,2.987829999998212,None,None,,,,,,,,,,,,,,,,,P150,001,2025-04-11_10h38.22.317,posner_endo_new1,2024.2.4,59.99469646686229,2025-04-11 10h38.27.533613 +0100,
cube_l.png,0.1,0.31,invalid,2,2,0,up,3.0542990999965696,None,space,0.3866849000041839,None,,,,,0,2,2,2,,,,,1305.4156011000014,,,,,,,,,,,,,1305.3995540000033,1305.4156011000014,1305.4156011000014,1305.4156011000014,1308.479931599999,,,,1308.4863606,1308.497892200001,1308.497892200001,1308.5459025000018,1308.5461289000086,1308.5625279000087,1308.5625279000087,1308.5625279000087,1308.6289657000016,1308.9628158999985,,,,,,,,up,3.0542990999965696,None,space,0.3866849000041839,None,,,,,,,,,,,,,,,P150,001,2025-04-11_10h38.22.317,posner_endo_new1,2024.2.4,59.99469646686229,2025-04-11 10h38.27.533613 +0100,
cube_l.png,0.1,0.31,invalid,3,3,0,up,7.187630100001115,None,space,0.5052767000015592,None,,,,,0,3,3,3,,,,,1308.9786362000013,,,,,,,,,,,,,1308.9629898999992,1308.9786362000013,1308.9786362000013,1308.9786362000013,1316.1720156000083,,,,1316.178404899998,1316.189978800001,1316.189978800001,1316.238074599998,1316.2382951000036,1316.2543695000059,1316.2543695000059,1316.2543695000059,1316.3376795000077,1316.7713384999952,,,,,,,,up,7.187630100001115,None,space,0.5052767000015592,None,,,,,,,,,,,,,,,P150,001,2025-04-11_10h38.22.317,posner_endo_new1,2024.2.4,59.99469646686229,2025-04-11 10h38.27.533613 +0100,
cube_l.png,0.1,-0.31,valid,4,4,0,up,4.394933200004743,None,space,0.6205603999987943,None,,,,,0,4,4,4,,,,,1316.7874524000072,,,,,,,,,,,,,1316.7715043000062,1316.7874524000072,1316.7874524000072,1316.7874524000072,1321.1837610000075,,,,1321.1897172000026,1321.2012057999964,1321.2012057999964,1321.249652300001,1321.2498732000095,1321.2662257000047,1321.2662257000047,1321.2662257000047,1321.3326291999983,1321.899563900006,,,,,,,,up,4.394933200004743,None,space,0.6205603999987943,None,,,,,,,,,,,,,,,P150,001,2025-04-11_10h38.22.317,posner_endo_new1,2024.2.4,59.99469646686229,2025-04-11 10h38.27.533613 +0100,
cube_r.png,0.1,-0.31,invalid,5,5,0,up,5.946442399988882,None,space,0.25825159999658354,None,,,,,0,5,5,5,,,,,1321.9151788000017,,,,,,,,,,,,,1321.899731700003,1321.9151788000017,1321.9151788000017,1321.9151788000017,1327.8767122999998,,,,1327.882838400008,1327.894504099997,1327.894504099997,1327.9426179000002,1327.9428369000088,1327.9591833000013,1327.9591833000013,1327.9591833000013,1328.0424368999957,1328.226437899997,,,,,,,,up,5.946442399988882,None,space,0.25825159999658354,None,,,,,,,,,,,,,,,P150,001,2025-04-11_10h38.22.317,posner_endo_new1,2024.2.4,59.99469646686229,2025-04-11 10h38.27.533613 +0100,
cube_r.png,0.1,0.31,valid,6,6,0,up,5.1551802000030875,None,space,0.48423729999922216,None,,,,,0,6,6,6,,,,,1328.2422704000055,,,,,,,,,,,,,1328.2266047000012,1328.2422704000055,1328.2422704000055,1328.2422704000055,1333.4041471000091,,,,1333.4100579000078,1333.4214796000015,1333.4214796000015,1333.4704005999956,1333.4706279999955,1333.4869384000049,1333.4869384000049,1333.4869384000049,1333.5535169000068,1333.9869828000083,,,,,,,,up,5.1551802000030875,None,space,0.48423729999922216,None,,,,,,,,,,,,,,,P150,001,2025-04-11_10h38.22.317,posner_endo_new1,2024.2.4,59.99469646686229,2025-04-11 10h38.27.533613 +0100,
cube_r.png,0.1,-0.31,invalid,7,7,0,up,4.562389400001848,None,space,0.29693260000203736,None,,,,,0,7,7,7,,,,,1334.0030550000083,,,,,,,,,,,,,1333.9871502000024,1334.0030550000083,1334.0030550000083,1334.0030550000083,1338.5820679000026,,,,1338.5880809000082,1338.5989754000038,1338.5989754000038,1338.648124200001,1338.6485609000083,1338.664555700001,1338.664555700001,1338.664555700001,1338.7311803000048,1338.9658957000065,,,,,,,,up,4.562389400001848,None,space,0.29693260000203736,None,,,,,,,,,,,,,,,P150,001,2025-04-11_10h38.22.317,posner_endo_new1,2024.2.4,59.99469646686229,2025-04-11 10h38.27.533613 +0100,
cube_l.png,0.1,-0.31,valid,8,8,0,up,4.96095829999831,None,space,0.41606550000142306,None,,,,,0,8,8,8,,,,,1338.9812215999991,,,,,,,,,,,,,1338.9661403000064,1338.9812215999991,1338.9812215999991,1338.9812215999991,1343.944066600001,,,,1343.9537527000066,1343.9638367000007,1343.9638367000007,1344.0096013000002,1344.009904599996,1344.0260391000047,1344.0260391000047,1344.0260391000047,1344.1092878000054,1344.4434131000016,,,,,,,,up,4.96095829999831,None,space,0.41606550000142306,None,,,,,,,,,,,,,,,P150,001,2025-04-11_10h38.22.317,posner_endo_new1,2024.2.4,59.99469646686229,2025-04-11 10h38.27.533613 +0100,
cube_r.png,0.1,-0.31,invalid,9,9,0,up,4.410842700002831,None,space,0.365742300011334,None,,,,,0,9,9,9,,,,,1344.4590424000053,,,,,,,,,,,,,1344.4436629999982,1344.4590424000053,1344.4590424000053,1344.4590424000053,1348.8721764000074,,,,1348.881797199996,1348.891928099998,1348.891928099998,1348.9378480000014,1348.9381472999958,1348.954322400008,1348.954322400008,1348.954322400008,1349.0376595999987,1349.3218278999993,,,,,,,,up,4.410842700002831,None,space,0.365742300011334,None,,,,,,,,,,,,,,,P150,001,2025-04-11_10h38.22.317,posner_endo_new1,2024.2.4,59.99469646686229,2025-04-11 10h38.27.533613 +0100,
cube_l.png,0.1,0.31,invalid,10,10,0,up,5.780973399989307,None,space,0.435669800004689,None,,,,,0,10,10,10,,,,,1349.3372918000096,,,,,,,,,,,,,1349.3220761999983,1349.3372918000096,1349.3372918000096,1349.3372918000096,1355.132314900009,,,,1355.141929999998,1355.1520958000037,1355.1520958000037,1355.1981392000016,1355.198440399996,1355.2146685000043,1355.2146685000043,1355.2146685000043,1355.2978644999966,1355.6651793000055,,,,,,,,up,5.780973399989307,None,space,0.435669800004689,None,,,,,,,,,,,,,,,P150,001,2025-04-11_10h38.22.317,posner_endo_new1,2024.2.4,59.99469646686229,2025-04-11 10h38.27.533613 +0100,
cube_r.png,0.1,-0.31,invalid,11,11,0,up,5.933003800004371,None,space,0.3571974000078626,None,,,,,0,11,11,11,,,,,1355.6807983000035,,,,,,,,,,,,,1355.665430299996,1355.6807983000035,1355.6807983000035,1355.6807983000035,1361.6257713000086,,,,1361.6354678000062,1361.6457259000017,1361.6457259000017,1361.6915619000065,1361.691867200003,1361.7079865999985,1361.7079865999985,1361.7079865999985,1361.7912796000019,1362.0752782000054,,,,,,,,up,5.933003800004371,None,space,0.3571974000078626,None,,,,,,,,,,,,,,,P150,001,2025-04-11_10h38.22.317,posner_endo_new1,2024.2.4,59.99469646686229,2025-04-11 10h38.27.533613 +0100,
cube_r.png,0.1,0.31,valid,12,12,0,up,8.042611600001692,None,space,0.36040829999546986,None,,,,,0,12,12,12,,,,,1362.0909289999981,,,,,,,,,,,,,1362.0755227000045,1362.0909289999981,1362.0909289999981,1362.0909289999981,1370.150199399999,,,,1370.1572748000035,1370.1687854000047,1370.1687854000047,1370.2159858000086,1370.2162073000072,1370.2325062000018,1370.2325062000018,1370.2325062000018,1370.2990965000063,1370.5996635000047,,,,,,,,up,8.042611600001692,None,space,0.36040829999546986,None,,,,,,,,,,,,,,,P150,001,2025-04-11_10h38.22.317,posner_endo_new1,2024.2.4,59.99469646686229,2025-04-11 10h38.27.533613 +0100,
cube_l.png,0.1,10,catch,13,13,0,up,10.854068000000552,None,None,,,,,,,0,13,13,13,,,,,1370.6155618000048,,,,,,,,,,,,,1370.599829400002,1370.6155618000048,1370.6155618000048,1370.6155618000048,1381.4720597999985,,,,1381.4784307000082,1381.4900637999963,1381.4900637999963,1381.5379520999995,1381.538173000008,1381.5543684000004,1381.5543684000004,1381.5543684000004,1381.6375567000068,1384.5516902999952,,,,1383.6522736000043,1384.5680307000002,1384.5680307000002,1384.5680307000002,up,10.854068000000552,None,None,,,,,,,,,,,,,,,,,P150,001,2025-04-11_10h38.22.317,posner_endo_new1,2024.2.4,59.99469646686229,2025-04-11 10h38.27.533613 +0100,
cube_r.png,0.1,-0.31,invalid,14,14,0,up,3.031142199994065,None,space,0.46279400000639725,None,,,,,0,14,14,14,,,,,1384.5680307000002,,,,,,,,,,,,,1384.551846500006,1384.5680307000002,1384.5680307000002,1384.5680307000002,1387.6155982000055,,,,1387.6218365000095,1387.633493900008,1387.633493900008,1387.6816924000013,1387.6819133999961,1387.6980061000068,1387.6980061000068,1387.6980061000068,1387.7647266999993,1388.1650421000086,,,,,,,,up,3.031142199994065,None,space,0.46279400000639725,None,,,,,,,,,,,,,,,P150,001,2025-04-11_10h38.22.317,posner_endo_new1,2024.2.4,59.99469646686229,2025-04-11 10h38.27.533613 +0100,
cube_l.png,0.1,-0.31,valid,15,15,0,up,6.576577400002861,None,space,0.3526230999996187,None,,,,,0,15,15,15,,,,,1388.1808695000072,,,,,,,,,,,,,1388.165211600004,1388.1808695000072,1388.1808695000072,1388.1808695000072,1394.758369999996,,,,1394.764516299998,1394.7761009000096,1394.7761009000096,1394.824242600007,1394.8244634000002,1394.8407894999982,1394.8407894999982,1394.8407894999982,1394.9073661000002,1395.2078801000025,,,,,,,,up,6.576577400002861,None,space,0.3526230999996187,None,,,,,,,,,,,,,,,P150,001,2025-04-11_10h38.22.317,posner_endo_new1,2024.2.4,59.99469646686229,2025-04-11 10h38.27.533613 +0100,
cube_r.png,0.1,10,catch,16,16,0,up,3.5659150000137743,None,None,,,,,,,0,16,16,16,,,,,1395.223754999999,,,,,,,,,,,,,1395.2080455999967,1395.223754999999,1395.223754999999,1395.223754999999,1398.8041099999973,,,,1398.8103745999979,1398.8219782000087,1398.8219782000087,1398.8700839000085,1398.870305999997,1398.8864246000012,1398.8864246000012,1398.8864246000012,1398.9532011999981,1401.8842788000038,,,,1400.9679369000078,1401.9002219999966,1401.9002219999966,1401.9002219999966,up,3.5659150000137743,None,None,,,,,,,,,,,,,,,,,P150,001,2025-04-11_10h38.22.317,posner_endo_new1,2024.2.4,59.99469646686229,2025-04-11 10h38.27.533613 +0100,
cube_r.png,0.1,10,catch,17,17,0,up,2.8501286000100663,None,None,,,,,,,0,17,17,17,,,,,1401.9002219999966,,,,,,,,,,,,,1401.8844343999954,1401.9002219999966,1401.9002219999966,1401.9002219999966,1404.7647478,,,,1404.770858600008,1404.7824966000044,1404.7824966000044,1404.830784699996,1404.8310076000053,1404.8471610999986,1404.8471610999986,1404.8471610999986,1404.9138056000083,1407.8446473000076,,,,1406.928539200002,1407.8608363999956,1407.8608363999956,1407.8608363999956,up,2.8501286000100663,None,None,,,,,,,,,,,,,,,,,P150,001,2025-04-11_10h38.22.317,posner_endo_new1,2024.2.4,59.99469646686229,2025-04-11 10h38.27.533613 +0100,
cube_l.png,0.1,0.31,invalid,18,18,0,up,10.16147930000443,None,space,0.49658130000170786,None,,,,,0,18,18,18,,,,,1407.8608363999956,,,,,,,,,,,,,1407.8448041000083,1407.8608363999956,1407.8608363999956,1407.8608363999956,1418.0345946000016,,,,1418.0431668999954,1418.0534413999994,1418.0534413999994,1418.1003247000044,1418.100594500007,1418.1170055999974,1418.1170055999974,1418.1170055999974,1418.2001519000041,1418.6174984999961,,,,,,,,up,10.16147930000443,None,space,0.49658130000170786,None,,,,,,,,,,,,,,,P150,001,2025-04-11_10h38.22.317,posner_endo_new1,2024.2.4,59.99469646686229,2025-04-11 10h38.27.533613 +0100,
cube_l.png,0.1,10,catch,19,19,0,up,7.692257700007758,None,None,,,,,,,0,19,19,19,,,,,1418.633177399999,,,,,,,,,,,,,1418.6177180000086,1418.633177399999,1418.633177399999,1418.633177399999,1426.326343000008,,,,1426.3348758000066,1426.3448101999966,1426.3448101999966,1426.3920033000031,1426.3922870000097,1426.4083658000018,1426.4083658000018,1426.4083658000018,1426.4917666999972,1429.406036100001,,,,1428.5063357000035,1429.4220636999962,1429.4220636999962,1429.4220636999962,up,7.692257700007758,None,None,,,,,,,,,,,,,,,,,P150,001,2025-04-11_10h38.22.317,posner_endo_new1,2024.2.4,59.99469646686229,2025-04-11 10h38.27.533613 +0100,
cube_l.png,0.1,0.31,invalid,20,20,0,up,2.896246500007692,None,space,0.3771344999986468,None,,,,,0,20,20,20,,,,,1429.4220636999962,,,,,,,,,,,,,1429.4062390000036,1429.4220636999962,1429.4220636999962,1429.4220636999962,1432.3201092999952,,,,1432.328772000008,1432.3386632000038,1432.3386632000038,1432.3860186999955,1432.3862967000023,1432.4021957000077,1432.4021957000077,1432.4021957000077,1432.4855287999962,1432.7861156,,,,,,,,up,2.896246500007692,None,space,0.3771344999986468,None,,,,,,,,,,,,,,,P150,001,2025-04-11_10h38.22.317,posner_endo_new1,2024.2.4,59.99469646686229,2025-04-11 10h38.27.533613 +0100,
cube_l.png,0.1,-0.31,valid,21,21,0,up,6.420752999998513,None,space,0.83977180000511,None,,,,,0,21,21,21,,,,,1432.8019863000081,,,,,,,,,,,,,1432.7863417000044,1432.8019863000081,1432.8019863000081,1432.8019863000081,1439.229585100009,,,,1439.2382313999988,1439.2482554000017,1439.2482554000017,1439.2955586000026,1439.2958367999963,1439.312009500005,1439.312009500005,1439.312009500005,1439.3952101000032,1440.1620060999994,,,,,,,,up,6.420752999998513,None,space,0.83977180000511,None,,,,,,,,,,,,,,,P150,001,2025-04-11_10h38.22.317,posner_endo_new1,2024.2.4,59.99469646686229,2025-04-11 10h38.27.533613 +0100,
cube_r.png,0.1,0.31,valid,22,22,0,up,10.020085800002562,None,space,0.3847903999994742,None,,,,,0,22,22,22,,,,,1440.1776993000094,,,,,,,,,,,,,1440.162224300002,1440.1776993000094,1440.1776993000094,1440.1776993000094,1450.2016069999954,,,,1450.2103230000066,1450.2204745000054,1450.2204745000054,1450.267574700003,1450.2678497000015,1450.2839399000077,1450.2839399000077,1450.2839399000077,1450.3673630999983,1450.6844830000045,,,,,,,,up,10.020085800002562,None,space,0.3847903999994742,None,,,,,,,,,,,,,,,P150,001,2025-04-11_10h38.22.317,posner_endo_new1,2024.2.4,59.99469646686229,2025-04-11 10h38.27.533613 +0100,
cube_r.png,0.1,-0.31,invalid,23,23,0,up,4.201364499996998,None,space,0.3487941000057617,None,,,,,0,23,23,23,,,,,1450.7002924999979,,,,,,,,,,,,,1450.6847058999992,1450.7002924999979,1450.7002924999979,1450.7002924999979,1454.9134986999998,,,,1454.9219583000086,1454.9321707000054,1454.9321707000054,1454.9794268999976,1454.9797034000076,1454.9958713000087,1454.9958713000087,1454.9958713000087,1455.0792090000032,1455.346503000008,,,,,,,,up,4.201364499996998,None,space,0.3487941000057617,None,,,,,,,,,,,,,,,P150,001,2025-04-11_10h38.22.317,posner_endo_new1,2024.2.4,59.99469646686229,2025-04-11 10h38.27.533613 +0100,
cube_r.png,0.1,0.31,valid,24,24,0,up,4.516067499993369,None,space,0.3580935999925714,None,,,,,0,24,24,24,,,,,1455.3622295000096,,,,,,,,,,,,,1455.3467244000058,1455.3622295000096,1455.3622295000096,1455.3622295000096,1459.8920361000055,,,,1459.9079799000028,1459.9207902000053,1459.9207902000053,1459.9575462000066,1459.9578056000028,1459.9741213000088,1459.9741213000088,1459.9741213000088,1460.0574362000043,1460.3413316000078,,,,,,,,up,4.516067499993369,None,space,0.3580935999925714,None,,,,,,,,,,,,,,,P150,001,2025-04-11_10h38.22.317,posner_endo_new1,2024.2.4,59.99469646686229,2025-04-11 10h38.27.533613 +0100,
cube_r.png,0.1,-0.31,invalid,25,25,0,up,7.528758899992681,None,space,0.45305280000320636,None,,,,,0,25,25,25,,,,,1460.3570213000057,,,,,,,,,,,,,1460.3415326999966,1460.3570213000057,1460.3570213000057,1460.3570213000057,1467.9003227000067,,,,1467.9110279000015,1467.9209845000005,1467.9209845000005,1467.9660829000059,1467.9663854999962,1467.9826220999967,1467.9826220999967,1467.9826220999967,1468.0657313999982,1468.4497179000027,,,,,,,,up,7.528758899992681,None,space,0.45305280000320636,None,,,,,,,,,,,,,,,P150,001,2025-04-11_10h38.22.317,posner_endo_new1,2024.2.4,59.99469646686229,2025-04-11 10h38.27.533613 +0100,
cube_l.png,0.1,-0.31,valid,26,26,0,up,4.54855160000443,None,space,0.3971591999870725,None,,,,,0,26,26,26,,,,,1468.4654137000034,,,,,,,,,,,,,1468.4499641000002,1468.4654137000034,1468.4654137000034,1468.4654137000034,1473.0283292999957,,,,1473.0392059000005,1473.0491599000088,1473.0491599000088,1473.0940759000077,1473.0943769000005,1473.1106825000024,1473.1106825000024,1473.1106825000024,1473.1938717000012,1473.5115240000014,,,,,,,,up,4.54855160000443,None,space,0.3971591999870725,None,,,,,,,,,,,,,,,P150,001,2025-04-11_10h38.22.317,posner_endo_new1,2024.2.4,59.99469646686229,2025-04-11 10h38.27.533613 +0100,
cube_r.png,0.1,0.31,valid,27,27,0,up,6.375081799997133,None,space,0.3882333999936236,None,,,,,0,27,27,27,,,,,1473.5268340000039,,,,,,,,,,,,,1473.5117735999956,1473.5268340000039,1473.5268340000039,1473.5268340000039,1479.9048054000014,,,,1479.9153234999976,1479.925386700008,1479.925386700008,1479.9704932000022,1479.9707943999965,1479.986730100005,1479.986730100005,1479.986730100005,1480.0701485000027,1480.3875747999991,,,,,,,,up,6.375081799997133,None,space,0.3882333999936236,None,,,,,,,,,,,,,,,P150,001,2025-04-11_10h38.22.317,posner_endo_new1,2024.2.4,59.99469646686229,2025-04-11 10h38.27.533613 +0100,
cube_r.png,0.1,10,catch,28,28,0,up,5.79452759999549,None,None,,,,,,,0,28,28,28,,,,,1480.4032473999978,,,,,,,,,,,,,1480.3878237000026,1480.4032473999978,1480.4032473999978,1480.4032473999978,1486.1987802000076,,,,1486.2091340000043,1486.2191049999965,1486.2191049999965,1486.2639445000095,1486.2642461000069,1486.2804925999953,1486.2804925999953,1486.2804925999953,1486.3636853000062,1489.278157599998,,,,1488.3784132,1489.2942216000083,1489.2942216000083,1489.2942216000083,up,5.79452759999549,None,None,,,,,,,,,,,,,,,,,P150,001,2025-04-11_10h38.22.317,posner_endo_new1,2024.2.4,59.99469646686229,2025-04-11 10h38.27.533613 +0100,
cube_r.png,0.1,0.31,valid,29,29,0,up,17.720052899996517,None,space,0.3101827999926172,None,,,,,0,29,29,29,,,,,1489.2942216000083,,,,,,,,,,,,,1489.2783829999971,1489.2942216000083,1489.2942216000083,1489.2942216000083,1507.0269811000035,,,,1507.036943900006,1507.0470529000013,1507.0470529000013,1507.0927175999968,1507.0930255999992,1507.1092176000093,1507.1092176000093,1507.1092176000093,1507.1924995000008,1507.426415199996,,,,,,,,up,17.720052899996517,None,space,0.3101827999926172,None,,,,,,,,,,,,,,,P150,001,2025-04-11_10h38.22.317,posner_endo_new1,2024.2.4,59.99469646686229,2025-04-11 10h38.27.533613 +0100,
cube_r.png,0.1,0.31,valid,30,30,0,up,4.619308699999237,None,space,0.4041548000095645,None,,,,,0,30,30,30,,,,,1507.4421161000064,,,,,,,,,,,,,1507.4266616999957,1507.4421161000064,1507.4421161000064,1507.4421161000064,1512.0717520000035,,,,1512.0816992000036,1512.0916852000082,1512.0916852000082,1512.1374887999991,1512.1377872000012,1512.1540907000017,1512.1540907000017,1512.1540907000017,1512.2372462000058,1512.5712359000026,,,,,,,,up,4.619308699999237,None,space,0.4041548000095645,None,,,,,,,,,,,,,,,P150,001,2025-04-11_10h38.22.317,posner_endo_new1,2024.2.4,59.99469646686229,2025-04-11 10h38.27.533613 +0100,
cube_l.png,0.1,-0.31,valid,31,31,0,up,14.162781299994094,None,space,0.3686067999951774,None,,,,,0,31,31,31,,,,,1512.586912800005,,,,,,,,,,,,,1512.571481699997,1512.586912800005,1512.586912800005,1512.586912800005,1526.7566738000023,,,,1526.7666016000003,1526.776692200001,1526.776692200001,1526.8224861000053,1526.822798100009,1526.838962599999,1526.838962599999,1526.838962599999,1526.9055137999967,1527.222945100002,,,,,,,,up,14.162781299994094,None,space,0.3686067999951774,None,,,,,,,,,,,,,,,P150,001,2025-04-11_10h38.22.317,posner_endo_new1,2024.2.4,59.99469646686229,2025-04-11 10h38.27.533613 +0100,
cube_r.png,0.1,0.31,valid,32,32,0,up,17.51971209999465,None,space,0.4325352000014391,None,,,,,0,32,32,32,,,,,1527.238505900008,,,,,,,,,,,,,1527.2231923000072,1527.238505900008,1527.238505900008,1527.238505900008,1544.7717551000096,,,,1544.7817096000072,1544.7919427000015,1544.7919427000015,1544.8372683000052,1544.8375792000006,1544.8538960000005,1544.8538960000005,1544.8538960000005,1544.9370966999995,1545.287808699999,,,,,,,,up,17.51971209999465,None,space,0.4325352000014391,None,,,,,,,,,,,,,,,P150,001,2025-04-11_10h38.22.317,posner_endo_new1,2024.2.4,59.99469646686229,2025-04-11 10h38.27.533613 +0100,
cube_r.png,0.1,-0.31,invalid,33,33,0,up,5.055710599990562,None,space,0.42734359999303706,None,,,,,0,33,33,33,,,,,1545.3034415000002,,,,,,,,,,,,,1545.2880533999996,1545.3034415000002,1545.3034415000002,1545.3034415000002,1550.3659444000077,,,,1550.3757485999959,1550.3860813000065,1550.3860813000065,1550.4315983999986,1550.4319015000074,1550.4481070000038,1550.4481070000038,1550.4481070000038,1550.5314827999973,1550.8824967999972,,,,,,,,up,5.055710599990562,None,space,0.42734359999303706,None,,,,,,,,,,,,,,,P150,001,2025-04-11_10h38.22.317,posner_endo_new1,2024.2.4,59.99469646686229,2025-04-11 10h38.27.533613 +0100,
cube_r.png,0.1,10,catch,34,34,0,up,6.171780399992713,None,None,,,,,,,0,34,34,34,,,,,1550.8976502000005,,,,,,,,,,,,,1550.8827422000031,1550.8976502000005,1550.8976502000005,1550.8976502000005,1557.0757505000074,,,,1557.0852929999965,1557.0950783000008,1557.0950783000008,1557.1415167000087,1557.1417426999978,1557.1580935000093,1557.1580935000093,1557.1580935000093,1557.241303600007,1560.1552996999962,,,,1559.2558159000037,1560.1716283999995,1560.1716283999995,1560.1716283999995,up,6.171780399992713,None,None,,,,,,,,,,,,,,,,,P150,001,2025-04-11_10h38.22.317,posner_endo_new1,2024.2.4,59.99469646686229,2025-04-11 10h38.27.533613 +0100,
cube_r.png,0.1,0.31,valid,35,35,0,up,1.834350999997696,None,space,0.4510195999901043,None,,,,,0,35,35,35,,,,,1560.1716283999995,,,,,,,,,,,,,1560.1554561000085,1560.1716283999995,1560.1716283999995,1560.1716283999995,1562.0205488000065,,,,1562.026580100006,1562.0382371000014,1562.0382371000014,1562.0864192000008,1562.0866396000056,1562.1029940000008,1562.1029940000008,1562.1029940000008,1562.186146699998,1562.5697711999965,,,,,,,,up,1.834350999997696,None,space,0.4510195999901043,None,,,,,,,,,,,,,,,P150,001,2025-04-11_10h38.22.317,posner_endo_new1,2024.2.4,59.99469646686229,2025-04-11 10h38.27.533613 +0100,
cube_r.png,0.1,-0.31,invalid,36,36,0,up,4.971667399993748,None,space,0.4236025999998674,None,,,,,0,36,36,36,,,,,1562.5857836000068,,,,,,,,,,,,,1562.5699374999967,1562.5857836000068,1562.5857836000068,1562.5857836000068,1567.5649846000015,,,,1567.5708975000016,1567.582528800005,1567.582528800005,1567.6307407999993,1567.6309692000068,1567.6473600000027,1567.6473600000027,1567.6473600000027,1567.730411299999,1568.0806852999958,,,,,,,,up,4.971667399993748,None,space,0.4236025999998674,None,,,,,,,,,,,,,,,P150,001,2025-04-11_10h38.22.317,posner_endo_new1,2024.2.4,59.99469646686229,2025-04-11 10h38.27.533613 +0100,
cube_l.png,0.1,0.31,invalid,37,37,0,up,5.692683300003409,None,space,0.3700146000046516,None,,,,,0,37,37,37,,,,,1568.0969429999968,,,,,,,,,,,,,1568.0808590000088,1568.0969429999968,1568.0969429999968,1568.0969429999968,1573.791754100006,,,,1573.797832700002,1573.8094332000037,1573.8094332000037,1573.8576866000076,1573.8579066000093,1573.874138500003,1573.874138500003,1573.874138500003,1573.940795900009,1574.2578623000009,,,,,,,,up,5.692683300003409,None,space,0.3700146000046516,None,,,,,,,,,,,,,,,P150,001,2025-04-11_10h38.22.317,posner_endo_new1,2024.2.4,59.99469646686229,2025-04-11 10h38.27.533613 +0100,
cube_l.png,0.1,0.31,invalid,38,38,0,up,5.50145799999882,None,space,0.3102775000006659,None,,,,,0,38,38,38,,,,,1574.2738876000076,,,,,,,,,,,,,1574.258029100005,1574.2738876000076,1574.2738876000076,1574.2738876000076,1579.7854226000054,,,,1579.7914591000008,1579.8028814999998,1579.8028814999998,1579.851562099997,1579.851782400001,1579.8681649000064,1579.8681649000064,1579.8681649000064,1579.934623699999,1580.1851254000067,,,,,,,,up,5.50145799999882,None,space,0.3102775000006659,None,,,,,,,,,,,,,,,P150,001,2025-04-11_10h38.22.317,posner_endo_new1,2024.2.4,59.99469646686229,2025-04-11 10h38.27.533613 +0100,
cube_r.png,0.1,0.31,valid,39,39,0,up,6.8682768999860855,None,space,0.3570719999988796,None,,,,,0,39,39,39,,,,,1580.201118500001,,,,,,,,,,,,,1580.1852923999977,1580.201118500001,1580.201118500001,1580.201118500001,1587.0782376999996,,,,1587.0842182000051,1587.095849300007,1587.095849300007,1587.1441111000022,1587.1443317000085,1587.1606145999976,1587.1606145999976,1587.1606145999976,1587.227089699998,1587.5275540000002,,,,,,,,up,6.8682768999860855,None,space,0.3570719999988796,None,,,,,,,,,,,,,,,P150,001,2025-04-11_10h38.22.317,posner_endo_new1,2024.2.4,59.99469646686229,2025-04-11 10h38.27.533613 +0100,
cube_l.png,0.1,0.31,invalid,40,40,0,up,5.846028899992234,None,space,0.3798090000054799,None,,,,,0,40,40,40,,,,,1587.5434345999965,,,,,,,,,,,,,1587.5277201999997,1587.5434345999965,1587.5434345999965,1587.5434345999965,1593.4050549000094,,,,1593.411081600003,1593.4226331999962,1593.4226331999962,1593.4710564999987,1593.4712786000018,1593.487540400005,1593.487540400005,1593.487540400005,1593.5540249000042,1593.8710342999984,,,,,,,,up,5.846028899992234,None,space,0.3798090000054799,None,,,,,,,,,,,,,,,P150,001,2025-04-11_10h38.22.317,posner_endo_new1,2024.2.4,59.99469646686229,2025-04-11 10h38.27.533613 +0100,
cube_l.png,0.1,10,catch,41,41,0,up,6.078683400002774,None,None,,,,,,,0,41,41,41,,,,,1593.887111300006,,,,,,,,,,,,,1593.8712002999964,1593.887111300006,1593.887111300006,1593.887111300006,1599.9815875000058,,,,1599.9876000000077,1599.9991084000067,1599.9991084000067,1600.047565700006,1600.0477960999997,1600.063973700002,1600.063973700002,1600.063973700002,1600.1307522999996,1603.0615247999958,,,,1602.1451964000007,1603.0777593000093,1603.0777593000093,1603.0777593000093,up,6.078683400002774,None,None,,,,,,,,,,,,,,,,,P150,001,2025-04-11_10h38.22.317,posner_endo_new1,2024.2.4,59.99469646686229,2025-04-11 10h38.27.533613 +0100,
cube_l.png,0.1,-0.31,valid,42,42,0,up,3.2560517999954754,None,space,0.39602250000461936,None,,,,,0,42,42,42,,,,,1603.0777593000093,,,,,,,,,,,,,1603.061686800007,1603.0777593000093,1603.0777593000093,1603.0777593000093,1606.341650500006,,,,1606.3477834000078,1606.3593613999983,1606.3593613999983,1606.407839300009,1606.4080676000012,1606.4242475000065,1606.4242475000065,1606.4242475000065,1606.4909163999982,1606.824646299996,,,,,,,,up,3.2560517999954754,None,space,0.39602250000461936,None,,,,,,,,,,,,,,,P150,001,2025-04-11_10h38.22.317,posner_endo_new1,2024.2.4,59.99469646686229,2025-04-11 10h38.27.533613 +0100,
cube_l.png,0.1,10,catch,43,43,0,up,4.941258999999263,None,None,,,,,,,0,43,43,43,,,,,1606.8404568999977,,,,,,,,,,,,,1606.8248166999983,1606.8404568999977,1606.8404568999977,1606.8404568999977,1611.7863348999963,,,,1611.7924004000088,1611.8041564000014,1611.8041564000014,1611.8519071000046,1611.8523400999984,1611.8683675000066,1611.8683675000066,1611.8683675000066,1611.9516058000008,1614.8662686000025,,,,1613.966530500009,1614.8825210000068,1614.8825210000068,1614.8825210000068,up,4.941258999999263,None,None,,,,,,,,,,,,,,,,,P150,001,2025-04-11_10h38.22.317,posner_endo_new1,2024.2.4,59.99469646686229,2025-04-11 10h38.27.533613 +0100,
cube_l.png,0.1,0.31,invalid,44,44,0,up,2.4592980000015814,None,space,0.49717629999213386,None,,,,,0,44,44,44,,,,,1614.8825210000068,,,,,,,,,,,,,1614.8665019000036,1614.8825210000068,1614.8825210000068,1614.8825210000068,1617.347495000009,,,,1617.357226799999,1617.3673847000027,1617.3673847000027,1617.4131228000042,1617.413422800004,1617.4296988999995,1617.4296988999995,1617.4296988999995,1617.512791800007,1617.9303330999974,,,,,,,,up,2.4592980000015814,None,space,0.49717629999213386,None,,,,,,,,,,,,,,,P150,001,2025-04-11_10h38.22.317,posner_endo_new1,2024.2.4,59.99469646686229,2025-04-11 10h38.27.533613 +0100,
cube_l.png,0.1,0.31,invalid,45,45,0,up,5.108371499998611,None,space,0.5637481000012485,None,,,,,0,45,45,45,,,,,1617.9458059000026,,,,,,,,,,,,,1617.9305787000048,1617.9458059000026,1617.9458059000026,1617.9458059000026,1623.0583213000064,,,,1623.0680226999975,1623.0780812000012,1623.0780812000012,1623.123972100002,1623.124280700009,1623.1404599000089,1623.1404599000089,1623.1404599000089,1623.2237894999998,1623.7076644000044,,,,,,,,up,5.108371499998611,None,space,0.5637481000012485,None,,,,,,,,,,,,,,,P150,001,2025-04-11_10h38.22.317,posner_endo_new1,2024.2.4,59.99469646686229,2025-04-11 10h38.27.533613 +0100,
cube_r.png,0.1,0.31,valid,46,46,0,up,5.242718399997102,None,space,0.5504774000000907,None,,,,,0,46,46,46,,,,,1623.7230742999964,,,,,,,,,,,,,1623.7079066000006,1623.7230742999964,1623.7230742999964,1623.7230742999964,1628.968856499996,,,,1628.9785268999985,1628.9887069999968,1628.9887069999968,1629.0345699000027,1629.0348752999998,1629.0510421000072,1629.0510421000072,1629.0510421000072,1629.1343319000007,1629.618262700009,,,,,,,,up,5.242718399997102,None,space,0.5504774000000907,None,,,,,,,,,,,,,,,P150,001,2025-04-11_10h38.22.317,posner_endo_new1,2024.2.4,59.99469646686229,2025-04-11 10h38.27.533613 +0100,
cube_l.png,0.1,-0.31,valid,47,47,0,up,4.4520021000062115,None,space,0.3706328999978723,None,,,,,0,47,47,47,,,,,1629.6338942000002,,,,,,,,,,,,,1629.618509100008,1629.6338942000002,1629.6338942000002,1629.6338942000002,1634.0968727,,,,1634.1065552000073,1634.1167929000076,1634.1167929000076,1634.1626763000095,1634.1629931000061,1634.1792454000097,1634.1792454000097,1634.1792454000097,1634.2624682000023,1634.5631341999979,,,,,,,,up,4.4520021000062115,None,space,0.3706328999978723,None,,,,,,,,,,,,,,,P150,001,2025-04-11_10h38.22.317,posner_endo_new1,2024.2.4,59.99469646686229,2025-04-11 10h38.27.533613 +0100,
cube_r.png,0.1,-0.31,invalid,48,48,0,up,5.15564149999409,None,space,0.4049035000061849,None,,,,,0,48,48,48,,,,,1634.5787283999962,,,,,,,,,,,,,1634.5633756000025,1634.5787283999962,1634.5787283999962,1634.5787283999962,1639.7411469000072,,,,1639.7507636000082,1639.7609153000085,1639.7609153000085,1639.8069436000078,1639.8072500999988,1639.8234689000092,1639.8234689000092,1639.8234689000092,1639.906643800001,1640.2407003999979,,,,,,,,up,5.15564149999409,None,space,0.4049035000061849,None,,,,,,,,,,,,,,,P150,001,2025-04-11_10h38.22.317,posner_endo_new1,2024.2.4,59.99469646686229,2025-04-11 10h38.27.533613 +0100,
cube_r.png,0.1,10,catch,49,49,0,up,6.070147599995835,None,None,,,,,,,0,49,49,49,,,,,1640.2563147000037,,,,,,,,,,,,,1640.240941600001,1640.2563147000037,1640.2563147000037,1640.2563147000037,1646.3343623999972,,,,1646.344138600005,1646.3543322000041,1646.3543322000041,1646.4001911000087,1646.400497900002,1646.4166470000055,1646.4166470000055,1646.4166470000055,1646.4999812000024,1649.4141831000015,,,,1648.5144941000035,1649.430218399997,1649.430218399997,1649.430218399997,up,6.070147599995835,None,None,,,,,,,,,,,,,,,,,P150,001,2025-04-11_10h38.22.317,posner_endo_new1,2024.2.4,59.99469646686229,2025-04-11 10h38.27.533613 +0100,
cube_l.png,0.1,-0.31,valid,50,50,0,up,3.0472927000082564,None,space,0.40320849999261554,None,,,,,0,50,50,50,,,,,1649.430218399997,,,,,,,,,,,,,1649.4144093000068,1649.430218399997,1649.430218399997,1649.430218399997,1652.4785679000051,,,,1652.4887829000072,1652.4987839999958,1652.4987839999958,1652.5438264999975,1652.5441277000064,1652.5603769000008,1652.5603769000008,1652.5603769000008,1652.6435390999977,1652.9776286999986,,,,,,,,up,3.0472927000082564,None,space,0.40320849999261554,None,,,,,,,,,,,,,,,P150,001,2025-04-11_10h38.22.317,posner_endo_new1,2024.2.4,59.99469646686229,2025-04-11 10h38.27.533613 +0100,
cube_l.png,0.1,-0.31,valid,51,51,0,up,10.877332200005185,None,space,0.39727859999402426,None,,,,,0,51,51,51,,,,,1652.993240099997,,,,,,,,,,,,,1652.9778749999969,1652.993240099997,1652.993240099997,1652.993240099997,1663.8834859000053,,,,1663.8933934000088,1663.9035737000086,1663.9035737000086,1663.9488561000035,1663.949156600007,1663.9653397000075,1663.9653397000075,1663.9653397000075,1664.0485664000007,1664.3660209000082,,,,,,,,up,10.877332200005185,None,space,0.39727859999402426,None,,,,,,,,,,,,,,,P150,001,2025-04-11_10h38.22.317,posner_endo_new1,2024.2.4,59.99469646686229,2025-04-11 10h38.27.533613 +0100,
cube_r.png,0.1,-0.31,invalid,52,52,0,up,6.176304099994013,None,space,0.45152439999219496,None,,,,,0,52,52,52,,,,,1664.3819880000083,,,,,,,,,,,,,1664.366265500008,1664.3819880000083,1664.3819880000083,1664.3819880000083,1670.5596454000042,,,,1670.5693834999984,1670.5795440000074,1670.5795440000074,1670.625251400008,1670.625554600003,1670.6418861999991,1670.6418861999991,1670.6418861999991,1670.7250081999955,1671.1091098000034,,,,,,,,up,6.176304099994013,None,space,0.45152439999219496,None,,,,,,,,,,,,,,,P150,001,2025-04-11_10h38.22.317,posner_endo_new1,2024.2.4,59.99469646686229,2025-04-11 10h38.27.533613 +0100,
cube_l.png,0.1,-0.31,valid,53,53,0,up,5.52887149999151,None,space,0.41338070000347216,None,,,,,0,53,53,53,,,,,1671.1246667000087,,,,,,,,,,,,,1671.1093569000077,1671.1246667000087,1671.1246667000087,1671.1246667000087,1676.6700836999953,,,,1676.6797985000012,1676.6896564000053,1676.6896564000053,1676.7357428999967,1676.7360550000012,1676.7522589,1676.7522589,1676.7522589,1676.8354151999956,1677.1698242999992,,,,,,,,up,5.52887149999151,None,space,0.41338070000347216,None,,,,,,,,,,,,,,,P150,001,2025-04-11_10h38.22.317,posner_endo_new1,2024.2.4,59.99469646686229,2025-04-11 10h38.27.533613 +0100,
cube_r.png,0.1,10,catch,54,54,0,up,5.804885400008061,None,None,,,,,,,0,54,54,54,,,,,1677.1852928000008,,,,,,,,,,,,,1677.1700746999995,1677.1852928000008,1677.1852928000008,1677.1852928000008,1682.9970291000063,,,,1683.006799900002,1683.0166910999978,1683.0166910999978,1683.0625914999982,1683.0628945000062,1683.0791562000086,1683.0791562000086,1683.0791562000086,1683.1623132000095,1686.0766376999964,,,,1685.1770386999997,1686.0927372000006,1686.0927372000006,1686.0927372000006,up,5.804885400008061,None,None,,,,,,,,,,,,,,,,,P150,001,2025-04-11_10h38.22.317,posner_endo_new1,2024.2.4,59.99469646686229,2025-04-11 10h38.27.533613 +0100,
cube_l.png,0.1,0.31,invalid,55,55,0,up,1.5211447000037879,None,space,0.4692266999918502,None,,,,,0,55,55,55,,,,,1686.0927372000006,,,,,,,,,,,,,1686.076882399997,1686.0927372000006,1686.0927372000006,1686.0927372000006,1687.6256100000028,,,,1687.6354552999983,1687.645534700001,1687.645534700001,1687.6911155999987,1687.6914186000067,1687.7076927000016,1687.7076927000016,1687.7076927000016,1687.7909475000051,1688.1916222,,,,,,,,up,1.5211447000037879,None,space,0.4692266999918502,None,,,,,,,,,,,,,,,P150,001,2025-04-11_10h38.22.317,posner_endo_new1,2024.2.4,59.99469646686229,2025-04-11 10h38.27.533613 +0100,
cube_l.png,0.1,-0.31,valid,56,56,0,up,5.383275200001663,None,space,0.4679094000020996,None,,,,,0,56,56,56,,,,,1688.207124499997,,,,,,,,,,,,,1688.191865700006,1688.207124499997,1688.207124499997,1688.207124499997,1693.6028860000079,,,,1693.6125765000033,1693.6226307000034,1693.6226307000034,1693.6684277000022,1693.6687335000024,1693.6849096000078,1693.6849096000078,1693.6849096000078,1693.768247800006,1694.1687967000034,,,,,,,,up,5.383275200001663,None,space,0.4679094000020996,None,,,,,,,,,,,,,,,P150,001,2025-04-11_10h38.22.317,posner_endo_new1,2024.2.4,59.99469646686229,2025-04-11 10h38.27.533613 +0100,
cube_r.png,0.1,0.31,valid,57,57,0,up,6.189081299991813,None,space,0.3251915000000736,None,,,,,0,57,57,57,,,,,1694.184494000001,,,,,,,,,,,,,1694.1690364000096,1694.184494000001,1694.184494000001,1694.184494000001,1700.379221700001,,,,1700.3889834000001,1700.3991126000037,1700.3991126000037,1700.4448952999956,1700.4451961000013,1700.4612939000071,1700.4612939000071,1700.4612939000071,1700.5445248000033,1700.795459800007,,,,,,,,up,6.189081299991813,None,space,0.3251915000000736,None,,,,,,,,,,,,,,,P150,001,2025-04-11_10h38.22.317,posner_endo_new1,2024.2.4,59.99469646686229,2025-04-11 10h38.27.533613 +0100,
cube_r.png,0.1,-0.31,invalid,58,58,0,up,5.923073799989652,None,space,0.3774906999897212,None,,,,,0,58,58,58,,,,,1700.8109777000063,,,,,,,,,,,,,1700.7957014999993,1700.8109777000063,1700.8109777000063,1700.8109777000063,1706.7394231000071,,,,1706.7491481000034,1706.7593269000063,1706.7593269000063,1706.8049560000072,1706.805261600006,1706.8215369999962,1706.8215369999962,1706.8215369999962,1706.9047508000076,1707.2054519000085,,,,,,,,up,5.923073799989652,None,space,0.3774906999897212,None,,,,,,,,,,,,,,,P150,001,2025-04-11_10h38.22.317,posner_endo_new1,2024.2.4,59.99469646686229,2025-04-11 10h38.27.533613 +0100,
cube_l.png,0.1,0.31,invalid,59,59,0,up,5.736661000002641,None,space,0.3940327000018442,None,,,,,0,59,59,59,,,,,1707.220953600001,,,,,,,,,,,,,1707.2056941000046,1707.220953600001,1707.220953600001,1707.220953600001,1712.9661649000045,,,,1712.9758505000063,1712.9858678000019,1712.9858678000019,1713.0319681999972,1713.0322826000047,1713.048417900005,1713.048417900005,1713.048417900005,1713.1318123999954,1713.449163199999,,,,,,,,up,5.736661000002641,None,space,0.3940327000018442,None,,,,,,,,,,,,,,,P150,001,2025-04-11_10h38.22.317,posner_endo_new1,2024.2.4,59.99469646686229,2025-04-11 10h38.27.533613 +0100,
,,,,,,,,,,,,,,,,,,,,,,,,,,,,,,,,,,,,,,,,,,,,,,,,,,,,,,,,,,,,,,,,,,,,,1713.4493232999957,1713.4646520000097,1713.4646520000097,1773.469909899999,1775.7184592999984,space,62.2368015999964,None,,,,,,,P150,001,2025-04-11_10h38.22.317,posner_endo_new1,2024.2.4,59.99469646686229,2025-04-11 10h38.27.533613 +0100,
,,,,,,,,,,,,,,,,,,,,,,,,,,,,,,,,,,1775.7185169000004,1775.7346827000001,1778.817133500008,1778.715013100009,,,,,,,,,,,,,,,,,,,,,,,,,,,,,,,,,,,,,,,,,,,,,,P150,001,2025-04-11_10h38.22.317,posner_endo_new1,2024.2.4,59.99469646686229,2025-04-11 10h38.27.533613 +0100,
cube_l.png,0.1,10,catch,0,0,0,down,6.7566551999916555,None,None,,,,,,,,,,,0,0,0,0,1778.817133500008,,,,,,,,,,,,,1778.8088342999981,1778.817133500008,1778.817133500008,1778.817133500008,1785.5753349000006,,,,1785.5823673999985,1785.5941161000083,1785.5941161000083,1785.641115899998,1785.6413519000052,1785.657496300002,1785.657496300002,1785.657496300002,1785.740902999998,1788.655020899998,,,,1787.7554842999962,1788.6712482000003,1788.6712482000003,1788.6712482000003,,,,,,,,,,,,,,,down,6.7566551999916555,None,None,,,P150,001,2025-04-11_10h38.22.317,posner_endo_new1,2024.2.4,59.99469646686229,2025-04-11 10h38.27.533613 +0100,
cube_l.png,0.1,10,catch,1,1,0,down,4.678434000001289,None,None,,,,,,,,,,,0,1,1,1,1788.6712482000003,,,,,,,,,,,,,1788.655187299999,1788.6712482000003,1788.6712482000003,1788.6712482000003,1793.3505123000068,,,,1793.3573223999992,1793.3692411000084,1793.3692411000084,1793.416377200003,1793.4166062000004,1793.4328555999964,1793.4328555999964,1793.4328555999964,1793.4995868999977,1796.430267200005,,,,1795.5140205000062,1796.4466564000031,1796.4466564000031,1796.4466564000031,,,,,,,,,,,,,,,down,4.678434000001289,None,None,,,P150,001,2025-04-11_10h38.22.317,posner_endo_new1,2024.2.4,59.99469646686229,2025-04-11 10h38.27.533613 +0100,
cube_l.png,0.1,0.31,invalid,2,2,0,down,2.5835275999997975,None,space,0.4679090999998152,None,,,,,,,,,0,2,2,2,1796.4466564000031,,,,,,,,,,,,,1796.430426100007,1796.4466564000031,1796.4466564000031,1796.4466564000031,1799.044462699996,,,,1799.0504578999971,1799.0621575999976,1799.0621575999976,1799.1106870000076,1799.1109078000009,1799.127077199999,1799.127077199999,1799.127077199999,1799.193750300008,1799.6106387000036,,,,,,,,,,,,,,,,,,,,,,down,2.5835275999997975,None,space,0.4679090999998152,None,P150,001,2025-04-11_10h38.22.317,posner_endo_new1,2024.2.4,59.99469646686229,2025-04-11 10h38.27.533613 +0100,
cube_l.png,0.1,0.31,invalid,3,3,0,down,5.044345700007398,None,space,0.39138839999213815,None,,,,,,,,,0,3,3,3,1799.6265720000083,,,,,,,,,,,,,1799.6108081999992,1799.6265720000083,1799.6265720000083,1799.6265720000083,1804.6727223000053,,,,1804.6842270000052,1804.6945512999955,1804.6945512999955,1804.738277700002,1804.738620700009,1804.7546031000093,1804.7546031000093,1804.7546031000093,1804.8379049000068,1805.1554000000033,,,,,,,,,,,,,,,,,,,,,,down,5.044345700007398,None,space,0.39138839999213815,None,P150,001,2025-04-11_10h38.22.317,posner_endo_new1,2024.2.4,59.99469646686229,2025-04-11 10h38.27.533613 +0100,
cube_l.png,0.1,-0.31,valid,4,4,0,down,6.659535300001153,None,space,0.43049809998774435,None,,,,,,,,,0,4,4,4,1805.170913199996,,,,,,,,,,,,,1805.1556863000005,1805.170913199996,1805.170913199996,1805.170913199996,1811.8319907999976,,,,1811.8436796000024,1811.8539521000057,1811.8539521000057,1811.8975590000045,1811.8978054000036,1811.9141302000062,1811.9141302000062,1811.9141302000062,1811.997247899999,1812.347642000008,,,,,,,,,,,,,,,,,,,,,,down,6.659535300001153,None,space,0.43049809998774435,None,P150,001,2025-04-11_10h38.22.317,posner_endo_new1,2024.2.4,59.99469646686229,2025-04-11 10h38.27.533613 +0100,
cube_r.png,0.1,-0.31,invalid,5,5,0,down,6.426343499988434,None,space,0.4340641000017058,None,,,,,,,,,0,5,5,5,1812.3634858000005,,,,,,,,,,,,,1812.3478360000008,1812.3634858000005,1812.3634858000005,1812.3634858000005,1818.791464199996,,,,1818.798858299997,1818.809911999997,1818.809911999997,1818.8569764999993,1818.8572200000053,1818.8735232000035,1818.8735232000035,1818.8735232000035,1818.9568662000092,1819.3238980000024,,,,,,,,,,,,,,,,,,,,,,down,6.426343499988434,None,space,0.4340641000017058,None,P150,001,2025-04-11_10h38.22.317,posner_endo_new1,2024.2.4,59.99469646686229,2025-04-11 10h38.27.533613 +0100,
cube_r.png,0.1,0.31,valid,6,6,0,down,12.410229200002505,None,space,0.3153036999865435,None,,,,,,,,,0,6,6,6,1819.3396711999958,,,,,,,,,,,,,1819.3240917000076,1819.3396711999958,1819.3396711999958,1819.3396711999958,1831.7609460999956,,,,1831.7683830000024,1831.7801484000083,1831.7801484000083,1831.8270570000022,1831.8273055000027,1831.8435871999973,1831.8435871999973,1831.8435871999973,1831.910267500003,1832.1608926000044,,,,,,,,,,,,,,,,,,,,,,down,12.410229200002505,None,space,0.3153036999865435,None,P150,001,2025-04-11_10h38.22.317,posner_endo_new1,2024.2.4,59.99469646686229,2025-04-11 10h38.27.533613 +0100,
cube_r.png,0.1,-0.31,invalid,7,7,0,down,5.941070700006094,None,space,0.4346185000031255,None,,,,,,,,,0,7,7,7,1832.1767333000025,,,,,,,,,,,,,1832.1610961999977,1832.1767333000025,1832.1767333000025,1832.1767333000025,1838.1214926999965,,,,1838.1288933000033,1838.140112100009,1838.140112100009,1838.1872915999993,1838.1875396999967,1838.2037939000002,1838.2037939000002,1838.2037939000002,1838.2870743999956,1838.654089100004,,,,,,,,,,,,,,,,,,,,,,down,5.941070700006094,None,space,0.4346185000031255,None,P150,001,2025-04-11_10h38.22.317,posner_endo_new1,2024.2.4,59.99469646686229,2025-04-11 10h38.27.533613 +0100,
cube_l.png,0.1,-0.31,valid,8,8,0,down,6.839577500009909,None,space,0.42012789999716915,None,,,,,,,,,0,8,8,8,1838.6700834000076,,,,,,,,,,,,,1838.6542822000047,1838.6700834000076,1838.6700834000076,1838.6700834000076,1845.5138718999951,,,,1845.5198641000025,1845.5315436000092,1845.5315436000092,1845.5797025000065,1845.5799239000044,1845.5962813000078,1845.5962813000078,1845.5962813000078,1845.6795155,1846.0299686000071,,,,,,,,,,,,,,,,,,,,,,down,6.839577500009909,None,space,0.42012789999716915,None,P150,001,2025-04-11_10h38.22.317,posner_endo_new1,2024.2.4,59.99469646686229,2025-04-11 10h38.27.533613 +0100,
cube_r.png,0.1,-0.31,invalid,9,9,0,down,6.816076899995096,None,space,0.43483180001203436,None,,,,,,,,,0,9,9,9,1846.0458519000094,,,,,,,,,,,,,1846.0301390000095,1846.0458519000094,1846.0458519000094,1846.0458519000094,1852.8726716999954,,,,1852.878659599999,1852.890830999997,1852.890830999997,1852.9389093000063,1852.9391366000054,1852.9552705000096,1852.9552705000096,1852.9552705000096,1853.0219957000081,1853.4058461000095,,,,,,,,,,,,,,,,,,,,,,down,6.816076899995096,None,space,0.43483180001203436,None,P150,001,2025-04-11_10h38.22.317,posner_endo_new1,2024.2.4,59.99469646686229,2025-04-11 10h38.27.533613 +0100,
cube_l.png,0.1,0.31,invalid,10,10,0,down,5.1198973999999,None,space,0.44063090000418015,None,,,,,,,,,0,10,10,10,1853.4214534000057,,,,,,,,,,,,,1853.4060232000047,1853.4214534000057,1853.4214534000057,1853.4214534000057,1858.550174899996,,,,1858.5561985000095,1858.5677223000093,1858.5677223000093,1858.6163481999974,1858.6165697999968,1858.6328606000025,1858.6328606000025,1858.6328606000025,1858.6995983000088,1859.083077000003,,,,,,,,,,,,,,,,,,,,,,down,5.1198973999999,None,space,0.44063090000418015,None,P150,001,2025-04-11_10h38.22.317,posner_endo_new1,2024.2.4,59.99469646686229,2025-04-11 10h38.27.533613 +0100,
cube_r.png,0.1,-0.31,invalid,11,11,0,down,6.402679300008458,None,space,0.4152469000109704,None,,,,,,,,,0,11,11,11,1859.098920000004,,,,,,,,,,,,,1859.0832486,1859.098920000004,1859.098920000004,1859.098920000004,1865.5098951999971,,,,1865.5159501000016,1865.5276657000068,1865.5276657000068,1865.5758477000054,1865.5760730000038,1865.5924815000035,1865.5924815000035,1865.5924815000035,1865.6591213000065,1866.0094092000072,,,,,,,,,,,,,,,,,,,,,,down,6.402679300008458,None,space,0.4152469000109704,None,P150,001,2025-04-11_10h38.22.317,posner_endo_new1,2024.2.4,59.99469646686229,2025-04-11 10h38.27.533613 +0100,
cube_r.png,0.1,0.31,valid,12,12,0,down,4.660633700012113,None,space,0.34120439999969676,None,,,,,,,,,0,12,12,12,1866.0252414999995,,,,,,,,,,,,,1866.0095793000073,1866.0252414999995,1866.0252414999995,1866.0252414999995,1870.687970400002,,,,1870.694034900007,1870.7058231999981,1870.7058231999981,1870.7539071000065,1870.7541269000067,1870.770457400009,1870.770457400009,1870.770457400009,1870.836936599997,1871.120770900001,,,,,,,,,,,,,,,,,,,,,,down,4.660633700012113,None,space,0.34120439999969676,None,P150,001,2025-04-11_10h38.22.317,posner_endo_new1,2024.2.4,59.99469646686229,2025-04-11 10h38.27.533613 +0100,
cube_l.png,0.1,10,catch,13,13,0,down,6.420528799993917,None,space,0.3734532999951625,None,,,,,,,,,0,13,13,13,1871.1368711999967,,,,,,,,,,,,,1871.1209478999954,1871.1368711999967,1871.1368711999967,1871.1368711999967,1877.5640918999998,,,,1877.5701830000035,1877.5817563000019,1877.5817563000019,1877.6302903000033,1877.6305165000085,1877.6467119000008,1877.6467119000008,1877.6467119000008,1877.7133997000055,1878.0304256999952,,,,,,,,,,,,,,,,,,,,,,down,6.420528799993917,None,space,0.3734532999951625,None,P150,001,2025-04-11_10h38.22.317,posner_endo_new1,2024.2.4,59.99469646686229,2025-04-11 10h38.27.533613 +0100,
cube_r.png,0.1,-0.31,invalid,14,14,0,down,5.255959799993434,None,space,0.43456419999711215,None,,,,,,,,,0,14,14,14,1878.0462365999992,,,,,,,,,,,,,1878.030600500002,1878.0462365999992,1878.0462365999992,1878.0462365999992,1883.3081930000044,,,,1883.3141849000094,1883.3256325999973,1883.3256325999973,1883.374384499999,1883.3746047000022,1883.3910019000032,1883.3910019000032,1883.3910019000032,1883.4573457000079,1883.8413056999998,,,,,,,,,,,,,,,,,,,,,,down,5.255959799993434,None,space,0.43456419999711215,None,P150,001,2025-04-11_10h38.22.317,posner_endo_new1,2024.2.4,59.99469646686229,2025-04-11 10h38.27.533613 +0100,
cube_l.png,0.1,-0.31,valid,15,15,0,down,6.781265500001609,None,space,0.40123299999686424,None,,,,,,,,,0,15,15,15,1883.8569532999973,,,,,,,,,,,,,1883.8414755999984,1883.8569532999973,1883.8569532999973,1883.8569532999973,1890.6509694999986,,,,1890.6569299999974,1890.6685824000015,1890.6685824000015,1890.7168785999966,1890.7170993000036,1890.7334127000067,1890.7334127000067,1890.7334127000067,1890.7999336000066,1891.1503089000034,,,,,,,,,,,,,,,,,,,,,,down,6.781265500001609,None,space,0.40123299999686424,None,P150,001,2025-04-11_10h38.22.317,posner_endo_new1,2024.2.4,59.99469646686229,2025-04-11 10h38.27.533613 +0100,
cube_r.png,0.1,10,catch,16,16,0,down,5.167643900000257,None,None,,,,,,,,,,,0,16,16,16,1891.1662654999964,,,,,,,,,,,,,1891.1504818999965,1891.1662654999964,1891.1662654999964,1891.1662654999964,1896.3451094000047,,,,1896.3579262999992,1896.3679186000081,1896.3679186000081,1896.4106036000012,1896.4109964999952,1896.427087899996,1896.427087899996,1896.427087899996,1896.5103256000002,1899.424823399997,,,,1898.5249475000019,1899.4406776999967,1899.4406776999967,1899.4406776999967,,,,,,,,,,,,,,,down,5.167643900000257,None,None,,,P150,001,2025-04-11_10h38.22.317,posner_endo_new1,2024.2.4,59.99469646686229,2025-04-11 10h38.27.533613 +0100,
cube_r.png,0.1,10,catch,17,17,0,down,3.65384549999726,None,None,,,,,,,,,,,0,17,17,17,1899.4406776999967,,,,,,,,,,,,,1899.4251258000004,1899.4406776999967,1899.4406776999967,1899.4406776999967,1903.104934300005,,,,1903.1175913000043,1903.1275943000073,1903.1275943000073,1903.1707765000028,1903.1710303,1903.187231600008,1903.187231600008,1903.187231600008,1903.2704433000035,1906.1848633000045,,,,1905.2851891000028,1906.200925600002,1906.200925600002,1906.200925600002,,,,,,,,,,,,,,,down,3.65384549999726,None,None,,,P150,001,2025-04-11_10h38.22.317,posner_endo_new1,2024.2.4,59.99469646686229,2025-04-11 10h38.27.533613 +0100,
cube_l.png,0.1,0.31,invalid,18,18,0,down,1.7812492999946699,None,space,0.4886441999988165,None,,,,,,,,,0,18,18,18,1906.200925600002,,,,,,,,,,,,,1906.1850549000083,1906.200925600002,1906.200925600002,1906.200925600002,1907.9833932000038,,,,1907.9912689000048,1908.0020284000057,1908.0020284000057,1908.0491350000084,1908.0494008999958,1908.065629500008,1908.065629500008,1908.065629500008,1908.1488125000033,1908.5659281999979,,,,,,,,,,,,,,,,,,,,,,down,1.7812492999946699,None,space,0.4886441999988165,None,P150,001,2025-04-11_10h38.22.317,posner_endo_new1,2024.2.4,59.99469646686229,2025-04-11 10h38.27.533613 +0100,
cube_l.png,0.1,10,catch,19,19,0,down,6.064810700001544,None,None,,,,,,,,,,,0,19,19,19,1908.581600400008,,,,,,,,,,,,,1908.5661399999954,1908.581600400008,1908.581600400008,1908.581600400008,1914.6596954999986,,,,1914.667560300004,1914.6786165000085,1914.6786165000085,1914.725628900007,1914.7258863000025,1914.742232500008,1914.742232500008,1914.742232500008,1914.8254323,1917.739721799997,,,,1916.839985700004,1917.755695800006,1917.755695800006,1917.755695800006,,,,,,,,,,,,,,,down,6.064810700001544,None,None,,,P150,001,2025-04-11_10h38.22.317,posner_endo_new1,2024.2.4,59.99469646686229,2025-04-11 10h38.27.533613 +0100,
cube_l.png,0.1,0.31,invalid,20,20,0,down,3.0906393000041135,None,space,0.5339578999992227,None,,,,,,,,,0,20,20,20,1917.755695800006,,,,,,,,,,,,,1917.7399149999983,1917.755695800006,1917.755695800006,1917.755695800006,1920.853528000007,,,,1920.866185100007,1920.8761885999993,1920.8761885999993,1920.9188867000048,1920.9192772000097,1920.9353618000023,1920.9353618000023,1920.9353618000023,1921.0185957000067,1921.486119299996,,,,,,,,,,,,,,,,,,,,,,down,3.0906393000041135,None,space,0.5339578999992227,None,P150,001,2025-04-11_10h38.22.317,posner_endo_new1,2024.2.4,59.99469646686229,2025-04-11 10h38.27.533613 +0100,
cube_l.png,0.1,-0.31,valid,21,21,0,down,3.9610753000015393,None,space,0.42705869999190327,None,,,,,,,,,0,21,21,21,1921.5014376000036,,,,,,,,,,,,,1921.4864491000044,1921.5014376000036,1921.5014376000036,1921.5014376000036,1925.4655876000033,,,,1925.4782118000003,1925.4882175000093,1925.4882175000093,1925.530816700004,1925.5311986000015,1925.5473006999964,1925.5473006999964,1925.5473006999964,1925.6305336000078,1925.981650600006,,,,,,,,,,,,,,,,,,,,,,down,3.9610753000015393,None,space,0.42705869999190327,None,P150,001,2025-04-11_10h38.22.317,posner_endo_new1,2024.2.4,59.99469646686229,2025-04-11 10h38.27.533613 +0100,
cube_r.png,0.1,0.31,valid,22,22,0,down,5.216887100003078,None,space,0.36747370001103263,None,,,,,,,,,0,22,22,22,1925.9968279000022,,,,,,,,,,,,,1925.9819839999982,1925.9968279000022,1925.9968279000022,1925.9968279000022,1931.2261318000092,,,,1931.2387911999976,1931.2488006000058,1931.2488006000058,1931.2915822000068,1931.2919778000069,1931.3080683000007,1931.3080683000007,1931.3080683000007,1931.3913066999958,1931.6923439999955,,,,,,,,,,,,,,,,,,,,,,down,5.216887100003078,None,space,0.36747370001103263,None,P150,001,2025-04-11_10h38.22.317,posner_endo_new1,2024.2.4,59.99469646686229,2025-04-11 10h38.27.533613 +0100,
cube_r.png,0.1,-0.31,invalid,23,23,0,down,6.977983599994332,None,space,0.4997638999921037,None,,,,,,,,,0,23,23,23,1931.7076605000038,,,,,,,,,,,,,1931.6926742000069,1931.7076605000038,1931.7076605000038,1931.7076605000038,1938.7018448000017,,,,1938.7145630000014,1938.724242700002,1938.724242700002,1938.767276300001,1938.7676692000095,1938.7837553999998,1938.7837553999998,1938.7837553999998,1938.8669962999993,1939.2848596999975,,,,,,,,,,,,,,,,,,,,,,down,6.977983599994332,None,space,0.4997638999921037,None,P150,001,2025-04-11_10h38.22.317,posner_endo_new1,2024.2.4,59.99469646686229,2025-04-11 10h38.27.533613 +0100,
cube_r.png,0.1,0.31,valid,24,24,0,down,15.674405199999455,None,space,0.3838528999913251,None,,,,,,,,,0,24,24,24,1939.299878699996,,,,,,,,,,,,,1939.2851897000073,1939.299878699996,1939.299878699996,1939.299878699996,1954.9851538000075,,,,1954.9936118000041,1955.0039207000082,1955.0039207000082,1955.0510475000046,1955.0513322000043,1955.067604099997,1955.067604099997,1955.067604099997,1955.134196900006,1955.4681896999973,,,,,,,,,,,,,,,,,,,,,,down,15.674405199999455,None,space,0.3838528999913251,None,P150,001,2025-04-11_10h38.22.317,posner_endo_new1,2024.2.4,59.99469646686229,2025-04-11 10h38.27.533613 +0100,
cube_r.png,0.1,-0.31,invalid,25,25,0,down,3.6176370000030147,None,space,0.39463460000115447,None,,,,,,,,,0,25,25,25,1955.4838172000018,,,,,,,,,,,,,1955.4684267999983,1955.4838172000018,1955.4838172000018,1955.4838172000018,1959.1142981000012,,,,1959.122795800009,1959.133077400009,1959.133077400009,1959.1801820999972,1959.1804628999962,1959.1966437000083,1959.1966437000083,1959.1966437000083,1959.279960400003,1959.5971552999981,,,,,,,,,,,,,,,,,,,,,,down,3.6176370000030147,None,space,0.39463460000115447,None,P150,001,2025-04-11_10h38.22.317,posner_endo_new1,2024.2.4,59.99469646686229,2025-04-11 10h38.27.533613 +0100,
cube_l.png,0.1,-0.31,valid,26,26,0,down,5.969408300006762,None,space,0.3927218000026187,None,,,,,,,,,0,26,26,26,1959.612918400002,,,,,,,,,,,,,1959.5973806999973,1959.612918400002,1959.612918400002,1959.612918400002,1965.5907845000038,,,,1965.5969304000027,1965.6085858000006,1965.6085858000006,1965.6568093000096,1965.6570301000029,1965.673431999996,1965.673431999996,1965.673431999996,1965.7398823999974,1966.0737881999958,,,,,,,,,,,,,,,,,,,,,,down,5.969408300006762,None,space,0.3927218000026187,None,P150,001,2025-04-11_10h38.22.317,posner_endo_new1,2024.2.4,59.99469646686229,2025-04-11 10h38.27.533613 +0100,
cube_r.png,0.1,0.31,valid,27,27,0,down,4.956065199992736,None,space,0.48041899999952875,None,,,,,,,,,0,27,27,27,1966.089640899998,,,,,,,,,,,,,1966.0739592000027,1966.089640899998,1966.089640899998,1966.089640899998,1971.0520355000044,,,,1971.058041700002,1971.0697026999987,1971.0697026999987,1971.117857300007,1971.1180800000002,1971.1344465000002,1971.1344465000002,1971.1344465000002,1971.2009924000013,1971.6180129999993,,,,,,,,,,,,,,,,,,,,,,down,4.956065199992736,None,space,0.48041899999952875,None,P150,001,2025-04-11_10h38.22.317,posner_endo_new1,2024.2.4,59.99469646686229,2025-04-11 10h38.27.533613 +0100,
cube_r.png,0.1,10,catch,28,28,0,down,2.7494319999968866,None,None,,,,,,,,,,,0,28,28,28,1971.6339302999986,,,,,,,,,,,,,1971.6181918000075,1971.6339302999986,1971.6339302999986,1971.6339302999986,1974.3984153000056,,,,1974.4044561000046,1974.4159562999994,1974.4159562999994,1974.4645495000004,1974.4647729999997,1974.4809036000079,1974.4809036000079,1974.4809036000079,1974.5477034000069,1977.478392200006,,,,1976.562185200004,1977.4946715999977,1977.4946715999977,1977.4946715999977,,,,,,,,,,,,,,,down,2.7494319999968866,None,None,,,P150,001,2025-04-11_10h38.22.317,posner_endo_new1,2024.2.4,59.99469646686229,2025-04-11 10h38.27.533613 +0100,
cube_r.png,0.1,0.31,valid,29,29,0,down,5.0157958999916445,None,space,0.48552339999878313,None,,,,,,,,,0,29,29,29,1977.4946715999977,,,,,,,,,,,,,1977.4785529000073,1977.4946715999977,1977.4946715999977,1977.4946715999977,1982.5239039000007,,,,1982.5383975000004,1982.5491184999992,1982.5491184999992,1982.5894292000012,1982.589704500002,1982.6059870000026,1982.6059870000026,1982.6059870000026,1982.6892389999994,1983.1062984000018,,,,,,,,,,,,,,,,,,,,,,down,5.0157958999916445,None,space,0.48552339999878313,None,P150,001,2025-04-11_10h38.22.317,posner_endo_new1,2024.2.4,59.99469646686229,2025-04-11 10h38.27.533613 +0100,
cube_r.png,0.1,0.31,valid,30,30,0,down,6.747415199992247,None,space,0.3949280999950133,None,,,,,,,,,0,30,30,30,1983.1223265000008,,,,,,,,,,,,,1983.106523399998,1983.1223265000008,1983.1223265000008,1983.1223265000008,1989.8828686000052,,,,1989.8896238000016,1989.9014391000092,1989.9014391000092,1989.9485334000055,1989.9487580999994,1989.9651885000058,1989.9651885000058,1989.9651885000058,1990.0483420999954,1990.3654638000007,,,,,,,,,,,,,,,,,,,,,,down,6.747415199992247,None,space,0.3949280999950133,None,P150,001,2025-04-11_10h38.22.317,posner_endo_new1,2024.2.4,59.99469646686229,2025-04-11 10h38.27.533613 +0100,
cube_l.png,0.1,-0.31,valid,31,31,0,down,3.1597517000045627,None,space,0.4588646000047447,None,,,,,,,,,0,31,31,31,1990.3818855999998,,,,,,,,,,,,,1990.3656407999952,1990.3818855999998,1990.3818855999998,1990.3818855999998,1993.5457044000068,,,,1993.5519633000076,1993.5635395999998,1993.5635395999998,1993.6115250000003,1993.611747700008,1993.628107800003,1993.628107800003,1993.628107800003,1993.711341800008,1994.0951043999958,,,,,,,,,,,,,,,,,,,,,,down,3.1597517000045627,None,space,0.4588646000047447,None,P150,001,2025-04-11_10h38.22.317,posner_endo_new1,2024.2.4,59.99469646686229,2025-04-11 10h38.27.533613 +0100,
cube_r.png,0.1,0.31,valid,32,32,0,down,5.302683000001707,None,space,0.5227807000046596,None,,,,,,,,,0,32,32,32,1994.1109399999987,,,,,,,,,,,,,1994.0952871000045,1994.1109399999987,1994.1109399999987,1994.1109399999987,1999.423069299999,,,,1999.4296630000026,1999.4413510000013,1999.4413510000013,1999.4889205000072,1999.489141900005,1999.505385299999,1999.505385299999,1999.505385299999,1999.5885723999963,2000.038784400007,,,,,,,,,,,,,,,,,,,,,,down,5.302683000001707,None,space,0.5227807000046596,None,P150,001,2025-04-11_10h38.22.317,posner_endo_new1,2024.2.4,59.99469646686229,2025-04-11 10h38.27.533613 +0100,
cube_r.png,0.1,-0.31,invalid,33,33,0,down,5.094809499991243,None,space,0.3282035000011092,None,,,,,,,,,0,33,33,33,2000.0547341000056,,,,,,,,,,,,,2000.0389598000038,2000.0547341000056,2000.0547341000056,2000.0547341000056,2005.1509628000058,,,,2005.163133000009,2005.1734738000087,2005.1734738000087,2005.2163778999966,2005.2166280000092,2005.2326728000044,2005.2326728000044,2005.2326728000044,2005.3160348999954,2005.5666487999988,,,,,,,,,,,,,,,,,,,,,,down,5.094809499991243,None,space,0.3282035000011092,None,P150,001,2025-04-11_10h38.22.317,posner_endo_new1,2024.2.4,59.99469646686229,2025-04-11 10h38.27.533613 +0100,
cube_r.png,0.1,10,catch,34,34,0,down,6.471565699990606,None,None,,,,,,,,,,,0,34,34,34,2005.5825299999997,,,,,,,,,,,,,2005.5668517000013,2005.5825299999997,2005.5825299999997,2005.5825299999997,2012.060007100008,,,,2012.0679162000015,2012.0787816000084,2012.0787816000084,2012.1259886000043,2012.1262395000085,2012.1424805999995,2012.1424805999995,2012.1424805999995,2012.225830299998,2015.1399363999953,,,,2014.2403647000028,2015.156174200005,2015.156174200005,2015.156174200005,,,,,,,,,,,,,,,down,6.471565699990606,None,None,,,P150,001,2025-04-11_10h38.22.317,posner_endo_new1,2024.2.4,59.99469646686229,2025-04-11 10h38.27.533613 +0100,
cube_r.png,0.1,0.31,valid,35,35,0,down,3.2973401000053855,None,space,0.4279570000071544,None,,,,,,,,,0,35,35,35,2015.156174200005,,,,,,,,,,,,,2015.140117300005,2015.156174200005,2015.156174200005,2015.156174200005,2018.4701407999964,,,,2018.4783087999967,2018.4888939000084,2018.4888939000084,2018.5361221000057,2018.5363671000086,2018.552528100001,2018.552528100001,2018.552528100001,2018.6358583999972,2018.9862706999993,,,,,,,,,,,,,,,,,,,,,,down,3.2973401000053855,None,space,0.4279570000071544,None,P150,001,2025-04-11_10h38.22.317,posner_endo_new1,2024.2.4,59.99469646686229,2025-04-11 10h38.27.533613 +0100,
cube_r.png,0.1,-0.31,invalid,36,36,0,down,2.8033935999992536,None,space,0.41945010000199545,None,,,,,,,,,0,36,36,36,2019.0021590999968,,,,,,,,,,,,,2018.9864701000042,2019.0021590999968,2019.0021590999968,2019.0021590999968,2021.8166436000029,,,,2021.8245353000093,2021.835524299997,2021.835524299997,2021.8827267000015,2021.8829759000073,2021.8991354000027,2021.8991354000027,2021.8991354000027,2021.9655181999988,2022.3329526000016,,,,,,,,,,,,,,,,,,,,,,down,2.8033935999992536,None,space,0.41945010000199545,None,P150,001,2025-04-11_10h38.22.317,posner_endo_new1,2024.2.4,59.99469646686229,2025-04-11 10h38.27.533613 +0100,
cube_l.png,0.1,0.31,invalid,37,37,0,down,5.112732399997185,None,space,0.39422909999848343,None,,,,,,,,,0,37,37,37,2022.348754599996,,,,,,,,,,,,,2022.3331535000034,2022.348754599996,2022.348754599996,2022.348754599996,2027.4776023000013,,,,2027.485253699997,2027.4963726999995,2027.4963726999995,2027.543499300009,2027.543747100004,2027.5600120000017,2027.5600120000017,2027.5600120000017,2027.6431731000048,2027.9603937000065,,,,,,,,,,,,,,,,,,,,,,down,5.112732399997185,None,space,0.39422909999848343,None,P150,001,2025-04-11_10h38.22.317,posner_endo_new1,2024.2.4,59.99469646686229,2025-04-11 10h38.27.533613 +0100,
cube_l.png,0.1,0.31,invalid,38,38,0,down,6.133335300008184,None,space,0.3412668999953894,None,,,,,,,,,0,38,38,38,2027.9763042999984,,,,,,,,,,,,,2027.960588300004,2027.9763042999984,2027.9763042999984,2027.9763042999984,2034.1208797,,,,2034.1284681999969,2034.139464699998,2034.139464699998,2034.1866498000018,2034.1868996999983,2034.2032711000065,2034.2032711000065,2034.2032711000065,2034.2865861000028,2034.5537198999955,,,,,,,,,,,,,,,,,,,,,,down,6.133335300008184,None,space,0.3412668999953894,None,P150,001,2025-04-11_10h38.22.317,posner_endo_new1,2024.2.4,59.99469646686229,2025-04-11 10h38.27.533613 +0100,
cube_r.png,0.1,0.31,valid,39,39,0,down,7.0677090999961365,None,space,0.3919822999887401,None,,,,,,,,,0,39,39,39,2034.5696420000022,,,,,,,,,,,,,2034.5539128999953,2034.5696420000022,2034.5696420000022,2034.5696420000022,2041.6463139999978,,,,2041.6539423000067,2041.6652151000017,2041.6652151000017,2041.7123472999956,2041.7125918999955,2041.7289435999992,2041.7289435999992,2041.7289435999992,2041.7954755999963,2042.129182500008,,,,,,,,,,,,,,,,,,,,,,down,7.0677090999961365,None,space,0.3919822999887401,None,P150,001,2025-04-11_10h38.22.317,posner_endo_new1,2024.2.4,59.99469646686229,2025-04-11 10h38.27.533613 +0100,
cube_l.png,0.1,0.31,invalid,40,40,0,down,6.453071900003124,None,space,0.4844273999915458,None,,,,,,,,,0,40,40,40,2042.1448741000058,,,,,,,,,,,,,2042.1293817999976,2042.1448741000058,2042.1448741000058,2042.1448741000058,2048.6058109000005,,,,2048.613322200006,2048.624794800009,2048.624794800009,2048.671904600007,2048.6721493000077,2048.688362000001,2048.688362000001,2048.688362000001,2048.7549541000044,2049.188580400005,,,,,,,,,,,,,,,,,,,,,,down,6.453071900003124,None,space,0.4844273999915458,None,P150,001,2025-04-11_10h38.22.317,posner_endo_new1,2024.2.4,59.99469646686229,2025-04-11 10h38.27.533613 +0100,
cube_l.png,0.1,10,catch,41,41,0,down,5.12955850000435,None,None,,,,,,,,,,,0,41,41,41,2049.2044560000068,,,,,,,,,,,,,2049.1887799999968,2049.2044560000068,2049.2044560000068,2049.2044560000068,2054.3501681000052,,,,2054.357653900006,2054.368911400001,2054.368911400001,2054.4160376000073,2054.4162857000047,2054.4324821000046,2054.4324821000046,2054.4324821000046,2054.515513400009,2057.4299959000055,,,,2056.5302521999984,2057.4461541000055,2057.4461541000055,2057.4461541000055,,,,,,,,,,,,,,,down,5.12955850000435,None,None,,,P150,001,2025-04-11_10h38.22.317,posner_endo_new1,2024.2.4,59.99469646686229,2025-04-11 10h38.27.533613 +0100,
cube_l.png,0.1,-0.31,valid,42,42,0,down,4.24783490000118,None,space,0.5267259999964153,None,,,,,,,,,0,42,42,42,2057.4461541000055,,,,,,,,,,,,,2057.4301781999966,2057.4461541000055,2057.4461541000055,2057.4461541000055,2061.7090697000094,,,,2061.7166478,2061.728104499998,2061.728104499998,2061.7752307000046,2061.7754775000067,2061.791677900008,2061.791677900008,2061.791677900008,2061.8582579000067,2062.3252758000017,,,,,,,,,,,,,,,,,,,,,,down,4.24783490000118,None,space,0.5267259999964153,None,P150,001,2025-04-11_10h38.22.317,posner_endo_new1,2024.2.4,59.99469646686229,2025-04-11 10h38.27.533613 +0100,
cube_l.png,0.1,10,catch,43,43,0,down,4.912936700013233,None,None,,,,,,,,,,,0,43,43,43,2062.3411599999963,,,,,,,,,,,,,2062.325481100008,2062.3411599999963,2062.3411599999963,2062.3411599999963,2067.2701063999993,,,,2067.2775581000024,2067.2891296000016,2067.2891296000016,2067.3360855000064,2067.336306600002,2067.352645100007,2067.352645100007,2067.352645100007,2067.419265999997,2070.350047300002,,,,2069.433713599996,2070.366300599999,2070.366300599999,2070.366300599999,,,,,,,,,,,,,,,down,4.912936700013233,None,None,,,P150,001,2025-04-11_10h38.22.317,posner_endo_new1,2024.2.4,59.99469646686229,2025-04-11 10h38.27.533613 +0100,
cube_l.png,0.1,0.31,invalid,44,44,0,down,2.6476510999927996,None,space,0.39541250000183936,None,,,,,,,,,0,44,44,44,2070.366300599999,,,,,,,,,,,,,2070.3502062000043,2070.366300599999,2070.366300599999,2070.366300599999,2073.030706999998,,,,2073.036831400008,2073.048129700008,2073.048129700008,2073.096861500002,2073.0970812000014,2073.1135532000044,2073.1135532000044,2073.1135532000044,2073.1799745000026,2073.5136861000065,,,,,,,,,,,,,,,,,,,,,,down,2.6476510999927996,None,space,0.39541250000183936,None,P150,001,2025-04-11_10h38.22.317,posner_endo_new1,2024.2.4,59.99469646686229,2025-04-11 10h38.27.533613 +0100,
cube_l.png,0.1,0.31,invalid,45,45,0,down,5.084515399998054,None,space,0.5132905999926152,None,,,,,,,,,0,45,45,45,2073.5295923000085,,,,,,,,,,,,,2073.513856100006,2073.5295923000085,2073.5295923000085,2073.5295923000085,2078.6250894999976,,,,2078.6312990000006,2078.6429139999964,2078.6429139999964,2078.691226900002,2078.6914495999954,2078.7076248000085,2078.7076248000085,2078.7076248000085,2078.7742619000055,2079.2246659000084,,,,,,,,,,,,,,,,,,,,,,down,5.084515399998054,None,space,0.5132905999926152,None,P150,001,2025-04-11_10h38.22.317,posner_endo_new1,2024.2.4,59.99469646686229,2025-04-11 10h38.27.533613 +0100,
cube_r.png,0.1,0.31,valid,46,46,0,down,8.341393199996674,None,space,0.33755939999537077,None,,,,,,,,,0,46,46,46,2079.2404699000035,,,,,,,,,,,,,2079.224843799995,2079.2404699000035,2079.2404699000035,2079.2404699000035,2087.582731600007,,,,2087.589390100009,2087.600906000007,2087.600906000007,2087.648694100004,2087.648917700004,2087.6651346,2087.6651346,2087.6651346,2087.7319094999984,2088.0155921999976,,,,,,,,,,,,,,,,,,,,,,down,8.341393199996674,None,space,0.33755939999537077,None,P150,001,2025-04-11_10h38.22.317,posner_endo_new1,2024.2.4,59.99469646686229,2025-04-11 10h38.27.533613 +0100,
cube_l.png,0.1,-0.31,valid,47,47,0,down,2.5261454000137746,None,space,0.49458680000680033,None,,,,,,,,,0,47,47,47,2088.0315625000076,,,,,,,,,,,,,2088.015764900003,2088.0315625000076,2088.0315625000076,2088.0315625000076,2090.5630547000037,,,,2090.5695508000063,2090.5811339000065,2090.5811339000065,2090.628883199999,2090.6291102999967,2090.6456092000008,2090.6456092000008,2090.6456092000008,2090.7120626999967,2091.1457860000082,,,,,,,,,,,,,,,,,,,,,,down,2.5261454000137746,None,space,0.49458680000680033,None,P150,001,2025-04-11_10h38.22.317,posner_endo_new1,2024.2.4,59.99469646686229,2025-04-11 10h38.27.533613 +0100,
cube_r.png,0.1,-0.31,invalid,48,48,0,down,5.308721099994727,None,space,0.4289298000076087,None,,,,,,,,,0,48,48,48,2091.161481000003,,,,,,,,,,,,,2091.145961900009,2091.161481000003,2091.161481000003,2091.161481000003,2096.4735641000007,,,,2096.4795728000026,2096.491431900009,2096.491431900009,2096.5394140999997,2096.539636200003,2096.5561076000013,2096.5561076000013,2096.5561076000013,2096.622671899997,2096.9899771000055,,,,,,,,,,,,,,,,,,,,,,down,5.308721099994727,None,space,0.4289298000076087,None,P150,001,2025-04-11_10h38.22.317,posner_endo_new1,2024.2.4,59.99469646686229,2025-04-11 10h38.27.533613 +0100,
cube_r.png,0.1,10,catch,49,49,0,down,6.24834859999828,None,None,,,,,,,,,,,0,49,49,49,2097.005646100006,,,,,,,,,,,,,2096.990146199998,2097.005646100006,2097.005646100006,2097.005646100006,2103.2667943999986,,,,2103.2731394,2103.2848670999956,2103.2848670999956,2103.3325702,2103.3327950000094,2103.349228699997,2103.349228699997,2103.349228699997,2103.432361600004,2106.346585799998,,,,2105.447121899997,2106.3627865000017,2106.3627865000017,2106.3627865000017,,,,,,,,,,,,,,,down,6.24834859999828,None,None,,,P150,001,2025-04-11_10h38.22.317,posner_endo_new1,2024.2.4,59.99469646686229,2025-04-11 10h38.27.533613 +0100,
cube_l.png,0.1,-0.31,valid,50,50,0,down,1.5391595999972196,None,space,0.35544539999682456,None,,,,,,,,,0,50,50,50,2106.3627865000017,,,,,,,,,,,,,2106.346745600007,2106.3627865000017,2106.3627865000017,2106.3627865000017,2107.911695600007,,,,2107.917642600005,2107.9293581000093,2107.9293581000093,2107.9778945,2107.978124900008,2107.994361799996,2107.994361799996,2107.994361799996,2108.060943100005,2108.361558400007,,,,,,,,,,,,,,,,,,,,,,down,1.5391595999972196,None,space,0.35544539999682456,None,P150,001,2025-04-11_10h38.22.317,posner_endo_new1,2024.2.4,59.99469646686229,2025-04-11 10h38.27.533613 +0100,
cube_l.png,0.1,-0.31,valid,51,51,0,down,6.293040399992606,None,space,0.39432289999967907,None,,,,,,,,,0,51,51,51,2108.377246600008,,,,,,,,,,,,,2108.361728200005,2108.377246600008,2108.377246600008,2108.377246600008,2114.671854500004,,,,2114.6778807000082,2114.6894805000047,2114.6894805000047,2114.7376156999962,2114.7378364000033,2114.754168600004,2114.754168600004,2114.754168600004,2114.837290700001,2115.1545524999965,,,,,,,,,,,,,,,,,,,,,,down,6.293040399992606,None,space,0.39432289999967907,None,P150,001,2025-04-11_10h38.22.317,posner_endo_new1,2024.2.4,59.99469646686229,2025-04-11 10h38.27.533613 +0100,
cube_r.png,0.1,-0.31,invalid,52,52,0,down,5.763907100001234,None,space,0.40182179999828804,None,,,,,,,,,0,52,52,52,2115.1704238000093,,,,,,,,,,,,,2115.154722899999,2115.1704238000093,2115.1704238000093,2115.1704238000093,2120.9484187000053,,,,2120.9544738999975,2120.966163799996,2120.966163799996,2121.0143946000026,2121.0146150000073,2121.0308220000006,2121.0308220000006,2121.0308220000006,2121.097574600004,2121.448021700009,,,,,,,,,,,,,,,,,,,,,,down,5.763907100001234,None,space,0.40182179999828804,None,P150,001,2025-04-11_10h38.22.317,posner_endo_new1,2024.2.4,59.99469646686229,2025-04-11 10h38.27.533613 +0100,
cube_l.png,0.1,-0.31,valid,53,53,0,down,5.742527299997164,None,space,0.4029166999971494,None,,,,,,,,,0,53,53,53,2121.4638372000045,,,,,,,,,,,,,2121.4482010000065,2121.4638372000045,2121.4638372000045,2121.4638372000045,2127.209033200008,,,,2127.2150190999964,2127.2266741000058,2127.2266741000058,2127.2746609000023,2127.2748829000047,2127.291230300005,2127.291230300005,2127.291230300005,2127.3744562000065,2127.7082590000064,,,,,,,,,,,,,,,,,,,,,,down,5.742527299997164,None,space,0.4029166999971494,None,P150,001,2025-04-11_10h38.22.317,posner_endo_new1,2024.2.4,59.99469646686229,2025-04-11 10h38.27.533613 +0100,
cube_r.png,0.1,10,catch,54,54,0,down,6.642010999988997,None,None,,,,,,,,,,,0,54,54,54,2127.724302200004,,,,,,,,,,,,,2127.708430400002,2127.724302200004,2127.724302200004,2127.724302200004,2134.3681212000083,,,,2134.3741267000005,2134.386316700009,2134.386316700009,2134.434292100006,2134.4345312000078,2134.450705700001,2134.450705700001,2134.450705700001,2134.5173197999975,2137.448133400001,,,,2136.5318501,2137.464173100001,2137.464173100001,2137.464173100001,,,,,,,,,,,,,,,down,6.642010999988997,None,None,,,P150,001,2025-04-11_10h38.22.317,posner_endo_new1,2024.2.4,59.99469646686229,2025-04-11 10h38.27.533613 +0100,
cube_l.png,0.1,0.31,invalid,55,55,0,down,3.469795500001055,None,space,0.5793766000133473,None,,,,,,,,,0,55,55,55,2137.464173100001,,,,,,,,,,,,,2137.4482923000032,2137.464173100001,2137.464173100001,2137.464173100001,2140.944558700008,,,,2140.9505818000034,2140.9620511999965,2140.9620511999965,2141.0107304999983,2141.0109549000044,2141.027213299996,2141.027213299996,2141.027213299996,2141.0937742000096,2141.610694300005,,,,,,,,,,,,,,,,,,,,,,down,3.469795500001055,None,space,0.5793766000133473,None,P150,001,2025-04-11_10h38.22.317,posner_endo_new1,2024.2.4,59.99469646686229,2025-04-11 10h38.27.533613 +0100,
cube_l.png,0.1,-0.31,valid,56,56,0,down,3.4592957999993814,None,space,0.6111951000057161,None,,,,,,,,,0,56,56,56,2141.626625200006,,,,,,,,,,,,,2141.6108646000066,2141.626625200006,2141.626625200006,2141.626625200006,2145.090539500001,,,,2145.0966645000008,2145.108287199997,2145.108287199997,2145.1564691000094,2145.1566926000087,2145.173125100002,2145.173125100002,2145.173125100002,2145.2397083999967,2145.789988400007,,,,,,,,,,,,,,,,,,,,,,down,3.4592957999993814,None,space,0.6111951000057161,None,P150,001,2025-04-11_10h38.22.317,posner_endo_new1,2024.2.4,59.99469646686229,2025-04-11 10h38.27.533613 +0100,
cube_r.png,0.1,0.31,valid,57,57,0,down,3.095889000003808,None,space,0.384325600010925,None,,,,,,,,,0,57,57,57,2145.8056556000083,,,,,,,,,,,,,2145.7901571999973,2145.8056556000083,2145.8056556000083,2145.8056556000083,2148.903328100001,,,,2148.909364100007,2148.9209017999965,2148.9209017999965,2148.9693774000043,2148.969601100005,2148.9856656000047,2148.9856656000047,2148.9856656000047,2149.0690217000083,2149.3863455999963,,,,,,,,,,,,,,,,,,,,,,down,3.095889000003808,None,space,0.384325600010925,None,P150,001,2025-04-11_10h38.22.317,posner_endo_new1,2024.2.4,59.99469646686229,2025-04-11 10h38.27.533613 +0100,
cube_r.png,0.1,-0.31,invalid,58,58,0,down,4.515863499997067,None,space,0.38339339999947697,None,,,,,,,,,0,58,58,58,2149.401957299997,,,,,,,,,,,,,2149.3865179999993,2149.401957299997,2149.401957299997,2149.401957299997,2153.9314575000026,,,,2153.9375118000025,2153.9492686000012,2153.9492686000012,2153.997356599997,2153.9975779000088,2154.0139465999964,2154.0139465999964,2154.0139465999964,2154.0805747999984,2154.4141417000064,,,,,,,,,,,,,,,,,,,,,,down,4.515863499997067,None,space,0.38339339999947697,None,P150,001,2025-04-11_10h38.22.317,posner_endo_new1,2024.2.4,59.99469646686229,2025-04-11 10h38.27.533613 +0100,
cube_l.png,0.1,0.31,invalid,59,59,0,down,5.41575259999081,None,space,0.4024284000042826,None,,,,,,,,,0,59,59,59,2154.4302157000056,,,,,,,,,,,,,2154.414313900008,2154.4302157000056,2154.4302157000056,2154.4302157000056,2159.8587226999953,,,,2159.864766700004,2159.8765877999977,2159.8765877999977,2159.924657800002,2159.9248780000053,2159.9412291000044,2159.9412291000044,2159.9412291000044,2160.0078587000025,2160.3582513,,,,,,,,,,,,,,,,,,,,,,down,5.41575259999081,None,space,0.4024284000042826,None,P150,001,2025-04-11_10h38.22.317,posner_endo_new1,2024.2.4,59.99469646686229,2025-04-11 10h38.27.533613 +0100,
