cue_img,cue_soa,target_y,trial,thisN,thisTrialN,thisRepN,key_control2.keys,key_control2.rt,key_control2.duration,key_resp.keys,key_resp.rt,key_resp.duration,practice.thisRepN,practice.thisTrialN,practice.thisN,practice.thisIndex,block1.thisRepN,block1.thisTrialN,block1.thisN,block1.thisIndex,block2.thisRepN,block2.thisTrialN,block2.thisN,block2.thisIndex,thisRow.t,notes,instructions.started,instructions_txt.started,key_control.started,instructions.stopped,key_control.keys,key_control.rt,key_control.duration,ready.started,ready_txt.started,ready_txt.stopped,ready.stopped,fix.started,fixation.started,key_control2.started,fixation_cross.started,fix.stopped,practice.key_control2.keys,practice.key_control2.rt,practice.key_control2.duration,cue.started,cube.started,fixation_cross_cue.started,cue.stopped,target.started,fixation_target.started,fixation_cross_target.started,key_resp.started,star.started,target.stopped,practice.key_resp.keys,practice.key_resp.rt,practice.key_resp.duration,block1.key_control2.keys,block1.key_control2.rt,block1.key_control2.duration,star.stopped,fixation_target.stopped,fixation_cross_target.stopped,key_resp.stopped,block1.key_resp.keys,block1.key_resp.rt,block1.key_resp.duration,break_2.started,text.started,key_control3.started,text.stopped,break_2.stopped,key_control3.keys,key_control3.rt,key_control3.duration,block2.key_control2.keys,block2.key_control2.rt,block2.key_control2.duration,block2.key_resp.keys,block2.key_resp.rt,block2.key_resp.duration,participant,session,date,expName,psychopyVersion,frameRate,expStart,
,,,,,,,,,,,,,,,,,,,,,,,,,,,0.007535500000813045,0.02629180000803899,0.02629180000803899,662.9851695000107,up,662.942080199995,None,,,,,,,,,,,,,,,,,,,,,,,,,,,,,,,,,,,,,,,,,,,,,,,,,,P151,001,2025-04-11_11h55.29.878,posner_endo_new1,2024.2.4,60.054938258114454,2025-04-11 11h55.36.139302 +0100,
,,,,,,,,,,,,,,,,,,,,,,,,,,,,,,,,,,662.9852232000121,662.9978579000017,665.9980085000134,665.9785527000058,,,,,,,,,,,,,,,,,,,,,,,,,,,,,,,,,,,,,,,,,,,,,,P151,001,2025-04-11_11h55.29.878,posner_endo_new1,2024.2.4,60.054938258114454,2025-04-11 11h55.36.139302 +0100,
cube_l.png,0.1,-0.31,valid,0,0,0,down,48.98672840000654,None,space,0.6326212999993004,None,0,0,0,0,,,,,,,,,665.9980085000134,,,,,,,,,,,,,665.9858850000019,665.9980085000134,665.9980085000134,665.9980085000134,714.9957188000117,down,48.98672840000654,None,715.0138372000074,715.0248676000047,715.0248676000047,715.061414300013,715.0617452000006,715.0780153000087,715.0780153000087,715.0780153000087,715.1610817000037,715.711858900002,space,0.6326212999993004,None,,,,,,,,,,,,,,,,,,,,,,,,,P151,001,2025-04-11_11h55.29.878,posner_endo_new1,2024.2.4,60.054938258114454,2025-04-11 11h55.36.139302 +0100,
cube_l.png,0.1,0.31,invalid,1,1,0,down,12.08221940000658,None,space,0.3203064999979688,None,0,1,1,1,,,,,,,,,715.7272071000043,,,,,,,,,,,,,715.7121052000002,715.7272071000043,715.7272071000043,715.7272071000043,727.816095400005,down,12.08221940000658,None,727.8264769000089,727.8365196000086,727.8365196000086,727.881498200004,727.8818224000133,727.8980717000086,727.8980717000086,727.8980717000086,727.9812670000101,728.2321153000084,space,0.3203064999979688,None,,,,,,,,,,,,,,,,,,,,,,,,,P151,001,2025-04-11_11h55.29.878,posner_endo_new1,2024.2.4,60.054938258114454,2025-04-11 11h55.36.139302 +0100,
cube_r.png,0.1,-0.31,invalid,2,2,0,down,2.0968334000062896,None,space,0.4128322000033222,None,0,2,2,9,,,,,,,,,728.2477885000117,,,,,,,,,,,,,728.232362300012,728.2477885000117,728.2477885000117,728.2477885000117,730.3468515000131,down,2.0968334000062896,None,730.3572365,730.367381300006,730.367381300006,730.4123529000062,730.4126785000117,730.4287911000138,730.4287911000138,730.4287911000138,730.512178200006,730.8464099000121,space,0.4128322000033222,None,,,,,,,,,,,,,,,,,,,,,,,,,P151,001,2025-04-11_11h55.29.878,posner_endo_new1,2024.2.4,60.054938258114454,2025-04-11 11h55.36.139302 +0100,
cube_r.png,0.1,0.31,valid,3,3,0,down,2.4424759999965318,None,space,0.2435546000051545,None,0,3,3,10,,,,,,,,,730.8618033000093,,,,,,,,,,,,,730.8466576000064,730.8618033000093,730.8618033000093,730.8618033000093,733.3104362000013,down,2.4424759999965318,None,733.3204404999997,733.3305355000048,733.3305355000048,733.3760238000104,733.3763512000005,733.3925709000032,733.3925709000032,733.3925709000032,733.4757706000091,733.6431412000093,space,0.2435546000051545,None,,,,,,,,,,,,,,,,,,,,,,,,,P151,001,2025-04-11_11h55.29.878,posner_endo_new1,2024.2.4,60.054938258114454,2025-04-11 11h55.36.139302 +0100,
cube_r.png,0.1,-0.31,invalid,4,4,0,down,2.373563400004059,None,space,0.2964623000007123,None,0,4,4,2,,,,,,,,,733.6588814000133,,,,,,,,,,,,,733.6433804000117,733.6588814000133,733.6588814000133,733.6588814000133,736.0409607000038,down,2.373563400004059,None,736.051083600003,736.0612371000025,736.0612371000025,736.106357200013,736.1066792000056,736.1230601000134,736.1230601000134,736.1230601000134,736.2063157000084,736.4238433000137,space,0.2964623000007123,None,,,,,,,,,,,,,,,,,,,,,,,,,P151,001,2025-04-11_11h55.29.878,posner_endo_new1,2024.2.4,60.054938258114454,2025-04-11 11h55.36.139302 +0100,
cube_l.png,0.1,0.31,invalid,5,5,0,down,2.5376719999912893,None,space,0.3380179999949178,None,0,5,5,5,,,,,,,,,736.4392836000043,,,,,,,,,,,,,736.4240863000014,736.4392836000043,736.4392836000043,736.4392836000043,738.9878565000108,down,2.5376719999912893,None,738.9978860000119,739.0081790000113,739.0081790000113,739.0535134000093,739.0538335000019,739.0698607000086,739.0698607000086,739.0698607000086,739.1532942000049,739.4208289000089,space,0.3380179999949178,None,,,,,,,,,,,,,,,,,,,,,,,,,P151,001,2025-04-11_11h55.29.878,posner_endo_new1,2024.2.4,60.054938258114454,2025-04-11 11h55.36.139302 +0100,
cube_l.png,0.1,-0.31,valid,6,6,0,down,3.7162518999975873,None,space,0.3244169999961741,None,0,6,6,8,,,,,,,,,739.4363338000112,,,,,,,,,,,,,739.4210720000119,739.4363338000112,739.4363338000112,739.4363338000112,743.1667496000009,down,3.7162518999975873,None,743.1766599000111,743.1867666000035,743.1867666000035,743.232542800004,743.2328641000058,743.2490978000133,743.2490978000133,743.2490978000133,743.3322578000079,743.5832056000072,space,0.3244169999961741,None,,,,,,,,,,,,,,,,,,,,,,,,,P151,001,2025-04-11_11h55.29.878,posner_endo_new1,2024.2.4,60.054938258114454,2025-04-11 11h55.36.139302 +0100,
cube_r.png,0.1,-0.31,invalid,7,7,0,down,4.577440599998226,None,space,0.19549289999122266,None,0,7,7,6,,,,,,,,,743.5987677000085,,,,,,,,,,,,,743.5834500000055,743.5987677000085,743.5987677000085,743.5987677000085,748.178797600005,down,4.577440599998226,None,748.1891356000124,748.1992244000139,748.1992244000139,748.2440525000129,748.2443767000077,748.2606182000018,748.2606182000018,748.2606182000018,748.3438313000079,748.4617219000065,space,0.19549289999122266,None,,,,,,,,,,,,,,,,,,,,,,,,,P151,001,2025-04-11_11h55.29.878,posner_endo_new1,2024.2.4,60.054938258114454,2025-04-11 11h55.36.139302 +0100,
cube_l.png,0.1,-0.31,valid,8,8,0,down,7.187087199999951,None,space,0.44694690000324044,None,0,8,8,4,,,,,,,,,748.4769974000083,,,,,,,,,,,,,748.4619705000077,748.4769974000083,748.4769974000083,748.4769974000083,755.6708580000122,down,7.187087199999951,None,755.6811854000116,755.6912951000122,755.6912951000122,755.7364834000036,755.7368068000069,755.7529371000128,755.7529371000128,755.7529371000128,755.8362011999998,756.2037340000097,space,0.44694690000324044,None,,,,,,,,,,,,,,,,,,,,,,,,,P151,001,2025-04-11_11h55.29.878,posner_endo_new1,2024.2.4,60.054938258114454,2025-04-11 11h55.36.139302 +0100,
cube_r.png,0.1,0.31,valid,9,9,0,down,2.4050741999963066,None,space,0.41248099999211263,None,0,9,9,7,,,,,,,,,756.2191752000072,,,,,,,,,,,,,756.2039835000032,756.2191752000072,756.2191752000072,756.2191752000072,758.6345830000064,down,2.4050741999963066,None,758.644724800004,758.6548638000095,758.6548638000095,758.7000743000099,758.7003964000032,758.7165280000045,758.7165280000045,758.7165280000045,758.7998103999998,759.1340269000066,space,0.41248099999211263,None,,,,,,,,,,,,,,,,,,,,,,,,,P151,001,2025-04-11_11h55.29.878,posner_endo_new1,2024.2.4,60.054938258114454,2025-04-11 11h55.36.139302 +0100,
cube_r.png,0.1,10,catch,10,10,0,down,3.6750449999963166,None,space,0.23017790001176763,None,0,10,10,3,,,,,,,,,759.149516000005,,,,,,,,,,,,,759.134269000002,759.149516000005,759.149516000005,759.149516000005,762.8301899000071,down,3.6750449999963166,None,762.8402220999997,762.8504422000115,762.8504422000115,762.8957048000011,762.8960337000026,762.9122227000043,762.9122227000043,762.9122227000043,762.995522000012,763.1465516000026,space,0.23017790001176763,None,,,,,,,,,,,,,,,,,,,,,,,,,P151,001,2025-04-11_11h55.29.878,posner_endo_new1,2024.2.4,60.054938258114454,2025-04-11 11h55.36.139302 +0100,
,,,,,,,,,,,,,,,,,,,,,,,,,,,,,,,,,,763.1467179000028,763.1620217000018,766.1751946000004,766.1429359000031,,,,,,,,,,,,,,,,,,,,,,,,,,,,,,,,,,,,,,,,,,,,,,P151,001,2025-04-11_11h55.29.878,posner_endo_new1,2024.2.4,60.054938258114454,2025-04-11 11h55.36.139302 +0100,
cube_l.png,0.1,10,catch,0,0,0,down,10.889412999997148,None,None,,,,,,,0,0,0,0,,,,,766.1751946000004,,,,,,,,,,,,,766.1648075000121,766.1751946000004,766.1751946000004,766.1751946000004,777.0674766000011,,,,777.0909675000003,777.1034088000015,777.1034088000015,777.1309357000137,777.1313463000115,777.1474497000017,777.1474497000017,777.1474497000017,777.2305160000105,780.1455633000005,,,,down,10.889412999997148,None,779.245172400013,780.1608856000094,780.1608856000094,780.1608856000094,None,,,,,,,,,,,,,,,,,P151,001,2025-04-11_11h55.29.878,posner_endo_new1,2024.2.4,60.054938258114454,2025-04-11 11h55.36.139302 +0100,
cube_l.png,0.1,10,catch,1,1,0,down,0.23176350000721868,None,None,,,,,,,0,1,1,1,,,,,780.1608856000094,,,,,,,,,,,,,780.1458680000069,780.1608856000094,780.1608856000094,780.1608856000094,780.3955338000087,,,,780.4083958000119,780.4185966000077,780.4185966000077,780.4607430000033,780.4611474000121,780.477211800011,780.477211800011,780.477211800011,780.5604485000076,783.4750063000101,,,,down,0.23176350000721868,None,782.5751097000029,783.4908035000117,783.4908035000117,783.4908035000117,None,,,,,,,,,,,,,,,,,P151,001,2025-04-11_11h55.29.878,posner_endo_new1,2024.2.4,60.054938258114454,2025-04-11 11h55.36.139302 +0100,
cube_l.png,0.1,0.31,invalid,2,2,0,down,0.021590100004686974,None,space,0.3831239999999525,None,,,,,0,2,2,2,,,,,783.4908035000117,,,,,,,,,,,,,783.4753422000067,783.4908035000117,783.4908035000117,783.4908035000117,783.5255150000012,,,,783.5386543000059,783.5487931000098,783.5487931000098,783.5908965000126,783.5913056000136,783.607322300013,783.607322300013,783.607322300013,783.6906022000039,783.9918794000114,,,,down,0.021590100004686974,None,,,,,space,0.3831239999999525,None,,,,,,,,,,,,,,,P151,001,2025-04-11_11h55.29.878,posner_endo_new1,2024.2.4,60.054938258114454,2025-04-11 11h55.36.139302 +0100,
cube_l.png,0.1,0.31,invalid,3,3,0,down,2.818173499996192,None,space,0.3559899999963818,None,,,,,0,3,3,3,,,,,784.0069471000024,,,,,,,,,,,,,783.992209700009,784.0069471000024,784.0069471000024,784.0069471000024,786.8387766000087,,,,786.8516454000055,786.8621319000085,786.8621319000085,786.9044388000038,786.9047145000077,786.9209601000039,786.9209601000039,786.9209601000039,787.0042503000004,787.2882448000018,,,,down,2.818173499996192,None,,,,,space,0.3559899999963818,None,,,,,,,,,,,,,,,P151,001,2025-04-11_11h55.29.878,posner_endo_new1,2024.2.4,60.054938258114454,2025-04-11 11h55.36.139302 +0100,
cube_l.png,0.1,-0.31,valid,4,4,0,down,2.103976700003841,None,space,0.4611031999957049,None,,,,,0,4,4,4,,,,,787.3038885000133,,,,,,,,,,,,,787.2884561000101,787.3038885000133,787.3038885000133,787.3038885000133,789.4195376000134,,,,789.4275635000085,789.4378678000066,789.4378678000066,789.4852054000075,789.4854828000098,789.5017066,789.5017066,789.5017066,789.5848837000085,789.9689481000096,,,,down,2.103976700003841,None,,,,,space,0.4611031999957049,None,,,,,,,,,,,,,,,P151,001,2025-04-11_11h55.29.878,posner_endo_new1,2024.2.4,60.054938258114454,2025-04-11 11h55.36.139302 +0100,
cube_r.png,0.1,-0.31,invalid,5,5,0,down,2.22505180000735,None,space,0.3309275999927195,None,,,,,0,5,5,5,,,,,789.9845681000006,,,,,,,,,,,,,789.9691620000085,789.9845681000006,789.9845681000006,789.9845681000006,792.2164713000093,,,,792.2245006000012,792.2351927000127,792.2351927000127,792.2823965000134,792.2826793000131,792.2988198000094,792.2988198000094,792.2988198000094,792.3821921000053,792.6326535000117,,,,down,2.22505180000735,None,,,,,space,0.3309275999927195,None,,,,,,,,,,,,,,,P151,001,2025-04-11_11h55.29.878,posner_endo_new1,2024.2.4,60.054938258114454,2025-04-11 11h55.36.139302 +0100,
cube_r.png,0.1,0.31,valid,6,6,0,down,2.513318099998287,None,space,0.17280440000467934,None,,,,,0,6,6,6,,,,,792.6484460000065,,,,,,,,,,,,,792.6328681000014,792.6484460000065,792.6484460000065,792.6484460000065,795.1636465000047,,,,795.1717072000029,795.1821752000105,795.1821752000105,795.2293250000075,795.2296059000073,795.2457739000092,795.2457739000092,795.2457739000092,795.3290209000115,795.4298816000082,,,,down,2.513318099998287,None,,,,,space,0.17280440000467934,None,,,,,,,,,,,,,,,P151,001,2025-04-11_11h55.29.878,posner_endo_new1,2024.2.4,60.054938258114454,2025-04-11 11h55.36.139302 +0100,
cube_r.png,0.1,-0.31,invalid,7,7,0,down,3.818643599995994,None,space,0.2320361000020057,None,,,,,0,7,7,7,,,,,795.4457479000121,,,,,,,,,,,,,795.4300953000056,795.4457479000121,795.4457479000121,795.4457479000121,799.2764074000006,,,,799.2844435000006,799.2946411000012,799.2946411000012,799.3417633000063,799.3420397000009,799.3582850000093,799.3582850000093,799.3582850000093,799.4414525000029,799.5925869000057,,,,down,3.818643599995994,None,,,,,space,0.2320361000020057,None,,,,,,,,,,,,,,,P151,001,2025-04-11_11h55.29.878,posner_endo_new1,2024.2.4,60.054938258114454,2025-04-11 11h55.36.139302 +0100,
cube_l.png,0.1,-0.31,valid,8,8,0,down,4.3279152999893995,None,space,0.25112559999979567,None,,,,,0,8,8,8,,,,,799.6081364000129,,,,,,,,,,,,,799.5927991000062,799.6081364000129,799.6081364000129,799.6081364000129,803.9380018000084,,,,803.9461182000086,803.9564475000079,803.9564475000079,804.0036174000124,804.0039030000044,804.0200598000083,804.0200598000083,804.0200598000083,804.1034918000078,804.2874832000089,,,,down,4.3279152999893995,None,,,,,space,0.25112559999979567,None,,,,,,,,,,,,,,,P151,001,2025-04-11_11h55.29.878,posner_endo_new1,2024.2.4,60.054938258114454,2025-04-11 11h55.36.139302 +0100,
cube_r.png,0.1,-0.31,invalid,9,9,0,down,2.6344848000007914,None,space,0.2966852999961702,None,,,,,0,9,9,9,,,,,804.303052400006,,,,,,,,,,,,,804.2876998000138,804.303052400006,804.303052400006,804.303052400006,806.9513963000063,,,,806.9595218000031,806.9700878000003,806.9700878000003,807.0172765000025,807.0175577000045,807.0338750000083,807.0338750000083,807.0338750000083,807.1170463000017,807.3342872000067,,,,down,2.6344848000007914,None,,,,,space,0.2966852999961702,None,,,,,,,,,,,,,,,P151,001,2025-04-11_11h55.29.878,posner_endo_new1,2024.2.4,60.054938258114454,2025-04-11 11h55.36.139302 +0100,
cube_l.png,0.1,0.31,invalid,10,10,0,down,5.890620000005583,None,space,0.2547521000087727,None,,,,,0,10,10,10,,,,,807.3501935000095,,,,,,,,,,,,,807.3345049000054,807.3501935000095,807.3501935000095,807.3501935000095,813.2450975000102,,,,813.2531947000098,813.2636511000019,813.2636511000019,813.3108890000003,813.3111668000056,813.3274283000064,813.3274283000064,813.3274283000064,813.4105423000001,813.5947337000107,,,,down,5.890620000005583,None,,,,,space,0.2547521000087727,None,,,,,,,,,,,,,,,P151,001,2025-04-11_11h55.29.878,posner_endo_new1,2024.2.4,60.054938258114454,2025-04-11 11h55.36.139302 +0100,
cube_r.png,0.1,-0.31,invalid,11,11,0,down,2.806506900000386,None,space,0.2947894999961136,None,,,,,0,11,11,11,,,,,813.6104381000041,,,,,,,,,,,,,813.5949510000064,813.6104381000041,813.6104381000041,813.6104381000041,816.4251656000124,,,,816.4332507000072,816.4436464000028,816.4436464000028,816.490859700003,816.4911485000048,816.5074408000073,816.5074408000073,816.5074408000073,816.5906582000025,816.8080499000062,,,,down,2.806506900000386,None,,,,,space,0.2947894999961136,None,,,,,,,,,,,,,,,P151,001,2025-04-11_11h55.29.878,posner_endo_new1,2024.2.4,60.054938258114454,2025-04-11 11h55.36.139302 +0100,
cube_r.png,0.1,0.31,valid,12,12,0,down,3.7286219999950845,None,space,0.19590279999829363,None,,,,,0,12,12,12,,,,,816.8237695999997,,,,,,,,,,,,,816.808265300002,816.8237695999997,816.8237695999997,816.8237695999997,820.5543823000044,,,,820.5625786000019,820.5728438000078,820.5728438000078,820.6199374000134,820.6202154000057,820.6363249000133,820.6363249000133,820.6363249000133,820.7197021000029,820.8374333000102,,,,down,3.7286219999950845,None,,,,,space,0.19590279999829363,None,,,,,,,,,,,,,,,P151,001,2025-04-11_11h55.29.878,posner_endo_new1,2024.2.4,60.054938258114454,2025-04-11 11h55.36.139302 +0100,
cube_l.png,0.1,10,catch,13,13,0,down,4.043408500001533,None,space,0.18233490000420716,None,,,,,0,13,13,13,,,,,820.852896100012,,,,,,,,,,,,,820.8376459000137,820.852896100012,820.852896100012,820.852896100012,824.8999594000052,,,,824.9082081000088,824.9184207000071,824.9184207000071,824.9655151000043,824.9657963000063,824.9821280000033,824.9821280000033,824.9821280000033,825.0652728000132,825.1662836000032,,,,down,4.043408500001533,None,,,,,space,0.18233490000420716,None,,,,,,,,,,,,,,,P151,001,2025-04-11_11h55.29.878,posner_endo_new1,2024.2.4,60.054938258114454,2025-04-11 11h55.36.139302 +0100,
cube_r.png,0.1,-0.31,invalid,14,14,0,down,5.482519600001979,None,space,0.22905789999640547,None,,,,,0,14,14,14,,,,,825.1818362000049,,,,,,,,,,,,,825.1665038000065,825.1818362000049,825.1818362000049,825.1818362000049,830.6771412000089,,,,830.6853971000091,830.6958780000132,830.6958780000132,830.7428864000103,830.7431749000098,830.7594072000065,830.7594072000065,830.7594072000065,830.8426618000085,830.9937653000088,,,,down,5.482519600001979,None,,,,,space,0.22905789999640547,None,,,,,,,,,,,,,,,P151,001,2025-04-11_11h55.29.878,posner_endo_new1,2024.2.4,60.054938258114454,2025-04-11 11h55.36.139302 +0100,
cube_l.png,0.1,-0.31,valid,15,15,0,down,2.7911624999978812,None,space,0.4457626999937929,None,,,,,0,15,15,15,,,,,831.0092625000107,,,,,,,,,,,,,830.9939792000077,831.0092625000107,831.0092625000107,831.0092625000107,833.8072212000116,,,,833.8153324000014,833.8260479000019,833.8260479000019,833.8731834000064,833.8734646000084,833.8896551000071,833.8896551000071,833.8896551000071,833.9728507000109,834.3403145000048,,,,down,2.7911624999978812,None,,,,,space,0.4457626999937929,None,,,,,,,,,,,,,,,P151,001,2025-04-11_11h55.29.878,posner_endo_new1,2024.2.4,60.054938258114454,2025-04-11 11h55.36.139302 +0100,
cube_r.png,0.1,10,catch,16,16,0,down,2.30836029999773,None,None,,,,,,,0,16,16,16,,,,,834.3558566000138,,,,,,,,,,,,,834.3405267000053,834.3558566000138,834.3558566000138,834.3558566000138,836.6710213000042,,,,836.679091500002,836.6897356000118,836.6897356000118,836.7367832000018,836.7370609000063,836.7534163000091,836.7534163000091,836.7534163000091,836.8365876000025,839.7508033000049,,,,down,2.30836029999773,None,838.8512197000091,839.7669943000074,839.7669943000074,839.7669943000074,None,,,,,,,,,,,,,,,,,P151,001,2025-04-11_11h55.29.878,posner_endo_new1,2024.2.4,60.054938258114454,2025-04-11 11h55.36.139302 +0100,
cube_r.png,0.1,10,catch,17,17,0,down,0.9535281999997096,None,None,,,,,,,0,17,17,17,,,,,839.7669943000074,,,,,,,,,,,,,839.7510114000033,839.7669943000074,839.7669943000074,839.7669943000074,840.733559500004,,,,840.7416268000088,840.752135600007,840.752135600007,840.799362900012,840.7996425000019,840.815820600008,840.815820600008,840.815820600008,840.8991702000058,843.8132919000054,,,,down,0.9535281999997096,None,842.9136900000012,843.8294906000083,843.8294906000083,843.8294906000083,None,,,,,,,,,,,,,,,,,P151,001,2025-04-11_11h55.29.878,posner_endo_new1,2024.2.4,60.054938258114454,2025-04-11 11h55.36.139302 +0100,
cube_l.png,0.1,0.31,invalid,18,18,0,down,1.1072974999988219,None,space,0.35044970001035836,None,,,,,0,18,18,18,,,,,843.8294906000083,,,,,,,,,,,,,843.8134922000027,843.8294906000083,843.8294906000083,843.8294906000083,844.9457791000023,,,,844.9539517000085,844.9646334999998,844.9646334999998,845.0116424000007,845.0119238000043,845.0282079000026,845.0282079000026,845.0282079000026,845.0946588000079,845.3954158000124,,,,down,1.1072974999988219,None,,,,,space,0.35044970001035836,None,,,,,,,,,,,,,,,P151,001,2025-04-11_11h55.29.878,posner_endo_new1,2024.2.4,60.054938258114454,2025-04-11 11h55.36.139302 +0100,
cube_l.png,0.1,10,catch,19,19,0,down,2.4610263999929884,None,None,,,,,,,0,19,19,19,,,,,845.4111097000132,,,,,,,,,,,,,845.3956338000135,845.4111097000132,845.4111097000132,845.4111097000132,847.8764157000114,,,,847.884524500012,847.8948381000082,847.8948381000082,847.9420665000071,847.9423475000076,847.9585762000061,847.9585762000061,847.9585762000061,848.0418353000132,850.9560369000101,,,,down,2.4610263999929884,None,850.056407400014,850.9719696000102,850.9719696000102,850.9719696000102,None,,,,,,,,,,,,,,,,,P151,001,2025-04-11_11h55.29.878,posner_endo_new1,2024.2.4,60.054938258114454,2025-04-11 11h55.36.139302 +0100,
cube_l.png,0.1,0.31,invalid,20,20,0,down,3.0765764999960084,None,space,0.31130210000264924,None,,,,,0,20,20,20,,,,,850.9719696000102,,,,,,,,,,,,,850.9562468000076,850.9719696000102,850.9719696000102,850.9719696000102,854.0533741000108,,,,854.0663436000032,854.0764753000112,854.0764753000112,854.1186850000086,854.1190905000112,854.1351802000136,854.1351802000136,854.1351802000136,854.2183885000122,854.4529562000098,,,,down,3.0765764999960084,None,,,,,space,0.31130210000264924,None,,,,,,,,,,,,,,,P151,001,2025-04-11_11h55.29.878,posner_endo_new1,2024.2.4,60.054938258114454,2025-04-11 11h55.36.139302 +0100,
cube_l.png,0.1,-0.31,valid,21,21,0,down,2.7806889999919804,None,space,0.34901360000367276,None,,,,,0,21,21,21,,,,,854.46817990001,,,,,,,,,,,,,854.4532906000095,854.46817990001,854.46817990001,854.46817990001,857.2502815000043,,,,857.2633480000077,857.2734905000107,857.2734905000107,857.3154529000021,857.3158653999999,857.3319106000126,857.3319106000126,857.3319106000126,857.4151585000072,857.6828347000119,,,,down,2.7806889999919804,None,,,,,space,0.34901360000367276,None,,,,,,,,,,,,,,,P151,001,2025-04-11_11h55.29.878,posner_endo_new1,2024.2.4,60.054938258114454,2025-04-11 11h55.36.139302 +0100,
cube_r.png,0.1,0.31,valid,22,22,0,down,2.966021499989438,None,space,0.3157041000085883,None,,,,,0,22,22,22,,,,,857.6985909000068,,,,,,,,,,,,,857.6830655000085,857.6985909000068,857.6985909000068,857.6985909000068,860.6798524000042,,,,860.6884565000073,860.6986849000095,860.6986849000095,860.7455913000013,860.7458843000059,860.7621216000116,860.7621216000116,860.7621216000116,860.8453911000106,861.0795851000003,,,,down,2.966021499989438,None,,,,,space,0.3157041000085883,None,,,,,,,,,,,,,,,P151,001,2025-04-11_11h55.29.878,posner_endo_new1,2024.2.4,60.054938258114454,2025-04-11 11h55.36.139302 +0100,
cube_r.png,0.1,-0.31,invalid,23,23,0,down,3.4093583000067156,None,space,0.28607289999490604,None,,,,,0,23,23,23,,,,,861.0951473000023,,,,,,,,,,,,,861.0798176000098,861.0951473000023,861.0951473000023,861.0951473000023,864.5093466000108,,,,864.5180217000016,864.5281442000123,864.5281442000123,864.5750098999997,864.575305300008,864.5913228000136,864.5913228000136,864.5913228000136,864.6747746000037,864.8922875000135,,,,down,3.4093583000067156,None,,,,,space,0.28607289999490604,None,,,,,,,,,,,,,,,P151,001,2025-04-11_11h55.29.878,posner_endo_new1,2024.2.4,60.054938258114454,2025-04-11 11h55.36.139302 +0100,
cube_r.png,0.1,0.31,valid,24,24,0,down,2.6928328999929363,None,space,0.3025830000115093,None,,,,,0,24,24,24,,,,,864.9079376000009,,,,,,,,,,,,,864.8925145000103,864.9079376000009,864.9079376000009,864.9079376000009,867.6061288000055,,,,867.6147853000002,867.624864700003,867.624864700003,867.6718054000085,867.6720972000039,867.6883448000008,867.6883448000008,867.6883448000008,867.7716568000033,868.005692900013,,,,down,2.6928328999929363,None,,,,,space,0.3025830000115093,None,,,,,,,,,,,,,,,P151,001,2025-04-11_11h55.29.878,posner_endo_new1,2024.2.4,60.054938258114454,2025-04-11 11h55.36.139302 +0100,
cube_r.png,0.1,-0.31,invalid,25,25,0,down,2.586607000004733,None,space,0.30032230001233984,None,,,,,0,25,25,25,,,,,868.0214547000069,,,,,,,,,,,,,868.0059237000096,868.0214547000069,868.0214547000069,868.0214547000069,870.6196220000129,,,,870.628271900001,870.6384223000059,870.6384223000059,870.6854939000041,870.685790500007,870.7019193000015,870.7019193000015,870.7019193000015,870.7851998000115,871.0191185000003,,,,down,2.586607000004733,None,,,,,space,0.30032230001233984,None,,,,,,,,,,,,,,,P151,001,2025-04-11_11h55.29.878,posner_endo_new1,2024.2.4,60.054938258114454,2025-04-11 11h55.36.139302 +0100,
cube_l.png,0.1,-0.31,valid,26,26,0,down,2.798944299996947,None,space,0.3438839000009466,None,,,,,0,26,26,26,,,,,871.0349324000126,,,,,,,,,,,,,871.01934910001,871.0349324000126,871.0349324000126,871.0349324000126,873.8497950000019,,,,873.8584408000024,873.8685655000008,873.8685655000008,873.9154788000014,873.9157699000061,873.9319181000028,873.9319181000028,873.9319181000028,874.0153592000133,874.2826006000105,,,,down,2.798944299996947,None,,,,,space,0.3438839000009466,None,,,,,,,,,,,,,,,P151,001,2025-04-11_11h55.29.878,posner_endo_new1,2024.2.4,60.054938258114454,2025-04-11 11h55.36.139302 +0100,
cube_r.png,0.1,0.31,valid,27,27,0,down,2.469477699996787,None,space,0.2936448999971617,None,,,,,0,27,27,27,,,,,874.2983760000061,,,,,,,,,,,,,874.2828321000125,874.2983760000061,874.2983760000061,874.2983760000061,876.7802213000105,,,,876.7888477000088,876.7991023000068,876.7991023000068,876.8459106000082,876.8462043000036,876.8623663000035,876.8623663000035,876.8623663000035,876.9456520000094,877.1630752000056,,,,down,2.469477699996787,None,,,,,space,0.2936448999971617,None,,,,,,,,,,,,,,,P151,001,2025-04-11_11h55.29.878,posner_endo_new1,2024.2.4,60.054938258114454,2025-04-11 11h55.36.139302 +0100,
cube_r.png,0.1,10,catch,28,28,0,down,2.4221459999971557,None,space,0.3282921000063652,None,,,,,0,28,28,28,,,,,877.17868740001,,,,,,,,,,,,,877.1633012000093,877.17868740001,877.17868740001,877.17868740001,879.6104310000082,,,,879.6192041000031,879.6294174000068,879.6294174000068,879.6763277000136,879.6766191000061,879.6928145000129,879.6928145000129,879.6928145000129,879.77624810001,880.0268875000038,,,,down,2.4221459999971557,None,,,,,space,0.3282921000063652,None,,,,,,,,,,,,,,,P151,001,2025-04-11_11h55.29.878,posner_endo_new1,2024.2.4,60.054938258114454,2025-04-11 11h55.36.139302 +0100,
cube_r.png,0.1,0.31,valid,29,29,0,down,2.5587400999938836,None,space,0.35252879999461584,None,,,,,0,29,29,29,,,,,880.0422900000121,,,,,,,,,,,,,880.0271180000127,880.0422900000121,880.0422900000121,880.0422900000121,882.6073477000027,,,,882.616016,882.6260233000066,882.6260233000066,882.6730865999998,882.6733849000011,882.6896608000097,882.6896608000097,882.6896608000097,882.7728735000128,883.056977100001,,,,down,2.5587400999938836,None,,,,,space,0.35252879999461584,None,,,,,,,,,,,,,,,P151,001,2025-04-11_11h55.29.878,posner_endo_new1,2024.2.4,60.054938258114454,2025-04-11 11h55.36.139302 +0100,
cube_r.png,0.1,0.31,valid,30,30,0,down,2.455874599996605,None,space,0.3423907000105828,None,,,,,0,30,30,30,,,,,883.0727235000086,,,,,,,,,,,,,883.057209400009,883.0727235000086,883.0727235000086,883.0727235000086,885.537811000002,,,,885.5464072000032,885.5564700000104,885.5564700000104,885.603500000012,885.6037978000095,885.620064600007,885.620064600007,885.620064600007,885.70326200001,885.9706988000107,,,,down,2.455874599996605,None,,,,,space,0.3423907000105828,None,,,,,,,,,,,,,,,P151,001,2025-04-11_11h55.29.878,posner_endo_new1,2024.2.4,60.054938258114454,2025-04-11 11h55.36.139302 +0100,
cube_l.png,0.1,-0.31,valid,31,31,0,down,2.7102771000063512,None,space,0.40092609998828266,None,,,,,0,31,31,31,,,,,885.9863948000129,,,,,,,,,,,,,885.9709232000023,885.9863948000129,885.9863948000129,885.9863948000129,888.7013779000117,,,,888.7100157000095,888.7200737000094,888.7200737000094,888.7669960000057,888.7672968000115,888.7835145000136,888.7835145000136,888.7835145000136,888.8666790999996,889.2007499000028,,,,down,2.7102771000063512,None,,,,,space,0.40092609998828266,None,,,,,,,,,,,,,,,P151,001,2025-04-11_11h55.29.878,posner_endo_new1,2024.2.4,60.054938258114454,2025-04-11 11h55.36.139302 +0100,
cube_r.png,0.1,0.31,valid,32,32,0,down,2.512009499987471,None,space,0.3051104999904055,None,,,,,0,32,32,32,,,,,889.2164054000023,,,,,,,,,,,,,889.2009798000072,889.2164054000023,889.2164054000023,889.2164054000023,891.7313175000018,,,,891.739911800003,891.7500422000012,891.7500422000012,891.7971416000073,891.7974371000018,891.8137034000101,891.8137034000101,891.8137034000101,891.8970274000021,892.131116900011,,,,down,2.512009499987471,None,,,,,space,0.3051104999904055,None,,,,,,,,,,,,,,,P151,001,2025-04-11_11h55.29.878,posner_endo_new1,2024.2.4,60.054938258114454,2025-04-11 11h55.36.139302 +0100,
cube_r.png,0.1,-0.31,invalid,33,33,0,down,2.6300209000037285,None,space,0.2611137000058079,None,,,,,0,33,33,33,,,,,892.1466112000053,,,,,,,,,,,,,892.1313437000063,892.1466112000053,892.1466112000053,892.1466112000053,894.7787550000066,,,,894.7874575000023,894.797542100001,894.797542100001,894.8441834000114,894.8444769000052,894.860571000012,894.860571000012,894.860571000012,894.9438820000069,895.1280883,,,,down,2.6300209000037285,None,,,,,space,0.2611137000058079,None,,,,,,,,,,,,,,,P151,001,2025-04-11_11h55.29.878,posner_endo_new1,2024.2.4,60.054938258114454,2025-04-11 11h55.36.139302 +0100,
cube_r.png,0.1,10,catch,34,34,0,down,2.6328363999928115,None,None,,,,,,,0,34,34,34,,,,,895.1436138999998,,,,,,,,,,,,,895.1283160000021,895.1436138999998,895.1436138999998,895.1436138999998,897.791982900002,,,,897.800619600006,897.8106760000082,897.8106760000082,897.857525600004,897.8578195000009,897.8742497000057,897.8742497000057,897.8742497000057,897.9573739000043,900.8718070000032,,,,down,2.6328363999928115,None,899.9719202000124,900.8877121000114,900.8877121000114,900.8877121000114,None,,,,,,,,,,,,,,,,,P151,001,2025-04-11_11h55.29.878,posner_endo_new1,2024.2.4,60.054938258114454,2025-04-11 11h55.36.139302 +0100,
cube_r.png,0.1,0.31,valid,35,35,0,down,0.44898169999942183,None,space,0.32514410000294447,None,,,,,0,35,35,35,,,,,900.8877121000114,,,,,,,,,,,,,900.8720205999998,900.8877121000114,900.8877121000114,900.8877121000114,901.3385307000135,,,,901.3472209000029,901.3573019000032,901.3573019000032,901.4039962000097,901.4042890000128,901.4204858000012,901.4204858000012,901.4204858000012,901.503710200006,901.7546037000138,,,,down,0.44898169999942183,None,,,,,space,0.32514410000294447,None,,,,,,,,,,,,,,,P151,001,2025-04-11_11h55.29.878,posner_endo_new1,2024.2.4,60.054938258114454,2025-04-11 11h55.36.139302 +0100,
cube_r.png,0.1,-0.31,invalid,36,36,0,down,3.214833899997757,None,space,0.3554842000012286,None,,,,,0,36,36,36,,,,,901.7702497999999,,,,,,,,,,,,,901.7548335000029,901.7702497999999,901.7702497999999,901.7702497999999,905.0010854000138,,,,905.0097810000007,905.0198762000073,905.0198762000073,905.066893500014,905.0671928000083,905.0834402000037,905.0834402000037,905.0834402000037,905.1666765000118,905.4507542000065,,,,down,3.214833899997757,None,,,,,space,0.3554842000012286,None,,,,,,,,,,,,,,,P151,001,2025-04-11_11h55.29.878,posner_endo_new1,2024.2.4,60.054938258114454,2025-04-11 11h55.36.139302 +0100,
cube_l.png,0.1,0.31,invalid,37,37,0,down,2.7576975999982096,None,space,0.36607489999732934,None,,,,,0,37,37,37,,,,,905.4663949000096,,,,,,,,,,,,,905.4509872000053,905.4663949000096,905.4663949000096,905.4663949000096,908.2310758000094,,,,908.2397482000088,908.2499409000011,908.2499409000011,908.2969394000102,908.2972475000133,908.3135044000082,908.3135044000082,908.3135044000082,908.380086300007,908.68101510001,,,,down,2.7576975999982096,None,,,,,space,0.36607489999732934,None,,,,,,,,,,,,,,,P151,001,2025-04-11_11h55.29.878,posner_endo_new1,2024.2.4,60.054938258114454,2025-04-11 11h55.36.139302 +0100,
cube_l.png,0.1,0.31,invalid,38,38,0,down,2.471919000003254,None,space,0.45851260000199545,None,,,,,0,38,38,38,,,,,908.6963195999997,,,,,,,,,,,,,908.6812398000038,908.6963195999997,908.6963195999997,908.6963195999997,911.178106300009,,,,911.1867742000031,911.1968462000077,911.1968462000077,911.2439697000082,911.2442687000002,911.2605079000059,911.2605079000059,911.2605079000059,911.3437694000022,911.7276736000058,,,,down,2.471919000003254,None,,,,,space,0.45851260000199545,None,,,,,,,,,,,,,,,P151,001,2025-04-11_11h55.29.878,posner_endo_new1,2024.2.4,60.054938258114454,2025-04-11 11h55.36.139302 +0100,
cube_r.png,0.1,0.31,valid,39,39,0,down,2.6581237000063993,None,space,0.39404080000531394,None,,,,,0,39,39,39,,,,,911.743294800006,,,,,,,,,,,,,911.7278986000019,911.743294800006,911.743294800006,911.743294800006,914.4083496000094,,,,914.4169619000022,914.4272587000014,914.4272587000014,914.4738843000086,914.4741783000063,914.4904438000085,914.4904438000085,914.4904438000085,914.573648000005,914.8911264000053,,,,down,2.6581237000063993,None,,,,,space,0.39404080000531394,None,,,,,,,,,,,,,,,P151,001,2025-04-11_11h55.29.878,posner_endo_new1,2024.2.4,60.054938258114454,2025-04-11 11h55.36.139302 +0100,
cube_l.png,0.1,0.31,invalid,40,40,0,down,3.1092406999960076,None,space,0.31428170000435784,None,,,,,0,40,40,40,,,,,914.9067515000061,,,,,,,,,,,,,914.8913570000004,914.9067515000061,914.9067515000061,914.9067515000061,918.0213015000045,,,,918.0302201000013,918.0402848000085,918.0402848000085,918.0868427000096,918.0871337000135,918.1035164000059,918.1035164000059,918.1035164000059,918.186629200005,918.4207912000129,,,,down,3.1092406999960076,None,,,,,space,0.31428170000435784,None,,,,,,,,,,,,,,,P151,001,2025-04-11_11h55.29.878,posner_endo_new1,2024.2.4,60.054938258114454,2025-04-11 11h55.36.139302 +0100,
cube_l.png,0.1,10,catch,41,41,0,down,2.595830999998725,None,None,,,,,,,0,41,41,41,,,,,918.4364076000056,,,,,,,,,,,,,918.4210163000098,918.4364076000056,918.4364076000056,918.4364076000056,921.0349491000088,,,,921.043593600014,921.0538129000051,921.0538129000051,921.1004603000038,921.100754500003,921.116992500014,921.116992500014,921.116992500014,921.2003717000043,924.1146547000099,,,,down,2.595830999998725,None,923.2148683000123,924.1305516000139,924.1305516000139,924.1305516000139,None,,,,,,,,,,,,,,,,,P151,001,2025-04-11_11h55.29.878,posner_endo_new1,2024.2.4,60.054938258114454,2025-04-11 11h55.36.139302 +0100,
cube_l.png,0.1,-0.31,valid,42,42,0,down,0.12717999999586027,None,space,0.3955744999984745,None,,,,,0,42,42,42,,,,,924.1305516000139,,,,,,,,,,,,,924.1148692000133,924.1305516000139,924.1305516000139,924.1305516000139,924.2648440000048,,,,924.2735456000082,924.2837278000079,924.2837278000079,924.3305540000001,924.3308564000035,924.3470963,924.3470963,924.3470963,924.4303044000117,924.7477948000014,,,,down,0.12717999999586027,None,,,,,space,0.3955744999984745,None,,,,,,,,,,,,,,,P151,001,2025-04-11_11h55.29.878,posner_endo_new1,2024.2.4,60.054938258114454,2025-04-11 11h55.36.139302 +0100,
cube_l.png,0.1,10,catch,43,43,0,down,2.5091694000002462,None,None,,,,,,,0,43,43,43,,,,,924.7632975000015,,,,,,,,,,,,,924.7480212000082,924.7632975000015,924.7632975000015,924.7632975000015,927.2786112000031,,,,927.2872798000026,927.2974429000024,927.2974429000024,927.3442128000024,927.3445131000044,927.3607359000016,927.3607359000016,927.3607359000016,927.4439328000008,930.3582427000074,,,,down,2.5091694000002462,None,929.4585770000122,930.374217900011,930.374217900011,930.374217900011,None,,,,,,,,,,,,,,,,,P151,001,2025-04-11_11h55.29.878,posner_endo_new1,2024.2.4,60.054938258114454,2025-04-11 11h55.36.139302 +0100,
cube_l.png,0.1,0.31,invalid,44,44,0,down,0.3701234000036493,None,space,0.31482040000264533,None,,,,,0,44,44,44,,,,,930.374217900011,,,,,,,,,,,,,930.3584579000017,930.374217900011,930.374217900011,930.374217900011,930.7581023000093,,,,930.7667639000138,930.7772385000135,930.7772385000135,930.8239936000027,930.8242963000084,930.8403717000037,930.8403717000037,930.8403717000037,930.9236380000075,931.1578743999999,,,,down,0.3701234000036493,None,,,,,space,0.31482040000264533,None,,,,,,,,,,,,,,,P151,001,2025-04-11_11h55.29.878,posner_endo_new1,2024.2.4,60.054938258114454,2025-04-11 11h55.36.139302 +0100,
cube_l.png,0.1,0.31,invalid,45,45,0,down,3.1952213999902597,None,space,0.32420669999555685,None,,,,,0,45,45,45,,,,,931.1734041000018,,,,,,,,,,,,,931.1581012000097,931.1734041000018,931.1734041000018,931.1734041000018,934.3712847999996,,,,934.3799659000069,934.3901791000098,934.3901791000098,934.4367254000099,934.4370197000098,934.4534897000121,934.4534897000121,934.4534897000121,934.5365410000086,934.7873924000014,,,,down,3.1952213999902597,None,,,,,space,0.32420669999555685,None,,,,,,,,,,,,,,,P151,001,2025-04-11_11h55.29.878,posner_endo_new1,2024.2.4,60.054938258114454,2025-04-11 11h55.36.139302 +0100,
cube_r.png,0.1,0.31,valid,46,46,0,down,2.2137340000044787,None,space,0.4342884999932721,None,,,,,0,46,46,46,,,,,934.8030514000129,,,,,,,,,,,,,934.7876171000098,934.8030514000129,934.8030514000129,934.8030514000129,937.0185563000123,,,,937.0271938000078,937.037407900003,937.037407900003,937.0842092000094,937.0844974000065,937.100620600002,937.100620600002,937.100620600002,937.1839035000012,937.5512220000091,,,,down,2.2137340000044787,None,,,,,space,0.4342884999932721,None,,,,,,,,,,,,,,,P151,001,2025-04-11_11h55.29.878,posner_endo_new1,2024.2.4,60.054938258114454,2025-04-11 11h55.36.139302 +0100,
cube_l.png,0.1,-0.31,valid,47,47,0,down,2.3937505000067176,None,space,0.3538875999947777,None,,,,,0,47,47,47,,,,,937.5668205000111,,,,,,,,,,,,,937.5514449000038,937.5668205000111,937.5668205000111,937.5668205000111,939.9656066000025,,,,939.9743841000018,939.9845077000064,939.9845077000064,940.0311819000053,940.0314798000036,940.0476301000017,940.0476301000017,940.0476301000017,940.1310133000079,940.4149744000024,,,,down,2.3937505000067176,None,,,,,space,0.3538875999947777,None,,,,,,,,,,,,,,,P151,001,2025-04-11_11h55.29.878,posner_endo_new1,2024.2.4,60.054938258114454,2025-04-11 11h55.36.139302 +0100,
cube_r.png,0.1,-0.31,invalid,48,48,0,down,2.6659557000093628,None,space,0.31826479999290314,None,,,,,0,48,48,48,,,,,940.4304877000104,,,,,,,,,,,,,940.4151988000085,940.4304877000104,940.4304877000104,940.4304877000104,943.1122694000078,,,,943.120997200007,943.1311384,943.1311384,943.1779976000107,943.178301100008,943.1943579000072,943.1943579000072,943.1943579000072,943.2781688000105,943.528395100002,,,,down,2.6659557000093628,None,,,,,space,0.31826479999290314,None,,,,,,,,,,,,,,,P151,001,2025-04-11_11h55.29.878,posner_endo_new1,2024.2.4,60.054938258114454,2025-04-11 11h55.36.139302 +0100,
cube_r.png,0.1,10,catch,49,49,0,down,2.5845150999957696,None,None,,,,,,,0,49,49,49,,,,,943.5441143000062,,,,,,,,,,,,,943.528621800011,943.5441143000062,943.5441143000062,943.5441143000062,946.142357100005,,,,946.1511308000045,946.1616880000074,946.1616880000074,946.2081927000108,946.2084837000002,946.2245781000092,946.2245781000092,946.2245781000092,946.3079673000029,949.2222168000008,,,,down,2.5845150999957696,None,948.3225879000092,949.2382786000089,949.2382786000089,949.2382786000089,None,,,,,,,,,,,,,,,,,P151,001,2025-04-11_11h55.29.878,posner_endo_new1,2024.2.4,60.054938258114454,2025-04-11 11h55.36.139302 +0100,
cube_l.png,0.1,-0.31,valid,50,50,0,down,0.09856110000691842,None,space,0.23049380000156816,None,,,,,0,50,50,50,,,,,949.2382786000089,,,,,,,,,,,,,949.2224349000026,949.2382786000089,949.2382786000089,949.2382786000089,949.3393151000055,,,,949.3479891000025,949.3582227000006,949.3582227000006,949.4048592000036,949.4051514000021,949.4214689000073,949.4214689000073,949.4214689000073,949.5046735000069,949.6556638000038,,,,down,0.09856110000691842,None,,,,,space,0.23049380000156816,None,,,,,,,,,,,,,,,P151,001,2025-04-11_11h55.29.878,posner_endo_new1,2024.2.4,60.054938258114454,2025-04-11 11h55.36.139302 +0100,
cube_l.png,0.1,-0.31,valid,51,51,0,down,3.249594499997329,None,space,0.3354747999983374,None,,,,,0,51,51,51,,,,,949.6712208000099,,,,,,,,,,,,,949.6559041,949.6712208000099,949.6712208000099,949.6712208000099,952.9354089000117,,,,952.9417514000088,952.953404800006,952.953404800006,953.0010247000027,953.0012634000013,953.017781100003,953.017781100003,953.017781100003,953.1010600000009,953.3681448999996,,,,down,3.249594499997329,None,,,,,space,0.3354747999983374,None,,,,,,,,,,,,,,,P151,001,2025-04-11_11h55.29.878,posner_endo_new1,2024.2.4,60.054938258114454,2025-04-11 11h55.36.139302 +0100,
cube_r.png,0.1,-0.31,invalid,52,52,0,down,2.9690274000022328,None,space,0.24716199999966193,None,,,,,0,52,52,52,,,,,953.3838227000087,,,,,,,,,,,,,953.3683204000117,953.3838227000087,953.3838227000087,953.3838227000087,956.3650993000047,,,,956.3712945000007,956.3828226000041,956.3828226000041,956.4310115000117,956.4312510000018,956.4475050000037,956.4475050000037,956.4475050000037,956.5306624000077,956.6982121000037,,,,down,2.9690274000022328,None,,,,,space,0.24716199999966193,None,,,,,,,,,,,,,,,P151,001,2025-04-11_11h55.29.878,posner_endo_new1,2024.2.4,60.054938258114454,2025-04-11 11h55.36.139302 +0100,
cube_l.png,0.1,-0.31,valid,53,53,0,down,2.9419632000062848,None,space,0.2879042999993544,None,,,,,0,53,53,53,,,,,956.713962400012,,,,,,,,,,,,,956.6983947000117,956.713962400012,956.713962400012,956.713962400012,959.6618044000061,,,,959.6680176000082,959.6796503000078,959.6796503000078,959.7275733000133,959.7278117000096,959.7441023000138,959.7441023000138,959.7441023000138,959.8273812000116,960.0446757000027,,,,down,2.9419632000062848,None,,,,,space,0.2879042999993544,None,,,,,,,,,,,,,,,P151,001,2025-04-11_11h55.29.878,posner_endo_new1,2024.2.4,60.054938258114454,2025-04-11 11h55.36.139302 +0100,
cube_r.png,0.1,10,catch,54,54,0,down,2.515975000002072,None,None,,,,,,,0,54,54,54,,,,,960.0604180000082,,,,,,,,,,,,,960.0448498000042,960.0604180000082,960.0604180000082,960.0604180000082,962.5921229000087,,,,962.5983435000089,962.6099607000069,962.6099607000069,962.6579955000052,962.6582463000086,962.6743831000058,962.6743831000058,962.6743831000058,962.7577062000055,965.6719128000113,,,,down,2.515975000002072,None,964.772352800006,965.688203200014,965.688203200014,965.688203200014,None,,,,,,,,,,,,,,,,,P151,001,2025-04-11_11h55.29.878,posner_endo_new1,2024.2.4,60.054938258114454,2025-04-11 11h55.36.139302 +0100,
cube_l.png,0.1,0.31,invalid,55,55,0,down,3.8077339000010397,None,space,0.3193235999933677,None,,,,,0,55,55,55,,,,,965.688203200014,,,,,,,,,,,,,965.6720755000133,965.688203200014,965.688203200014,965.688203200014,969.5017100000114,,,,969.5080489000102,969.5196943000046,969.5196943000046,969.5675757999998,969.5678148000006,969.5839367000008,969.5839367000008,969.5839367000008,969.6673890000093,969.9179602000077,,,,down,3.8077339000010397,None,,,,,space,0.3193235999933677,None,,,,,,,,,,,,,,,P151,001,2025-04-11_11h55.29.878,posner_endo_new1,2024.2.4,60.054938258114454,2025-04-11 11h55.36.139302 +0100,
cube_l.png,0.1,-0.31,valid,56,56,0,down,7.227208199998131,None,space,0.28247669999836944,None,,,,,0,56,56,56,,,,,969.9338146000082,,,,,,,,,,,,,969.9181353000022,969.9338146000082,969.9338146000082,969.9338146000082,977.1770708000113,,,,977.183418200002,977.1948842000129,977.1948842000129,977.2431556000083,977.2433979000052,977.2595968000096,977.2595968000096,977.2595968000096,977.3261731000093,977.5436871000129,,,,down,7.227208199998131,None,,,,,space,0.28247669999836944,None,,,,,,,,,,,,,,,P151,001,2025-04-11_11h55.29.878,posner_endo_new1,2024.2.4,60.054938258114454,2025-04-11 11h55.36.139302 +0100,
cube_r.png,0.1,0.31,valid,57,57,0,down,3.4737358999991557,None,space,0.34610690000408795,None,,,,,0,57,57,57,,,,,977.5591905000038,,,,,,,,,,,,,977.5438609000121,977.5591905000038,977.5591905000038,977.5591905000038,981.0397192000091,,,,981.0460094000009,981.0575578999997,981.0575578999997,981.1056662000046,981.1059043000132,981.1223995000037,981.1223995000037,981.1223995000037,981.1889186000044,981.4728074000013,,,,down,3.4737358999991557,None,,,,,space,0.34610690000408795,None,,,,,,,,,,,,,,,P151,001,2025-04-11_11h55.29.878,posner_endo_new1,2024.2.4,60.054938258114454,2025-04-11 11h55.36.139302 +0100,
cube_r.png,0.1,-0.31,invalid,58,58,0,down,2.7766526999912458,None,space,0.298643499991158,None,,,,,0,58,58,58,,,,,981.4887332000071,,,,,,,,,,,,,981.4729859000072,981.4887332000071,981.4887332000071,981.4887332000071,984.269989700013,,,,984.2765218000131,984.2880794000084,984.2880794000084,984.3359512000025,984.3361891000095,984.352440600007,984.352440600007,984.352440600007,984.4353974000114,984.6528694000008,,,,down,2.7766526999912458,None,,,,,space,0.298643499991158,None,,,,,,,,,,,,,,,P151,001,2025-04-11_11h55.29.878,posner_endo_new1,2024.2.4,60.054938258114454,2025-04-11 11h55.36.139302 +0100,
cube_l.png,0.1,0.31,invalid,59,59,0,down,4.635805999991135,None,space,0.27931109999190085,None,,,,,0,59,59,59,,,,,984.6686135000054,,,,,,,,,,,,,984.6530479000066,984.6686135000054,984.6686135000054,984.6686135000054,989.314876400007,,,,989.3212622000137,989.3329933000059,989.3329933000059,989.3808392000064,989.3810812000011,989.3971799000137,989.3971799000137,989.3971799000137,989.480275000009,989.6810158000008,,,,down,4.635805999991135,None,,,,,space,0.27931109999190085,None,,,,,,,,,,,,,,,P151,001,2025-04-11_11h55.29.878,posner_endo_new1,2024.2.4,60.054938258114454,2025-04-11 11h55.36.139302 +0100,
,,,,,,,,,,,,,,,,,,,,,,,,,,,,,,,,,,,,,,,,,,,,,,,,,,,,,,,,,,,,,,,,,,,,,989.681129900011,989.696997600011,989.696997600011,1049.7020520000078,1051.4178697000025,space,61.704403900002944,None,,,,,,,P151,001,2025-04-11_11h55.29.878,posner_endo_new1,2024.2.4,60.054938258114454,2025-04-11 11h55.36.139302 +0100,
,,,,,,,,,,,,,,,,,,,,,,,,,,,,,,,,,,1051.4179268000007,1051.4331982000003,1054.4994641000085,1054.4143617000082,,,,,,,,,,,,,,,,,,,,,,,,,,,,,,,,,,,,,,,,,,,,,,P151,001,2025-04-11_11h55.29.878,posner_endo_new1,2024.2.4,60.054938258114454,2025-04-11 11h55.36.139302 +0100,
cube_l.png,0.1,10,catch,0,0,0,up,0.837232199992286,None,None,,,,,,,,,,,0,0,0,0,1054.4994641000085,,,,,,,,,,,,,1054.4911582000059,1054.4994641000085,1054.4994641000085,1054.4994641000085,1055.3472462000063,,,,1055.3536152000015,1055.36523570001,1055.36523570001,1055.4129240000038,1055.4131659000122,1055.429607500002,1055.429607500002,1055.429607500002,1055.5128238000034,1058.4270252000133,,,,,,,1057.5276044000057,1058.4432271000114,1058.4432271000114,1058.4432271000114,,,,,,,,,,,,up,0.837232199992286,None,None,,,P151,001,2025-04-11_11h55.29.878,posner_endo_new1,2024.2.4,60.054938258114454,2025-04-11 11h55.36.139302 +0100,
cube_l.png,0.1,10,catch,1,1,0,up,3.7095827000011923,None,None,,,,,,,,,,,0,1,1,1,1058.4432271000114,,,,,,,,,,,,,1058.4271940000035,1058.4432271000114,1058.4432271000114,1058.4432271000114,1062.1569555000024,,,,1062.1631272000086,1062.1747518000047,1062.1747518000047,1062.2225623000122,1062.2228058000037,1062.239226900012,1062.239226900012,1062.239226900012,1062.322456000009,1065.2367739000038,,,,,,,1064.3371717000118,1065.2529009999998,1065.2529009999998,1065.2529009999998,,,,,,,,,,,,up,3.7095827000011923,None,None,,,P151,001,2025-04-11_11h55.29.878,posner_endo_new1,2024.2.4,60.054938258114454,2025-04-11 11h55.36.139302 +0100,
cube_l.png,0.1,0.31,invalid,2,2,0,up,0.28367370000341907,None,space,0.3660937999957241,None,,,,,,,,,0,2,2,2,1065.2529009999998,,,,,,,,,,,,,1065.2369455000007,1065.2529009999998,1065.2529009999998,1065.2529009999998,1065.5534640000114,,,,1065.5597283000097,1065.5711723000131,1065.5711723000131,1065.6192531000124,1065.619498400003,1065.6359060000104,1065.6359060000104,1065.6359060000104,1065.718959100006,1066.0030515000108,,,,,,,,,,,,,,,,,,,,,,up,0.28367370000341907,None,space,0.3660937999957241,None,P151,001,2025-04-11_11h55.29.878,posner_endo_new1,2024.2.4,60.054938258114454,2025-04-11 11h55.36.139302 +0100,
cube_l.png,0.1,0.31,invalid,3,3,0,up,2.4772821000078693,None,space,0.4108215000014752,None,,,,,,,,,0,3,3,3,1066.01884650001,,,,,,,,,,,,,1066.0032333000127,1066.01884650001,1066.01884650001,1066.01884650001,1068.5002729000116,,,,1068.506405600012,1068.5178967000102,1068.5178967000102,1068.5663337000005,1068.5665786000027,1068.5827336000075,1068.5827336000075,1068.5827336000075,1068.6493362000037,1068.9997042000032,,,,,,,,,,,,,,,,,,,,,,up,2.4772821000078693,None,space,0.4108215000014752,None,P151,001,2025-04-11_11h55.29.878,posner_endo_new1,2024.2.4,60.054938258114454,2025-04-11 11h55.36.139302 +0100,
cube_l.png,0.1,-0.31,valid,4,4,0,up,2.584612200007541,None,space,0.37338140000065323,None,,,,,,,,,0,4,4,4,1069.0158295,,,,,,,,,,,,,1068.999883700002,1069.0158295,1069.0158295,1069.0158295,1071.6138213000086,,,,1071.6200399000081,1071.6315988999995,1071.6315988999995,1071.679813300012,1071.6800580000127,1071.6961498000019,1071.6961498000019,1071.6961498000019,1071.7628841000114,1072.079972300009,,,,,,,,,,,,,,,,,,,,,,up,2.584612200007541,None,space,0.37338140000065323,None,P151,001,2025-04-11_11h55.29.878,posner_endo_new1,2024.2.4,60.054938258114454,2025-04-11 11h55.36.139302 +0100,
cube_r.png,0.1,-0.31,invalid,5,5,0,up,2.1521322000044165,None,space,0.3281778999953531,None,,,,,,,,,0,5,5,5,1072.0959346000018,,,,,,,,,,,,,1072.0801525999996,1072.0959346000018,1072.0959346000018,1072.0959346000018,1074.261069500004,,,,1074.267309700008,1074.2793130000064,1074.2793130000064,1074.3268985000032,1074.3271393000032,1074.3435624000122,1074.3435624000122,1074.3435624000122,1074.4101703000051,1074.6775841000053,,,,,,,,,,,,,,,,,,,,,,up,2.1521322000044165,None,space,0.3281778999953531,None,P151,001,2025-04-11_11h55.29.878,posner_endo_new1,2024.2.4,60.054938258114454,2025-04-11 11h55.36.139302 +0100,
cube_r.png,0.1,0.31,valid,6,6,0,up,3.427630299993325,None,space,0.3007166000024881,None,,,,,,,,,0,6,6,6,1074.6931333000102,,,,,,,,,,,,,1074.6777685000125,1074.6931333000102,1074.6931333000102,1074.6931333000102,1078.1238483000052,,,,1078.1300833000132,1078.141588100014,1078.141588100014,1078.1895618000126,1078.1898004000104,1078.2062858000136,1078.2062858000136,1078.2062858000136,1078.2895416000101,1078.5233156000031,,,,,,,,,,,,,,,,,,,,,,up,3.427630299993325,None,space,0.3007166000024881,None,P151,001,2025-04-11_11h55.29.878,posner_endo_new1,2024.2.4,60.054938258114454,2025-04-11 11h55.36.139302 +0100,
cube_r.png,0.1,-0.31,invalid,7,7,0,up,2.7413489000027766,None,space,0.29567550000501797,None,,,,,,,,,0,7,7,7,1078.5393376000138,,,,,,,,,,,,,1078.5235017000086,1078.5393376000138,1078.5393376000138,1078.5393376000138,1081.2872081000096,,,,1081.2934029000025,1081.3046735000098,1081.3046735000098,1081.3531724000059,1081.3534130000044,1081.3696060000075,1081.3696060000075,1081.3696060000075,1081.4364126,1081.6703497000126,,,,,,,,,,,,,,,,,,,,,,up,2.7413489000027766,None,space,0.29567550000501797,None,P151,001,2025-04-11_11h55.29.878,posner_endo_new1,2024.2.4,60.054938258114454,2025-04-11 11h55.36.139302 +0100,
cube_l.png,0.1,-0.31,valid,8,8,0,up,4.6746060000004945,None,space,0.2955928000010317,None,,,,,,,,,0,8,8,8,1081.6861235000106,,,,,,,,,,,,,1081.670528200004,1081.6861235000106,1081.6861235000106,1081.6861235000106,1086.3654676000006,,,,1086.3716731000022,1086.3832253,1086.3832253,1086.4312260000006,1086.4314676000067,1086.447820900008,1086.447820900008,1086.447820900008,1086.5312193000136,1086.7485176000046,,,,,,,,,,,,,,,,,,,,,,up,4.6746060000004945,None,space,0.2955928000010317,None,P151,001,2025-04-11_11h55.29.878,posner_endo_new1,2024.2.4,60.054938258114454,2025-04-11 11h55.36.139302 +0100,
cube_r.png,0.1,-0.31,invalid,9,9,0,up,2.4516758999961894,None,space,0.3616487999970559,None,,,,,,,,,0,9,9,9,1086.7643460000108,,,,,,,,,,,,,1086.7486987000011,1086.7643460000108,1086.7643460000108,1086.7643460000108,1089.229256400009,,,,1089.2354736000125,1089.2470969999995,1089.2470969999995,1089.2950025000027,1089.295245900008,1089.311646800008,1089.311646800008,1089.311646800008,1089.3948130000063,1089.6788639000006,,,,,,,,,,,,,,,,,,,,,,up,2.4516758999961894,None,space,0.3616487999970559,None,P151,001,2025-04-11_11h55.29.878,posner_endo_new1,2024.2.4,60.054938258114454,2025-04-11 11h55.36.139302 +0100,
cube_l.png,0.1,0.31,invalid,10,10,0,up,2.970108599998639,None,space,0.36004649999085814,None,,,,,,,,,0,10,10,10,1089.6945590000105,,,,,,,,,,,,,1089.6790499000053,1089.6945590000105,1089.6945590000105,1089.6945590000105,1092.6755718000059,,,,1092.6817456999997,1092.6932529000042,1092.6932529000042,1092.741532400003,1092.7417721000093,1092.7581747000077,1092.7581747000077,1092.7581747000077,1092.8246379000047,1093.124900900002,,,,,,,,,,,,,,,,,,,,,,up,2.970108599998639,None,space,0.36004649999085814,None,P151,001,2025-04-11_11h55.29.878,posner_endo_new1,2024.2.4,60.054938258114454,2025-04-11 11h55.36.139302 +0100,
cube_r.png,0.1,-0.31,invalid,11,11,0,up,2.643868900006055,None,space,0.32923509999818634,None,,,,,,,,,0,11,11,11,1093.1410271000059,,,,,,,,,,,,,1093.1250811000064,1093.1410271000059,1093.1410271000059,1093.1410271000059,1095.7891901000112,,,,1095.7955299000023,1095.8072284000082,1095.8072284000082,1095.854920400001,1095.8551609999995,1095.8715973000071,1095.8715973000071,1095.8715973000071,1095.954803200002,1096.2053206000128,,,,,,,,,,,,,,,,,,,,,,up,2.643868900006055,None,space,0.32923509999818634,None,P151,001,2025-04-11_11h55.29.878,posner_endo_new1,2024.2.4,60.054938258114454,2025-04-11 11h55.36.139302 +0100,
cube_r.png,0.1,0.31,valid,12,12,0,up,2.708029000001261,None,space,0.29464949999237433,None,,,,,,,,,0,12,12,12,1096.2210903000087,,,,,,,,,,,,,1096.2055030000047,1096.2210903000087,1096.2210903000087,1096.2210903000087,1098.93591320001,,,,1098.9420421000104,1098.953668000002,1098.953668000002,1099.0017871000018,1099.0020299000025,1099.018286000006,1099.018286000006,1099.018286000006,1099.0848313000024,1099.3189500000008,,,,,,,,,,,,,,,,,,,,,,up,2.708029000001261,None,space,0.29464949999237433,None,P151,001,2025-04-11_11h55.29.878,posner_endo_new1,2024.2.4,60.054938258114454,2025-04-11 11h55.36.139302 +0100,
cube_l.png,0.1,10,catch,13,13,0,up,2.649345400001039,None,None,,,,,,,,,,,0,13,13,13,1099.334881600007,,,,,,,,,,,,,1099.3191405000107,1099.334881600007,1099.334881600007,1099.334881600007,1101.9994503000053,,,,1102.0056731000077,1102.0172112,1102.0172112,1102.0653167000128,1102.0655608000088,1102.0819794000126,1102.0819794000126,1102.0819794000126,1102.1650544000004,1105.079454000006,,,,,,,1104.1796343000024,1105.095393800002,1105.095393800002,1105.095393800002,,,,,,,,,,,,up,2.649345400001039,None,None,,,P151,001,2025-04-11_11h55.29.878,posner_endo_new1,2024.2.4,60.054938258114454,2025-04-11 11h55.36.139302 +0100,
cube_r.png,0.1,-0.31,invalid,14,14,0,up,0.09691959999327082,None,space,0.3012579000060214,None,,,,,,,,,0,14,14,14,1105.095393800002,,,,,,,,,,,,,1105.0796247000108,1105.095393800002,1105.095393800002,1105.095393800002,1105.1961194000032,,,,1105.2022530000104,1105.2136997000052,1105.2136997000052,1105.2619257000042,1105.2621658999997,1105.2788900000014,1105.2788900000014,1105.2788900000014,1105.34506040001,1105.5956851000083,,,,,,,,,,,,,,,,,,,,,,up,0.09691959999327082,None,space,0.3012579000060214,None,P151,001,2025-04-11_11h55.29.878,posner_endo_new1,2024.2.4,60.054938258114454,2025-04-11 11h55.36.139302 +0100,
cube_l.png,0.1,-0.31,valid,15,15,0,up,2.6214068999979645,None,space,0.35639529999752995,None,,,,,,,,,0,15,15,15,1105.6114559000125,,,,,,,,,,,,,1105.5958659000025,1105.6114559000125,1105.6114559000125,1105.6114559000125,1108.2430396000127,,,,1108.2493084000016,1108.260964000001,1108.260964000001,1108.3089420000033,1108.309184400001,1108.3254293000064,1108.3254293000064,1108.3254293000064,1108.4086980000138,1108.692589600003,,,,,,,,,,,,,,,,,,,,,,up,2.6214068999979645,None,space,0.35639529999752995,None,P151,001,2025-04-11_11h55.29.878,posner_endo_new1,2024.2.4,60.054938258114454,2025-04-11 11h55.36.139302 +0100,
cube_r.png,0.1,10,catch,16,16,0,up,2.2921934999903897,None,None,,,,,,,,,,,0,16,16,16,1108.7083921000012,,,,,,,,,,,,,1108.6927758000093,1108.7083921000012,1108.7083921000012,1108.7083921000012,1111.0068118000054,,,,1111.013011300005,1111.0244979000126,1111.0244979000126,1111.072644400003,1111.072886400012,1111.0892939000041,1111.0892939000041,1111.0892939000041,1111.1559702000086,1114.0866590000078,,,,,,,1113.1705473000038,1114.1027669000032,1114.1027669000032,1114.1027669000032,,,,,,,,,,,,up,2.2921934999903897,None,None,,,P151,001,2025-04-11_11h55.29.878,posner_endo_new1,2024.2.4,60.054938258114454,2025-04-11 11h55.36.139302 +0100,
cube_r.png,0.1,10,catch,17,17,0,up,0.5220679999911226,None,None,,,,,,,,,,,0,17,17,17,1114.1027669000032,,,,,,,,,,,,,1114.086829500011,1114.1027669000032,1114.1027669000032,1114.1027669000032,1114.6365146000026,,,,1114.6428237000073,1114.6544755000068,1114.6544755000068,1114.7022753000056,1114.7025184000086,1114.7187949000072,1114.7187949000072,1114.7187949000072,1114.8023054000078,1117.7165248000092,,,,,,,1116.816779300003,1117.732448900002,1117.732448900002,1117.732448900002,,,,,,,,,,,,up,0.5220679999911226,None,None,,,P151,001,2025-04-11_11h55.29.878,posner_endo_new1,2024.2.4,60.054938258114454,2025-04-11 11h55.36.139302 +0100,
cube_l.png,0.1,0.31,invalid,18,18,0,up,0.1155084999918472,None,space,0.3519380000070669,None,,,,,,,,,0,18,18,18,1117.732448900002,,,,,,,,,,,,,1117.7166940000025,1117.732448900002,1117.732448900002,1117.732448900002,1117.8498263000074,,,,1117.8560226000118,1117.867694600005,1117.867694600005,1117.9157951000088,1117.9160395000072,1117.9323034000117,1117.9323034000117,1117.9323034000117,1118.015542100009,1118.2992029000015,,,,,,,,,,,,,,,,,,,,,,up,0.1155084999918472,None,space,0.3519380000070669,None,P151,001,2025-04-11_11h55.29.878,posner_endo_new1,2024.2.4,60.054938258114454,2025-04-11 11h55.36.139302 +0100,
cube_l.png,0.1,10,catch,19,19,0,up,2.0925723999971524,None,None,,,,,,,,,,,0,19,19,19,1118.3152950000076,,,,,,,,,,,,,1118.2993939000007,1118.3152950000076,1118.3152950000076,1118.3152950000076,1120.4137905000098,,,,1120.419972100004,1120.4314322999999,1120.4314322999999,1120.4797551000083,1120.4799958000076,1120.496369200002,1120.496369200002,1120.496369200002,1120.5630129000056,1123.4938907000032,,,,,,,1122.5775076000136,1123.5098493000114,1123.5098493000114,1123.5098493000114,,,,,,,,,,,,up,2.0925723999971524,None,None,,,P151,001,2025-04-11_11h55.29.878,posner_endo_new1,2024.2.4,60.054938258114454,2025-04-11 11h55.36.139302 +0100,
cube_l.png,0.1,0.31,invalid,20,20,0,up,0.746868899994297,None,space,0.38235010000062175,None,,,,,,,,,0,20,20,20,1123.5098493000114,,,,,,,,,,,,,1123.4940600000118,1123.5098493000114,1123.5098493000114,1123.5098493000114,1124.2598111000116,,,,1124.2659923000028,1124.2777349000098,1124.2777349000098,1124.3258635000093,1124.326115600008,1124.3423099000065,1124.3423099000065,1124.3423099000065,1124.4088858000032,1124.726252700013,,,,,,,,,,,,,,,,,,,,,,up,0.746868899994297,None,space,0.38235010000062175,None,P151,001,2025-04-11_11h55.29.878,posner_endo_new1,2024.2.4,60.054938258114454,2025-04-11 11h55.36.139302 +0100,
cube_l.png,0.1,-0.31,valid,21,21,0,up,2.713869100000011,None,space,0.37006929999915883,None,,,,,,,,,0,21,21,21,1124.7419820000068,,,,,,,,,,,,,1124.726434600001,1124.7419820000068,1124.7419820000068,1124.7419820000068,1127.4568593000004,,,,1127.46307540001,1127.4747054000036,1127.4747054000036,1127.5224559000053,1127.522696,1127.5392257000058,1127.5392257000058,1127.5392257000058,1127.622336600005,1127.9230151000083,,,,,,,,,,,,,,,,,,,,,,up,2.713869100000011,None,space,0.37006929999915883,None,P151,001,2025-04-11_11h55.29.878,posner_endo_new1,2024.2.4,60.054938258114454,2025-04-11 11h55.36.139302 +0100,
cube_r.png,0.1,0.31,valid,22,22,0,up,2.8140988999948604,None,space,0.3114721999882022,None,,,,,,,,,0,22,22,22,1127.9386752000137,,,,,,,,,,,,,1127.9232033000008,1127.9386752000137,1127.9386752000137,1127.9386752000137,1130.7535767000081,,,,1130.7600166000047,1130.7716398000048,1130.7716398000048,1130.819296200003,1130.8195406000013,1130.8358126000094,1130.8358126000094,1130.8358126000094,1130.9189162000112,1131.152948300005,,,,,,,,,,,,,,,,,,,,,,up,2.8140988999948604,None,space,0.3114721999882022,None,P151,001,2025-04-11_11h55.29.878,posner_endo_new1,2024.2.4,60.054938258114454,2025-04-11 11h55.36.139302 +0100,
cube_r.png,0.1,-0.31,invalid,23,23,0,up,2.8881962000014028,None,space,0.3186721999954898,None,,,,,,,,,0,23,23,23,1131.1686393000127,,,,,,,,,,,,,1131.1531353000028,1131.1686393000127,1131.1686393000127,1131.1686393000127,1134.0666274000105,,,,1134.0727860000043,1134.0843034000136,1134.0843034000136,1134.1324856000138,1134.13272780001,1134.148908400006,1134.148908400006,1134.148908400006,1134.2323311000073,1134.4827756000013,,,,,,,,,,,,,,,,,,,,,,up,2.8881962000014028,None,space,0.3186721999954898,None,P151,001,2025-04-11_11h55.29.878,posner_endo_new1,2024.2.4,60.054938258114454,2025-04-11 11h55.36.139302 +0100,
cube_r.png,0.1,0.31,valid,24,24,0,up,2.518118799998774,None,space,0.2837527000083355,None,,,,,,,,,0,24,24,24,1134.4986552000046,,,,,,,,,,,,,1134.4829564000102,1134.4986552000046,1134.4986552000046,1134.4986552000046,1137.0301760000002,,,,1137.0364485000027,1137.0478826000035,1137.0478826000035,1137.0961281000054,1137.0963670000056,1137.1125502000068,1137.1125502000068,1137.1125502000068,1137.1791704000061,1137.4130772000062,,,,,,,,,,,,,,,,,,,,,,up,2.518118799998774,None,space,0.2837527000083355,None,P151,001,2025-04-11_11h55.29.878,posner_endo_new1,2024.2.4,60.054938258114454,2025-04-11 11h55.36.139302 +0100,
cube_r.png,0.1,-0.31,invalid,25,25,0,up,2.7556255999952555,None,space,0.2771204999880865,None,,,,,,,,,0,25,25,25,1137.4288921000116,,,,,,,,,,,,,1137.4132656000002,1137.4288921000116,1137.4288921000116,1137.4288921000116,1140.1937241000123,,,,1140.199975200012,1140.211514900002,1140.211514900002,1140.25952040001,1140.2597595000116,1140.2765597000107,1140.2765597000107,1140.2765597000107,1140.3592725000053,1140.5598960000061,,,,,,,,,,,,,,,,,,,,,,up,2.7556255999952555,None,space,0.2771204999880865,None,P151,001,2025-04-11_11h55.29.878,posner_endo_new1,2024.2.4,60.054938258114454,2025-04-11 11h55.36.139302 +0100,
cube_l.png,0.1,-0.31,valid,26,26,0,up,4.040311300006579,None,space,0.281923899994581,None,,,,,,,,,0,26,26,26,1140.5757078000024,,,,,,,,,,,,,1140.5600771000027,1140.5757078000024,1140.5757078000024,1140.5757078000024,1144.622459700011,,,,1144.6287455000129,1144.6403379000112,1144.6403379000112,1144.6884635000024,1144.6887080000015,1144.704885500003,1144.704885500003,1144.704885500003,1144.7713484000124,1144.988874200004,,,,,,,,,,,,,,,,,,,,,,up,4.040311300006579,None,space,0.281923899994581,None,P151,001,2025-04-11_11h55.29.878,posner_endo_new1,2024.2.4,60.054938258114454,2025-04-11 11h55.36.139302 +0100,
cube_r.png,0.1,0.31,valid,27,27,0,up,2.571300399999018,None,space,0.26359480000974145,None,,,,,,,,,0,27,27,27,1145.0046503000049,,,,,,,,,,,,,1144.9890567000111,1145.0046503000049,1145.0046503000049,1145.0046503000049,1147.5860272999998,,,,1147.592260000005,1147.6037726000068,1147.6037726000068,1147.6519379000092,1147.6521787000092,1147.668586700005,1147.668586700005,1147.668586700005,1147.7352381000092,1147.9359716000035,,,,,,,,,,,,,,,,,,,,,,up,2.571300399999018,None,space,0.26359480000974145,None,P151,001,2025-04-11_11h55.29.878,posner_endo_new1,2024.2.4,60.054938258114454,2025-04-11 11h55.36.139302 +0100,
cube_r.png,0.1,10,catch,28,28,0,up,2.8009044000064023,None,space,0.29571340000256896,None,,,,,,,,,0,28,28,28,1147.951491800006,,,,,,,,,,,,,1147.9361611000058,1147.951491800006,1147.951491800006,1147.951491800006,1150.766187500005,,,,1150.772344500001,1150.7838709000061,1150.7838709000061,1150.8321198000049,1150.832359100008,1150.8485316000006,1150.8485316000006,1150.8485316000006,1150.9152369000076,1151.1492328000022,,,,,,,,,,,,,,,,,,,,,,up,2.8009044000064023,None,space,0.29571340000256896,None,P151,001,2025-04-11_11h55.29.878,posner_endo_new1,2024.2.4,60.054938258114454,2025-04-11 11h55.36.139302 +0100,
cube_r.png,0.1,0.31,valid,29,29,0,up,4.7949724000063725,None,space,0.3890735000022687,None,,,,,,,,,0,29,29,29,1151.1649900000048,,,,,,,,,,,,,1151.1494133000087,1151.1649900000048,1151.1649900000048,1151.1649900000048,1155.960968200001,,,,1155.9672191999998,1155.9786690000037,1155.9786690000037,1156.0267232000042,1156.0269630000112,1156.0433628000028,1156.0433628000028,1156.0433628000028,1156.1263996000052,1156.4437892000133,,,,,,,,,,,,,,,,,,,,,,up,4.7949724000063725,None,space,0.3890735000022687,None,P151,001,2025-04-11_11h55.29.878,posner_endo_new1,2024.2.4,60.054938258114454,2025-04-11 11h55.36.139302 +0100,
cube_r.png,0.1,0.31,valid,30,30,0,up,2.6297930000000633,None,space,0.32496380001248326,None,,,,,,,,,0,30,30,30,1156.4595079000137,,,,,,,,,,,,,1156.4439697000053,1156.4595079000137,1156.4595079000137,1156.4595079000137,1159.0909291999997,,,,1159.0972820000025,1159.10897880001,1159.10897880001,1159.1568434000073,1159.1570879000064,1159.173293800006,1159.173293800006,1159.173293800006,1159.2399469000084,1159.5071980000066,,,,,,,,,,,,,,,,,,,,,,up,2.6297930000000633,None,space,0.32496380001248326,None,P151,001,2025-04-11_11h55.29.878,posner_endo_new1,2024.2.4,60.054938258114454,2025-04-11 11h55.36.139302 +0100,
cube_l.png,0.1,-0.31,valid,31,31,0,up,2.5416068000049563,None,space,0.3152908999909414,None,,,,,,,,,0,31,31,31,1159.523104900014,,,,,,,,,,,,,1159.5073919999995,1159.523104900014,1159.523104900014,1159.523104900014,1162.0714164000092,,,,1162.0776016000018,1162.0891724000103,1162.0891724000103,1162.1371774,1162.1374215000105,1162.1537359000067,1162.1537359000067,1162.1537359000067,1162.2368705000117,1162.47090700001,,,,,,,,,,,,,,,,,,,,,,up,2.5416068000049563,None,space,0.3152908999909414,None,P151,001,2025-04-11_11h55.29.878,posner_endo_new1,2024.2.4,60.054938258114454,2025-04-11 11h55.36.139302 +0100,
cube_r.png,0.1,0.31,valid,32,32,0,up,2.2099213000037707,None,space,0.2836698999890359,None,,,,,,,,,0,32,32,32,1162.486883400008,,,,,,,,,,,,,1162.471091600004,1162.486883400008,1162.486883400008,1162.486883400008,1164.7018777000048,,,,1164.7081283000007,1164.7196792000032,1164.7196792000032,1164.7676697999996,1164.7679123000125,1164.7843376000092,1164.7843376000092,1164.7843376000092,1164.8676044000022,1165.0849700000108,,,,,,,,,,,,,,,,,,,,,,up,2.2099213000037707,None,space,0.2836698999890359,None,P151,001,2025-04-11_11h55.29.878,posner_endo_new1,2024.2.4,60.054938258114454,2025-04-11 11h55.36.139302 +0100,
cube_r.png,0.1,-0.31,invalid,33,33,0,up,2.5000329000031343,None,space,0.30317299999296665,None,,,,,,,,,0,33,33,33,1165.1006766000064,,,,,,,,,,,,,1165.0851526000042,1165.1006766000064,1165.1006766000064,1165.1006766000064,1167.615549500013,,,,1167.6217766000045,1167.6333488000091,1167.6333488000091,1167.6815530000022,1167.6817930000107,1167.6980077000044,1167.6980077000044,1167.6980077000044,1167.7645272000082,1168.0151826000074,,,,,,,,,,,,,,,,,,,,,,up,2.5000329000031343,None,space,0.30317299999296665,None,P151,001,2025-04-11_11h55.29.878,posner_endo_new1,2024.2.4,60.054938258114454,2025-04-11 11h55.36.139302 +0100,
cube_r.png,0.1,10,catch,34,34,0,up,2.976866199998767,None,None,,,,,,,,,,,0,34,34,34,1168.0311218999996,,,,,,,,,,,,,1168.0153703000105,1168.0311218999996,1168.0311218999996,1168.0311218999996,1171.0121418000053,,,,1171.0183063000004,1171.0298272000073,1171.0298272000073,1171.078035300001,1171.07827730001,1171.094503100001,1171.094503100001,1171.094503100001,1171.1777524000063,1174.0920536000049,,,,,,,1173.1923371000012,1174.1082048000098,1174.1082048000098,1174.1082048000098,,,,,,,,,,,,up,2.976866199998767,None,None,,,P151,001,2025-04-11_11h55.29.878,posner_endo_new1,2024.2.4,60.054938258114454,2025-04-11 11h55.36.139302 +0100,
cube_r.png,0.1,0.31,valid,35,35,0,up,1.8919468999956734,None,space,0.3171528000093531,None,,,,,,,,,0,35,35,35,1174.1082048000098,,,,,,,,,,,,,1174.0922248999996,1174.1082048000098,1174.1082048000098,1174.1082048000098,1176.0068862000044,,,,1176.0131806999998,1176.0247491000046,1176.0247491000046,1176.0729194000014,1176.073157900013,1176.089512400009,1176.089512400009,1176.089512400009,1176.1560614000045,1176.4232181000116,,,,,,,,,,,,,,,,,,,,,,up,1.8919468999956734,None,space,0.3171528000093531,None,P151,001,2025-04-11_11h55.29.878,posner_endo_new1,2024.2.4,60.054938258114454,2025-04-11 11h55.36.139302 +0100,
cube_r.png,0.1,-0.31,invalid,36,36,0,up,3.5616135000018403,None,space,0.3523136000003433,None,,,,,,,,,0,36,36,36,1176.439093100009,,,,,,,,,,,,,1176.4233990000066,1176.439093100009,1176.439093100009,1176.439093100009,1180.002945900007,,,,1180.0091694000002,1180.0206609000015,1180.0206609000015,1180.0689641000063,1180.0692127000075,1180.085490100013,1180.085490100013,1180.085490100013,1180.168514200006,1180.4523455000017,,,,,,,,,,,,,,,,,,,,,,up,3.5616135000018403,None,space,0.3523136000003433,None,P151,001,2025-04-11_11h55.29.878,posner_endo_new1,2024.2.4,60.054938258114454,2025-04-11 11h55.36.139302 +0100,
cube_l.png,0.1,0.31,invalid,37,37,0,up,2.77200109999103,None,space,0.3647417000029236,None,,,,,,,,,0,37,37,37,1180.4682956000033,,,,,,,,,,,,,1180.4525310000026,1180.4682956000033,1180.4682956000033,1180.4682956000033,1183.2496125000034,,,,1183.2559166000137,1183.2674448000034,1183.2674448000034,1183.3155163000047,1183.3157552000048,1183.3320373000024,1183.3320373000024,1183.3320373000024,1183.3985412000038,1183.699274100014,,,,,,,,,,,,,,,,,,,,,,up,2.77200109999103,None,space,0.3647417000029236,None,P151,001,2025-04-11_11h55.29.878,posner_endo_new1,2024.2.4,60.054938258114454,2025-04-11 11h55.36.139302 +0100,
cube_l.png,0.1,0.31,invalid,38,38,0,up,2.949771100000362,None,space,0.257243500003824,None,,,,,,,,,0,38,38,38,1183.7149717000138,,,,,,,,,,,,,1183.699456500006,1183.7149717000138,1183.7149717000138,1183.7149717000138,1186.6794402000087,,,,1186.6856194000138,1186.6970944000059,1186.6970944000059,1186.745329100013,1186.745571300009,1186.761758800014,1186.761758800014,1186.761758800014,1186.8451132000046,1187.0289680000133,,,,,,,,,,,,,,,,,,,,,,up,2.949771100000362,None,space,0.257243500003824,None,P151,001,2025-04-11_11h55.29.878,posner_endo_new1,2024.2.4,60.054938258114454,2025-04-11 11h55.36.139302 +0100,
cube_r.png,0.1,0.31,valid,39,39,0,up,2.56331830000272,None,space,0.3073090000107186,None,,,,,,,,,0,39,39,39,1187.0448239000107,,,,,,,,,,,,,1187.029152800009,1187.0448239000107,1187.0448239000107,1187.0448239000107,1189.6098485000111,,,,1189.6172675000125,1189.6285830000124,1189.6285830000124,1189.6761071000074,1189.6763692000095,1189.6920163000032,1189.6920163000032,1189.6920163000032,1189.7751635000022,1190.009222800014,,,,,,,,,,,,,,,,,,,,,,up,2.56331830000272,None,space,0.3073090000107186,None,P151,001,2025-04-11_11h55.29.878,posner_endo_new1,2024.2.4,60.054938258114454,2025-04-11 11h55.36.139302 +0100,
cube_l.png,0.1,0.31,invalid,40,40,0,up,2.4066957000031834,None,space,0.3017913999938173,None,,,,,,,,,0,40,40,40,1190.0253217999998,,,,,,,,,,,,,1190.0094062999997,1190.0253217999998,1190.0253217999998,1190.0253217999998,1192.4402768,,,,1192.4466055000084,1192.458167100005,1192.458167100005,1192.5061696000048,1192.5064101000025,1192.522744700007,1192.522744700007,1192.522744700007,1192.5890892000025,1192.8397339000076,,,,,,,,,,,,,,,,,,,,,,up,2.4066957000031834,None,space,0.3017913999938173,None,P151,001,2025-04-11_11h55.29.878,posner_endo_new1,2024.2.4,60.054938258114454,2025-04-11 11h55.36.139302 +0100,
cube_l.png,0.1,10,catch,41,41,0,up,2.744825600006152,None,None,,,,,,,,,,,0,41,41,41,1192.8556757000042,,,,,,,,,,,,,1192.8399145000003,1192.8556757000042,1192.8556757000042,1192.8556757000042,1195.6035337000067,,,,1195.6096983000025,1195.6211963000096,1195.6211963000096,1195.669599700006,1195.6698472000135,1195.6859997000138,1195.6859997000138,1195.6859997000138,1195.7526666000049,1198.6834811000008,,,,,,,1197.7672980000061,1198.6997529000073,1198.6997529000073,1198.6997529000073,,,,,,,,,,,,up,2.744825600006152,None,None,,,P151,001,2025-04-11_11h55.29.878,posner_endo_new1,2024.2.4,60.054938258114454,2025-04-11 11h55.36.139302 +0100,
cube_l.png,0.1,-0.31,valid,42,42,0,up,0.4847347000031732,None,space,0.33425980000174604,None,,,,,,,,,0,42,42,42,1198.6997529000073,,,,,,,,,,,,,1198.6836508000124,1198.6997529000073,1198.6997529000073,1198.6997529000073,1199.199798200003,,,,1199.2059171,1199.2173914000014,1199.2173914000014,1199.2658777000033,1199.2661245000054,1199.282359600009,1199.282359600009,1199.282359600009,1199.348934900001,1199.633022000009,,,,,,,,,,,,,,,,,,,,,,up,0.4847347000031732,None,space,0.33425980000174604,None,P151,001,2025-04-11_11h55.29.878,posner_endo_new1,2024.2.4,60.054938258114454,2025-04-11 11h55.36.139302 +0100,
cube_l.png,0.1,10,catch,43,43,0,up,2.5676833000034094,None,None,,,,,,,,,,,0,43,43,43,1199.6487390000111,,,,,,,,,,,,,1199.6332031000056,1199.6487390000111,1199.6487390000111,1199.6487390000111,1202.2301752000058,,,,1202.2364512000058,1202.2480593000073,1202.2480593000073,1202.2960250000033,1202.296266800011,1202.3126879000047,1202.3126879000047,1202.3126879000047,1202.3791815000004,1205.3099936000071,,,,,,,1204.3937342999998,1205.3262037000095,1205.3262037000095,1205.3262037000095,,,,,,,,,,,,up,2.5676833000034094,None,None,,,P151,001,2025-04-11_11h55.29.878,posner_endo_new1,2024.2.4,60.054938258114454,2025-04-11 11h55.36.139302 +0100,
cube_l.png,0.1,0.31,invalid,44,44,0,up,0.5623051000002306,None,space,0.30442349999793805,None,,,,,,,,,0,44,44,44,1205.3262037000095,,,,,,,,,,,,,1205.3101631000027,1205.3262037000095,1205.3262037000095,1205.3262037000095,1205.8930672000133,,,,1205.8992859000136,1205.9109866000072,1205.9109866000072,1205.9588949000026,1205.959136800011,1205.9754842000111,1205.9754842000111,1205.9754842000111,1206.0422303000087,1206.2926613000018,,,,,,,,,,,,,,,,,,,,,,up,0.5623051000002306,None,space,0.30442349999793805,None,P151,001,2025-04-11_11h55.29.878,posner_endo_new1,2024.2.4,60.054938258114454,2025-04-11 11h55.36.139302 +0100,
cube_l.png,0.1,0.31,invalid,45,45,0,up,2.836024100004579,None,space,0.30532749999838416,None,,,,,,,,,0,45,45,45,1206.3084016000066,,,,,,,,,,,,,1206.2928408000007,1206.3084016000066,1206.3084016000066,1206.3084016000066,1209.156323400006,,,,1209.1625958000077,1209.1742280000035,1209.1742280000035,1209.222312400001,1209.2225538000057,1209.2389338000066,1209.2389338000066,1209.2389338000066,1209.305391300004,1209.556027300001,,,,,,,,,,,,,,,,,,,,,,up,2.836024100004579,None,space,0.30532749999838416,None,P151,001,2025-04-11_11h55.29.878,posner_endo_new1,2024.2.4,60.054938258114454,2025-04-11 11h55.36.139302 +0100,
cube_r.png,0.1,0.31,valid,46,46,0,up,3.325144000002183,None,space,0.2791977000015322,None,,,,,,,,,0,46,46,46,1209.5716914000077,,,,,,,,,,,,,1209.5562069000007,1209.5716914000077,1209.5716914000077,1209.5716914000077,1212.902625600007,,,,1212.9088186000008,1212.9204742000002,1212.9204742000002,1212.9684372000047,1212.9686856000044,1212.9849127000052,1212.9849127000052,1212.9849127000052,1213.0514385000133,1213.2689467000018,,,,,,,,,,,,,,,,,,,,,,up,3.325144000002183,None,space,0.2791977000015322,None,P151,001,2025-04-11_11h55.29.878,posner_endo_new1,2024.2.4,60.054938258114454,2025-04-11 11h55.36.139302 +0100,
cube_l.png,0.1,-0.31,valid,47,47,0,up,2.6131028999952832,None,space,0.30194639999535866,None,,,,,,,,,0,47,47,47,1213.2846341000113,,,,,,,,,,,,,1213.2691386000079,1213.2846341000113,1213.2846341000113,1213.2846341000113,1215.8996102000092,,,,1215.9059013000078,1215.917480700009,1215.917480700009,1215.965236300006,1215.965476100013,1215.9819544000056,1215.9819544000056,1215.9819544000056,1216.0486904000136,1216.2992048000015,,,,,,,,,,,,,,,,,,,,,,up,2.6131028999952832,None,space,0.30194639999535866,None,P151,001,2025-04-11_11h55.29.878,posner_endo_new1,2024.2.4,60.054938258114454,2025-04-11 11h55.36.139302 +0100,
cube_r.png,0.1,-0.31,invalid,48,48,0,up,2.6053771000006236,None,space,0.21678799999062903,None,,,,,,,,,0,48,48,48,1216.3149714000028,,,,,,,,,,,,,1216.299386700004,1216.3149714000028,1216.3149714000028,1216.3149714000028,1218.9297774000006,,,,1218.935914600006,1218.9475124000019,1218.9475124000019,1218.995573200009,1218.9958245000016,1219.012134900011,1219.012134900011,1219.012134900011,1219.0954060000076,1219.2297170000093,,,,,,,,,,,,,,,,,,,,,,up,2.6053771000006236,None,space,0.21678799999062903,None,P151,001,2025-04-11_11h55.29.878,posner_endo_new1,2024.2.4,60.054938258114454,2025-04-11 11h55.36.139302 +0100,
cube_r.png,0.1,10,catch,49,49,0,up,2.87551519999397,None,space,0.2769618000020273,None,,,,,,,,,0,49,49,49,1219.2452991000027,,,,,,,,,,,,,1219.2299062000093,1219.2452991000027,1219.2452991000027,1219.2452991000027,1222.1264561999997,,,,1222.1327298000106,1222.144389500012,1222.144389500012,1222.192414300007,1222.192656900006,1222.2088610000064,1222.2088610000064,1222.2088610000064,1222.2759192000085,1222.4926361000107,,,,,,,,,,,,,,,,,,,,,,up,2.87551519999397,None,space,0.2769618000020273,None,P151,001,2025-04-11_11h55.29.878,posner_endo_new1,2024.2.4,60.054938258114454,2025-04-11 11h55.36.139302 +0100,
cube_l.png,0.1,-0.31,valid,50,50,0,up,2.740019899996696,None,space,0.3801845999987563,None,,,,,,,,,0,50,50,50,1222.5087416000024,,,,,,,,,,,,,1222.4928160000127,1222.5087416000024,1222.5087416000024,1222.5087416000024,1225.2565449000103,,,,1225.2627548000019,1225.2744729000115,1225.2744729000115,1225.3224036000029,1225.3226460000005,1225.3390887000132,1225.3390887000132,1225.3390887000132,1225.4054579000076,1225.7229380000063,,,,,,,,,,,,,,,,,,,,,,up,2.740019899996696,None,space,0.3801845999987563,None,P151,001,2025-04-11_11h55.29.878,posner_endo_new1,2024.2.4,60.054938258114454,2025-04-11 11h55.36.139302 +0100,
cube_l.png,0.1,-0.31,valid,51,51,0,up,2.3973009000037564,None,space,0.3417660999984946,None,,,,,,,,,0,51,51,51,1225.7387416000129,,,,,,,,,,,,,1225.7231182000105,1225.7387416000129,1225.7387416000129,1225.7387416000129,1228.137128500006,,,,1228.1433248000103,1228.1549987000035,1228.1549987000035,1228.2029595000058,1228.203204400008,1228.2193982000026,1228.2193982000026,1228.2193982000026,1228.3027530000109,1228.5698102000024,,,,,,,,,,,,,,,,,,,,,,up,2.3973009000037564,None,space,0.3417660999984946,None,P151,001,2025-04-11_11h55.29.878,posner_endo_new1,2024.2.4,60.054938258114454,2025-04-11 11h55.36.139302 +0100,
cube_r.png,0.1,-0.31,invalid,52,52,0,up,2.4321274000103585,None,space,0.30789399999775924,None,,,,,,,,,0,52,52,52,1228.5856476000044,,,,,,,,,,,,,1228.5699897000013,1228.5856476000044,1228.5856476000044,1228.5856476000044,1231.033892300009,,,,1231.0401765000133,1231.0518819000135,1231.0518819000135,1231.1003557000076,1231.100598200006,1231.116624900009,1231.116624900009,1231.116624900009,1231.199696200012,1231.433594800008,,,,,,,,,,,,,,,,,,,,,,up,2.4321274000103585,None,space,0.30789399999775924,None,P151,001,2025-04-11_11h55.29.878,posner_endo_new1,2024.2.4,60.054938258114454,2025-04-11 11h55.36.139302 +0100,
cube_l.png,0.1,-0.31,valid,53,53,0,up,2.4865422999864677,None,space,0.3633527999918442,None,,,,,,,,,0,53,53,53,1231.4495478000026,,,,,,,,,,,,,1231.4337778000045,1231.4495478000026,1231.4495478000026,1231.4495478000026,1233.9476592000137,,,,1233.9538519000052,1233.9651857999997,1233.9651857999997,1234.0136045000108,1234.013846700007,1234.0302276000002,1234.0302276000002,1234.0302276000002,1234.11339340001,1234.3973833000055,,,,,,,,,,,,,,,,,,,,,,up,2.4865422999864677,None,space,0.3633527999918442,None,P151,001,2025-04-11_11h55.29.878,posner_endo_new1,2024.2.4,60.054938258114454,2025-04-11 11h55.36.139302 +0100,
cube_r.png,0.1,10,catch,54,54,0,up,2.2676645000028657,None,None,,,,,,,,,,,0,54,54,54,1234.4130117000022,,,,,,,,,,,,,1234.3975670000073,1234.4130117000022,1234.4130117000022,1234.4130117000022,1236.694814900009,,,,1236.7009850000031,1236.712584400011,1236.712584400011,1236.7607032000087,1236.760950900003,1236.7778000000108,1236.7778000000108,1236.7778000000108,1236.8439541000116,1239.7748419000127,,,,,,,1238.8585789000063,1239.7910951000085,1239.7910951000085,1239.7910951000085,,,,,,,,,,,,up,2.2676645000028657,None,None,,,P151,001,2025-04-11_11h55.29.878,posner_endo_new1,2024.2.4,60.054938258114454,2025-04-11 11h55.36.139302 +0100,
cube_l.png,0.1,0.31,invalid,55,55,0,up,0.2016511999972863,None,space,0.2629293000063626,None,,,,,,,,,0,55,55,55,1239.7910951000085,,,,,,,,,,,,,1239.7750127000036,1239.7910951000085,1239.7910951000085,1239.7910951000085,1240.0080570000137,,,,1240.0143856000068,1240.0259363000077,1240.0259363000077,1240.0741307000135,1240.0743745000073,1240.0908134000056,1240.0908134000056,1240.0908134000056,1240.1572348000045,1240.3578243000084,,,,,,,,,,,,,,,,,,,,,,up,0.2016511999972863,None,space,0.2629293000063626,None,P151,001,2025-04-11_11h55.29.878,posner_endo_new1,2024.2.4,60.054938258114454,2025-04-11 11h55.36.139302 +0100,
cube_l.png,0.1,-0.31,valid,56,56,0,up,2.803018599995994,None,space,0.3743882999988273,None,,,,,,,,,0,56,56,56,1240.3737719000055,,,,,,,,,,,,,1240.3580140000122,1240.3737719000055,1240.3737719000055,1240.3737719000055,1243.1882060000062,,,,1243.1947161999997,1243.2064314000017,1243.2064314000017,1243.2543397000118,1243.2545869000023,1243.2706897000025,1243.2706897000025,1243.2706897000025,1243.3374624000135,1243.6542554000043,,,,,,,,,,,,,,,,,,,,,,up,2.803018599995994,None,space,0.3743882999988273,None,P151,001,2025-04-11_11h55.29.878,posner_endo_new1,2024.2.4,60.054938258114454,2025-04-11 11h55.36.139302 +0100,
cube_r.png,0.1,0.31,valid,57,57,0,up,2.7059254000050714,None,space,0.1946760999999242,None,,,,,,,,,0,57,57,57,1243.6703069000068,,,,,,,,,,,,,1243.6544337000087,1243.6703069000068,1243.6703069000068,1243.6703069000068,1246.3850108000042,,,,1246.391474700009,1246.4030290000082,1246.4030290000082,1246.4508496000053,1246.4510937000014,1246.4675367000018,1246.4675367000018,1246.4675367000018,1246.5506472000125,1246.668111100007,,,,,,,,,,,,,,,,,,,,,,up,2.7059254000050714,None,space,0.1946760999999242,None,P151,001,2025-04-11_11h55.29.878,posner_endo_new1,2024.2.4,60.054938258114454,2025-04-11 11h55.36.139302 +0100,
cube_r.png,0.1,-0.31,invalid,58,58,0,up,2.996596500001033,None,space,0.26953489999868907,None,,,,,,,,,0,58,58,58,1246.6838590000116,,,,,,,,,,,,,1246.668311500005,1246.6838590000116,1246.6838590000116,1246.6838590000116,1249.6815907000127,,,,1249.6878122000053,1249.6992721000133,1249.6992721000133,1249.7475478000124,1249.7477939000091,1249.7641094000137,1249.7641094000137,1249.7641094000137,1249.8308161000023,1250.0478446000052,,,,,,,,,,,,,,,,,,,,,,up,2.996596500001033,None,space,0.26953489999868907,None,P151,001,2025-04-11_11h55.29.878,posner_endo_new1,2024.2.4,60.054938258114454,2025-04-11 11h55.36.139302 +0100,
cube_l.png,0.1,0.31,invalid,59,59,0,up,2.736749999996391,None,space,0.4094883000070695,None,,,,,,,,,0,59,59,59,1250.0637931000092,,,,,,,,,,,,,1250.0480257000017,1250.0637931000092,1250.0637931000092,1250.0637931000092,1252.8116671000025,,,,1252.8180641000072,1252.829639500007,1252.829639500007,1252.8776072000037,1252.8778496000014,1252.894358800011,1252.894358800011,1252.894358800011,1252.9608653000032,1253.3112562000024,,,,,,,,,,,,,,,,,,,,,,up,2.736749999996391,None,space,0.4094883000070695,None,P151,001,2025-04-11_11h55.29.878,posner_endo_new1,2024.2.4,60.054938258114454,2025-04-11 11h55.36.139302 +0100,
