cue_img,cue_soa,target_y,trial,thisN,thisTrialN,thisRepN,key_control2.keys,key_control2.rt,key_control2.duration,key_resp.keys,key_resp.rt,key_resp.duration,practice.thisRepN,practice.thisTrialN,practice.thisN,practice.thisIndex,block1.thisRepN,block1.thisTrialN,block1.thisN,block1.thisIndex,block2.thisRepN,block2.thisTrialN,block2.thisN,block2.thisIndex,thisRow.t,notes,instructions.started,instructions_txt.started,key_control.started,instructions.stopped,key_control.keys,key_control.rt,key_control.duration,ready.started,ready_txt.started,ready_txt.stopped,ready.stopped,fix.started,fixation.started,key_control2.started,fixation_cross.started,fix.stopped,practice.key_control2.keys,practice.key_control2.rt,practice.key_control2.duration,cue.started,cube.started,fixation_cross_cue.started,cue.stopped,target.started,fixation_target.started,fixation_cross_target.started,key_resp.started,star.started,target.stopped,practice.key_resp.keys,practice.key_resp.rt,practice.key_resp.duration,block1.key_control2.keys,block1.key_control2.rt,block1.key_control2.duration,star.stopped,fixation_target.stopped,fixation_cross_target.stopped,key_resp.stopped,block1.key_resp.keys,block1.key_resp.rt,block1.key_resp.duration,break_2.started,text.started,key_control3.started,text.stopped,break_2.stopped,key_control3.keys,key_control3.rt,key_control3.duration,block2.key_control2.keys,block2.key_control2.rt,block2.key_control2.duration,block2.key_resp.keys,block2.key_resp.rt,block2.key_resp.duration,participant,session,date,expName,psychopyVersion,frameRate,expStart,
,,,,,,,,,,,,,,,,,,,,,,,,,,,0.007446699994034134,0.022509000002173707,0.022509000002173707,1869.041717900007,up,1868.9989764000056,None,,,,,,,,,,,,,,,,,,,,,,,,,,,,,,,,,,,,,,,,,,,,,,,,,,P152,001,2025-04-11_13h22.45.185,posner_endo_new1,2024.2.4,60.04942067377926,2025-04-11 13h22.52.949611 +0100,
,,,,,,,,,,,,,,,,,,,,,,,,,,,,,,,,,,1869.0419123000029,1869.0547087000014,1872.0658083000017,1872.041441399997,,,,,,,,,,,,,,,,,,,,,,,,,,,,,,,,,,,,,,,,,,,,,,P152,001,2025-04-11_13h22.45.185,posner_endo_new1,2024.2.4,60.04942067377926,2025-04-11 13h22.52.949611 +0100,
cube_l.png,0.1,-0.31,valid,0,0,0,up,27.55600009999762,None,space,0.3479354000010062,None,0,0,0,4,,,,,,,,,1872.0658083000017,,,,,,,,,,,,,1872.0541111000057,1872.0658083000017,1872.0658083000017,1872.0658083000017,1899.6313733999996,up,27.55600009999762,None,1899.6588718999992,1899.6703181000048,1899.6703181000048,1899.6817410999938,1899.682102699997,1899.695662500002,1899.695662500002,1899.695662500002,1899.7961153999931,1900.0469501000043,space,0.3479354000010062,None,,,,,,,,,,,,,,,,,,,,,,,,,P152,001,2025-04-11_13h22.45.185,posner_endo_new1,2024.2.4,60.04942067377926,2025-04-11 13h22.52.949611 +0100,
cube_r.png,0.1,0.31,valid,1,1,0,up,5.73540979999234,None,space,0.3281954999984009,None,0,1,1,10,,,,,,,,,1900.0624188999936,,,,,,,,,,,,,1900.0472253000044,1900.0624188999936,1900.0624188999936,1900.0624188999936,1905.8075940999988,up,5.73540979999234,None,1905.819360900001,1905.8295213999954,1905.8295213999954,1905.8733828999975,1905.8737372000032,1905.8894490999955,1905.8894490999955,1905.8894490999955,1905.972740600002,1906.2237009999953,space,0.3281954999984009,None,,,,,,,,,,,,,,,,,,,,,,,,,P152,001,2025-04-11_13h22.45.185,posner_endo_new1,2024.2.4,60.04942067377926,2025-04-11 13h22.52.949611 +0100,
cube_l.png,0.1,-0.31,valid,2,2,0,down,2.086268700004439,None,space,0.369610299996566,None,0,2,2,0,,,,,,,,,1906.2393620999937,,,,,,,,,,,,,1906.2239760999946,1906.2393620999937,1906.2393620999937,1906.2393620999937,1908.338357200002,down,2.086268700004439,None,1908.3499900000024,1908.3601423999935,1908.3601423999935,1908.4041084000055,1908.4044589999976,1908.4201099000056,1908.4201099000056,1908.4201099000056,1908.5037018000003,1908.8046062999929,space,0.369610299996566,None,,,,,,,,,,,,,,,,,,,,,,,,,P152,001,2025-04-11_13h22.45.185,posner_endo_new1,2024.2.4,60.04942067377926,2025-04-11 13h22.52.949611 +0100,
cube_r.png,0.1,-0.31,invalid,3,3,0,down,4.22604140000476,None,space,0.33155830000760034,None,0,3,3,6,,,,,,,,,1908.8197338000027,,,,,,,,,,,,,1908.8048812000052,1908.8197338000027,1908.8197338000027,1908.8197338000027,1913.0504750999971,down,4.22604140000476,None,1913.061069000003,1913.0706920999946,1913.0706920999946,1913.1159926999972,1913.1162379000016,1913.1322811999999,1913.1322811999999,1913.1322811999999,1913.2155888999987,1913.468045600006,space,0.33155830000760034,None,,,,,,,,,,,,,,,,,,,,,,,,,P152,001,2025-04-11_13h22.45.185,posner_endo_new1,2024.2.4,60.04942067377926,2025-04-11 13h22.52.949611 +0100,
cube_r.png,0.1,10,catch,4,4,0,down,2.8354434999928344,None,space,0.37257120000140276,None,0,4,4,3,,,,,,,,,1913.482244800005,,,,,,,,,,,,,1913.4685883000056,1913.482244800005,1913.482244800005,1913.482244800005,1916.3315679999941,down,2.8354434999928344,None,1916.3544451000053,1916.3668900000048,1916.3668900000048,1916.395389199999,1916.395732200006,1916.4118253000051,1916.4118253000051,1916.4118253000051,1916.4952729999932,1916.7963702999987,space,0.37257120000140276,None,,,,,,,,,,,,,,,,,,,,,,,,,P152,001,2025-04-11_13h22.45.185,posner_endo_new1,2024.2.4,60.04942067377926,2025-04-11 13h22.52.949611 +0100,
cube_l.png,0.1,0.31,invalid,5,5,0,down,2.113737300009234,None,space,0.42397050000727177,None,0,5,5,1,,,,,,,,,1916.8115799999941,,,,,,,,,,,,,1916.7966308000032,1916.8115799999941,1916.8115799999941,1916.8115799999941,1918.9276393000036,down,2.113737300009234,None,1918.9386112000066,1918.9489156000054,1918.9489156000054,1918.9927626999997,1918.9931013000023,1919.009339600001,1919.009339600001,1919.009339600001,1919.0929812999966,1919.443868500006,space,0.42397050000727177,None,,,,,,,,,,,,,,,,,,,,,,,,,P152,001,2025-04-11_13h22.45.185,posner_endo_new1,2024.2.4,60.04942067377926,2025-04-11 13h22.52.949611 +0100,
cube_l.png,0.1,-0.31,valid,6,6,0,down,1.6423074000049382,None,space,0.46231299999635667,None,0,6,6,8,,,,,,,,,1919.4588708999945,,,,,,,,,,,,,1919.4441285999928,1919.4588708999945,1919.4588708999945,1919.4588708999945,1921.1084893999941,down,1.6423074000049382,None,1921.1196037000045,1921.1297692999942,1921.1297692999942,1921.1739669999952,1921.174311099996,1921.1908566000056,1921.1908566000056,1921.1908566000056,1921.2737205000012,1921.6581762999995,space,0.46231299999635667,None,,,,,,,,,,,,,,,,,,,,,,,,,P152,001,2025-04-11_13h22.45.185,posner_endo_new1,2024.2.4,60.04942067377926,2025-04-11 13h22.52.949611 +0100,
cube_r.png,0.1,-0.31,invalid,7,7,0,down,1.3474123000050895,None,space,0.40661760000512004,None,0,7,7,2,,,,,,,,,1921.6737148999964,,,,,,,,,,,,,1921.658437200007,1921.6737148999964,1921.6737148999964,1921.6737148999964,1923.0233965999942,down,1.3474123000050895,None,1923.0343394999945,1923.0444743999979,1923.0444743999979,1923.0885809000029,1923.0889164999971,1923.1053087000037,1923.1053087000037,1923.1053087000037,1923.1886796000035,1923.5226375000057,space,0.40661760000512004,None,,,,,,,,,,,,,,,,,,,,,,,,,P152,001,2025-04-11_13h22.45.185,posner_endo_new1,2024.2.4,60.04942067377926,2025-04-11 13h22.52.949611 +0100,
cube_r.png,0.1,0.31,valid,8,8,0,down,2.659313199997996,None,space,0.3990781999891624,None,0,8,8,7,,,,,,,,,1923.5384004999942,,,,,,,,,,,,,1923.522910700005,1923.5384004999942,1923.5384004999942,1923.5384004999942,1926.2032304000022,down,2.659313199997996,None,1926.2142767000041,1926.2245234000002,1926.2245234000002,1926.2691794999992,1926.2695157999988,1926.2856141999946,1926.2856141999946,1926.2856141999946,1926.368478000004,1926.686076500002,space,0.3990781999891624,None,,,,,,,,,,,,,,,,,,,,,,,,,P152,001,2025-04-11_13h22.45.185,posner_endo_new1,2024.2.4,60.04942067377926,2025-04-11 13h22.52.949611 +0100,
cube_r.png,0.1,-0.31,invalid,9,9,0,down,1.5355513999966206,None,space,0.38951710000401363,None,0,9,9,9,,,,,,,,,1926.7018059999973,,,,,,,,,,,,,1926.6863360999996,1926.7018059999973,1926.7018059999973,1926.7018059999973,1928.2512735000055,down,1.5355513999966206,None,1928.262350799996,1928.2724493999995,1928.2724493999995,1928.316784499999,1928.3171216000046,1928.3335077999945,1928.3335077999945,1928.3335077999945,1928.4165721000027,1928.7341614000034,space,0.38951710000401363,None,,,,,,,,,,,,,,,,,,,,,,,,,P152,001,2025-04-11_13h22.45.185,posner_endo_new1,2024.2.4,60.04942067377926,2025-04-11 13h22.52.949611 +0100,
cube_l.png,0.1,0.31,invalid,10,10,0,down,2.048380400010501,None,space,0.49391629999445286,None,0,10,10,5,,,,,,,,,1928.7497013999964,,,,,,,,,,,,,1928.7344206999987,1928.7497013999964,1928.7497013999964,1928.7497013999964,1930.8153304000007,down,2.048380400010501,None,1930.826335100006,1930.8363446000003,1930.8363446000003,1930.8808661999938,1930.8812161999958,1930.8975577999954,1930.8975577999954,1930.8975577999954,1930.980728399998,1931.3976950999931,space,0.49391629999445286,None,,,,,,,,,,,,,,,,,,,,,,,,,P152,001,2025-04-11_13h22.45.185,posner_endo_new1,2024.2.4,60.04942067377926,2025-04-11 13h22.52.949611 +0100,
,,,,,,,,,,,,,,,,,,,,,,,,,,,,,,,,,,1931.3978730999952,1931.413784599994,1934.424294299999,1934.3945766999968,,,,,,,,,,,,,,,,,,,,,,,,,,,,,,,,,,,,,,,,,,,,,,P152,001,2025-04-11_13h22.45.185,posner_endo_new1,2024.2.4,60.04942067377926,2025-04-11 13h22.52.949611 +0100,
cube_l.png,0.1,10,catch,0,0,0,down,23.581609700006084,None,None,,,,,,,0,0,0,0,,,,,1934.424294299999,,,,,,,,,,,,,1934.4152096000034,1934.424294299999,1934.424294299999,1934.424294299999,1958.020847000007,,,,1958.0312638000032,1958.0411872999975,1958.0411872999975,1958.086571000007,1958.0868145999993,1958.1030499000044,1958.1030499000044,1958.1030499000044,1958.1862160000019,1961.101728900001,,,,down,23.581609700006084,None,1960.2010259999952,1961.1167643999943,1961.1167643999943,1961.1167643999943,None,,,,,,,,,,,,,,,,,P152,001,2025-04-11_13h22.45.185,posner_endo_new1,2024.2.4,60.04942067377926,2025-04-11 13h22.52.949611 +0100,
cube_l.png,0.1,10,catch,1,1,0,down,3.0086662999965483,None,None,,,,,,,0,1,1,1,,,,,1961.1167643999943,,,,,,,,,,,,,1961.1022746999952,1961.1167643999943,1961.1167643999943,1961.1167643999943,1964.132766499999,,,,1964.1526271000039,1964.1628002999933,1964.1628002999933,1964.1965558999946,1964.1969501999993,1964.2130317999981,1964.2130317999981,1964.2130317999981,1964.2963465000066,1967.2108325000008,,,,down,3.0086662999965483,None,1966.3108722000034,1967.2265087999986,1967.2265087999986,1967.2265087999986,None,,,,,,,,,,,,,,,,,P152,001,2025-04-11_13h22.45.185,posner_endo_new1,2024.2.4,60.04942067377926,2025-04-11 13h22.52.949611 +0100,
cube_l.png,0.1,0.31,invalid,2,2,0,down,2.1947743999917293,None,space,0.41686170001048595,None,,,,,0,2,2,2,,,,,1967.2265087999986,,,,,,,,,,,,,1967.2111386000033,1967.2265087999986,1967.2265087999986,1967.2265087999986,1969.425712199998,,,,1969.4385639999964,1969.4486121999944,1969.4486121999944,1969.4911641000072,1969.491567399993,1969.5075355000008,1969.5075355000008,1969.5075355000008,1969.590936099994,1969.941652399997,,,,down,2.1947743999917293,None,,,,,space,0.41686170001048595,None,,,,,,,,,,,,,,,P152,001,2025-04-11_13h22.45.185,posner_endo_new1,2024.2.4,60.04942067377926,2025-04-11 13h22.52.949611 +0100,
cube_l.png,0.1,0.31,invalid,3,3,0,down,1.784662499994738,None,space,0.44780150000588037,None,,,,,0,3,3,3,,,,,1969.9572294999962,,,,,,,,,,,,,1969.9419883999944,1969.9572294999962,1969.9572294999962,1969.9572294999962,1971.7565801000019,,,,1971.7693039000005,1971.7793185000046,1971.7793185000046,1971.8220052999968,1971.822407700005,1971.8386386000057,1971.8386386000057,1971.8386386000057,1971.9218575999985,1972.2895878999989,,,,down,1.784662499994738,None,,,,,space,0.44780150000588037,None,,,,,,,,,,,,,,,P152,001,2025-04-11_13h22.45.185,posner_endo_new1,2024.2.4,60.04942067377926,2025-04-11 13h22.52.949611 +0100,
cube_l.png,0.1,-0.31,valid,4,4,0,down,1.6211328000063077,None,space,0.3884160999878077,None,,,,,0,4,4,4,,,,,1972.3046894,,,,,,,,,,,,,1972.2899101999938,1972.3046894,1972.3046894,1972.3046894,1973.9378421000001,,,,1973.9505575999938,1973.9606152000051,1973.9606152000051,1974.0031197000062,1974.0033846000006,1974.0200536000048,1974.0200536000048,1974.0200536000048,1974.1030983999954,1974.4205933000048,,,,down,1.6211328000063077,None,,,,,space,0.3884160999878077,None,,,,,,,,,,,,,,,P152,001,2025-04-11_13h22.45.185,posner_endo_new1,2024.2.4,60.04942067377926,2025-04-11 13h22.52.949611 +0100,
cube_r.png,0.1,-0.31,invalid,5,5,0,down,1.2173000000038883,None,space,0.4053299999941373,None,,,,,0,5,5,5,,,,,1974.4357834999973,,,,,,,,,,,,,1974.420801500004,1974.4357834999973,1974.4357834999973,1974.4357834999973,1975.6690909000026,,,,1975.6769566000003,1975.6877940999984,1975.6877940999984,1975.735130400004,1975.7354108,1975.7514400999935,1975.7514400999935,1975.7514400999935,1975.834423399996,1976.1685712000035,,,,down,1.2173000000038883,None,,,,,space,0.4053299999941373,None,,,,,,,,,,,,,,,P152,001,2025-04-11_13h22.45.185,posner_endo_new1,2024.2.4,60.04942067377926,2025-04-11 13h22.52.949611 +0100,
cube_r.png,0.1,0.31,valid,6,6,0,down,1.861451799995848,None,space,0.32345290000375826,None,,,,,0,6,6,6,,,,,1976.1845292999933,,,,,,,,,,,,,1976.1687897999946,1976.1845292999933,1976.1845292999933,1976.1845292999933,1978.0500466999947,,,,1978.0616454999981,1978.0718568000011,1978.0718568000011,1978.1159971000016,1978.1163494000066,1978.1323986000061,1978.1323986000061,1978.1323986000061,1978.2154545999947,1978.4668017999938,,,,down,1.861451799995848,None,,,,,space,0.32345290000375826,None,,,,,,,,,,,,,,,P152,001,2025-04-11_13h22.45.185,posner_endo_new1,2024.2.4,60.04942067377926,2025-04-11 13h22.52.949611 +0100,
cube_r.png,0.1,-0.31,invalid,7,7,0,down,2.4924356999981683,None,space,0.3214393999951426,None,,,,,0,7,7,7,,,,,1978.4821538999968,,,,,,,,,,,,,1978.4670884999941,1978.4821538999968,1978.4821538999968,1978.4821538999968,1980.9808045999962,,,,1980.992501700006,1981.0027198000025,1981.0027198000025,1981.046141400002,1981.046394200006,1981.0625417999981,1981.0625417999981,1981.0625417999981,1981.145761199994,1981.3970229999977,,,,down,2.4924356999981683,None,,,,,space,0.3214393999951426,None,,,,,,,,,,,,,,,P152,001,2025-04-11_13h22.45.185,posner_endo_new1,2024.2.4,60.04942067377926,2025-04-11 13h22.52.949611 +0100,
cube_l.png,0.1,-0.31,valid,8,8,0,down,2.889469100002316,None,space,0.3075909000035608,None,,,,,0,8,8,8,,,,,1981.4124485000066,,,,,,,,,,,,,1981.3973090000072,1981.4124485000066,1981.4124485000066,1981.4124485000066,1984.3106658000033,,,,1984.3221932000015,1984.3324100000027,1984.3324100000027,1984.3762800999975,1984.3766426999937,1984.3924392000044,1984.3924392000044,1984.3924392000044,1984.4758613000013,1984.7102477000008,,,,down,2.889469100002316,None,,,,,space,0.3075909000035608,None,,,,,,,,,,,,,,,P152,001,2025-04-11_13h22.45.185,posner_endo_new1,2024.2.4,60.04942067377926,2025-04-11 13h22.52.949611 +0100,
cube_r.png,0.1,-0.31,invalid,9,9,0,down,2.5194308000063756,None,space,0.3521852999983821,None,,,,,0,9,9,9,,,,,1984.7257297000033,,,,,,,,,,,,,1984.710536700004,1984.7257297000033,1984.7257297000033,1984.7257297000033,1987.2573451000062,,,,1987.268923399999,1987.279033800005,1987.279033800005,1987.3229564000067,1987.3233127999993,1987.3397391000035,1987.3397391000035,1987.3397391000035,1987.4230020999967,1987.7069224000006,,,,down,2.5194308000063756,None,,,,,space,0.3521852999983821,None,,,,,,,,,,,,,,,P152,001,2025-04-11_13h22.45.185,posner_endo_new1,2024.2.4,60.04942067377926,2025-04-11 13h22.52.949611 +0100,
cube_l.png,0.1,0.31,invalid,10,10,0,down,2.1307887000002665,None,space,0.32752559999062214,None,,,,,0,10,10,10,,,,,1987.7227067000058,,,,,,,,,,,,,1987.7072079000063,1987.7227067000058,1987.7227067000058,1987.7227067000058,1989.8549537000072,,,,1989.8665265000018,1989.8767054000054,1989.8767054000054,1989.9205318000022,1989.9208817000035,1989.9370102999965,1989.9370102999965,1989.9370102999965,1990.0200053000008,1990.271196200003,,,,down,2.1307887000002665,None,,,,,space,0.32752559999062214,None,,,,,,,,,,,,,,,P152,001,2025-04-11_13h22.45.185,posner_endo_new1,2024.2.4,60.04942067377926,2025-04-11 13h22.52.949611 +0100,
cube_r.png,0.1,-0.31,invalid,11,11,0,down,1.6638507999887224,None,space,0.3443769000004977,None,,,,,0,11,11,11,,,,,1990.286462300006,,,,,,,,,,,,,1990.2715251000045,1990.286462300006,1990.286462300006,1990.286462300006,1991.953049799995,,,,1991.9645061000047,1991.9746169999999,1991.9746169999999,1992.0185065999976,1992.0188696999976,1992.034944500003,1992.034944500003,1992.034944500003,1992.1178436000046,1992.3854150999978,,,,down,1.6638507999887224,None,,,,,space,0.3443769000004977,None,,,,,,,,,,,,,,,P152,001,2025-04-11_13h22.45.185,posner_endo_new1,2024.2.4,60.04942067377926,2025-04-11 13h22.52.949611 +0100,
cube_r.png,0.1,0.31,valid,12,12,0,down,1.7884691000072053,None,space,0.3439635999966413,None,,,,,0,12,12,12,,,,,1992.4010373000056,,,,,,,,,,,,,1992.3857019999996,1992.4010373000056,1992.4010373000056,1992.4010373000056,1994.2004696999938,,,,1994.211061199996,1994.2204936000053,1994.2204936000053,1994.2661737000017,1994.2664131000056,1994.2827151999954,1994.2827151999954,1994.2827151999954,1994.3658770000038,1994.6329397999943,,,,down,1.7884691000072053,None,,,,,space,0.3439635999966413,None,,,,,,,,,,,,,,,P152,001,2025-04-11_13h22.45.185,posner_endo_new1,2024.2.4,60.04942067377926,2025-04-11 13h22.52.949611 +0100,
cube_l.png,0.1,10,catch,13,13,0,down,2.028956800000742,None,None,,,,,,,0,13,13,13,,,,,1994.6489806000027,,,,,,,,,,,,,1994.6331170000049,1994.6489806000027,1994.6489806000027,1994.6489806000027,1996.683180699998,,,,1996.7030187000055,1996.7131079999963,1996.7131079999963,1996.7466377999954,1996.7470433999988,1996.7630508000002,1996.7630508000002,1996.7630508000002,1996.8463787999935,1999.760791099994,,,,down,2.028956800000742,None,1998.8608704999933,1999.7766807000007,1999.7766807000007,1999.7766807000007,None,,,,,,,,,,,,,,,,,P152,001,2025-04-11_13h22.45.185,posner_endo_new1,2024.2.4,60.04942067377926,2025-04-11 13h22.52.949611 +0100,
cube_r.png,0.1,-0.31,invalid,14,14,0,down,1.4053030999930343,None,space,0.3946799999976065,None,,,,,0,14,14,14,,,,,1999.7766807000007,,,,,,,,,,,,,1999.761110899999,1999.7766807000007,1999.7766807000007,1999.7766807000007,2001.193168800004,,,,2001.2059722999984,2001.216035999998,2001.216035999998,2001.2588061999995,2001.259204899994,2001.2750866999995,2001.2750866999995,2001.2750866999995,2001.3584028000041,2001.6761161000031,,,,down,1.4053030999930343,None,,,,,space,0.3946799999976065,None,,,,,,,,,,,,,,,P152,001,2025-04-11_13h22.45.185,posner_endo_new1,2024.2.4,60.04942067377926,2025-04-11 13h22.52.949611 +0100,
cube_l.png,0.1,-0.31,valid,15,15,0,down,1.5457238999952096,None,space,0.31792549999954645,None,,,,,0,15,15,15,,,,,2001.6914842999977,,,,,,,,,,,,,2001.6764371000027,2001.6914842999977,2001.6914842999977,2001.6914842999977,2003.2413089000038,,,,2003.2539951999934,2003.2639762000035,2003.2639762000035,2003.3064771000063,2003.3068726000056,2003.3231214999978,2003.3231214999978,2003.3231214999978,2003.4063311000064,2003.6574834000057,,,,down,1.5457238999952096,None,,,,,space,0.31792549999954645,None,,,,,,,,,,,,,,,P152,001,2025-04-11_13h22.45.185,posner_endo_new1,2024.2.4,60.04942067377926,2025-04-11 13h22.52.949611 +0100,
cube_r.png,0.1,10,catch,16,16,0,down,2.269191100000171,None,None,,,,,,,0,16,16,16,,,,,2003.6727329999994,,,,,,,,,,,,,2003.6578038000007,2003.6727329999994,2003.6727329999994,2003.6727329999994,2005.9550451999967,,,,2005.9679997000057,2005.9780739999987,2005.9780739999987,2006.0204383999953,2006.0208412999928,2006.0369572000054,2006.0369572000054,2006.0369572000054,2006.1201867000054,2009.0347451999987,,,,down,2.269191100000171,None,2008.1347846999997,2009.0505315000046,2009.0505315000046,2009.0505315000046,None,,,,,,,,,,,,,,,,,P152,001,2025-04-11_13h22.45.185,posner_endo_new1,2024.2.4,60.04942067377926,2025-04-11 13h22.52.949611 +0100,
cube_r.png,0.1,10,catch,17,17,0,down,0.1546743999933824,None,None,,,,,,,0,17,17,17,,,,,2009.0505315000046,,,,,,,,,,,,,2009.035056099994,2009.0505315000046,2009.0505315000046,2009.0505315000046,2009.2182598999934,,,,2009.2309456999938,2009.2412289000058,2009.2412289000058,2009.2836085000017,2009.283890599996,2009.300411300006,2009.300411300006,2009.300411300006,2009.3839617000049,2012.2990837999969,,,,down,0.1546743999933824,None,2011.398615099999,2012.314335899995,2012.314335899995,2012.314335899995,None,,,,,,,,,,,,,,,,,P152,001,2025-04-11_13h22.45.185,posner_endo_new1,2024.2.4,60.04942067377926,2025-04-11 13h22.52.949611 +0100,
cube_l.png,0.1,0.31,invalid,18,18,0,down,16.70676359999925,None,space,0.4227136999979848,None,,,,,0,18,18,18,,,,,2012.314335899995,,,,,,,,,,,,,2012.2996147999947,2012.314335899995,2012.314335899995,2012.314335899995,2029.032932400005,,,,2029.0564118000038,2029.0684904999944,2029.0684904999944,2029.096721599999,2029.097093400007,2029.1132055000053,2029.1132055000053,2029.1132055000053,2029.196876300004,2029.5476503999962,,,,down,16.70676359999925,None,,,,,space,0.4227136999979848,None,,,,,,,,,,,,,,,P152,001,2025-04-11_13h22.45.185,posner_endo_new1,2024.2.4,60.04942067377926,2025-04-11 13h22.52.949611 +0100,
cube_l.png,0.1,10,catch,19,19,0,down,3.938543700001901,None,None,,,,,,,0,19,19,19,,,,,2029.5632756999985,,,,,,,,,,,,,2029.5479420000047,2029.5632756999985,2029.5632756999985,2029.5632756999985,2033.510460599995,,,,2033.5220564000047,2033.5322514,2033.5322514,2033.5755043999961,2033.5757666999998,2033.5920107999991,2033.5920107999991,2033.5920107999991,2033.6755018999975,2036.590870800006,,,,down,3.938543700001901,None,2035.6904828999977,2036.6062212999968,2036.6062212999968,2036.6062212999968,None,,,,,,,,,,,,,,,,,P152,001,2025-04-11_13h22.45.185,posner_endo_new1,2024.2.4,60.04942067377926,2025-04-11 13h22.52.949611 +0100,
cube_l.png,0.1,0.31,invalid,20,20,0,down,1.6948543000034988,None,space,0.4407210999925155,None,,,,,0,20,20,20,,,,,2036.6062212999968,,,,,,,,,,,,,2036.5914075000037,2036.6062212999968,2036.6062212999968,2036.6062212999968,2038.306981799993,,,,2038.3300400000007,2038.3424607000052,2038.3424607000052,2038.3704988999962,2038.3708555000048,2038.3872957999993,2038.3872957999993,2038.3872957999993,2038.4707811999979,2038.8381283000053,,,,down,1.6948543000034988,None,,,,,space,0.4407210999925155,None,,,,,,,,,,,,,,,P152,001,2025-04-11_13h22.45.185,posner_endo_new1,2024.2.4,60.04942067377926,2025-04-11 13h22.52.949611 +0100,
cube_l.png,0.1,-0.31,valid,21,21,0,down,4.128813799994532,None,space,0.39840400000684895,None,,,,,0,21,21,21,,,,,2038.8533055000007,,,,,,,,,,,,,2038.8384228000068,2038.8533055000007,2038.8533055000007,2038.8533055000007,2042.9839699000004,,,,2042.9928129000036,2043.0026291999966,2043.0026291999966,2043.0497114000027,2043.0502294000034,2043.065889000005,2043.065889000005,2043.065889000005,2043.149135700005,2043.4673852999986,,,,down,4.128813799994532,None,,,,,space,0.39840400000684895,None,,,,,,,,,,,,,,,P152,001,2025-04-11_13h22.45.185,posner_endo_new1,2024.2.4,60.04942067377926,2025-04-11 13h22.52.949611 +0100,
cube_r.png,0.1,0.31,valid,22,22,0,down,2.0675715999968816,None,space,0.3442643999878783,None,,,,,0,22,22,22,,,,,2043.4821394000028,,,,,,,,,,,,,2043.4678130999964,2043.4821394000028,2043.4821394000028,2043.4821394000028,2045.5645872000023,,,,2045.5734651999956,2045.5832312999992,2045.5832312999992,2045.6303034000011,2045.6308642999938,2045.6466761000047,2045.6466761000047,2045.6466761000047,2045.7299874000018,2045.9983860999928,,,,down,2.0675715999968816,None,,,,,space,0.3442643999878783,None,,,,,,,,,,,,,,,P152,001,2025-04-11_13h22.45.185,posner_endo_new1,2024.2.4,60.04942067377926,2025-04-11 13h22.52.949611 +0100,
cube_r.png,0.1,-0.31,invalid,23,23,0,down,1.8328640999970958,None,space,0.3773777999886079,None,,,,,0,23,23,23,,,,,2046.0129843000032,,,,,,,,,,,,,2045.998851700002,2046.0129843000032,2046.0129843000032,2046.0129843000032,2047.862923099994,,,,2047.880757100007,2047.8907147999998,2047.8907147999998,2047.9278774999984,2047.9282301000057,2047.9442664999951,2047.9442664999951,2047.9442664999951,2048.027254200002,2048.3286757000023,,,,down,1.8328640999970958,None,,,,,space,0.3773777999886079,None,,,,,,,,,,,,,,,P152,001,2025-04-11_13h22.45.185,posner_endo_new1,2024.2.4,60.04942067377926,2025-04-11 13h22.52.949611 +0100,
cube_r.png,0.1,0.31,valid,24,24,0,down,5.445142399999895,None,space,0.32033729999966454,None,,,,,0,24,24,24,,,,,2048.343932799995,,,,,,,,,,,,,2048.328961799998,2048.343932799995,2048.343932799995,2048.343932799995,2053.805924100001,,,,2053.817620799993,2053.8276746000047,2053.8276746000047,2053.871695199996,2053.8720630000025,2053.887958499996,2053.887958499996,2053.887958499996,2053.9712034999975,2054.222423500003,,,,down,5.445142399999895,None,,,,,space,0.32033729999966454,None,,,,,,,,,,,,,,,P152,001,2025-04-11_13h22.45.185,posner_endo_new1,2024.2.4,60.04942067377926,2025-04-11 13h22.52.949611 +0100,
cube_r.png,0.1,-0.31,invalid,25,25,0,down,1.4960954999987734,None,space,0.2962039999983972,None,,,,,0,25,25,25,,,,,2054.2377717000054,,,,,,,,,,,,,2054.2227230999997,2054.2377717000054,2054.2377717000054,2054.2377717000054,2055.7375146999984,,,,2055.7492294999975,2055.7594793000026,2055.7594793000026,2055.802985999995,2055.803347299996,2055.8195622000057,2055.8195622000057,2055.8195622000057,2055.9030029999994,2056.1202425999945,,,,down,1.4960954999987734,None,,,,,space,0.2962039999983972,None,,,,,,,,,,,,,,,P152,001,2025-04-11_13h22.45.185,posner_endo_new1,2024.2.4,60.04942067377926,2025-04-11 13h22.52.949611 +0100,
cube_l.png,0.1,-0.31,valid,26,26,0,down,1.6455214000015985,None,space,0.31601949999458157,None,,,,,0,26,26,26,,,,,2056.135928699994,,,,,,,,,,,,,2056.120530900007,2056.135928699994,2056.135928699994,2056.135928699994,2057.785622700001,,,,2057.7973243000015,2057.807764500001,2057.807764500001,2057.8510174999974,2057.851389999996,2057.867267099995,2057.867267099995,2057.867267099995,2057.9508254999964,2058.185305100007,,,,down,1.6455214000015985,None,,,,,space,0.31601949999458157,None,,,,,,,,,,,,,,,P152,001,2025-04-11_13h22.45.185,posner_endo_new1,2024.2.4,60.04942067377926,2025-04-11 13h22.52.949611 +0100,
cube_r.png,0.1,0.31,valid,27,27,0,down,1.7244487999996636,None,space,0.34954280000238214,None,,,,,0,27,27,27,,,,,2058.2004981000064,,,,,,,,,,,,,2058.1855898000067,2058.2004981000064,2058.2004981000064,2058.2004981000064,2059.933360700001,,,,2059.9429046000005,2059.952850600006,2059.952850600006,2059.999053000007,2059.999607299993,2060.0152997999976,2060.0152997999976,2060.0152997999976,2060.0985762000055,2060.367036399999,,,,down,1.7244487999996636,None,,,,,space,0.34954280000238214,None,,,,,,,,,,,,,,,P152,001,2025-04-11_13h22.45.185,posner_endo_new1,2024.2.4,60.04942067377926,2025-04-11 13h22.52.949611 +0100,
cube_r.png,0.1,10,catch,28,28,0,down,3.7676460000075167,None,None,,,,,,,0,28,28,28,,,,,2060.381646499998,,,,,,,,,,,,,2060.367506499999,2060.381646499998,2060.381646499998,2060.381646499998,2064.1629199000017,,,,2064.181554099996,2064.192906600001,2064.192906600001,2064.2276774000056,2064.228034700005,2064.2444647999946,2064.2444647999946,2064.2444647999946,2064.3277143000014,2067.2419295,,,,down,3.7676460000075167,None,2066.3421873000043,2067.2578881999943,2067.2578881999943,2067.2578881999943,None,,,,,,,,,,,,,,,,,P152,001,2025-04-11_13h22.45.185,posner_endo_new1,2024.2.4,60.04942067377926,2025-04-11 13h22.52.949611 +0100,
cube_r.png,0.1,0.31,valid,29,29,0,down,1.1231023000000278,None,space,0.44482889999926556,None,,,,,0,29,29,29,,,,,2067.2578881999943,,,,,,,,,,,,,2067.242198199994,2067.2578881999943,2067.2578881999943,2067.2578881999943,2068.3908901999966,,,,2068.4009085,2068.4106136000046,2068.4106136000046,2068.456774499995,2068.457016900007,2068.473482100002,2068.473482100002,2068.473482100002,2068.5398422,2068.923775300005,,,,down,1.1231023000000278,None,,,,,space,0.44482889999926556,None,,,,,,,,,,,,,,,P152,001,2025-04-11_13h22.45.185,posner_endo_new1,2024.2.4,60.04942067377926,2025-04-11 13h22.52.949611 +0100,
cube_r.png,0.1,0.31,valid,30,30,0,down,4.593886000002385,None,space,0.38784619999933057,None,,,,,0,30,30,30,,,,,2068.9395035000052,,,,,,,,,,,,,2068.9239589000063,2068.9395035000052,2068.9395035000052,2068.9395035000052,2073.537666999997,,,,2073.559584699993,2073.569855099995,2073.569855099995,2073.601610800004,2073.601965099995,2073.618053600003,2073.618053600003,2073.618053600003,2073.701557499997,2074.0189337000047,,,,down,4.593886000002385,None,,,,,space,0.38784619999933057,None,,,,,,,,,,,,,,,P152,001,2025-04-11_13h22.45.185,posner_endo_new1,2024.2.4,60.04942067377926,2025-04-11 13h22.52.949611 +0100,
cube_l.png,0.1,-0.31,valid,31,31,0,down,7.707079900006647,None,space,0.3456614000024274,None,,,,,0,31,31,31,,,,,2074.0342961999995,,,,,,,,,,,,,2074.019219099995,2074.0342961999995,2074.0342961999995,2074.0342961999995,2081.744363299993,,,,2081.753255200005,2081.763196700005,2081.763196700005,2081.8098489999975,2081.8101027999946,2081.825971500002,2081.825971500002,2081.825971500002,2081.9098535999947,2082.176451899999,,,,down,7.707079900006647,None,,,,,space,0.3456614000024274,None,,,,,,,,,,,,,,,P152,001,2025-04-11_13h22.45.185,posner_endo_new1,2024.2.4,60.04942067377926,2025-04-11 13h22.52.949611 +0100,
cube_r.png,0.1,0.31,valid,32,32,0,down,1.6043956999928923,None,space,0.3400491999927908,None,,,,,0,32,32,32,,,,,2082.192710000003,,,,,,,,,,,,,2082.1766492000024,2082.192710000003,2082.192710000003,2082.192710000003,2083.809599400003,,,,2083.8283408999996,2083.839680799996,2083.839680799996,2083.8744939000026,2083.8750621999934,2083.890966799998,2083.890966799998,2083.890966799998,2083.974157100005,2084.242704300006,,,,down,1.6043956999928923,None,,,,,space,0.3400491999927908,None,,,,,,,,,,,,,,,P152,001,2025-04-11_13h22.45.185,posner_endo_new1,2024.2.4,60.04942067377926,2025-04-11 13h22.52.949611 +0100,
cube_r.png,0.1,-0.31,invalid,33,33,0,down,1.66032670000277,None,space,0.34534200000052806,None,,,,,0,33,33,33,,,,,2084.257236300007,,,,,,,,,,,,,2084.2431806999957,2084.257236300007,2084.257236300007,2084.257236300007,2085.924133099994,,,,2085.9429669999954,2085.9548337000015,2085.9548337000015,2085.988657499998,2085.9889497999975,2086.005342699995,2086.005342699995,2086.005342699995,2086.0883537000045,2086.3556389000005,,,,down,1.66032670000277,None,,,,,space,0.34534200000052806,None,,,,,,,,,,,,,,,P152,001,2025-04-11_13h22.45.185,posner_endo_new1,2024.2.4,60.04942067377926,2025-04-11 13h22.52.949611 +0100,
cube_r.png,0.1,10,catch,34,34,0,down,3.378387200005818,None,None,,,,,,,0,34,34,34,,,,,2086.3716325999994,,,,,,,,,,,,,2086.3558686000033,2086.3716325999994,2086.3716325999994,2086.3716325999994,2089.7536259000044,,,,2089.7724132000003,2089.783799099998,2089.783799099998,2089.8184535000037,2089.819060900001,2089.834817199997,2089.834817199997,2089.834817199997,2089.9180727000057,2092.8327926000056,,,,down,3.378387200005818,None,2091.9326247999998,2092.848348600004,2092.848348600004,2092.848348600004,None,,,,,,,,,,,,,,,,,P152,001,2025-04-11_13h22.45.185,posner_endo_new1,2024.2.4,60.04942067377926,2025-04-11 13h22.52.949611 +0100,
cube_r.png,0.1,0.31,valid,35,35,0,down,1.7812730000005104,None,space,0.41445359999488574,None,,,,,0,35,35,35,,,,,2092.848348600004,,,,,,,,,,,,,2092.833226799994,2092.848348600004,2092.848348600004,2092.848348600004,2094.6319354000007,,,,2094.6507011000067,2094.6619879000064,2094.6619879000064,2094.6967679999943,2094.6973359999974,2094.713154600002,2094.713154600002,2094.713154600002,2094.7964009999996,2095.1314286999987,,,,down,1.7812730000005104,None,,,,,space,0.41445359999488574,None,,,,,,,,,,,,,,,P152,001,2025-04-11_13h22.45.185,posner_endo_new1,2024.2.4,60.04942067377926,2025-04-11 13h22.52.949611 +0100,
cube_r.png,0.1,-0.31,invalid,36,36,0,down,7.067146900008083,None,space,0.3738445000053616,None,,,,,0,36,36,36,,,,,2095.1460449000006,,,,,,,,,,,,,2095.131898000007,2095.1460449000006,2095.1460449000006,2095.1460449000006,2102.2239348000003,,,,2102.2410841999954,2102.251401200003,2102.251401200003,2102.2889548999956,2102.2893115000043,2102.3051525000046,2102.3051525000046,2102.3051525000046,2102.3883672999946,2102.6891877000016,,,,down,7.067146900008083,None,,,,,space,0.3738445000053616,None,,,,,,,,,,,,,,,P152,001,2025-04-11_13h22.45.185,posner_endo_new1,2024.2.4,60.04942067377926,2025-04-11 13h22.52.949611 +0100,
cube_l.png,0.1,0.31,invalid,37,37,0,down,2.7483402999932878,None,space,0.2847254000080284,None,,,,,0,37,37,37,,,,,2102.705028199998,,,,,,,,,,,,,2102.6894867999945,2102.705028199998,2102.705028199998,2102.705028199998,2105.4696204999927,,,,2105.4805208000034,2105.489821700001,2105.489821700001,2105.5355842999998,2105.5358233000006,2105.552054700005,2105.552054700005,2105.552054700005,2105.635297899993,2105.8522140999994,,,,down,2.7483402999932878,None,,,,,space,0.2847254000080284,None,,,,,,,,,,,,,,,P152,001,2025-04-11_13h22.45.185,posner_endo_new1,2024.2.4,60.04942067377926,2025-04-11 13h22.52.949611 +0100,
cube_l.png,0.1,0.31,invalid,38,38,0,down,5.241001800008235,None,space,0.3797455999883823,None,,,,,0,38,38,38,,,,,2105.868354899998,,,,,,,,,,,,,2105.852392800007,2105.868354899998,2105.868354899998,2105.868354899998,2111.113921700002,,,,2111.1236399000045,2111.1339447000064,2111.1339447000064,2111.180167700004,2111.1808722999995,2111.1965571000037,2111.1965571000037,2111.1965571000037,2111.263180599999,2111.581772599995,,,,down,5.241001800008235,None,,,,,space,0.3797455999883823,None,,,,,,,,,,,,,,,P152,001,2025-04-11_13h22.45.185,posner_endo_new1,2024.2.4,60.04942067377926,2025-04-11 13h22.52.949611 +0100,
cube_r.png,0.1,0.31,valid,39,39,0,down,4.217102399998112,None,space,0.3742929000000004,None,,,,,0,39,39,39,,,,,2111.5961494999938,,,,,,,,,,,,,2111.5823613999964,2111.5961494999938,2111.5961494999938,2111.5961494999938,2115.827329099993,,,,2115.850597800003,2115.8634628,2115.8634628,2115.891287499995,2115.8916382000025,2115.907730699997,2115.907730699997,2115.907730699997,2115.991622100002,2116.2919468000036,,,,down,4.217102399998112,None,,,,,space,0.3742929000000004,None,,,,,,,,,,,,,,,P152,001,2025-04-11_13h22.45.185,posner_endo_new1,2024.2.4,60.04942067377926,2025-04-11 13h22.52.949611 +0100,
cube_l.png,0.1,0.31,invalid,40,40,0,down,2.2013994000008097,None,space,0.3622092000005068,None,,,,,0,40,40,40,,,,,2116.307807499994,,,,,,,,,,,,,2116.292230299994,2116.307807499994,2116.307807499994,2116.307807499994,2118.523210200001,,,,2118.534861699998,2118.5449360000057,2118.5449360000057,2118.588902500007,2118.589261400004,2118.605082599999,2118.605082599999,2118.605082599999,2118.6883378000057,2118.972597,,,,down,2.2013994000008097,None,,,,,space,0.3622092000005068,None,,,,,,,,,,,,,,,P152,001,2025-04-11_13h22.45.185,posner_endo_new1,2024.2.4,60.04942067377926,2025-04-11 13h22.52.949611 +0100,
cube_l.png,0.1,10,catch,41,41,0,down,5.057466500002192,None,space,0.35704260000784416,None,,,,,0,41,41,41,,,,,2118.988324699996,,,,,,,,,,,,,2118.9728784000035,2118.988324699996,2118.988324699996,2118.988324699996,2124.0525058000057,,,,2124.075391999999,2124.0873513999977,2124.0873513999977,2124.1161561000044,2124.116508699997,2124.1326337000064,2124.1326337000064,2124.1326337000064,2124.2163306,2124.500484000004,,,,down,5.057466500002192,None,,,,,space,0.35704260000784416,None,,,,,,,,,,,,,,,P152,001,2025-04-11_13h22.45.185,posner_endo_new1,2024.2.4,60.04942067377926,2025-04-11 13h22.52.949611 +0100,
cube_l.png,0.1,-0.31,valid,42,42,0,down,8.561715599993477,None,space,0.42202240000187885,None,,,,,0,42,42,42,,,,,2124.5161013000034,,,,,,,,,,,,,2124.5007727000047,2124.5161013000034,2124.5161013000034,2124.5161013000034,2133.0910682999966,,,,2133.098233500001,2133.1101277999987,2133.1101277999987,2133.1566235000064,2133.156873999993,2133.1736141,2133.1736141,2133.1736141,2133.2403505999973,2133.6070000000036,,,,down,8.561715599993477,None,,,,,space,0.42202240000187885,None,,,,,,,,,,,,,,,P152,001,2025-04-11_13h22.45.185,posner_endo_new1,2024.2.4,60.04942067377926,2025-04-11 13h22.52.949611 +0100,
cube_l.png,0.1,10,catch,43,43,0,down,5.374477799996384,None,None,,,,,,,0,43,43,43,,,,,2133.623221300004,,,,,,,,,,,,,2133.6071567000035,2133.623221300004,2133.623221300004,2133.623221300004,2139.0018700999935,,,,2139.0115619999997,2139.0217412000056,2139.0217412000056,2139.0676423999976,2139.067953100006,2139.0842121000023,2139.0842121000023,2139.0842121000023,2139.150741000005,2142.082021299997,,,,down,5.374477799996384,None,2141.1653226000053,2142.098054000002,2142.098054000002,2142.098054000002,None,,,,,,,,,,,,,,,,,P152,001,2025-04-11_13h22.45.185,posner_endo_new1,2024.2.4,60.04942067377926,2025-04-11 13h22.52.949611 +0100,
cube_l.png,0.1,0.31,invalid,44,44,0,down,2.6275564999959897,None,space,0.4547885000065435,None,,,,,0,44,44,44,,,,,2142.098054000002,,,,,,,,,,,,,2142.0822538000066,2142.098054000002,2142.098054000002,2142.098054000002,2144.7294844999997,,,,2144.739348400006,2144.749607000005,2144.749607000005,2144.7954330000066,2144.7957543999946,2144.8116077000013,2144.8116077000013,2144.8116077000013,2144.895214499993,2145.2791146999953,,,,down,2.6275564999959897,None,,,,,space,0.4547885000065435,None,,,,,,,,,,,,,,,P152,001,2025-04-11_13h22.45.185,posner_endo_new1,2024.2.4,60.04942067377926,2025-04-11 13h22.52.949611 +0100,
cube_l.png,0.1,0.31,invalid,45,45,0,down,7.703470699998434,None,space,0.39212079999560956,None,,,,,0,45,45,45,,,,,2145.2945741000003,,,,,,,,,,,,,2145.279364300004,2145.2945741000003,2145.2945741000003,2145.2945741000003,2153.0042310999997,,,,2153.013964800004,2153.0240434000007,2153.0240434000007,2153.070419099997,2153.070731700005,2153.086735699995,2153.086735699995,2153.086735699995,2153.1697980000026,2153.487273999999,,,,down,7.703470699998434,None,,,,,space,0.39212079999560956,None,,,,,,,,,,,,,,,P152,001,2025-04-11_13h22.45.185,posner_endo_new1,2024.2.4,60.04942067377926,2025-04-11 13h22.52.949611 +0100,
cube_r.png,0.1,0.31,valid,46,46,0,down,1.5340310000028694,None,space,0.38963709998643026,None,,,,,0,46,46,46,,,,,2153.5031820000004,,,,,,,,,,,,,2153.487520900002,2153.5031820000004,2153.5031820000004,2153.5031820000004,2155.0521825000033,,,,2155.0621004999994,2155.072569199998,2155.072569199998,2155.1178752999986,2155.1182053999946,2155.1343699999998,2155.1343699999998,2155.1343699999998,2155.2179428999953,2155.535098399996,,,,down,1.5340310000028694,None,,,,,space,0.38963709998643026,None,,,,,,,,,,,,,,,P152,001,2025-04-11_13h22.45.185,posner_endo_new1,2024.2.4,60.04942067377926,2025-04-11 13h22.52.949611 +0100,
cube_l.png,0.1,-0.31,valid,47,47,0,down,1.838993000012124,None,space,0.3308157999999821,None,,,,,0,47,47,47,,,,,2155.5507123999996,,,,,,,,,,,,,2155.5353505999956,2155.5507123999996,2155.5507123999996,2155.5507123999996,2157.4000890000025,,,,2157.4097885999945,2157.419451099995,2157.419451099995,2157.466028199997,2157.466266599993,2157.4822450999927,2157.4822450999927,2157.4822450999927,2157.565627200005,2157.8159050999966,,,,down,1.838993000012124,None,,,,,space,0.3308157999999821,None,,,,,,,,,,,,,,,P152,001,2025-04-11_13h22.45.185,posner_endo_new1,2024.2.4,60.04942067377926,2025-04-11 13h22.52.949611 +0100,
cube_r.png,0.1,-0.31,invalid,48,48,0,down,1.7572079000092344,None,space,0.2764751999930013,None,,,,,0,48,48,48,,,,,2157.8319736999983,,,,,,,,,,,,,2157.816080000004,2157.8319736999983,2157.8319736999983,2157.8319736999983,2159.597510599997,,,,2159.6037641000003,2159.6151719000045,2159.6151719000045,2159.663608600007,2159.663848600001,2159.679960900001,2159.679960900001,2159.679960900001,2159.746554199999,2159.9660519000026,,,,down,1.7572079000092344,None,,,,,space,0.2764751999930013,None,,,,,,,,,,,,,,,P152,001,2025-04-11_13h22.45.185,posner_endo_new1,2024.2.4,60.04942067377926,2025-04-11 13h22.52.949611 +0100,
cube_r.png,0.1,10,catch,49,49,0,down,1.817262500000652,None,None,,,,,,,0,49,49,49,,,,,2159.9801986999955,,,,,,,,,,,,,2159.9666343999997,2159.9801986999955,2159.9801986999955,2159.9801986999955,2161.8137772000046,,,,2161.837008699993,2161.848490999997,2161.848490999997,2161.877508999998,2161.877858199994,2161.894555299994,2161.894555299994,2161.894555299994,2161.977405700003,2164.8921020999987,,,,down,1.817262500000652,None,2163.992259999999,2164.9080548000056,2164.9080548000056,2164.9080548000056,None,,,,,,,,,,,,,,,,,P152,001,2025-04-11_13h22.45.185,posner_endo_new1,2024.2.4,60.04942067377926,2025-04-11 13h22.52.949611 +0100,
cube_l.png,0.1,-0.31,valid,50,50,0,down,0.4409439000010025,None,space,0.36049440001079347,None,,,,,0,50,50,50,,,,,2164.9080548000056,,,,,,,,,,,,,2164.8923638999986,2164.9080548000056,2164.9080548000056,2164.9080548000056,2165.3586039999936,,,,2165.370275299996,2165.380592799993,2165.380592799993,2165.4242642000027,2165.4245173999952,2165.441063200007,2165.441063200007,2165.441063200007,2165.507039899996,2165.8080038000044,,,,down,0.4409439000010025,None,,,,,space,0.36049440001079347,None,,,,,,,,,,,,,,,P152,001,2025-04-11_13h22.45.185,posner_endo_new1,2024.2.4,60.04942067377926,2025-04-11 13h22.52.949611 +0100,
cube_l.png,0.1,-0.31,valid,51,51,0,down,1.662073200001032,None,space,0.36183039999741595,None,,,,,0,51,51,51,,,,,2165.8237563000002,,,,,,,,,,,,,2165.808195100006,2165.8237563000002,2165.8237563000002,2165.8237563000002,2167.490241000007,,,,2167.504669400005,2167.5150817999966,2167.5150817999966,2167.5553138999967,2167.5557667999965,2167.571732800003,2167.571732800003,2167.571732800003,2167.654939999993,2167.9389464999986,,,,down,1.662073200001032,None,,,,,space,0.36183039999741595,None,,,,,,,,,,,,,,,P152,001,2025-04-11_13h22.45.185,posner_endo_new1,2024.2.4,60.04942067377926,2025-04-11 13h22.52.949611 +0100,
cube_r.png,0.1,-0.31,invalid,52,52,0,down,3.0187513999990188,None,space,0.4281560000090394,None,,,,,0,52,52,52,,,,,2167.954941499993,,,,,,,,,,,,,2167.9391923999938,2167.954941499993,2167.954941499993,2167.954941499993,2170.9861153999955,,,,2170.9959086000017,2171.0061343999987,2171.0061343999987,2171.051539799999,2171.051867400005,2171.0683010000066,2171.0683010000066,2171.0683010000066,2171.151320300007,2171.5024609999964,,,,down,3.0187513999990188,None,,,,,space,0.4281560000090394,None,,,,,,,,,,,,,,,P152,001,2025-04-11_13h22.45.185,posner_endo_new1,2024.2.4,60.04942067377926,2025-04-11 13h22.52.949611 +0100,
cube_l.png,0.1,-0.31,valid,53,53,0,down,2.767363299994031,None,space,0.3396249999932479,None,,,,,0,53,53,53,,,,,2171.517844400005,,,,,,,,,,,,,2171.5027214,2171.517844400005,2171.517844400005,2171.517844400005,2174.2991079000058,,,,2174.308677199995,2174.318826100003,2174.318826100003,2174.3648791000014,2174.3651947000035,2174.3814217000036,2174.3814217000036,2174.3814217000036,2174.447966000007,2174.732307600003,,,,down,2.767363299994031,None,,,,,space,0.3396249999932479,None,,,,,,,,,,,,,,,P152,001,2025-04-11_13h22.45.185,posner_endo_new1,2024.2.4,60.04942067377926,2025-04-11 13h22.52.949611 +0100,
cube_r.png,0.1,10,catch,54,54,0,down,2.5531048999982886,None,None,,,,,,,0,54,54,54,,,,,2174.7479471999977,,,,,,,,,,,,,2174.7325599000033,2174.7479471999977,2174.7479471999977,2174.7479471999977,2177.312824599998,,,,2177.3224480000063,2177.3325255999953,2177.3325255999953,2177.3784198000067,2177.378731100005,2177.3949417999975,2177.3949417999975,2177.3949417999975,2177.478440699997,2180.3928761999996,,,,down,2.5531048999982886,None,2179.492895100004,2180.4084745,2180.4084745,2180.4084745,None,,,,,,,,,,,,,,,,,P152,001,2025-04-11_13h22.45.185,posner_endo_new1,2024.2.4,60.04942067377926,2025-04-11 13h22.52.949611 +0100,
cube_l.png,0.1,0.31,invalid,55,55,0,down,1.0289130000019213,None,space,0.37818409998726565,None,,,,,0,55,55,55,,,,,2180.4084745,,,,,,,,,,,,,2180.3931045000063,2180.4084745,2180.4084745,2180.4084745,2181.4422398000024,,,,2181.4519312000048,2181.4620255000045,2181.4620255000045,2181.5078540999966,2181.5081668000057,2181.523980900005,2181.523980900005,2181.523980900005,2181.6075923000026,2181.908135699996,,,,down,1.0289130000019213,None,,,,,space,0.37818409998726565,None,,,,,,,,,,,,,,,P152,001,2025-04-11_13h22.45.185,posner_endo_new1,2024.2.4,60.04942067377926,2025-04-11 13h22.52.949611 +0100,
cube_l.png,0.1,-0.31,valid,56,56,0,down,1.9862657000048785,None,space,0.2792236000095727,None,,,,,0,56,56,56,,,,,2181.9240375999943,,,,,,,,,,,,,2181.9083835000056,2181.9240375999943,2181.9240375999943,2181.9240375999943,2183.9229235999956,,,,2183.9386894000054,2183.9509668999963,2183.9509668999963,2183.9884881000035,2183.9889349000005,2184.0049122000055,2184.0049122000055,2184.0049122000055,2184.088348300007,2184.2892976000003,,,,down,1.9862657000048785,None,,,,,space,0.2792236000095727,None,,,,,,,,,,,,,,,P152,001,2025-04-11_13h22.45.185,posner_endo_new1,2024.2.4,60.04942067377926,2025-04-11 13h22.52.949611 +0100,
cube_r.png,0.1,0.31,valid,57,57,0,down,1.996366699997452,None,space,0.3478627000004053,None,,,,,0,57,57,57,,,,,2184.304830199995,,,,,,,,,,,,,2184.289542300001,2184.304830199995,2184.304830199995,2184.304830199995,2186.303932099996,,,,2186.313551500003,2186.323772799995,2186.323772799995,2186.3693135000067,2186.3696256999974,2186.3861409999954,2186.3861409999954,2186.3861409999954,2186.4693135999987,2186.7367977999966,,,,down,1.996366699997452,None,,,,,space,0.3478627000004053,None,,,,,,,,,,,,,,,P152,001,2025-04-11_13h22.45.185,posner_endo_new1,2024.2.4,60.04942067377926,2025-04-11 13h22.52.949611 +0100,
cube_r.png,0.1,-0.31,invalid,58,58,0,down,1.7333231999946292,None,space,0.4327298999996856,None,,,,,0,58,58,58,,,,,2186.752045999994,,,,,,,,,,,,,2186.7370498999953,2186.752045999994,2186.752045999994,2186.752045999994,2188.5017118999967,,,,2188.5113887000043,2188.5215713999933,2188.5215713999933,2188.5673943,2188.5677043000032,2188.5836117,2188.5836117,2188.5836117,2188.667114600001,2189.0175618000067,,,,down,1.7333231999946292,None,,,,,space,0.4327298999996856,None,,,,,,,,,,,,,,,P152,001,2025-04-11_13h22.45.185,posner_endo_new1,2024.2.4,60.04942067377926,2025-04-11 13h22.52.949611 +0100,
cube_l.png,0.1,0.31,invalid,59,59,0,down,4.54799869999988,None,space,0.4347822999989148,None,,,,,0,59,59,59,,,,,2189.033198899997,,,,,,,,,,,,,2189.0178047999943,2189.033198899997,2189.033198899997,2189.033198899997,2193.5961263000063,,,,2193.605806899999,2193.6160375000036,2193.6160375000036,2193.6623044000007,2193.662616200003,2193.6782577999984,2193.6782577999984,2193.6782577999984,2193.7619041,2194.1290052999975,,,,down,4.54799869999988,None,,,,,space,0.4347822999989148,None,,,,,,,,,,,,,,,P152,001,2025-04-11_13h22.45.185,posner_endo_new1,2024.2.4,60.04942067377926,2025-04-11 13h22.52.949611 +0100,
,,,,,,,,,,,,,,,,,,,,,,,,,,,,,,,,,,,,,,,,,,,,,,,,,,,,,,,,,,,,,,,,,,,,,2194.1291650000057,2194.144874999998,2194.144874999998,2254.150099899998,2258.646484099998,space,64.48484859999735,None,,,,,,,P152,001,2025-04-11_13h22.45.185,posner_endo_new1,2024.2.4,60.04942067377926,2025-04-11 13h22.52.949611 +0100,
,,,,,,,,,,,,,,,,,,,,,,,,,,,,,,,,,,2258.646564499999,2258.6617888000037,2261.7328507000057,2261.644679300007,,,,,,,,,,,,,,,,,,,,,,,,,,,,,,,,,,,,,,,,,,,,,,P152,001,2025-04-11_13h22.45.185,posner_endo_new1,2024.2.4,60.04942067377926,2025-04-11 13h22.52.949611 +0100,
cube_l.png,0.1,10,catch,0,0,0,up,2.2084823999903165,None,None,,,,,,,,,,,0,0,0,0,2261.7328507000057,,,,,,,,,,,,,2261.724706299996,2261.7328507000057,2261.7328507000057,2261.7328507000057,2263.9588741000043,,,,2263.9823208000016,2263.9939988999977,2263.9939988999977,2264.0230666999996,2264.0234266000043,2264.039460900007,2264.039460900007,2264.039460900007,2264.1229250000033,2267.037204399996,,,,,,,2266.1377068,2267.0535203000036,2267.0535203000036,2267.0535203000036,,,,,,,,,,,,up,2.2084823999903165,None,None,,,P152,001,2025-04-11_13h22.45.185,posner_endo_new1,2024.2.4,60.04942067377926,2025-04-11 13h22.52.949611 +0100,
cube_l.png,0.1,10,catch,1,1,0,up,2.016156500001671,None,None,,,,,,,,,,,0,1,1,1,2267.0535203000036,,,,,,,,,,,,,2267.0374822000013,2267.0535203000036,2267.0535203000036,2267.0535203000036,2269.0860282000067,,,,2269.097720299993,2269.108035700003,2269.108035700003,2269.151445700001,2269.1518113000056,2269.168032500005,2269.168032500005,2269.168032500005,2269.2509499000007,2272.1656662000023,,,,,,,2271.2656405000016,2272.181281199999,2272.181281199999,2272.181281199999,,,,,,,,,,,,up,2.016156500001671,None,None,,,P152,001,2025-04-11_13h22.45.185,posner_endo_new1,2024.2.4,60.04942067377926,2025-04-11 13h22.52.949611 +0100,
cube_l.png,0.1,0.31,invalid,2,2,0,up,1.8721743999922182,None,space,0.44903380000323523,None,,,,,,,,,0,2,2,2,2272.181281199999,,,,,,,,,,,,,2272.1659370999987,2272.181281199999,2272.181281199999,2272.181281199999,2274.064180600006,,,,2274.075652600004,2274.0859204000008,2274.0859204000008,2274.1298964000016,2274.1302506999928,2274.1463058999943,2274.1463058999943,2274.1463058999943,2274.2295738999965,2274.5968235000037,,,,,,,,,,,,,,,,,,,,,,up,1.8721743999922182,None,space,0.44903380000323523,None,P152,001,2025-04-11_13h22.45.185,posner_endo_new1,2024.2.4,60.04942067377926,2025-04-11 13h22.52.949611 +0100,
cube_l.png,0.1,0.31,invalid,3,3,0,up,2.64147149999917,None,space,0.34884940000483766,None,,,,,,,,,0,3,3,3,2274.612233000007,,,,,,,,,,,,,2274.5971142000053,2274.612233000007,2274.612233000007,2274.612233000007,2277.2608158999938,,,,2277.2723648999963,2277.282724799996,2277.282724799996,2277.326239700007,2277.3264928999997,2277.343052700002,2277.343052700002,2277.343052700002,2277.4264497999975,2277.6953709999943,,,,,,,,,,,,,,,,,,,,,,up,2.64147149999917,None,space,0.34884940000483766,None,P152,001,2025-04-11_13h22.45.185,posner_endo_new1,2024.2.4,60.04942067377926,2025-04-11 13h22.52.949611 +0100,
cube_l.png,0.1,-0.31,valid,4,4,0,up,4.640118399998755,None,space,0.39699759999348316,None,,,,,,,,,0,4,4,4,2277.7096168999997,,,,,,,,,,,,,2277.6959644000017,2277.7096168999997,2277.7096168999997,2277.7096168999997,2282.3570336999983,,,,2282.3802576000016,2282.3925931999984,2282.3925931999984,2282.4209235000017,2282.421319400004,2282.437449399993,2282.437449399993,2282.437449399993,2282.520747799994,2282.837975100003,,,,,,,,,,,,,,,,,,,,,,up,4.640118399998755,None,space,0.39699759999348316,None,P152,001,2025-04-11_13h22.45.185,posner_endo_new1,2024.2.4,60.04942067377926,2025-04-11 13h22.52.949611 +0100,
cube_r.png,0.1,-0.31,invalid,5,5,0,up,4.615711699996609,None,space,0.24904609999794047,None,,,,,,,,,0,5,5,5,2282.8541373000044,,,,,,,,,,,,,2282.8382022000005,2282.8541373000044,2282.8541373000044,2282.8541373000044,2287.4833946,,,,2287.4971797000035,2287.5093699999998,2287.5093699999998,2287.549178000001,2287.549621600003,2287.565659400003,2287.565659400003,2287.565659400003,2287.6488455999934,2287.816425600002,,,,,,,,,,,,,,,,,,,,,,up,4.615711699996609,None,space,0.24904609999794047,None,P152,001,2025-04-11_13h22.45.185,posner_endo_new1,2024.2.4,60.04942067377926,2025-04-11 13h22.52.949611 +0100,
cube_r.png,0.1,0.31,valid,6,6,0,up,4.316927699997905,None,space,0.4542745000071591,None,,,,,,,,,0,6,6,6,2287.8322372999974,,,,,,,,,,,,,2287.816683900004,2287.8322372999974,2287.8322372999974,2287.8322372999974,2292.1621563999943,,,,2292.1767230999976,2292.191055000003,2292.191055000003,2292.2275486,2292.2279430000053,2292.2439993000007,2292.2439993000007,2292.2439993000007,2292.3272755999933,2292.7115202999994,,,,,,,,,,,,,,,,,,,,,,up,4.316927699997905,None,space,0.4542745000071591,None,P152,001,2025-04-11_13h22.45.185,posner_endo_new1,2024.2.4,60.04942067377926,2025-04-11 13h22.52.949611 +0100,
cube_r.png,0.1,-0.31,invalid,7,7,0,up,4.886493099998916,None,space,0.3690795000002254,None,,,,,,,,,0,7,7,7,2292.726895999993,,,,,,,,,,,,,2292.7118478000048,2292.726895999993,2292.726895999993,2292.726895999993,2297.6232651000028,,,,2297.636024099993,2297.646080999999,2297.646080999999,2297.688740700003,2297.689136999994,2297.705102699998,2297.705102699998,2297.705102699998,2297.7883382,2298.0895708000025,,,,,,,,,,,,,,,,,,,,,,up,4.886493099998916,None,space,0.3690795000002254,None,P152,001,2025-04-11_13h22.45.185,posner_endo_new1,2024.2.4,60.04942067377926,2025-04-11 13h22.52.949611 +0100,
cube_l.png,0.1,-0.31,valid,8,8,0,up,5.348733099992387,None,space,0.32627400000637863,None,,,,,,,,,0,8,8,8,2298.104844100002,,,,,,,,,,,,,2298.0899008999986,2298.104844100002,2298.104844100002,2298.104844100002,2303.4668804999965,,,,2303.4731971,2303.4851995000063,2303.4851995000063,2303.5326472000015,2303.5328731000045,2303.549248700001,2303.549248700001,2303.549248700001,2303.6161603999935,2303.8834020000068,,,,,,,,,,,,,,,,,,,,,,up,5.348733099992387,None,space,0.32627400000637863,None,P152,001,2025-04-11_13h22.45.185,posner_endo_new1,2024.2.4,60.04942067377926,2025-04-11 13h22.52.949611 +0100,
cube_r.png,0.1,-0.31,invalid,9,9,0,up,3.713934600003995,None,space,0.36251829999673646,None,,,,,,,,,0,9,9,9,2303.899243000007,,,,,,,,,,,,,2303.883582299997,2303.899243000007,2303.899243000007,2303.899243000007,2307.6296086999937,,,,2307.6424625999935,2307.6521532000042,2307.6521532000042,2307.6949901000044,2307.6953899999935,2307.7114737999946,2307.7114737999946,2307.7114737999946,2307.794897999993,2308.0793846000015,,,,,,,,,,,,,,,,,,,,,,up,3.713934600003995,None,space,0.36251829999673646,None,P152,001,2025-04-11_13h22.45.185,posner_endo_new1,2024.2.4,60.04942067377926,2025-04-11 13h22.52.949611 +0100,
cube_l.png,0.1,0.31,invalid,10,10,0,up,4.025797299997066,None,space,0.3947199000103865,None,,,,,,,,,0,10,10,10,2308.094529199996,,,,,,,,,,,,,2308.0797108999977,2308.094529199996,2308.094529199996,2308.094529199996,2312.1293886000058,,,,2312.141116300001,2312.161729600004,2312.161729600004,2312.184309599994,2312.1851664999995,2312.204455400002,2312.204455400002,2312.204455400002,2312.290636100006,2312.607802300001,,,,,,,,,,,,,,,,,,,,,,up,4.025797299997066,None,space,0.3947199000103865,None,P152,001,2025-04-11_13h22.45.185,posner_endo_new1,2024.2.4,60.04942067377926,2025-04-11 13h22.52.949611 +0100,
cube_r.png,0.1,-0.31,invalid,11,11,0,up,5.070633100011037,None,space,0.3503193999931682,None,,,,,,,,,0,11,11,11,2312.622968399999,,,,,,,,,,,,,2312.6079754999955,2312.622968399999,2312.622968399999,2312.622968399999,2317.704288599998,,,,2317.7274864000065,2317.737794200002,2317.737794200002,2317.7680055999954,2317.7683480999985,2317.7848411000014,2317.7848411000014,2317.7848411000014,2317.867881900005,2318.1522376000066,,,,,,,,,,,,,,,,,,,,,,up,5.070633100011037,None,space,0.3503193999931682,None,P152,001,2025-04-11_13h22.45.185,posner_endo_new1,2024.2.4,60.04942067377926,2025-04-11 13h22.52.949611 +0100,
cube_r.png,0.1,0.31,valid,12,12,0,up,5.326411200003349,None,space,0.34078309999313205,None,,,,,,,,,0,12,12,12,2318.167535300003,,,,,,,,,,,,,2318.152515099995,2318.167535300003,2318.167535300003,2318.167535300003,2323.4969016999967,,,,2323.5080336999963,2323.518137399995,2323.518137399995,2323.562438599998,2323.562779300002,2323.579053499998,2323.579053499998,2323.579053499998,2323.662387400007,2323.9294184000028,,,,,,,,,,,,,,,,,,,,,,up,5.326411200003349,None,space,0.34078309999313205,None,P152,001,2025-04-11_13h22.45.185,posner_endo_new1,2024.2.4,60.04942067377926,2025-04-11 13h22.52.949611 +0100,
cube_l.png,0.1,10,catch,13,13,0,up,2.412497800003621,None,None,,,,,,,,,,,0,13,13,13,2323.945273499994,,,,,,,,,,,,,2323.9296942999936,2323.945273499994,2323.945273499994,2323.945273499994,2326.360737099996,,,,2326.3712090000045,2326.3807355000026,2326.3807355000026,2326.426355100004,2326.4266046999983,2326.442330699996,2326.442330699996,2326.442330699996,2326.5258570000005,2329.441306599998,,,,,,,2328.540752800007,2329.456477300002,2329.456477300002,2329.456477300002,,,,,,,,,,,,up,2.412497800003621,None,None,,,P152,001,2025-04-11_13h22.45.185,posner_endo_new1,2024.2.4,60.04942067377926,2025-04-11 13h22.52.949611 +0100,
cube_r.png,0.1,-0.31,invalid,14,14,0,up,1.3095413999981247,None,space,0.4217583999998169,None,,,,,,,,,0,14,14,14,2329.456477300002,,,,,,,,,,,,,2329.4418828000053,2329.456477300002,2329.456477300002,2329.456477300002,2330.772684399999,,,,2330.782426100006,2330.792632900004,2330.792632900004,2330.8387480999954,2330.8394318000064,2330.855122199995,2330.855122199995,2330.855122199995,2330.921747500004,2331.290288999997,,,,,,,,,,,,,,,,,,,,,,up,1.3095413999981247,None,space,0.4217583999998169,None,P152,001,2025-04-11_13h22.45.185,posner_endo_new1,2024.2.4,60.04942067377926,2025-04-11 13h22.52.949611 +0100,
cube_l.png,0.1,-0.31,valid,15,15,0,up,5.253240400008508,None,space,0.36595710000256076,None,,,,,,,,,0,15,15,15,2331.3047222000023,,,,,,,,,,,,,2331.290883599999,2331.3047222000023,2331.3047222000023,2331.3047222000023,2336.5684000000037,,,,2336.591847799995,2336.6041159000015,2336.6041159000015,2336.6320071999944,2336.632344800004,2336.648877200001,2336.648877200001,2336.648877200001,2336.732133700003,2337.0165304999973,,,,,,,,,,,,,,,,,,,,,,up,5.253240400008508,None,space,0.36595710000256076,None,P152,001,2025-04-11_13h22.45.185,posner_endo_new1,2024.2.4,60.04942067377926,2025-04-11 13h22.52.949611 +0100,
cube_r.png,0.1,10,catch,16,16,0,up,5.998054900002899,None,None,,,,,,,,,,,0,16,16,16,2337.031701400003,,,,,,,,,,,,,2337.0168241000065,2337.031701400003,2337.031701400003,2337.031701400003,2343.043183200003,,,,2343.0521651000017,2343.062046299994,2343.062046299994,2343.1094714000064,2343.110040700005,2343.1256351000047,2343.1256351000047,2343.1256351000047,2343.1922201999987,2346.123609100003,,,,,,,2345.2068638000055,2346.1392506999982,2346.1392506999982,2346.1392506999982,,,,,,,,,,,,up,5.998054900002899,None,None,,,P152,001,2025-04-11_13h22.45.185,posner_endo_new1,2024.2.4,60.04942067377926,2025-04-11 13h22.52.949611 +0100,
cube_r.png,0.1,10,catch,17,17,0,up,0.30592800000158604,None,None,,,,,,,,,,,0,17,17,17,2346.1392506999982,,,,,,,,,,,,,2346.124057299996,2346.1392506999982,2346.1392506999982,2346.1392506999982,2346.457387500006,,,,2346.4760877999943,2346.4874468000053,2346.4874468000053,2346.5224299999973,2346.5229766999983,2346.5388683000056,2346.5388683000056,2346.5388683000056,2346.6220598999935,2349.5368805000035,,,,,,,2348.636668799998,2349.552390800003,2349.552390800003,2349.552390800003,,,,,,,,,,,,up,0.30592800000158604,None,None,,,P152,001,2025-04-11_13h22.45.185,posner_endo_new1,2024.2.4,60.04942067377926,2025-04-11 13h22.52.949611 +0100,
cube_l.png,0.1,0.31,invalid,18,18,0,up,1.6208250999916345,None,space,0.4720484999998007,None,,,,,,,,,0,18,18,18,2349.552390800003,,,,,,,,,,,,,2349.5373221000045,2349.552390800003,2349.552390800003,2349.552390800003,2351.185821399995,,,,2351.204635000002,2351.2163940000028,2351.2163940000028,2351.2504344000045,2351.2507325000042,2351.2674714000023,2351.2674714000023,2351.2674714000023,2351.3504631999967,2351.752312800003,,,,,,,,,,,,,,,,,,,,,,up,1.6208250999916345,None,space,0.4720484999998007,None,P152,001,2025-04-11_13h22.45.185,posner_endo_new1,2024.2.4,60.04942067377926,2025-04-11 13h22.52.949611 +0100,
cube_l.png,0.1,10,catch,19,19,0,up,4.446537000010721,None,None,,,,,,,,,,,0,19,19,19,2351.766769599999,,,,,,,,,,,,,2351.7528138000052,2351.766769599999,2351.766769599999,2351.766769599999,2356.230536599993,,,,2356.2490225999936,2356.2590173000062,2356.2590173000062,2356.2958660000004,2356.2962179000024,2356.312101599993,2356.312101599993,2356.312101599993,2356.395455200007,2359.309592000005,,,,,,,2358.4097485999955,2359.325620699994,2359.325620699994,2359.325620699994,,,,,,,,,,,,up,4.446537000010721,None,None,,,P152,001,2025-04-11_13h22.45.185,posner_endo_new1,2024.2.4,60.04942067377926,2025-04-11 13h22.52.949611 +0100,
cube_l.png,0.1,0.31,invalid,20,20,0,up,3.3044548999896506,None,space,0.3989624000096228,None,,,,,,,,,0,20,20,20,2359.325620699994,,,,,,,,,,,,,2359.309863100003,2359.325620699994,2359.325620699994,2359.325620699994,2362.6402519999974,,,,2362.6519820999965,2362.6622133000055,2362.6622133000055,2362.7057630000054,2362.7060155999934,2362.7220188000065,2362.7220188000065,2362.7220188000065,2362.805647500005,2363.1230286000064,,,,,,,,,,,,,,,,,,,,,,up,3.3044548999896506,None,space,0.3989624000096228,None,P152,001,2025-04-11_13h22.45.185,posner_endo_new1,2024.2.4,60.04942067377926,2025-04-11 13h22.52.949611 +0100,
cube_l.png,0.1,-0.31,valid,21,21,0,up,4.811150599998655,None,space,0.3829081000003498,None,,,,,,,,,0,21,21,21,2363.138103899997,,,,,,,,,,,,,2363.123225699994,2363.138103899997,2363.138103899997,2363.138103899997,2367.952991099999,,,,2367.9763622000028,2367.9875201999967,2367.9875201999967,2368.0165875999955,2368.0169407000067,2368.033087200005,2368.033087200005,2368.033087200005,2368.116772399997,2368.417821199997,,,,,,,,,,,,,,,,,,,,,,up,4.811150599998655,None,space,0.3829081000003498,None,P152,001,2025-04-11_13h22.45.185,posner_endo_new1,2024.2.4,60.04942067377926,2025-04-11 13h22.52.949611 +0100,
cube_r.png,0.1,0.31,valid,22,22,0,up,5.2206986000092,None,space,0.34123279999766964,None,,,,,,,,,0,22,22,22,2368.432909299998,,,,,,,,,,,,,2368.418125700002,2368.432909299998,2368.432909299998,2368.432909299998,2373.662402300004,,,,2373.6740138000023,2373.6842496000027,2373.6842496000027,2373.728020099996,2373.728373799997,2373.7442485999927,2373.7442485999927,2373.7442485999927,2373.8276528999995,2374.0952475999948,,,,,,,,,,,,,,,,,,,,,,up,5.2206986000092,None,space,0.34123279999766964,None,P152,001,2025-04-11_13h22.45.185,posner_endo_new1,2024.2.4,60.04942067377926,2025-04-11 13h22.52.949611 +0100,
cube_r.png,0.1,-0.31,invalid,23,23,0,up,1.9267356999916956,None,space,0.35494059999473393,None,,,,,,,,,0,23,23,23,2374.1103273000044,,,,,,,,,,,,,2374.0955442999984,2374.1103273000044,2374.1103273000044,2374.1103273000044,2376.043267800007,,,,2376.0522522999963,2376.0620720000006,2376.0620720000006,2376.108886700007,2376.109409900004,2376.1251740000007,2376.1251740000007,2376.1251740000007,2376.208337799995,2376.4927970999997,,,,,,,,,,,,,,,,,,,,,,up,1.9267356999916956,None,space,0.35494059999473393,None,P152,001,2025-04-11_13h22.45.185,posner_endo_new1,2024.2.4,60.04942067377926,2025-04-11 13h22.52.949611 +0100,
cube_r.png,0.1,0.31,valid,24,24,0,up,7.305200500006322,None,space,0.41821589999017306,None,,,,,,,,,0,24,24,24,2376.508093299999,,,,,,,,,,,,,2376.4930928999966,2376.508093299999,2376.508093299999,2376.508093299999,2383.8186010000063,,,,2383.830233600005,2383.8404616000043,2383.8404616000043,2383.883627599993,2383.8838883999997,2383.900608099997,2383.900608099997,2383.900608099997,2383.9835559000057,2384.3346216000064,,,,,,,,,,,,,,,,,,,,,,up,7.305200500006322,None,space,0.41821589999017306,None,P152,001,2025-04-11_13h22.45.185,posner_endo_new1,2024.2.4,60.04942067377926,2025-04-11 13h22.52.949611 +0100,
cube_r.png,0.1,-0.31,invalid,25,25,0,up,3.2549608999979682,None,space,0.33824569999706,None,,,,,,,,,0,25,25,25,2384.3500690999936,,,,,,,,,,,,,2384.3349255000066,2384.3500690999936,2384.3500690999936,2384.3500690999936,2387.6143062000046,,,,2387.6259150999977,2387.6361460000044,2387.6361460000044,2387.6802250000037,2387.6805788000056,2387.696635100001,2387.696635100001,2387.696635100001,2387.763239599997,2388.047577300007,,,,,,,,,,,,,,,,,,,,,,up,3.2549608999979682,None,space,0.33824569999706,None,P152,001,2025-04-11_13h22.45.185,posner_endo_new1,2024.2.4,60.04942067377926,2025-04-11 13h22.52.949611 +0100,
cube_l.png,0.1,-0.31,valid,26,26,0,up,4.870494299990241,None,space,0.38468240000656806,None,,,,,,,,,0,26,26,26,2388.062742599999,,,,,,,,,,,,,2388.047874600001,2388.062742599999,2388.062742599999,2388.062742599999,2392.9425748000067,,,,2392.9541936000023,2392.9647726999974,2392.9647726999974,2393.008092300006,2393.008449800007,2393.024238900005,2393.024238900005,2393.024238900005,2393.1078667999973,2393.4250090999994,,,,,,,,,,,,,,,,,,,,,,up,4.870494299990241,None,space,0.38468240000656806,None,P152,001,2025-04-11_13h22.45.185,posner_endo_new1,2024.2.4,60.04942067377926,2025-04-11 13h22.52.949611 +0100,
cube_r.png,0.1,0.31,valid,27,27,0,up,5.9332211000000825,None,space,0.3720778999995673,None,,,,,,,,,0,27,27,27,2393.440648799995,,,,,,,,,,,,,2393.425298300004,2393.440648799995,2393.440648799995,2393.440648799995,2399.3860501000017,,,,2399.397657399997,2399.4079558999947,2399.4079558999947,2399.451582900001,2399.4519487999933,2399.4677078999957,2399.4677078999957,2399.4677078999957,2399.5509383000026,2399.851819400006,,,,,,,,,,,,,,,,,,,,,,up,5.9332211000000825,None,space,0.3720778999995673,None,P152,001,2025-04-11_13h22.45.185,posner_endo_new1,2024.2.4,60.04942067377926,2025-04-11 13h22.52.949611 +0100,
cube_r.png,0.1,10,catch,28,28,0,up,6.401710700010881,None,None,,,,,,,,,,,0,28,28,28,2399.8676425000012,,,,,,,,,,,,,2399.8521183999983,2399.8676425000012,2399.8676425000012,2399.8676425000012,2406.2787603000033,,,,2406.2917209000007,2406.3039225999964,2406.3039225999964,2406.3448176999955,2406.345528699996,2406.3611444999988,2406.3611444999988,2406.3611444999988,2406.444427800001,2409.359413900005,,,,,,,2408.4590029999963,2409.3747016999987,2409.3747016999987,2409.3747016999987,,,,,,,,,,,,up,6.401710700010881,None,None,,,P152,001,2025-04-11_13h22.45.185,posner_endo_new1,2024.2.4,60.04942067377926,2025-04-11 13h22.52.949611 +0100,
cube_r.png,0.1,0.31,valid,29,29,0,up,4.423217000003206,None,space,0.41637510000145994,None,,,,,,,,,0,29,29,29,2409.3747016999987,,,,,,,,,,,,,2409.359984499999,2409.3747016999987,2409.3747016999987,2409.3747016999987,2413.8058699999965,,,,2413.825416000007,2413.835978599993,2413.835978599993,2413.8699138999946,2413.8703591999947,2413.8862831000006,2413.8862831000006,2413.8862831000006,2413.9695731999964,2414.3040177999937,,,,,,,,,,,,,,,,,,,,,,up,4.423217000003206,None,space,0.41637510000145994,None,P152,001,2025-04-11_13h22.45.185,posner_endo_new1,2024.2.4,60.04942067377926,2025-04-11 13h22.52.949611 +0100,
cube_r.png,0.1,0.31,valid,30,30,0,up,8.60603059999994,None,space,0.37849900001310743,None,,,,,,,,,0,30,30,30,2414.319255800001,,,,,,,,,,,,,2414.3042726999993,2414.319255800001,2414.319255800001,2414.319255800001,2422.9300549000036,,,,2422.9533408999996,2422.965362799994,2422.965362799994,2422.9936688000016,2422.9940343000053,2423.0106058999954,2423.0106058999954,2423.0106058999954,2423.093860599998,2423.3944735999976,,,,,,,,,,,,,,,,,,,,,,up,8.60603059999994,None,space,0.37849900001310743,None,P152,001,2025-04-11_13h22.45.185,posner_endo_new1,2024.2.4,60.04942067377926,2025-04-11 13h22.52.949611 +0100,
cube_l.png,0.1,-0.31,valid,31,31,0,up,5.202858699994977,None,space,0.34694519999902695,None,,,,,,,,,0,31,31,31,2423.410278700001,,,,,,,,,,,,,2423.394771499996,2423.410278700001,2423.410278700001,2423.410278700001,2428.6226813999965,,,,2428.6342745,2428.644553499995,2428.644553499995,2428.687932400004,2428.6882924999954,2428.7047575000033,2428.7047575000033,2428.7047575000033,2428.787611599997,2429.0555562999944,,,,,,,,,,,,,,,,,,,,,,up,5.202858699994977,None,space,0.34694519999902695,None,P152,001,2025-04-11_13h22.45.185,posner_endo_new1,2024.2.4,60.04942067377926,2025-04-11 13h22.52.949611 +0100,
cube_r.png,0.1,0.31,valid,32,32,0,up,6.198052699997788,None,space,0.3803417999879457,None,,,,,,,,,0,32,32,32,2429.0711160000064,,,,,,,,,,,,,2429.055877599996,2429.0711160000064,2429.0711160000064,2429.0711160000064,2435.282322900006,,,,2435.294039200002,2435.3042518,2435.3042518,2435.3482169000054,2435.348571399998,2435.364678800004,2435.364678800004,2435.364678800004,2435.4477835,2435.7485139000055,,,,,,,,,,,,,,,,,,,,,,up,6.198052699997788,None,space,0.3803417999879457,None,P152,001,2025-04-11_13h22.45.185,posner_endo_new1,2024.2.4,60.04942067377926,2025-04-11 13h22.52.949611 +0100,
cube_r.png,0.1,-0.31,invalid,33,33,0,up,2.065548899990972,None,space,0.3511920999881113,None,,,,,,,,,0,33,33,33,2435.764210299996,,,,,,,,,,,,,2435.7488101000054,2435.764210299996,2435.764210299996,2435.764210299996,2437.8466019000043,,,,2437.858228500001,2437.8681491000025,2437.8681491000025,2437.912247600005,2437.912601799995,2437.9283173000003,2437.9283173000003,2437.9283173000003,2438.012033799998,2438.2959449000045,,,,,,,,,,,,,,,,,,,,,,up,2.065548899990972,None,space,0.3511920999881113,None,P152,001,2025-04-11_13h22.45.185,posner_endo_new1,2024.2.4,60.04942067377926,2025-04-11 13h22.52.949611 +0100,
cube_r.png,0.1,10,catch,34,34,0,up,7.542154599999776,None,None,,,,,,,,,,,0,34,34,34,2438.3115876999946,,,,,,,,,,,,,2438.296243100005,2438.3115876999946,2438.3115876999946,2438.3115876999946,2445.855128700001,,,,2445.863888299995,2445.8737674000004,2445.8737674000004,2445.920398400005,2445.9206264999957,2445.9372365000017,2445.9372365000017,2445.9372365000017,2446.020420899993,2448.9356573999976,,,,,,,2448.0352241999935,2448.9509454999934,2448.9509454999934,2448.9509454999934,,,,,,,,,,,,up,7.542154599999776,None,None,,,P152,001,2025-04-11_13h22.45.185,posner_endo_new1,2024.2.4,60.04942067377926,2025-04-11 13h22.52.949611 +0100,
cube_r.png,0.1,0.31,valid,35,35,0,up,5.278305599989835,None,space,0.40049240000371356,None,,,,,,,,,0,35,35,35,2448.9509454999934,,,,,,,,,,,,,2448.9362231999985,2448.9509454999934,2448.9509454999934,2448.9509454999934,2454.231585200003,,,,2454.255044599995,2454.267410200002,2454.267410200002,2454.2954377999995,2454.295750000005,2454.3115377000067,2454.3115377000067,2454.3115377000067,2454.395148800002,2454.7143335,,,,,,,,,,,,,,,,,,,,,,up,5.278305599989835,None,space,0.40049240000371356,None,P152,001,2025-04-11_13h22.45.185,posner_endo_new1,2024.2.4,60.04942067377926,2025-04-11 13h22.52.949611 +0100,
cube_r.png,0.1,-0.31,invalid,36,36,0,up,2.7970876999897882,None,space,0.4454230999981519,None,,,,,,,,,0,36,36,36,2454.7286750000058,,,,,,,,,,,,,2454.7149298000004,2454.7286750000058,2454.7286750000058,2454.7286750000058,2457.528158500005,,,,2457.5515275999933,2457.5638492,2457.5638492,2457.5915308999975,2457.5918455000065,2457.6080492000037,2457.6080492000037,2457.6080492000037,2457.691662199999,2458.0587495999935,,,,,,,,,,,,,,,,,,,,,,up,2.7970876999897882,None,space,0.4454230999981519,None,P152,001,2025-04-11_13h22.45.185,posner_endo_new1,2024.2.4,60.04942067377926,2025-04-11 13h22.52.949611 +0100,
cube_l.png,0.1,0.31,invalid,37,37,0,up,1.9389975999947637,None,space,0.4507878000003984,None,,,,,,,,,0,37,37,37,2458.074836999993,,,,,,,,,,,,,2458.0590061999974,2458.074836999993,2458.074836999993,2458.074836999993,2460.025139999998,,,,2460.048410699994,2460.058613100002,2460.058613100002,2460.089026600006,2460.0893802000064,2460.1055575000064,2460.1055575000064,2460.1055575000064,2460.189268899994,2460.573245199994,,,,,,,,,,,,,,,,,,,,,,up,1.9389975999947637,None,space,0.4507878000003984,None,P152,001,2025-04-11_13h22.45.185,posner_endo_new1,2024.2.4,60.04942067377926,2025-04-11 13h22.52.949611 +0100,
cube_l.png,0.1,0.31,invalid,38,38,0,up,1.7842566000035731,None,space,0.41198889999941457,None,,,,,,,,,0,38,38,38,2460.5888800999965,,,,,,,,,,,,,2460.573543000006,2460.5888800999965,2460.5888800999965,2460.5888800999965,2462.388186700002,,,,2462.3996881000057,2462.4099088999938,2462.4099088999938,2462.4537886000035,2462.4541469999967,2462.4699371000024,2462.4699371000024,2462.4699371000024,2462.553092000002,2462.887209499997,,,,,,,,,,,,,,,,,,,,,,up,1.7842566000035731,None,space,0.41198889999941457,None,P152,001,2025-04-11_13h22.45.185,posner_endo_new1,2024.2.4,60.04942067377926,2025-04-11 13h22.52.949611 +0100,
cube_r.png,0.1,0.31,valid,39,39,0,up,1.8226468000066234,None,space,0.308845299994573,None,,,,,,,,,0,39,39,39,2462.902855499997,,,,,,,,,,,,,2462.8875229999976,2462.902855499997,2462.902855499997,2462.902855499997,2464.735489300001,,,,2464.747027000005,2464.757166399999,2464.757166399999,2464.800982300003,2464.801335700002,2464.8175192000053,2464.8175192000053,2464.8175192000053,2464.901076599999,2465.135358600004,,,,,,,,,,,,,,,,,,,,,,up,1.8226468000066234,None,space,0.308845299994573,None,P152,001,2025-04-11_13h22.45.185,posner_endo_new1,2024.2.4,60.04942067377926,2025-04-11 13h22.52.949611 +0100,
cube_l.png,0.1,0.31,invalid,40,40,0,up,2.3113532999996096,None,space,0.330205999998725,None,,,,,,,,,0,40,40,40,2465.150471800007,,,,,,,,,,,,,2465.135656300001,2465.150471800007,2465.150471800007,2465.150471800007,2467.4661853,,,,2467.4776719999936,2467.4879624000023,2467.4879624000023,2467.531507199994,2467.531863299999,2467.5483964000014,2467.5483964000014,2467.5483964000014,2467.6317187999957,2467.882217899998,,,,,,,,,,,,,,,,,,,,,,up,2.3113532999996096,None,space,0.330205999998725,None,P152,001,2025-04-11_13h22.45.185,posner_endo_new1,2024.2.4,60.04942067377926,2025-04-11 13h22.52.949611 +0100,
cube_l.png,0.1,10,catch,41,41,0,up,2.50034090000554,None,None,,,,,,,,,,,0,41,41,41,2467.8976440999977,,,,,,,,,,,,,2467.8825156999956,2467.8976440999977,2467.8976440999977,2467.8976440999977,2470.4129287999967,,,,2470.4244673000067,2470.4346122999996,2470.4346122999996,2470.478748900001,2470.479105199993,2470.4951589999982,2470.4951589999982,2470.4951589999982,2470.578511800006,2473.4930913999997,,,,,,,2472.593212699998,2473.509128100006,2473.509128100006,2473.509128100006,,,,,,,,,,,,up,2.50034090000554,None,None,,,P152,001,2025-04-11_13h22.45.185,posner_endo_new1,2024.2.4,60.04942067377926,2025-04-11 13h22.52.949611 +0100,
cube_l.png,0.1,-0.31,valid,42,42,0,up,2.240810400006012,None,space,0.47815529999206774,None,,,,,,,,,0,42,42,42,2473.509128100006,,,,,,,,,,,,,2473.4933640999952,2473.509128100006,2473.509128100006,2473.509128100006,2475.757670100007,,,,2475.7692555999965,2475.7794119000027,2475.7794119000027,2475.8234715,2475.8238248999987,2475.839535299994,2475.839535299994,2475.839535299994,2475.9231977000018,2476.3238977,,,,,,,,,,,,,,,,,,,,,,up,2.240810400006012,None,space,0.47815529999206774,None,P152,001,2025-04-11_13h22.45.185,posner_endo_new1,2024.2.4,60.04942067377926,2025-04-11 13h22.52.949611 +0100,
cube_l.png,0.1,10,catch,43,43,0,up,2.7069264000019757,None,None,,,,,,,,,,,0,43,43,43,2476.3390209000063,,,,,,,,,,,,,2476.3241871000064,2476.3390209000063,2476.3390209000063,2476.3390209000063,2479.054105000003,,,,2479.0656772999937,2479.075838799996,2479.075838799996,2479.1196712999954,2479.120028000005,2479.136392600005,2479.136392600005,2479.136392600005,2479.219678099995,2482.133735800002,,,,,,,2481.2345329999953,2482.1498304999986,2482.1498304999986,2482.1498304999986,,,,,,,,,,,,up,2.7069264000019757,None,None,,,P152,001,2025-04-11_13h22.45.185,posner_endo_new1,2024.2.4,60.04942067377926,2025-04-11 13h22.52.949611 +0100,
cube_l.png,0.1,0.31,invalid,44,44,0,up,2.3432471999985864,None,space,0.3843786000070395,None,,,,,,,,,0,44,44,44,2482.1498304999986,,,,,,,,,,,,,2482.1340159999963,2482.1498304999986,2482.1498304999986,2482.1498304999986,2484.4984725999966,,,,2484.5100698000024,2484.520134499995,2484.520134499995,2484.564530799995,2484.5648836000037,2484.5805602000037,2484.5805602000037,2484.5805602000037,2484.6472289999947,2484.981276199993,,,,,,,,,,,,,,,,,,,,,,up,2.3432471999985864,None,space,0.3843786000070395,None,P152,001,2025-04-11_13h22.45.185,posner_endo_new1,2024.2.4,60.04942067377926,2025-04-11 13h22.52.949611 +0100,
cube_l.png,0.1,0.31,invalid,45,45,0,up,4.095859399996698,None,space,0.3870661000109976,None,,,,,,,,,0,45,45,45,2484.997344100004,,,,,,,,,,,,,2484.9815672999976,2484.997344100004,2484.997344100004,2484.997344100004,2489.0943475999957,,,,2489.1058866999956,2489.116095999998,2489.116095999998,2489.1593171999994,2489.1596710000013,2489.1760504999984,2489.1760504999984,2489.1760504999984,2489.259114500004,2489.576570899997,,,,,,,,,,,,,,,,,,,,,,up,4.095859399996698,None,space,0.3870661000109976,None,P152,001,2025-04-11_13h22.45.185,posner_endo_new1,2024.2.4,60.04942067377926,2025-04-11 13h22.52.949611 +0100,
cube_r.png,0.1,0.31,valid,46,46,0,up,5.9885057999927085,None,space,0.38376810000045225,None,,,,,,,,,0,46,46,46,2489.592631099993,,,,,,,,,,,,,2489.5768611999956,2489.592631099993,2489.592631099993,2489.592631099993,2495.5874062999937,,,,2495.5993667000002,2495.609618500006,2495.609618500006,2495.6530684000027,2495.6534291999997,2495.6693921999977,2495.6693921999977,2495.6693921999977,2495.7525375999976,2496.069957800006,,,,,,,,,,,,,,,,,,,,,,up,5.9885057999927085,None,space,0.38376810000045225,None,P152,001,2025-04-11_13h22.45.185,posner_endo_new1,2024.2.4,60.04942067377926,2025-04-11 13h22.52.949611 +0100,
cube_l.png,0.1,-0.31,valid,47,47,0,up,5.223706000004313,None,space,0.3673426000023028,None,,,,,,,,,0,47,47,47,2496.085695300004,,,,,,,,,,,,,2496.0702552000002,2496.085695300004,2496.085695300004,2496.085695300004,2501.314931400004,,,,2501.3265832000034,2501.336821399993,2501.336821399993,2501.380311999994,2501.380674400003,2501.397004600003,2501.397004600003,2501.397004600003,2501.4800796000054,2501.7811451000016,,,,,,,,,,,,,,,,,,,,,,up,5.223706000004313,None,space,0.3673426000023028,None,P152,001,2025-04-11_13h22.45.185,posner_endo_new1,2024.2.4,60.04942067377926,2025-04-11 13h22.52.949611 +0100,
cube_r.png,0.1,-0.31,invalid,48,48,0,up,3.1127780999959214,None,space,0.378753199998755,None,,,,,,,,,0,48,48,48,2501.7965804999985,,,,,,,,,,,,,2501.781449700007,2501.7965804999985,2501.7965804999985,2501.7965804999985,2504.911446500002,,,,2504.9229560999956,2504.9330535000045,2504.9330535000045,2504.9765246000024,2504.9768909999984,2504.993343599999,2504.993343599999,2504.993343599999,2505.0766351000057,2505.3776999999973,,,,,,,,,,,,,,,,,,,,,,up,3.1127780999959214,None,space,0.378753199998755,None,P152,001,2025-04-11_13h22.45.185,posner_endo_new1,2024.2.4,60.04942067377926,2025-04-11 13h22.52.949611 +0100,
cube_r.png,0.1,10,catch,49,49,0,up,4.14816170000995,None,None,,,,,,,,,,,0,49,49,49,2505.392925299995,,,,,,,,,,,,,2505.3779922999965,2505.392925299995,2505.392925299995,2505.392925299995,2509.556557200005,,,,2509.5683019999997,2509.5786249999946,2509.5786249999946,2509.622186099994,2509.622454299999,2509.6386150000035,2509.6386150000035,2509.6386150000035,2509.721622600002,2512.637239699994,,,,,,,2511.736675799999,2512.652426899993,2512.652426899993,2512.652426899993,,,,,,,,,,,,up,4.14816170000995,None,None,,,P152,001,2025-04-11_13h22.45.185,posner_endo_new1,2024.2.4,60.04942067377926,2025-04-11 13h22.52.949611 +0100,
cube_l.png,0.1,-0.31,valid,50,50,0,up,2.049148999998579,None,space,0.3417526999983238,None,,,,,,,,,0,50,50,50,2512.652426899993,,,,,,,,,,,,,2512.637795100003,2512.652426899993,2512.652426899993,2512.652426899993,2514.7190202000056,,,,2514.7407103000005,2514.7505144000024,2514.7505144000024,2514.7831715000066,2514.783580000003,2514.7996148999955,2514.7996148999955,2514.7996148999955,2514.8830019000015,2515.1507831000054,,,,,,,,,,,,,,,,,,,,,,up,2.049148999998579,None,space,0.3417526999983238,None,P152,001,2025-04-11_13h22.45.185,posner_endo_new1,2024.2.4,60.04942067377926,2025-04-11 13h22.52.949611 +0100,
cube_l.png,0.1,-0.31,valid,51,51,0,up,5.415118699995219,None,space,0.33069780000369065,None,,,,,,,,,0,51,51,51,2515.166079100003,,,,,,,,,,,,,2515.151127799996,2515.166079100003,2515.166079100003,2515.166079100003,2520.5950746000017,,,,2520.607841499994,2520.6178920999955,2520.6178920999955,2520.6604747999954,2520.6607392000005,2520.6771274000057,2520.6771274000057,2520.6771274000057,2520.760241199998,2521.0126896,,,,,,,,,,,,,,,,,,,,,,up,5.415118699995219,None,space,0.33069780000369065,None,P152,001,2025-04-11_13h22.45.185,posner_endo_new1,2024.2.4,60.04942067377926,2025-04-11 13h22.52.949611 +0100,
cube_r.png,0.1,-0.31,invalid,52,52,0,up,13.561839000001783,None,space,0.3657508000032976,None,,,,,,,,,0,52,52,52,2521.0272446000017,,,,,,,,,,,,,2521.013281899999,2521.0272446000017,2521.0272446000017,2521.0272446000017,2534.5990173000027,,,,2534.6222252000007,2534.634844999993,2534.634844999993,2534.6626951999933,2534.6630398999987,2534.679186399997,2534.679186399997,2534.679186399997,2534.762628700002,2535.047242899993,,,,,,,,,,,,,,,,,,,,,,up,13.561839000001783,None,space,0.3657508000032976,None,P152,001,2025-04-11_13h22.45.185,posner_endo_new1,2024.2.4,60.04942067377926,2025-04-11 13h22.52.949611 +0100,
cube_l.png,0.1,-0.31,valid,53,53,0,up,4.631615699996473,None,space,0.35777810000581667,None,,,,,,,,,0,53,53,53,2535.0622304999997,,,,,,,,,,,,,2535.0475223999965,2535.0622304999997,2535.0622304999997,2535.0622304999997,2539.708691199994,,,,2539.719780700005,2539.7298824000027,2539.7298824000027,2539.774471900004,2539.7748245999974,2539.7910787,2539.7910787,2539.7910787,2539.8573869999964,2540.1583084000013,,,,,,,,,,,,,,,,,,,,,,up,4.631615699996473,None,space,0.35777810000581667,None,P152,001,2025-04-11_13h22.45.185,posner_endo_new1,2024.2.4,60.04942067377926,2025-04-11 13h22.52.949611 +0100,
cube_r.png,0.1,10,catch,54,54,0,up,3.023294699989492,None,None,,,,,,,,,,,0,54,54,54,2540.174144599994,,,,,,,,,,,,,2540.1585852999997,2540.174144599994,2540.174144599994,2540.174144599994,2543.2054394000006,,,,2543.2165335000027,2543.2267920000013,2543.2267920000013,2543.270644400007,2543.2709830999956,2543.287492000003,2543.287492000003,2543.287492000003,2543.3707990999974,2546.285154500001,,,,,,,2545.385022100003,2546.301064200001,2546.301064200001,2546.301064200001,,,,,,,,,,,,up,3.023294699989492,None,None,,,P152,001,2025-04-11_13h22.45.185,posner_endo_new1,2024.2.4,60.04942067377926,2025-04-11 13h22.52.949611 +0100,
cube_l.png,0.1,0.31,invalid,55,55,0,up,1.768575999987661,None,space,0.3537838000047486,None,,,,,,,,,0,55,55,55,2546.301064200001,,,,,,,,,,,,,2546.2854138999974,2546.301064200001,2546.301064200001,2546.301064200001,2548.0835031000024,,,,2548.094667600002,2548.104693100002,2548.104693100002,2548.1490238999977,2548.149359999996,2548.1657116999995,2548.1657116999995,2548.1657116999995,2548.2325328000006,2548.5332277999987,,,,,,,,,,,,,,,,,,,,,,up,1.768575999987661,None,space,0.3537838000047486,None,P152,001,2025-04-11_13h22.45.185,posner_endo_new1,2024.2.4,60.04942067377926,2025-04-11 13h22.52.949611 +0100,
cube_l.png,0.1,-0.31,valid,56,56,0,up,2.328833100007614,None,space,0.3336399999971036,None,,,,,,,,,0,56,56,56,2548.548537399998,,,,,,,,,,,,,2548.533516299998,2548.548537399998,2548.548537399998,2548.548537399998,2550.880661899995,,,,2550.890656000003,2550.9001957,2550.9001957,2550.946643999996,2550.9468850999983,2550.9628183000023,2550.9628183000023,2550.9628183000023,2551.0297704999975,2551.2987914999976,,,,,,,,,,,,,,,,,,,,,,up,2.328833100007614,None,space,0.3336399999971036,None,P152,001,2025-04-11_13h22.45.185,posner_endo_new1,2024.2.4,60.04942067377926,2025-04-11 13h22.52.949611 +0100,
cube_r.png,0.1,0.31,valid,57,57,0,up,2.468225499993423,None,space,0.43058339999697637,None,,,,,,,,,0,57,57,57,2551.312975199995,,,,,,,,,,,,,2551.299394200003,2551.312975199995,2551.312975199995,2551.312975199995,2553.7959510999935,,,,2553.8189859999984,2553.831541000007,2553.831541000007,2553.8596949000057,2553.8600389000057,2553.8761954999936,2553.8761954999936,2553.8761954999936,2553.960000100007,2554.310815200006,,,,,,,,,,,,,,,,,,,,,,up,2.468225499993423,None,space,0.43058339999697637,None,P152,001,2025-04-11_13h22.45.185,posner_endo_new1,2024.2.4,60.04942067377926,2025-04-11 13h22.52.949611 +0100,
cube_r.png,0.1,-0.31,invalid,58,58,0,up,2.687322199999471,None,space,0.3296788000006927,None,,,,,,,,,0,58,58,58,2554.3261819000036,,,,,,,,,,,,,2554.311093600001,2554.3261819000036,2554.3261819000036,2554.3261819000036,2557.0246509999997,,,,2557.0356880000036,2557.0457719999977,2557.0457719999977,2557.090183499997,2557.090524600004,2557.1068964000006,2557.1068964000006,2557.1068964000006,2557.189778400003,2557.4407614999946,,,,,,,,,,,,,,,,,,,,,,up,2.687322199999471,None,space,0.3296788000006927,None,P152,001,2025-04-11_13h22.45.185,posner_endo_new1,2024.2.4,60.04942067377926,2025-04-11 13h22.52.949611 +0100,
cube_l.png,0.1,0.31,invalid,59,59,0,up,2.069208599990816,None,space,0.31072240001230966,None,,,,,,,,,0,59,59,59,2557.4563078000065,,,,,,,,,,,,,2557.4410398000036,2557.4563078000065,2557.4563078000065,2557.4563078000065,2559.538286099996,,,,2559.549133399996,2559.5594538000005,2559.5594538000005,2559.6042818999995,2559.6046245000034,2559.6205294999963,2559.6205294999963,2559.6205294999963,2559.6870075000043,2559.938177300006,,,,,,,,,,,,,,,,,,,,,,up,2.069208599990816,None,space,0.31072240001230966,None,P152,001,2025-04-11_13h22.45.185,posner_endo_new1,2024.2.4,60.04942067377926,2025-04-11 13h22.52.949611 +0100,
