cue_img,cue_soa,target_y,trial,thisN,thisTrialN,thisRepN,key_control2.keys,key_control2.rt,key_control2.duration,key_resp.keys,key_resp.rt,key_resp.duration,practice.thisRepN,practice.thisTrialN,practice.thisN,practice.thisIndex,block1.thisRepN,block1.thisTrialN,block1.thisN,block1.thisIndex,block2.thisRepN,block2.thisTrialN,block2.thisN,block2.thisIndex,thisRow.t,notes,instructions.started,instructions_txt.started,key_control.started,instructions.stopped,key_control.keys,key_control.rt,key_control.duration,ready.started,ready_txt.started,ready_txt.stopped,ready.stopped,fix.started,fixation.started,key_control2.started,fixation_cross.started,fix.stopped,practice.key_control2.keys,practice.key_control2.rt,practice.key_control2.duration,cue.started,cube.started,fixation_cross_cue.started,cue.stopped,target.started,fixation_target.started,fixation_cross_target.started,key_resp.started,star.started,target.stopped,practice.key_resp.keys,practice.key_resp.rt,practice.key_resp.duration,star.stopped,fixation_target.stopped,fixation_cross_target.stopped,key_resp.stopped,block1.key_control2.keys,block1.key_control2.rt,block1.key_control2.duration,block1.key_resp.keys,block1.key_resp.rt,block1.key_resp.duration,break_2.started,text.started,key_control3.started,text.stopped,break_2.stopped,key_control3.keys,key_control3.rt,key_control3.duration,block2.key_control2.keys,block2.key_control2.rt,block2.key_control2.duration,block2.key_resp.keys,block2.key_resp.rt,block2.key_resp.duration,participant,session,date,expName,psychopyVersion,frameRate,expStart,
,,,,,,,,,,,,,,,,,,,,,,,,,,,0.00804299999435898,0.026490499993087724,0.026490499993087724,1.4975507999915862,up,1.4501115000020945,None,,,,,,,,,,,,,,,,,,,,,,,,,,,,,,,,,,,,,,,,,,,,,,,,,,P153,001,2025-04-11_15h21.41.702,posner_endo_new1,2024.2.4,60.05717443193585,2025-04-11 15h21.48.312803 +0100,
,,,,,,,,,,,,,,,,,,,,,,,,,,,,,,,,,,1.4976002999901539,1.508676600002218,4.510442200000398,4.489198700000998,,,,,,,,,,,,,,,,,,,,,,,,,,,,,,,,,,,,,,,,,,,,,,P153,001,2025-04-11_15h21.41.702,posner_endo_new1,2024.2.4,60.05717443193585,2025-04-11 15h21.48.312803 +0100,
cube_l.png,0.1,0.31,invalid,0,0,0,up,24.668715399995563,None,space,0.3830102999927476,None,0,0,0,5,,,,,,,,,4.510442200000398,,,,,,,,,,,,,4.499792899994645,4.510442200000398,4.510442200000398,4.510442200000398,29.18085959999007,up,24.668715399995563,None,29.195933299997705,29.209072199999355,29.209072199999355,29.24660899999435,29.24711669998942,29.263029599998845,29.263029599998845,29.263029599998845,29.34629169999971,29.64740419998998,space,0.3830102999927476,None,,,,,,,,,,,,,,,,,,,,,,,,,P153,001,2025-04-11_15h21.41.702,posner_endo_new1,2024.2.4,60.05717443193585,2025-04-11 15h21.48.312803 +0100,
cube_r.png,0.1,10,catch,1,1,0,up,6.012549500010209,None,None,,,0,1,1,3,,,,,,,,,29.662864300000365,,,,,,,,,,,,,29.647667099998216,29.662864300000365,29.662864300000365,29.662864300000365,35.69115659999079,up,6.012549500010209,None,35.70196949999081,35.71157030000177,35.71157030000177,35.75674299999082,35.75699280000117,35.773188199993456,35.773188199993456,35.773188199993456,35.85658629999671,38.77073579998978,None,,,37.87108769999759,38.78674849998788,38.78674849998788,38.78674849998788,,,,,,,,,,,,,,,,,,,,,P153,001,2025-04-11_15h21.41.702,posner_endo_new1,2024.2.4,60.05717443193585,2025-04-11 15h21.48.312803 +0100,
cube_r.png,0.1,0.31,valid,2,2,0,up,3.4560480000072857,None,space,0.2694458000041777,None,0,2,2,7,,,,,,,,,38.78674849998788,,,,,,,,,,,,,38.77091139998811,38.78674849998788,38.78674849998788,38.78674849998788,42.25067539999145,up,3.4560480000072857,None,42.25816810000106,42.26940989999275,42.26940989999275,42.31666299999051,42.316913699993165,42.33304139999382,42.33304139999382,42.33304139999382,42.399842599988915,42.6169504999998,space,0.2694458000041777,None,,,,,,,,,,,,,,,,,,,,,,,,,P153,001,2025-04-11_15h21.41.702,posner_endo_new1,2024.2.4,60.05717443193585,2025-04-11 15h21.48.312803 +0100,
cube_r.png,0.1,-0.31,invalid,3,3,0,up,7.386215599995921,None,space,0.29426429999875836,None,0,3,3,9,,,,,,,,,42.63281619999907,,,,,,,,,,,,,42.61713469999086,42.63281619999907,42.63281619999907,42.63281619999907,50.02643729999545,up,7.386215599995921,None,50.03851929999655,50.0489333000005,50.0489333000005,50.09202240000013,50.092379099995014,50.10854760000075,50.10854760000075,50.10854760000075,50.191606799999136,50.40961360000074,space,0.29426429999875836,None,,,,,,,,,,,,,,,,,,,,,,,,,P153,001,2025-04-11_15h21.41.702,posner_endo_new1,2024.2.4,60.05717443193585,2025-04-11 15h21.48.312803 +0100,
cube_l.png,0.1,-0.31,valid,4,4,0,up,6.914507699999376,None,space,0.30636390000290703,None,0,4,4,0,,,,,,,,,50.42489389999537,,,,,,,,,,,,,50.40989899999113,50.42489389999537,50.42489389999537,50.42489389999537,57.35195079998812,up,6.914507699999376,None,57.35998480000126,57.37056429999939,57.37056429999939,57.417605299997376,57.4178694000002,57.43448599999829,57.43448599999829,57.43448599999829,57.517511500002,57.75140689998807,space,0.30636390000290703,None,,,,,,,,,,,,,,,,,,,,,,,,,P153,001,2025-04-11_15h21.41.702,posner_endo_new1,2024.2.4,60.05717443193585,2025-04-11 15h21.48.312803 +0100,
cube_r.png,0.1,-0.31,invalid,5,5,0,up,5.89350249999552,None,space,0.3251334999949904,None,0,5,5,2,,,,,,,,,57.76724619999004,,,,,,,,,,,,,57.751602199990884,57.76724619999004,57.76724619999004,57.76724619999004,63.662212700000964,up,5.89350249999552,None,63.669191499997396,63.680814499995904,63.680814499995904,63.72811479998927,63.72834899999725,63.74456880000071,63.74456880000071,63.74456880000071,63.82783429999836,64.0784355999931,space,0.3251334999949904,None,,,,,,,,,,,,,,,,,,,,,,,,,P153,001,2025-04-11_15h21.41.702,posner_endo_new1,2024.2.4,60.05717443193585,2025-04-11 15h21.48.312803 +0100,
cube_r.png,0.1,-0.31,invalid,6,6,0,up,6.533138899991172,None,space,0.3673544000048423,None,0,6,6,6,,,,,,,,,64.09428819999448,,,,,,,,,,,,,64.07859969999117,64.09428819999448,64.09428819999448,64.09428819999448,70.63856359999045,up,6.533138899991172,None,70.64780659999815,70.65802879999683,70.65802879999683,70.70423689999734,70.70453839999391,70.72078409999085,70.72078409999085,70.72078409999085,70.80402989999857,71.10478619999776,space,0.3673544000048423,None,,,,,,,,,,,,,,,,,,,,,,,,,P153,001,2025-04-11_15h21.41.702,posner_endo_new1,2024.2.4,60.05717443193585,2025-04-11 15h21.48.312803 +0100,
cube_r.png,0.1,0.31,valid,7,7,0,up,7.090602600001148,None,space,0.3661547000083374,None,0,7,7,10,,,,,,,,,71.12030189999496,,,,,,,,,,,,,71.10501809998823,71.12030189999496,71.12030189999496,71.12030189999496,78.21404939999047,up,7.090602600001148,None,78.22336150000046,78.23357260000193,78.23357260000193,78.27982060000068,78.28011939999124,78.29637909999292,78.29637909999292,78.29637909999292,78.37950280000223,78.66377279999142,space,0.3661547000083374,None,,,,,,,,,,,,,,,,,,,,,,,,,P153,001,2025-04-11_15h21.41.702,posner_endo_new1,2024.2.4,60.05717443193585,2025-04-11 15h21.48.312803 +0100,
cube_l.png,0.1,0.31,invalid,8,8,0,up,5.80434659999446,None,space,0.31552279999596067,None,0,8,8,1,,,,,,,,,78.67923889998929,,,,,,,,,,,,,78.66401079999923,78.67923889998929,78.67923889998929,78.67923889998929,84.49087429999781,up,5.80434659999446,None,84.500538399996,84.51056239999889,84.51056239999889,84.55666579998797,84.55695109999215,84.57326499999908,84.57326499999908,84.57326499999908,84.65667269998812,84.89080229999672,space,0.31552279999596067,None,,,,,,,,,,,,,,,,,,,,,,,,,P153,001,2025-04-11_15h21.41.702,posner_endo_new1,2024.2.4,60.05717443193585,2025-04-11 15h21.48.312803 +0100,
cube_l.png,0.1,-0.31,valid,9,9,0,up,6.528715399996145,None,space,0.34502700000302866,None,0,9,9,4,,,,,,,,,84.90622939998866,,,,,,,,,,,,,84.89102249999996,84.90622939998866,84.90622939998866,84.90622939998866,91.45057169999927,up,6.528715399996145,None,91.459806999992,91.46995919999608,91.46995919999608,91.51633179999772,91.51691310000024,91.53274889999011,91.53274889999011,91.53274889999011,91.61596379999537,91.88455829999293,space,0.34502700000302866,None,,,,,,,,,,,,,,,,,,,,,,,,,P153,001,2025-04-11_15h21.41.702,posner_endo_new1,2024.2.4,60.05717443193585,2025-04-11 15h21.48.312803 +0100,
cube_l.png,0.1,-0.31,valid,10,10,0,up,6.007950699990033,None,space,0.3377738999988651,None,0,10,10,8,,,,,,,,,91.89898689999245,,,,,,,,,,,,,91.88502259999223,91.89898689999245,91.89898689999245,91.89898689999245,97.91166169999633,up,6.007950699990033,None,97.93136139999842,97.94287729999633,97.94287729999633,97.97630579999532,97.9766352000006,97.99303079998936,97.99303079998936,97.99303079998936,98.0760794999951,98.34368089999771,space,0.3377738999988651,None,,,,,,,,,,,,,,,,,,,,,,,,,P153,001,2025-04-11_15h21.41.702,posner_endo_new1,2024.2.4,60.05717443193585,2025-04-11 15h21.48.312803 +0100,
,,,,,,,,,,,,,,,,,,,,,,,,,,,,,,,,,,98.34386609999638,98.35913389999769,101.3713640999922,101.34002489999693,,,,,,,,,,,,,,,,,,,,,,,,,,,,,,,,,,,,,,,,,,,,,,P153,001,2025-04-11_15h21.41.702,posner_endo_new1,2024.2.4,60.05717443193585,2025-04-11 15h21.48.312803 +0100,
cube_l.png,0.1,10,catch,0,0,0,up,8.937101499992423,None,None,,,,,,,0,0,0,0,,,,,101.3713640999922,,,,,,,,,,,,,101.36189889999514,101.3713640999922,101.3713640999922,101.3713640999922,110.3142755000008,,,,110.32089350000024,110.33253600000171,110.33253600000171,110.38032050000038,110.38054869999178,110.39689209999051,110.39689209999051,110.39689209999051,110.46345279998786,113.39422079999349,,,,112.47802860000229,113.41036670000176,113.41036670000176,113.41036670000176,up,8.937101499992423,None,None,,,,,,,,,,,,,,,,,P153,001,2025-04-11_15h21.41.702,posner_endo_new1,2024.2.4,60.05717443193585,2025-04-11 15h21.48.312803 +0100,
cube_l.png,0.1,10,catch,1,1,0,up,3.5527708000008715,None,None,,,,,,,0,1,1,1,,,,,113.41036670000176,,,,,,,,,,,,,113.394378099998,113.41036670000176,113.41036670000176,113.41036670000176,116.97465509999893,,,,116.98645339999348,116.99706480000168,116.99706480000168,117.04021829999692,117.04056319998926,117.05664329999126,117.05664329999126,117.05664329999126,117.1399351,120.05443849999574,,,,119.1545366999926,120.07031169999391,120.07031169999391,120.07031169999391,up,3.5527708000008715,None,None,,,,,,,,,,,,,,,,,P153,001,2025-04-11_15h21.41.702,posner_endo_new1,2024.2.4,60.05717443193585,2025-04-11 15h21.48.312803 +0100,
cube_l.png,0.1,0.31,invalid,2,2,0,up,4.020793799994863,None,space,0.32783910000580363,None,,,,,0,2,2,2,,,,,120.07031169999391,,,,,,,,,,,,,120.05471159999433,120.07031169999391,120.07031169999391,120.07031169999391,124.10032749999664,,,,124.10813949999283,124.11895099999674,124.11895099999674,124.16619959998934,124.1664635999914,124.18279919998895,124.18279919998895,124.18279919998895,124.26601389999269,124.51655739999842,,,,,,,,up,4.020793799994863,None,space,0.32783910000580363,None,,,,,,,,,,,,,,,P153,001,2025-04-11_15h21.41.702,posner_endo_new1,2024.2.4,60.05717443193585,2025-04-11 15h21.48.312803 +0100,
cube_l.png,0.1,0.31,invalid,3,3,0,up,7.199218099995051,None,space,0.3321500999882119,None,,,,,0,3,3,3,,,,,124.53235739999218,,,,,,,,,,,,,124.51676279999083,124.53235739999218,124.53235739999218,124.53235739999218,131.7424936999887,,,,131.75027239999326,131.76120509998873,131.76120509998873,131.80828969999857,131.80854649998946,131.82487659998878,131.82487659998878,131.82487659998878,131.89152889999968,132.15893259999575,,,,,,,,up,7.199218099995051,None,space,0.3321500999882119,None,,,,,,,,,,,,,,,P153,001,2025-04-11_15h21.41.702,posner_endo_new1,2024.2.4,60.05717443193585,2025-04-11 15h21.48.312803 +0100,
cube_l.png,0.1,-0.31,valid,4,4,0,up,7.196773000003304,None,space,0.3084221000026446,None,,,,,0,4,4,4,,,,,132.17455840000184,,,,,,,,,,,,,132.15913809998892,132.17455840000184,132.17455840000184,132.17455840000184,139.38470629999938,,,,139.392577599996,139.40346399998816,139.40346399998816,139.4504936000012,139.4510059999884,139.46689640000113,139.46689640000113,139.46689640000113,139.55016980000073,139.7850971000007,,,,,,,,up,7.196773000003304,None,space,0.3084221000026446,None,,,,,,,,,,,,,,,P153,001,2025-04-11_15h21.41.702,posner_endo_new1,2024.2.4,60.05717443193585,2025-04-11 15h21.48.312803 +0100,
cube_r.png,0.1,-0.31,invalid,5,5,0,up,6.243111499992665,None,space,0.3044147000036901,None,,,,,0,5,5,5,,,,,139.7998965000006,,,,,,,,,,,,,139.7855516999989,139.7998965000006,139.7998965000006,139.7998965000006,146.04466059998958,,,,146.05253239999,146.06324299999687,146.06324299999687,146.11036289999902,146.11088839999866,146.12676649999048,146.12676649999048,146.12676649999048,146.2100505999988,146.44492229999742,,,,,,,,up,6.243111499992665,None,space,0.3044147000036901,None,,,,,,,,,,,,,,,P153,001,2025-04-11_15h21.41.702,posner_endo_new1,2024.2.4,60.05717443193585,2025-04-11 15h21.48.312803 +0100,
cube_r.png,0.1,0.31,valid,6,6,0,up,7.279404500004603,None,space,0.32121449999976903,None,,,,,0,6,6,6,,,,,146.4597386999958,,,,,,,,,,,,,146.44536899999366,146.4597386999958,146.4597386999958,146.4597386999958,153.75376310000138,,,,153.76558419999492,153.7759459999943,153.7759459999943,153.81943109999702,153.8197877999919,153.8356941999955,153.8356941999955,153.8356941999955,153.91905909999332,154.1698502999934,,,,,,,,up,7.279404500004603,None,space,0.32121449999976903,None,,,,,,,,,,,,,,,P153,001,2025-04-11_15h21.41.702,posner_endo_new1,2024.2.4,60.05717443193585,2025-04-11 15h21.48.312803 +0100,
cube_r.png,0.1,-0.31,invalid,7,7,0,up,8.506159700002172,None,space,0.2320251999917673,None,,,,,0,7,7,7,,,,,154.18543299999146,,,,,,,,,,,,,154.17013519999455,154.18543299999146,154.18543299999146,154.18543299999146,162.69449989999703,,,,162.70638459999464,162.71670540000196,162.71670540000196,162.7601316999935,162.76047349999135,162.7765631999937,162.7765631999937,162.7765631999937,162.8599230999971,163.01095840000198,,,,,,,,up,8.506159700002172,None,space,0.2320251999917673,None,,,,,,,,,,,,,,,P153,001,2025-04-11_15h21.41.702,posner_endo_new1,2024.2.4,60.05717443193585,2025-04-11 15h21.48.312803 +0100,
cube_l.png,0.1,-0.31,valid,8,8,0,up,7.7931511999922805,None,space,0.208818600003724,None,,,,,0,8,8,8,,,,,163.02634929999476,,,,,,,,,,,,,163.01125399999728,163.02634929999476,163.02634929999476,163.02634929999476,170.8358384999883,,,,170.84206779999658,170.85332239999843,170.85332239999843,170.90145369998936,170.90189309998823,170.91790289999335,170.91790289999335,170.91790289999335,171.00116179999895,171.13595389999682,,,,,,,,up,7.7931511999922805,None,space,0.208818600003724,None,,,,,,,,,,,,,,,P153,001,2025-04-11_15h21.41.702,posner_endo_new1,2024.2.4,60.05717443193585,2025-04-11 15h21.48.312803 +0100,
cube_r.png,0.1,-0.31,invalid,9,9,0,up,5.915916800004197,None,space,0.2973937000060687,None,,,,,0,9,9,9,,,,,171.15100479999091,,,,,,,,,,,,,171.1363382999989,171.15100479999091,171.15100479999091,171.15100479999091,177.07979109999724,,,,177.089971399997,177.0995905000018,177.0995905000018,177.1454354999878,177.14567759999773,177.16197879999527,177.16197879999527,177.16197879999527,177.2451895999984,177.46228549999068,,,,,,,,up,5.915916800004197,None,space,0.2973937000060687,None,,,,,,,,,,,,,,,P153,001,2025-04-11_15h21.41.702,posner_endo_new1,2024.2.4,60.05717443193585,2025-04-11 15h21.48.312803 +0100,
cube_l.png,0.1,0.31,invalid,10,10,0,up,3.469094000000041,None,space,0.42145049999817275,None,,,,,0,10,10,10,,,,,177.47825879999436,,,,,,,,,,,,,177.4624666000018,177.47825879999436,177.47825879999436,177.47825879999436,180.95891459999257,,,,180.96559799999523,180.9773533999978,180.9773533999978,181.02483879998908,181.025063699999,181.04129999999714,181.04129999999714,181.04129999999714,181.1246256000013,181.4750190999912,,,,,,,,up,3.469094000000041,None,space,0.42145049999817275,None,,,,,,,,,,,,,,,P153,001,2025-04-11_15h21.41.702,posner_endo_new1,2024.2.4,60.05717443193585,2025-04-11 15h21.48.312803 +0100,
cube_r.png,0.1,-0.31,invalid,11,11,0,up,6.360087199995178,None,space,0.3712710999971023,None,,,,,0,11,11,11,,,,,181.49087809999764,,,,,,,,,,,,,181.47519869999087,181.49087809999764,181.49087809999764,181.49087809999764,187.85207379999338,,,,187.86092389999249,187.87081749999197,187.87081749999197,187.91764980000153,187.91788589999487,187.93420689999766,187.93420689999766,187.93420689999766,188.01745230000233,188.31797329999972,,,,,,,,up,6.360087199995178,None,space,0.3712710999971023,None,,,,,,,,,,,,,,,P153,001,2025-04-11_15h21.41.702,posner_endo_new1,2024.2.4,60.05717443193585,2025-04-11 15h21.48.312803 +0100,
cube_r.png,0.1,0.31,valid,12,12,0,up,7.501808599990909,None,space,0.27981249999720603,None,,,,,0,12,12,12,,,,,188.33376470000076,,,,,,,,,,,,,188.31815369999094,188.33376470000076,188.33376470000076,188.33376470000076,195.84351359998982,,,,195.85045469999022,195.86193859999184,195.86193859999184,195.9096201999928,195.90985719999298,195.92609939999238,195.92609939999238,195.92609939999238,195.9925532999914,196.21004289999837,,,,,,,,up,7.501808599990909,None,space,0.27981249999720603,None,,,,,,,,,,,,,,,P153,001,2025-04-11_15h21.41.702,posner_endo_new1,2024.2.4,60.05717443193585,2025-04-11 15h21.48.312803 +0100,
cube_l.png,0.1,10,catch,13,13,0,up,6.4895472000062,None,None,,,,,,,0,13,13,13,,,,,196.22593159999815,,,,,,,,,,,,,196.21022129998892,196.22593159999815,196.22593159999815,196.22593159999815,202.7199460999982,,,,202.72623529999692,202.73784469999373,202.73784469999373,202.78572759999952,202.78596619999735,202.8023211999971,202.8023211999971,202.8023211999971,202.88556889999018,205.79976129998977,,,,204.90030419999675,205.8158745999972,205.8158745999972,205.8158745999972,up,6.4895472000062,None,None,,,,,,,,,,,,,,,,,P153,001,2025-04-11_15h21.41.702,posner_endo_new1,2024.2.4,60.05717443193585,2025-04-11 15h21.48.312803 +0100,
cube_r.png,0.1,-0.31,invalid,14,14,0,up,3.547249900002498,None,space,0.22098189999815077,None,,,,,0,14,14,14,,,,,205.8158745999972,,,,,,,,,,,,,205.79994069998793,205.8158745999972,205.8158745999972,205.8158745999972,209.380101799994,,,,209.3905248999945,209.40044669999043,209.40044669999043,209.44562040000164,209.4459377000021,209.4621014000004,209.4621014000004,209.4621014000004,209.54539639998984,209.69620789999317,,,,,,,,up,3.547249900002498,None,space,0.22098189999815077,None,,,,,,,,,,,,,,,P153,001,2025-04-11_15h21.41.702,posner_endo_new1,2024.2.4,60.05717443193585,2025-04-11 15h21.48.312803 +0100,
cube_l.png,0.1,-0.31,valid,15,15,0,up,7.715735099991434,None,space,0.33294930000556633,None,,,,,0,15,15,15,,,,,209.71180459999596,,,,,,,,,,,,,209.69647270000132,209.71180459999596,209.71180459999596,209.71180459999596,217.4384318999946,,,,217.44877659999474,217.458879599988,217.458879599988,217.50407359999372,217.50439370000095,217.52048809999542,217.52048809999542,217.52048809999542,217.60380119999172,217.8547499999986,,,,,,,,up,7.715735099991434,None,space,0.33294930000556633,None,,,,,,,,,,,,,,,P153,001,2025-04-11_15h21.41.702,posner_endo_new1,2024.2.4,60.05717443193585,2025-04-11 15h21.48.312803 +0100,
cube_r.png,0.1,10,catch,16,16,0,up,7.388840799991158,None,None,,,,,,,0,16,16,16,,,,,217.87010869999358,,,,,,,,,,,,,217.85500689999026,217.87010869999358,217.87010869999358,217.87010869999358,225.26389679999556,,,,225.27206750000187,225.28214429999935,225.28214429999935,225.32962889999908,225.32986849998997,225.34595479999552,225.34595479999552,225.34595479999552,225.42931409999437,228.34338979999302,,,,227.44372640000074,228.35944049998943,228.35944049998943,228.35944049998943,up,7.388840799991158,None,None,,,,,,,,,,,,,,,,,P153,001,2025-04-11_15h21.41.702,posner_endo_new1,2024.2.4,60.05717443193585,2025-04-11 15h21.48.312803 +0100,
cube_r.png,0.1,10,catch,17,17,0,up,5.324358900004881,None,None,,,,,,,0,17,17,17,,,,,228.35944049998943,,,,,,,,,,,,,228.34356670000125,228.35944049998943,228.35944049998943,228.35944049998943,233.68807509999897,,,,233.69477579998784,233.7065009999933,233.7065009999933,233.75406349998957,233.75429969999823,233.7705985999928,233.7705985999928,233.7705985999928,233.8372301999916,236.76801929999783,,,,235.8519013999903,236.78416679998918,236.78416679998918,236.78416679998918,up,5.324358900004881,None,None,,,,,,,,,,,,,,,,,P153,001,2025-04-11_15h21.41.702,posner_endo_new1,2024.2.4,60.05717443193585,2025-04-11 15h21.48.312803 +0100,
cube_l.png,0.1,0.31,invalid,18,18,0,up,4.834624199997052,None,space,0.3658026000048267,None,,,,,0,18,18,18,,,,,236.78416679998918,,,,,,,,,,,,,236.7681881999888,236.78416679998918,236.78416679998918,236.78416679998918,241.62990179999906,,,,241.63618750000023,241.64777579999645,241.64777579999645,241.69587769999634,241.6961150999996,241.71251699999266,241.71251699999266,241.71251699999266,241.77911709999898,242.0797082999925,,,,,,,,up,4.834624199997052,None,space,0.3658026000048267,None,,,,,,,,,,,,,,,P153,001,2025-04-11_15h21.41.702,posner_endo_new1,2024.2.4,60.05717443193585,2025-04-11 15h21.48.312803 +0100,
cube_l.png,0.1,10,catch,19,19,0,up,7.347854399995413,None,None,,,,,,,0,19,19,19,,,,,242.0953787999897,,,,,,,,,,,,,242.0798868999991,242.0953787999897,242.0953787999897,242.0953787999897,249.45564379999996,,,,249.46586589999788,249.47618169999623,249.47618169999623,249.5213100999972,249.52163829999336,249.5381836000015,249.5381836000015,249.5381836000015,249.62111100000038,252.53543859999627,,,,251.6355593999906,252.55148599999666,252.55148599999666,252.55148599999666,up,7.347854399995413,None,None,,,,,,,,,,,,,,,,,P153,001,2025-04-11_15h21.41.702,posner_endo_new1,2024.2.4,60.05717443193585,2025-04-11 15h21.48.312803 +0100,
cube_l.png,0.1,0.31,invalid,20,20,0,up,2.835323300008895,None,space,0.3727826999966055,None,,,,,0,20,20,20,,,,,252.55148599999666,,,,,,,,,,,,,252.53569069999503,252.55148599999666,252.55148599999666,252.55148599999666,255.3996410999971,,,,255.4098929999891,255.42015659999743,255.42015659999743,255.46539610000036,255.46572609999566,255.48177249998844,255.48177249998844,255.48177249998844,255.5650839000009,255.86567790000117,,,,,,,,up,2.835323300008895,None,space,0.3727826999966055,None,,,,,,,,,,,,,,,P153,001,2025-04-11_15h21.41.702,posner_endo_new1,2024.2.4,60.05717443193585,2025-04-11 15h21.48.312803 +0100,
cube_l.png,0.1,-0.31,valid,21,21,0,up,7.801434499997413,None,space,0.3982646000076784,None,,,,,0,21,21,21,,,,,255.88132210000185,,,,,,,,,,,,,255.86594540000078,255.88132210000185,255.88132210000185,255.88132210000185,263.69106230000034,,,,263.7008507999999,263.7104827000003,263.7104827000003,263.75685269999667,263.7570878999977,263.7732415999926,263.7732415999926,263.7732415999926,263.85647990000143,264.1737119999889,,,,,,,,up,7.801434499997413,None,space,0.3982646000076784,None,,,,,,,,,,,,,,,P153,001,2025-04-11_15h21.41.702,posner_endo_new1,2024.2.4,60.05717443193585,2025-04-11 15h21.48.312803 +0100,
cube_r.png,0.1,0.31,valid,22,22,0,up,6.0383086999936495,None,space,0.37343439999676775,None,,,,,0,22,22,22,,,,,264.1894699999975,,,,,,,,,,,,,264.17388999999093,264.1894699999975,264.1894699999975,264.1894699999975,270.2339945999993,,,,270.24071410000033,270.2523242999887,270.2523242999887,270.2999661999929,270.3004957999947,270.31636709999293,270.31636709999293,270.31636709999293,270.3996205000003,270.70115759999317,,,,,,,,up,6.0383086999936495,None,space,0.37343439999676775,None,,,,,,,,,,,,,,,P153,001,2025-04-11_15h21.41.702,posner_endo_new1,2024.2.4,60.05717443193585,2025-04-11 15h21.48.312803 +0100,
cube_r.png,0.1,-0.31,invalid,23,23,0,up,7.208007100009127,None,space,0.33408699999563396,None,,,,,0,23,23,23,,,,,270.7159367999993,,,,,,,,,,,,,270.7015933999937,270.7159367999993,270.7159367999993,270.7159367999993,277.9267772999883,,,,277.9380852999893,277.94839720000164,277.94839720000164,277.99230420000094,277.9926550999953,278.00859050000145,278.00859050000145,278.00859050000145,278.09191669999564,278.3595583999995,,,,,,,,up,7.208007100009127,None,space,0.33408699999563396,None,,,,,,,,,,,,,,,P153,001,2025-04-11_15h21.41.702,posner_endo_new1,2024.2.4,60.05717443193585,2025-04-11 15h21.48.312803 +0100,
cube_r.png,0.1,0.31,valid,24,24,0,up,6.98027239998919,None,space,0.36231229999975767,None,,,,,0,24,24,24,,,,,278.3749475999939,,,,,,,,,,,,,278.35984609999286,278.3749475999939,278.3749475999939,278.3749475999939,285.3685151999962,,,,285.3756779999967,285.3873262999987,285.3873262999987,285.4342752999946,285.4347306999989,285.45072359999176,285.45072359999176,285.45072359999176,285.51759469999524,285.81837809999706,,,,,,,,up,6.98027239998919,None,space,0.36231229999975767,None,,,,,,,,,,,,,,,P153,001,2025-04-11_15h21.41.702,posner_endo_new1,2024.2.4,60.05717443193585,2025-04-11 15h21.48.312803 +0100,
cube_r.png,0.1,-0.31,invalid,25,25,0,up,7.4655572999909054,None,space,0.29426219999731984,None,,,,,0,25,25,25,,,,,285.83375039999373,,,,,,,,,,,,,285.8186466999905,285.83375039999373,285.83375039999373,285.83375039999373,293.3108179999981,,,,293.3209560999967,293.33123049999995,293.33123049999995,293.3764145000023,293.37673939998785,293.3929865999962,293.3929865999962,293.3929865999962,293.47601209999993,293.6938883999974,,,,,,,,up,7.4655572999909054,None,space,0.29426219999731984,None,,,,,,,,,,,,,,,P153,001,2025-04-11_15h21.41.702,posner_endo_new1,2024.2.4,60.05717443193585,2025-04-11 15h21.48.312803 +0100,
cube_l.png,0.1,-0.31,valid,26,26,0,up,6.318511000004946,None,space,0.3830911999975797,None,,,,,0,26,26,26,,,,,293.7093071999989,,,,,,,,,,,,,293.6941513999918,293.7093071999989,293.7093071999989,293.7093071999989,300.0373300999927,,,,300.04750400000194,300.057799000002,300.057799000002,300.1032125999918,300.10353880000184,300.1194279999909,300.1194279999909,300.1194279999909,300.2026282000006,300.5036396999931,,,,,,,,up,6.318511000004946,None,space,0.3830911999975797,None,,,,,,,,,,,,,,,P153,001,2025-04-11_15h21.41.702,posner_endo_new1,2024.2.4,60.05717443193585,2025-04-11 15h21.48.312803 +0100,
cube_r.png,0.1,0.31,valid,27,27,0,up,8.07574930001283,None,space,0.3014705000096001,None,,,,,0,27,27,27,,,,,300.5190239999938,,,,,,,,,,,,,300.5039015999937,300.5190239999938,300.5190239999938,300.5190239999938,308.61156559998926,,,,308.6216316999926,308.63163239999267,308.63163239999267,308.677526399988,308.67785359999107,308.6941121999989,308.6941121999989,308.6941121999989,308.76067129999865,309.01147279998986,,,,,,,,up,8.07574930001283,None,space,0.3014705000096001,None,,,,,,,,,,,,,,,P153,001,2025-04-11_15h21.41.702,posner_endo_new1,2024.2.4,60.05717443193585,2025-04-11 15h21.48.312803 +0100,
cube_r.png,0.1,10,catch,28,28,0,up,6.680491899998742,None,None,,,,,,,0,28,28,28,,,,,309.0269214,,,,,,,,,,,,,309.0117421999894,309.0269214,309.0269214,309.0269214,315.7212559999898,,,,315.7314384999918,315.7416618999996,315.7416618999996,315.78695850000076,315.78727570000046,315.80340009999054,315.80340009999054,315.80340009999054,315.88674059999175,318.8008899999986,,,,317.9012581999996,318.81698839999444,318.81698839999444,318.81698839999444,up,6.680491899998742,None,None,,,,,,,,,,,,,,,,,P153,001,2025-04-11_15h21.41.702,posner_endo_new1,2024.2.4,60.05717443193585,2025-04-11 15h21.48.312803 +0100,
cube_r.png,0.1,0.31,valid,29,29,0,up,5.4421163000079105,None,space,0.18935689999489114,None,,,,,0,29,29,29,,,,,318.81698839999444,,,,,,,,,,,,,318.8011298999918,318.81698839999444,318.81698839999444,318.81698839999444,324.2621989999898,,,,324.2721387999918,324.2823553999915,324.2823553999915,324.3281403000001,324.32846039999276,324.3446338999929,324.3446338999929,324.3446338999929,324.4279300999915,324.5454662999982,,,,,,,,up,5.4421163000079105,None,space,0.18935689999489114,None,,,,,,,,,,,,,,,P153,001,2025-04-11_15h21.41.702,posner_endo_new1,2024.2.4,60.05717443193585,2025-04-11 15h21.48.312803 +0100,
cube_r.png,0.1,0.31,valid,30,30,0,up,7.218232100000023,None,space,0.3237093000061577,None,,,,,0,30,30,30,,,,,324.56099800000084,,,,,,,,,,,,,324.54572179999377,324.56099800000084,324.56099800000084,324.56099800000084,331.78822799999034,,,,331.7987546999939,331.81114479999815,331.81114479999815,331.854105099992,331.8547896999953,331.87036999998963,331.87036999998963,331.87036999998963,331.9536436999915,332.20588519999,,,,,,,,up,7.218232100000023,None,space,0.3237093000061577,None,,,,,,,,,,,,,,,P153,001,2025-04-11_15h21.41.702,posner_endo_new1,2024.2.4,60.05717443193585,2025-04-11 15h21.48.312803 +0100,
cube_l.png,0.1,-0.31,valid,31,31,0,up,6.206957600006717,None,space,0.34859330000472255,None,,,,,0,31,31,31,,,,,332.2201672999945,,,,,,,,,,,,,332.2064919999975,332.2201672999945,332.2201672999945,332.2201672999945,338.4328461999976,,,,338.4562401000003,338.467364199998,338.467364199998,338.49651769999764,338.4968813000014,338.5129517000023,338.5129517000023,338.5129517000023,338.5967033999914,338.8644614999939,,,,,,,,up,6.206957600006717,None,space,0.34859330000472255,None,,,,,,,,,,,,,,,P153,001,2025-04-11_15h21.41.702,posner_endo_new1,2024.2.4,60.05717443193585,2025-04-11 15h21.48.312803 +0100,
cube_r.png,0.1,0.31,valid,32,32,0,up,8.363358599992353,None,space,0.3660362999944482,None,,,,,0,32,32,32,,,,,338.87972489999083,,,,,,,,,,,,,338.8647531999886,338.87972489999083,338.87972489999083,338.87972489999083,347.2570463000011,,,,347.2791365000012,347.28904239999247,347.28904239999247,347.3208244999987,347.3211769999907,347.3376844000013,347.3376844000013,347.3376844000013,347.42096389998915,347.7054219999991,,,,,,,,up,8.363358599992353,None,space,0.3660362999944482,None,,,,,,,,,,,,,,,P153,001,2025-04-11_15h21.41.702,posner_endo_new1,2024.2.4,60.05717443193585,2025-04-11 15h21.48.312803 +0100,
cube_r.png,0.1,-0.31,invalid,33,33,0,up,5.2346464000002015,None,space,0.3173604999901727,None,,,,,0,33,33,33,,,,,347.72060039998905,,,,,,,,,,,,,347.7057150999899,347.72060039998905,347.72060039998905,347.72060039998905,352.96664889999374,,,,352.98168109999096,352.9922943999991,352.9922943999991,353.03181319999567,353.0322746999882,353.04851690000214,353.04851690000214,353.04851690000214,353.1317696999904,353.3826124999905,,,,,,,,up,5.2346464000002015,None,space,0.3173604999901727,None,,,,,,,,,,,,,,,P153,001,2025-04-11_15h21.41.702,posner_endo_new1,2024.2.4,60.05717443193585,2025-04-11 15h21.48.312803 +0100,
cube_r.png,0.1,10,catch,34,34,0,up,4.845158800002537,None,None,,,,,,,0,34,34,34,,,,,353.398268799996,,,,,,,,,,,,,353.3828741999896,353.398268799996,353.398268799996,353.398268799996,358.2446010999993,,,,358.2548902999988,358.2649315000017,358.2649315000017,358.3099794000009,358.3103132999968,358.3263881000021,358.3263881000021,358.3263881000021,358.409791099999,361.32379260000016,,,,360.424405400001,361.3401204999973,361.3401204999973,361.3401204999973,up,4.845158800002537,None,None,,,,,,,,,,,,,,,,,P153,001,2025-04-11_15h21.41.702,posner_endo_new1,2024.2.4,60.05717443193585,2025-04-11 15h21.48.312803 +0100,
cube_r.png,0.1,0.31,valid,35,35,0,up,3.479338799996185,None,space,0.36342019999574404,None,,,,,0,35,35,35,,,,,361.3401204999973,,,,,,,,,,,,,361.3239543999953,361.3401204999973,361.3401204999973,361.3401204999973,364.82078999999794,,,,364.8269757999951,364.8380135999905,364.8380135999905,364.8865164000017,364.8870332999941,364.90293029999884,364.90293029999884,364.90293029999884,364.9861751999997,365.2711349000019,,,,,,,,up,3.479338799996185,None,space,0.36342019999574404,None,,,,,,,,,,,,,,,P153,001,2025-04-11_15h21.41.702,posner_endo_new1,2024.2.4,60.05717443193585,2025-04-11 15h21.48.312803 +0100,
cube_r.png,0.1,-0.31,invalid,36,36,0,up,7.629508600002737,None,space,0.38617230000090785,None,,,,,0,36,36,36,,,,,365.2858118000004,,,,,,,,,,,,,365.2715785999899,365.2858118000004,365.2858118000004,365.2858118000004,372.9295277999918,,,,372.9411650999973,372.9515828000003,372.9515828000003,372.9949867999967,372.9952568000008,373.01151889999164,373.01151889999164,373.01151889999164,373.09484219999285,373.4122836999886,,,,,,,,up,7.629508600002737,None,space,0.38617230000090785,None,,,,,,,,,,,,,,,P153,001,2025-04-11_15h21.41.702,posner_endo_new1,2024.2.4,60.05717443193585,2025-04-11 15h21.48.312803 +0100,
cube_l.png,0.1,0.31,invalid,37,37,0,up,5.799120299998322,None,space,0.4408532999950694,None,,,,,0,37,37,37,,,,,373.4276919999975,,,,,,,,,,,,,373.4125978999946,373.4276919999975,373.4276919999975,373.4276919999975,379.23955430000206,,,,379.2512932999962,379.2617923999933,379.2617923999933,379.3052286999882,379.3055861999892,379.32166519999737,379.32166519999737,379.32166519999737,379.4049699999887,379.7724511999986,,,,,,,,up,5.799120299998322,None,space,0.4408532999950694,None,,,,,,,,,,,,,,,P153,001,2025-04-11_15h21.41.702,posner_endo_new1,2024.2.4,60.05717443193585,2025-04-11 15h21.48.312803 +0100,
cube_l.png,0.1,0.31,invalid,38,38,0,up,6.623016999990796,None,space,0.2990624999947613,None,,,,,0,38,38,38,,,,,379.7879021999979,,,,,,,,,,,,,379.7727451999963,379.7879021999979,379.7879021999979,379.7879021999979,386.4154611999984,,,,386.4229905999964,386.43378549999034,386.43378549999034,386.4809612999961,386.4812241999898,386.4976290999912,386.4976290999912,386.4976290999912,386.5807465999969,386.7983569999924,,,,,,,,up,6.623016999990796,None,space,0.2990624999947613,None,,,,,,,,,,,,,,,P153,001,2025-04-11_15h21.41.702,posner_endo_new1,2024.2.4,60.05717443193585,2025-04-11 15h21.48.312803 +0100,
cube_r.png,0.1,0.31,valid,39,39,0,up,8.365640600008192,None,space,0.2227279000071576,None,,,,,0,39,39,39,,,,,386.81400199999916,,,,,,,,,,,,,386.7985570999881,386.81400199999916,386.81400199999916,386.81400199999916,395.18958739998925,,,,395.19719839999743,395.2082284999924,395.2082284999924,395.2555846999894,395.2558508999937,395.27182759999414,395.27182759999414,395.27182759999414,395.35508069999923,395.50592779999715,,,,,,,,up,8.365640600008192,None,space,0.2227279000071576,None,,,,,,,,,,,,,,,P153,001,2025-04-11_15h21.41.702,posner_endo_new1,2024.2.4,60.05717443193585,2025-04-11 15h21.48.312803 +0100,
cube_l.png,0.1,0.31,invalid,40,40,0,up,7.689175999999861,None,space,0.35695810000470374,None,,,,,0,40,40,40,,,,,395.52171079999243,,,,,,,,,,,,,395.5061266999983,395.52171079999243,395.52171079999243,395.52171079999243,403.2147544999898,,,,403.22236220000195,403.2334334999905,403.2334334999905,403.28055339999264,403.2808157999971,403.2971322999947,403.2971322999947,403.2971322999947,403.38025489999563,403.6643703000009,,,,,,,,up,7.689175999999861,None,space,0.35695810000470374,None,,,,,,,,,,,,,,,P153,001,2025-04-11_15h21.41.702,posner_endo_new1,2024.2.4,60.05717443193585,2025-04-11 15h21.48.312803 +0100,
cube_l.png,0.1,10,catch,41,41,0,up,8.602928799999063,None,None,,,,,,,0,41,41,41,,,,,403.6802494000003,,,,,,,,,,,,,403.66457239999727,403.6802494000003,403.6802494000003,403.6802494000003,412.28876070000115,,,,412.2963124999951,412.3074821999908,412.3074821999908,412.35496409999905,412.35533120000036,412.3712155999965,412.3712155999965,412.3712155999965,412.4543769000011,415.3688919999986,,,,414.46912059999886,415.3848072999972,415.3848072999972,415.3848072999972,up,8.602928799999063,None,None,,,,,,,,,,,,,,,,,P153,001,2025-04-11_15h21.41.702,posner_endo_new1,2024.2.4,60.05717443193585,2025-04-11 15h21.48.312803 +0100,
cube_l.png,0.1,-0.31,valid,42,42,0,up,2.707142899991595,None,space,0.35760830000799615,None,,,,,0,42,42,42,,,,,415.3848072999972,,,,,,,,,,,,,415.3691586999921,415.3848072999972,415.3848072999972,415.3848072999972,418.0997255999973,,,,418.11047639999015,418.12017470000137,418.12017470000137,418.1654319999943,418.16567699999723,418.18202549999114,418.18202549999114,418.18202549999114,418.2652503999998,418.5488849999965,,,,,,,,up,2.707142899991595,None,space,0.35760830000799615,None,,,,,,,,,,,,,,,P153,001,2025-04-11_15h21.41.702,posner_endo_new1,2024.2.4,60.05717443193585,2025-04-11 15h21.48.312803 +0100,
cube_l.png,0.1,10,catch,43,43,0,up,8.270174000004772,None,None,,,,,,,0,43,43,43,,,,,418.5648518999951,,,,,,,,,,,,,418.54907059999823,418.5648518999951,418.5648518999951,418.5648518999951,426.8405594999931,,,,426.84751019999385,426.85917539999355,426.85917539999355,426.9064495999919,426.90669669999625,426.92303710000124,426.92303710000124,426.92303710000124,427.00611659999413,429.920438199988,,,,429.02082710000104,429.93656059999194,429.93656059999194,429.93656059999194,up,8.270174000004772,None,None,,,,,,,,,,,,,,,,,P153,001,2025-04-11_15h21.41.702,posner_endo_new1,2024.2.4,60.05717443193585,2025-04-11 15h21.48.312803 +0100,
cube_l.png,0.1,0.31,invalid,44,44,0,up,3.818464399999357,None,space,0.2895047999918461,None,,,,,0,44,44,44,,,,,429.93656059999194,,,,,,,,,,,,,429.9206192999991,429.93656059999194,429.93656059999194,429.93656059999194,433.76713599999493,,,,433.7772651999985,433.7874781999999,433.7874781999999,433.8327520000021,433.8330749000015,433.8493448999943,433.8493448999943,433.8493448999943,433.9325341999938,434.15005440000095,,,,,,,,up,3.818464399999357,None,space,0.2895047999918461,None,,,,,,,,,,,,,,,P153,001,2025-04-11_15h21.41.702,posner_endo_new1,2024.2.4,60.05717443193585,2025-04-11 15h21.48.312803 +0100,
cube_l.png,0.1,0.31,invalid,45,45,0,up,7.469729200005531,None,space,0.34582629999204073,None,,,,,0,45,45,45,,,,,434.16577379999217,,,,,,,,,,,,,434.1503120999987,434.16577379999217,434.16577379999217,434.16577379999217,441.64236109999183,,,,441.65254979999736,441.66283139999723,441.66283139999723,441.7080585999938,441.70838009999716,441.72444499999983,441.72444499999983,441.72444499999983,441.80777479999233,442.07536940000136,,,,,,,,up,7.469729200005531,None,space,0.34582629999204073,None,,,,,,,,,,,,,,,P153,001,2025-04-11_15h21.41.702,posner_endo_new1,2024.2.4,60.05717443193585,2025-04-11 15h21.48.312803 +0100,
cube_r.png,0.1,0.31,valid,46,46,0,up,8.592808599991258,None,space,0.30347720001009293,None,,,,,0,46,46,46,,,,,442.0907869999937,,,,,,,,,,,,,442.07562089999556,442.0907869999937,442.0907869999937,442.0907869999937,450.6997357999935,,,,450.7098041999998,450.720023899994,450.720023899994,450.7654335999978,450.7657559999934,450.78195789999154,450.78195789999154,450.78195789999154,450.86522159999004,451.0994655999966,,,,,,,,up,8.592808599991258,None,space,0.30347720001009293,None,,,,,,,,,,,,,,,P153,001,2025-04-11_15h21.41.702,posner_endo_new1,2024.2.4,60.05717443193585,2025-04-11 15h21.48.312803 +0100,
cube_l.png,0.1,-0.31,valid,47,47,0,up,7.800512200003141,None,space,0.2776404000032926,None,,,,,0,47,47,47,,,,,451.11491629999364,,,,,,,,,,,,,451.0997170999908,451.11491629999364,451.11491629999364,451.11491629999364,458.9245621000009,,,,458.9345290999918,458.9447271999961,458.9447271999961,458.9902890999947,458.99062289998983,459.0068205999996,459.0068205999996,459.0068205999996,459.08999239999685,459.29092749999836,,,,,,,,up,7.800512200003141,None,space,0.2776404000032926,None,,,,,,,,,,,,,,,P153,001,2025-04-11_15h21.41.702,posner_endo_new1,2024.2.4,60.05717443193585,2025-04-11 15h21.48.312803 +0100,
cube_r.png,0.1,-0.31,invalid,48,48,0,up,7.480977500003064,None,space,0.45521040000312496,None,,,,,0,48,48,48,,,,,459.30658669999684,,,,,,,,,,,,,459.2911774999957,459.30658669999684,459.30658669999684,459.30658669999684,466.800012599997,,,,466.8100732000021,466.8202050999971,466.8202050999971,466.86567800000194,466.8659972000023,466.88203480000084,466.88203480000084,466.88203480000084,466.96542249999766,467.34928450000007,,,,,,,,up,7.480977500003064,None,space,0.45521040000312496,None,,,,,,,,,,,,,,,P153,001,2025-04-11_15h21.41.702,posner_endo_new1,2024.2.4,60.05717443193585,2025-04-11 15h21.48.312803 +0100,
cube_r.png,0.1,10,catch,49,49,0,up,9.589973900001496,None,space,0.274241199993412,None,,,,,0,49,49,49,,,,,467.3649471999961,,,,,,,,,,,,,467.3495346999989,467.3649471999961,467.3649471999961,467.3649471999961,476.95630459999666,,,,476.96643829999084,476.97661319999315,476.97661319999315,477.0217789999879,477.0220983999898,477.0384608999884,477.0384608999884,477.0384608999884,477.1216923999891,477.3223408999911,,,,,,,,up,9.589973900001496,None,space,0.274241199993412,None,,,,,,,,,,,,,,,P153,001,2025-04-11_15h21.41.702,posner_endo_new1,2024.2.4,60.05717443193585,2025-04-11 15h21.48.312803 +0100,
cube_l.png,0.1,-0.31,valid,50,50,0,up,8.68881120000151,None,space,0.40728529999614693,None,,,,,0,50,50,50,,,,,477.33806369999365,,,,,,,,,,,,,477.3225969999912,477.33806369999365,477.33806369999365,477.33806369999365,486.03032659999735,,,,486.04048889999103,486.05073119999724,486.05073119999724,486.0959232000023,486.096240999992,486.1123351999995,486.1123351999995,486.1123351999995,486.19563709999784,486.5297406999889,,,,,,,,up,8.68881120000151,None,space,0.40728529999614693,None,,,,,,,,,,,,,,,P153,001,2025-04-11_15h21.41.702,posner_endo_new1,2024.2.4,60.05717443193585,2025-04-11 15h21.48.312803 +0100,
cube_l.png,0.1,-0.31,valid,51,51,0,up,8.273870599994552,None,space,0.3095056000020122,None,,,,,0,51,51,51,,,,,486.54532829999516,,,,,,,,,,,,,486.5299951999914,486.54532829999516,486.54532829999516,486.54532829999516,494.82139440000174,,,,494.83147859999735,494.8417361999891,494.8417361999891,494.88686210000014,494.8871853000019,494.90345199999865,494.90345199999865,494.90345199999865,494.9865873999952,495.2208352999878,,,,,,,,up,8.273870599994552,None,space,0.3095056000020122,None,,,,,,,,,,,,,,,P153,001,2025-04-11_15h21.41.702,posner_endo_new1,2024.2.4,60.05717443193585,2025-04-11 15h21.48.312803 +0100,
cube_r.png,0.1,-0.31,invalid,52,52,0,up,16.614483099998324,None,space,0.35186150000663474,None,,,,,0,52,52,52,,,,,495.2364641000022,,,,,,,,,,,,,495.2210930000001,495.2364641000022,495.2364641000022,495.2364641000022,511.8538835999934,,,,511.86183749999327,511.87228949999553,511.87228949999553,511.91950740000175,511.91974939999636,511.9360650999879,511.9360650999879,511.9360650999879,512.0192490999907,512.3030309999886,,,,,,,,up,16.614483099998324,None,space,0.35186150000663474,None,,,,,,,,,,,,,,,P153,001,2025-04-11_15h21.41.702,posner_endo_new1,2024.2.4,60.05717443193585,2025-04-11 15h21.48.312803 +0100,
cube_l.png,0.1,-0.31,valid,53,53,0,up,9.307896700003766,None,space,0.3097295000043232,None,,,,,0,53,53,53,,,,,512.3189880999998,,,,,,,,,,,,,512.3032089999906,512.3189880999998,512.3189880999998,512.3189880999998,521.6435609999899,,,,521.6503049999883,521.6617369000014,521.6617369000014,521.7093898000021,521.7096314999944,521.726032599996,521.726032599996,521.726032599996,521.7924396000017,522.0430140999961,,,,,,,,up,9.307896700003766,None,space,0.3097295000043232,None,,,,,,,,,,,,,,,P153,001,2025-04-11_15h21.41.702,posner_endo_new1,2024.2.4,60.05717443193585,2025-04-11 15h21.48.312803 +0100,
cube_r.png,0.1,10,catch,54,54,0,up,10.592522999999346,None,None,,,,,,,0,54,54,54,,,,,522.0590875999915,,,,,,,,,,,,,522.04320249999,522.0590875999915,522.0590875999915,522.0590875999915,532.6655192999897,,,,532.6717510999879,532.6834944000002,532.6834944000002,532.7315331999998,532.7317564999976,532.747967999996,532.747967999996,532.747967999996,532.8145737000013,535.7455380999891,,,,534.829207799994,535.7616485999897,535.7616485999897,535.7616485999897,up,10.592522999999346,None,None,,,,,,,,,,,,,,,,,P153,001,2025-04-11_15h21.41.702,posner_endo_new1,2024.2.4,60.05717443193585,2025-04-11 15h21.48.312803 +0100,
cube_l.png,0.1,0.31,invalid,55,55,0,up,3.5936115000076825,None,space,0.33001649999641813,None,,,,,0,55,55,55,,,,,535.7616485999897,,,,,,,,,,,,,535.7457112999982,535.7616485999897,535.7616485999897,535.7616485999897,539.3588359999994,,,,539.3650483999954,539.3768044999888,539.3768044999888,539.4247306999896,539.4249688999989,539.4412531999988,539.4412531999988,539.4412531999988,539.5243781999889,539.7750444999983,,,,,,,,up,3.5936115000076825,None,space,0.33001649999641813,None,,,,,,,,,,,,,,,P153,001,2025-04-11_15h21.41.702,posner_endo_new1,2024.2.4,60.05717443193585,2025-04-11 15h21.48.312803 +0100,
cube_l.png,0.1,-0.31,valid,56,56,0,up,7.444753600007971,None,space,0.49072639999212697,None,,,,,0,56,56,56,,,,,539.7907984999911,,,,,,,,,,,,,539.7752263000002,539.7907984999911,539.7907984999911,539.7907984999911,547.2508258999878,,,,547.2613917999988,547.2708409999905,547.2708409999905,547.3165787999897,547.3168149999983,547.3329768999974,547.3329768999974,547.3329768999974,547.416275800002,547.8333358999953,,,,,,,,up,7.444753600007971,None,space,0.49072639999212697,None,,,,,,,,,,,,,,,P153,001,2025-04-11_15h21.41.702,posner_endo_new1,2024.2.4,60.05717443193585,2025-04-11 15h21.48.312803 +0100,
cube_r.png,0.1,0.31,valid,57,57,0,up,6.3703599000000395,None,space,0.3743233999994118,None,,,,,0,57,57,57,,,,,547.8491229999927,,,,,,,,,,,,,547.8335118999967,547.8491229999927,547.8491229999927,547.8491229999927,554.2268742000015,,,,554.2338502999919,554.2454003999883,554.2454003999883,554.2924683000019,554.2929185999965,554.3089252999926,554.3089252999926,554.3089252999926,554.3921771999885,554.6934708999906,,,,,,,,up,6.3703599000000395,None,space,0.3743233999994118,None,,,,,,,,,,,,,,,P153,001,2025-04-11_15h21.41.702,posner_endo_new1,2024.2.4,60.05717443193585,2025-04-11 15h21.48.312803 +0100,
cube_r.png,0.1,-0.31,invalid,58,58,0,up,7.615215199999511,None,space,0.181895199988503,None,,,,,0,58,58,58,,,,,554.7084712999931,,,,,,,,,,,,,554.6938442999963,554.7084712999931,554.7084712999931,554.7084712999931,562.3347913999896,,,,562.3419790999906,562.3532304999972,562.3532304999972,562.4007932999957,562.4010096999991,562.4175683999929,562.4175683999929,562.4175683999929,562.5009220999927,562.6020179999905,,,,,,,,up,7.615215199999511,None,space,0.181895199988503,None,,,,,,,,,,,,,,,P153,001,2025-04-11_15h21.41.702,posner_endo_new1,2024.2.4,60.05717443193585,2025-04-11 15h21.48.312803 +0100,
cube_l.png,0.1,0.31,invalid,59,59,0,up,7.130126799995196,None,space,0.3746848000009777,None,,,,,0,59,59,59,,,,,562.6172522999987,,,,,,,,,,,,,562.6022372000007,562.6172522999987,562.6172522999987,562.6172522999987,569.7612137999968,,,,569.771442799989,569.7816716999951,569.7816716999951,569.8269661999948,569.8272971999977,569.8433578999975,569.8433578999975,569.8433578999975,569.92667049999,570.227476,,,,,,,,up,7.130126799995196,None,space,0.3746848000009777,None,,,,,,,,,,,,,,,P153,001,2025-04-11_15h21.41.702,posner_endo_new1,2024.2.4,60.05717443193585,2025-04-11 15h21.48.312803 +0100,
,,,,,,,,,,,,,,,,,,,,,,,,,,,,,,,,,,,,,,,,,,,,,,,,,,,,,,,,,,,,,,,,,,,,,570.2276405000011,570.2430329999916,570.2430329999916,630.2482366999902,633.6124780999962,space,63.35990409999795,None,,,,,,,P153,001,2025-04-11_15h21.41.702,posner_endo_new1,2024.2.4,60.05717443193585,2025-04-11 15h21.48.312803 +0100,
,,,,,,,,,,,,,,,,,,,,,,,,,,,,,,,,,,633.6125603999972,633.6280206999945,636.699864299997,636.6089900999941,,,,,,,,,,,,,,,,,,,,,,,,,,,,,,,,,,,,,,,,,,,,,,P153,001,2025-04-11_15h21.41.702,posner_endo_new1,2024.2.4,60.05717443193585,2025-04-11 15h21.48.312803 +0100,
cube_l.png,0.1,10,catch,0,0,0,down,10.631088099995395,None,None,,,,,,,,,,,0,0,0,0,636.699864299997,,,,,,,,,,,,,636.6916428999975,636.699864299997,636.699864299997,636.699864299997,647.3330092999968,,,,647.3528842999949,647.364296899992,647.364296899992,647.3974181999947,647.3977884999913,647.4141134999954,647.4141134999954,647.4141134999954,647.4971986999881,650.4120486999891,,,,649.5117666000006,650.4275135999924,650.4275135999924,650.4275135999924,,,,,,,,,,,,,,,down,10.631088099995395,None,None,,,P153,001,2025-04-11_15h21.41.702,posner_endo_new1,2024.2.4,60.05717443193585,2025-04-11 15h21.48.312803 +0100,
cube_l.png,0.1,10,catch,1,1,0,down,6.408337599990773,None,None,,,,,,,,,,,0,1,1,1,650.4275135999924,,,,,,,,,,,,,650.4124960999907,650.4275135999924,650.4275135999924,650.4275135999924,656.839756699992,,,,656.8589701000019,656.8703796999907,656.8703796999907,656.9045209999895,656.9048752999952,656.9209238999902,656.9209238999902,656.9209238999902,657.0042237999878,659.9185940999887,,,,659.0188148000016,659.9345631999895,659.9345631999895,659.9345631999895,,,,,,,,,,,,,,,down,6.408337599990773,None,None,,,P153,001,2025-04-11_15h21.41.702,posner_endo_new1,2024.2.4,60.05717443193585,2025-04-11 15h21.48.312803 +0100,
cube_l.png,0.1,0.31,invalid,2,2,0,down,5.076796100009233,None,space,0.3523886000039056,None,,,,,,,,,0,2,2,2,659.9345631999895,,,,,,,,,,,,,659.9188790999906,659.9345631999895,659.9345631999895,659.9345631999895,665.0140544999886,,,,665.0258703,665.0363153999933,665.0363153999933,665.0794480999903,665.0798095999926,665.095809099992,665.095809099992,665.095809099992,665.179197999998,665.4634285999928,,,,,,,,,,,,,,,,,,,,,,down,5.076796100009233,None,space,0.3523886000039056,None,P153,001,2025-04-11_15h21.41.702,posner_endo_new1,2024.2.4,60.05717443193585,2025-04-11 15h21.48.312803 +0100,
cube_l.png,0.1,0.31,invalid,3,3,0,down,19.140401600001496,None,space,1.1296260000090115,None,,,,,,,,,0,3,3,3,665.4788203999924,,,,,,,,,,,,,665.4637270999956,665.4788203999924,665.4788203999924,665.4788203999924,684.626648999998,,,,684.6337713999965,684.6455040000001,684.6455040000001,684.6926831000019,684.6929135999962,684.7091843999951,684.7091843999951,684.7091843999951,684.7756775000016,685.8422712999891,,,,,,,,,,,,,,,,,,,,,,down,19.140401600001496,None,space,1.1296260000090115,None,P153,001,2025-04-11_15h21.41.702,posner_endo_new1,2024.2.4,60.05717443193585,2025-04-11 15h21.48.312803 +0100,
cube_l.png,0.1,-0.31,valid,4,4,0,down,6.937674600005266,None,space,0.3648423999984516,None,,,,,,,,,0,4,4,4,685.8580909000011,,,,,,,,,,,,,685.8424463999982,685.8580909000011,685.8580909000011,685.8580909000011,692.8017522000009,,,,692.8081219000014,692.8198038999981,692.8198038999981,692.8673406000016,692.8677841999888,692.8838090999925,692.8838090999925,692.8838090999925,692.9671044999996,693.2516533999878,,,,,,,,,,,,,,,,,,,,,,down,6.937674600005266,None,space,0.3648423999984516,None,P153,001,2025-04-11_15h21.41.702,posner_endo_new1,2024.2.4,60.05717443193585,2025-04-11 15h21.48.312803 +0100,
cube_r.png,0.1,-0.31,invalid,5,5,0,down,8.144480300004943,None,space,0.2658162000006996,None,,,,,,,,,0,5,5,5,693.2671028999903,,,,,,,,,,,,,693.2519037999882,693.2671028999903,693.2671028999903,693.2671028999903,701.4265488999954,,,,701.4370913000021,701.4471914999885,701.4471914999885,701.4921937999898,701.4925221000012,701.5086300999974,701.5086300999974,701.5086300999974,701.5919237999915,701.7762984000001,,,,,,,,,,,,,,,,,,,,,,down,8.144480300004943,None,space,0.2658162000006996,None,P153,001,2025-04-11_15h21.41.702,posner_endo_new1,2024.2.4,60.05717443193585,2025-04-11 15h21.48.312803 +0100,
cube_r.png,0.1,0.31,valid,6,6,0,down,7.827003799990052,None,space,0.33392109999840613,None,,,,,,,,,0,6,6,6,701.7917720999976,,,,,,,,,,,,,701.776569900001,701.7917720999976,701.7917720999976,701.7917720999976,709.6348227999988,,,,709.6451143000013,709.6553838999971,709.6553838999971,709.7004607999988,709.700783799999,709.7170882999926,709.7170882999926,709.7170882999926,709.8002206999954,710.0677149999974,,,,,,,,,,,,,,,,,,,,,,down,7.827003799990052,None,space,0.33392109999840613,None,P153,001,2025-04-11_15h21.41.702,posner_endo_new1,2024.2.4,60.05717443193585,2025-04-11 15h21.48.312803 +0100,
cube_r.png,0.1,-0.31,invalid,7,7,0,down,8.239438800010248,None,space,0.36644640000304207,None,,,,,,,,,0,7,7,7,710.0834557999915,,,,,,,,,,,,,710.0679960999987,710.0834557999915,710.0834557999915,710.0834557999915,718.3259082000004,,,,718.3362287999917,718.3463196999946,718.3463196999946,718.3915236999892,718.3918457999971,718.4081483999908,718.4081483999908,718.4081483999908,718.4912808999943,718.7756893999904,,,,,,,,,,,,,,,,,,,,,,down,8.239438800010248,None,space,0.36644640000304207,None,P153,001,2025-04-11_15h21.41.702,posner_endo_new1,2024.2.4,60.05717443193585,2025-04-11 15h21.48.312803 +0100,
cube_l.png,0.1,-0.31,valid,8,8,0,down,8.243881699992926,None,space,0.35326219999114983,None,,,,,,,,,0,8,8,8,718.7910073999956,,,,,,,,,,,,,718.7759462999966,718.7910073999956,718.7910073999956,718.7910073999956,727.0504218999995,,,,727.0607241999969,727.0708183999959,727.0708183999959,727.1158190999995,727.11613699999,727.1323943999887,727.1323943999887,727.1323943999887,727.2157313999924,727.4998927999986,,,,,,,,,,,,,,,,,,,,,,down,8.243881699992926,None,space,0.35326219999114983,None,P153,001,2025-04-11_15h21.41.702,posner_endo_new1,2024.2.4,60.05717443193585,2025-04-11 15h21.48.312803 +0100,
cube_r.png,0.1,-0.31,invalid,9,9,0,down,8.247822699995595,None,space,0.31206909999309573,None,,,,,,,,,0,9,9,9,727.5153322999977,,,,,,,,,,,,,727.5001525999978,727.5153322999977,727.5153322999977,727.5153322999977,735.7746318999998,,,,735.7848554999946,735.7951201999967,735.7951201999967,735.8402730999951,735.8405945999984,735.8568730999978,735.8568730999978,735.8568730999978,735.9400434999989,736.1743443000014,,,,,,,,,,,,,,,,,,,,,,down,8.247822699995595,None,space,0.31206909999309573,None,P153,001,2025-04-11_15h21.41.702,posner_endo_new1,2024.2.4,60.05717443193585,2025-04-11 15h21.48.312803 +0100,
cube_l.png,0.1,0.31,invalid,10,10,0,down,8.068979999996372,None,space,0.21149029998923652,None,,,,,,,,,0,10,10,10,736.1899121999886,,,,,,,,,,,,,736.1746072999958,736.1899121999886,736.1899121999886,736.1899121999886,744.2660706999886,,,,744.2765004999965,744.2867553999968,744.2867553999968,744.3316664000013,744.3319920999929,744.3481855999999,744.3481855999999,744.3481855999999,744.4313932999939,744.5658666999952,,,,,,,,,,,,,,,,,,,,,,down,8.068979999996372,None,space,0.21149029998923652,None,P153,001,2025-04-11_15h21.41.702,posner_endo_new1,2024.2.4,60.05717443193585,2025-04-11 15h21.48.312803 +0100,
cube_r.png,0.1,-0.31,invalid,11,11,0,down,9.045980299997609,None,space,0.3062447999982396,None,,,,,,,,,0,11,11,11,744.5812752999918,,,,,,,,,,,,,744.566128099992,744.5812752999918,744.5812752999918,744.5812752999918,753.6397366000019,,,,753.6499798000004,753.6602242999943,753.6602242999943,753.7053297999955,753.7056511999981,753.7217748999974,753.7217748999974,753.7217748999974,753.8051013999939,754.0393896000023,,,,,,,,,,,,,,,,,,,,,,down,9.045980299997609,None,space,0.3062447999982396,None,P153,001,2025-04-11_15h21.41.702,posner_endo_new1,2024.2.4,60.05717443193585,2025-04-11 15h21.48.312803 +0100,
cube_r.png,0.1,0.31,valid,12,12,0,down,8.468295799990301,None,space,0.34077150000666734,None,,,,,,,,,0,12,12,12,754.0549285000016,,,,,,,,,,,,,754.0396496999892,754.0549285000016,754.0549285000016,754.0549285000016,762.5306649999984,,,,762.5401208999974,762.5499488999922,762.5499488999922,762.5964011999895,762.5966435000009,762.612816199995,762.612816199995,762.612816199995,762.6961056,762.9632706999982,,,,,,,,,,,,,,,,,,,,,,down,8.468295799990301,None,space,0.34077150000666734,None,P153,001,2025-04-11_15h21.41.702,posner_endo_new1,2024.2.4,60.05717443193585,2025-04-11 15h21.48.312803 +0100,
cube_l.png,0.1,10,catch,13,13,0,down,6.80832699999155,None,None,,,,,,,,,,,0,13,13,13,762.9792562999937,,,,,,,,,,,,,762.9634424999967,762.9792562999937,762.9792562999937,762.9792562999937,769.7896679999976,,,,769.7961532999907,769.8072015999933,769.8072015999933,769.8554036999994,769.8559139999998,769.8717879999895,769.8717879999895,769.8717879999895,769.955109699993,772.8697931999923,,,,771.9699070999923,772.8856040999963,772.8856040999963,772.8856040999963,,,,,,,,,,,,,,,down,6.80832699999155,None,None,,,P153,001,2025-04-11_15h21.41.702,posner_endo_new1,2024.2.4,60.05717443193585,2025-04-11 15h21.48.312803 +0100,
cube_r.png,0.1,-0.31,invalid,14,14,0,down,5.173283600001014,None,space,0.3189064000034705,None,,,,,,,,,0,14,14,14,772.8856040999963,,,,,,,,,,,,,772.8700833999901,772.8856040999963,772.8856040999963,772.8856040999963,778.0648968999885,,,,778.0765023999993,778.0868999999948,778.0868999999948,778.1302571999986,778.1305053999968,778.1470706999971,778.1470706999971,778.1470706999971,778.2301850999938,778.4807616999897,,,,,,,,,,,,,,,,,,,,,,down,5.173283600001014,None,space,0.3189064000034705,None,P153,001,2025-04-11_15h21.41.702,posner_endo_new1,2024.2.4,60.05717443193585,2025-04-11 15h21.48.312803 +0100,
cube_l.png,0.1,-0.31,valid,15,15,0,down,9.65097919999971,None,space,0.31744280000566505,None,,,,,,,,,0,15,15,15,778.4966501000017,,,,,,,,,,,,,778.4809645999921,778.4966501000017,778.4966501000017,778.4966501000017,788.1541906999919,,,,788.1618182999955,788.1728321999981,788.1728321999981,788.2199379999947,788.220198199997,788.2366335999977,788.2366335999977,788.2366335999977,788.319842500001,788.5703764999926,,,,,,,,,,,,,,,,,,,,,,down,9.65097919999971,None,space,0.31744280000566505,None,P153,001,2025-04-11_15h21.41.702,posner_endo_new1,2024.2.4,60.05717443193585,2025-04-11 15h21.48.312803 +0100,
cube_r.png,0.1,10,catch,16,16,0,down,8.953864399998565,None,space,0.2071697000064887,None,,,,,,,,,0,16,16,16,788.5862259999994,,,,,,,,,,,,,788.5705833999964,788.5862259999994,788.5862259999994,788.5862259999994,797.5448934000015,,,,797.5525240999996,797.5631379999977,797.5631379999977,797.6103526999941,797.6108521999995,797.6267737999879,797.6267737999879,797.6267737999879,797.7099944999936,797.8449380999955,,,,,,,,,,,,,,,,,,,,,,down,8.953864399998565,None,space,0.2071697000064887,None,P153,001,2025-04-11_15h21.41.702,posner_endo_new1,2024.2.4,60.05717443193585,2025-04-11 15h21.48.312803 +0100,
cube_r.png,0.1,10,catch,17,17,0,down,9.263996399997268,None,None,,,,,,,,,,,0,17,17,17,797.8598654999951,,,,,,,,,,,,,797.8453756999952,797.8598654999951,797.8598654999951,797.8598654999951,807.1351247999992,,,,807.1467124999908,807.1570071999886,807.1570071999886,807.2007270999893,807.2009780999942,807.2171125999885,807.2171125999885,807.2171125999885,807.3005130999954,810.2146702999889,,,,809.3147870999965,810.230765699991,810.230765699991,810.230765699991,,,,,,,,,,,,,,,down,9.263996399997268,None,None,,,P153,001,2025-04-11_15h21.41.702,posner_endo_new1,2024.2.4,60.05717443193585,2025-04-11 15h21.48.312803 +0100,
cube_l.png,0.1,0.31,invalid,18,18,0,down,5.644119699994917,None,space,0.34954759999527596,None,,,,,,,,,0,18,18,18,810.230765699991,,,,,,,,,,,,,810.214868199997,810.230765699991,810.230765699991,810.230765699991,815.876011100001,,,,815.8835891999915,815.8944623999996,815.8944623999996,815.9416689999925,815.941931399997,815.9579543,815.9579543,815.9579543,816.0414457000006,816.3087422999961,,,,,,,,,,,,,,,,,,,,,,down,5.644119699994917,None,space,0.34954759999527596,None,P153,001,2025-04-11_15h21.41.702,posner_endo_new1,2024.2.4,60.05717443193585,2025-04-11 15h21.48.312803 +0100,
cube_l.png,0.1,10,catch,19,19,0,down,9.430922900006408,None,None,,,,,,,,,,,0,19,19,19,816.3244377999945,,,,,,,,,,,,,816.3089460999909,816.3244377999945,816.3244377999945,816.3244377999945,825.7656365000003,,,,825.7732040999981,825.78423379999,825.78423379999,825.8314810000011,825.8319943999959,825.8478506999963,825.8478506999963,825.8478506999963,825.9311536000023,828.8457476999902,,,,827.9457365999988,828.8613776999991,828.8613776999991,828.8613776999991,,,,,,,,,,,,,,,down,9.430922900006408,None,None,,,P153,001,2025-04-11_15h21.41.702,posner_endo_new1,2024.2.4,60.05717443193585,2025-04-11 15h21.48.312803 +0100,
cube_l.png,0.1,0.31,invalid,20,20,0,down,4.157534700003453,None,space,0.5007781000022078,None,,,,,,,,,0,20,20,20,828.8613776999991,,,,,,,,,,,,,828.8460339000012,828.8613776999991,828.8613776999991,828.8613776999991,833.0251170999982,,,,833.0326937999926,833.0432829999918,833.0432829999918,833.090710599994,833.0912353000022,833.1071347999969,833.1071347999969,833.1071347999969,833.1903762000002,833.6250565999944,,,,,,,,,,,,,,,,,,,,,,down,4.157534700003453,None,space,0.5007781000022078,None,P153,001,2025-04-11_15h21.41.702,posner_endo_new1,2024.2.4,60.05717443193585,2025-04-11 15h21.48.312803 +0100,
cube_l.png,0.1,-0.31,valid,21,21,0,down,5.978974500001641,None,space,0.31248219999542926,None,,,,,,,,,0,21,21,21,833.639912300001,,,,,,,,,,,,,833.6254899999913,833.639912300001,833.639912300001,833.639912300001,839.6352850999974,,,,839.6471031999972,839.6571541000012,839.6571541000012,839.700617399998,839.7009693,839.717216399993,839.717216399993,839.717216399993,839.8005218999897,840.0347534999892,,,,,,,,,,,,,,,,,,,,,,down,5.978974500001641,None,space,0.31248219999542926,None,P153,001,2025-04-11_15h21.41.702,posner_endo_new1,2024.2.4,60.05717443193585,2025-04-11 15h21.48.312803 +0100,
cube_r.png,0.1,0.31,valid,22,22,0,down,6.929019100003643,None,space,0.2947608999966178,None,,,,,,,,,0,22,22,22,840.0502464000019,,,,,,,,,,,,,840.0350482999929,840.0502464000019,840.0502464000019,840.0502464000019,846.9943803999922,,,,847.0060020999954,847.0163234999927,847.0163234999927,847.0598823999899,847.0602444999968,847.0762745999964,847.0762745999964,847.0762745999964,847.1596157000022,847.3774349000014,,,,,,,,,,,,,,,,,,,,,,down,6.929019100003643,None,space,0.2947608999966178,None,P153,001,2025-04-11_15h21.41.702,posner_endo_new1,2024.2.4,60.05717443193585,2025-04-11 15h21.48.312803 +0100,
cube_r.png,0.1,-0.31,invalid,23,23,0,down,5.586930499994196,None,space,0.3440952999953879,None,,,,,,,,,0,23,23,23,847.3926187999896,,,,,,,,,,,,,847.3777470999921,847.3926187999896,847.3926187999896,847.3926187999896,852.9878543999948,,,,852.9954855999968,853.0064968999941,853.0064968999941,853.0536737999937,853.0539365000004,853.0701023000001,853.0701023000001,853.0701023000001,853.1534258999891,853.4206506999908,,,,,,,,,,,,,,,,,,,,,,down,5.586930499994196,None,space,0.3440952999953879,None,P153,001,2025-04-11_15h21.41.702,posner_endo_new1,2024.2.4,60.05717443193585,2025-04-11 15h21.48.312803 +0100,
cube_r.png,0.1,0.31,valid,24,24,0,down,7.071117500003311,None,space,0.32891080000263173,None,,,,,,,,,0,24,24,24,853.4365859999962,,,,,,,,,,,,,853.4208566000016,853.4365859999962,853.4365859999962,853.4365859999962,860.5138005999906,,,,860.5215557999909,860.532073800001,860.532073800001,860.5793158000015,860.5795806999959,860.5958786999981,860.5958786999981,860.5958786999981,860.6792037999985,860.9297779999906,,,,,,,,,,,,,,,,,,,,,,down,7.071117500003311,None,space,0.32891080000263173,None,P153,001,2025-04-11_15h21.41.702,posner_endo_new1,2024.2.4,60.05717443193585,2025-04-11 15h21.48.312803 +0100,
cube_r.png,0.1,-0.31,invalid,25,25,0,down,9.041529800000717,None,space,0.3813192999950843,None,,,,,,,,,0,25,25,25,860.9455680999963,,,,,,,,,,,,,860.9299838000006,860.9455680999963,860.9455680999963,860.9455680999963,870.003861499994,,,,870.0114748999913,870.0224774999951,870.0224774999951,870.0696416999999,870.0699095000018,870.0861653999891,870.0861653999891,870.0861653999891,870.169364299989,870.4702069999912,,,,,,,,,,,,,,,,,,,,,,down,9.041529800000717,None,space,0.3813192999950843,None,P153,001,2025-04-11_15h21.41.702,posner_endo_new1,2024.2.4,60.05717443193585,2025-04-11 15h21.48.312803 +0100,
cube_l.png,0.1,-0.31,valid,26,26,0,down,6.317640200009919,None,space,0.33242170000448823,None,,,,,,,,,0,26,26,26,870.4857489999995,,,,,,,,,,,,,870.470419499994,870.4857489999995,870.4857489999995,870.4857489999995,876.813281499999,,,,876.8207689999981,876.8447118999902,876.8447118999902,876.8797034000017,876.8803608999879,876.895983999988,876.895983999988,876.895983999988,876.9625891999895,877.2317049999983,,,,,,,,,,,,,,,,,,,,,,down,6.317640200009919,None,space,0.33242170000448823,None,P153,001,2025-04-11_15h21.41.702,posner_endo_new1,2024.2.4,60.05717443193585,2025-04-11 15h21.48.312803 +0100,
cube_r.png,0.1,0.31,valid,27,27,0,down,6.197042200001306,None,space,0.3137098999868613,None,,,,,,,,,0,27,27,27,877.2457749000023,,,,,,,,,,,,,877.2323020999902,877.2457749000023,877.2457749000023,877.2457749000023,883.4567951999925,,,,883.4648815999972,883.4750004999951,883.4750004999951,883.5224633999896,883.5229857999948,883.5388698999886,883.5388698999886,883.5388698999886,883.6221774000005,883.857225499989,,,,,,,,,,,,,,,,,,,,,,down,6.197042200001306,None,space,0.3137098999868613,None,P153,001,2025-04-11_15h21.41.702,posner_endo_new1,2024.2.4,60.05717443193585,2025-04-11 15h21.48.312803 +0100,
cube_r.png,0.1,10,catch,28,28,0,down,7.475724500007345,None,None,,,,,,,,,,,0,28,28,28,883.8718388999987,,,,,,,,,,,,,883.8576825999917,883.8718388999987,883.8718388999987,883.8718388999987,891.349068800002,,,,891.3600536000013,891.3702783999906,891.3702783999906,891.4145513999974,891.4148803999997,891.4310024000006,891.4310024000006,891.4310024000006,891.5142970000015,894.4286299999949,,,,893.5288490999956,894.444611400002,894.444611400002,894.444611400002,,,,,,,,,,,,,,,down,7.475724500007345,None,None,,,P153,001,2025-04-11_15h21.41.702,posner_endo_new1,2024.2.4,60.05717443193585,2025-04-11 15h21.48.312803 +0100,
cube_r.png,0.1,0.31,valid,29,29,0,down,11.870500299992273,None,space,0.3459310999896843,None,,,,,,,,,0,29,29,29,894.444611400002,,,,,,,,,,,,,894.4288861999958,894.444611400002,894.444611400002,894.444611400002,906.3171184999956,,,,906.3282292999938,906.3383994999895,906.3383994999895,906.3825227999914,906.3828496999922,906.3989257999929,906.3989257999929,906.3989257999929,906.4822499000002,906.7499535999959,,,,,,,,,,,,,,,,,,,,,,down,11.870500299992273,None,space,0.3459310999896843,None,P153,001,2025-04-11_15h21.41.702,posner_endo_new1,2024.2.4,60.05717443193585,2025-04-11 15h21.48.312803 +0100,
cube_r.png,0.1,0.31,valid,30,30,0,down,7.734261799996602,None,space,0.33772150000731926,None,,,,,,,,,0,30,30,30,906.7652619,,,,,,,,,,,,,906.7502278999891,906.7652619,906.7652619,906.7652619,914.5084434999881,,,,914.5194907999976,914.529652600002,914.529652600002,914.5741100000014,914.5744571999967,914.5906491999922,914.5906491999922,914.5906491999922,914.6739227999933,914.9412727000017,,,,,,,,,,,,,,,,,,,,,,down,7.734261799996602,None,space,0.33772150000731926,None,P153,001,2025-04-11_15h21.41.702,posner_endo_new1,2024.2.4,60.05717443193585,2025-04-11 15h21.48.312803 +0100,
cube_l.png,0.1,-0.31,valid,31,31,0,down,6.702193499993882,None,space,0.26695019999169745,None,,,,,,,,,0,31,31,31,914.9569189999893,,,,,,,,,,,,,914.9415583999944,914.9569189999893,914.9569189999893,914.9569189999893,921.6679485999921,,,,921.6791402999952,921.6894417000003,921.6894417000003,921.7334909999918,921.7338400000008,921.7499421999964,921.7499421999964,921.7499421999964,921.8331788999931,922.0341054999881,,,,,,,,,,,,,,,,,,,,,,down,6.702193499993882,None,space,0.26695019999169745,None,P153,001,2025-04-11_15h21.41.702,posner_endo_new1,2024.2.4,60.05717443193585,2025-04-11 15h21.48.312803 +0100,
cube_r.png,0.1,0.31,valid,32,32,0,down,7.6656093999918085,None,space,0.34069779999845196,None,,,,,,,,,0,32,32,32,922.0496769999882,,,,,,,,,,,,,922.0344264000014,922.0496769999882,922.0496769999882,922.0496769999882,929.7260852999898,,,,929.7372046999953,929.7474187999906,929.7474187999906,929.7918502999964,929.7921850999992,929.808334699992,929.808334699992,929.808334699992,929.8917624000023,930.1592251999973,,,,,,,,,,,,,,,,,,,,,,down,7.6656093999918085,None,space,0.34069779999845196,None,P153,001,2025-04-11_15h21.41.702,posner_endo_new1,2024.2.4,60.05717443193585,2025-04-11 15h21.48.312803 +0100,
cube_r.png,0.1,-0.31,invalid,33,33,0,down,6.901026200008346,None,space,0.29196580000279937,None,,,,,,,,,0,33,33,33,930.1746591999981,,,,,,,,,,,,,930.1595068999886,930.1746591999981,930.1746591999981,930.1746591999981,937.0854045000015,,,,937.0964648999943,937.1069826000021,937.1069826000021,937.1509346999956,937.1512641000008,937.1674902999948,937.1674902999948,937.1674902999948,937.250816300002,937.4684191999986,,,,,,,,,,,,,,,,,,,,,,down,6.901026200008346,None,space,0.29196580000279937,None,P153,001,2025-04-11_15h21.41.702,posner_endo_new1,2024.2.4,60.05717443193585,2025-04-11 15h21.48.312803 +0100,
cube_r.png,0.1,10,catch,34,34,0,down,8.663171699998202,None,space,0.26016530000197235,None,,,,,,,,,0,34,34,34,937.4839126000006,,,,,,,,,,,,,937.4687043000013,937.4839126000006,937.4839126000006,937.4839126000006,946.1594040999917,,,,946.170091699998,946.1796949999989,946.1796949999989,946.2250441999931,946.225283599997,946.2415574999904,946.2415574999904,946.2415574999904,946.3247324999975,946.508672099997,,,,,,,,,,,,,,,,,,,,,,down,8.663171699998202,None,space,0.26016530000197235,None,P153,001,2025-04-11_15h21.41.702,posner_endo_new1,2024.2.4,60.05717443193585,2025-04-11 15h21.48.312803 +0100,
cube_r.png,0.1,0.31,valid,35,35,0,down,7.806300800002646,None,space,0.3568142000003718,None,,,,,,,,,0,35,35,35,946.5247454999917,,,,,,,,,,,,,946.5088456999947,946.5247454999917,946.5247454999917,946.5247454999917,954.3340063999931,,,,954.3404821000004,954.3523203999939,954.3523203999939,954.399708500001,954.4001569999964,954.4161391999951,954.4161391999951,954.4161391999951,954.4994202999951,954.7840621999931,,,,,,,,,,,,,,,,,,,,,,down,7.806300800002646,None,space,0.3568142000003718,None,P153,001,2025-04-11_15h21.41.702,posner_endo_new1,2024.2.4,60.05717443193585,2025-04-11 15h21.48.312803 +0100,
cube_r.png,0.1,-0.31,invalid,36,36,0,down,15.531752900002175,None,space,0.2841184999997495,None,,,,,,,,,0,36,36,36,954.799520799992,,,,,,,,,,,,,954.7843147999956,954.799520799992,954.799520799992,954.799520799992,970.334726999994,,,,970.3445361999911,970.3546486999985,970.3546486999985,970.4002586999995,970.400581599999,970.4168506999995,970.4168506999995,970.4168506999995,970.5000996000017,970.7176795999985,,,,,,,,,,,,,,,,,,,,,,down,15.531752900002175,None,space,0.2841184999997495,None,P153,001,2025-04-11_15h21.41.702,posner_endo_new1,2024.2.4,60.05717443193585,2025-04-11 15h21.48.312803 +0100,
cube_l.png,0.1,0.31,invalid,37,37,0,down,8.230087199990521,None,space,0.2580961999919964,None,,,,,,,,,0,37,37,37,970.733267299991,,,,,,,,,,,,,970.7179438000021,970.733267299991,970.733267299991,970.733267299991,978.9757970999926,,,,978.9855736999889,978.9956808999996,978.9956808999996,979.0414615999907,979.0417680999963,979.0580470999994,979.0580470999994,979.0580470999994,979.1412593999994,979.3255426999967,,,,,,,,,,,,,,,,,,,,,,down,8.230087199990521,None,space,0.2580961999919964,None,P153,001,2025-04-11_15h21.41.702,posner_endo_new1,2024.2.4,60.05717443193585,2025-04-11 15h21.48.312803 +0100,
cube_l.png,0.1,0.31,invalid,38,38,0,down,8.525659799997811,None,space,0.588029499995173,None,,,,,,,,,0,38,38,38,979.3411210999911,,,,,,,,,,,,,979.3257956000016,979.3411210999911,979.3411210999911,979.3411210999911,987.8834613999934,,,,987.8936536999972,987.9037450999895,987.9037450999895,987.9489489999978,987.949268299999,987.9655396000016,987.9655396000016,987.9655396000016,988.048729999995,988.5658134999976,,,,,,,,,,,,,,,,,,,,,,down,8.525659799997811,None,space,0.588029499995173,None,P153,001,2025-04-11_15h21.41.702,posner_endo_new1,2024.2.4,60.05717443193585,2025-04-11 15h21.48.312803 +0100,
cube_r.png,0.1,0.31,valid,39,39,0,down,8.429049800004577,None,space,0.28628369999933057,None,,,,,,,,,0,39,39,39,988.5817259999894,,,,,,,,,,,,,988.5660640999995,988.5817259999894,988.5817259999894,988.5817259999894,997.0237156999938,,,,997.0297983999917,997.0416170999961,997.0416170999961,997.0896836999891,997.0899092999898,997.106506199998,997.106506199998,997.106506199998,997.172919699995,997.4066050999973,,,,,,,,,,,,,,,,,,,,,,down,8.429049800004577,None,space,0.28628369999933057,None,P153,001,2025-04-11_15h21.41.702,posner_endo_new1,2024.2.4,60.05717443193585,2025-04-11 15h21.48.312803 +0100,
cube_l.png,0.1,0.31,invalid,40,40,0,down,7.500682300000335,None,space,0.32532490001176484,None,,,,,,,,,0,40,40,40,997.4226171999908,,,,,,,,,,,,,997.4067876999907,997.4226171999908,997.4226171999908,997.4226171999908,1004.9326747000014,,,,1004.9420753000013,1004.9518580000004,1004.9518580000004,1004.9982623999967,1004.9985183999961,1005.0147848999914,1005.0147848999914,1005.0147848999914,1005.0979702999903,1005.3484940999915,,,,,,,,,,,,,,,,,,,,,,down,7.500682300000335,None,space,0.32532490001176484,None,P153,001,2025-04-11_15h21.41.702,posner_endo_new1,2024.2.4,60.05717443193585,2025-04-11 15h21.48.312803 +0100,
cube_l.png,0.1,10,catch,41,41,0,down,6.551070000001346,None,None,,,,,,,,,,,0,41,41,41,1005.3644265999901,,,,,,,,,,,,,1005.3486802999978,1005.3644265999901,1005.3644265999901,1005.3644265999901,1011.9251724999922,,,,1011.9322747999977,1011.9439088999934,1011.9439088999934,1011.9911037999991,1011.9913409000001,1012.0076793999906,1012.0076793999906,1012.0076793999906,1012.0741430999915,1015.0050692999939,,,,1014.0889031999977,1015.020998299995,1015.020998299995,1015.020998299995,,,,,,,,,,,,,,,down,6.551070000001346,None,None,,,P153,001,2025-04-11_15h21.41.702,posner_endo_new1,2024.2.4,60.05717443193585,2025-04-11 15h21.48.312803 +0100,
cube_l.png,0.1,-0.31,valid,42,42,0,down,4.85415009999997,None,space,0.2863971000042511,None,,,,,,,,,0,42,42,42,1015.020998299995,,,,,,,,,,,,,1015.0052448999922,1015.020998299995,1015.020998299995,1015.020998299995,1019.8838199999882,,,,1019.8908305999939,1019.9024720000016,1019.9024720000016,1019.9495967999974,1019.9498346999899,1019.9661016999889,1019.9661016999889,1019.9661016999889,1020.0494603999978,1020.2666954000015,,,,,,,,,,,,,,,,,,,,,,down,4.85415009999997,None,space,0.2863971000042511,None,P153,001,2025-04-11_15h21.41.702,posner_endo_new1,2024.2.4,60.05717443193585,2025-04-11 15h21.48.312803 +0100,
cube_l.png,0.1,10,catch,43,43,0,down,8.537341500006733,None,None,,,,,,,,,,,0,43,43,43,1020.2825076000008,,,,,,,,,,,,,1020.2668866000022,1020.2825076000008,1020.2825076000008,1020.2825076000008,1028.8245647000003,,,,1028.8317429000017,1028.8432346999907,1028.8432346999907,1028.890493400002,1028.8907378000004,1028.906954399994,1028.906954399994,1028.906954399994,1028.973552999989,1031.904764699997,,,,1030.9882934999914,1031.9203999999881,1031.9203999999881,1031.9203999999881,,,,,,,,,,,,,,,down,8.537341500006733,None,None,,,P153,001,2025-04-11_15h21.41.702,posner_endo_new1,2024.2.4,60.05717443193585,2025-04-11 15h21.48.312803 +0100,
cube_l.png,0.1,0.31,invalid,44,44,0,down,6.13929370000551,None,space,0.1997962000023108,None,,,,,,,,,0,44,44,44,1031.9203999999881,,,,,,,,,,,,,1031.9051856000006,1031.9203999999881,1031.9203999999881,1031.9203999999881,1038.0655807000003,,,,1038.0771632999968,1038.08761219999,1038.08761219999,1038.1310253999982,1038.1312750999932,1038.147510900002,1038.147510900002,1038.147510900002,1038.2306821999955,1038.3482870000007,,,,,,,,,,,,,,,,,,,,,,down,6.13929370000551,None,space,0.1997962000023108,None,P153,001,2025-04-11_15h21.41.702,posner_endo_new1,2024.2.4,60.05717443193585,2025-04-11 15h21.48.312803 +0100,
cube_l.png,0.1,0.31,invalid,45,45,0,down,9.022887200000696,None,space,0.27366520000214223,None,,,,,,,,,0,45,45,45,1038.3640470999962,,,,,,,,,,,,,1038.348485999988,1038.3640470999962,1038.3640470999962,1038.3640470999962,1047.3893238000019,,,,1047.3967215000011,1047.4077057999966,1047.4077057999966,1047.454760099994,1047.455013400002,1047.4710624,1047.4710624,1047.4710624,1047.5546941999928,1047.7553595999925,,,,,,,,,,,,,,,,,,,,,,down,9.022887200000696,None,space,0.27366520000214223,None,P153,001,2025-04-11_15h21.41.702,posner_endo_new1,2024.2.4,60.05717443193585,2025-04-11 15h21.48.312803 +0100,
cube_r.png,0.1,0.31,valid,46,46,0,down,8.960140299997875,None,space,0.32477900000230875,None,,,,,,,,,0,46,46,46,1047.7710744999931,,,,,,,,,,,,,1047.755562499995,1047.7710744999931,1047.7710744999931,1047.7710744999931,1056.7460250000004,,,,1056.7536177000002,1056.7646502999996,1056.7646502999996,1056.8118845999998,1056.8124481999985,1056.8283119999978,1056.8283119999978,1056.8283119999978,1056.9115478999884,1057.163229599988,,,,,,,,,,,,,,,,,,,,,,down,8.960140299997875,None,space,0.32477900000230875,None,P153,001,2025-04-11_15h21.41.702,posner_endo_new1,2024.2.4,60.05717443193585,2025-04-11 15h21.48.312803 +0100,
cube_l.png,0.1,-0.31,valid,47,47,0,down,7.657008800000767,None,space,0.32356760000402573,None,,,,,,,,,0,47,47,47,1057.1779498999967,,,,,,,,,,,,,1057.163707899992,1057.1779498999967,1057.1779498999967,1057.1779498999967,1064.8389141999942,,,,1064.857802899991,1064.8692030999955,1064.8692030999955,1064.9036281000008,1064.904190699992,1064.9199958999961,1064.9199958999961,1064.9199958999961,1065.0032812999998,1065.2549942999904,,,,,,,,,,,,,,,,,,,,,,down,7.657008800000767,None,space,0.32356760000402573,None,P153,001,2025-04-11_15h21.41.702,posner_endo_new1,2024.2.4,60.05717443193585,2025-04-11 15h21.48.312803 +0100,
cube_r.png,0.1,-0.31,invalid,48,48,0,down,8.477305499996874,None,space,0.30732170000555925,None,,,,,,,,,0,48,48,48,1065.2696213000017,,,,,,,,,,,,,1065.2554954999941,1065.2696213000017,1065.2696213000017,1065.2696213000017,1073.7629211999883,,,,1073.7816922999918,1073.793454899991,1073.793454899991,1073.827784299996,1073.8280726999947,1073.8443773999898,1073.8443773999898,1073.8443773999898,1073.9274891999958,1074.1626663999923,,,,,,,,,,,,,,,,,,,,,,down,8.477305499996874,None,space,0.30732170000555925,None,P153,001,2025-04-11_15h21.41.702,posner_endo_new1,2024.2.4,60.05717443193585,2025-04-11 15h21.48.312803 +0100,
cube_r.png,0.1,10,catch,49,49,0,down,10.369870499998797,None,space,0.28461039999092463,None,,,,,,,,,0,49,49,49,1074.177216199998,,,,,,,,,,,,,1074.163145300001,1074.177216199998,1074.177216199998,1074.177216199998,1084.5520867000014,,,,1084.5709183,1084.5822488999984,1084.5822488999984,1084.6167205999955,1084.617073100002,1084.6332799999946,1084.6332799999946,1084.6332799999946,1084.716472,1084.9341438999982,,,,,,,,,,,,,,,,,,,,,,down,10.369870499998797,None,space,0.28461039999092463,None,P153,001,2025-04-11_15h21.41.702,posner_endo_new1,2024.2.4,60.05717443193585,2025-04-11 15h21.48.312803 +0100,
cube_l.png,0.1,-0.31,valid,50,50,0,down,9.789696699997876,None,space,0.3550588000071002,None,,,,,,,,,0,50,50,50,1084.9494949999935,,,,,,,,,,,,,1084.9344720999943,1084.9494949999935,1084.9494949999935,1084.9494949999935,1094.7410241999896,,,,1094.7526800999913,1094.7630583999999,1094.7630583999999,1094.80631,1094.80665649999,1094.8229844000016,1094.8229844000016,1094.8229844000016,1094.9061088999879,1095.190517199997,,,,,,,,,,,,,,,,,,,,,,down,9.789696699997876,None,space,0.3550588000071002,None,P153,001,2025-04-11_15h21.41.702,posner_endo_new1,2024.2.4,60.05717443193585,2025-04-11 15h21.48.312803 +0100,
cube_l.png,0.1,-0.31,valid,51,51,0,down,8.029623100010213,None,space,0.3584995999990497,None,,,,,,,,,0,51,51,51,1095.2056442999892,,,,,,,,,,,,,1095.1908050999918,1095.2056442999892,1095.2056442999892,1095.2056442999892,1103.2485573000013,,,,1103.2557424999977,1103.2669896000007,1103.2669896000007,1103.314256999991,1103.3147929999977,1103.3306441000022,1103.3306441000022,1103.3306441000022,1103.413846800002,1103.6987133999937,,,,,,,,,,,,,,,,,,,,,,down,8.029623100010213,None,space,0.3584995999990497,None,P153,001,2025-04-11_15h21.41.702,posner_endo_new1,2024.2.4,60.05717443193585,2025-04-11 15h21.48.312803 +0100,
cube_r.png,0.1,-0.31,invalid,52,52,0,down,6.881328000003123,None,space,0.356452400010312,None,,,,,,,,,0,52,52,52,1103.7135670999996,,,,,,,,,,,,,1103.6991546999925,1103.7135670999996,1103.7135670999996,1103.7135670999996,1110.6079934000009,,,,1110.619509799988,1110.629785600002,1110.629785600002,1110.6734353999927,1110.6737839999987,1110.6900033999991,1110.6900033999991,1110.6900033999991,1110.7732037999958,1111.0575248999958,,,,,,,,,,,,,,,,,,,,,,down,6.881328000003123,None,space,0.356452400010312,None,P153,001,2025-04-11_15h21.41.702,posner_endo_new1,2024.2.4,60.05717443193585,2025-04-11 15h21.48.312803 +0100,
cube_l.png,0.1,-0.31,valid,53,53,0,down,5.722934699995676,None,space,0.301118299990776,None,,,,,,,,,0,53,53,53,1111.0727891999995,,,,,,,,,,,,,1111.0578205999918,1111.0727891999995,1111.0727891999995,1111.0727891999995,1116.801747599995,,,,1116.8120165,1116.8215665999887,1116.8215665999887,1116.8670328000007,1116.8672921999969,1116.8836473999982,1116.8836473999982,1116.8836473999982,1116.9667541999952,1117.2008301999886,,,,,,,,,,,,,,,,,,,,,,down,5.722934699995676,None,space,0.301118299990776,None,P153,001,2025-04-11_15h21.41.702,posner_endo_new1,2024.2.4,60.05717443193585,2025-04-11 15h21.48.312803 +0100,
cube_r.png,0.1,10,catch,54,54,0,down,7.579160399996908,None,space,0.2567763999977615,None,,,,,,,,,0,54,54,54,1117.2166227999987,,,,,,,,,,,,,1117.2010257999937,1117.2166227999987,1117.2166227999987,1117.2166227999987,1124.809698699988,,,,1124.8168399999995,1124.8282750999933,1124.8282750999933,1124.875486799996,1124.8760313999956,1124.8919382999884,1124.8919382999884,1124.8919382999884,1124.9751230999973,1125.1603367999924,,,,,,,,,,,,,,,,,,,,,,down,7.579160399996908,None,space,0.2567763999977615,None,P153,001,2025-04-11_15h21.41.702,posner_endo_new1,2024.2.4,60.05717443193585,2025-04-11 15h21.48.312803 +0100,
cube_l.png,0.1,0.31,invalid,55,55,0,down,7.220479900002829,None,space,0.28403090000210796,None,,,,,,,,,0,55,55,55,1125.1748731999978,,,,,,,,,,,,,1125.160793099989,1125.1748731999978,1125.1748731999978,1125.1748731999978,1132.4023163999955,,,,1132.4122632999934,1132.4220204000012,1132.4220204000012,1132.467751899996,1132.4680058999948,1132.4842691999947,1132.4842691999947,1132.4842691999947,1132.5674659999931,1132.7847198999953,,,,,,,,,,,,,,,,,,,,,,down,7.220479900002829,None,space,0.28403090000210796,None,P153,001,2025-04-11_15h21.41.702,posner_endo_new1,2024.2.4,60.05717443193585,2025-04-11 15h21.48.312803 +0100,
cube_l.png,0.1,-0.31,valid,56,56,0,down,9.691445199990994,None,space,0.25863830000162125,None,,,,,,,,,0,56,56,56,1132.8007126000011,,,,,,,,,,,,,1132.784913800002,1132.8007126000011,1132.8007126000011,1132.8007126000011,1142.5082078999985,,,,1142.5152462999977,1142.5269776999921,1142.5269776999921,1142.5741494999966,1142.5743737000012,1142.5907264999987,1142.5907264999987,1142.5907264999987,1142.6572029999952,1142.8581034999952,,,,,,,,,,,,,,,,,,,,,,down,9.691445199990994,None,space,0.25863830000162125,None,P153,001,2025-04-11_15h21.41.702,posner_endo_new1,2024.2.4,60.05717443193585,2025-04-11 15h21.48.312803 +0100,
cube_r.png,0.1,0.31,valid,57,57,0,down,5.417853100007051,None,space,0.3111693999962881,None,,,,,,,,,0,57,57,57,1142.873745399993,,,,,,,,,,,,,1142.8582758999983,1142.873745399993,1142.873745399993,1142.873745399993,1148.3029342999944,,,,1148.3125020000007,1148.3222212999972,1148.3222212999972,1148.3681189999916,1148.3683571000001,1148.3849201999983,1148.3849201999983,1148.3849201999983,1148.46797659999,1148.7018905000004,,,,,,,,,,,,,,,,,,,,,,down,5.417853100007051,None,space,0.3111693999962881,None,P153,001,2025-04-11_15h21.41.702,posner_endo_new1,2024.2.4,60.05717443193585,2025-04-11 15h21.48.312803 +0100,
cube_r.png,0.1,-0.31,invalid,58,58,0,down,7.861778100006632,None,space,0.2084581000090111,None,,,,,,,,,0,58,58,58,1148.7175534999988,,,,,,,,,,,,,1148.7020805999928,1148.7175534999988,1148.7175534999988,1148.7175534999988,1156.5940407000016,,,,1156.6010252999986,1156.612694999989,1156.612694999989,1156.6596218999912,1156.6601225999912,1156.6760518999945,1156.6760518999945,1156.6760518999945,1156.7592895999987,1156.8942278999893,,,,,,,,,,,,,,,,,,,,,,down,7.861778100006632,None,space,0.2084581000090111,None,P153,001,2025-04-11_15h21.41.702,posner_endo_new1,2024.2.4,60.05717443193585,2025-04-11 15h21.48.312803 +0100,
cube_l.png,0.1,0.31,invalid,59,59,0,down,5.6704255000076955,None,space,0.3542497000016738,None,,,,,,,,,0,59,59,59,1156.9091439999902,,,,,,,,,,,,,1156.8946683999966,1156.9091439999902,1156.9091439999902,1156.9091439999902,1162.5880828999943,,,,1162.5995651999983,1162.6098465999967,1162.6098465999967,1162.6535596999893,1162.6539055999892,1162.6701377999998,1162.6701377999998,1162.6701377999998,1162.7532885999972,1163.0377331999916,,,,,,,,,,,,,,,,,,,,,,down,5.6704255000076955,None,space,0.3542497000016738,None,P153,001,2025-04-11_15h21.41.702,posner_endo_new1,2024.2.4,60.05717443193585,2025-04-11 15h21.48.312803 +0100,
