cue_img,cue_soa,target_y,trial,thisN,thisTrialN,thisRepN,key_control2.keys,key_control2.rt,key_control2.duration,key_resp.keys,key_resp.rt,key_resp.duration,practice.thisRepN,practice.thisTrialN,practice.thisN,practice.thisIndex,block1.thisRepN,block1.thisTrialN,block1.thisN,block1.thisIndex,block2.thisRepN,block2.thisTrialN,block2.thisN,block2.thisIndex,thisRow.t,notes,instructions.started,instructions_txt.started,key_control.started,instructions.stopped,key_control.keys,key_control.rt,key_control.duration,ready.started,ready_txt.started,ready_txt.stopped,ready.stopped,fix.started,fixation.started,key_control2.started,fixation_cross.started,fix.stopped,practice.key_control2.keys,practice.key_control2.rt,practice.key_control2.duration,cue.started,cube.started,fixation_cross_cue.started,cue.stopped,target.started,fixation_target.started,fixation_cross_target.started,key_resp.started,star.started,target.stopped,practice.key_resp.keys,practice.key_resp.rt,practice.key_resp.duration,star.stopped,fixation_target.stopped,fixation_cross_target.stopped,key_resp.stopped,block1.key_control2.keys,block1.key_control2.rt,block1.key_control2.duration,block1.key_resp.keys,block1.key_resp.rt,block1.key_resp.duration,break_2.started,text.started,key_control3.started,text.stopped,break_2.stopped,key_control3.keys,key_control3.rt,key_control3.duration,block2.key_control2.keys,block2.key_control2.rt,block2.key_control2.duration,block2.key_resp.keys,block2.key_resp.rt,block2.key_resp.duration,participant,session,date,expName,psychopyVersion,frameRate,expStart,
,,,,,,,,,,,,,,,,,,,,,,,,,,,0.007602600002428517,0.028524900000775233,0.028524900000775233,1.2485490000108257,up,1.1935714999999618,None,,,,,,,,,,,,,,,,,,,,,,,,,,,,,,,,,,,,,,,,,,,,,,,,,,P154,001,2025-04-11_16h17.45.160,posner_endo_new1,2024.2.4,60.014175347863436,2025-04-11 16h17.51.565638 +0100,
,,,,,,,,,,,,,,,,,,,,,,,,,,,,,,,,,,1.2487076000106754,1.25951800000621,4.275783000004594,4.2441267000103835,,,,,,,,,,,,,,,,,,,,,,,,,,,,,,,,,,,,,,,,,,,,,,P154,001,2025-04-11_16h17.45.160,posner_endo_new1,2024.2.4,60.014175347863436,2025-04-11 16h17.51.565638 +0100,
cube_l.png,0.1,0.31,invalid,0,0,0,up,34.16212580000865,None,space,0.450134300001082,None,0,0,0,5,,,,,,,,,4.275783000004594,,,,,,,,,,,,,4.261596700001974,4.275783000004594,4.275783000004594,4.275783000004594,38.4428634000069,up,34.16212580000865,None,38.45773310000368,38.468104800005676,38.468104800005676,38.508227900005295,38.508472500005155,38.52497270000458,38.52497270000458,38.52497270000458,38.60797380001168,38.992279800004326,space,0.450134300001082,None,,,,,,,,,,,,,,,,,,,,,,,,,P154,001,2025-04-11_16h17.45.160,posner_endo_new1,2024.2.4,60.014175347863436,2025-04-11 16h17.51.565638 +0100,
cube_r.png,0.1,-0.31,invalid,1,1,0,up,8.582013799998094,None,space,0.35514400000101887,None,0,1,1,2,,,,,,,,,39.007666800011066,,,,,,,,,,,,,38.9924949999986,39.007666800011066,39.007666800011066,39.007666800011066,47.59981150001113,up,8.582013799998094,None,47.60946669999976,47.61924550001277,47.61924550001277,47.665605400005006,47.66589300001215,47.682470400002785,47.682470400002785,47.682470400002785,47.76529580001079,48.04935660000774,space,0.35514400000101887,None,,,,,,,,,,,,,,,,,,,,,,,,,P154,001,2025-04-11_16h17.45.160,posner_endo_new1,2024.2.4,60.014175347863436,2025-04-11 16h17.51.565638 +0100,
cube_r.png,0.1,0.31,valid,2,2,0,up,6.276412300008815,None,space,0.46093120001023635,None,0,2,2,7,,,,,,,,,48.06494360000943,,,,,,,,,,,,,48.049589600006584,48.06494360000943,48.06494360000943,48.06494360000943,54.3429843000049,up,6.276412300008815,None,54.352164000010816,54.36223660000542,54.36223660000542,54.40886720000708,54.40915270001278,54.425264100005734,54.425264100005734,54.425264100005734,54.50856190000195,54.89265510000405,space,0.46093120001023635,None,,,,,,,,,,,,,,,,,,,,,,,,,P154,001,2025-04-11_16h17.45.160,posner_endo_new1,2024.2.4,60.014175347863436,2025-04-11 16h17.51.565638 +0100,
cube_l.png,0.1,-0.31,valid,3,3,0,up,4.545469299991964,None,space,0.3206995999935316,None,0,3,3,8,,,,,,,,,54.90815120001207,,,,,,,,,,,,,54.892868300012196,54.90815120001207,54.90815120001207,54.90815120001207,59.454598800002714,up,4.545469299991964,None,59.4640905999986,59.47425520000979,59.47425520000979,59.52050510000845,59.520791700007976,59.53687410001294,59.53687410001294,59.53687410001294,59.61981580000429,59.870940699998755,space,0.3206995999935316,None,,,,,,,,,,,,,,,,,,,,,,,,,P154,001,2025-04-11_16h17.45.160,posner_endo_new1,2024.2.4,60.014175347863436,2025-04-11 16h17.51.565638 +0100,
cube_r.png,0.1,0.31,valid,4,4,0,up,5.32675009999366,None,space,0.3839978999894811,None,0,4,4,10,,,,,,,,,59.88674000000174,,,,,,,,,,,,,59.87115370000538,59.88674000000174,59.88674000000174,59.88674000000174,65.21552310000698,up,5.32675009999366,None,65.22456600000442,65.2345442000078,65.2345442000078,65.28135190000467,65.28190010000253,65.29775650000374,65.29775650000374,65.29775650000374,65.38099520000105,65.69914870000503,space,0.3839978999894811,None,,,,,,,,,,,,,,,,,,,,,,,,,P154,001,2025-04-11_16h17.45.160,posner_endo_new1,2024.2.4,60.014175347863436,2025-04-11 16h17.51.565638 +0100,
cube_r.png,0.1,-0.31,invalid,5,5,0,up,7.315867900004378,None,space,0.3371447999961674,None,0,5,5,9,,,,,,,,,65.71397419999994,,,,,,,,,,,,,65.69959790000576,65.71397419999994,65.71397419999994,65.71397419999994,73.04104780001217,up,7.315867900004378,None,73.05274780000036,73.06302739999956,73.06302739999956,73.10664560001169,73.10699480000767,73.12289130000863,73.12289130000863,73.12289130000863,73.20600970000669,73.47346560000733,space,0.3371447999961674,None,,,,,,,,,,,,,,,,,,,,,,,,,P154,001,2025-04-11_16h17.45.160,posner_endo_new1,2024.2.4,60.014175347863436,2025-04-11 16h17.51.565638 +0100,
cube_l.png,0.1,-0.31,valid,6,6,0,up,8.916356299989275,None,space,0.5669666000030702,None,0,6,6,0,,,,,,,,,73.489416299999,,,,,,,,,,,,,73.47372940000787,73.489416299999,73.489416299999,73.489416299999,82.41459600000235,up,8.916356299989275,None,82.42629800000577,82.43644100001256,82.43644100001256,82.48017540000728,82.48051520000445,82.49675099999877,82.49675099999877,82.49675099999877,82.58001820000936,83.08028040001227,space,0.5669666000030702,None,,,,,,,,,,,,,,,,,,,,,,,,,P154,001,2025-04-11_16h17.45.160,posner_endo_new1,2024.2.4,60.014175347863436,2025-04-11 16h17.51.565638 +0100,
cube_r.png,0.1,-0.31,invalid,7,7,0,up,7.085294000004069,None,space,0.34609740000450984,None,0,7,7,6,,,,,,,,,83.09621260000858,,,,,,,,,,,,,83.08054830000037,83.09621260000858,83.09621260000858,83.09621260000858,90.18991280000773,up,7.085294000004069,None,90.20168680000643,90.21184570000332,90.21184570000332,90.25542500001029,90.25576540001202,90.27227430000494,90.27227430000494,90.27227430000494,90.35514660000626,90.62282580000465,space,0.34609740000450984,None,,,,,,,,,,,,,,,,,,,,,,,,,P154,001,2025-04-11_16h17.45.160,posner_endo_new1,2024.2.4,60.014175347863436,2025-04-11 16h17.51.565638 +0100,
cube_r.png,0.1,10,catch,8,8,0,up,9.223508300012327,None,None,,,0,8,8,3,,,,,,,,,90.63860380000551,,,,,,,,,,,,,90.62309250001272,90.63860380000551,90.63860380000551,90.63860380000551,99.86347080000269,up,9.223508300012327,None,99.87523510000028,99.88548860000446,99.88548860000446,99.92919160000747,99.92953400000988,99.94567300000926,99.94567300000926,99.94567300000926,100.02883300000394,102.94328510000196,None,,,102.04316390000167,102.95893069999875,102.95893069999875,102.95893069999875,,,,,,,,,,,,,,,,,,,,,P154,001,2025-04-11_16h17.45.160,posner_endo_new1,2024.2.4,60.014175347863436,2025-04-11 16h17.51.565638 +0100,
cube_l.png,0.1,-0.31,valid,9,9,0,up,3.83111060000374,None,space,0.35833020000427496,None,0,9,9,4,,,,,,,,,102.95893069999875,,,,,,,,,,,,,102.94353630000842,102.95893069999875,102.95893069999875,102.95893069999875,106.80655110000225,up,3.83111060000374,None,106.81832040000882,106.82857440000225,106.82857440000225,106.8721518000093,106.87249610001163,106.8884839000093,106.8884839000093,106.8884839000093,106.97193800000241,107.25582210000721,space,0.35833020000427496,None,,,,,,,,,,,,,,,,,,,,,,,,,P154,001,2025-04-11_16h17.45.160,posner_endo_new1,2024.2.4,60.014175347863436,2025-04-11 16h17.51.565638 +0100,
cube_l.png,0.1,0.31,invalid,10,10,0,up,7.693991499996628,None,space,0.4419526000128826,None,0,10,10,1,,,,,,,,,107.27146500001254,,,,,,,,,,,,,107.25608590000775,107.27146500001254,107.27146500001254,107.27146500001254,114.9825009000051,up,7.693991499996628,None,115.0060308000102,115.01724640000612,115.01724640000612,115.04659500000707,115.04698040000221,115.06307680001191,115.06307680001191,115.06307680001191,115.14629780000541,115.51407870001276,space,0.4419526000128826,None,,,,,,,,,,,,,,,,,,,,,,,,,P154,001,2025-04-11_16h17.45.160,posner_endo_new1,2024.2.4,60.014175347863436,2025-04-11 16h17.51.565638 +0100,
,,,,,,,,,,,,,,,,,,,,,,,,,,,,,,,,,,115.51428300001135,115.52953740001249,118.55147410000791,118.5105762000021,,,,,,,,,,,,,,,,,,,,,,,,,,,,,,,,,,,,,,,,,,,,,,P154,001,2025-04-11_16h17.45.160,posner_endo_new1,2024.2.4,60.014175347863436,2025-04-11 16h17.51.565638 +0100,
cube_l.png,0.1,10,catch,0,0,0,up,10.574210899998434,None,None,,,,,,,0,0,0,0,,,,,118.55147410000791,,,,,,,,,,,,,118.5408591000014,118.55147410000791,118.55147410000791,118.55147410000791,129.13499530000263,,,,129.1585320000013,129.17062770000484,129.17062770000484,129.19883360000676,129.1992226000002,129.21589370000584,129.21589370000584,129.21589370000584,129.2990814000077,132.21426520000387,,,,131.3137066000054,132.22951080001076,132.22951080001076,132.22951080001076,up,10.574210899998434,None,None,,,,,,,,,,,,,,,,,P154,001,2025-04-11_16h17.45.160,posner_endo_new1,2024.2.4,60.014175347863436,2025-04-11 16h17.51.565638 +0100,
cube_l.png,0.1,10,catch,1,1,0,up,2.6720233999949414,None,None,,,,,,,0,1,1,1,,,,,132.22951080001076,,,,,,,,,,,,,132.21480770000198,132.22951080001076,132.22951080001076,132.22951080001076,134.912456200007,,,,134.93289140000707,134.943016300007,134.943016300007,134.9762890000129,134.9766793000017,134.9926916000113,134.9926916000113,134.9926916000113,135.0760861000017,137.9906622000126,,,,137.0909329999995,138.00636480000685,138.00636480000685,138.00636480000685,up,2.6720233999949414,None,None,,,,,,,,,,,,,,,,,P154,001,2025-04-11_16h17.45.160,posner_endo_new1,2024.2.4,60.014175347863436,2025-04-11 16h17.51.565638 +0100,
cube_l.png,0.1,0.31,invalid,2,2,0,up,4.183536699987599,None,space,0.4121350000059465,None,,,,,0,2,2,2,,,,,138.00636480000685,,,,,,,,,,,,,137.99085080000805,138.00636480000685,138.00636480000685,138.00636480000685,142.20291990000987,,,,142.21079520000785,142.2219630000036,142.2219630000036,142.26921420000144,142.26975700000185,142.28560210000433,142.28560210000433,142.28560210000433,142.3522004000115,142.70390469999984,,,,,,,,up,4.183536699987599,None,space,0.4121350000059465,None,,,,,,,,,,,,,,,P154,001,2025-04-11_16h17.45.160,posner_endo_new1,2024.2.4,60.014175347863436,2025-04-11 16h17.51.565638 +0100,
cube_l.png,0.1,0.31,invalid,3,3,0,up,5.8469894000008935,None,space,0.4445636000018567,None,,,,,0,3,3,3,,,,,142.71852160000708,,,,,,,,,,,,,142.70436250000785,142.71852160000708,142.71852160000708,142.71852160000708,148.5811415000062,,,,148.6000042000087,148.6115385000012,148.6115385000012,148.6458624000079,148.64614540000912,148.66207440001017,148.66207440001017,148.66207440001017,148.74535510000715,149.1127974000119,,,,,,,,up,5.8469894000008935,None,space,0.4445636000018567,None,,,,,,,,,,,,,,,P154,001,2025-04-11_16h17.45.160,posner_endo_new1,2024.2.4,60.014175347863436,2025-04-11 16h17.51.565638 +0100,
cube_l.png,0.1,-0.31,valid,4,4,0,up,6.469279800003278,None,space,0.41136999998707324,None,,,,,0,4,4,4,,,,,149.12860550000914,,,,,,,,,,,,,149.1130234000011,149.12860550000914,149.12860550000914,149.12860550000914,155.6074643000029,,,,155.62643160000152,155.6381071000069,155.6381071000069,155.6719771000062,155.67227990001265,155.68843690000358,155.68843690000358,155.68843690000358,155.77191820000007,156.1058638000104,,,,,,,,up,6.469279800003278,None,space,0.41136999998707324,None,,,,,,,,,,,,,,,P154,001,2025-04-11_16h17.45.160,posner_endo_new1,2024.2.4,60.014175347863436,2025-04-11 16h17.51.565638 +0100,
cube_r.png,0.1,-0.31,invalid,5,5,0,up,7.963981200009584,None,space,0.4076640999992378,None,,,,,0,5,5,5,,,,,156.12135200000193,,,,,,,,,,,,,156.10611130000325,156.12135200000193,156.12135200000193,156.12135200000193,164.09746420000738,,,,164.1072203000076,164.1176184000069,164.1176184000069,164.1631536000059,164.16346229999908,164.17971330000728,164.17971330000728,164.17971330000728,164.2631177000003,164.59795760000998,,,,,,,,up,7.963981200009584,None,space,0.4076640999992378,None,,,,,,,,,,,,,,,P154,001,2025-04-11_16h17.45.160,posner_endo_new1,2024.2.4,60.014175347863436,2025-04-11 16h17.51.565638 +0100,
cube_r.png,0.1,0.31,valid,6,6,0,up,6.481406800012337,None,space,0.3435792000091169,None,,,,,0,6,6,6,,,,,164.61275410000235,,,,,,,,,,,,,164.5984243999992,164.61275410000235,164.61275410000235,164.61275410000235,171.10792610001226,,,,171.12714960001176,171.13853920000838,171.13853920000838,171.17268139999942,171.17303119999997,171.18936160000158,171.18936160000158,171.18936160000158,171.27259250001225,171.54015680000884,,,,,,,,up,6.481406800012337,None,space,0.3435792000091169,None,,,,,,,,,,,,,,,P154,001,2025-04-11_16h17.45.160,posner_endo_new1,2024.2.4,60.014175347863436,2025-04-11 16h17.51.565638 +0100,
cube_r.png,0.1,-0.31,invalid,7,7,0,up,17.27365329999884,None,space,0.43093050000607036,None,,,,,0,7,7,7,,,,,171.55562910001026,,,,,,,,,,,,,171.54043770000862,171.55562910001026,171.55562910001026,171.55562910001026,188.8390650000074,,,,188.85080160001235,188.86092330000247,188.86092330000247,188.90439720000722,188.9047491000092,188.92109410000558,188.92109410000558,188.92109410000558,189.00453820000985,189.35540080000646,,,,,,,,up,17.27365329999884,None,space,0.43093050000607036,None,,,,,,,,,,,,,,,P154,001,2025-04-11_16h17.45.160,posner_endo_new1,2024.2.4,60.014175347863436,2025-04-11 16h17.51.565638 +0100,
cube_l.png,0.1,-0.31,valid,8,8,0,up,6.2668981999886455,None,space,0.4189562000101432,None,,,,,0,8,8,8,,,,,189.37091100000544,,,,,,,,,,,,,189.35568940000667,189.37091100000544,189.37091100000544,189.37091100000544,195.6489411000075,,,,195.66071809999994,195.67112270000507,195.67112270000507,195.7140788000106,195.71443510000245,195.7309660000028,195.7309660000028,195.7309660000028,195.81389489999856,196.16469499999948,,,,,,,,up,6.2668981999886455,None,space,0.4189562000101432,None,,,,,,,,,,,,,,,P154,001,2025-04-11_16h17.45.160,posner_endo_new1,2024.2.4,60.014175347863436,2025-04-11 16h17.51.565638 +0100,
cube_r.png,0.1,-0.31,invalid,9,9,0,up,6.185434400002123,None,space,0.3493348000047263,None,,,,,0,9,9,9,,,,,196.18040580001252,,,,,,,,,,,,,196.164989900004,196.18040580001252,196.18040580001252,196.18040580001252,202.3752433000045,,,,202.38700020000397,202.3972414000018,202.3972414000018,202.44096810001065,202.44122570000764,202.45714959999896,202.45714959999896,202.45714959999896,202.54048440000042,202.80819920000795,,,,,,,,up,6.185434400002123,None,space,0.3493348000047263,None,,,,,,,,,,,,,,,P154,001,2025-04-11_16h17.45.160,posner_endo_new1,2024.2.4,60.014175347863436,2025-04-11 16h17.51.565638 +0100,
cube_l.png,0.1,0.31,invalid,10,10,0,up,37.71766460000072,None,space,0.40100230000098236,None,,,,,0,10,10,10,,,,,202.82370810001157,,,,,,,,,,,,,202.80848920000426,202.82370810001157,202.82370810001157,202.82370810001157,240.5527970000112,,,,240.56288530000893,240.5729788000026,240.5729788000026,240.61886400000367,240.61959940000088,240.63522390001162,240.63522390001162,240.63522390001162,240.7184552000108,241.05355789999885,,,,,,,,up,37.71766460000072,None,space,0.40100230000098236,None,,,,,,,,,,,,,,,P154,001,2025-04-11_16h17.45.160,posner_endo_new1,2024.2.4,60.014175347863436,2025-04-11 16h17.51.565638 +0100,
cube_r.png,0.1,-0.31,invalid,11,11,0,up,6.041128199998639,None,space,0.38214900001185015,None,,,,,0,11,11,11,,,,,241.06812980001268,,,,,,,,,,,,,241.05414750000637,241.06812980001268,241.06812980001268,241.06812980001268,247.11434830000508,,,,247.13459660000808,247.1450662999996,247.1450662999996,247.1782702000055,247.1787047000107,247.19471799999883,247.19471799999883,247.19471799999883,247.2779145000095,247.57914729999902,,,,,,,,up,6.041128199998639,None,space,0.38214900001185015,None,,,,,,,,,,,,,,,P154,001,2025-04-11_16h17.45.160,posner_endo_new1,2024.2.4,60.014175347863436,2025-04-11 16h17.51.565638 +0100,
cube_r.png,0.1,0.31,valid,12,12,0,up,5.899156600004062,None,space,0.45734240001183935,None,,,,,0,12,12,12,,,,,247.59460010001203,,,,,,,,,,,,,247.579390400002,247.59460010001203,247.59460010001203,247.59460010001203,253.50587700000324,,,,253.51582690000942,253.52611940000497,253.52611940000497,253.57162020000396,253.57194460000028,253.58824750001077,253.58824750001077,253.58824750001077,253.65492060000543,254.05549840000458,,,,,,,,up,5.899156600004062,None,space,0.45734240001183935,None,,,,,,,,,,,,,,,P154,001,2025-04-11_16h17.45.160,posner_endo_new1,2024.2.4,60.014175347863436,2025-04-11 16h17.51.565638 +0100,
cube_l.png,0.1,10,catch,13,13,0,up,8.822729200008325,None,None,,,,,,,0,13,13,13,,,,,254.07125030001043,,,,,,,,,,,,,254.0557545000047,254.07125030001043,254.07125030001043,254.07125030001043,262.8967988000077,,,,262.9073829000117,262.9173671000026,262.9173671000026,262.96230730001116,262.9626228999987,262.9784714999987,262.9784714999987,262.9784714999987,263.06177710001066,265.9760846999998,,,,265.07683660001203,265.99206220000633,265.99206220000633,265.99206220000633,up,8.822729200008325,None,None,,,,,,,,,,,,,,,,,P154,001,2025-04-11_16h17.45.160,posner_endo_new1,2024.2.4,60.014175347863436,2025-04-11 16h17.51.565638 +0100,
cube_r.png,0.1,-0.31,invalid,14,14,0,up,4.509190900003887,None,space,0.47864519999711774,None,,,,,0,14,14,14,,,,,265.99206220000633,,,,,,,,,,,,,265.9763332000002,265.99206220000633,265.99206220000633,265.99206220000633,270.5052078000008,,,,270.5153416000103,270.525664700006,270.525664700006,270.5707240000047,270.57103850001295,270.58737400000973,270.58737400000973,270.58737400000973,270.67060850000416,271.0713146000053,,,,,,,,up,4.509190900003887,None,space,0.47864519999711774,None,,,,,,,,,,,,,,,P154,001,2025-04-11_16h17.45.160,posner_endo_new1,2024.2.4,60.014175347863436,2025-04-11 16h17.51.565638 +0100,
cube_l.png,0.1,-0.31,valid,15,15,0,up,5.823034300003201,None,space,0.4561022999987472,None,,,,,0,15,15,15,,,,,271.0868524000107,,,,,,,,,,,,,271.0715687000047,271.0868524000107,271.0868524000107,271.0868524000107,276.9154961000022,,,,276.9235747000057,276.9341521000024,276.9341521000024,276.98131270000886,276.9818257000006,276.9977332000126,276.9977332000126,276.9977332000126,277.08100540000305,277.465288300009,,,,,,,,up,5.823034300003201,None,space,0.4561022999987472,None,,,,,,,,,,,,,,,P154,001,2025-04-11_16h17.45.160,posner_endo_new1,2024.2.4,60.014175347863436,2025-04-11 16h17.51.565638 +0100,
cube_r.png,0.1,10,catch,16,16,0,up,6.548874500003876,None,None,,,,,,,0,16,16,16,,,,,277.48063420000835,,,,,,,,,,,,,277.4655812000128,277.48063420000835,277.48063420000835,277.48063420000835,284.04145340000105,,,,284.05320150000625,284.063527300008,284.063527300008,284.1073241000122,284.10768450000614,284.12357360000897,284.12357360000897,284.12357360000897,284.20705380001164,287.12127709999913,,,,286.2216320000007,287.1372862999997,287.1372862999997,287.1372862999997,up,6.548874500003876,None,None,,,,,,,,,,,,,,,,,P154,001,2025-04-11_16h17.45.160,posner_endo_new1,2024.2.4,60.014175347863436,2025-04-11 16h17.51.565638 +0100,
cube_r.png,0.1,10,catch,17,17,0,up,4.3005859999975655,None,None,,,,,,,0,17,17,17,,,,,287.1372862999997,,,,,,,,,,,,,287.12155580001127,287.1372862999997,287.1372862999997,287.1372862999997,291.45068930000707,,,,291.4625149000058,291.4727617000026,291.4727617000026,291.5164694000123,291.51683069999854,291.53274200001033,291.53274200001033,291.53274200001033,291.615879200006,294.53061820000585,,,,293.63066880000406,294.5465334000037,294.5465334000037,294.5465334000037,up,4.3005859999975655,None,None,,,,,,,,,,,,,,,,,P154,001,2025-04-11_16h17.45.160,posner_endo_new1,2024.2.4,60.014175347863436,2025-04-11 16h17.51.565638 +0100,
cube_l.png,0.1,0.31,invalid,18,18,0,up,4.074735000001965,None,space,0.5084955000056652,None,,,,,0,18,18,18,,,,,294.5465334000037,,,,,,,,,,,,,294.5308867999993,294.5465334000037,294.5465334000037,294.5465334000037,298.6265254000027,,,,298.63832700000785,298.64865909999935,298.64865909999935,298.6920869000023,298.69245310001133,298.70858210000733,298.70858210000733,298.70858210000733,298.7921204000013,299.2262561000098,,,,,,,,up,4.074735000001965,None,space,0.5084955000056652,None,,,,,,,,,,,,,,,P154,001,2025-04-11_16h17.45.160,posner_endo_new1,2024.2.4,60.014175347863436,2025-04-11 16h17.51.565638 +0100,
cube_l.png,0.1,10,catch,19,19,0,up,7.067594600011944,None,None,,,,,,,0,19,19,19,,,,,299.2416890000022,,,,,,,,,,,,,299.2265446000092,299.2416890000022,299.2416890000022,299.2416890000022,306.3183047000057,,,,306.3258763000049,306.33720380000887,306.33720380000887,306.384527400005,306.3850422000105,306.40100680000614,306.40100680000614,306.40100680000614,306.4675319000089,309.3985391000024,,,,308.48226160000195,309.4142653000017,309.4142653000017,309.4142653000017,up,7.067594600011944,None,None,,,,,,,,,,,,,,,,,P154,001,2025-04-11_16h17.45.160,posner_endo_new1,2024.2.4,60.014175347863436,2025-04-11 16h17.51.565638 +0100,
cube_l.png,0.1,0.31,invalid,20,20,0,up,2.182979000004707,None,space,0.41985060001024976,None,,,,,0,20,20,20,,,,,309.4142653000017,,,,,,,,,,,,,309.39882200000284,309.4142653000017,309.4142653000017,309.4142653000017,311.6133327999996,,,,311.62485240001115,311.63511650000873,311.63511650000873,311.6791082999989,311.67946840000513,311.6952875999996,311.6952875999996,311.6952875999996,311.77878160000546,312.1294373000128,,,,,,,,up,2.182979000004707,None,space,0.41985060001024976,None,,,,,,,,,,,,,,,P154,001,2025-04-11_16h17.45.160,posner_endo_new1,2024.2.4,60.014175347863436,2025-04-11 16h17.51.565638 +0100,
cube_l.png,0.1,-0.31,valid,21,21,0,up,8.324689000000944,None,space,0.4203064000030281,None,,,,,0,21,21,21,,,,,312.14485609999974,,,,,,,,,,,,,312.1297276000114,312.14485609999974,312.14485609999974,312.14485609999974,320.471108800004,,,,320.4818849000003,320.4913321000058,320.4913321000058,320.5364169000095,320.53664790000767,320.55326430000423,320.55326430000423,320.55326430000423,320.63597620000655,320.98796330000914,,,,,,,,up,8.324689000000944,None,space,0.4203064000030281,None,,,,,,,,,,,,,,,P154,001,2025-04-11_16h17.45.160,posner_endo_new1,2024.2.4,60.014175347863436,2025-04-11 16h17.51.565638 +0100,
cube_r.png,0.1,0.31,valid,22,22,0,up,4.955028399999719,None,space,0.5994818999897689,None,,,,,0,22,22,22,,,,,321.0027490000066,,,,,,,,,,,,,320.98842460000014,321.0027490000066,321.0027490000066,321.0027490000066,325.9664003000071,,,,325.98536020000756,325.9966921000014,325.9966921000014,326.030668300009,326.03098460000183,326.04709600000933,326.04709600000933,326.04709600000933,326.13079220001237,326.64785610001127,,,,,,,,up,4.955028399999719,None,space,0.5994818999897689,None,,,,,,,,,,,,,,,P154,001,2025-04-11_16h17.45.160,posner_endo_new1,2024.2.4,60.014175347863436,2025-04-11 16h17.51.565638 +0100,
cube_r.png,0.1,-0.31,invalid,23,23,0,up,6.590645399992354,None,space,0.42346720000205096,None,,,,,0,23,23,23,,,,,326.6633118000027,,,,,,,,,,,,,326.64810760000546,326.6633118000027,326.6633118000027,326.6633118000027,333.2588536000112,,,,333.2779015999986,333.28930930000206,333.28930930000206,333.32353140000487,333.32385280000744,333.3401889000088,333.3401889000088,333.3401889000088,333.4233968000044,333.773757700008,,,,,,,,up,6.590645399992354,None,space,0.42346720000205096,None,,,,,,,,,,,,,,,P154,001,2025-04-11_16h17.45.160,posner_endo_new1,2024.2.4,60.014175347863436,2025-04-11 16h17.51.565638 +0100,
cube_r.png,0.1,0.31,valid,24,24,0,up,7.312664800003404,None,space,0.45128740000654943,None,,,,,0,24,24,24,,,,,333.7893761000014,,,,,,,,,,,,,333.7740091000014,333.7893761000014,333.7893761000014,333.7893761000014,341.1176326999994,,,,341.1365611000074,341.1479158000002,341.1479158000002,341.1823863000027,341.1826984000072,341.19837410000036,341.19837410000036,341.19837410000036,341.2816824000038,341.666072100008,,,,,,,,up,7.312664800003404,None,space,0.45128740000654943,None,,,,,,,,,,,,,,,P154,001,2025-04-11_16h17.45.160,posner_endo_new1,2024.2.4,60.014175347863436,2025-04-11 16h17.51.565638 +0100,
cube_r.png,0.1,-0.31,invalid,25,25,0,up,6.387998699996388,None,space,0.3782951999892248,None,,,,,0,25,25,25,,,,,341.6814316000091,,,,,,,,,,,,,341.66631650000636,341.6814316000091,341.6814316000091,341.6814316000091,348.0771056000085,,,,348.0960644000006,348.10738790000323,348.10738790000323,348.14191190000565,348.1422576000041,348.1579195000086,348.1579195000086,348.1579195000086,348.2415020000044,348.54261699999915,,,,,,,,up,6.387998699996388,None,space,0.3782951999892248,None,,,,,,,,,,,,,,,P154,001,2025-04-11_16h17.45.160,posner_endo_new1,2024.2.4,60.014175347863436,2025-04-11 16h17.51.565638 +0100,
cube_l.png,0.1,-0.31,valid,26,26,0,up,6.800760400001309,None,space,0.31808640000235755,None,,,,,0,26,26,26,,,,,348.55747220000194,,,,,,,,,,,,,348.5429062000039,348.55747220000194,348.55747220000194,348.55747220000194,355.368678800005,,,,355.38035740000487,355.39057670001057,355.39057670001057,355.4341698000062,355.4345132000017,355.4508819000039,355.4508819000039,355.4508819000039,355.5338174000062,355.7851914000057,,,,,,,,up,6.800760400001309,None,space,0.31808640000235755,None,,,,,,,,,,,,,,,P154,001,2025-04-11_16h17.45.160,posner_endo_new1,2024.2.4,60.014175347863436,2025-04-11 16h17.51.565638 +0100,
cube_r.png,0.1,0.31,valid,27,27,0,up,6.261685399993439,None,space,0.3392277999955695,None,,,,,0,27,27,27,,,,,355.80018240000936,,,,,,,,,,,,,355.7854731000116,355.80018240000936,355.80018240000936,355.80018240000936,362.0786259000015,,,,362.0903137999994,362.1002249000012,362.1002249000012,362.1438773000118,362.14422490001016,362.1605683000089,362.1605683000089,362.1605683000089,362.24364340001193,362.5115280000027,,,,,,,,up,6.261685399993439,None,space,0.3392277999955695,None,,,,,,,,,,,,,,,P154,001,2025-04-11_16h17.45.160,posner_endo_new1,2024.2.4,60.014175347863436,2025-04-11 16h17.51.565638 +0100,
cube_r.png,0.1,10,catch,28,28,0,up,6.414408399999957,None,None,,,,,,,0,28,28,28,,,,,362.5268447999988,,,,,,,,,,,,,362.5118206000043,362.5268447999988,362.5268447999988,362.5268447999988,368.9547467000084,,,,368.9635268999991,368.9734143000096,368.9734143000096,369.02046100000734,369.0206864000065,369.0368518000032,369.0368518000032,369.0368518000032,369.1034287000075,372.03539970000566,,,,371.1183607999992,372.05070479999995,372.05070479999995,372.05070479999995,up,6.414408399999957,None,None,,,,,,,,,,,,,,,,,P154,001,2025-04-11_16h17.45.160,posner_endo_new1,2024.2.4,60.014175347863436,2025-04-11 16h17.51.565638 +0100,
cube_r.png,0.1,0.31,valid,29,29,0,up,4.643137299994123,None,space,0.5369946999999229,None,,,,,0,29,29,29,,,,,372.05070479999995,,,,,,,,,,,,,372.0359204000124,372.05070479999995,372.05070479999995,372.05070479999995,376.6986385000055,,,,376.72218590001285,376.7347496000002,376.7347496000002,376.76206910000474,376.7624094000057,376.778595900003,376.778595900003,376.778595900003,376.86214910000854,377.3296212999994,,,,,,,,up,4.643137299994123,None,space,0.5369946999999229,None,,,,,,,,,,,,,,,P154,001,2025-04-11_16h17.45.160,posner_endo_new1,2024.2.4,60.014175347863436,2025-04-11 16h17.51.565638 +0100,
cube_r.png,0.1,0.31,valid,30,30,0,up,7.341382099999464,None,space,0.39193759999761824,None,,,,,0,30,30,30,,,,,377.3446983000031,,,,,,,,,,,,,377.3298966000002,377.3446983000031,377.3446983000031,377.3446983000031,384.6906921000045,,,,384.71270170000207,384.72323000000324,384.72323000000324,384.75406900000235,384.75453500000003,384.7706009000103,384.7706009000103,384.7706009000103,384.85378070001025,385.1714420000062,,,,,,,,up,7.341382099999464,None,space,0.39193759999761824,None,,,,,,,,,,,,,,,P154,001,2025-04-11_16h17.45.160,posner_endo_new1,2024.2.4,60.014175347863436,2025-04-11 16h17.51.565638 +0100,
cube_l.png,0.1,-0.31,valid,31,31,0,up,6.115318500000285,None,space,0.36254440000629984,None,,,,,0,31,31,31,,,,,385.1866521000047,,,,,,,,,,,,,385.17168350001157,385.1866521000047,385.1866521000047,385.1866521000047,391.3148191000073,,,,391.32380840000405,391.3340270000044,391.3340270000044,391.38102210000216,391.38157660000434,391.3974077000021,391.3974077000021,391.3974077000021,391.46399460000976,391.7659612999996,,,,,,,,up,6.115318500000285,None,space,0.36254440000629984,None,,,,,,,,,,,,,,,P154,001,2025-04-11_16h17.45.160,posner_endo_new1,2024.2.4,60.014175347863436,2025-04-11 16h17.51.565638 +0100,
cube_r.png,0.1,0.31,valid,32,32,0,up,7.297787900010007,None,space,0.408778800003347,None,,,,,0,32,32,32,,,,,391.7803089000081,,,,,,,,,,,,,391.76642540001194,391.7803089000081,391.7803089000081,391.7803089000081,399.09149679999973,,,,399.1099263000069,399.1196007000108,399.1196007000108,399.1557982000086,399.15611999999965,399.1722826000041,399.1722826000041,399.1722826000041,399.2558350000036,399.58964010000636,,,,,,,,up,7.297787900010007,None,space,0.408778800003347,None,,,,,,,,,,,,,,,P154,001,2025-04-11_16h17.45.160,posner_endo_new1,2024.2.4,60.014175347863436,2025-04-11 16h17.51.565638 +0100,
cube_r.png,0.1,-0.31,invalid,33,33,0,up,7.520070900005521,None,space,0.36578219999501016,None,,,,,0,33,33,33,,,,,399.6055660999991,,,,,,,,,,,,,399.58989510001265,399.6055660999991,399.6055660999991,399.6055660999991,407.13323469999887,,,,407.15201240000897,407.16344040000695,407.16344040000695,407.19814820001193,407.19875460000185,407.2145290000044,407.2145290000044,407.2145290000044,407.2978238000069,407.5829754000006,,,,,,,,up,7.520070900005521,None,space,0.36578219999501016,None,,,,,,,,,,,,,,,P154,001,2025-04-11_16h17.45.160,posner_endo_new1,2024.2.4,60.014175347863436,2025-04-11 16h17.51.565638 +0100,
cube_r.png,0.1,10,catch,34,34,0,up,9.288732499990147,None,None,,,,,,,0,34,34,34,,,,,407.5974799000105,,,,,,,,,,,,,407.5834627000004,407.5974799000105,407.5974799000105,407.5974799000105,416.89016999999876,,,,416.90922890001093,416.9206205000082,416.9206205000082,416.9549209000106,416.9554893000022,416.9712189999991,416.9712189999991,416.9712189999991,417.0544685000059,419.9691884000058,,,,419.0690300999995,419.9847606000112,419.9847606000112,419.9847606000112,up,9.288732499990147,None,None,,,,,,,,,,,,,,,,,P154,001,2025-04-11_16h17.45.160,posner_endo_new1,2024.2.4,60.014175347863436,2025-04-11 16h17.51.565638 +0100,
cube_r.png,0.1,0.31,valid,35,35,0,up,12.124990800002706,None,space,0.4139635999890743,None,,,,,0,35,35,35,,,,,419.9847606000112,,,,,,,,,,,,,419.96961620000366,419.9847606000112,419.9847606000112,419.9847606000112,432.1236215000099,,,,432.1352840000036,432.14551290000963,432.14551290000963,432.1888731000072,432.1892184000026,432.2054799000034,432.2054799000034,432.2054799000034,432.28893180000887,432.62285850000626,,,,,,,,up,12.124990800002706,None,space,0.4139635999890743,None,,,,,,,,,,,,,,,P154,001,2025-04-11_16h17.45.160,posner_endo_new1,2024.2.4,60.014175347863436,2025-04-11 16h17.51.565638 +0100,
cube_r.png,0.1,-0.31,invalid,36,36,0,up,7.279162899998482,None,space,0.47891630000958685,None,,,,,0,36,36,36,,,,,432.63863910001237,,,,,,,,,,,,,432.6231545000046,432.63863910001237,432.63863910001237,432.63863910001237,439.93195240000205,,,,439.9425537000061,439.9521370000002,439.9521370000002,439.99789900000906,439.998145000005,440.01391120000335,440.01391120000335,440.01391120000335,440.08047480000823,440.4981758000067,,,,,,,,up,7.279162899998482,None,space,0.47891630000958685,None,,,,,,,,,,,,,,,P154,001,2025-04-11_16h17.45.160,posner_endo_new1,2024.2.4,60.014175347863436,2025-04-11 16h17.51.565638 +0100,
cube_l.png,0.1,0.31,invalid,37,37,0,up,7.444744799999171,None,space,0.33482940000249073,None,,,,,0,37,37,37,,,,,440.5133244000026,,,,,,,,,,,,,440.49835770000936,440.5133244000026,440.5133244000026,440.5133244000026,447.9736973000108,,,,447.9841255000065,447.9965288000094,447.9965288000094,448.0399846000073,448.04068360000383,448.05631880000874,448.05631880000874,448.05631880000874,448.1229408000072,448.40864920000604,,,,,,,,up,7.444744799999171,None,space,0.33482940000249073,None,,,,,,,,,,,,,,,P154,001,2025-04-11_16h17.45.160,posner_endo_new1,2024.2.4,60.014175347863436,2025-04-11 16h17.51.565638 +0100,
cube_l.png,0.1,0.31,invalid,38,38,0,up,9.711515999995754,None,space,0.3819746000081068,None,,,,,0,38,38,38,,,,,448.4225604000094,,,,,,,,,,,,,448.40923250000924,448.4225604000094,448.4225604000094,448.4225604000094,458.14838769999915,,,,458.1721288000117,458.184367400012,458.184367400012,458.21214920000057,458.21254690000205,458.2287734999991,458.2287734999991,458.2287734999991,458.31197809999867,458.6132246000052,,,,,,,,up,9.711515999995754,None,space,0.3819746000081068,None,,,,,,,,,,,,,,,P154,001,2025-04-11_16h17.45.160,posner_endo_new1,2024.2.4,60.014175347863436,2025-04-11 16h17.51.565638 +0100,
cube_r.png,0.1,0.31,valid,39,39,0,up,8.665501800001948,None,space,0.36350799999490846,None,,,,,0,39,39,39,,,,,458.62829750000674,,,,,,,,,,,,,458.6135534000059,458.62829750000674,458.62829750000674,458.62829750000674,467.30378990000463,,,,467.3124012000044,467.32270750000316,467.32270750000316,467.3698082000046,467.37034010000934,467.3861922000069,467.3861922000069,467.3861922000069,467.46943770001235,467.75446470000315,,,,,,,,up,8.665501800001948,None,space,0.36350799999490846,None,,,,,,,,,,,,,,,P154,001,2025-04-11_16h17.45.160,posner_endo_new1,2024.2.4,60.014175347863436,2025-04-11 16h17.51.565638 +0100,
cube_l.png,0.1,0.31,invalid,40,40,0,up,9.499956100000418,None,space,0.36808380000002217,None,,,,,0,40,40,40,,,,,467.7691402000055,,,,,,,,,,,,,467.7548889000027,467.7691402000055,467.7691402000055,467.7691402000055,477.27725500000815,,,,477.2890671000059,477.2994003000058,477.2994003000058,477.3429383000039,477.3432957000041,477.3590916000103,477.3590916000103,477.3590916000103,477.4425636000087,477.7434680000006,,,,,,,,up,9.499956100000418,None,space,0.36808380000002217,None,,,,,,,,,,,,,,,P154,001,2025-04-11_16h17.45.160,posner_endo_new1,2024.2.4,60.014175347863436,2025-04-11 16h17.51.565638 +0100,
cube_l.png,0.1,10,catch,41,41,0,up,9.150010000012117,None,None,,,,,,,0,41,41,41,,,,,477.7590704000031,,,,,,,,,,,,,477.74375500000315,477.7590704000031,477.7590704000031,477.7590704000031,486.91728780000994,,,,486.9290054000012,486.9394127000123,486.9394127000123,486.982785900007,486.9831484000024,486.9995767000073,486.9995767000073,486.9995767000073,487.0826393000025,489.9966779000097,,,,489.0973417000059,490.0132908000087,490.0132908000087,490.0132908000087,up,9.150010000012117,None,None,,,,,,,,,,,,,,,,,P154,001,2025-04-11_16h17.45.160,posner_endo_new1,2024.2.4,60.014175347863436,2025-04-11 16h17.51.565638 +0100,
cube_l.png,0.1,-0.31,valid,42,42,0,up,4.959890899990569,None,space,0.37298420000297483,None,,,,,0,42,42,42,,,,,490.0132908000087,,,,,,,,,,,,,489.9968460000091,490.0132908000087,490.0132908000087,490.0132908000087,494.97523360000923,,,,494.98223860000144,494.9935719000059,494.9935719000059,495.04145390000485,495.0419617000007,495.0581065000006,495.0581065000006,495.0581065000006,495.1246172000101,495.44201180001255,,,,,,,,up,4.959890899990569,None,space,0.37298420000297483,None,,,,,,,,,,,,,,,P154,001,2025-04-11_16h17.45.160,posner_endo_new1,2024.2.4,60.014175347863436,2025-04-11 16h17.51.565638 +0100,
cube_l.png,0.1,10,catch,43,43,0,up,7.972381499988842,None,None,,,,,,,0,43,43,43,,,,,495.4573456000071,,,,,,,,,,,,,495.4422932000016,495.4573456000071,495.4573456000071,495.4573456000071,503.4335105000064,,,,503.445157500013,503.4553329000046,503.4553329000046,503.4991310000041,503.499475900011,503.5160617000074,503.5160617000074,503.5160617000074,503.5992013000068,506.51352230001066,,,,505.61378940001305,506.52926410001237,506.52926410001237,506.52926410001237,up,7.972381499988842,None,None,,,,,,,,,,,,,,,,,P154,001,2025-04-11_16h17.45.160,posner_endo_new1,2024.2.4,60.014175347863436,2025-04-11 16h17.51.565638 +0100,
cube_l.png,0.1,0.31,invalid,44,44,0,up,4.355845999991288,None,space,0.4651836999983061,None,,,,,0,44,44,44,,,,,506.52926410001237,,,,,,,,,,,,,506.51378990001103,506.52926410001237,506.52926410001237,506.52926410001237,510.8930365999986,,,,510.9047222000081,510.9149924000085,510.9149924000085,510.95856120000826,510.9589032000076,510.9746951999987,510.9746951999987,510.9746951999987,511.05842310001026,511.4423969000054,,,,,,,,up,4.355845999991288,None,space,0.4651836999983061,None,,,,,,,,,,,,,,,P154,001,2025-04-11_16h17.45.160,posner_endo_new1,2024.2.4,60.014175347863436,2025-04-11 16h17.51.565638 +0100,
cube_l.png,0.1,0.31,invalid,45,45,0,up,8.267770300008124,None,space,0.32402580000052694,None,,,,,0,45,45,45,,,,,511.45760249999876,,,,,,,,,,,,,511.4426769000129,511.45760249999876,511.45760249999876,511.45760249999876,519.7330797000031,,,,519.7397179000109,519.7512107000075,519.7512107000075,519.7994505000097,519.7999846000021,519.8160884000099,519.8160884000099,519.8160884000099,519.8828383000073,520.1518504999985,,,,,,,,up,8.267770300008124,None,space,0.32402580000052694,None,,,,,,,,,,,,,,,P154,001,2025-04-11_16h17.45.160,posner_endo_new1,2024.2.4,60.014175347863436,2025-04-11 16h17.51.565638 +0100,
cube_r.png,0.1,0.31,valid,46,46,0,up,7.559807600002387,None,space,0.4065132999967318,None,,,,,0,46,46,46,,,,,520.1661893000128,,,,,,,,,,,,,520.1524413000006,520.1661893000128,520.1661893000128,520.1661893000128,527.7438037000102,,,,527.7676087,527.7792775999987,527.7792775999987,527.8075943000003,527.8079503000044,527.8240360000054,527.8240360000054,527.8240360000054,527.9080006000004,528.2435421000118,,,,,,,,up,7.559807600002387,None,space,0.4065132999967318,None,,,,,,,,,,,,,,,P154,001,2025-04-11_16h17.45.160,posner_endo_new1,2024.2.4,60.014175347863436,2025-04-11 16h17.51.565638 +0100,
cube_l.png,0.1,-0.31,valid,47,47,0,up,7.61973589999252,None,space,0.2766081000008853,None,,,,,0,47,47,47,,,,,528.2577822000021,,,,,,,,,,,,,528.2441263000073,528.2577822000021,528.2577822000021,528.2577822000021,535.8857386000018,,,,535.909444600009,535.9197527000069,535.9197527000069,535.9492529000127,535.9496239,535.965718300009,535.965718300009,535.965718300009,536.0492066000006,536.250521000009,,,,,,,,up,7.61973589999252,None,space,0.2766081000008853,None,,,,,,,,,,,,,,,P154,001,2025-04-11_16h17.45.160,posner_endo_new1,2024.2.4,60.014175347863436,2025-04-11 16h17.51.565638 +0100,
cube_r.png,0.1,-0.31,invalid,48,48,0,up,6.627768200007267,None,space,0.34106880000035744,None,,,,,0,48,48,48,,,,,536.2654525000107,,,,,,,,,,,,,536.2508086000016,536.2654525000107,536.2654525000107,536.2654525000107,542.9102199000044,,,,542.9219463000045,542.9317739000107,542.9317739000107,542.9754194999987,542.975774400009,542.9919843000098,542.9919843000098,542.9919843000098,543.0755666000041,543.3432158000069,,,,,,,,up,6.627768200007267,None,space,0.34106880000035744,None,,,,,,,,,,,,,,,P154,001,2025-04-11_16h17.45.160,posner_endo_new1,2024.2.4,60.014175347863436,2025-04-11 16h17.51.565638 +0100,
cube_r.png,0.1,10,catch,49,49,0,up,7.342893100008951,None,None,,,,,,,0,49,49,49,,,,,543.3583176000102,,,,,,,,,,,,,543.3435018000018,543.3583176000102,543.3583176000102,543.3583176000102,550.7024462000118,,,,550.7141730000003,550.7245060999994,550.7245060999994,550.7673577000096,550.7676175000088,550.78397270001,550.78397270001,550.78397270001,550.8676678000047,553.7829625000013,,,,552.8823250999994,553.7981025000045,553.7981025000045,553.7981025000045,up,7.342893100008951,None,None,,,,,,,,,,,,,,,,,P154,001,2025-04-11_16h17.45.160,posner_endo_new1,2024.2.4,60.014175347863436,2025-04-11 16h17.51.565638 +0100,
cube_l.png,0.1,-0.31,valid,50,50,0,up,4.463467700014007,None,space,0.4228119000035804,None,,,,,0,50,50,50,,,,,553.7981025000045,,,,,,,,,,,,,553.7835159000097,553.7981025000045,553.7981025000045,553.7981025000045,558.2791048000072,,,,558.3028531000018,558.3145014000038,558.3145014000038,558.3430594000092,558.3434605000075,558.3596004999999,558.3596004999999,558.3596004999999,558.4427918000001,558.7938366000017,,,,,,,,up,4.463467700014007,None,space,0.4228119000035804,None,,,,,,,,,,,,,,,P154,001,2025-04-11_16h17.45.160,posner_endo_new1,2024.2.4,60.014175347863436,2025-04-11 16h17.51.565638 +0100,
cube_l.png,0.1,-0.31,valid,51,51,0,up,7.108162000004086,None,space,0.38493929999822285,None,,,,,0,51,51,51,,,,,558.8093598999985,,,,,,,,,,,,,558.7941523000045,558.8093598999985,558.8093598999985,558.8093598999985,565.919561200004,,,,565.9285211000097,565.9387443000014,565.9387443000014,565.9850787000032,565.9853760000115,566.0016449000104,566.0016449000104,566.0016449000104,566.0848932000081,566.4023443000042,,,,,,,,up,7.108162000004086,None,space,0.38493929999822285,None,,,,,,,,,,,,,,,P154,001,2025-04-11_16h17.45.160,posner_endo_new1,2024.2.4,60.014175347863436,2025-04-11 16h17.51.565638 +0100,
cube_r.png,0.1,-0.31,invalid,52,52,0,up,8.08282650000183,None,space,0.4167541000060737,None,,,,,0,52,52,52,,,,,566.4182746000006,,,,,,,,,,,,,566.4025776000053,566.4182746000006,566.4182746000006,566.4182746000006,574.5110933000105,,,,574.5201278000022,574.5299445000128,574.5299445000128,574.5762747000117,574.5765088000044,574.5933118000103,574.5933118000103,574.5933118000103,574.6761076000112,575.0266859000112,,,,,,,,up,8.08282650000183,None,space,0.4167541000060737,None,,,,,,,,,,,,,,,P154,001,2025-04-11_16h17.45.160,posner_endo_new1,2024.2.4,60.014175347863436,2025-04-11 16h17.51.565638 +0100,
cube_l.png,0.1,-0.31,valid,53,53,0,up,7.803369600005681,None,space,0.41170479998982046,None,,,,,0,53,53,53,,,,,575.0428985000035,,,,,,,,,,,,,575.0268676000123,575.0428985000035,575.0428985000035,575.0428985000035,582.8544029000041,,,,582.8779330000107,582.8900995000004,582.8900995000004,582.9178673999995,582.918225100002,582.9343082999985,582.9343082999985,582.9343082999985,583.0182880000066,583.3539563000086,,,,,,,,up,7.803369600005681,None,space,0.41170479998982046,None,,,,,,,,,,,,,,,P154,001,2025-04-11_16h17.45.160,posner_endo_new1,2024.2.4,60.014175347863436,2025-04-11 16h17.51.565638 +0100,
cube_r.png,0.1,10,catch,54,54,0,up,8.285682000001543,None,None,,,,,,,0,54,54,54,,,,,583.3680993000016,,,,,,,,,,,,,583.3545378999988,583.3680993000016,583.3680993000016,583.3680993000016,591.662015000009,,,,591.6830845000077,591.693213400009,591.693213400009,591.7256442000071,591.7260307000106,591.7419746000087,591.7419746000087,591.7419746000087,591.8252868000127,594.7409600000101,,,,593.8404994000011,594.7561816000089,594.7561816000089,594.7561816000089,up,8.285682000001543,None,None,,,,,,,,,,,,,,,,,P154,001,2025-04-11_16h17.45.160,posner_endo_new1,2024.2.4,60.014175347863436,2025-04-11 16h17.51.565638 +0100,
cube_l.png,0.1,0.31,invalid,55,55,0,up,5.20154320000438,None,space,0.36015340000449214,None,,,,,0,55,55,55,,,,,594.7561816000089,,,,,,,,,,,,,594.7414955999993,594.7561816000089,594.7561816000089,594.7561816000089,599.97002410001,,,,599.9925530000037,600.0030761000089,600.0030761000089,600.0339007000002,600.0343438999989,600.0504438000062,600.0504438000062,600.0504438000062,600.1336549000116,600.4180115000054,,,,,,,,up,5.20154320000438,None,space,0.36015340000449214,None,,,,,,,,,,,,,,,P154,001,2025-04-11_16h17.45.160,posner_endo_new1,2024.2.4,60.014175347863436,2025-04-11 16h17.51.565638 +0100,
cube_l.png,0.1,-0.31,valid,56,56,0,up,7.4047898999997415,None,space,0.4520126999996137,None,,,,,0,56,56,56,,,,,600.4332233000023,,,,,,,,,,,,,600.4182507000078,600.4332233000023,600.4332233000023,600.4332233000023,607.8435271000053,,,,607.8521557000058,607.862082800013,607.862082800013,607.9091676000098,607.9094028000109,607.9258946000045,607.9258946000045,607.9258946000045,608.0090401000052,608.3944768000074,,,,,,,,up,7.4047898999997415,None,space,0.4520126999996137,None,,,,,,,,,,,,,,,P154,001,2025-04-11_16h17.45.160,posner_endo_new1,2024.2.4,60.014175347863436,2025-04-11 16h17.51.565638 +0100,
cube_r.png,0.1,0.31,valid,57,57,0,up,7.293546500004595,None,space,0.5648649000067962,None,,,,,0,57,57,57,,,,,608.4090253000031,,,,,,,,,,,,,608.3950639000104,608.4090253000031,608.4090253000031,608.4090253000031,615.7202776000049,,,,615.7421050000121,615.7521968000074,615.7521968000074,615.7844306000043,615.7848789999989,615.8008371000033,615.8008371000033,615.8008371000033,615.8840102000104,616.3679585000064,,,,,,,,up,7.293546500004595,None,space,0.5648649000067962,None,,,,,,,,,,,,,,,P154,001,2025-04-11_16h17.45.160,posner_endo_new1,2024.2.4,60.014175347863436,2025-04-11 16h17.51.565638 +0100,
cube_r.png,0.1,-0.31,invalid,58,58,0,up,5.389265999998315,None,space,0.3774081000010483,None,,,,,0,58,58,58,,,,,616.3838739000057,,,,,,,,,,,,,616.3682135000126,616.3838739000057,616.3838739000057,616.3838739000057,621.7790708000102,,,,621.7888564000023,621.7990999000031,621.7990999000031,621.8447674000054,621.8450760999986,621.8616102000087,621.8616102000087,621.8616102000087,621.9448174999998,622.2453079000115,,,,,,,,up,5.389265999998315,None,space,0.3774081000010483,None,,,,,,,,,,,,,,,P154,001,2025-04-11_16h17.45.160,posner_endo_new1,2024.2.4,60.014175347863436,2025-04-11 16h17.51.565638 +0100,
cube_l.png,0.1,0.31,invalid,59,59,0,up,7.969239099998958,None,space,0.3399755999998888,None,,,,,0,59,59,59,,,,,622.2613311000023,,,,,,,,,,,,,622.2455449000117,622.2613311000023,622.2613311000023,622.2613311000023,630.2371104000049,,,,630.2470181000099,630.2574362000014,630.2574362000014,630.3030909000081,630.3034117000061,630.3193615000055,630.3193615000055,630.3193615000055,630.4025170000095,630.6698815999989,,,,,,,,up,7.969239099998958,None,space,0.3399755999998888,None,,,,,,,,,,,,,,,P154,001,2025-04-11_16h17.45.160,posner_endo_new1,2024.2.4,60.014175347863436,2025-04-11 16h17.51.565638 +0100,
,,,,,,,,,,,,,,,,,,,,,,,,,,,,,,,,,,,,,,,,,,,,,,,,,,,,,,,,,,,,,,,,,,,,,630.670036800002,630.6856272000005,630.6856272000005,690.6913166000013,692.7749394999992,space,62.079945800011046,None,,,,,,,P154,001,2025-04-11_16h17.45.160,posner_endo_new1,2024.2.4,60.014175347863436,2025-04-11 16h17.51.565638 +0100,
,,,,,,,,,,,,,,,,,,,,,,,,,,,,,,,,,,692.7751022000011,692.7891388999997,695.88848590001,695.7707068000018,,,,,,,,,,,,,,,,,,,,,,,,,,,,,,,,,,,,,,,,,,,,,,P154,001,2025-04-11_16h17.45.160,posner_endo_new1,2024.2.4,60.014175347863436,2025-04-11 16h17.51.565638 +0100,
cube_l.png,0.1,10,catch,0,0,0,down,10.261060400007409,None,None,,,,,,,,,,,0,0,0,0,695.88848590001,,,,,,,,,,,,,695.8803028000111,695.88848590001,695.88848590001,695.88848590001,706.161316800004,,,,706.1850236000028,706.1975233000121,706.1975233000121,706.2249153000012,706.2252219000075,706.2413760000054,706.2413760000054,706.2413760000054,706.3246856000042,709.2403912000009,,,,708.3399673000094,709.2557188000064,709.2557188000064,709.2557188000064,,,,,,,,,,,,,,,down,10.261060400007409,None,None,,,P154,001,2025-04-11_16h17.45.160,posner_endo_new1,2024.2.4,60.014175347863436,2025-04-11 16h17.51.565638 +0100,
cube_l.png,0.1,10,catch,1,1,0,down,4.093943300002138,None,None,,,,,,,,,,,0,1,1,1,709.2557188000064,,,,,,,,,,,,,709.2409297000122,709.2557188000064,709.2557188000064,709.2557188000064,713.3542758000112,,,,713.3781858000002,713.3902296000015,713.3902296000015,713.4176405000035,713.4179880000011,713.4344229999988,713.4344229999988,713.4344229999988,713.5178625000117,716.4319447000016,,,,715.532122500008,716.4476990000112,716.4476990000112,716.4476990000112,,,,,,,,,,,,,,,down,4.093943300002138,None,None,,,P154,001,2025-04-11_16h17.45.160,posner_endo_new1,2024.2.4,60.014175347863436,2025-04-11 16h17.51.565638 +0100,
cube_l.png,0.1,0.31,invalid,2,2,0,down,2.9417015000071842,None,space,0.41859020000265446,None,,,,,,,,,0,2,2,2,716.4476990000112,,,,,,,,,,,,,716.4322217000008,716.4476990000112,716.4476990000112,716.4476990000112,719.3960080000106,,,,719.4077729000128,719.4179621000076,719.4179621000076,719.4616965000023,719.461953200007,719.478465600012,719.478465600012,719.478465600012,719.5613123000076,719.9122873000015,,,,,,,,,,,,,,,,,,,,,,down,2.9417015000071842,None,space,0.41859020000265446,None,P154,001,2025-04-11_16h17.45.160,posner_endo_new1,2024.2.4,60.014175347863436,2025-04-11 16h17.51.565638 +0100,
cube_l.png,0.1,0.31,invalid,3,3,0,down,5.89396279999346,None,space,0.5654921999957878,None,,,,,,,,,0,3,3,3,719.9277294000058,,,,,,,,,,,,,719.9124889000086,719.9277294000058,719.9277294000058,719.9277294000058,725.8247619000031,,,,725.8482352999999,725.8603831000073,725.8603831000073,725.8884407000005,725.8888269000017,725.9047704000113,725.9047704000113,725.9047704000113,725.9881008000084,726.4724077999999,,,,,,,,,,,,,,,,,,,,,,down,5.89396279999346,None,space,0.5654921999957878,None,P154,001,2025-04-11_16h17.45.160,posner_endo_new1,2024.2.4,60.014175347863436,2025-04-11 16h17.51.565638 +0100,
cube_l.png,0.1,-0.31,valid,4,4,0,down,8.198440500011202,None,space,0.3478333999955794,None,,,,,,,,,0,4,4,4,726.4874822999991,,,,,,,,,,,,,726.472729400004,726.4874822999991,726.4874822999991,726.4874822999991,734.6967437999992,,,,734.7053879000014,734.7157047000073,734.7157047000073,734.7628403000126,734.7633582999988,734.779257400005,734.779257400005,734.779257400005,734.8458534000092,735.1308153999998,,,,,,,,,,,,,,,,,,,,,,down,8.198440500011202,None,space,0.3478333999955794,None,P154,001,2025-04-11_16h17.45.160,posner_endo_new1,2024.2.4,60.014175347863436,2025-04-11 16h17.51.565638 +0100,
cube_r.png,0.1,-0.31,invalid,5,5,0,down,6.971905200000037,None,space,0.3719187999959104,None,,,,,,,,,0,5,5,5,735.1455771000037,,,,,,,,,,,,,735.1312593000039,735.1455771000037,735.1455771000037,735.1455771000037,742.122781500002,,,,742.1329361000098,742.1426483000105,742.1426483000105,742.1886339000048,742.1888845000067,742.2046925000031,742.2046925000031,742.2046925000031,742.2883682000102,742.5887867999991,,,,,,,,,,,,,,,,,,,,,,down,6.971905200000037,None,space,0.3719187999959104,None,P154,001,2025-04-11_16h17.45.160,posner_endo_new1,2024.2.4,60.014175347863436,2025-04-11 16h17.51.565638 +0100,
cube_r.png,0.1,0.31,valid,6,6,0,down,9.73828190000495,None,space,0.4331402999960119,None,,,,,,,,,0,6,6,6,742.6041784000117,,,,,,,,,,,,,742.5889784000028,742.6041784000117,742.6041784000117,742.6041784000117,752.3477654000017,,,,752.3712811000005,752.3835513000085,752.3835513000085,752.4112468000094,752.4116443000094,752.4281572000036,752.4281572000036,752.4281572000036,752.5113954000117,752.8637622000097,,,,,,,,,,,,,,,,,,,,,,down,9.73828190000495,None,space,0.4331402999960119,None,P154,001,2025-04-11_16h17.45.160,posner_endo_new1,2024.2.4,60.014175347863436,2025-04-11 16h17.51.565638 +0100,
cube_r.png,0.1,-0.31,invalid,7,7,0,down,10.559790400002385,None,space,0.4033655999955954,None,,,,,,,,,0,7,7,7,752.8779847000114,,,,,,,,,,,,,752.8643555000017,752.8779847000114,752.8779847000114,752.8779847000114,763.4527455000061,,,,763.4763949000044,763.4886890000053,763.4886890000053,763.5165163000056,763.5168812000047,763.5332527999999,763.5332527999999,763.5332527999999,763.6165182000113,763.9507350000058,,,,,,,,,,,,,,,,,,,,,,down,10.559790400002385,None,space,0.4033655999955954,None,P154,001,2025-04-11_16h17.45.160,posner_endo_new1,2024.2.4,60.014175347863436,2025-04-11 16h17.51.565638 +0100,
cube_l.png,0.1,-0.31,valid,8,8,0,down,6.311174000002211,None,space,0.3541053000080865,None,,,,,,,,,0,8,8,8,763.9662434000056,,,,,,,,,,,,,763.9510409000068,763.9662434000056,763.9662434000056,763.9662434000056,770.2941410000058,,,,770.3034669000044,770.3130900000106,770.3130900000106,770.3597410000075,770.3600070000102,770.3758757000032,770.3758757000032,770.3758757000032,770.4594117000088,770.7432783000113,,,,,,,,,,,,,,,,,,,,,,down,6.311174000002211,None,space,0.3541053000080865,None,P154,001,2025-04-11_16h17.45.160,posner_endo_new1,2024.2.4,60.014175347863436,2025-04-11 16h17.51.565638 +0100,
cube_r.png,0.1,-0.31,invalid,9,9,0,down,7.287368400007836,None,space,0.35841320001054555,None,,,,,,,,,0,9,9,9,770.7588506000029,,,,,,,,,,,,,770.7434831999999,770.7588506000029,770.7588506000029,770.7588506000029,778.0530570000119,,,,778.0647615000053,778.0750489000056,778.0750489000056,778.1185852000053,778.1189405000041,778.1347620000015,778.1347620000015,778.1347620000015,778.218295300001,778.5022345000034,,,,,,,,,,,,,,,,,,,,,,down,7.287368400007836,None,space,0.35841320001054555,None,P154,001,2025-04-11_16h17.45.160,posner_endo_new1,2024.2.4,60.014175347863436,2025-04-11 16h17.51.565638 +0100,
cube_l.png,0.1,0.31,invalid,10,10,0,down,6.543906799997785,None,space,0.3273546999989776,None,,,,,,,,,0,10,10,10,778.5178670000023,,,,,,,,,,,,,778.5025243000127,778.5178670000023,778.5178670000023,778.5178670000023,785.0790959000005,,,,785.0908474000025,785.1007641000033,785.1007641000033,785.144667600005,785.1450117000059,785.1611422999995,785.1611422999995,785.1611422999995,785.2443467000121,785.4952601000114,,,,,,,,,,,,,,,,,,,,,,down,6.543906799997785,None,space,0.3273546999989776,None,P154,001,2025-04-11_16h17.45.160,posner_endo_new1,2024.2.4,60.014175347863436,2025-04-11 16h17.51.565638 +0100,
cube_r.png,0.1,-0.31,invalid,11,11,0,down,7.8388850999908755,None,space,0.36099620000459254,None,,,,,,,,,0,11,11,11,785.5108080000064,,,,,,,,,,,,,785.4955590000027,785.5108080000064,785.5108080000064,785.5108080000064,793.353845900012,,,,793.3656222999998,793.3758132000075,793.3758132000075,793.4196050000028,793.4199634000106,793.4357959000045,793.4357959000045,793.4357959000045,793.5189538000122,793.8034541000088,,,,,,,,,,,,,,,,,,,,,,down,7.8388850999908755,None,space,0.36099620000459254,None,P154,001,2025-04-11_16h17.45.160,posner_endo_new1,2024.2.4,60.014175347863436,2025-04-11 16h17.51.565638 +0100,
cube_r.png,0.1,0.31,valid,12,12,0,down,6.939406500008772,None,space,0.40940849999606144,None,,,,,,,,,0,12,12,12,793.8186416000099,,,,,,,,,,,,,793.8037515000033,793.8186416000099,793.8186416000099,793.8186416000099,800.7632290000038,,,,800.7747662000038,800.7851865000121,800.7851865000121,800.8285897000023,800.8289312000124,800.845063700006,800.845063700006,800.845063700006,800.9284035000019,801.2626215000055,,,,,,,,,,,,,,,,,,,,,,down,6.939406500008772,None,space,0.40940849999606144,None,P154,001,2025-04-11_16h17.45.160,posner_endo_new1,2024.2.4,60.014175347863436,2025-04-11 16h17.51.565638 +0100,
cube_l.png,0.1,10,catch,13,13,0,down,5.287528000000748,None,None,,,,,,,,,,,0,13,13,13,801.2776106000092,,,,,,,,,,,,,801.2629122000071,801.2776106000092,801.2776106000092,801.2776106000092,806.5738707000128,,,,806.5857763000095,806.5961214999988,806.5961214999988,806.6393485000008,806.6396096000099,806.6557343000022,806.6557343000022,806.6557343000022,806.7386729999998,809.6532596000034,,,,808.7534856000129,809.6693709000101,809.6693709000101,809.6693709000101,,,,,,,,,,,,,,,down,5.287528000000748,None,None,,,P154,001,2025-04-11_16h17.45.160,posner_endo_new1,2024.2.4,60.014175347863436,2025-04-11 16h17.51.565638 +0100,
cube_r.png,0.1,-0.31,invalid,14,14,0,down,5.040223599993624,None,space,0.40790459999698214,None,,,,,,,,,0,14,14,14,809.6693709000101,,,,,,,,,,,,,809.6535307000013,809.6693709000101,809.6693709000101,809.6693709000101,814.715451600001,,,,814.7271906000096,814.7375390000088,814.7375390000088,814.7810058000032,814.7813621000096,814.7974892000057,814.7974892000057,814.7974892000057,814.8804357000045,815.2147060999996,,,,,,,,,,,,,,,,,,,,,,down,5.040223599993624,None,space,0.40790459999698214,None,P154,001,2025-04-11_16h17.45.160,posner_endo_new1,2024.2.4,60.014175347863436,2025-04-11 16h17.51.565638 +0100,
cube_l.png,0.1,-0.31,valid,15,15,0,down,5.551764699994237,None,space,0.3580841000075452,None,,,,,,,,,0,15,15,15,815.2303416000068,,,,,,,,,,,,,815.2150001000118,815.2303416000068,815.2303416000068,815.2303416000068,820.794352900004,,,,820.8185446999996,820.829064000005,820.829064000005,820.8577020000084,820.8580483000114,820.8745163999993,820.8745163999993,820.8745163999993,820.958017900004,821.2421026000084,,,,,,,,,,,,,,,,,,,,,,down,5.551764699994237,None,space,0.3580841000075452,None,P154,001,2025-04-11_16h17.45.160,posner_endo_new1,2024.2.4,60.014175347863436,2025-04-11 16h17.51.565638 +0100,
cube_r.png,0.1,10,catch,16,16,0,down,8.564610000001267,None,None,,,,,,,,,,,0,16,16,16,821.2571670000034,,,,,,,,,,,,,821.2423885000026,821.2571670000034,821.2571670000034,821.2571670000034,829.8348683000077,,,,829.8553278000036,829.8658619000053,829.8658619000053,829.8987278999994,829.8991754000017,829.9150441000093,829.9150441000093,829.9150441000093,829.9983462000091,832.9129932000069,,,,832.0129639000079,832.9285605000041,832.9285605000041,832.9285605000041,,,,,,,,,,,,,,,down,8.564610000001267,None,None,,,P154,001,2025-04-11_16h17.45.160,posner_endo_new1,2024.2.4,60.014175347863436,2025-04-11 16h17.51.565638 +0100,
cube_r.png,0.1,10,catch,17,17,0,down,5.364822000003187,None,None,,,,,,,,,,,0,17,17,17,832.9285605000041,,,,,,,,,,,,,832.9132240000035,832.9285605000041,832.9285605000041,832.9285605000041,838.3075525000022,,,,838.3176590000076,838.3279833000124,838.3279833000124,838.3732580000069,838.3735750000051,838.3901129000005,838.3901129000005,838.3901129000005,838.4562826000038,841.3877046999987,,,,840.4711968000047,841.4036927999987,841.4036927999987,841.4036927999987,,,,,,,,,,,,,,,down,5.364822000003187,None,None,,,P154,001,2025-04-11_16h17.45.160,posner_endo_new1,2024.2.4,60.014175347863436,2025-04-11 16h17.51.565638 +0100,
cube_l.png,0.1,0.31,invalid,18,18,0,down,5.282196200001636,None,space,0.4164259000099264,None,,,,,,,,,0,18,18,18,841.4036927999987,,,,,,,,,,,,,841.3879462000041,841.4036927999987,841.4036927999987,841.4036927999987,846.6989107000118,,,,846.7089489000064,846.7191874000127,846.7191874000127,846.7646521999995,846.7649770999997,846.7811218999996,846.7811218999996,846.7811218999996,846.8482790000126,847.1986437000014,,,,,,,,,,,,,,,,,,,,,,down,5.282196200001636,None,space,0.4164259000099264,None,P154,001,2025-04-11_16h17.45.160,posner_endo_new1,2024.2.4,60.014175347863436,2025-04-11 16h17.51.565638 +0100,
cube_l.png,0.1,10,catch,19,19,0,down,8.567285099998116,None,None,,,,,,,,,,,0,19,19,19,847.2139794000104,,,,,,,,,,,,,847.1989070999989,847.2139794000104,847.2139794000104,847.2139794000104,855.7894922999985,,,,855.7980162000022,855.8083209000033,855.8083209000033,855.8556801000086,855.8562220000022,855.8721438000066,855.8721438000066,855.8721438000066,855.9387156000012,858.8701805000019,,,,857.9532978000061,858.8857026000042,858.8857026000042,858.8857026000042,,,,,,,,,,,,,,,down,8.567285099998116,None,None,,,P154,001,2025-04-11_16h17.45.160,posner_endo_new1,2024.2.4,60.014175347863436,2025-04-11 16h17.51.565638 +0100,
cube_l.png,0.1,0.31,invalid,20,20,0,down,4.0400044999987585,None,space,0.402408000009018,None,,,,,,,,,0,20,20,20,858.8857026000042,,,,,,,,,,,,,858.8706286000088,858.8857026000042,858.8857026000042,858.8857026000042,862.9337361000071,,,,862.952803799999,862.9642308000039,862.9642308000039,862.9983123999991,862.998653600007,863.0148192000051,863.0148192000051,863.0148192000051,863.0981152000022,863.4323679000081,,,,,,,,,,,,,,,,,,,,,,down,4.0400044999987585,None,space,0.402408000009018,None,P154,001,2025-04-11_16h17.45.160,posner_endo_new1,2024.2.4,60.014175347863436,2025-04-11 16h17.51.565638 +0100,
cube_l.png,0.1,-0.31,valid,21,21,0,down,7.133869999990566,None,space,0.3749573999957647,None,,,,,,,,,0,21,21,21,863.447479200011,,,,,,,,,,,,,863.4326519000024,863.447479200011,863.447479200011,863.447479200011,870.5913870000077,,,,870.6030544000096,870.613260099999,870.613260099999,870.6573134000064,870.6575601000077,870.6732368000085,870.6732368000085,870.6732368000085,870.7568908000103,871.0584585000033,,,,,,,,,,,,,,,,,,,,,,down,7.133869999990566,None,space,0.3749573999957647,None,P154,001,2025-04-11_16h17.45.160,posner_endo_new1,2024.2.4,60.014175347863436,2025-04-11 16h17.51.565638 +0100,
cube_r.png,0.1,0.31,valid,22,22,0,down,5.3085078000003705,None,space,0.3387876999913715,None,,,,,,,,,0,22,22,22,871.0731727000093,,,,,,,,,,,,,871.0589454000001,871.0731727000093,871.0731727000093,871.0731727000093,876.3855245000013,,,,876.3973346999992,876.4077373000036,876.4077373000036,876.4513780999987,876.4516376000101,876.4672839000123,876.4672839000123,876.4672839000123,876.5509075000009,876.818402600009,,,,,,,,,,,,,,,,,,,,,,down,5.3085078000003705,None,space,0.3387876999913715,None,P154,001,2025-04-11_16h17.45.160,posner_endo_new1,2024.2.4,60.014175347863436,2025-04-11 16h17.51.565638 +0100,
cube_r.png,0.1,-0.31,invalid,23,23,0,down,9.259472300007474,None,space,0.40412549999018665,None,,,,,,,,,0,23,23,23,876.8340291000059,,,,,,,,,,,,,876.8186874000094,876.8340291000059,876.8340291000059,876.8340291000059,886.108982500009,,,,886.1208393000124,886.1310866999993,886.1310866999993,886.1744704000012,886.1748253000114,886.1910762000043,886.1910762000043,886.1910762000043,886.2740428000106,886.60861570001,,,,,,,,,,,,,,,,,,,,,,down,9.259472300007474,None,space,0.40412549999018665,None,P154,001,2025-04-11_16h17.45.160,posner_endo_new1,2024.2.4,60.014175347863436,2025-04-11 16h17.51.565638 +0100,
cube_r.png,0.1,0.31,valid,24,24,0,down,6.549715399989509,None,space,0.32242549999500625,None,,,,,,,,,0,24,24,24,886.6239312000107,,,,,,,,,,,,,886.6089102000115,886.6239312000107,886.6239312000107,886.6239312000107,893.1850185000076,,,,893.1966862000118,893.2072058000049,893.2072058000049,893.2503858000127,893.2507327000058,893.267181800009,893.267181800009,893.267181800009,893.3500978000084,893.6013952000067,,,,,,,,,,,,,,,,,,,,,,down,6.549715399989509,None,space,0.32242549999500625,None,P154,001,2025-04-11_16h17.45.160,posner_endo_new1,2024.2.4,60.014175347863436,2025-04-11 16h17.51.565638 +0100,
cube_r.png,0.1,-0.31,invalid,25,25,0,down,6.116740099998424,None,space,0.3369070000044303,None,,,,,,,,,0,25,25,25,893.6170084000041,,,,,,,,,,,,,893.6016940000118,893.6170084000041,893.6170084000041,893.6170084000041,899.7452507999988,,,,899.7543298000091,899.7642355999997,899.7642355999997,899.8104760999995,899.8109944000025,899.8271089000045,899.8271089000045,899.8271089000045,899.9102576000005,900.1785586000042,,,,,,,,,,,,,,,,,,,,,,down,6.116740099998424,None,space,0.3369070000044303,None,P154,001,2025-04-11_16h17.45.160,posner_endo_new1,2024.2.4,60.014175347863436,2025-04-11 16h17.51.565638 +0100,
cube_l.png,0.1,-0.31,valid,26,26,0,down,5.444184099993436,None,space,0.3813935000071069,None,,,,,,,,,0,26,26,26,900.1933148000098,,,,,,,,,,,,,900.178994700007,900.1933148000098,900.1933148000098,900.1933148000098,905.6389358000015,,,,905.646396600001,905.6572537000029,905.6572537000029,905.7044265000004,905.7048601999995,905.7208329999994,905.7208329999994,905.7208329999994,905.8040652000054,906.1047125000041,,,,,,,,,,,,,,,,,,,,,,down,5.444184099993436,None,space,0.3813935000071069,None,P154,001,2025-04-11_16h17.45.160,posner_endo_new1,2024.2.4,60.014175347863436,2025-04-11 16h17.51.565638 +0100,
cube_r.png,0.1,0.31,valid,27,27,0,down,7.437293999988469,None,space,0.3305368000001181,None,,,,,,,,,0,27,27,27,906.1203406999994,,,,,,,,,,,,,906.1049619000114,906.1203406999994,906.1203406999994,906.1203406999994,913.563823000004,,,,913.5736087000114,913.5839134999987,913.5839134999987,913.6300338000001,913.6303374000126,913.6460521000117,913.6460521000117,913.6460521000117,913.7293098000082,913.9805013000005,,,,,,,,,,,,,,,,,,,,,,down,7.437293999988469,None,space,0.3305368000001181,None,P154,001,2025-04-11_16h17.45.160,posner_endo_new1,2024.2.4,60.014175347863436,2025-04-11 16h17.51.565638 +0100,
cube_r.png,0.1,10,catch,28,28,0,down,9.049609700014116,None,None,,,,,,,,,,,0,28,28,28,913.9956633000111,,,,,,,,,,,,,913.9807600000058,913.9956633000111,913.9956633000111,913.9956633000111,923.0542010000063,,,,923.0624184000044,923.0729594000004,923.0729594000004,923.1202219000115,923.1207714000047,923.1366332000034,923.1366332000034,923.1366332000034,923.2198296999995,926.1346610000037,,,,925.2344562000071,926.1501264000108,926.1501264000108,926.1501264000108,,,,,,,,,,,,,,,down,9.049609700014116,None,None,,,P154,001,2025-04-11_16h17.45.160,posner_endo_new1,2024.2.4,60.014175347863436,2025-04-11 16h17.51.565638 +0100,
cube_r.png,0.1,0.31,valid,29,29,0,down,3.59946779999882,None,space,0.40586819998861756,None,,,,,,,,,0,29,29,29,926.1501264000108,,,,,,,,,,,,,926.1351036999986,926.1501264000108,926.1501264000108,926.1501264000108,929.7651874000003,,,,929.7846265000117,929.7959480999998,929.7959480999998,929.8300245999999,929.8305944000022,929.8464298000035,929.8464298000035,929.8464298000035,929.9296015,930.2646386999986,,,,,,,,,,,,,,,,,,,,,,down,3.59946779999882,None,space,0.40586819998861756,None,P154,001,2025-04-11_16h17.45.160,posner_endo_new1,2024.2.4,60.014175347863436,2025-04-11 16h17.51.565638 +0100,
cube_r.png,0.1,0.31,valid,30,30,0,down,7.6463196000113385,None,space,0.42541880000499077,None,,,,,,,,,0,30,30,30,930.2793320000055,,,,,,,,,,,,,930.2651199000102,930.2793320000055,930.2793320000055,930.2793320000055,937.9402794000052,,,,937.9593212000036,937.9707004000084,937.9707004000084,938.0043577000033,938.0046609000128,938.0208440999995,938.0208440999995,938.0208440999995,938.1044235000008,938.4552713000012,,,,,,,,,,,,,,,,,,,,,,down,7.6463196000113385,None,space,0.42541880000499077,None,P154,001,2025-04-11_16h17.45.160,posner_endo_new1,2024.2.4,60.014175347863436,2025-04-11 16h17.51.565638 +0100,
cube_l.png,0.1,-0.31,valid,31,31,0,down,9.463191700007883,None,space,0.3528800000058254,None,,,,,,,,,0,31,31,31,938.4705343000096,,,,,,,,,,,,,938.4555357000063,938.4705343000096,938.4705343000096,938.4705343000096,947.9464971999987,,,,947.965495299999,947.9768776000128,947.9768776000128,948.0114214000059,948.0119910000067,948.0277954000048,948.0277954000048,948.0277954000048,948.1110674000083,948.3962148999999,,,,,,,,,,,,,,,,,,,,,,down,9.463191700007883,None,space,0.3528800000058254,None,P154,001,2025-04-11_16h17.45.160,posner_endo_new1,2024.2.4,60.014175347863436,2025-04-11 16h17.51.565638 +0100,
cube_r.png,0.1,0.31,valid,32,32,0,down,4.403127099998528,None,space,0.45195719999901485,None,,,,,,,,,0,32,32,32,948.4107540000114,,,,,,,,,,,,,948.3966900000087,948.4107540000114,948.4107540000114,948.4107540000114,952.8247057000117,,,,952.8438650000026,952.8554108000098,952.8554108000098,952.8896005999995,952.8899501000124,952.9058676999994,952.9058676999994,952.9058676999994,952.9891124999995,953.3735186000122,,,,,,,,,,,,,,,,,,,,,,down,4.403127099998528,None,space,0.45195719999901485,None,P154,001,2025-04-11_16h17.45.160,posner_endo_new1,2024.2.4,60.014175347863436,2025-04-11 16h17.51.565638 +0100,
cube_r.png,0.1,-0.31,invalid,33,33,0,down,7.696890399995027,None,space,0.3308860000106506,None,,,,,,,,,0,33,33,33,953.3888238000072,,,,,,,,,,,,,953.373814400009,953.3888238000072,953.3888238000072,953.3888238000072,961.0987186999992,,,,961.110465100006,961.1206117000111,961.1206117000111,961.1644790999999,961.1648453000089,961.1806898000068,961.1806898000068,961.1806898000068,961.2639019000053,961.5148684000014,,,,,,,,,,,,,,,,,,,,,,down,7.696890399995027,None,space,0.3308860000106506,None,P154,001,2025-04-11_16h17.45.160,posner_endo_new1,2024.2.4,60.014175347863436,2025-04-11 16h17.51.565638 +0100,
cube_r.png,0.1,10,catch,34,34,0,down,7.355774199997541,None,None,,,,,,,,,,,0,34,34,34,961.5303718000068,,,,,,,,,,,,,961.515171600011,961.5303718000068,961.5303718000068,961.5303718000068,968.8909772000043,,,,968.9027820000047,968.9129743000085,968.9129743000085,968.9567067000025,968.9570695000002,968.9727953000111,968.9727953000111,968.9727953000111,969.056347900012,971.9706749000034,,,,971.0710053000075,971.9865356000082,971.9865356000082,971.9865356000082,,,,,,,,,,,,,,,down,7.355774199997541,None,None,,,P154,001,2025-04-11_16h17.45.160,posner_endo_new1,2024.2.4,60.014175347863436,2025-04-11 16h17.51.565638 +0100,
cube_r.png,0.1,0.31,valid,35,35,0,down,4.299026499997126,None,space,0.44591540000692476,None,,,,,,,,,0,35,35,35,971.9865356000082,,,,,,,,,,,,,971.9709505000064,971.9865356000082,971.9865356000082,971.9865356000082,976.2999076000124,,,,976.3132961000083,976.3255805000081,976.3255805000081,976.366025100011,976.366723900006,976.3823543000035,976.3823543000035,976.3823543000035,976.4489687000023,976.8345568000077,,,,,,,,,,,,,,,,,,,,,,down,4.299026499997126,None,space,0.44591540000692476,None,P154,001,2025-04-11_16h17.45.160,posner_endo_new1,2024.2.4,60.014175347863436,2025-04-11 16h17.51.565638 +0100,
cube_r.png,0.1,-0.31,invalid,36,36,0,down,8.501152400000137,None,space,0.3775152000016533,None,,,,,,,,,0,36,36,36,976.8488615000097,,,,,,,,,,,,,976.835149800012,976.8488615000097,976.8488615000097,976.8488615000097,985.3590187000082,,,,985.3778225999995,985.388445500008,985.388445500008,985.4229067999986,985.4233582000015,985.439214500002,985.439214500002,985.439214500002,985.5224798999989,985.8231680000026,,,,,,,,,,,,,,,,,,,,,,down,8.501152400000137,None,space,0.3775152000016533,None,P154,001,2025-04-11_16h17.45.160,posner_endo_new1,2024.2.4,60.014175347863436,2025-04-11 16h17.51.565638 +0100,
cube_l.png,0.1,0.31,invalid,37,37,0,down,5.607338599991635,None,space,0.3793852000089828,None,,,,,,,,,0,37,37,37,985.838805700012,,,,,,,,,,,,,985.8234222000028,985.838805700012,985.838805700012,985.838805700012,991.4507303999999,,,,991.4603725000052,991.4701513000036,991.4701513000036,991.5168919999996,991.5171289999998,991.5334108000097,991.5334108000097,991.5334108000097,991.599460700003,991.9171466000116,,,,,,,,,,,,,,,,,,,,,,down,5.607338599991635,None,space,0.3793852000089828,None,P154,001,2025-04-11_16h17.45.160,posner_endo_new1,2024.2.4,60.014175347863436,2025-04-11 16h17.51.565638 +0100,
cube_l.png,0.1,0.31,invalid,38,38,0,down,13.400365199995576,None,space,0.6242531999887433,None,,,,,,,,,0,38,38,38,991.9330144999985,,,,,,,,,,,,,991.9173256000067,991.9330144999985,991.9330144999985,991.9330144999985,1005.3388390000036,,,,1005.3575550000096,1005.3681199999992,1005.3681199999992,1005.4024835000018,1005.4029335000087,1005.4189505000104,1005.4189505000104,1005.4189505000104,1005.5021804999997,1006.0527323999995,,,,,,,,,,,,,,,,,,,,,,down,13.400365199995576,None,space,0.6242531999887433,None,P154,001,2025-04-11_16h17.45.160,posner_endo_new1,2024.2.4,60.014175347863436,2025-04-11 16h17.51.565638 +0100,
cube_r.png,0.1,0.31,valid,39,39,0,down,10.313086100009969,None,space,0.4132947000034619,None,,,,,,,,,0,39,39,39,1006.0685768000112,,,,,,,,,,,,,1006.0529928000033,1006.0685768000112,1006.0685768000112,1006.0685768000112,1016.3918509000068,,,,1016.401697600013,1016.4120092000085,1016.4120092000085,1016.4580944000045,1016.4584113000019,1016.4741648000054,1016.4741648000054,1016.4741648000054,1016.5410742000095,1016.891618900001,,,,,,,,,,,,,,,,,,,,,,down,10.313086100009969,None,space,0.4132947000034619,None,P154,001,2025-04-11_16h17.45.160,posner_endo_new1,2024.2.4,60.014175347863436,2025-04-11 16h17.51.565638 +0100,
cube_l.png,0.1,0.31,invalid,40,40,0,down,6.26581029999943,None,space,0.4355073999904562,None,,,,,,,,,0,40,40,40,1016.9073220999999,,,,,,,,,,,,,1016.8918822999985,1016.9073220999999,1016.9073220999999,1016.9073220999999,1023.1854610000009,,,,1023.1955404000037,1023.2057241000002,1023.2057241000002,1023.2509830000054,1023.2513044000079,1023.2675353000086,1023.2675353000086,1023.2675353000086,1023.3507413000043,1023.7181779000093,,,,,,,,,,,,,,,,,,,,,,down,6.26581029999943,None,space,0.4355073999904562,None,P154,001,2025-04-11_16h17.45.160,posner_endo_new1,2024.2.4,60.014175347863436,2025-04-11 16h17.51.565638 +0100,
cube_l.png,0.1,10,catch,41,41,0,down,3.296222700009821,None,None,,,,,,,,,,,0,41,41,41,1023.7336839000054,,,,,,,,,,,,,1023.7184356000071,1023.7336839000054,1023.7336839000054,1023.7336839000054,1027.0311772999994,,,,1027.0423221000092,1027.0547838000057,1027.0547838000057,1027.0974464000028,1027.09814490001,1027.1138082000107,1027.1138082000107,1027.1138082000107,1027.1803895000048,1030.1120576000103,,,,1029.194965600007,1030.1273546000011,1030.1273546000011,1030.1273546000011,,,,,,,,,,,,,,,down,3.296222700009821,None,None,,,P154,001,2025-04-11_16h17.45.160,posner_endo_new1,2024.2.4,60.014175347863436,2025-04-11 16h17.51.565638 +0100,
cube_l.png,0.1,-0.31,valid,42,42,0,down,5.2790846999996575,None,space,0.3341551000048639,None,,,,,,,,,0,42,42,42,1030.1273546000011,,,,,,,,,,,,,1030.1125995000039,1030.1273546000011,1030.1273546000011,1030.1273546000011,1035.4240800000116,,,,1035.4477213000064,1035.4593023000052,1035.4593023000052,1035.4883622000052,1035.488797500002,1035.504676800003,1035.504676800003,1035.504676800003,1035.5880488000112,1035.8552681,,,,,,,,,,,,,,,,,,,,,,down,5.2790846999996575,None,space,0.3341551000048639,None,P154,001,2025-04-11_16h17.45.160,posner_endo_new1,2024.2.4,60.014175347863436,2025-04-11 16h17.51.565638 +0100,
cube_l.png,0.1,10,catch,43,43,0,down,6.142602699997951,None,None,,,,,,,,,,,0,43,43,43,1035.870912000013,,,,,,,,,,,,,1035.8555087999994,1035.870912000013,1035.870912000013,1035.870912000013,1042.0158818000054,,,,1042.0248285000125,1042.0351250000094,1042.0351250000094,1042.0813941000088,1042.0816923000093,1042.0978499000048,1042.0978499000048,1042.0978499000048,1042.1813002000126,1045.0954685000033,,,,1044.1957155000127,1045.111440400011,1045.111440400011,1045.111440400011,,,,,,,,,,,,,,,down,6.142602699997951,None,None,,,P154,001,2025-04-11_16h17.45.160,posner_endo_new1,2024.2.4,60.014175347863436,2025-04-11 16h17.51.565638 +0100,
cube_l.png,0.1,0.31,invalid,44,44,0,down,3.2862229000020307,None,space,0.41486560000339523,None,,,,,,,,,0,44,44,44,1045.111440400011,,,,,,,,,,,,,1045.0956883000035,1045.111440400011,1045.111440400011,1045.111440400011,1048.409224300005,,,,1048.4181061000127,1048.4279787000123,1048.4279787000123,1048.4748413000052,1048.4751311,1048.4915550000005,1048.4915550000005,1048.4915550000005,1048.5748545000097,1048.9087294000055,,,,,,,,,,,,,,,,,,,,,,down,3.2862229000020307,None,space,0.41486560000339523,None,P154,001,2025-04-11_16h17.45.160,posner_endo_new1,2024.2.4,60.014175347863436,2025-04-11 16h17.51.565638 +0100,
cube_l.png,0.1,0.31,invalid,45,45,0,down,6.578138900003978,None,space,0.5372804999933578,None,,,,,,,,,0,45,45,45,1048.924299700011,,,,,,,,,,,,,1048.9089587000053,1048.924299700011,1048.924299700011,1048.924299700011,1055.5188115000055,,,,1055.527628300013,1055.5377808000048,1055.5377808000048,1055.5842254000017,1055.5845131000096,1055.600921300007,1055.600921300007,1055.600921300007,1055.6839545000112,1056.1514191000024,,,,,,,,,,,,,,,,,,,,,,down,6.578138900003978,None,space,0.5372804999933578,None,P154,001,2025-04-11_16h17.45.160,posner_endo_new1,2024.2.4,60.014175347863436,2025-04-11 16h17.51.565638 +0100,
cube_r.png,0.1,0.31,valid,46,46,0,down,5.863265999985742,None,space,0.3403210999967996,None,,,,,,,,,0,46,46,46,1056.1667875999992,,,,,,,,,,,,,1056.1516473000083,1056.1667875999992,1056.1667875999992,1056.1667875999992,1062.0454934000009,,,,1062.054469499999,1062.064512500001,1062.064512500001,1062.1113277000113,1062.1118856000103,1062.1277350000018,1062.1277350000018,1062.1277350000018,1062.2110096000106,1062.4792976000026,,,,,,,,,,,,,,,,,,,,,,down,5.863265999985742,None,space,0.3403210999967996,None,P154,001,2025-04-11_16h17.45.160,posner_endo_new1,2024.2.4,60.014175347863436,2025-04-11 16h17.51.565638 +0100,
cube_l.png,0.1,-0.31,valid,47,47,0,down,4.871344799990766,None,space,0.43280149999191053,None,,,,,,,,,0,47,47,47,1062.4940612000064,,,,,,,,,,,,,1062.4797830000025,1062.4940612000064,1062.4940612000064,1062.4940612000064,1067.3743011000042,,,,1067.393341700008,1067.404710200004,1067.404710200004,1067.4392222000024,1067.4397891000117,1067.4555689000117,1067.4555689000117,1067.4555689000117,1067.538846800002,1067.890701100012,,,,,,,,,,,,,,,,,,,,,,down,4.871344799990766,None,space,0.43280149999191053,None,P154,001,2025-04-11_16h17.45.160,posner_endo_new1,2024.2.4,60.014175347863436,2025-04-11 16h17.51.565638 +0100,
cube_r.png,0.1,-0.31,invalid,48,48,0,down,5.124829599997611,None,space,0.35863469999458175,None,,,,,,,,,0,48,48,48,1067.905138400005,,,,,,,,,,,,,1067.891179000013,1067.905138400005,1067.905138400005,1067.905138400005,1073.0354091000045,,,,1073.0542959000013,1073.0657847000111,1073.0657847000111,1073.0994650000066,1073.099763300008,1073.1162670000049,1073.1162670000049,1073.1162670000049,1073.1996300000028,1073.4834755000047,,,,,,,,,,,,,,,,,,,,,,down,5.124829599997611,None,space,0.35863469999458175,None,P154,001,2025-04-11_16h17.45.160,posner_endo_new1,2024.2.4,60.014175347863436,2025-04-11 16h17.51.565638 +0100,
cube_r.png,0.1,10,catch,49,49,0,down,4.8830449000088265,None,None,,,,,,,,,,,0,49,49,49,1073.499099400011,,,,,,,,,,,,,1073.483712900008,1073.499099400011,1073.499099400011,1073.499099400011,1078.3963155000092,,,,1078.415140000012,1078.4264320000075,1078.4264320000075,1078.460991400003,1078.4613352000015,1078.477601400009,1078.477601400009,1078.477601400009,1078.560571000009,1081.4759368000086,,,,1080.5755496000056,1081.491201500001,1081.491201500001,1081.491201500001,,,,,,,,,,,,,,,down,4.8830449000088265,None,None,,,P154,001,2025-04-11_16h17.45.160,posner_endo_new1,2024.2.4,60.014175347863436,2025-04-11 16h17.51.565638 +0100,
cube_l.png,0.1,-0.31,valid,50,50,0,down,2.874714200006565,None,space,0.41135450000001583,None,,,,,,,,,0,50,50,50,1081.491201500001,,,,,,,,,,,,,1081.4763811000012,1081.491201500001,1081.491201500001,1081.491201500001,1084.3736423000082,,,,1084.392612200012,1084.4042747000058,1084.4042747000058,1084.4380892000045,1084.4383734000003,1084.4543612999987,1084.4543612999987,1084.4543612999987,1084.5380739000102,1084.8718585000024,,,,,,,,,,,,,,,,,,,,,,down,2.874714200006565,None,space,0.41135450000001583,None,P154,001,2025-04-11_16h17.45.160,posner_endo_new1,2024.2.4,60.014175347863436,2025-04-11 16h17.51.565638 +0100,
cube_l.png,0.1,-0.31,valid,51,51,0,down,9.045500899999752,None,space,0.36813139999867417,None,,,,,,,,,0,51,51,51,1084.887802000012,,,,,,,,,,,,,1084.8720300999994,1084.887802000012,1084.887802000012,1084.887802000012,1093.945868499999,,,,1093.9548434000026,1093.9651759000117,1093.9651759000117,1094.0114940000058,1094.0117926000094,1094.0281243000063,1094.0281243000063,1094.0281243000063,1094.111313900008,1094.4119852000003,,,,,,,,,,,,,,,,,,,,,,down,9.045500899999752,None,space,0.36813139999867417,None,P154,001,2025-04-11_16h17.45.160,posner_endo_new1,2024.2.4,60.014175347863436,2025-04-11 16h17.51.565638 +0100,
cube_r.png,0.1,-0.31,invalid,52,52,0,down,5.7535313999978825,None,space,0.32197099999757484,None,,,,,,,,,0,52,52,52,1094.4275826000085,,,,,,,,,,,,,1094.4122269000072,1094.4275826000085,1094.4275826000085,1094.4275826000085,1100.189858800004,,,,1100.1998205000127,1100.2097837000038,1100.2097837000038,1100.2552522000042,1100.25557020001,1100.2720491000073,1100.2720491000073,1100.2720491000073,1100.3553896000085,1100.606115100003,,,,,,,,,,,,,,,,,,,,,,down,5.7535313999978825,None,space,0.32197099999757484,None,P154,001,2025-04-11_16h17.45.160,posner_endo_new1,2024.2.4,60.014175347863436,2025-04-11 16h17.51.565638 +0100,
cube_l.png,0.1,-0.31,valid,53,53,0,down,7.391747599991504,None,space,0.32059460000891704,None,,,,,,,,,0,53,53,53,1100.6216874000093,,,,,,,,,,,,,1100.6064358000003,1100.6216874000093,1100.6216874000093,1100.6216874000093,1108.0155723000062,,,,1108.025589500001,1108.0355974000122,1108.0355974000122,1108.0805857000087,1108.0809025000053,1108.0969597000076,1108.0969597000076,1108.0969597000076,1108.1802689000033,1108.4311208,,,,,,,,,,,,,,,,,,,,,,down,7.391747599991504,None,space,0.32059460000891704,None,P154,001,2025-04-11_16h17.45.160,posner_endo_new1,2024.2.4,60.014175347863436,2025-04-11 16h17.51.565638 +0100,
cube_r.png,0.1,10,catch,54,54,0,down,4.759105599994655,None,None,,,,,,,,,,,0,54,54,54,1108.446643800009,,,,,,,,,,,,,1108.4313739000063,1108.446643800009,1108.446643800009,1108.446643800009,1113.2096077000024,,,,1113.2194569999992,1113.2296458000055,1113.2296458000055,1113.2751786000008,1113.275493500012,1113.29173550001,1113.29173550001,1113.29173550001,1113.3582841000025,1116.2892729000014,,,,1115.3729424000048,1116.3052714000078,1116.3052714000078,1116.3052714000078,,,,,,,,,,,,,,,down,4.759105599994655,None,None,,,P154,001,2025-04-11_16h17.45.160,posner_endo_new1,2024.2.4,60.014175347863436,2025-04-11 16h17.51.565638 +0100,
cube_l.png,0.1,0.31,invalid,55,55,0,down,5.6127681999932975,None,space,0.34912089999124873,None,,,,,,,,,0,55,55,55,1116.3052714000078,,,,,,,,,,,,,1116.289513900003,1116.3052714000078,1116.3052714000078,1116.3052714000078,1121.9356986000057,,,,1121.9590417,1121.9690711000003,1121.9690711000003,1121.999712200006,1122.0001128000004,1122.0160976000043,1122.0160976000043,1122.0160976000043,1122.0994461000082,1122.3667966000066,,,,,,,,,,,,,,,,,,,,,,down,5.6127681999932975,None,space,0.34912089999124873,None,P154,001,2025-04-11_16h17.45.160,posner_endo_new1,2024.2.4,60.014175347863436,2025-04-11 16h17.51.565638 +0100,
cube_l.png,0.1,-0.31,valid,56,56,0,down,6.606920400008676,None,space,0.3573584999976447,None,,,,,,,,,0,56,56,56,1122.3823402000125,,,,,,,,,,,,,1122.3670267000125,1122.3823402000125,1122.3823402000125,1122.3823402000125,1128.9933979000052,,,,1129.002097500008,1129.0121604000014,1129.0121604000014,1129.059401800012,1129.0599119000108,1129.0758637000108,1129.0758637000108,1129.0758637000108,1129.1590547000087,1129.4440344000031,,,,,,,,,,,,,,,,,,,,,,down,6.606920400008676,None,space,0.3573584999976447,None,P154,001,2025-04-11_16h17.45.160,posner_endo_new1,2024.2.4,60.014175347863436,2025-04-11 16h17.51.565638 +0100,
cube_r.png,0.1,0.31,valid,57,57,0,down,7.042639500010409,None,space,0.32552969999960624,None,,,,,,,,,0,57,57,57,1129.4587427000079,,,,,,,,,,,,,1129.4444779000041,1129.4587427000079,1129.4587427000079,1129.4587427000079,1136.5030100000004,,,,1136.5195740000054,1136.5319234000053,1136.5319234000053,1136.568227300013,1136.5686757000076,1136.5846401000017,1136.5846401000017,1136.5846401000017,1136.667995300013,1136.9190573000087,,,,,,,,,,,,,,,,,,,,,,down,7.042639500010409,None,space,0.32552969999960624,None,P154,001,2025-04-11_16h17.45.160,posner_endo_new1,2024.2.4,60.014175347863436,2025-04-11 16h17.51.565638 +0100,
cube_r.png,0.1,-0.31,invalid,58,58,0,down,6.8470845999981975,None,space,0.3286504999996396,None,,,,,,,,,0,58,58,58,1136.9343105000007,,,,,,,,,,,,,1136.919429600006,1136.9343105000007,1136.9343105000007,1136.9343105000007,1143.795362200006,,,,1143.805312100012,1143.8155711,1143.8155711,1143.860647300011,1143.8609731000033,1143.8774667000107,1143.8774667000107,1143.8774667000107,1143.960300900013,1144.211136900005,,,,,,,,,,,,,,,,,,,,,,down,6.8470845999981975,None,space,0.3286504999996396,None,P154,001,2025-04-11_16h17.45.160,posner_endo_new1,2024.2.4,60.014175347863436,2025-04-11 16h17.51.565638 +0100,
cube_l.png,0.1,0.31,invalid,59,59,0,down,7.163134700007504,None,space,0.3540554999926826,None,,,,,,,,,0,59,59,59,1144.226778700002,,,,,,,,,,,,,1144.2113938000111,1144.226778700002,1144.226778700002,1144.226778700002,1151.4039112000028,,,,1151.4101586000033,1151.4216894000128,1151.4216894000128,1151.469901000004,1151.470135200012,1151.4857456000027,1151.4857456000027,1151.4857456000027,1151.5690179000085,1151.853614800013,,,,,,,,,,,,,,,,,,,,,,down,7.163134700007504,None,space,0.3540554999926826,None,P154,001,2025-04-11_16h17.45.160,posner_endo_new1,2024.2.4,60.014175347863436,2025-04-11 16h17.51.565638 +0100,
