target_y,target_x,thisN,thisTrialN,thisRepN,key_control2.keys,key_control2.rt,key_control2.duration,key_resp.keys,key_resp.rt,key_resp.duration,practice.thisRepN,practice.thisTrialN,practice.thisN,practice.thisIndex,session_1.thisRepN,session_1.thisTrialN,session_1.thisN,session_1.thisIndex,session_2.thisRepN,session_2.thisTrialN,session_2.thisN,session_2.thisIndex,thisRow.t,notes,instructions.started,instructions_txt.started,key_control.started,instructions.stopped,key_control.keys,key_control.rt,key_control.duration,ready.started,ready_txt.started,ready.stopped,fix.started,key_control2.started,fixation_cross.started,fix.stopped,practice.key_control2.keys,practice.key_control2.rt,practice.key_control2.duration,target.started,star.started,fixation_cross_target.started,key_resp.started,star.stopped,target.stopped,practice.key_resp.keys,practice.key_resp.rt,practice.key_resp.duration,session_1.key_control2.keys,session_1.key_control2.rt,session_1.key_control2.duration,session_1.key_resp.keys,session_1.key_resp.rt,session_1.key_resp.duration,break_2.started,text.started,key_control3.started,break_2.stopped,key_control3.keys,session_2.key_control2.keys,session_2.key_control2.rt,session_2.key_control2.duration,session_2.key_resp.keys,session_2.key_resp.rt,session_2.key_resp.duration,participant,session,date,expName,psychopyVersion,frameRate,expStart,
,,,,,,,,,,,,,,,,,,,,,,,,,0.007490099999998279,0.023499499999999784,0.023499499999999784,464.89945019999993,up,464.8634457999999,None,,,,,,,,,,,,,,,,,,,,,,,,,,,,,,,,,,,,,P101,001,2024-11-12_14h20.12.744,posner_endo_new1,2024.2.4,60.041092123453396,2024-11-12 14h20.19.836295 +0000,
,,,,,,,,,,,,,,,,,,,,,,,,,,,,,,,,464.89950339999996,464.91529919999994,467.91246639999997,,,,,,,,,,,,,,,,,,,,,,,,,,,,,,,,,,P101,001,2024-11-12_14h20.12.744,posner_endo_new1,2024.2.4,60.041092123453396,2024-11-12 14h20.19.836295 +0000,
-0.31,0.005,0,0,0,down,3.796616100000051,None,space,0.51727249999999,None,0,0,0,2,,,,,,,,,467.92999199999997,,,,,,,,,,,,467.9190449,467.92999199999997,467.92999199999997,471.74233019999997,down,3.796616100000051,None,471.74259459999996,471.7581235,471.7581235,471.7581235,472.0579518999999,472.2917049,space,0.51727249999999,None,,,,,,,,,,,,,,,,,,P101,001,2024-11-12_14h20.12.744,posner_endo_new1,2024.2.4,60.041092123453396,2024-11-12 14h20.19.836295 +0000,
0.005,0.31,1,1,0,up,4.434908599999972,None,space,0.31132669999999507,None,0,1,1,8,,,,,,,,,472.3078557,,,,,,,,,,,,472.29185859999996,472.3078557,472.3078557,476.75371399999995,up,4.434908599999972,None,476.7539547,476.7699815,476.7699815,476.7699815,477.06945239999993,477.0870092,space,0.31132669999999507,None,,,,,,,,,,,,,,,,,,P101,001,2024-11-12_14h20.12.744,posner_endo_new1,2024.2.4,60.041092123453396,2024-11-12 14h20.19.836295 +0000,
-0.31,0.005,2,2,0,down,2.9354835999999978,None,space,0.3433548000000428,None,0,2,2,0,,,,,,,,,477.1028586,,,,,,,,,,,,477.0871585,477.1028586,477.1028586,480.05035869999995,down,2.9354835999999978,None,480.0506021,480.0665533,480.0665533,480.0665533,480.3656424999999,480.41635729999996,space,0.3433548000000428,None,,,,,,,,,,,,,,,,,,P101,001,2024-11-12_14h20.12.744,posner_endo_new1,2024.2.4,60.041092123453396,2024-11-12 14h20.19.836295 +0000,
0.31,0.005,3,3,0,down,6.246427700000027,None,space,0.3170124999999189,None,0,3,3,1,,,,,,,,,480.4325024,,,,,,,,,,,,480.4165101,480.4325024,480.4325024,486.6937437,down,6.246427700000027,None,486.69398509999996,486.7094351999999,486.7094351999999,486.7094351999999,487.00947099999996,487.0271388,space,0.3170124999999189,None,,,,,,,,,,,,,,,,,,P101,001,2024-11-12_14h20.12.744,posner_endo_new1,2024.2.4,60.041092123453396,2024-11-12 14h20.19.836295 +0000,
10,0.005,4,4,0,up,3.396368900000084,None,None,,,0,4,4,4,,,,,,,,,487.0426845999999,,,,,,,,,,,,487.027291,487.0426845999999,487.0426845999999,490.4398145,up,3.396368900000084,None,490.4400574,490.4560215,490.4560215,490.4560215,490.75562519999994,493.4529949,None,,,,,,,,,,,,,,,,,,,,P101,001,2024-11-12_14h20.12.744,posner_endo_new1,2024.2.4,60.041092123453396,2024-11-12 14h20.19.836295 +0000,
0.005,0.31,5,5,0,down,0.08887559999993755,None,space,0.277350800000022,None,0,5,5,6,,,,,,,,,493.46939629999997,,,,,,,,,,,,493.4531462,493.46939629999997,493.46939629999997,493.570151,down,0.08887559999993755,None,493.5703925,493.5862202999999,493.5862202999999,493.5862202999999,493.8857006999999,493.8693554,space,0.277350800000022,None,,,,,,,,,,,,,,,,,,P101,001,2024-11-12_14h20.12.744,posner_endo_new1,2024.2.4,60.041092123453396,2024-11-12 14h20.19.836295 +0000,
0.005,-0.31,6,6,0,up,3.3204392999999754,None,space,0.45348230000001877,None,0,6,6,5,,,,,,,,,493.8857006999999,,,,,,,,,,,,493.8695035999999,493.8857006999999,493.8857006999999,497.2160288,up,3.3204392999999754,None,497.21626879999997,497.2323023,497.2323023,497.2323023,497.5320659,497.6990691,space,0.45348230000001877,None,,,,,,,,,,,,,,,,,,P101,001,2024-11-12_14h20.12.744,posner_endo_new1,2024.2.4,60.041092123453396,2024-11-12 14h20.19.836295 +0000,
0.005,10,7,7,0,down,2.6595283999999992,None,None,,,0,7,7,9,,,,,,,,,497.7151210999999,,,,,,,,,,,,497.6992205,497.7151210999999,497.7151210999999,500.3794749,down,2.6595283999999992,None,500.3797134,500.39492269999994,500.39492269999994,500.39492269999994,500.6953926,503.3927953,None,,,,,,,,,,,,,,,,,,,,P101,001,2024-11-12_14h20.12.744,posner_endo_new1,2024.2.4,60.041092123453396,2024-11-12 14h20.19.836295 +0000,
0.31,0.005,8,8,0,up,1.0608751999999413,None,space,0.4067083999999568,None,0,8,8,3,,,,,,,,,503.4093865,,,,,,,,,,,,503.39294899999993,503.4093865,503.4093865,504.4755514,up,1.0608751999999413,None,504.4757945,504.4915095,504.4915095,504.4915095,504.7911709,504.90829099999996,space,0.4067083999999568,None,,,,,,,,,,,,,,,,,,P101,001,2024-11-12_14h20.12.744,posner_endo_new1,2024.2.4,60.041092123453396,2024-11-12 14h20.19.836295 +0000,
0.005,-0.31,9,9,0,down,11.874610400000051,None,space,0.35540789999993194,None,0,9,9,7,,,,,,,,,504.92448619999993,,,,,,,,,,,,504.9084472999999,504.92448619999993,504.92448619999993,516.8137616,down,11.874610400000051,None,516.8143374,516.8286068,516.8286068,516.8286068,517.1282759999999,517.1966824,space,0.35540789999993194,None,,,,,,,,,,,,,,,,,,P101,001,2024-11-12_14h20.12.744,posner_endo_new1,2024.2.4,60.041092123453396,2024-11-12 14h20.19.836295 +0000,
,,,,,,,,,,,,,,,,,,,,,,,,,,,,,,,,517.1969535999999,517.2115497,520.2086429,,,,,,,,,,,,,,,,,,,,,,,,,,,,,,,,,,P101,001,2024-11-12_14h20.12.744,posner_endo_new1,2024.2.4,60.041092123453396,2024-11-12 14h20.19.836295 +0000,
0.005,-0.31,0,0,0,up,0.5728820000000496,None,space,0.3943556000000399,None,,,,,0,0,0,5,,,,,520.2342103,,,,,,,,,,,,520.2253916999999,520.2342103,520.2342103,520.8097698,,,,520.8103704,520.8245514,520.8245514,520.8245514,521.124226,521.2258186,,,,up,0.5728820000000496,None,space,0.3943556000000399,None,,,,,,,,,,,,P101,001,2024-11-12_14h20.12.744,posner_endo_new1,2024.2.4,60.041092123453396,2024-11-12 14h20.19.836295 +0000,
10,0.005,1,1,0,down,4.173512200000005,None,None,,,,,,,0,1,1,4,,,,,521.240739,,,,,,,,,,,,521.226223,521.240739,521.240739,525.4210840999999,,,,525.4214806,525.4367487,525.4367487,525.4367487,525.7362926,528.4336910999999,,,,down,4.173512200000005,None,None,,,,,,,,,,,,,,P101,001,2024-11-12_14h20.12.744,posner_endo_new1,2024.2.4,60.041092123453396,2024-11-12 14h20.19.836295 +0000,
0.31,0.005,2,2,0,up,0.1247829000000138,None,space,0.3131611999999677,None,,,,,0,2,2,1,,,,,528.4503905,,,,,,,,,,,,528.4338687,528.4503905,528.4503905,528.5844566,,,,528.5847286999999,528.6003066,528.6003066,528.6003066,528.8998323,528.916967,,,,up,0.1247829000000138,None,space,0.3131611999999677,None,,,,,,,,,,,,P101,001,2024-11-12_14h20.12.744,posner_endo_new1,2024.2.4,60.041092123453396,2024-11-12 14h20.19.836295 +0000,
0.31,0.005,3,3,0,down,3.505068100000017,None,space,0.3138522000000421,None,,,,,0,3,3,3,,,,,528.9331493,,,,,,,,,,,,528.9171465,528.9331493,528.9331493,532.4471113,,,,532.4473851,532.4629696,532.4629696,532.4629696,532.7626389999999,532.7800599999999,,,,down,3.505068100000017,None,space,0.3138522000000421,None,,,,,,,,,,,,P101,001,2024-11-12_14h20.12.744,posner_endo_new1,2024.2.4,60.041092123453396,2024-11-12 14h20.19.836295 +0000,
-0.31,0.005,4,4,0,up,3.1071801000000505,None,space,0.3050982000000886,None,,,,,0,4,4,0,,,,,532.7956204,,,,,,,,,,,,532.7802388,532.7956204,532.7956204,535.9100960999999,,,,535.9103686999999,535.9260283,535.9260283,535.9260283,536.2258826,536.2431821,,,,up,3.1071801000000505,None,space,0.3050982000000886,None,,,,,,,,,,,,P101,001,2024-11-12_14h20.12.744,posner_endo_new1,2024.2.4,60.041092123453396,2024-11-12 14h20.19.836295 +0000,
0.005,10,5,5,0,down,3.2192778000001,None,None,,,,,,,0,5,5,9,,,,,536.2590858,,,,,,,,,,,,536.2433624,536.2590858,536.2590858,539.4898044,,,,539.4900772999999,539.5056635,539.5056635,539.5056635,539.8054224,542.5028592,,,,down,3.2192778000001,None,None,,,,,,,,,,,,,,P101,001,2024-11-12_14h20.12.744,posner_endo_new1,2024.2.4,60.041092123453396,2024-11-12 14h20.19.836295 +0000,
0.005,0.31,6,6,0,up,0.7276737000000821,None,space,0.2847637999999506,None,,,,,0,6,6,6,,,,,542.519354,,,,,,,,,,,,542.5030349,542.519354,542.519354,543.252761,,,,543.2530446,543.2686514,543.2686514,543.2686514,543.5682307,543.5690744999999,,,,up,0.7276737000000821,None,space,0.2847637999999506,None,,,,,,,,,,,,P101,001,2024-11-12_14h20.12.744,posner_endo_new1,2024.2.4,60.041092123453396,2024-11-12 14h20.19.836295 +0000,
0.005,0.31,7,7,0,down,3.3512084999999843,None,space,0.3735255999999936,None,,,,,0,7,7,8,,,,,543.5849264,,,,,,,,,,,,543.5692478,543.5849264,543.5849264,546.9485757,,,,546.9488451,546.9647593999999,546.9647593999999,546.9647593999999,547.2643412,547.3484295999999,,,,down,3.3512084999999843,None,space,0.3735255999999936,None,,,,,,,,,,,,P101,001,2024-11-12_14h20.12.744,posner_endo_new1,2024.2.4,60.041092123453396,2024-11-12 14h20.19.836295 +0000,
0.005,-0.31,8,8,0,up,3.0349802000000636,None,space,0.29655509999997776,None,,,,,0,8,8,7,,,,,547.3643751,,,,,,,,,,,,547.3486085999999,547.3643751,547.3643751,550.4119135,,,,550.4121878,550.4279329,550.4279329,550.4279329,550.727319,550.7282278,,,,up,3.0349802000000636,None,space,0.29655509999997776,None,,,,,,,,,,,,P101,001,2024-11-12_14h20.12.744,posner_endo_new1,2024.2.4,60.041092123453396,2024-11-12 14h20.19.836295 +0000,
-0.31,0.005,9,9,0,down,3.2466236999999865,None,space,0.4373158000000785,None,,,,,0,9,9,2,,,,,550.7442123999999,,,,,,,,,,,,550.7284062,550.7442123999999,550.7442123999999,553.9916572,,,,553.9919477999999,554.0073638,554.0073638,554.0073638,554.3072313,554.4576621,,,,down,3.2466236999999865,None,space,0.4373158000000785,None,,,,,,,,,,,,P101,001,2024-11-12_14h20.12.744,posner_endo_new1,2024.2.4,60.041092123453396,2024-11-12 14h20.19.836295 +0000,
10,0.005,10,0,1,up,3.085611800000038,None,None,,,,,,,1,0,10,4,,,,,554.4736229,,,,,,,,,,,,554.457845,554.4736229,554.4736229,557.5710746999999,,,,557.5713638999999,557.5873687,557.5873687,557.5873687,557.8868348,560.5842316,,,,up,3.085611800000038,None,None,,,,,,,,,,,,,,P101,001,2024-11-12_14h20.12.744,posner_endo_new1,2024.2.4,60.041092123453396,2024-11-12 14h20.19.836295 +0000,
-0.31,0.005,11,1,1,down,0.7496540999999297,None,space,0.313004400000068,None,,,,,1,1,11,2,,,,,560.6005875999999,,,,,,,,,,,,560.5844202,560.6005875999999,560.6005875999999,561.3510322,,,,561.3513133,561.3666029999999,561.3666029999999,561.3666029999999,561.6664241,561.6840255999999,,,,down,0.7496540999999297,None,space,0.313004400000068,None,,,,,,,,,,,,P101,001,2024-11-12_14h20.12.744,posner_endo_new1,2024.2.4,60.041092123453396,2024-11-12 14h20.19.836295 +0000,
0.005,-0.31,12,2,1,up,3.9466692000000876,None,space,0.3278590999999551,None,,,,,1,2,12,5,,,,,561.6997142,,,,,,,,,,,,561.6842051,561.6997142,561.6997142,565.6630921999999,,,,565.6633706,565.6789391,565.6789391,565.6789391,565.9787504,566.0123873,,,,up,3.9466692000000876,None,space,0.3278590999999551,None,,,,,,,,,,,,P101,001,2024-11-12_14h20.12.744,posner_endo_new1,2024.2.4,60.041092123453396,2024-11-12 14h20.19.836295 +0000,
0.31,0.005,13,3,1,down,3.521864599999958,None,space,0.33214270000007673,None,,,,,1,3,13,1,,,,,566.0286292,,,,,,,,,,,,566.0125666,566.0286292,566.0286292,569.5590202999999,,,,569.5592951,569.5748761,569.5748761,569.5748761,569.8745941999999,569.9088686,,,,down,3.521864599999958,None,space,0.33214270000007673,None,,,,,,,,,,,,P101,001,2024-11-12_14h20.12.744,posner_endo_new1,2024.2.4,60.041092123453396,2024-11-12 14h20.19.836295 +0000,
0.31,0.005,14,4,1,up,3.402387900000008,None,space,0.31149760000005244,None,,,,,1,4,14,3,,,,,569.9242095,,,,,,,,,,,,569.909052,569.9242095,569.9242095,573.3383633999999,,,,573.3386475,573.3543917,573.3543917,573.3543917,573.6540529,573.6717692,,,,up,3.402387900000008,None,space,0.31149760000005244,None,,,,,,,,,,,,P101,001,2024-11-12_14h20.12.744,posner_endo_new1,2024.2.4,60.041092123453396,2024-11-12 14h20.19.836295 +0000,
0.005,-0.31,15,5,1,down,3.0708889,None,space,0.34334209999997256,None,,,,,1,5,15,7,,,,,573.6873143,,,,,,,,,,,,573.6719559,573.6873143,573.6873143,576.7684101,,,,576.7686818999999,576.7842383,576.7842383,576.7842383,577.0839053,577.1343671,,,,down,3.0708889,None,space,0.34334209999997256,None,,,,,,,,,,,,P101,001,2024-11-12_14h20.12.744,posner_endo_new1,2024.2.4,60.041092123453396,2024-11-12 14h20.19.836295 +0000,
0.005,10,16,6,1,up,3.177020099999936,None,None,,,,,,,1,6,16,9,,,,,577.15055,,,,,,,,,,,,577.1345643,577.15055,577.15055,580.331274,,,,580.33156,580.3471549999999,580.3471549999999,580.3471549999999,580.6468589,583.3441646,,,,up,3.177020099999936,None,None,,,,,,,,,,,,,,P101,001,2024-11-12_14h20.12.744,posner_endo_new1,2024.2.4,60.041092123453396,2024-11-12 14h20.19.836295 +0000,
-0.31,0.005,17,7,1,down,1.133017300000006,None,space,0.3324788999999555,None,,,,,1,7,17,0,,,,,583.3611571,,,,,,,,,,,,583.3443378999999,583.3611571,583.3611571,584.5103726,,,,584.5106409,584.5263679999999,584.5263679999999,584.5263679999999,584.8261061,584.8602083999999,,,,down,1.133017300000006,None,space,0.3324788999999555,None,,,,,,,,,,,,P101,001,2024-11-12_14h20.12.744,posner_endo_new1,2024.2.4,60.041092123453396,2024-11-12 14h20.19.836295 +0000,
0.005,0.31,18,8,1,up,4.290161399999988,None,space,0.34687159999998585,None,,,,,1,8,18,6,,,,,584.8761526,,,,,,,,,,,,584.8603959,584.8761526,584.8761526,589.1718728,,,,589.1721466,589.1882095,589.1882095,589.1882095,589.4880056999999,589.5388064,,,,up,4.290161399999988,None,space,0.34687159999998585,None,,,,,,,,,,,,P101,001,2024-11-12_14h20.12.744,posner_endo_new1,2024.2.4,60.041092123453396,2024-11-12 14h20.19.836295 +0000,
0.005,0.31,19,9,1,down,3.917179600000054,None,space,0.38211730000000443,None,,,,,1,9,19,8,,,,,589.5541033,,,,,,,,,,,,589.5389839999999,589.5541033,589.5541033,593.484241,,,,593.4845161999999,593.5005385,593.5005385,593.5005385,593.8002143,593.8843994,,,,down,3.917179600000054,None,space,0.38211730000000443,None,,,,,,,,,,,,P101,001,2024-11-12_14h20.12.744,posner_endo_new1,2024.2.4,60.041092123453396,2024-11-12 14h20.19.836295 +0000,
-0.31,0.005,20,0,2,up,4.027245100000073,None,space,0.40791669999998703,None,,,,,2,0,20,0,,,,,593.9001055,,,,,,,,,,,,593.884591,593.9001055,593.9001055,597.9300115,,,,597.9302799,597.9459026999999,597.9459026999999,597.9459026999999,598.2456873,598.3624449,,,,up,4.027245100000073,None,space,0.40791669999998703,None,,,,,,,,,,,,P101,001,2024-11-12_14h20.12.744,posner_endo_new1,2024.2.4,60.041092123453396,2024-11-12 14h20.19.836295 +0000,
0.005,0.31,21,1,2,down,3.7718611999999894,None,space,0.3614429999998947,None,,,,,2,1,21,6,,,,,598.3788956999999,,,,,,,,,,,,598.3626234,598.3788956999999,598.3788956999999,602.1589814,,,,602.1592502,602.1749781999999,602.1749781999999,602.1749781999999,602.4745839999999,602.5420729,,,,down,3.7718611999999894,None,space,0.3614429999998947,None,,,,,,,,,,,,P101,001,2024-11-12_14h20.12.744,posner_endo_new1,2024.2.4,60.041092123453396,2024-11-12 14h20.19.836295 +0000,
0.005,-0.31,22,2,2,up,4.264569700000038,None,space,0.3571120999999948,None,,,,,2,2,22,5,,,,,602.5579366999999,,,,,,,,,,,,602.5422516,602.5579366999999,602.5579366999999,606.8374179,,,,606.8376797,606.8534085,606.8534085,606.8534085,607.1531553,607.2204742,,,,up,4.264569700000038,None,space,0.3571120999999948,None,,,,,,,,,,,,P101,001,2024-11-12_14h20.12.744,posner_endo_new1,2024.2.4,60.041092123453396,2024-11-12 14h20.19.836295 +0000,
0.005,0.31,23,3,2,down,3.7221711999999343,None,space,0.34053959999994277,None,,,,,2,3,23,8,,,,,607.2365778,,,,,,,,,,,,607.2206351,607.2365778,607.2365778,610.96695,,,,610.9674438,610.9821211999999,610.9821211999999,610.9821211999999,611.2818394,611.3332171,,,,down,3.7221711999999343,None,space,0.34053959999994277,None,,,,,,,,,,,,P101,001,2024-11-12_14h20.12.744,posner_endo_new1,2024.2.4,60.041092123453396,2024-11-12 14h20.19.836295 +0000,
0.005,10,24,4,2,up,2.802520399999935,None,None,,,,,,,2,4,24,9,,,,,611.3484718,,,,,,,,,,,,611.3335558,611.3484718,611.3484718,614.1636404,,,,614.1641460999999,614.1788789999999,614.1788789999999,614.1788789999999,614.4790259,617.1763515,,,,up,2.802520399999935,None,None,,,,,,,,,,,,,,P101,001,2024-11-12_14h20.12.744,posner_endo_new1,2024.2.4,60.041092123453396,2024-11-12 14h20.19.836295 +0000,
0.005,-0.31,25,5,2,down,1.1896427000000358,None,space,0.25811739999994643,None,,,,,2,5,25,7,,,,,617.1928507,,,,,,,,,,,,617.176567,617.1928507,617.1928507,618.3925101,,,,618.3928463999999,618.4083611,618.4083611,618.4083611,,618.675663,,,,down,1.1896427000000358,None,space,0.25811739999994643,None,,,,,,,,,,,,P101,001,2024-11-12_14h20.12.744,posner_endo_new1,2024.2.4,60.041092123453396,2024-11-12 14h20.19.836295 +0000,
0.31,0.005,26,6,2,up,4.539462300000082,None,space,0.32236690000002,None,,,,,2,6,26,1,,,,,618.6913746,,,,,,,,,,,,618.6758926,618.6913746,618.6913746,623.2376342,,,,623.2380003,623.2532506,623.2532506,623.2532506,623.5529548,623.5873296,,,,up,4.539462300000082,None,space,0.32236690000002,None,,,,,,,,,,,,P101,001,2024-11-12_14h20.12.744,posner_endo_new1,2024.2.4,60.041092123453396,2024-11-12 14h20.19.836295 +0000,
0.31,0.005,27,7,2,down,4.219592699999907,None,space,0.38616720000004534,None,,,,,2,7,27,3,,,,,623.6029055,,,,,,,,,,,,623.587577,623.6029055,623.6029055,627.8329620999999,,,,627.8333011,627.8485941,627.8485941,627.8485941,628.1482863,628.2491494,,,,down,4.219592699999907,None,space,0.38616720000004534,None,,,,,,,,,,,,P101,001,2024-11-12_14h20.12.744,posner_endo_new1,2024.2.4,60.041092123453396,2024-11-12 14h20.19.836295 +0000,
10,0.005,28,8,2,up,3.1822884000000613,None,None,,,,,,,2,8,28,4,,,,,628.2647336,,,,,,,,,,,,628.2493753,628.2647336,628.2647336,631.4626062,,,,631.4629444,631.478207,631.478207,631.478207,631.7775737,634.4752788,,,,up,3.1822884000000613,None,None,,,,,,,,,,,,,,P101,001,2024-11-12_14h20.12.744,posner_endo_new1,2024.2.4,60.041092123453396,2024-11-12 14h20.19.836295 +0000,
-0.31,0.005,29,9,2,down,0.5393723999999338,None,space,0.2847033000000465,None,,,,,2,9,29,2,,,,,634.4919120999999,,,,,,,,,,,,634.4754955,634.4919120999999,634.4919120999999,635.0421328,,,,635.0424843,635.0579702,635.0579702,635.0579702,635.3572436,635.3582933,,,,down,0.5393723999999338,None,space,0.2847033000000465,None,,,,,,,,,,,,P101,001,2024-11-12_14h20.12.744,posner_endo_new1,2024.2.4,60.041092123453396,2024-11-12 14h20.19.836295 +0000,
-0.31,0.005,30,0,3,up,5.04014559999996,None,space,0.34857420000003003,None,,,,,3,0,30,0,,,,,635.3742404999999,,,,,,,,,,,,635.358514,635.3742404999999,635.3742404999999,640.4202018999999,,,,640.4205557,640.43578,640.43578,640.43578,640.7352129999999,640.7863539,,,,up,5.04014559999996,None,space,0.34857420000003003,None,,,,,,,,,,,,P101,001,2024-11-12_14h20.12.744,posner_endo_new1,2024.2.4,60.041092123453396,2024-11-12 14h20.19.836295 +0000,
0.005,10,31,1,3,down,3.3575700999999754,None,None,,,,,,,3,1,31,9,,,,,640.801976,,,,,,,,,,,,640.7865803,640.801976,640.801976,644.1664485,,,,644.1667951,644.1819145,644.1819145,644.1819145,644.4815785999999,647.1789619,,,,down,3.3575700999999754,None,None,,,,,,,,,,,,,,P101,001,2024-11-12_14h20.12.744,posner_endo_new1,2024.2.4,60.041092123453396,2024-11-12 14h20.19.836295 +0000,
0.005,0.31,32,2,3,down,2.6673266999999896,None,space,0.4082809000000225,None,,,,,3,2,32,6,,,,,647.1955307,,,,,,,,,,,,647.1791777,647.1955307,647.1955307,649.8770714999999,,,,649.8774096999999,649.8928091,649.8928091,649.8928091,650.1923737,650.3100997,,,,down,2.6673266999999896,None,space,0.4082809000000225,None,,,,,,,,,,,,P101,001,2024-11-12_14h20.12.744,posner_endo_new1,2024.2.4,60.041092123453396,2024-11-12 14h20.19.836295 +0000,
-0.31,0.005,33,3,3,up,3.752965300000028,None,space,0.38433229999998275,None,,,,,3,3,33,2,,,,,650.3255494,,,,,,,,,,,,650.3103295,650.3255494,650.3255494,654.0891686,,,,654.0895211,654.1051150999999,654.1051150999999,654.1051150999999,654.4047446,654.5057603,,,,up,3.752965300000028,None,space,0.38433229999998275,None,,,,,,,,,,,,P101,001,2024-11-12_14h20.12.744,posner_endo_new1,2024.2.4,60.041092123453396,2024-11-12 14h20.19.836295 +0000,
0.31,0.005,34,4,3,down,2.95754050000005,None,space,0.32549489999996695,None,,,,,3,4,34,3,,,,,654.5212399999999,,,,,,,,,,,,654.505998,654.5212399999999,654.5212399999999,657.485896,,,,657.4862388,657.5012528,657.5012528,657.5012528,657.8012875,657.8357214,,,,down,2.95754050000005,None,space,0.32549489999996695,None,,,,,,,,,,,,P101,001,2024-11-12_14h20.12.744,posner_endo_new1,2024.2.4,60.041092123453396,2024-11-12 14h20.19.836295 +0000,
0.31,0.005,35,5,3,up,2.7231041000000005,None,space,0.37163359999999557,None,,,,,3,5,35,1,,,,,657.8511539,,,,,,,,,,,,657.8359631999999,657.8511539,657.8511539,660.5828482,,,,660.5831968,660.5984092,660.5984092,660.5984092,660.897957,660.982488,,,,up,2.7231041000000005,None,space,0.37163359999999557,None,,,,,,,,,,,,P101,001,2024-11-12_14h20.12.744,posner_endo_new1,2024.2.4,60.041092123453396,2024-11-12 14h20.19.836295 +0000,
10,0.005,36,6,3,down,3.0566321999999673,None,None,,,,,,,3,6,36,4,,,,,660.9979187,,,,,,,,,,,,660.9827219,660.9979187,660.9979187,664.0625494999999,,,,664.0628866999999,664.0782310999999,664.0782310999999,664.0782310999999,664.3779536999999,667.0753751999999,,,,down,3.0566321999999673,None,None,,,,,,,,,,,,,,P101,001,2024-11-12_14h20.12.744,posner_endo_new1,2024.2.4,60.041092123453396,2024-11-12 14h20.19.836295 +0000,
0.005,-0.31,37,7,3,up,0.3070189999999684,None,space,0.3252288999999564,None,,,,,3,7,37,5,,,,,667.091791,,,,,,,,,,,,667.0755948999999,667.091791,667.091791,667.4091046,,,,667.4094506,667.4247955,667.4247955,667.4247955,667.7245262,667.7587368999999,,,,up,0.3070189999999684,None,space,0.3252288999999564,None,,,,,,,,,,,,P101,001,2024-11-12_14h20.12.744,posner_endo_new1,2024.2.4,60.041092123453396,2024-11-12 14h20.19.836295 +0000,
0.005,-0.31,38,8,3,down,4.344913999999903,None,space,0.3445368000000144,None,,,,,3,8,38,7,,,,,667.7743992,,,,,,,,,,,,667.7589742,667.7743992,667.7743992,672.1211794,,,,672.1215298999999,672.1366131,672.1366131,672.1366131,672.4363536,672.4871676,,,,down,4.344913999999903,None,space,0.3445368000000144,None,,,,,,,,,,,,P101,001,2024-11-12_14h20.12.744,posner_endo_new1,2024.2.4,60.041092123453396,2024-11-12 14h20.19.836295 +0000,
0.005,0.31,39,9,3,up,3.0639289000000645,None,space,0.35886100000004717,None,,,,,3,9,39,8,,,,,672.5028874,,,,,,,,,,,,672.4873981999999,672.5028874,672.5028874,675.5678042999999,,,,675.568143,675.583169,675.583169,675.583169,675.8827732999999,675.9504011,,,,up,3.0639289000000645,None,space,0.35886100000004717,None,,,,,,,,,,,,P101,001,2024-11-12_14h20.12.744,posner_endo_new1,2024.2.4,60.041092123453396,2024-11-12 14h20.19.836295 +0000,
0.005,0.31,40,0,4,down,2.8491526999999905,None,space,0.302650500000027,None,,,,,4,0,40,6,,,,,675.9659459,,,,,,,,,,,,675.9506304,675.9659459,675.9659459,678.8308486,,,,678.8311995,678.8464180999999,678.8464180999999,678.8464180999999,679.1459553,679.1638704999999,,,,down,2.8491526999999905,None,space,0.302650500000027,None,,,,,,,,,,,,P101,001,2024-11-12_14h20.12.744,posner_endo_new1,2024.2.4,60.041092123453396,2024-11-12 14h20.19.836295 +0000,
0.005,-0.31,41,1,4,up,4.203414700000053,None,space,0.34877399999993486,None,,,,,4,1,41,5,,,,,679.179459,,,,,,,,,,,,679.1641162,679.179459,679.179459,683.3928460999999,,,,683.3931953,683.4083762,683.4083762,683.4083762,683.7082776999999,683.7592328999999,,,,up,4.203414700000053,None,space,0.34877399999993486,None,,,,,,,,,,,,P101,001,2024-11-12_14h20.12.744,posner_endo_new1,2024.2.4,60.041092123453396,2024-11-12 14h20.19.836295 +0000,
10,0.005,42,2,4,down,3.0722988999999643,None,None,,,,,,,4,2,42,4,,,,,683.7747795,,,,,,,,,,,,683.7594607999999,683.7747795,683.7747795,686.8556281,,,,686.8559786,686.8713871,686.8713871,686.8713871,687.1712073,689.8682104999999,,,,down,3.0722988999999643,None,None,,,,,,,,,,,,,,P101,001,2024-11-12_14h20.12.744,posner_endo_new1,2024.2.4,60.041092123453396,2024-11-12 14h20.19.836295 +0000,
0.005,-0.31,43,3,4,up,1.1537412999999788,None,space,0.3035473999999567,None,,,,,4,3,43,7,,,,,689.8852054,,,,,,,,,,,,689.868434,689.8852054,689.8852054,691.0513873,,,,691.0517236,691.0673167,691.0673167,691.0673167,691.366586,691.3845689,,,,up,1.1537412999999788,None,space,0.3035473999999567,None,,,,,,,,,,,,P101,001,2024-11-12_14h20.12.744,posner_endo_new1,2024.2.4,60.041092123453396,2024-11-12 14h20.19.836295 +0000,
0.005,10,44,4,4,down,3.598137900000097,None,None,,,,,,,4,4,44,9,,,,,691.4002732,,,,,,,,,,,,691.3848042,691.4002732,691.4002732,695.0141338,,,,695.0144808,695.0298677,695.0298677,695.0298677,695.3295694999999,698.0269204,,,,down,3.598137900000097,None,None,,,,,,,,,,,,,,P101,001,2024-11-12_14h20.12.744,posner_endo_new1,2024.2.4,60.041092123453396,2024-11-12 14h20.19.836295 +0000,
-0.31,0.005,45,5,4,up,1.61141049999992,None,space,0.27974159999996573,None,,,,,4,5,45,2,,,,,698.0434666,,,,,,,,,,,,698.0271372999999,698.0434666,698.0434666,699.6596377999999,,,,699.6599861,699.6752521999999,699.6752521999999,699.6752521999999,699.9750119,699.9594284,,,,up,1.61141049999992,None,space,0.27974159999996573,None,,,,,,,,,,,,P101,001,2024-11-12_14h20.12.744,posner_endo_new1,2024.2.4,60.041092123453396,2024-11-12 14h20.19.836295 +0000,
0.005,0.31,46,6,4,down,4.999299599999972,None,space,0.353297600000019,None,,,,,4,6,46,8,,,,,699.9750119,,,,,,,,,,,,699.9596531,699.9750119,699.9750119,704.987399,,,,704.9877341,705.0030105,705.0030105,705.0030105,705.3026651,705.3701006,,,,down,4.999299599999972,None,space,0.353297600000019,None,,,,,,,,,,,,P101,001,2024-11-12_14h20.12.744,posner_endo_new1,2024.2.4,60.041092123453396,2024-11-12 14h20.19.836295 +0000,
0.31,0.005,47,7,4,up,3.1247174999999743,None,space,0.47514140000009775,None,,,,,4,7,47,1,,,,,705.3859953,,,,,,,,,,,,705.3703442,705.3859953,705.3859953,708.5168281,,,,708.517164,708.5325894,708.5325894,708.5325894,708.8324529,709.0167058999999,,,,up,3.1247174999999743,None,space,0.47514140000009775,None,,,,,,,,,,,,P101,001,2024-11-12_14h20.12.744,posner_endo_new1,2024.2.4,60.041092123453396,2024-11-12 14h20.19.836295 +0000,
0.31,0.005,48,8,4,down,4.070103200000062,None,space,0.3322590999999875,None,,,,,4,8,48,3,,,,,709.0321665,,,,,,,,,,,,709.0169341999999,709.0321665,709.0321665,713.1123167999999,,,,713.1126574,713.1280981,713.1280981,713.1280981,713.4276894999999,713.4622587,,,,down,4.070103200000062,None,space,0.3322590999999875,None,,,,,,,,,,,,P101,001,2024-11-12_14h20.12.744,posner_endo_new1,2024.2.4,60.041092123453396,2024-11-12 14h20.19.836295 +0000,
-0.31,0.005,49,9,4,up,4.049247299999934,None,space,0.4123943000000736,None,,,,,4,9,49,0,,,,,713.4777004,,,,,,,,,,,,713.4624954,713.4777004,713.4777004,717.5412263999999,,,,717.5415657,717.5566941999999,717.5566941999999,717.5566941999999,717.8565168,717.9738785999999,,,,up,4.049247299999934,None,space,0.4123943000000736,None,,,,,,,,,,,,P101,001,2024-11-12_14h20.12.744,posner_endo_new1,2024.2.4,60.041092123453396,2024-11-12 14h20.19.836295 +0000,
-0.31,0.005,50,0,5,down,3.1854597999999896,None,space,0.32475529999999253,None,,,,,5,0,50,0,,,,,717.9896497999999,,,,,,,,,,,,717.9741233,717.9896497999999,717.9896497999999,721.1874515999999,,,,721.1877846,721.2031479,721.2031479,721.2031479,721.5028957,721.5368632,,,,down,3.1854597999999896,None,space,0.32475529999999253,None,,,,,,,,,,,,P101,001,2024-11-12_14h20.12.744,posner_endo_new1,2024.2.4,60.041092123453396,2024-11-12 14h20.19.836295 +0000,
0.005,10,51,1,5,up,3.8544025999999576,None,None,,,,,,,5,1,51,9,,,,,721.5526682,,,,,,,,,,,,721.5370905999999,721.5526682,721.5526682,725.4164933,,,,725.4168426,725.4319929,725.4319929,725.4319929,725.7317843999999,728.4290821999999,,,,up,3.8544025999999576,None,None,,,,,,,,,,,,,,P101,001,2024-11-12_14h20.12.744,posner_endo_new1,2024.2.4,60.041092123453396,2024-11-12 14h20.19.836295 +0000,
0.005,0.31,52,2,5,down,0.7453301999998985,None,space,0.32666280000000825,None,,,,,5,2,52,8,,,,,728.4457807,,,,,,,,,,,,728.4293051999999,728.4457807,728.4457807,729.196004,,,,729.1963523,729.2115895,729.2115895,729.2115895,729.5112074,729.5455658,,,,down,0.7453301999998985,None,space,0.32666280000000825,None,,,,,,,,,,,,P101,001,2024-11-12_14h20.12.744,posner_endo_new1,2024.2.4,60.041092123453396,2024-11-12 14h20.19.836295 +0000,
-0.31,0.005,53,3,5,up,4.421221199999991,None,space,0.36718499999994947,None,,,,,5,3,53,2,,,,,729.5612922,,,,,,,,,,,,729.5457918999999,729.5612922,729.5612922,733.991055,,,,733.9914008999999,734.006391,734.006391,734.006391,734.3063232,734.3904039,,,,up,4.421221199999991,None,space,0.36718499999994947,None,,,,,,,,,,,,P101,001,2024-11-12_14h20.12.744,posner_endo_new1,2024.2.4,60.041092123453396,2024-11-12 14h20.19.836295 +0000,
10,0.005,54,4,5,down,2.7928080000000364,None,None,,,,,,,5,4,54,4,,,,,734.4063195,,,,,,,,,,,,734.3906443,734.4063195,734.4063195,737.2040572999999,,,,737.2044033999999,737.2200867,737.2200867,737.2200867,737.5198267,740.2171963999999,,,,down,2.7928080000000364,None,None,,,,,,,,,,,,,,P101,001,2024-11-12_14h20.12.744,posner_endo_new1,2024.2.4,60.041092123453396,2024-11-12 14h20.19.836295 +0000,
0.31,0.005,55,5,5,up,1.8451308999999583,None,space,0.3223150999999689,None,,,,,5,5,55,1,,,,,740.233606,,,,,,,,,,,,740.217419,740.233606,740.233606,742.0828067,,,,742.0831402,742.0983757,742.0983757,742.0983757,742.3981024,742.4323112,,,,up,1.8451308999999583,None,space,0.3223150999999689,None,,,,,,,,,,,,P101,001,2024-11-12_14h20.12.744,posner_endo_new1,2024.2.4,60.041092123453396,2024-11-12 14h20.19.836295 +0000,
0.005,-0.31,56,6,5,down,3.5189510000000155,None,space,0.3957479999999123,None,,,,,5,6,56,5,,,,,742.448053,,,,,,,,,,,,742.4325357,742.448053,742.448053,745.9787732,,,,745.9791203999999,745.9943347999999,745.9943347999999,745.9943347999999,746.2941018,746.3952310999999,,,,down,3.5189510000000155,None,space,0.3957479999999123,None,,,,,,,,,,,,P101,001,2024-11-12_14h20.12.744,posner_endo_new1,2024.2.4,60.041092123453396,2024-11-12 14h20.19.836295 +0000,
0.31,0.005,57,7,5,up,3.1716572999999926,None,space,0.3230044000000589,None,,,,,5,7,57,3,,,,,746.4107518,,,,,,,,,,,,746.3954596,746.4107518,746.4107518,749.5917807999999,,,,749.5921142,749.6072849,749.6072849,749.6072849,749.9070144,749.9413746,,,,up,3.1716572999999926,None,space,0.3230044000000589,None,,,,,,,,,,,,P101,001,2024-11-12_14h20.12.744,posner_endo_new1,2024.2.4,60.041092123453396,2024-11-12 14h20.19.836295 +0000,
0.005,0.31,58,8,5,down,3.177894199999969,None,space,0.8566584999999804,None,,,,,5,8,58,6,,,,,749.9567597,,,,,,,,,,,,749.941602,749.9567597,749.9567597,753.1382578,,,,753.1386037999999,753.1536804,753.1536804,753.1536804,753.453084,754.0205088,,,,down,3.177894199999969,None,space,0.8566584999999804,None,,,,,,,,,,,,P101,001,2024-11-12_14h20.12.744,posner_endo_new1,2024.2.4,60.041092123453396,2024-11-12 14h20.19.836295 +0000,
0.005,-0.31,59,9,5,down,5.6582968000000164,None,space,0.3535680999999613,None,,,,,5,9,59,7,,,,,754.0363016,,,,,,,,,,,,754.0207439,754.0363016,754.0363016,759.6982022,,,,759.6985476,759.7138007,759.7138007,759.7138007,760.0134932999999,760.0811342,,,,down,5.6582968000000164,None,space,0.3535680999999613,None,,,,,,,,,,,,P101,001,2024-11-12_14h20.12.744,posner_endo_new1,2024.2.4,60.041092123453396,2024-11-12 14h20.19.836295 +0000,
,,,,,,,,,,,,,,,,,,,,,,,,,,,,,,,,,,,,,,,,,,,,,,,,,,,,,,,,,760.0812947,760.0967380999999,760.0967380999999,820.0694651,None,,,,,,,P101,001,2024-11-12_14h20.12.744,posner_endo_new1,2024.2.4,60.041092123453396,2024-11-12 14h20.19.836295 +0000,
,,,,,,,,,,,,,,,,,,,,,,,,,,,,,,,,820.0695575999999,820.0849489999999,823.0820397,,,,,,,,,,,,,,,,,,,,,,,,,,,,,,,,,,P101,001,2024-11-12_14h20.12.744,posner_endo_new1,2024.2.4,60.041092123453396,2024-11-12 14h20.19.836295 +0000,
-0.31,0.005,0,0,0,down,7.685726400000021,None,space,0.31665720000000874,None,,,,,,,,,0,0,0,0,823.1053112,,,,,,,,,,,,823.0968131,823.1053112,823.1053112,830.7925121,,,,830.7930529,830.8072831999999,830.8072831999999,830.8072831999999,831.1069941,831.125413,,,,,,,,,,,,,,,down,7.685726400000021,None,space,0.31665720000000874,None,P101,001,2024-11-12_14h20.12.744,posner_endo_new1,2024.2.4,60.041092123453396,2024-11-12 14h20.19.836295 +0000,
0.005,-0.31,1,1,0,up,4.162289699999974,None,space,0.3522413000000597,None,,,,,,,,,0,1,1,5,831.1403041,,,,,,,,,,,,831.1257529999999,831.1403041,831.1403041,835.3043610999999,,,,835.3048734,835.3193325,835.3193325,835.3193325,835.6190535999999,835.687092,,,,,,,,,,,,,,,up,4.162289699999974,None,space,0.3522413000000597,None,P101,001,2024-11-12_14h20.12.744,posner_endo_new1,2024.2.4,60.041092123453396,2024-11-12 14h20.19.836295 +0000,
10,0.005,2,2,0,down,3.3046280999999453,None,None,,,,,,,,,,,0,2,2,4,835.702335,,,,,,,,,,,,835.6874492,835.702335,835.702335,839.0169787,,,,839.0174651,839.0322014,839.0322014,839.0322014,839.3319081999999,842.0293027,,,,,,,,,,,,,,,down,3.3046280999999453,None,None,,,P101,001,2024-11-12_14h20.12.744,posner_endo_new1,2024.2.4,60.041092123453396,2024-11-12 14h20.19.836295 +0000,
0.005,-0.31,3,3,0,down,5.993178099999909,None,space,0.29643509999993967,None,,,,,,,,,0,3,3,7,842.0457639,,,,,,,,,,,,842.029647,842.0457639,842.0457639,848.0412309999999,,,,848.0417179,848.0563129999999,848.0563129999999,848.0563129999999,848.3560143999999,848.3575124,,,,,,,,,,,,,,,down,5.993178099999909,None,space,0.29643509999993967,None,P101,001,2024-11-12_14h20.12.744,posner_endo_new1,2024.2.4,60.041092123453396,2024-11-12 14h20.19.836295 +0000,
0.005,0.31,4,4,0,up,5.14596640000002,None,space,0.3448353999999654,None,,,,,,,,,0,4,4,8,848.3727739999999,,,,,,,,,,,,848.3578787,848.3727739999999,848.3727739999999,853.5353809999999,,,,853.5357431,853.551056,853.551056,853.551056,853.8507983999999,853.9018308,,,,,,,,,,,,,,,up,5.14596640000002,None,space,0.3448353999999654,None,P101,001,2024-11-12_14h20.12.744,posner_endo_new1,2024.2.4,60.041092123453396,2024-11-12 14h20.19.836295 +0000,
0.31,0.005,5,5,0,down,3.769405499999948,None,space,0.3694320999999263,None,,,,,,,,,0,5,5,3,853.9173321,,,,,,,,,,,,853.902073,853.9173321,853.9173321,857.6976989,,,,857.6980388999999,857.7134914,857.7134914,857.7134914,858.0131170999999,858.0972977,,,,,,,,,,,,,,,down,3.769405499999948,None,space,0.3694320999999263,None,P101,001,2024-11-12_14h20.12.744,posner_endo_new1,2024.2.4,60.041092123453396,2024-11-12 14h20.19.836295 +0000,
-0.31,0.005,6,6,0,up,3.0614282999999887,None,space,0.37935410000000047,None,,,,,,,,,0,6,6,2,858.11312,,,,,,,,,,,,858.0975283,858.11312,858.11312,861.1774955,,,,861.1778512999999,861.1932184,861.1932184,861.1932184,861.4929416,861.5772430999999,,,,,,,,,,,,,,,up,3.0614282999999887,None,space,0.37935410000000047,None,P101,001,2024-11-12_14h20.12.744,posner_endo_new1,2024.2.4,60.041092123453396,2024-11-12 14h20.19.836295 +0000,
0.005,10,7,7,0,down,3.902266700000041,None,None,,,,,,,,,,,0,7,7,9,861.5928703,,,,,,,,,,,,861.5774835999999,861.5928703,861.5928703,865.5064858999999,,,,865.5068259999999,865.5220128,865.5220128,865.5220128,865.8218289,868.5192476,,,,,,,,,,,,,,,down,3.902266700000041,None,None,,,P101,001,2024-11-12_14h20.12.744,posner_endo_new1,2024.2.4,60.041092123453396,2024-11-12 14h20.19.836295 +0000,
0.005,0.31,8,8,0,up,0.9993146000000479,None,space,0.3677736999999297,None,,,,,,,,,0,8,8,6,868.5357278,,,,,,,,,,,,868.5194751,868.5357278,868.5357278,869.5360286,,,,869.5363724,869.5513122,869.5513122,869.5513122,869.8509316999999,869.9353139,,,,,,,,,,,,,,,up,0.9993146000000479,None,space,0.3677736999999297,None,P101,001,2024-11-12_14h20.12.744,posner_endo_new1,2024.2.4,60.041092123453396,2024-11-12 14h20.19.836295 +0000,
0.31,0.005,9,9,0,down,3.5202968000000965,None,space,0.36778670000001057,None,,,,,,,,,0,9,9,1,869.9508331999999,,,,,,,,,,,,869.9355468,869.9508331999999,869.9508331999999,873.4816556,,,,873.4820172,873.4972657,873.4972657,873.4972657,873.7970649,873.8813355,,,,,,,,,,,,,,,down,3.5202968000000965,None,space,0.36778670000001057,None,P101,001,2024-11-12_14h20.12.744,posner_endo_new1,2024.2.4,60.041092123453396,2024-11-12 14h20.19.836295 +0000,
-0.31,0.005,10,0,1,up,3.6463241000000153,None,space,0.3435702000000447,None,,,,,,,,,1,0,10,2,873.8969853,,,,,,,,,,,,873.8815697,873.8969853,873.8969853,877.5443551,,,,877.5446933,877.5598749,877.5598749,877.5598749,877.8596265,877.9104371999999,,,,,,,,,,,,,,,up,3.6463241000000153,None,space,0.3435702000000447,None,P101,001,2024-11-12_14h20.12.744,posner_endo_new1,2024.2.4,60.041092123453396,2024-11-12 14h20.19.836295 +0000,
0.31,0.005,11,1,1,down,3.312939300000039,None,space,0.3156396000000541,None,,,,,,,,,1,1,11,1,877.9261162,,,,,,,,,,,,877.9106691,877.9261162,877.9261162,881.2406492,,,,881.2409997,881.2556443999999,881.2556443999999,881.2556443999999,881.5557066,881.573444,,,,,,,,,,,,,,,down,3.312939300000039,None,space,0.3156396000000541,None,P101,001,2024-11-12_14h20.12.744,posner_endo_new1,2024.2.4,60.041092123453396,2024-11-12 14h20.19.836295 +0000,
0.005,-0.31,12,2,1,up,4.258147399999984,None,space,0.3460033999999723,None,,,,,,,,,1,2,12,7,881.5888894,,,,,,,,,,,,881.5736777999999,881.5888894,881.5888894,885.8523027,,,,885.8526488,885.8679837999999,885.8679837999999,885.8679837999999,886.1676894999999,886.2186184999999,,,,,,,,,,,,,,,up,4.258147399999984,None,space,0.3460033999999723,None,P101,001,2024-11-12_14h20.12.744,posner_endo_new1,2024.2.4,60.041092123453396,2024-11-12 14h20.19.836295 +0000,
10,0.005,13,3,1,down,4.316639099999975,None,None,,,,,,,,,,,1,3,13,4,886.2343437999999,,,,,,,,,,,,886.218849,886.2343437999999,886.2343437999999,890.5641547,,,,890.5644922,890.5797328,890.5797328,890.5797328,890.8795706999999,893.5768962999999,,,,,,,,,,,,,,,down,4.316639099999975,None,None,,,P101,001,2024-11-12_14h20.12.744,posner_endo_new1,2024.2.4,60.041092123453396,2024-11-12 14h20.19.836295 +0000,
0.005,0.31,14,4,1,up,3.477130299999999,None,space,0.35977580000007947,None,,,,,,,,,1,4,14,8,893.5934721,,,,,,,,,,,,893.5771228,893.5934721,893.5934721,897.0743751,,,,897.0747281,897.089921,897.089921,897.089921,897.3894075,897.4570593999999,,,,,,,,,,,,,,,up,3.477130299999999,None,space,0.35977580000007947,None,P101,001,2024-11-12_14h20.12.744,posner_endo_new1,2024.2.4,60.041092123453396,2024-11-12 14h20.19.836295 +0000,
-0.31,0.005,15,5,1,down,4.718484900000021,None,space,0.39119860000005247,None,,,,,,,,,1,5,15,0,897.4727932999999,,,,,,,,,,,,897.4572860999999,897.4727932999999,897.4727932999999,902.2019562,,,,902.2023075,902.2179418999999,902.2179418999999,902.2179418999999,902.5176102,902.6185822,,,,,,,,,,,,,,,down,4.718484900000021,None,space,0.39119860000005247,None,P101,001,2024-11-12_14h20.12.744,posner_endo_new1,2024.2.4,60.041092123453396,2024-11-12 14h20.19.836295 +0000,
0.005,0.31,16,6,1,up,2.796524300000101,None,space,0.35144549999995434,None,,,,,,,,,1,6,16,6,902.6340123,,,,,,,,,,,,902.6188115,902.6340123,902.6340123,905.4325755,,,,905.4329135999999,905.4478935,905.4478935,905.4478935,905.7476757,905.814848,,,,,,,,,,,,,,,up,2.796524300000101,None,space,0.35144549999995434,None,P101,001,2024-11-12_14h20.12.744,posner_endo_new1,2024.2.4,60.041092123453396,2024-11-12 14h20.19.836295 +0000,
0.31,0.005,17,7,1,down,4.119688700000097,None,space,0.37409660000002987,None,,,,,,,,,1,7,17,3,905.8309815,,,,,,,,,,,,905.8150788999999,905.8309815,905.8309815,909.9607546,,,,909.9611015999999,909.9765333,909.9765333,909.9765333,910.2762952999999,910.3609517,,,,,,,,,,,,,,,down,4.119688700000097,None,space,0.37409660000002987,None,P101,001,2024-11-12_14h20.12.744,posner_endo_new1,2024.2.4,60.041092123453396,2024-11-12 14h20.19.836295 +0000,
0.005,10,18,8,1,up,4.190993799999887,None,None,,,,,,,,,,,1,8,18,9,910.3763240000001,,,,,,,,,,,,910.3611845999999,910.3763240000001,910.3763240000001,914.5729572,,,,914.5733115,914.5886435,914.5886435,914.5886435,914.8883791000001,917.5856237,,,,,,,,,,,,,,,up,4.190993799999887,None,None,,,P101,001,2024-11-12_14h20.12.744,posner_endo_new1,2024.2.4,60.041092123453396,2024-11-12 14h20.19.836295 +0000,
0.005,-0.31,19,9,1,up,5.5568106000000625,None,space,0.34817709999992985,None,,,,,,,,,1,9,19,5,917.6021989000001,,,,,,,,,,,,917.5858432,917.6021989000001,917.6021989000001,923.1642772999999,,,,923.1646143999999,923.1798415000001,923.1798415000001,923.1798415000001,923.4796056,923.5304957000001,,,,,,,,,,,,,,,up,5.5568106000000625,None,space,0.34817709999992985,None,P101,001,2024-11-12_14h20.12.744,posner_endo_new1,2024.2.4,60.041092123453396,2024-11-12 14h20.19.836295 +0000,
0.005,0.31,20,0,2,down,4.748490499999889,None,space,0.3350284999999076,None,,,,,,,,,2,0,20,6,923.5461539999999,,,,,,,,,,,,923.5307290000001,923.5461539999999,923.5461539999999,928.3089396,,,,928.3092784999999,928.3245675999999,928.3245675999999,928.3245675999999,928.6242854,928.6752220999999,,,,,,,,,,,,,,,down,4.748490499999889,None,space,0.3350284999999076,None,P101,001,2024-11-12_14h20.12.744,posner_endo_new1,2024.2.4,60.041092123453396,2024-11-12 14h20.19.836295 +0000,
0.005,10,21,1,2,up,4.372417799999994,None,None,,,,,,,,,,,2,1,21,9,928.6908799999999,,,,,,,,,,,,928.6754647,928.6908799999999,928.6908799999999,933.0706917,,,,933.0710282,933.0860112,933.0860112,933.0860112,933.3860941999999,936.0834514999999,,,,,,,,,,,,,,,up,4.372417799999994,None,None,,,P101,001,2024-11-12_14h20.12.744,posner_endo_new1,2024.2.4,60.041092123453396,2024-11-12 14h20.19.836295 +0000,
0.005,0.31,22,2,2,down,3.1628052999999454,None,space,0.3645510999999715,None,,,,,,,,,2,2,22,8,936.1000254999999,,,,,,,,,,,,936.0836852,936.1000254999999,936.1000254999999,939.2645422,,,,939.2648925999999,939.2800411000001,939.2800411000001,939.2800411000001,939.5795264999999,939.6474999,,,,,,,,,,,,,,,down,3.1628052999999454,None,space,0.3645510999999715,None,P101,001,2024-11-12_14h20.12.744,posner_endo_new1,2024.2.4,60.041092123453396,2024-11-12 14h20.19.836295 +0000,
10,0.005,23,3,2,up,5.4153844999998455,None,None,,,,,,,,,,,2,3,23,4,939.6629602,,,,,,,,,,,,939.6477563999999,939.6629602,939.6629602,945.0916374000001,,,,945.0919833999999,945.1072985000001,945.1072985000001,945.1072985000001,945.4070188999999,948.1044528,,,,,,,,,,,,,,,up,5.4153844999998455,None,None,,,P101,001,2024-11-12_14h20.12.744,posner_endo_new1,2024.2.4,60.041092123453396,2024-11-12 14h20.19.836295 +0000,
0.31,0.005,24,4,2,down,1.2464276999999129,None,space,0.63104589999989,None,,,,,,,,,2,4,24,3,948.121116,,,,,,,,,,,,948.1046762999999,948.121116,948.121116,949.3704946,,,,949.3708331999999,949.3864862999999,949.3864862999999,949.3864862999999,949.6860862999999,950.0203071000001,,,,,,,,,,,,,,,down,1.2464276999999129,None,space,0.63104589999989,None,P101,001,2024-11-12_14h20.12.744,posner_endo_new1,2024.2.4,60.041092123453396,2024-11-12 14h20.19.836295 +0000,
0.005,-0.31,25,5,2,up,4.827252599999838,None,space,0.30806589999997414,None,,,,,,,,,2,5,25,5,950.0357693999999,,,,,,,,,,,,950.0205478,950.0357693999999,950.0357693999999,954.8649178999999,,,,954.8652637,954.8808228999999,954.8808228999999,954.8808228999999,955.1804076000001,955.1980561999999,,,,,,,,,,,,,,,up,4.827252599999838,None,space,0.30806589999997414,None,P101,001,2024-11-12_14h20.12.744,posner_endo_new1,2024.2.4,60.041092123453396,2024-11-12 14h20.19.836295 +0000,
-0.31,0.005,26,6,2,down,3.313029400000005,None,space,0.3302859000000353,None,,,,,,,,,2,6,26,2,955.2138305999999,,,,,,,,,,,,955.1982902,955.2138305999999,955.2138305999999,958.5281958,,,,958.5285343999999,958.5437245999999,958.5437245999999,958.5437245999999,958.8434353999999,958.8777928,,,,,,,,,,,,,,,down,3.313029400000005,None,space,0.3302859000000353,None,P101,001,2024-11-12_14h20.12.744,posner_endo_new1,2024.2.4,60.041092123453396,2024-11-12 14h20.19.836295 +0000,
0.005,-0.31,27,7,2,up,3.9783841999999368,None,space,0.306282599999804,None,,,,,,,,,2,7,27,7,958.8932689999999,,,,,,,,,,,,958.8780520999999,958.8932689999999,958.8932689999999,962.8733401,,,,962.8736973,962.8892458999999,962.8892458999999,962.8892458999999,963.1889862999999,963.2061366,,,,,,,,,,,,,,,up,3.9783841999999368,None,space,0.306282599999804,None,P101,001,2024-11-12_14h20.12.744,posner_endo_new1,2024.2.4,60.041092123453396,2024-11-12 14h20.19.836295 +0000,
-0.31,0.005,28,8,2,down,3.4327847999998085,None,space,0.3185550000000603,None,,,,,,,,,2,8,28,0,963.2221763,,,,,,,,,,,,963.2063685,963.2221763,963.2221763,966.6696380000001,,,,966.6699865,966.6852985999999,966.6852985999999,966.6852985999999,966.9850435000001,967.0193864999999,,,,,,,,,,,,,,,down,3.4327847999998085,None,space,0.3185550000000603,None,P101,001,2024-11-12_14h20.12.744,posner_endo_new1,2024.2.4,60.041092123453396,2024-11-12 14h20.19.836295 +0000,
0.31,0.005,29,9,2,up,4.067734199999904,None,space,0.4622367000001759,None,,,,,,,,,2,9,29,1,967.0348869,,,,,,,,,,,,967.0196192999999,967.0348869,967.0348869,971.1151866999999,,,,971.1155461999999,971.1306723999999,971.1306723999999,971.1306723999999,971.4304694,971.5976919,,,,,,,,,,,,,,,up,4.067734199999904,None,space,0.4622367000001759,None,P101,001,2024-11-12_14h20.12.744,posner_endo_new1,2024.2.4,60.041092123453396,2024-11-12 14h20.19.836295 +0000,
0.31,0.005,30,0,3,down,3.6652586000000156,None,space,0.383119699999952,None,,,,,,,,,3,0,30,3,971.6136136,,,,,,,,,,,,971.5979560999999,971.6136136,971.6136136,975.2941609,,,,975.29451,975.309731,975.309731,975.309731,975.6095055999999,975.6940821000001,,,,,,,,,,,,,,,down,3.6652586000000156,None,space,0.383119699999952,None,P101,001,2024-11-12_14h20.12.744,posner_endo_new1,2024.2.4,60.041092123453396,2024-11-12 14h20.19.836295 +0000,
0.005,0.31,31,1,3,up,4.84182090000013,None,space,0.28041989999996986,None,,,,,,,,,3,1,31,8,975.7094476,,,,,,,,,,,,975.6943111,975.7094476,975.7094476,980.555552,,,,980.5558876,980.5712963999999,980.5712963999999,980.5712963999999,980.8709028000001,980.8552242000001,,,,,,,,,,,,,,,up,4.84182090000013,None,space,0.28041989999996986,None,P101,001,2024-11-12_14h20.12.744,posner_endo_new1,2024.2.4,60.041092123453396,2024-11-12 14h20.19.836295 +0000,
0.31,0.005,32,2,3,down,3.759864099999959,None,space,0.38951059999999416,None,,,,,,,,,3,2,32,1,980.8709028000001,,,,,,,,,,,,980.8554509999999,980.8709028000001,980.8709028000001,984.6347917,,,,984.6351288000001,984.6503284999999,984.6503284999999,984.6503284999999,984.9497796999999,985.0508416999999,,,,,,,,,,,,,,,down,3.759864099999959,None,space,0.38951059999999416,None,P101,001,2024-11-12_14h20.12.744,posner_endo_new1,2024.2.4,60.041092123453396,2024-11-12 14h20.19.836295 +0000,
10,0.005,33,3,3,up,4.236719700000094,None,None,,,,,,,,,,,3,3,33,4,985.0666197,,,,,,,,,,,,985.0510735,985.0666197,985.0666197,989.3133608999999,,,,989.3136964,989.3284076,989.3284076,989.3284076,989.6285937999999,992.3258011,,,,,,,,,,,,,,,up,4.236719700000094,None,None,,,P101,001,2024-11-12_14h20.12.744,posner_endo_new1,2024.2.4,60.041092123453396,2024-11-12 14h20.19.836295 +0000,
0.005,-0.31,34,4,3,down,1.53633590000004,None,space,0.35400849999996353,None,,,,,,,,,3,4,34,5,992.3424362999999,,,,,,,,,,,,992.3260244,992.3424362999999,992.3424362999999,993.8918103999999,,,,993.892145,993.9075186,993.9075186,993.9075186,994.2073045,994.2748535999999,,,,,,,,,,,,,,,down,1.53633590000004,None,space,0.35400849999996353,None,P101,001,2024-11-12_14h20.12.744,posner_endo_new1,2024.2.4,60.041092123453396,2024-11-12 14h20.19.836295 +0000,
0.005,10,35,5,3,up,3.8763318000001163,None,None,,,,,,,,,,,3,5,35,9,994.2904017000001,,,,,,,,,,,,994.2750827,994.2904017000001,994.2904017000001,998.1708881,,,,998.1712241,998.1864762999999,998.1864762999999,998.1864762999999,998.4861529,1001.1835277999999,,,,,,,,,,,,,,,up,3.8763318000001163,None,None,,,P101,001,2024-11-12_14h20.12.744,posner_endo_new1,2024.2.4,60.041092123453396,2024-11-12 14h20.19.836295 +0000,
-0.31,0.005,36,6,3,up,5.990998399999853,None,space,0.3443758999999318,None,,,,,,,,,3,6,36,0,1001.1999424,,,,,,,,,,,,1001.1837455,1001.1999424,1001.1999424,1007.1949035999999,,,,1007.1952389,1007.2106051999999,1007.2106051999999,1007.2106051999999,1007.5103164,1007.561404,,,,,,,,,,,,,,,up,5.990998399999853,None,space,0.3443758999999318,None,P101,001,2024-11-12_14h20.12.744,posner_endo_new1,2024.2.4,60.041092123453396,2024-11-12 14h20.19.836295 +0000,
-0.31,0.005,37,7,3,down,3.342125799999849,None,space,0.35502919999998994,None,,,,,,,,,3,7,37,2,1007.5769369,,,,,,,,,,,,1007.5616419,1007.5769369,1007.5769369,1010.9245151999999,,,,1010.9248525999999,1010.9400292,1010.9400292,1010.9400292,1011.2398157999999,1011.3073069,,,,,,,,,,,,,,,down,3.342125799999849,None,space,0.35502919999998994,None,P101,001,2024-11-12_14h20.12.744,posner_endo_new1,2024.2.4,60.041092123453396,2024-11-12 14h20.19.836295 +0000,
0.005,-0.31,38,8,3,up,5.299922200000083,None,space,0.3203112000001056,None,,,,,,,,,3,8,38,7,1011.3229681,,,,,,,,,,,,1011.3075414,1011.3229681,1011.3229681,1016.6353217000001,,,,1016.635669,1016.6505311000001,1016.6505311000001,1016.6505311000001,1016.9505678,1016.9847778000001,,,,,,,,,,,,,,,up,5.299922200000083,None,space,0.3203112000001056,None,P101,001,2024-11-12_14h20.12.744,posner_endo_new1,2024.2.4,60.041092123453396,2024-11-12 14h20.19.836295 +0000,
0.005,0.31,39,9,3,up,6.846108800000138,None,space,0.329545699999926,None,,,,,,,,,3,9,39,6,1017.0005016999999,,,,,,,,,,,,1016.9850184,1017.0005016999999,1017.0005016999999,1023.861232,,,,1023.8615826999999,1023.8768691,1023.8768691,1023.8768691,1024.1765599,1024.2106607,,,,,,,,,,,,,,,up,6.846108800000138,None,space,0.329545699999926,None,P101,001,2024-11-12_14h20.12.744,posner_endo_new1,2024.2.4,60.041092123453396,2024-11-12 14h20.19.836295 +0000,
0.005,0.31,40,0,4,down,5.052247600000101,None,space,0.36115830000017013,None,,,,,,,,,4,0,40,8,1024.2264688999999,,,,,,,,,,,,1024.2108931,1024.2264688999999,1024.2264688999999,1029.2889906,,,,1029.2893295,1029.3044903,1029.3044903,1029.3044903,1029.6042468,1029.6720559999999,,,,,,,,,,,,,,,down,5.052247600000101,None,space,0.36115830000017013,None,P101,001,2024-11-12_14h20.12.744,posner_endo_new1,2024.2.4,60.041092123453396,2024-11-12 14h20.19.836295 +0000,
-0.31,0.005,41,1,4,up,3.399666500000194,None,space,0.44381139999995867,None,,,,,,,,,4,1,41,2,1029.6875519,,,,,,,,,,,,1029.67229,1029.6875519,1029.6875519,1033.1015578,,,,1033.1018986,1033.1175091,1033.1175091,1033.1175091,1033.4170328999999,1033.5675346,,,,,,,,,,,,,,,up,3.399666500000194,None,space,0.44381139999995867,None,P101,001,2024-11-12_14h20.12.744,posner_endo_new1,2024.2.4,60.041092123453396,2024-11-12 14h20.19.836295 +0000,
0.31,0.005,42,2,4,down,4.015130900000031,None,space,0.3341307999999117,None,,,,,,,,,4,2,42,3,1033.5836381,,,,,,,,,,,,1033.5677675,1033.5836381,1033.5836381,1037.6134219,,,,1037.6137752,1037.6294806,1037.6294806,1037.6294806,1037.9290712,1037.9800507,,,,,,,,,,,,,,,down,4.015130900000031,None,space,0.3341307999999117,None,P101,001,2024-11-12_14h20.12.744,posner_endo_new1,2024.2.4,60.041092123453396,2024-11-12 14h20.19.836295 +0000,
0.005,0.31,43,3,4,up,4.643217800000002,None,space,0.6511904999999842,None,,,,,,,,,4,3,43,6,1037.9953126999999,,,,,,,,,,,,1037.9802832,1037.9953126999999,1037.9953126999999,1042.6420245,,,,1042.6423619,1042.6573921,1042.6573921,1042.6573921,1042.957453,1043.3247266,,,,,,,,,,,,,,,up,4.643217800000002,None,space,0.6511904999999842,None,P101,001,2024-11-12_14h20.12.744,posner_endo_new1,2024.2.4,60.041092123453396,2024-11-12 14h20.19.836295 +0000,
0.31,0.005,44,4,4,down,3.11451709999983,None,space,0.3206342000000859,None,,,,,,,,,4,4,44,1,1043.3402843,,,,,,,,,,,,1043.324957,1043.3402843,1043.3402843,1046.4714211,,,,1046.4717712,1046.4870693,1046.4870693,1046.4870693,1046.7866971,1046.8210322,,,,,,,,,,,,,,,down,3.11451709999983,None,space,0.3206342000000859,None,P101,001,2024-11-12_14h20.12.744,posner_endo_new1,2024.2.4,60.041092123453396,2024-11-12 14h20.19.836295 +0000,
0.005,-0.31,45,5,4,up,3.5784525999999914,None,space,0.32225339999990865,None,,,,,,,,,4,5,45,5,1046.8367023,,,,,,,,,,,,1046.821265,1046.8367023,1046.8367023,1050.4173172,,,,1050.4176628999999,1050.433028,1050.433028,1050.433028,1050.7327232,1050.7671133,,,,,,,,,,,,,,,up,3.5784525999999914,None,space,0.32225339999990865,None,P101,001,2024-11-12_14h20.12.744,posner_endo_new1,2024.2.4,60.041092123453396,2024-11-12 14h20.19.836295 +0000,
-0.31,0.005,46,6,4,down,2.224175800000012,None,space,0.3384051000000454,None,,,,,,,,,4,6,46,0,1050.7826853,,,,,,,,,,,,1050.7673735,1050.7826853,1050.7826853,1053.0147997,,,,1053.0151369,1053.0304053,1053.0304053,1053.0304053,1053.3301526999999,1053.3811013,,,,,,,,,,,,,,,down,2.224175800000012,None,space,0.3384051000000454,None,P101,001,2024-11-12_14h20.12.744,posner_endo_new1,2024.2.4,60.041092123453396,2024-11-12 14h20.19.836295 +0000,
0.005,-0.31,47,7,4,up,5.01804200000015,None,space,0.32676070000002255,None,,,,,,,,,4,7,47,7,1053.3967281999999,,,,,,,,,,,,1053.3813321,1053.3967281999999,1053.3967281999999,1058.4256409,,,,1058.4258788,1058.4414589,1058.4414589,1058.4414589,1058.741156,1058.7750056,,,,,,,,,,,,,,,up,5.01804200000015,None,space,0.32676070000002255,None,P101,001,2024-11-12_14h20.12.744,posner_endo_new1,2024.2.4,60.041092123453396,2024-11-12 14h20.19.836295 +0000,
10,0.005,48,8,4,up,7.192179800000076,None,None,,,,,,,,,,,4,8,48,4,1058.7911538,,,,,,,,,,,,1058.7751686,1058.7911538,1058.7911538,1065.9848973,,,,1065.9853377,1065.9999693,1065.9999693,1065.9999693,1066.2996844,1068.9970925999999,,,,,,,,,,,,,,,up,7.192179800000076,None,None,,,P101,001,2024-11-12_14h20.12.744,posner_endo_new1,2024.2.4,60.041092123453396,2024-11-12 14h20.19.836295 +0000,
0.005,10,49,9,4,down,0.6573223000000326,None,None,,,,,,,,,,,4,9,49,9,1069.0135589,,,,,,,,,,,,1068.9973717999999,1069.0135589,1069.0135589,1069.6809220999999,,,,1069.6813557,1069.6962197999999,1069.6962197999999,1069.6962197999999,1069.9959247,1072.6932769,,,,,,,,,,,,,,,down,0.6573223000000326,None,None,,,P101,001,2024-11-12_14h20.12.744,posner_endo_new1,2024.2.4,60.041092123453396,2024-11-12 14h20.19.836295 +0000,
-0.31,0.005,50,0,5,up,1.720956100000194,None,space,0.2939076999998633,None,,,,,,,,,5,0,50,2,1072.7099142,,,,,,,,,,,,1072.6935554,1072.7099142,1072.7099142,1074.4427011,,,,1074.4431458,1074.4579585,1074.4579585,1074.4579585,1074.7576402,1074.759086,,,,,,,,,,,,,,,up,1.720956100000194,None,space,0.2939076999998633,None,P101,001,2024-11-12_14h20.12.744,posner_endo_new1,2024.2.4,60.041092123453396,2024-11-12 14h20.19.836295 +0000,
10,0.005,51,1,5,down,2.3841953999999532,None,None,,,,,,,,,,,5,1,51,4,1074.7744324,,,,,,,,,,,,1074.7593779,1074.7744324,1074.7744324,1077.1732286,,,,1077.1736819,1077.188572,1077.188572,1077.188572,1077.4882496999999,1080.1857537,,,,,,,,,,,,,,,down,2.3841953999999532,None,None,,,P101,001,2024-11-12_14h20.12.744,posner_endo_new1,2024.2.4,60.041092123453396,2024-11-12 14h20.19.836295 +0000,
0.005,10,52,2,5,up,2.6044782999999825,None,None,,,,,,,,,,,5,2,52,9,1080.2020752,,,,,,,,,,,,1080.1860463,1080.2020752,1080.2020752,1082.8170558,,,,1082.8172971,1082.833232,1082.833232,1082.833232,1083.1331898,1085.830546,,,,,,,,,,,,,,,up,2.6044782999999825,None,None,,,P101,001,2024-11-12_14h20.12.744,posner_endo_new1,2024.2.4,60.041092123453396,2024-11-12 14h20.19.836295 +0000,
-0.31,0.005,53,3,5,down,0.23958840000000237,None,space,0.41810640000016974,None,,,,,,,,,5,3,53,0,1085.8468845,,,,,,,,,,,,1085.8307133,1085.8468845,1085.8468845,1086.0972467,,,,1086.0974863,1086.1131922,1086.1131922,1086.1131922,1086.4126125,1086.5467392,,,,,,,,,,,,,,,down,0.23958840000000237,None,space,0.41810640000016974,None,P101,001,2024-11-12_14h20.12.744,posner_endo_new1,2024.2.4,60.041092123453396,2024-11-12 14h20.19.836295 +0000,
0.005,0.31,54,4,5,up,4.028047499999957,None,space,0.3737444000000778,None,,,,,,,,,5,4,54,8,1086.5626373,,,,,,,,,,,,1086.5469001,1086.5626373,1086.5626373,1090.5928597,,,,1090.5931009,1090.6085584,1090.6085584,1090.6085584,1090.9084513999999,1090.9921732999999,,,,,,,,,,,,,,,up,4.028047499999957,None,space,0.3737444000000778,None,P101,001,2024-11-12_14h20.12.744,posner_endo_new1,2024.2.4,60.041092123453396,2024-11-12 14h20.19.836295 +0000,
0.005,-0.31,55,5,5,down,3.102210199999945,None,space,0.414081699999997,None,,,,,,,,,5,5,55,7,1091.0082524,,,,,,,,,,,,1090.992336,1091.0082524,1091.0082524,1094.1223314,,,,1094.122576,1094.1382166,1094.1382166,1094.1382166,1094.4380915,1094.5552562999999,,,,,,,,,,,,,,,down,3.102210199999945,None,space,0.414081699999997,None,P101,001,2024-11-12_14h20.12.744,posner_endo_new1,2024.2.4,60.041092123453396,2024-11-12 14h20.19.836295 +0000,
0.31,0.005,56,6,5,up,4.0834248000001026,None,space,0.3827890000000025,None,,,,,,,,,5,6,56,1,1094.5712975,,,,,,,,,,,,1094.5554143,1094.5712975,1094.5712975,1098.6673119,,,,1098.6675533999999,1098.6835899999999,1098.6835899999999,1098.6835899999999,1098.9835226999999,1099.0675507,,,,,,,,,,,,,,,up,4.0834248000001026,None,space,0.3827890000000025,None,P101,001,2024-11-12_14h20.12.744,posner_endo_new1,2024.2.4,60.041092123453396,2024-11-12 14h20.19.836295 +0000,
0.005,0.31,57,7,5,down,5.556534300000067,None,space,0.33634409999990567,None,,,,,,,,,5,7,57,6,1099.0833086,,,,,,,,,,,,1099.0677067,1099.0833086,1099.0833086,1104.6445572999999,,,,1104.6447987,1104.6609876,1104.6609876,1104.6609876,1104.9605973,1105.0112282,,,,,,,,,,,,,,,down,5.556534300000067,None,space,0.33634409999990567,None,P101,001,2024-11-12_14h20.12.744,posner_endo_new1,2024.2.4,60.041092123453396,2024-11-12 14h20.19.836295 +0000,
0.005,-0.31,58,8,5,up,3.9008793000000423,None,space,0.3258183000000372,None,,,,,,,,,5,8,58,5,1105.0271667,,,,,,,,,,,,1105.0113882,1105.0271667,1105.0271667,1108.9406655,,,,1108.9409071,1108.9564733,1108.9564733,1108.9564733,1109.2562644,1109.2903812,,,,,,,,,,,,,,,up,3.9008793000000423,None,space,0.3258183000000372,None,P101,001,2024-11-12_14h20.12.744,posner_endo_new1,2024.2.4,60.041092123453396,2024-11-12 14h20.19.836295 +0000,
0.31,0.005,59,9,5,down,3.884816799999953,None,space,0.33336370000006355,None,,,,,,,,,5,9,59,3,1109.3060326,,,,,,,,,,,,1109.2905457,1109.3060326,1109.3060326,1113.2033592999999,,,,1113.2038605,1113.2184132,1113.2184132,1113.2184132,1113.518097,1113.5532633,,,,,,,,,,,,,,,down,3.884816799999953,None,space,0.33336370000006355,None,P101,001,2024-11-12_14h20.12.744,posner_endo_new1,2024.2.4,60.041092123453396,2024-11-12 14h20.19.836295 +0000,
