target_y,target_x,thisN,thisTrialN,thisRepN,key_control2.keys,key_control2.rt,key_control2.duration,key_resp.keys,key_resp.rt,key_resp.duration,practice.thisRepN,practice.thisTrialN,practice.thisN,practice.thisIndex,session_1.thisRepN,session_1.thisTrialN,session_1.thisN,session_1.thisIndex,session_2.thisRepN,session_2.thisTrialN,session_2.thisN,session_2.thisIndex,thisRow.t,notes,instructions.started,instructions_txt.started,key_control.started,instructions.stopped,key_control.keys,key_control.rt,key_control.duration,ready.started,ready_txt.started,ready.stopped,fix.started,key_control2.started,fixation_cross.started,fix.stopped,practice.key_control2.keys,practice.key_control2.rt,practice.key_control2.duration,target.started,star.started,fixation_cross_target.started,key_resp.started,star.stopped,target.stopped,practice.key_resp.keys,practice.key_resp.rt,practice.key_resp.duration,session_1.key_control2.keys,session_1.key_control2.rt,session_1.key_control2.duration,session_1.key_resp.keys,session_1.key_resp.rt,session_1.key_resp.duration,break_2.started,text.started,key_control3.started,break_2.stopped,key_control3.keys,session_2.key_control2.keys,session_2.key_control2.rt,session_2.key_control2.duration,session_2.key_resp.keys,session_2.key_resp.rt,session_2.key_resp.duration,participant,session,date,expName,psychopyVersion,frameRate,expStart,
,,,,,,,,,,,,,,,,,,,,,,,,,0.007506500000033611,0.02274649999998246,0.02274649999998246,2097.5204257,up,2097.4842281,None,,,,,,,,,,,,,,,,,,,,,,,,,,,,,,,,,,,,,P103,001,2024-11-15_08h29.57.384,posner_endo_new1,2024.2.4,60.01777726563169,2024-11-15 08h30.17.711096 +0000,
,,,,,,,,,,,,,,,,,,,,,,,,,,,,,,,,2097.5204779,2097.5306599,2100.5253118,,,,,,,,,,,,,,,,,,,,,,,,,,,,,,,,,,P103,001,2024-11-15_08h29.57.384,posner_endo_new1,2024.2.4,60.01777726563169,2024-11-15 08h30.17.711096 +0000,
0.005,0.31,0,0,0,up,4.572306300000037,None,space,0.4967735000000175,None,0,0,0,6,,,,,,,,,2100.5431499,,,,,,,,,,,,2100.5320778,2100.5431499,2100.5431499,2105.1211491999998,up,4.572306300000037,None,2105.1214107,2105.1371179,2105.1371179,2105.1371179,2105.4368087,2105.6372443,space,0.4967735000000175,None,,,,,,,,,,,,,,,,,,P103,001,2024-11-15_08h29.57.384,posner_endo_new1,2024.2.4,60.01777726563169,2024-11-15 08h30.17.711096 +0000,
0.31,0.005,1,1,0,down,3.5732203999996273,None,space,0.31628860000000714,None,0,1,1,1,,,,,,,,,2105.6531549,,,,,,,,,,,,2105.6373949,2105.6531549,2105.6531549,2109.233591,down,3.5732203999996273,None,2109.2338587,2109.2495267,2109.2495267,2109.2495267,2109.5493151,2109.5666209,space,0.31628860000000714,None,,,,,,,,,,,,,,,,,,P103,001,2024-11-15_08h29.57.384,posner_endo_new1,2024.2.4,60.01777726563169,2024-11-15 08h30.17.711096 +0000,
0.005,-0.31,2,2,0,up,3.6923975000004248,None,space,0.4627596000000267,None,0,2,2,5,,,,,,,,,2109.5827034999998,,,,,,,,,,,,2109.5667774,2109.5827034999998,2109.5827034999998,2113.2795880999997,up,3.6923975000004248,None,2113.2798293,2113.2953072,2113.2953072,2113.2953072,2113.5950148,2113.7624824,space,0.4627596000000267,None,,,,,,,,,,,,,,,,,,P103,001,2024-11-15_08h29.57.384,posner_endo_new1,2024.2.4,60.01777726563169,2024-11-15 08h30.17.711096 +0000,
0.31,0.005,3,3,0,down,3.8163658999997097,None,space,0.2570893000001888,None,0,3,3,3,,,,,,,,,2113.7783237,,,,,,,,,,,,2113.7626332,2113.7783237,2113.7783237,2117.608334,down,3.8163658999997097,None,2117.6085745,2117.6242397,2117.6242397,2117.6242397,,2117.891472,space,0.2570893000001888,None,,,,,,,,,,,,,,,,,,P103,001,2024-11-15_08h29.57.384,posner_endo_new1,2024.2.4,60.01777726563169,2024-11-15 08h30.17.711096 +0000,
-0.31,0.005,4,4,0,up,4.167740899999899,None,space,0.3459639000002426,None,0,4,4,0,,,,,,,,,2117.9074333,,,,,,,,,,,,2117.8916233,2117.9074333,2117.9074333,2122.0870098,up,4.167740899999899,None,2122.0872447,2122.1029554,2122.1029554,2122.1029554,2122.4026915,2122.4533978,space,0.3459639000002426,None,,,,,,,,,,,,,,,,,,P103,001,2024-11-15_08h29.57.384,posner_endo_new1,2024.2.4,60.01777726563169,2024-11-15 08h30.17.711096 +0000,
10,0.005,5,5,0,down,4.774087799999961,None,None,,,0,5,5,4,,,,,,,,,2122.4692346,,,,,,,,,,,,2122.4535544,2122.4692346,2122.4692346,2127.2486806,down,4.774087799999961,None,2127.2489175,2127.2644952,2127.2644952,2127.2644952,2127.5642761,2130.2614878,None,,,,,,,,,,,,,,,,,,,,P103,001,2024-11-15_08h29.57.384,posner_endo_new1,2024.2.4,60.01777726563169,2024-11-15 08h30.17.711096 +0000,
-0.31,0.005,6,6,0,up,2.468553400000019,None,space,0.3608361000001423,None,0,6,6,2,,,,,,,,,2130.2779337,,,,,,,,,,,,2130.2616335,2130.2779337,2130.2779337,2132.7595573,up,2.468553400000019,None,2132.7598059,2132.7754439,2132.7754439,2132.7754439,2133.0751477,2133.1426957,space,0.3608361000001423,None,,,,,,,,,,,,,,,,,,P103,001,2024-11-15_08h29.57.384,posner_endo_new1,2024.2.4,60.01777726563169,2024-11-15 08h30.17.711096 +0000,
0.005,0.31,7,7,0,down,3.6999964999999975,None,space,0.430040100000042,None,0,7,7,8,,,,,,,,,2133.1584702,,,,,,,,,,,,2133.1428533,2133.1584702,2133.1584702,2136.8720398,down,3.6999964999999975,None,2136.8722804,2136.8880926,2136.8880926,2136.8880926,2137.1876235,2137.3216713,space,0.430040100000042,None,,,,,,,,,,,,,,,,,,P103,001,2024-11-15_08h29.57.384,posner_endo_new1,2024.2.4,60.01777726563169,2024-11-15 08h30.17.711096 +0000,
0.005,-0.31,8,8,0,up,3.433057100000042,None,space,0.4471289000002798,None,0,8,8,7,,,,,,,,,2137.3375025,,,,,,,,,,,,2137.3218217999997,2137.3375025,2137.3375025,2140.7845832,up,3.433057100000042,None,2140.7848269,2140.8006477999998,2140.8006477999998,2140.8006477999998,2141.1003022,2141.2508258,space,0.4471289000002798,None,,,,,,,,,,,,,,,,,,P103,001,2024-11-15_08h29.57.384,posner_endo_new1,2024.2.4,60.01777726563169,2024-11-15 08h30.17.711096 +0000,
0.005,10,9,9,0,down,4.503318600000057,None,None,,,0,9,9,9,,,,,,,,,2141.26684,,,,,,,,,,,,2141.2509744,2141.26684,2141.26684,2145.7796143,down,4.503318600000057,None,2145.7798521,2145.7955288,2145.7955288,2145.7955288,2146.0951846,2148.7924991,None,,,,,,,,,,,,,,,,,,,,P103,001,2024-11-15_08h29.57.384,posner_endo_new1,2024.2.4,60.01777726563169,2024-11-15 08h30.17.711096 +0000,
,,,,,,,,,,,,,,,,,,,,,,,,,,,,,,,,2148.7925949,2148.809104,2151.7894754,,,,,,,,,,,,,,,,,,,,,,,,,,,,,,,,,,P103,001,2024-11-15_08h29.57.384,posner_endo_new1,2024.2.4,60.01777726563169,2024-11-15 08h30.17.711096 +0000,
0.005,0.31,0,0,0,up,13.988507300000038,None,space,0.3060596999998779,None,,,,,0,0,0,8,,,,,2151.8059431,,,,,,,,,,,,2151.7951537999998,2151.8059431,2151.8059431,2165.8090518,,,,2165.8093035,2165.8249223,2165.8249223,2165.8249223,2166.1247533,2166.1421881,,,,up,13.988507300000038,None,space,0.3060596999998779,None,,,,,,,,,,,,P103,001,2024-11-15_08h29.57.384,posner_endo_new1,2024.2.4,60.01777726563169,2024-11-15 08h30.17.711096 +0000,
0.005,0.31,1,1,0,down,6.109316900000067,None,space,0.3108132999996087,None,,,,,0,1,1,6,,,,,2166.1580315,,,,,,,,,,,,2166.1423478,2166.1580315,2166.1580315,2172.2693484,,,,2172.2695931,2172.2850549,2172.2850549,2172.2850549,2172.5847089999997,2172.6021771,,,,down,6.109316900000067,None,space,0.3108132999996087,None,,,,,,,,,,,,P103,001,2024-11-15_08h29.57.384,posner_endo_new1,2024.2.4,60.01777726563169,2024-11-15 08h30.17.711096 +0000,
0.31,0.005,2,2,0,up,5.464712800000143,None,space,0.30247259999987364,None,,,,,0,2,2,1,,,,,2172.6179951999998,,,,,,,,,,,,2172.6023325,2172.6179951999998,2172.6179951999998,2178.0965642,,,,2178.0968063,2178.1124967,2178.1124967,2178.1124967,2178.4121505,2178.4295168999997,,,,up,5.464712800000143,None,space,0.30247259999987364,None,,,,,,,,,,,,P103,001,2024-11-15_08h29.57.384,posner_endo_new1,2024.2.4,60.01777726563169,2024-11-15 08h30.17.711096 +0000,
-0.31,0.005,3,3,0,down,4.052702899999986,None,space,0.391738499999974,None,,,,,0,3,3,2,,,,,2178.4454673,,,,,,,,,,,,2178.4296768,2178.4454673,2178.4454673,2182.5087503,,,,2182.5089957,2182.5245237,2182.5245237,2182.5245237,2182.8242544,2182.9249753999998,,,,down,4.052702899999986,None,space,0.391738499999974,None,,,,,,,,,,,,P103,001,2024-11-15_08h29.57.384,posner_endo_new1,2024.2.4,60.01777726563169,2024-11-15 08h30.17.711096 +0000,
0.005,10,4,4,0,up,3.8311171999998805,None,None,,,,,,,0,4,4,9,,,,,2182.9408541,,,,,,,,,,,,2182.9251308,2182.9408541,2182.9408541,2186.7876996,,,,2186.7879427,2186.8036013,2186.8036013,2186.8036013,2187.1032964,2189.8006756,,,,up,3.8311171999998805,None,None,,,,,,,,,,,,,,P103,001,2024-11-15_08h29.57.384,posner_endo_new1,2024.2.4,60.01777726563169,2024-11-15 08h30.17.711096 +0000,
0.31,0.005,5,5,0,down,3.169724100000167,None,space,0.355254000000059,None,,,,,0,5,5,3,,,,,2189.8171016,,,,,,,,,,,,2189.8008289,2189.8171016,2189.8171016,2192.9978393,,,,2192.9980897,2193.0138644,2193.0138644,2193.0138644,2193.3134661999998,2193.3809388,,,,down,3.169724100000167,None,space,0.355254000000059,None,,,,,,,,,,,,P103,001,2024-11-15_08h29.57.384,posner_endo_new1,2024.2.4,60.01777726563169,2024-11-15 08h30.17.711096 +0000,
0.005,-0.31,6,6,0,up,2.6944056000002092,None,space,0.4396867000000384,None,,,,,0,6,6,7,,,,,2193.3968701999997,,,,,,,,,,,,2193.3810933,2193.3968701999997,2193.3968701999997,2196.0948534,,,,2196.0950913,2196.1106994,2196.1106994,2196.1106994,2196.4104045999998,2196.560957,,,,up,2.6944056000002092,None,space,0.4396867000000384,None,,,,,,,,,,,,P103,001,2024-11-15_08h29.57.384,posner_endo_new1,2024.2.4,60.01777726563169,2024-11-15 08h30.17.711096 +0000,
-0.31,0.005,7,7,0,down,4.553739999999834,None,space,0.44248990000005506,None,,,,,0,7,7,0,,,,,2196.5769324,,,,,,,,,,,,2196.5611121,2196.5769324,2196.5769324,2201.1397818,,,,2201.1400347999997,2201.1555113,2201.1555113,2201.1555113,2201.4552717,2201.6058601,,,,down,4.553739999999834,None,space,0.44248990000005506,None,,,,,,,,,,,,P103,001,2024-11-15_08h29.57.384,posner_endo_new1,2024.2.4,60.01777726563169,2024-11-15 08h30.17.711096 +0000,
10,0.005,8,8,0,up,4.317043500000182,None,None,,,,,,,0,8,8,4,,,,,2201.6216564,,,,,,,,,,,,2201.606013,2201.6216564,2201.6216564,2205.9512737,,,,2205.9515097,2205.9673675,2205.9673675,2205.9673675,2206.2669683,2208.9643719,,,,up,4.317043500000182,None,None,,,,,,,,,,,,,,P103,001,2024-11-15_08h29.57.384,posner_endo_new1,2024.2.4,60.01777726563169,2024-11-15 08h30.17.711096 +0000,
0.005,-0.31,9,9,0,down,5.197429000000284,None,space,0.4480285999998159,None,,,,,0,9,9,5,,,,,2208.9808737,,,,,,,,,,,,2208.9645234,2208.9808737,2208.9808737,2214.1929669,,,,2214.193214,2214.2088597,2214.2088597,2214.2088597,2214.5084838,2214.6591973,,,,down,5.197429000000284,None,space,0.4480285999998159,None,,,,,,,,,,,,P103,001,2024-11-15_08h29.57.384,posner_endo_new1,2024.2.4,60.01777726563169,2024-11-15 08h30.17.711096 +0000,
0.31,0.005,10,0,1,up,3.4472358000002714,None,space,0.358288000000357,None,,,,,1,0,10,3,,,,,2214.6750259,,,,,,,,,,,,2214.6593534999997,2214.6750259,2214.6750259,2218.1389630999997,,,,2218.1392075999997,2218.1548216,2218.1548216,2218.1548216,2218.4545185,2218.5218313,,,,up,3.4472358000002714,None,space,0.358288000000357,None,,,,,,,,,,,,P103,001,2024-11-15_08h29.57.384,posner_endo_new1,2024.2.4,60.01777726563169,2024-11-15 08h30.17.711096 +0000,
10,0.005,11,1,1,down,3.688430199999857,None,None,,,,,,,1,1,11,4,,,,,2218.5378621,,,,,,,,,,,,2218.5219851,2218.5378621,2218.5378621,2222.2352074,,,,2222.2354514999997,2222.2505706,2222.2505706,2222.2505706,2222.5502591,2225.2477247,,,,down,3.688430199999857,None,None,,,,,,,,,,,,,,P103,001,2024-11-15_08h29.57.384,posner_endo_new1,2024.2.4,60.01777726563169,2024-11-15 08h30.17.711096 +0000,
0.005,-0.31,12,2,1,up,0.5070362000001296,None,space,0.3682865999999194,None,,,,,1,2,12,7,,,,,2225.2642988,,,,,,,,,,,,2225.2478821,2225.2642988,2225.2642988,2225.7811843,,,,2225.7814243,2225.7968738,2225.7968738,2225.7968738,2226.0965894,2226.180754,,,,up,0.5070362000001296,None,space,0.3682865999999194,None,,,,,,,,,,,,P103,001,2024-11-15_08h29.57.384,posner_endo_new1,2024.2.4,60.01777726563169,2024-11-15 08h30.17.711096 +0000,
0.005,0.31,13,3,1,down,5.077747100000124,None,space,0.3844911000001048,None,,,,,1,3,13,6,,,,,2226.1965841,,,,,,,,,,,,2226.1809091,2226.1965841,2226.1965841,2231.2756745,,,,2231.2759126,2231.2913746,2231.2913746,2231.2913746,2231.5910976,2231.6916448,,,,down,5.077747100000124,None,space,0.3844911000001048,None,,,,,,,,,,,,P103,001,2024-11-15_08h29.57.384,posner_endo_new1,2024.2.4,60.01777726563169,2024-11-15 08h30.17.711096 +0000,
-0.31,0.005,14,4,1,up,4.526612300000124,None,space,0.3137714999998025,None,,,,,1,4,14,2,,,,,2231.7077154,,,,,,,,,,,,2231.6918011,2231.7077154,2231.7077154,2236.2372239,,,,2236.2374634,2236.2529179,2236.2529179,2236.2529179,2236.5525614,2236.5702149999997,,,,up,4.526612300000124,None,space,0.3137714999998025,None,,,,,,,,,,,,P103,001,2024-11-15_08h29.57.384,posner_endo_new1,2024.2.4,60.01777726563169,2024-11-15 08h30.17.711096 +0000,
0.005,-0.31,15,5,1,down,5.729337499999929,None,space,0.5791819000000942,None,,,,,1,5,15,5,,,,,2236.585864,,,,,,,,,,,,2236.5703679,2236.585864,2236.585864,2242.3306612,,,,2242.3309146,2242.3467517999998,2242.3467517999998,2242.3467517999998,2242.6464024,2242.9303428,,,,down,5.729337499999929,None,space,0.5791819000000942,None,,,,,,,,,,,,P103,001,2024-11-15_08h29.57.384,posner_endo_new1,2024.2.4,60.01777726563169,2024-11-15 08h30.17.711096 +0000,
0.31,0.005,16,6,1,up,2.8805060999998204,None,space,0.3712398000002395,None,,,,,1,6,16,1,,,,,2242.9461247,,,,,,,,,,,,2242.9305012,2242.9461247,2242.9461247,2245.8274022,,,,2245.8276531,2245.8431709,2245.8431709,2245.8431709,2246.1428596,2246.2268696,,,,up,2.8805060999998204,None,space,0.3712398000002395,None,,,,,,,,,,,,P103,001,2024-11-15_08h29.57.384,posner_endo_new1,2024.2.4,60.01777726563169,2024-11-15 08h30.17.711096 +0000,
0.005,0.31,17,7,1,down,5.464288699999997,None,space,0.4557433999998466,None,,,,,1,7,17,8,,,,,2246.2428163,,,,,,,,,,,,2246.2270304,2246.2428163,2246.2428163,2251.7213001,,,,2251.7215453999997,2251.7371499,2251.7371499,2251.7371499,2252.0369556,2252.2040626,,,,down,5.464288699999997,None,space,0.4557433999998466,None,,,,,,,,,,,,P103,001,2024-11-15_08h29.57.384,posner_endo_new1,2024.2.4,60.01777726563169,2024-11-15 08h30.17.711096 +0000,
0.005,10,18,8,1,up,2.8472568000001957,None,None,,,,,,,1,8,18,9,,,,,2252.2200439,,,,,,,,,,,,2252.2042329,2252.2200439,2252.2200439,2255.0680075,,,,2255.0682530999998,2255.0839201999997,2255.0839201999997,2255.0839201999997,2255.3834354,2258.0806955,,,,up,2.8472568000001957,None,None,,,,,,,,,,,,,,P103,001,2024-11-15_08h29.57.384,posner_endo_new1,2024.2.4,60.01777726563169,2024-11-15 08h30.17.711096 +0000,
-0.31,0.005,19,9,1,down,3.753139200000078,None,space,0.26657129999966855,None,,,,,1,9,19,0,,,,,2258.0973516,,,,,,,,,,,,2258.0808556,2258.0973516,2258.0973516,2261.8608087,,,,2261.8610473999997,2261.8768683,2261.8768683,2261.8768683,,2262.1441608,,,,down,3.753139200000078,None,space,0.26657129999966855,None,,,,,,,,,,,,P103,001,2024-11-15_08h29.57.384,posner_endo_new1,2024.2.4,60.01777726563169,2024-11-15 08h30.17.711096 +0000,
0.005,-0.31,20,0,2,up,5.8592813999998725,None,space,0.3777992999998787,None,,,,,2,0,20,7,,,,,2262.1598288,,,,,,,,,,,,2262.1443179,2262.1598288,2262.1598288,2268.0214627,,,,2268.0217036,2268.0370918,2268.0370918,2268.0370918,2268.3369179,2268.4210524,,,,up,5.8592813999998725,None,space,0.3777992999998787,None,,,,,,,,,,,,P103,001,2024-11-15_08h29.57.384,posner_endo_new1,2024.2.4,60.01777726563169,2024-11-15 08h30.17.711096 +0000,
0.005,-0.31,21,1,2,down,5.661509500000193,None,space,0.434822499999882,None,,,,,2,1,21,5,,,,,2268.4368394,,,,,,,,,,,,2268.4212081,2268.4368394,2268.4368394,2274.1151043,,,,2274.1153406,2274.1309155999998,2274.1309155999998,2274.1309155999998,2274.4305949,2274.5812143,,,,down,5.661509500000193,None,space,0.434822499999882,None,,,,,,,,,,,,P103,001,2024-11-15_08h29.57.384,posner_endo_new1,2024.2.4,60.01777726563169,2024-11-15 08h30.17.711096 +0000,
0.005,0.31,22,2,2,down,8.94961340000009,None,space,0.3662592000000586,None,,,,,2,2,22,8,,,,,2274.5970901,,,,,,,,,,,,2274.5813677,2274.5970901,2274.5970901,2283.5554057,,,,2283.5556441999997,2283.5711727,2283.5711727,2283.5711727,2283.8710203,2283.9383522,,,,down,8.94961340000009,None,space,0.3662592000000586,None,,,,,,,,,,,,P103,001,2024-11-15_08h29.57.384,posner_endo_new1,2024.2.4,60.01777726563169,2024-11-15 08h30.17.711096 +0000,
0.005,0.31,23,3,2,up,4.360768500000177,None,space,0.34905239999989135,None,,,,,2,3,23,6,,,,,2283.9541289,,,,,,,,,,,,2283.9385102,2283.9541289,2283.9541289,2288.3171955,,,,2288.3174397,2288.3329725,2288.3329725,2288.3329725,2288.6327074,2288.6835422,,,,up,4.360768500000177,None,space,0.34905239999989135,None,,,,,,,,,,,,P103,001,2024-11-15_08h29.57.384,posner_endo_new1,2024.2.4,60.01777726563169,2024-11-15 08h30.17.711096 +0000,
10,0.005,24,4,2,down,4.519193599999653,None,None,,,,,,,2,4,24,4,,,,,2288.6992627,,,,,,,,,,,,2288.6836972,2288.6992627,2288.6992627,2293.2287179,,,,2293.2289564,2293.2447452,2293.2447452,2293.2447452,2293.5445621,2296.2416668,,,,down,4.519193599999653,None,None,,,,,,,,,,,,,,P103,001,2024-11-15_08h29.57.384,posner_endo_new1,2024.2.4,60.01777726563169,2024-11-15 08h30.17.711096 +0000,
-0.31,0.005,25,5,2,up,1.9529602000002342,None,space,0.3571022000000994,None,,,,,2,5,25,2,,,,,2296.2583246,,,,,,,,,,,,2296.241818,2296.2583246,2296.2583246,2298.2236536,,,,2298.2238925,2298.2396568999998,2298.2396568999998,2298.2396568999998,2298.5393013,2298.6066139,,,,up,1.9529602000002342,None,space,0.3571022000000994,None,,,,,,,,,,,,P103,001,2024-11-15_08h29.57.384,posner_endo_new1,2024.2.4,60.01777726563169,2024-11-15 08h30.17.711096 +0000,
0.31,0.005,26,6,2,down,5.435662400000183,None,space,0.3818530999997165,None,,,,,2,6,26,1,,,,,2298.6226456,,,,,,,,,,,,2298.6067746999997,2298.6226456,2298.6226456,2304.0677508999997,,,,2304.0679903,2304.0836669,2304.0836669,2304.0836669,2304.3833059,2304.4676073,,,,down,5.435662400000183,None,space,0.3818530999997165,None,,,,,,,,,,,,P103,001,2024-11-15_08h29.57.384,posner_endo_new1,2024.2.4,60.01777726563169,2024-11-15 08h30.17.711096 +0000,
0.005,10,27,7,2,up,2.807153400000061,None,None,,,,,,,2,7,27,9,,,,,2304.4831235,,,,,,,,,,,,2304.4677631,2304.4831235,2304.4831235,2307.2977241,,,,2307.2979619,2307.3136258,2307.3136258,2307.3136258,2307.6132933999997,2310.3107148,,,,up,2.807153400000061,None,None,,,,,,,,,,,,,,P103,001,2024-11-15_08h29.57.384,posner_endo_new1,2024.2.4,60.01777726563169,2024-11-15 08h30.17.711096 +0000,
0.31,0.005,28,8,2,down,2.667055899999923,None,space,0.30651450000004843,None,,,,,2,8,28,3,,,,,2310.3273995,,,,,,,,,,,,2310.3108702,2310.3273995,2310.3273995,2313.0083939,,,,2313.008639,2313.0244592999998,2313.0244592999998,2313.0244592999998,2313.3241306,2313.3414564,,,,down,2.667055899999923,None,space,0.30651450000004843,None,,,,,,,,,,,,P103,001,2024-11-15_08h29.57.384,posner_endo_new1,2024.2.4,60.01777726563169,2024-11-15 08h30.17.711096 +0000,
-0.31,0.005,29,9,2,up,4.269001100000423,None,space,0.4147934000002351,None,,,,,2,9,29,0,,,,,2313.3575078999997,,,,,,,,,,,,2313.3416124,2313.3575078999997,2313.3575078999997,2317.6371671,,,,2317.6374058,2317.6530601,2317.6530601,2317.6530601,2317.9526197,2318.0702246,,,,up,4.269001100000423,None,space,0.4147934000002351,None,,,,,,,,,,,,P103,001,2024-11-15_08h29.57.384,posner_endo_new1,2024.2.4,60.01777726563169,2024-11-15 08h30.17.711096 +0000,
-0.31,0.005,30,0,3,down,4.636453699999947,None,space,0.5024240999996437,None,,,,,3,0,30,2,,,,,2318.0859324,,,,,,,,,,,,2318.0703797,2318.0859324,2318.0859324,2322.7320383,,,,2322.7322789,2322.7477195,2322.7477195,2322.7477195,2323.0476691,2323.2647579,,,,down,4.636453699999947,None,space,0.5024240999996437,None,,,,,,,,,,,,P103,001,2024-11-15_08h29.57.384,posner_endo_new1,2024.2.4,60.01777726563169,2024-11-15 08h30.17.711096 +0000,
0.31,0.005,31,1,3,up,4.769609599999967,None,space,0.39057669999965583,None,,,,,3,1,31,1,,,,,2323.2806603,,,,,,,,,,,,2323.2649131,2323.2806603,2323.2806603,2328.0598504,,,,2328.0600888999998,2328.0756425,2328.0756425,2328.0756425,2328.3754212999997,2328.4760800999998,,,,up,4.769609599999967,None,space,0.39057669999965583,None,,,,,,,,,,,,P103,001,2024-11-15_08h29.57.384,posner_endo_new1,2024.2.4,60.01777726563169,2024-11-15 08h30.17.711096 +0000,
0.005,0.31,32,2,3,down,5.814393399999972,None,space,0.34636120000004667,None,,,,,3,2,32,8,,,,,2328.4920227,,,,,,,,,,,,2328.4762353,2328.4920227,2328.4920227,2334.3200625,,,,2334.3203015,2334.3359117,2334.3359117,2334.3359117,2334.6355664,2334.6861846,,,,down,5.814393399999972,None,space,0.34636120000004667,None,,,,,,,,,,,,P103,001,2024-11-15_08h29.57.384,posner_endo_new1,2024.2.4,60.01777726563169,2024-11-15 08h30.17.711096 +0000,
10,0.005,33,3,3,up,3.2047419999998965,None,None,,,,,,,3,3,33,4,,,,,2334.7023598,,,,,,,,,,,,2334.6863424,2334.7023598,2334.7023598,2337.9163967,,,,2337.9166359,2337.9322847,2337.9322847,2337.9322847,2338.2319818,2340.9294298,,,,up,3.2047419999998965,None,None,,,,,,,,,,,,,,P103,001,2024-11-15_08h29.57.384,posner_endo_new1,2024.2.4,60.01777726563169,2024-11-15 08h30.17.711096 +0000,
0.005,-0.31,34,4,3,down,3.6885388000000603,None,space,0.31860039999992296,None,,,,,3,4,34,7,,,,,2340.945964,,,,,,,,,,,,2340.9295813999997,2340.945964,2340.945964,2344.6427192,,,,2344.6429577,2344.6587406,2344.6587406,2344.6587406,2344.9585014,2344.9924897,,,,down,3.6885388000000603,None,space,0.31860039999992296,None,,,,,,,,,,,,P103,001,2024-11-15_08h29.57.384,posner_endo_new1,2024.2.4,60.01777726563169,2024-11-15 08h30.17.711096 +0000,
-0.31,0.005,35,5,3,up,3.8503881999999976,None,space,0.42451440000013463,None,,,,,3,5,35,0,,,,,2345.0085586,,,,,,,,,,,,2344.9926505,2345.0085586,2345.0085586,2348.8717106,,,,2348.871949,2348.8877085999998,2348.8877085999998,2348.8877085999998,2349.1875344,2349.3213642,,,,up,3.8503881999999976,None,space,0.42451440000013463,None,,,,,,,,,,,,P103,001,2024-11-15_08h29.57.384,posner_endo_new1,2024.2.4,60.01777726563169,2024-11-15 08h30.17.711096 +0000,
0.005,-0.31,36,6,3,down,5.433132000000114,None,space,0.335062999999991,None,,,,,3,6,36,5,,,,,2349.3372647,,,,,,,,,,,,2349.3215198,2349.3372647,2349.3372647,2354.7825043,,,,2354.7827488,2354.7984935,2354.7984935,2354.7984935,2355.0981069,2355.1487932,,,,down,5.433132000000114,None,space,0.335062999999991,None,,,,,,,,,,,,P103,001,2024-11-15_08h29.57.384,posner_endo_new1,2024.2.4,60.01777726563169,2024-11-15 08h30.17.711096 +0000,
0.005,0.31,37,7,3,up,4.110448800000086,None,space,0.37223279999989245,None,,,,,3,7,37,6,,,,,2355.1646688,,,,,,,,,,,,2355.1489487999997,2355.1646688,2355.1646688,2359.2778288,,,,2359.278083,2359.2937573,2359.2937573,2359.2937573,2359.593441,2359.6775282,,,,up,4.110448800000086,None,space,0.37223279999989245,None,,,,,,,,,,,,P103,001,2024-11-15_08h29.57.384,posner_endo_new1,2024.2.4,60.01777726563169,2024-11-15 08h30.17.711096 +0000,
0.31,0.005,38,8,3,down,6.829054400000132,None,space,0.37173940000002403,None,,,,,3,8,38,3,,,,,2359.693444,,,,,,,,,,,,2359.6776836,2359.693444,2359.693444,2366.5370642,,,,2366.5373051,2366.5530575,2366.5530575,2366.5530575,2366.8527754,2366.9366944,,,,down,6.829054400000132,None,space,0.37173940000002403,None,,,,,,,,,,,,P103,001,2024-11-15_08h29.57.384,posner_endo_new1,2024.2.4,60.01777726563169,2024-11-15 08h30.17.711096 +0000,
0.005,10,39,9,3,up,3.4425309000002926,None,None,,,,,,,3,9,39,9,,,,,2366.9526525,,,,,,,,,,,,2366.9368501,2366.9526525,2366.9526525,2370.3999021,,,,2370.4001491,2370.4157495,2370.4157495,2370.4157495,2370.7153942,2373.4128785,,,,up,3.4425309000002926,None,None,,,,,,,,,,,,,,P103,001,2024-11-15_08h29.57.384,posner_endo_new1,2024.2.4,60.01777726563169,2024-11-15 08h30.17.711096 +0000,
-0.31,0.005,40,0,4,down,2.4780131000002257,None,space,0.36646040000005087,None,,,,,4,0,40,2,,,,,2373.4293836,,,,,,,,,,,,2373.4130403,2373.4293836,2373.4293836,2375.9108882,,,,2375.9111264,2375.9268282,2375.9268282,2375.9268282,2376.2264338,2376.2940389,,,,down,2.4780131000002257,None,space,0.36646040000005087,None,,,,,,,,,,,,P103,001,2024-11-15_08h29.57.384,posner_endo_new1,2024.2.4,60.01777726563169,2024-11-15 08h30.17.711096 +0000,
10,0.005,41,1,4,up,2.9173101999999744,None,None,,,,,,,4,1,41,4,,,,,2376.3097862,,,,,,,,,,,,2376.2941932999997,2376.3097862,2376.3097862,2379.2410752,,,,2379.2413177,2379.2566778,2379.2566778,2379.2566778,2379.5566923,2382.2537614,,,,up,2.9173101999999744,None,None,,,,,,,,,,,,,,P103,001,2024-11-15_08h29.57.384,posner_endo_new1,2024.2.4,60.01777726563169,2024-11-15 08h30.17.711096 +0000,
0.005,10,42,2,4,down,2.8766075000003184,None,None,,,,,,,4,2,42,9,,,,,2382.2703348,,,,,,,,,,,,2382.2539192,2382.2703348,2382.2703348,2385.1514038,,,,2385.1516437,2385.1670329,2385.1670329,2385.1670329,2385.4671411,2388.1644223,,,,down,2.8766075000003184,None,None,,,,,,,,,,,,,,P103,001,2024-11-15_08h29.57.384,posner_endo_new1,2024.2.4,60.01777726563169,2024-11-15 08h30.17.711096 +0000,
-0.31,0.005,43,3,4,up,1.23824680000007,None,space,0.33139859999982946,None,,,,,4,3,43,0,,,,,2388.180819,,,,,,,,,,,,2388.1645742,2388.180819,2388.180819,2389.4303034,,,,2389.4305472,2389.446312,2389.446312,2389.446312,2389.74609,2389.7800528,,,,up,1.23824680000007,None,space,0.33139859999982946,None,,,,,,,,,,,,P103,001,2024-11-15_08h29.57.384,posner_endo_new1,2024.2.4,60.01777726563169,2024-11-15 08h30.17.711096 +0000,
0.005,-0.31,44,4,4,down,5.350685099999737,None,space,0.5493753000000652,None,,,,,4,4,44,7,,,,,2389.7958654999998,,,,,,,,,,,,2389.780209,2389.7958654999998,2389.7958654999998,2395.1578546,,,,2395.1580949,2395.1738136999998,2395.1738136999998,2395.1738136999998,2395.4735642,2395.7240255,,,,down,5.350685099999737,None,space,0.5493753000000652,None,,,,,,,,,,,,P103,001,2024-11-15_08h29.57.384,posner_endo_new1,2024.2.4,60.01777726563169,2024-11-15 08h30.17.711096 +0000,
0.005,-0.31,45,5,4,up,4.263120899999649,None,space,0.35170030000017505,None,,,,,4,5,45,5,,,,,2395.7396728999997,,,,,,,,,,,,2395.7241860999998,2395.7396728999997,2395.7396728999997,2400.019515,,,,2400.019752,2400.0354114,2400.0354114,2400.0354114,2400.3351527,2400.4025827,,,,up,4.263120899999649,None,space,0.35170030000017505,None,,,,,,,,,,,,P103,001,2024-11-15_08h29.57.384,posner_endo_new1,2024.2.4,60.01777726563169,2024-11-15 08h30.17.711096 +0000,
0.31,0.005,46,6,4,down,7.080418500000178,None,space,0.30257110000002285,None,,,,,4,6,46,1,,,,,2400.4183806,,,,,,,,,,,,2400.4027397,2400.4183806,2400.4183806,2407.511853,,,,2407.5120962,2407.5277677999998,2407.5277677999998,2407.5277677999998,2407.8274624,2407.8448531,,,,down,7.080418500000178,None,space,0.30257110000002285,None,,,,,,,,,,,,P103,001,2024-11-15_08h29.57.384,posner_endo_new1,2024.2.4,60.01777726563169,2024-11-15 08h30.17.711096 +0000,
0.005,0.31,47,7,4,up,3.2306014999999206,None,space,0.3435015999998541,None,,,,,4,7,47,6,,,,,2407.8607422,,,,,,,,,,,,2407.8450082,2407.8607422,2407.8607422,2411.1081192,,,,2411.108363,2411.1241179999997,2411.1241179999997,2411.1241179999997,2411.4238843,2411.4744379,,,,up,3.2306014999999206,None,space,0.3435015999998541,None,,,,,,,,,,,,P103,001,2024-11-15_08h29.57.384,posner_endo_new1,2024.2.4,60.01777726563169,2024-11-15 08h30.17.711096 +0000,
0.005,0.31,48,8,4,down,4.264316400000098,None,space,0.3263566999999057,None,,,,,4,8,48,8,,,,,2411.4905424,,,,,,,,,,,,2411.4745946,2411.4905424,2411.4905424,2415.7700864,,,,2415.7703285,2415.7860817,2415.7860817,2415.7860817,2416.085719,2416.1196075,,,,down,4.264316400000098,None,space,0.3263566999999057,None,,,,,,,,,,,,P103,001,2024-11-15_08h29.57.384,posner_endo_new1,2024.2.4,60.01777726563169,2024-11-15 08h30.17.711096 +0000,
0.31,0.005,49,9,4,up,4.627881700000216,None,space,0.3577231999997821,None,,,,,4,9,49,3,,,,,2416.13573,,,,,,,,,,,,2416.1197616,2416.13573,2416.13573,2420.7651581,,,,2420.7653996999998,2420.7809363,2420.7809363,2420.7809363,2421.0806754,2421.14809,,,,up,4.627881700000216,None,space,0.3577231999997821,None,,,,,,,,,,,,P103,001,2024-11-15_08h29.57.384,posner_endo_new1,2024.2.4,60.01777726563169,2024-11-15 08h30.17.711096 +0000,
0.005,0.31,50,0,5,down,5.134588800000074,None,space,0.31357260000004317,None,,,,,5,0,50,8,,,,,2421.1638302,,,,,,,,,,,,2421.1482469,2421.1638302,2421.1638302,2426.3092182,,,,2426.309471,2426.3252407,2426.3252407,2426.3252407,2426.6249656,2426.6424259,,,,down,5.134588800000074,None,space,0.31357260000004317,None,,,,,,,,,,,,P103,001,2024-11-15_08h29.57.384,posner_endo_new1,2024.2.4,60.01777726563169,2024-11-15 08h30.17.711096 +0000,
0.005,10,51,1,5,up,4.43237709999994,None,None,,,,,,,5,1,51,9,,,,,2426.6583028,,,,,,,,,,,,2426.6425858,2426.6583028,2426.6583028,2431.1044028,,,,2431.1046384,2431.120391,2431.120391,2431.120391,2431.4200516,2434.1174155,,,,up,4.43237709999994,None,None,,,,,,,,,,,,,,P103,001,2024-11-15_08h29.57.384,posner_endo_new1,2024.2.4,60.01777726563169,2024-11-15 08h30.17.711096 +0000,
-0.31,0.005,52,2,5,down,2.1808884000001854,None,space,0.3437693999999283,None,,,,,5,2,52,0,,,,,2434.1339073999998,,,,,,,,,,,,2434.1175681,2434.1339073999998,2434.1339073999998,2436.3158104999998,,,,2436.3160567,2436.3317356,2436.3317356,2436.3317356,2436.6313677,2436.6822111,,,,down,2.1808884000001854,None,space,0.3437693999999283,None,,,,,,,,,,,,P103,001,2024-11-15_08h29.57.384,posner_endo_new1,2024.2.4,60.01777726563169,2024-11-15 08h30.17.711096 +0000,
0.31,0.005,53,3,5,up,7.553142100000059,None,space,0.37566519999973025,None,,,,,5,3,53,1,,,,,2436.6980113,,,,,,,,,,,,2436.6823662,2436.6980113,2436.6980113,2444.2577708,,,,2444.258009,2444.2734208,2444.2734208,2444.2734208,2444.5732142,2444.6572696,,,,up,7.553142100000059,None,space,0.37566519999973025,None,,,,,,,,,,,,P103,001,2024-11-15_08h29.57.384,posner_endo_new1,2024.2.4,60.01777726563169,2024-11-15 08h30.17.711096 +0000,
10,0.005,54,4,5,down,3.897782100000313,None,None,,,,,,,5,4,54,4,,,,,2444.6731363,,,,,,,,,,,,2444.657423,2444.6731363,2444.6731363,2448.5864674,,,,2448.5867088,2448.6025053,2448.6025053,2448.6025053,2448.9020759,2451.5996018,,,,down,3.897782100000313,None,None,,,,,,,,,,,,,,P103,001,2024-11-15_08h29.57.384,posner_endo_new1,2024.2.4,60.01777726563169,2024-11-15 08h30.17.711096 +0000,
0.005,0.31,55,5,5,up,4.0192354000000705,None,space,0.4084646999999677,None,,,,,5,5,55,6,,,,,2451.6160356,,,,,,,,,,,,2451.599754,2451.6160356,2451.6160356,2455.6459845,,,,2455.6462221,2455.6618712,2455.6618712,2455.6618712,2455.9617722,2456.0790502,,,,up,4.0192354000000705,None,space,0.4084646999999677,None,,,,,,,,,,,,P103,001,2024-11-15_08h29.57.384,posner_endo_new1,2024.2.4,60.01777726563169,2024-11-15 08h30.17.711096 +0000,
0.31,0.005,56,6,5,down,5.148039700000027,None,space,0.4052113000002464,None,,,,,5,6,56,3,,,,,2456.094687,,,,,,,,,,,,2456.079204,2456.094687,2456.094687,2461.256914,,,,2461.2571549,2461.2727345,2461.2727345,2461.2727345,2461.5726128,2461.6897632,,,,down,5.148039700000027,None,space,0.4052113000002464,None,,,,,,,,,,,,P103,001,2024-11-15_08h29.57.384,posner_endo_new1,2024.2.4,60.01777726563169,2024-11-15 08h30.17.711096 +0000,
-0.31,0.005,57,7,5,down,5.841402300000027,None,space,0.42357250000031854,None,,,,,5,7,57,2,,,,,2461.7057334,,,,,,,,,,,,2461.6899175,2461.7057334,2461.7057334,2467.5506304,,,,2467.5508674,2467.5662988,2467.5662988,2467.5662988,2467.8660657,2468.0000139,,,,down,5.841402300000027,None,space,0.42357250000031854,None,,,,,,,,,,,,P103,001,2024-11-15_08h29.57.384,posner_endo_new1,2024.2.4,60.01777726563169,2024-11-15 08h30.17.711096 +0000,
0.005,-0.31,58,8,5,up,2.9310026000002836,None,space,0.4713381000001391,None,,,,,5,8,58,5,,,,,2468.0159409,,,,,,,,,,,,2468.0001796,2468.0159409,2468.0159409,2470.9636347,,,,2470.9638754,2470.9796103999997,2470.9796103999997,2470.9796103999997,2471.2793798,2471.4631372,,,,up,2.9310026000002836,None,space,0.4713381000001391,None,,,,,,,,,,,,P103,001,2024-11-15_08h29.57.384,posner_endo_new1,2024.2.4,60.01777726563169,2024-11-15 08h30.17.711096 +0000,
0.005,-0.31,59,9,5,down,3.443334099999902,None,space,0.3438672000002043,None,,,,,5,9,59,7,,,,,2471.4791536,,,,,,,,,,,,2471.4632931,2471.4791536,2471.4791536,2474.9263557,,,,2474.9266092,2474.9420878,2474.9420878,2474.9420878,2475.2418614,2475.2926809,,,,down,3.443334099999902,None,space,0.3438672000002043,None,,,,,,,,,,,,P103,001,2024-11-15_08h29.57.384,posner_endo_new1,2024.2.4,60.01777726563169,2024-11-15 08h30.17.711096 +0000,
,,,,,,,,,,,,,,,,,,,,,,,,,,,,,,,,,,,,,,,,,,,,,,,,,,,,,,,,,2475.2927839999998,2475.3084161,2475.3084161,2535.2810633999998,None,,,,,,,P103,001,2024-11-15_08h29.57.384,posner_endo_new1,2024.2.4,60.01777726563169,2024-11-15 08h30.17.711096 +0000,
,,,,,,,,,,,,,,,,,,,,,,,,,,,,,,,,2535.2811140999997,2535.2971426,2538.2942052,,,,,,,,,,,,,,,,,,,,,,,,,,,,,,,,,,P103,001,2024-11-15_08h29.57.384,posner_endo_new1,2024.2.4,60.01777726563169,2024-11-15 08h30.17.711096 +0000,
0.005,-0.31,0,0,0,down,7.060696300000018,None,space,0.32062889999997424,None,,,,,,,,,0,0,0,7,2538.3107557,,,,,,,,,,,,2538.3001282,2538.3107557,2538.3107557,2545.387478,,,,2545.387737,2545.4034742,2545.4034742,2545.4034742,2545.7030916999997,2545.7372399,,,,,,,,,,,,,,,down,7.060696300000018,None,space,0.32062889999997424,None,P103,001,2024-11-15_08h29.57.384,posner_endo_new1,2024.2.4,60.01777726563169,2024-11-15 08h30.17.711096 +0000,
0.005,0.31,1,1,0,up,3.161412400000245,None,space,0.3637391000002026,None,,,,,,,,,0,1,1,6,2545.7531269,,,,,,,,,,,,2545.7373957,2545.7531269,2545.7531269,2548.9172198,,,,2548.9174596,2548.9331145,2548.9331145,2548.9331145,2549.2327894,2549.3002953,,,,,,,,,,,,,,,up,3.161412400000245,None,space,0.3637391000002026,None,P103,001,2024-11-15_08h29.57.384,posner_endo_new1,2024.2.4,60.01777726563169,2024-11-15 08h30.17.711096 +0000,
0.005,0.31,2,2,0,down,3.711289100000158,None,space,0.3192709999998442,None,,,,,,,,,0,2,2,8,2549.3161308999997,,,,,,,,,,,,2549.3004553,2549.3161308999997,2549.3161308999997,2553.0298104,,,,2553.0300496,2553.0455916,2553.0455916,2553.0455916,2553.345414,2553.3794368,,,,,,,,,,,,,,,down,3.711289100000158,None,space,0.3192709999998442,None,P103,001,2024-11-15_08h29.57.384,posner_endo_new1,2024.2.4,60.01777726563169,2024-11-15 08h30.17.711096 +0000,
0.31,0.005,3,3,0,up,3.1754358000002867,None,space,0.40459069999997155,None,,,,,,,,,0,3,3,1,2553.3952305,,,,,,,,,,,,2553.3795944,2553.3952305,2553.3952305,2556.5762328,,,,2556.5764745,2556.5919470999997,2556.5919470999997,2556.5919470999997,2556.8917826,2557.0089908,,,,,,,,,,,,,,,up,3.1754358000002867,None,space,0.40459069999997155,None,P103,001,2024-11-15_08h29.57.384,posner_endo_new1,2024.2.4,60.01777726563169,2024-11-15 08h30.17.711096 +0000,
-0.31,0.005,4,4,0,down,3.506242200000088,None,space,0.3568830999997772,None,,,,,,,,,0,4,4,0,2557.0249365,,,,,,,,,,,,2557.0091488,2557.0249365,2557.0249365,2560.5387057,,,,2560.5389475,2560.5545356,2560.5545356,2560.5545356,2560.8544099,2560.9217519999997,,,,,,,,,,,,,,,down,3.506242200000088,None,space,0.3568830999997772,None,P103,001,2024-11-15_08h29.57.384,posner_endo_new1,2024.2.4,60.01777726563169,2024-11-15 08h30.17.711096 +0000,
0.005,-0.31,5,5,0,up,2.729769800000213,None,space,0.3937580000001617,None,,,,,,,,,0,5,5,5,2560.9376652,,,,,,,,,,,,2560.9219112,2560.9376652,2560.9376652,2563.6690218,,,,2563.669263,2563.684734,2563.684734,2563.684734,2563.9845332,2564.0851253,,,,,,,,,,,,,,,up,2.729769800000213,None,space,0.3937580000001617,None,P103,001,2024-11-15_08h29.57.384,posner_endo_new1,2024.2.4,60.01777726563169,2024-11-15 08h30.17.711096 +0000,
0.31,0.005,6,6,0,down,5.53405819999989,None,space,0.30328240000017104,None,,,,,,,,,0,6,6,3,2564.100933,,,,,,,,,,,,2564.0852885,2564.100933,2564.100933,2569.6459654,,,,2569.6462057,2569.6619640999998,2569.6619640999998,2569.6619640999998,2569.9617675,2569.9790305,,,,,,,,,,,,,,,down,5.53405819999989,None,space,0.30328240000017104,None,P103,001,2024-11-15_08h29.57.384,posner_endo_new1,2024.2.4,60.01777726563169,2024-11-15 08h30.17.711096 +0000,
10,0.005,7,7,0,up,3.7360865999999078,None,None,,,,,,,,,,,0,7,7,4,2569.9950283,,,,,,,,,,,,2569.9791879,2569.9950283,2569.9950283,2573.7418519,,,,2573.7420896999997,2573.7578207,2573.7578207,2573.7578207,2574.0574895,2576.7548228,,,,,,,,,,,,,,,up,3.7360865999999078,None,None,,,P103,001,2024-11-15_08h29.57.384,posner_endo_new1,2024.2.4,60.01777726563169,2024-11-15 08h30.17.711096 +0000,
-0.31,0.005,8,8,0,down,1.5837997999997242,None,space,0.33602209999980914,None,,,,,,,,,0,8,8,2,2576.771453,,,,,,,,,,,,2576.7549778,2576.771453,2576.771453,2578.3704497,,,,2578.370717,2578.3863616,2578.3863616,2578.3863616,2578.6860493,2578.7368464,,,,,,,,,,,,,,,down,1.5837997999997242,None,space,0.33602209999980914,None,P103,001,2024-11-15_08h29.57.384,posner_endo_new1,2024.2.4,60.01777726563169,2024-11-15 08h30.17.711096 +0000,
0.005,10,9,9,0,up,3.5859190000001036,None,None,,,,,,,,,,,0,9,9,9,2578.752679,,,,,,,,,,,,2578.7370045,2578.752679,2578.752679,2582.349679,,,,2582.3499261,2582.3656918,2582.3656918,2582.3656918,2582.665212,2585.3626644,,,,,,,,,,,,,,,up,3.5859190000001036,None,None,,,P103,001,2024-11-15_08h29.57.384,posner_endo_new1,2024.2.4,60.01777726563169,2024-11-15 08h30.17.711096 +0000,
-0.31,0.005,10,0,1,down,2.1837435000002188,None,space,0.4330328000000918,None,,,,,,,,,1,0,10,0,2585.3792694,,,,,,,,,,,,2585.3628198,2585.3792694,2585.3792694,2587.5776986,,,,2587.5779254999998,2587.5936199,2587.5936199,2587.5936199,2587.8933471,2588.0273690999998,,,,,,,,,,,,,,,down,2.1837435000002188,None,space,0.4330328000000918,None,P103,001,2024-11-15_08h29.57.384,posner_endo_new1,2024.2.4,60.01777726563169,2024-11-15 08h30.17.711096 +0000,
0.005,-0.31,11,1,1,up,3.01680209999995,None,space,0.3504457999997612,None,,,,,,,,,1,1,11,7,2588.0432279,,,,,,,,,,,,2588.0275264,2588.0432279,2588.0432279,2591.0740389,,,,2591.0743003,2591.0901381999997,2591.0901381999997,2591.0901381999997,2591.3897718,2591.457145,,,,,,,,,,,,,,,up,3.01680209999995,None,space,0.3504457999997612,None,P103,001,2024-11-15_08h29.57.384,posner_endo_new1,2024.2.4,60.01777726563169,2024-11-15 08h30.17.711096 +0000,
-0.31,0.005,12,2,1,down,2.5375669000000016,None,space,0.383685300000252,None,,,,,,,,,1,2,12,2,2591.4731125,,,,,,,,,,,,2591.4573039,2591.4731125,2591.4731125,2594.0210792,,,,2594.0213198,2594.0371090999997,2594.0371090999997,2594.0371090999997,2594.3361297,2594.4377522,,,,,,,,,,,,,,,down,2.5375669000000016,None,space,0.383685300000252,None,P103,001,2024-11-15_08h29.57.384,posner_endo_new1,2024.2.4,60.01777726563169,2024-11-15 08h30.17.711096 +0000,
0.005,-0.31,13,3,1,up,3.5979302000000644,None,space,0.28720530000009603,None,,,,,,,,,1,3,13,5,2594.4530088,,,,,,,,,,,,2594.4379099,2594.4530088,2594.4530088,2598.0669219,,,,2598.0671615,2598.0830336999998,2598.0830336999998,2598.0830336999998,2598.382548,2598.3833041,,,,,,,,,,,,,,,up,3.5979302000000644,None,space,0.28720530000009603,None,P103,001,2024-11-15_08h29.57.384,posner_endo_new1,2024.2.4,60.01777726563169,2024-11-15 08h30.17.711096 +0000,
0.005,0.31,14,4,1,down,4.131929199999831,None,space,0.2691998999998759,None,,,,,,,,,1,4,14,8,2598.3992866,,,,,,,,,,,,2598.3834579,2598.3992866,2598.3992866,2602.5456665,,,,2602.5459066,2602.5615923,2602.5615923,2602.5615923,2602.8614432,2602.8454758,,,,,,,,,,,,,,,down,4.131929199999831,None,space,0.2691998999998759,None,P103,001,2024-11-15_08h29.57.384,posner_endo_new1,2024.2.4,60.01777726563169,2024-11-15 08h30.17.711096 +0000,
0.005,10,15,5,1,up,4.478029200000037,None,None,,,,,,,,,,,1,5,15,9,2602.8614432,,,,,,,,,,,,2602.8456369,2602.8614432,2602.8614432,2607.3409366,,,,2607.3411765,2607.3567301,2607.3567301,2607.3567301,2607.6564361,2610.3537564,,,,,,,,,,,,,,,up,4.478029200000037,None,None,,,P103,001,2024-11-15_08h29.57.384,posner_endo_new1,2024.2.4,60.01777726563169,2024-11-15 08h30.17.711096 +0000,
10,0.005,16,6,1,down,0.9129173999999693,None,None,,,,,,,,,,,1,6,16,4,2610.3704308,,,,,,,,,,,,2610.3539102,2610.3704308,2610.3704308,2611.2866562,,,,2611.2869011,2611.3027935,2611.3027935,2611.3027935,2611.602236,2614.2997407,,,,,,,,,,,,,,,down,0.9129173999999693,None,None,,,P103,001,2024-11-15_08h29.57.384,posner_endo_new1,2024.2.4,60.01777726563169,2024-11-15 08h30.17.711096 +0000,
0.31,0.005,17,7,1,up,1.358854699999938,None,space,0.3344747000001007,None,,,,,,,,,1,7,17,1,2614.3163359,,,,,,,,,,,,2614.2998938,2614.3163359,2614.3163359,2615.6823127,,,,2615.6825518,2615.6982874,2615.6982874,2615.6982874,2615.9979471,2616.0485666,,,,,,,,,,,,,,,up,1.358854699999938,None,space,0.3344747000001007,None,P103,001,2024-11-15_08h29.57.384,posner_endo_new1,2024.2.4,60.01777726563169,2024-11-15 08h30.17.711096 +0000,
0.005,0.31,18,8,1,down,3.6268803000002663,None,space,0.37945270000000164,None,,,,,,,,,1,8,18,6,2616.0645240999997,,,,,,,,,,,,2616.0487268,2616.0645240999997,2616.0645240999997,2619.6950191,,,,2619.695259,2619.7108451,2619.7108451,2619.7108451,2620.0105862,2620.0944577,,,,,,,,,,,,,,,down,3.6268803000002663,None,space,0.37945270000000164,None,P103,001,2024-11-15_08h29.57.384,posner_endo_new1,2024.2.4,60.01777726563169,2024-11-15 08h30.17.711096 +0000,
0.31,0.005,19,9,1,up,2.1724764999999024,None,space,0.38051390000009633,None,,,,,,,,,1,9,19,3,2620.1104114,,,,,,,,,,,,2620.0946162,2620.1104114,2620.1104114,2622.2921384,,,,2622.2923766,2622.3085273,2622.3085273,2622.3085273,2622.6078417999997,2622.691821,,,,,,,,,,,,,,,up,2.1724764999999024,None,space,0.38051390000009633,None,P103,001,2024-11-15_08h29.57.384,posner_endo_new1,2024.2.4,60.01777726563169,2024-11-15 08h30.17.711096 +0000,
0.31,0.005,20,0,2,up,5.718955000000278,None,space,0.3259154000002127,None,,,,,,,,,2,0,20,1,2622.7077041,,,,,,,,,,,,2622.6919814,2622.7077041,2622.7077041,2628.4358936999997,,,,2628.436133,2628.4519158,2628.4519158,2628.4519158,2628.7515626,2628.7856632,,,,,,,,,,,,,,,up,5.718955000000278,None,space,0.3259154000002127,None,P103,001,2024-11-15_08h29.57.384,posner_endo_new1,2024.2.4,60.01777726563169,2024-11-15 08h30.17.711096 +0000,
10,0.005,21,1,2,down,3.2816987999999583,None,None,,,,,,,,,,,2,1,21,4,2628.8014248,,,,,,,,,,,,2628.7858195,2628.8014248,2628.8014248,2632.0988927,,,,2632.099131,2632.114761,2632.114761,2632.114761,2632.4144373,2635.1118523,,,,,,,,,,,,,,,down,3.2816987999999583,None,None,,,P103,001,2024-11-15_08h29.57.384,posner_endo_new1,2024.2.4,60.01777726563169,2024-11-15 08h30.17.711096 +0000,
0.005,-0.31,22,2,2,down,3.9307558000000427,None,space,0.4242881000000125,None,,,,,,,,,2,2,22,5,2635.1284387,,,,,,,,,,,,2635.1120097,2635.1284387,2635.1284387,2639.0749683999998,,,,2639.0752127,2639.0910773,2639.0910773,2639.0910773,2639.3906342,2639.524634,,,,,,,,,,,,,,,down,3.9307558000000427,None,space,0.4242881000000125,None,P103,001,2024-11-15_08h29.57.384,posner_endo_new1,2024.2.4,60.01777726563169,2024-11-15 08h30.17.711096 +0000,
0.005,-0.31,23,3,2,up,3.0628861000000143,None,space,0.35364350000008926,None,,,,,,,,,2,3,23,7,2639.540601,,,,,,,,,,,,2639.5247911,2639.540601,2639.540601,2642.6049206,,,,2642.6051591,2642.6207222,2642.6207222,2642.6207222,2642.9203456,2642.9877022,,,,,,,,,,,,,,,up,3.0628861000000143,None,space,0.35364350000008926,None,P103,001,2024-11-15_08h29.57.384,posner_endo_new1,2024.2.4,60.01777726563169,2024-11-15 08h30.17.711096 +0000,
0.005,10,24,4,2,down,2.9592751999998654,None,None,,,,,,,,,,,2,4,24,9,2643.0037472,,,,,,,,,,,,2642.9878607,2643.0037472,2643.0037472,2645.9681908,,,,2645.9684319,2645.9840245,2645.9840245,2645.9840245,2646.2836221,2648.9809442,,,,,,,,,,,,,,,down,2.9592751999998654,None,None,,,P103,001,2024-11-15_08h29.57.384,posner_endo_new1,2024.2.4,60.01777726563169,2024-11-15 08h30.17.711096 +0000,
0.31,0.005,25,5,2,down,5.125321999999869,None,space,0.3248879000002489,None,,,,,,,,,2,5,25,3,2648.9974812,,,,,,,,,,,,2648.9810973999997,2648.9974812,2648.9974812,2654.1263306,,,,2654.1265712,2654.1419436,2654.1419436,2654.1419436,2654.4417985,2654.4759951,,,,,,,,,,,,,,,down,5.125321999999869,None,space,0.3248879000002489,None,P103,001,2024-11-15_08h29.57.384,posner_endo_new1,2024.2.4,60.01777726563169,2024-11-15 08h30.17.711096 +0000,
-0.31,0.005,26,6,2,up,7.022952099999657,None,space,0.38812040000038905,None,,,,,,,,,2,6,26,2,2654.491854,,,,,,,,,,,,2654.4761581,2654.491854,2654.491854,2661.5188418,,,,2661.519081,2661.5347425,2661.5347425,2661.5347425,2661.834359,2661.9350627,,,,,,,,,,,,,,,up,7.022952099999657,None,space,0.38812040000038905,None,P103,001,2024-11-15_08h29.57.384,posner_endo_new1,2024.2.4,60.01777726563169,2024-11-15 08h30.17.711096 +0000,
0.005,0.31,27,7,2,up,4.556083999999828,None,space,0.3431885999998485,None,,,,,,,,,2,7,27,6,2661.9510537,,,,,,,,,,,,2661.9352238,2661.9510537,2661.9510537,2666.5137208,,,,2666.5139587,2666.5295249,2666.5295249,2666.5295249,2666.8293746,2666.8799335999997,,,,,,,,,,,,,,,up,4.556083999999828,None,space,0.3431885999998485,None,P103,001,2024-11-15_08h29.57.384,posner_endo_new1,2024.2.4,60.01777726563169,2024-11-15 08h30.17.711096 +0000,
0.005,0.31,28,8,2,down,3.1148825999998735,None,space,0.41679789999989225,None,,,,,,,,,2,8,28,8,2666.8958346,,,,,,,,,,,,2666.8800926,2666.8958346,2666.8958346,2670.026567,,,,2670.0268061,2670.0427036,2670.0427036,2670.0427036,2670.3422401,2670.4763540999998,,,,,,,,,,,,,,,down,3.1148825999998735,None,space,0.41679789999989225,None,P103,001,2024-11-15_08h29.57.384,posner_endo_new1,2024.2.4,60.01777726563169,2024-11-15 08h30.17.711096 +0000,
-0.31,0.005,29,9,2,up,2.45457929999975,None,space,0.33457339999995384,None,,,,,,,,,2,9,29,0,2670.492267,,,,,,,,,,,,2670.476517,2670.492267,2670.492267,2672.9571712,,,,2672.9574122,2672.9731403,2672.9731403,2672.9731403,2673.2727156,2673.3233901,,,,,,,,,,,,,,,up,2.45457929999975,None,space,0.33457339999995384,None,P103,001,2024-11-15_08h29.57.384,posner_endo_new1,2024.2.4,60.01777726563169,2024-11-15 08h30.17.711096 +0000,
0.005,-0.31,30,0,3,down,3.551904200000081,None,space,0.3429912999999942,None,,,,,,,,,3,0,30,5,2673.3392376,,,,,,,,,,,,2673.3235489,2673.3392376,2673.3392376,2676.9029911,,,,2676.9032374,2676.9190024,2676.9190024,2676.9190024,2677.2186917,2677.2690297999998,,,,,,,,,,,,,,,down,3.551904200000081,None,space,0.3429912999999942,None,P103,001,2024-11-15_08h29.57.384,posner_endo_new1,2024.2.4,60.01777726563169,2024-11-15 08h30.17.711096 +0000,
0.005,-0.31,31,1,3,up,3.493749100000059,None,space,0.39189100000021426,None,,,,,,,,,3,1,31,7,2677.2851393,,,,,,,,,,,,2677.2691925999998,2677.2851393,2677.2851393,2680.7826004,,,,2680.7828472,2680.7982059,2680.7982059,2680.7982059,2681.0980634,2681.1985191999997,,,,,,,,,,,,,,,up,3.493749100000059,None,space,0.39189100000021426,None,P103,001,2024-11-15_08h29.57.384,posner_endo_new1,2024.2.4,60.01777726563169,2024-11-15 08h30.17.711096 +0000,
-0.31,0.005,32,2,3,down,3.4128641000002062,None,space,0.32893890000013926,None,,,,,,,,,3,2,32,2,2681.2146027,,,,,,,,,,,,2681.1986761,2681.2146027,2681.2146027,2684.6284924,,,,2684.6287329,2684.6443732,2684.6443732,2684.6443732,2684.9441193,2684.9782495,,,,,,,,,,,,,,,down,3.4128641000002062,None,space,0.32893890000013926,None,P103,001,2024-11-15_08h29.57.384,posner_endo_new1,2024.2.4,60.01777726563169,2024-11-15 08h30.17.711096 +0000,
10,0.005,33,3,3,up,3.1605764000000818,None,None,,,,,,,,,,,3,3,33,4,2684.9940539,,,,,,,,,,,,2684.9784083,2684.9940539,2684.9940539,2688.1583792,,,,2688.158626,2688.1741244,2688.1741244,2688.1741244,2688.47379,2691.1710477,,,,,,,,,,,,,,,up,3.1605764000000818,None,None,,,P103,001,2024-11-15_08h29.57.384,posner_endo_new1,2024.2.4,60.01777726563169,2024-11-15 08h30.17.711096 +0000,
0.005,0.31,34,4,3,up,1.6392955000001166,None,space,0.32060219999993933,None,,,,,,,,,3,4,34,8,2691.1876702,,,,,,,,,,,,2691.1712033999997,2691.1876702,2691.1876702,2692.836727,,,,2692.8369669,2692.8527433,2692.8527433,2692.8527433,2693.1523687,2693.1863156,,,,,,,,,,,,,,,up,1.6392955000001166,None,space,0.32060219999993933,None,P103,001,2024-11-15_08h29.57.384,posner_endo_new1,2024.2.4,60.01777726563169,2024-11-15 08h30.17.711096 +0000,
0.31,0.005,35,5,3,down,2.297299899999871,None,space,0.35998730000028445,None,,,,,,,,,3,5,35,1,2693.2022872,,,,,,,,,,,,2693.1864722,2693.2022872,2693.2022872,2695.5007492,,,,2695.5009878,2695.5166172,2695.5166172,2695.5166172,2695.8163237999997,2695.8835556999998,,,,,,,,,,,,,,,down,2.297299899999871,None,space,0.35998730000028445,None,P103,001,2024-11-15_08h29.57.384,posner_endo_new1,2024.2.4,60.01777726563169,2024-11-15 08h30.17.711096 +0000,
0.005,10,36,6,3,up,2.343735899999956,None,None,,,,,,,,,,,3,6,36,9,2695.8994981,,,,,,,,,,,,2695.8837123,2695.8994981,2695.8994981,2698.2480594999997,,,,2698.2483027,2698.2636101,2698.2636101,2698.2636101,2698.563342,2701.2608886,,,,,,,,,,,,,,,up,2.343735899999956,None,None,,,P103,001,2024-11-15_08h29.57.384,posner_endo_new1,2024.2.4,60.01777726563169,2024-11-15 08h30.17.711096 +0000,
0.005,0.31,37,7,3,down,6.3892227999999704,None,space,0.3595642999998745,None,,,,,,,,,3,7,37,6,2701.2773537,,,,,,,,,,,,2701.2610489999997,2701.2773537,2701.2773537,2707.6715925,,,,2707.6718321,2707.6873938999997,2707.6873938999997,2707.6873938999997,2707.9871964999998,2708.0547095,,,,,,,,,,,,,,,down,6.3892227999999704,None,space,0.3595642999998745,None,P103,001,2024-11-15_08h29.57.384,posner_endo_new1,2024.2.4,60.01777726563169,2024-11-15 08h30.17.711096 +0000,
-0.31,0.005,38,8,3,up,2.660958400000254,None,space,0.3256866000001537,None,,,,,,,,,3,8,38,0,2708.0703432,,,,,,,,,,,,2708.0548728,2708.0703432,2708.0703432,2710.7356019999997,,,,2710.7358406,2710.7510581,2710.7510581,2710.7510581,2711.0507398,2711.0847662,,,,,,,,,,,,,,,up,2.660958400000254,None,space,0.3256866000001537,None,P103,001,2024-11-15_08h29.57.384,posner_endo_new1,2024.2.4,60.01777726563169,2024-11-15 08h30.17.711096 +0000,
0.31,0.005,39,9,3,down,1.878628999999819,None,space,0.3605154999995648,None,,,,,,,,,3,9,39,3,2711.1006822,,,,,,,,,,,,2711.0849276,2711.1006822,2711.1006822,2712.9828171999998,,,,2712.9830558,2712.9987299,2712.9987299,2712.9987299,2713.2983767,2713.3659572,,,,,,,,,,,,,,,down,1.878628999999819,None,space,0.3605154999995648,None,P103,001,2024-11-15_08h29.57.384,posner_endo_new1,2024.2.4,60.01777726563169,2024-11-15 08h30.17.711096 +0000,
0.005,-0.31,40,0,4,up,3.148932699999932,None,space,0.31511390000014217,None,,,,,,,,,4,0,40,7,2713.3815919999997,,,,,,,,,,,,2713.3661197,2713.3815919999997,2713.3815919999997,2716.5457423,,,,2716.5459817,2716.5618276,2716.5618276,2716.5618276,2716.8614221,2716.8788778,,,,,,,,,,,,,,,up,3.148932699999932,None,space,0.31511390000014217,None,P103,001,2024-11-15_08h29.57.384,posner_endo_new1,2024.2.4,60.01777726563169,2024-11-15 08h30.17.711096 +0000,
0.31,0.005,41,1,4,down,4.756068000000141,None,space,0.473893599999883,None,,,,,,,,,4,1,41,1,2716.894695,,,,,,,,,,,,2716.87904,2716.894695,2716.894695,2721.657261,,,,2721.6574998,2721.6731168,2721.6731168,2721.6731168,2721.9727441,2722.1567159,,,,,,,,,,,,,,,down,4.756068000000141,None,space,0.473893599999883,None,P103,001,2024-11-15_08h29.57.384,posner_endo_new1,2024.2.4,60.01777726563169,2024-11-15 08h30.17.711096 +0000,
-0.31,0.005,42,2,4,up,2.4540655999999217,None,space,0.3425668999998379,None,,,,,,,,,4,2,42,0,2722.1726599,,,,,,,,,,,,2722.1568733999998,2722.1726599,2722.1726599,2724.6374052,,,,2724.6376505,2724.6535598,2724.6535598,2724.6535598,2724.9531518,2725.0038174,,,,,,,,,,,,,,,up,2.4540655999999217,None,space,0.3425668999998379,None,P103,001,2024-11-15_08h29.57.384,posner_endo_new1,2024.2.4,60.01777726563169,2024-11-15 08h30.17.711096 +0000,
0.005,0.31,43,3,4,down,5.263315800000328,None,space,0.3360941000000821,None,,,,,,,,,4,3,43,8,2725.0197467,,,,,,,,,,,,2725.0039751,2725.0197467,2725.0197467,2730.2983907,,,,2730.2986301,2730.3143476,2730.3143476,2730.3143476,2730.6140388999997,2730.6646299999998,,,,,,,,,,,,,,,down,5.263315800000328,None,space,0.3360941000000821,None,P103,001,2024-11-15_08h29.57.384,posner_endo_new1,2024.2.4,60.01777726563169,2024-11-15 08h30.17.711096 +0000,
0.005,10,44,4,4,up,2.39475369999991,None,None,,,,,,,,,,,4,4,44,9,2730.680681,,,,,,,,,,,,2730.6647883,2730.680681,2730.680681,2733.0789529999997,,,,2733.0791995,2733.0947087,2733.0947087,2733.0947087,2733.3945588,2736.0918637,,,,,,,,,,,,,,,up,2.39475369999991,None,None,,,P103,001,2024-11-15_08h29.57.384,posner_endo_new1,2024.2.4,60.01777726563169,2024-11-15 08h30.17.711096 +0000,
0.31,0.005,45,5,4,up,7.726146299999982,None,space,0.31301380000013523,None,,,,,,,,,4,5,45,3,2736.1084945,,,,,,,,,,,,2736.0920171,2736.1084945,2736.1084945,2743.8512625,,,,2743.8515028,2743.8671369,2743.8671369,2743.8671369,2744.166853,2744.184149,,,,,,,,,,,,,,,up,7.726146299999982,None,space,0.31301380000013523,None,P103,001,2024-11-15_08h29.57.384,posner_endo_new1,2024.2.4,60.01777726563169,2024-11-15 08h30.17.711096 +0000,
0.005,-0.31,46,6,4,down,1.6193026999999347,None,space,0.3958849000000555,None,,,,,,,,,4,6,46,5,2744.2002269,,,,,,,,,,,,2744.1843075,2744.2002269,2744.2002269,2745.832501,,,,2745.8327506,2745.8484552,2745.8484552,2745.8484552,2746.1481664,2746.2488331,,,,,,,,,,,,,,,down,1.6193026999999347,None,space,0.3958849000000555,None,P103,001,2024-11-15_08h29.57.384,posner_endo_new1,2024.2.4,60.01777726563169,2024-11-15 08h30.17.711096 +0000,
0.005,0.31,47,7,4,up,1.6101111000002675,None,space,0.3003874999999425,None,,,,,,,,,4,7,47,6,2746.2646645,,,,,,,,,,,,2746.2489962,2746.2646645,2746.2646645,2747.8804342,,,,2747.8806784,2747.8963191,2747.8963191,2747.8963191,2748.1959776999997,2748.2135012999997,,,,,,,,,,,,,,,up,1.6101111000002675,None,space,0.3003874999999425,None,P103,001,2024-11-15_08h29.57.384,posner_endo_new1,2024.2.4,60.01777726563169,2024-11-15 08h30.17.711096 +0000,
10,0.005,48,8,4,up,6.197562899999866,None,None,,,,,,,,,,,4,8,48,4,2748.2294324,,,,,,,,,,,,2748.2136586,2748.2294324,2748.2294324,2754.4403156,,,,2754.4405619,2754.4563302,2754.4563302,2754.4563302,2754.7559852,2757.4534544,,,,,,,,,,,,,,,up,6.197562899999866,None,None,,,P103,001,2024-11-15_08h29.57.384,posner_endo_new1,2024.2.4,60.01777726563169,2024-11-15 08h30.17.711096 +0000,
-0.31,0.005,49,9,4,down,3.741101300000082,None,space,0.36047699999971883,None,,,,,,,,,4,9,49,2,2757.4700174,,,,,,,,,,,,2757.453609,2757.4700174,2757.4700174,2761.216911,,,,2761.217172,2761.2327108,2761.2327108,2761.2327108,2761.5324812,2761.5998375,,,,,,,,,,,,,,,down,3.741101300000082,None,space,0.36047699999971883,None,P103,001,2024-11-15_08h29.57.384,posner_endo_new1,2024.2.4,60.01777726563169,2024-11-15 08h30.17.711096 +0000,
0.005,10,50,0,5,down,4.467487699999765,None,None,,,,,,,,,,,5,0,50,9,2761.6156975999997,,,,,,,,,,,,2761.5999962,2761.6156975999997,2761.6156975999997,2766.0950829,,,,2766.0953304,2766.1110805,2766.1110805,2766.1110805,2766.4108088,2769.1081421,,,,,,,,,,,,,,,down,4.467487699999765,None,None,,,P103,001,2024-11-15_08h29.57.384,posner_endo_new1,2024.2.4,60.01777726563169,2024-11-15 08h30.17.711096 +0000,
0.005,0.31,51,1,5,up,0.7985828000000765,None,space,0.3365773000000445,None,,,,,,,,,5,1,51,8,2769.1245802,,,,,,,,,,,,2769.1082992,2769.1245802,2769.1245802,2769.924701,,,,2769.924946,2769.9404264,2769.9404264,2769.9404264,2770.2401158,2770.2909044,,,,,,,,,,,,,,,up,0.7985828000000765,None,space,0.3365773000000445,None,P103,001,2024-11-15_08h29.57.384,posner_endo_new1,2024.2.4,60.01777726563169,2024-11-15 08h30.17.711096 +0000,
0.31,0.005,52,2,5,down,5.655901500000255,None,space,0.3705313999998907,None,,,,,,,,,5,2,52,3,2770.306736,,,,,,,,,,,,2770.2910623,2770.306736,2770.306736,2775.9685415999998,,,,2775.9687953,2775.9842516,2775.9842516,2775.9842516,2776.2840395,2776.3679644,,,,,,,,,,,,,,,down,5.655901500000255,None,space,0.3705313999998907,None,P103,001,2024-11-15_08h29.57.384,posner_endo_new1,2024.2.4,60.01777726563169,2024-11-15 08h30.17.711096 +0000,
-0.31,0.005,53,3,5,up,3.2833771999999044,None,space,0.35855339999989155,None,,,,,,,,,5,3,53,0,2776.3838758,,,,,,,,,,,,2776.3681296,2776.3838758,2776.3838758,2779.6812073,,,,2779.6814488,2779.6970917999997,2779.6970917999997,2779.6970917999997,2779.99697,2780.0638265,,,,,,,,,,,,,,,up,3.2833771999999044,None,space,0.35855339999989155,None,P103,001,2024-11-15_08h29.57.384,posner_endo_new1,2024.2.4,60.01777726563169,2024-11-15 08h30.17.711096 +0000,
0.005,-0.31,54,4,5,down,4.1313475000001745,None,space,0.35569459999987885,None,,,,,,,,,5,4,54,7,2780.0800175,,,,,,,,,,,,2780.0639923999997,2780.0800175,2780.0800175,2784.2265472999998,,,,2784.2267888,2784.2425825,2784.2425825,2784.2425825,2784.5422272,2784.6095532,,,,,,,,,,,,,,,down,4.1313475000001745,None,space,0.35569459999987885,None,P103,001,2024-11-15_08h29.57.384,posner_endo_new1,2024.2.4,60.01777726563169,2024-11-15 08h30.17.711096 +0000,
10,0.005,55,5,5,up,2.3617348000002494,None,None,,,,,,,,,,,5,5,55,4,2784.6254215,,,,,,,,,,,,2784.6097107,2784.6254215,2784.6254215,2786.9903392,,,,2786.9905786,2787.0064608,2787.0064608,2787.0064608,2787.3061139,2790.0034266,,,,,,,,,,,,,,,up,2.3617348000002494,None,None,,,P103,001,2024-11-15_08h29.57.384,posner_endo_new1,2024.2.4,60.01777726563169,2024-11-15 08h30.17.711096 +0000,
0.31,0.005,56,6,5,down,2.871109200000319,None,space,0.380339400000139,None,,,,,,,,,5,6,56,1,2790.0198987,,,,,,,,,,,,2790.0036016,2790.0198987,2790.0198987,2792.9010952,,,,2792.9013389,2792.9168771,2792.9168771,2792.9168771,2793.2167713,2793.3007076,,,,,,,,,,,,,,,down,2.871109200000319,None,space,0.380339400000139,None,P103,001,2024-11-15_08h29.57.384,posner_endo_new1,2024.2.4,60.01777726563169,2024-11-15 08h30.17.711096 +0000,
0.005,0.31,57,7,5,up,2.3989504999999554,None,space,0.3771828999997524,None,,,,,,,,,5,7,57,6,2793.3166892,,,,,,,,,,,,2793.3008638,2793.3166892,2793.3166892,2795.7315147,,,,2795.7317608,2795.747471,2795.747471,2795.747471,2796.0471012,2796.1312352,,,,,,,,,,,,,,,up,2.3989504999999554,None,space,0.3771828999997524,None,P103,001,2024-11-15_08h29.57.384,posner_endo_new1,2024.2.4,60.01777726563169,2024-11-15 08h30.17.711096 +0000,
-0.31,0.005,58,8,5,down,4.696591300000364,None,space,0.35395070000004125,None,,,,,,,,,5,8,58,2,2796.1469703,,,,,,,,,,,,2796.1313923,2796.1469703,2796.1469703,2800.8594872,,,,2800.8597363,2800.8755437,2800.8755437,2800.8755437,2801.1752867,2801.242218,,,,,,,,,,,,,,,down,4.696591300000364,None,space,0.35395070000004125,None,P103,001,2024-11-15_08h29.57.384,posner_endo_new1,2024.2.4,60.01777726563169,2024-11-15 08h30.17.711096 +0000,
0.005,-0.31,59,9,5,up,2.775988299999881,None,space,0.3754770999998982,None,,,,,,,,,5,9,59,5,2801.2585648,,,,,,,,,,,,2801.2423757,2801.2585648,2801.2585648,2804.0396892999997,,,,2804.0399359,2804.055699,2804.055699,2804.055699,2804.3552956,2804.4393833999998,,,,,,,,,,,,,,,up,2.775988299999881,None,space,0.3754770999998982,None,P103,001,2024-11-15_08h29.57.384,posner_endo_new1,2024.2.4,60.01777726563169,2024-11-15 08h30.17.711096 +0000,
