target_y,target_x,thisN,thisTrialN,thisRepN,key_control2.keys,key_control2.rt,key_control2.duration,key_resp.keys,key_resp.rt,key_resp.duration,practice.thisRepN,practice.thisTrialN,practice.thisN,practice.thisIndex,session_1.thisRepN,session_1.thisTrialN,session_1.thisN,session_1.thisIndex,session_2.thisRepN,session_2.thisTrialN,session_2.thisN,session_2.thisIndex,thisRow.t,notes,instructions.started,instructions_txt.started,key_control.started,instructions.stopped,key_control.keys,key_control.rt,key_control.duration,ready.started,ready_txt.started,ready.stopped,fix.started,key_control2.started,fixation_cross.started,fix.stopped,practice.key_control2.keys,practice.key_control2.rt,practice.key_control2.duration,target.started,star.started,fixation_cross_target.started,key_resp.started,star.stopped,target.stopped,practice.key_resp.keys,practice.key_resp.rt,practice.key_resp.duration,session_1.key_control2.keys,session_1.key_control2.rt,session_1.key_control2.duration,session_1.key_resp.keys,session_1.key_resp.rt,session_1.key_resp.duration,break_2.started,text.started,key_control3.started,break_2.stopped,key_control3.keys,session_2.key_control2.keys,session_2.key_control2.rt,session_2.key_control2.duration,session_2.key_resp.keys,session_2.key_resp.rt,session_2.key_resp.duration,participant,session,date,expName,psychopyVersion,frameRate,expStart,
,,,,,,,,,,,,,,,,,,,,,,,,,0.007467299999916577,0.026241900000059104,0.026241900000059104,810.2717279999997,up,810.2328528000007,None,,,,,,,,,,,,,,,,,,,,,,,,,,,,,,,,,,,,,P104,001,2024-11-15_09h38.40.725,posner_endo_new1,2024.2.4,60.07369841327046,2024-11-15 09h38.47.287665 +0000,
,,,,,,,,,,,,,,,,,,,,,,,,,,,,,,,,810.2718285999999,810.2836015000003,813.2783810999999,,,,,,,,,,,,,,,,,,,,,,,,,,,,,,,,,,P104,001,2024-11-15_09h38.40.725,posner_endo_new1,2024.2.4,60.07369841327046,2024-11-15 09h38.47.287665 +0000,
10,0.005,0,0,0,up,1.2129464999998163,None,None,,,0,0,0,4,,,,,,,,,813.3024630999998,,,,,,,,,,,,813.2930058000002,813.3024630999998,813.3024630999998,814.5284075999998,up,1.2129464999998163,None,814.5288933000002,814.5439616000003,814.5439616000003,814.5439616000003,814.8432813,817.5407230999999,None,,,,,,,,,,,,,,,,,,,,P104,001,2024-11-15_09h38.40.725,posner_endo_new1,2024.2.4,60.07369841327046,2024-11-15 09h38.47.287665 +0000,
0.005,-0.31,1,1,0,down,0.7104446000003009,None,space,0.49064890000045125,None,0,1,1,7,,,,,,,,,817.5571672000005,,,,,,,,,,,,817.5410060000004,817.5571672000005,817.5571672000005,818.2742856000004,down,0.7104446000003009,None,818.2747267000004,818.2897471000006,818.2897471000006,818.2897471000006,818.5894690000005,818.7905504999999,space,0.49064890000045125,None,,,,,,,,,,,,,,,,,,P104,001,2024-11-15_09h38.40.725,posner_endo_new1,2024.2.4,60.07369841327046,2024-11-15 09h38.47.287665 +0000,
-0.31,0.005,2,2,0,up,2.5176805999999488,None,space,0.5230516999999963,None,0,2,2,0,,,,,,,,,818.8058884000002,,,,,,,,,,,,818.7908508,818.8058884000002,818.8058884000002,821.3379101,up,2.5176805999999488,None,821.3383460000005,821.3533569000001,821.3533569000001,821.3533569000001,821.6530088,821.8874014000003,space,0.5230516999999963,None,,,,,,,,,,,,,,,,,,P104,001,2024-11-15_09h38.40.725,posner_endo_new1,2024.2.4,60.07369841327046,2024-11-15 09h38.47.287665 +0000,
0.005,0.31,3,3,0,down,3.2685842999999295,None,space,0.42944290000014007,None,0,3,3,8,,,,,,,,,821.9026598,,,,,,,,,,,,821.8876989,821.9026598,821.9026598,825.1839362000001,down,3.2685842999999295,None,825.1843785000001,825.1993582000005,825.1993582000005,825.1993582000005,825.4989003999999,825.6331129,space,0.42944290000014007,None,,,,,,,,,,,,,,,,,,P104,001,2024-11-15_09h38.40.725,posner_endo_new1,2024.2.4,60.07369841327046,2024-11-15 09h38.47.287665 +0000,
0.005,-0.31,4,4,0,up,1.9703335999993215,None,space,0.8472001999998611,None,0,4,4,5,,,,,,,,,825.6488082000005,,,,,,,,,,,,825.6333178000004,825.6488082000005,825.6488082000005,827.6309932000004,up,1.9703335999993215,None,827.6313187000005,827.6467634999999,827.6467634999999,827.6467634999999,827.9464109999999,828.4968816999999,space,0.8472001999998611,None,,,,,,,,,,,,,,,,,,P104,001,2024-11-15_09h38.40.725,posner_endo_new1,2024.2.4,60.07369841327046,2024-11-15 09h38.47.287665 +0000,
0.005,0.31,5,5,0,down,2.363040600000204,None,space,0.403752600000189,None,0,5,5,6,,,,,,,,,828.5125104999997,,,,,,,,,,,,828.4970893,828.5125104999997,828.5125104999997,830.8777098,down,2.363040600000204,None,830.878017,830.8934862000006,830.8934862000006,830.8934862000006,831.1931333000002,831.3105268999998,space,0.403752600000189,None,,,,,,,,,,,,,,,,,,P104,001,2024-11-15_09h38.40.725,posner_endo_new1,2024.2.4,60.07369841327046,2024-11-15 09h38.47.287665 +0000,
0.005,10,6,6,0,up,3.005554700000175,None,None,,,0,6,6,9,,,,,,,,,831.3263005999997,,,,,,,,,,,,831.3107301,831.3263005999997,831.3263005999997,834.3409419999998,up,3.005554700000175,None,834.3412484999999,834.3566906000005,834.3566906000005,834.3566906000005,834.6562930999999,837.3536678999999,None,,,,,,,,,,,,,,,,,,,,P104,001,2024-11-15_09h38.40.725,posner_endo_new1,2024.2.4,60.07369841327046,2024-11-15 09h38.47.287665 +0000,
0.31,0.005,7,7,0,down,0.5928395999999339,None,space,0.3039751999995133,None,0,7,7,1,,,,,,,,,837.3702417000004,,,,,,,,,,,,837.3538709000004,837.3702417000004,837.3702417000004,837.9707273000004,down,0.5928395999999339,None,837.9710363000004,837.9861311000004,837.9861311000004,837.9861311000004,838.2861739,838.3033500000001,space,0.3039751999995133,None,,,,,,,,,,,,,,,,,,P104,001,2024-11-15_09h38.40.725,posner_endo_new1,2024.2.4,60.07369841327046,2024-11-15 09h38.47.287665 +0000,
0.31,0.005,8,8,0,up,3.3166269000003012,None,space,0.39698589999989053,None,0,8,8,3,,,,,,,,,838.3191784,,,,,,,,,,,,838.3035541999998,838.3191784,838.3191784,841.6499371999998,up,3.3166269000003012,None,841.6502448000001,841.6657689000003,841.6657689000003,841.6657689000003,841.9654910999998,842.0662650000004,space,0.39698589999989053,None,,,,,,,,,,,,,,,,,,P104,001,2024-11-15_09h38.40.725,posner_endo_new1,2024.2.4,60.07369841327046,2024-11-15 09h38.47.287665 +0000,
-0.31,0.005,9,9,0,down,2.8011028000000806,None,space,0.3873664999991888,None,0,9,9,2,,,,,,,,,842.0819712000002,,,,,,,,,,,,842.0664758000003,842.0819712000002,842.0819712000002,844.8968253000003,down,2.8011028000000806,None,844.8971421000006,844.9124158000004,844.9124158000004,844.9124158000004,845.2121726000005,845.3128574000002,space,0.3873664999991888,None,,,,,,,,,,,,,,,,,,P104,001,2024-11-15_09h38.40.725,posner_endo_new1,2024.2.4,60.07369841327046,2024-11-15 09h38.47.287665 +0000,
,,,,,,,,,,,,,,,,,,,,,,,,,,,,,,,,845.3129964999998,845.3287221,848.3256673000005,,,,,,,,,,,,,,,,,,,,,,,,,,,,,,,,,,P104,001,2024-11-15_09h38.40.725,posner_endo_new1,2024.2.4,60.07369841327046,2024-11-15 09h38.47.287665 +0000,
0.005,-0.31,0,0,0,up,2.071469100000286,None,space,0.3655653000005259,None,,,,,0,0,0,7,,,,,848.3482505000002,,,,,,,,,,,,848.3386946,848.3482505000002,848.3482505000002,850.4266072,,,,850.4273754000005,850.4409830000004,850.4409830000004,850.4409830000004,850.7404100000003,850.8095451999998,,,,up,2.071469100000286,None,space,0.3655653000005259,None,,,,,,,,,,,,P104,001,2024-11-15_09h38.40.725,posner_endo_new1,2024.2.4,60.07369841327046,2024-11-15 09h38.47.287665 +0000,
0.005,10,1,1,0,down,3.547505900000033,None,None,,,,,,,0,1,1,9,,,,,850.8236394000005,,,,,,,,,,,,850.8100990000003,850.8236394000005,850.8236394000005,854.3874402000001,,,,854.3878810000006,854.4028791000001,854.4028791000001,854.4028791000001,854.7024120000005,857.3999936999999,,,,down,3.547505900000033,None,None,,,,,,,,,,,,,,P104,001,2024-11-15_09h38.40.725,posner_endo_new1,2024.2.4,60.07369841327046,2024-11-15 09h38.47.287665 +0000,
0.005,0.31,2,2,0,up,1.083317800000259,None,space,0.4036477999998169,None,,,,,0,2,2,8,,,,,857.4162750000005,,,,,,,,,,,,857.4002818999998,857.4162750000005,857.4162750000005,858.5165799000006,,,,858.5170172999997,858.5318015000003,858.5318015000003,858.5318015000003,858.8316242000001,858.9494930000001,,,,up,1.083317800000259,None,space,0.4036477999998169,None,,,,,,,,,,,,P104,001,2024-11-15_09h38.40.725,posner_endo_new1,2024.2.4,60.07369841327046,2024-11-15 09h38.47.287665 +0000,
0.005,0.31,3,3,0,down,3.1507173999998486,None,space,0.41139149999980873,None,,,,,0,3,3,6,,,,,858.9647805000004,,,,,,,,,,,,858.9498105000002,858.9647805000004,858.9647805000004,862.1295571,,,,862.1300001999998,862.1448392000002,862.1448392000002,862.1448392000002,862.4445593999999,862.5626061000003,,,,down,3.1507173999998486,None,space,0.41139149999980873,None,,,,,,,,,,,,P104,001,2024-11-15_09h38.40.725,posner_endo_new1,2024.2.4,60.07369841327046,2024-11-15 09h38.47.287665 +0000,
10,0.005,4,4,0,up,3.0014909999999873,None,None,,,,,,,0,4,4,4,,,,,862.57773,,,,,,,,,,,,862.5629133000002,862.57773,862.57773,865.5926064000005,,,,865.5930453000001,865.6080571000002,865.6080571000002,865.6080571000002,865.9077454999997,868.6051245999997,,,,up,3.0014909999999873,None,None,,,,,,,,,,,,,,P104,001,2024-11-15_09h38.40.725,posner_endo_new1,2024.2.4,60.07369841327046,2024-11-15 09h38.47.287665 +0000,
0.005,-0.31,5,5,0,down,0.5020982000005461,None,space,0.2862636999998358,None,,,,,0,5,5,5,,,,,868.6216664000003,,,,,,,,,,,,868.6054123000004,868.6216664000003,868.6216664000003,869.1391278000001,,,,869.1395665,869.1544604000001,869.1544604000001,869.1544604000001,869.4539586000001,869.4552930999998,,,,down,0.5020982000005461,None,space,0.2862636999998358,None,,,,,,,,,,,,P104,001,2024-11-15_09h38.40.725,posner_endo_new1,2024.2.4,60.07369841327046,2024-11-15 09h38.47.287665 +0000,
0.31,0.005,6,6,0,up,3.4683329999998023,None,space,0.37869659999978467,None,,,,,0,6,6,3,,,,,869.4707575000002,,,,,,,,,,,,869.4555964000001,869.4707575000002,869.4707575000002,872.9516890000004,,,,872.9521471999997,872.9671481000005,872.9671481000005,872.9671481000005,873.2668963000006,873.3513788,,,,up,3.4683329999998023,None,space,0.37869659999978467,None,,,,,,,,,,,,P104,001,2024-11-15_09h38.40.725,posner_endo_new1,2024.2.4,60.07369841327046,2024-11-15 09h38.47.287665 +0000,
-0.31,0.005,7,7,0,down,4.020397700000103,None,space,0.4658007000007274,None,,,,,0,7,7,0,,,,,873.3667851,,,,,,,,,,,,873.3516864000003,873.3667851,873.3667851,877.3972812000002,,,,877.3977188999997,877.4125412000003,877.4125412000003,877.4125412000003,877.7122596999998,877.8796413,,,,down,4.020397700000103,None,space,0.4658007000007274,None,,,,,,,,,,,,P104,001,2024-11-15_09h38.40.725,posner_endo_new1,2024.2.4,60.07369841327046,2024-11-15 09h38.47.287665 +0000,
0.31,0.005,8,8,0,up,3.2837979999994786,None,space,0.36151350000000093,None,,,,,0,8,8,1,,,,,877.8953499999998,,,,,,,,,,,,877.8798601999997,877.8953499999998,877.8953499999998,881.1929826000005,,,,881.1933053000002,881.2087357,881.2087357,881.2087357,881.5083255999998,881.5759108000002,,,,up,3.2837979999994786,None,space,0.36151350000000093,None,,,,,,,,,,,,P104,001,2024-11-15_09h38.40.725,posner_endo_new1,2024.2.4,60.07369841327046,2024-11-15 09h38.47.287665 +0000,
-0.31,0.005,9,9,0,down,3.1234177999995154,None,space,0.49178010000014183,None,,,,,0,9,9,2,,,,,881.5915809999997,,,,,,,,,,,,881.5761289000002,881.5915809999997,881.5915809999997,884.7228409999998,,,,884.7231621999999,884.7383716000004,884.7383716000004,884.7383716000004,885.0381337999997,885.2386849000004,,,,down,3.1234177999995154,None,space,0.49178010000014183,None,,,,,,,,,,,,P104,001,2024-11-15_09h38.40.725,posner_endo_new1,2024.2.4,60.07369841327046,2024-11-15 09h38.47.287665 +0000,
10,0.005,10,0,1,up,3.4145472999998674,None,None,,,,,,,1,0,10,4,,,,,885.2543907999998,,,,,,,,,,,,885.2389045999998,885.2543907999998,885.2543907999998,888.6855857,,,,888.6858392000004,888.7014882000003,888.7014882000003,888.7014882000003,889.0008986000003,891.6981281999997,,,,up,3.4145472999998674,None,None,,,,,,,,,,,,,,P104,001,2024-11-15_09h38.40.725,posner_endo_new1,2024.2.4,60.07369841327046,2024-11-15 09h38.47.287665 +0000,
-0.31,0.005,11,1,1,down,0.3862777999993341,None,space,0.275769400000172,None,,,,,1,1,11,0,,,,,891.7145089000005,,,,,,,,,,,,891.6982865999998,891.7145089000005,891.7145089000005,892.1147040000005,,,,892.1149535000004,892.1313918000005,892.1313918000005,892.1313918000005,892.4308920000003,892.4150325,,,,down,0.3862777999993341,None,space,0.275769400000172,None,,,,,,,,,,,,P104,001,2024-11-15_09h38.40.725,posner_endo_new1,2024.2.4,60.07369841327046,2024-11-15 09h38.47.287665 +0000,
0.005,0.31,12,2,1,up,4.420936999999867,None,space,0.3655125000004773,None,,,,,1,2,12,8,,,,,892.4308920000003,,,,,,,,,,,,892.4151976000003,892.4308920000003,892.4308920000003,896.8602978999998,,,,896.8605452000002,896.8763544000003,896.8763544000003,896.8763544000003,897.1762016000002,897.2432147,,,,up,4.420936999999867,None,space,0.3655125000004773,None,,,,,,,,,,,,P104,001,2024-11-15_09h38.40.725,posner_endo_new1,2024.2.4,60.07369841327046,2024-11-15 09h38.47.287665 +0000,
0.005,0.31,13,3,1,down,3.4798941999997623,None,space,0.31954600000062783,None,,,,,1,3,13,6,,,,,897.2591328999997,,,,,,,,,,,,897.2433806999998,897.2591328999997,897.2591328999997,900.7397679000005,,,,900.7400159999997,900.7558000999998,900.7558000999998,900.7558000999998,901.0549958000001,901.0892135000004,,,,down,3.4798941999997623,None,space,0.31954600000062783,None,,,,,,,,,,,,P104,001,2024-11-15_09h38.40.725,posner_endo_new1,2024.2.4,60.07369841327046,2024-11-15 09h38.47.287665 +0000,
0.005,-0.31,14,4,1,up,3.4899689999992916,None,space,0.35483509999994567,None,,,,,1,4,14,7,,,,,901.1054973,,,,,,,,,,,,901.0893765999999,901.1054973,901.1054973,904.6022223,,,,904.6024685000002,904.6184621000002,904.6184621000002,904.6184621000002,904.9176044000005,904.9854308000004,,,,up,3.4899689999992916,None,space,0.35483509999994567,None,,,,,,,,,,,,P104,001,2024-11-15_09h38.40.725,posner_endo_new1,2024.2.4,60.07369841327046,2024-11-15 09h38.47.287665 +0000,
0.31,0.005,15,5,1,down,3.2104114999992817,None,space,0.3990360999996483,None,,,,,1,5,15,3,,,,,905.0013788000006,,,,,,,,,,,,904.9855936000004,905.0013788000006,905.0013788000006,908.2155924999997,,,,908.2158416000002,908.2310972000005,908.2310972000005,908.2310972000005,908.5309493000004,908.6319181999997,,,,down,3.2104114999992817,None,space,0.3990360999996483,None,,,,,,,,,,,,P104,001,2024-11-15_09h38.40.725,posner_endo_new1,2024.2.4,60.07369841327046,2024-11-15 09h38.47.287665 +0000,
0.005,10,16,6,1,up,2.4756340000003547,None,None,,,,,,,1,6,16,9,,,,,908.6478127999999,,,,,,,,,,,,908.6320834999997,908.6478127999999,908.6478127999999,911.1287223999998,,,,911.1289679000001,911.1451238999998,911.1451238999998,911.1451238999998,911.4444356000004,914.1420527999999,,,,up,2.4756340000003547,None,None,,,,,,,,,,,,,,P104,001,2024-11-15_09h38.40.725,posner_endo_new1,2024.2.4,60.07369841327046,2024-11-15 09h38.47.287665 +0000,
0.31,0.005,17,7,1,down,0.34172680000028777,None,space,0.33333240000047226,None,,,,,1,7,17,1,,,,,914.1583564000002,,,,,,,,,,,,914.1423764000001,914.1583564000002,914.1583564000002,914.5096548000001,,,,914.5101567000002,914.5246380999997,914.5246380999997,914.5246380999997,914.8244193,914.8593972999997,,,,down,0.34172680000028777,None,space,0.33333240000047226,None,,,,,,,,,,,,P104,001,2024-11-15_09h38.40.725,posner_endo_new1,2024.2.4,60.07369841327046,2024-11-15 09h38.47.287665 +0000,
-0.31,0.005,18,8,1,up,2.5850832999994964,None,space,0.5107916999995723,None,,,,,1,8,18,2,,,,,914.8743661999997,,,,,,,,,,,,914.8597489000003,914.8743661999997,914.8743661999997,917.4730355000002,,,,917.4735388999998,917.4884572000001,917.4884572000001,917.4884572000001,917.7881183999998,918.0053705,,,,up,2.5850832999994964,None,space,0.5107916999995723,None,,,,,,,,,,,,P104,001,2024-11-15_09h38.40.725,posner_endo_new1,2024.2.4,60.07369841327046,2024-11-15 09h38.47.287665 +0000,
0.005,-0.31,19,9,1,down,2.8143921000000773,None,space,0.43829009999990376,None,,,,,1,9,19,5,,,,,918.0210956000001,,,,,,,,,,,,918.0056161000002,918.0210956000001,918.0210956000001,920.8523375000004,,,,920.8526876000005,920.8682153999998,920.8682153999998,920.8682153999998,921.1682410000003,921.3187047000001,,,,down,2.8143921000000773,None,space,0.43829009999990376,None,,,,,,,,,,,,P104,001,2024-11-15_09h38.40.725,posner_endo_new1,2024.2.4,60.07369841327046,2024-11-15 09h38.47.287665 +0000,
-0.31,0.005,20,0,2,up,2.6770165000007182,None,space,0.2917911999993521,None,,,,,2,0,20,0,,,,,921.3346118999998,,,,,,,,,,,,921.3189444999998,921.3346118999998,921.3346118999998,924.0159844999998,,,,924.0163253000001,924.0315953999998,924.0315953999998,924.0315953999998,924.3312876999998,924.3323047000003,,,,up,2.6770165000007182,None,space,0.2917911999993521,None,,,,,,,,,,,,P104,001,2024-11-15_09h38.40.725,posner_endo_new1,2024.2.4,60.07369841327046,2024-11-15 09h38.47.287665 +0000,
0.31,0.005,21,1,2,down,3.4398925000004965,None,space,0.32261600000038015,None,,,,,2,1,21,3,,,,,924.3479228000006,,,,,,,,,,,,924.3325458999998,924.3479228000006,924.3479228000006,927.7957867000005,,,,927.7961310999999,927.8110016999999,927.8110016999999,927.8110016999999,928.1106955000005,928.1451610000004,,,,down,3.4398925000004965,None,space,0.32261600000038015,None,,,,,,,,,,,,P104,001,2024-11-15_09h38.40.725,posner_endo_new1,2024.2.4,60.07369841327046,2024-11-15 09h38.47.287665 +0000,
10,0.005,22,2,2,up,3.6346409999996467,None,None,,,,,,,2,2,22,4,,,,,928.1606182000005,,,,,,,,,,,,928.1453993000005,928.1606182000005,928.1606182000005,931.8083004999999,,,,931.8086437000002,931.8239745999999,931.8239745999999,931.8239745999999,932.1232667000004,934.8206844000006,,,,up,3.6346409999996467,None,None,,,,,,,,,,,,,,P104,001,2024-11-15_09h38.40.725,posner_endo_new1,2024.2.4,60.07369841327046,2024-11-15 09h38.47.287665 +0000,
0.005,-0.31,23,3,2,down,0.30192369999986113,None,space,0.3658774999994421,None,,,,,2,3,23,7,,,,,934.8372368,,,,,,,,,,,,934.8209072999998,934.8372368,934.8372368,935.1549341999998,,,,935.1552803000004,935.1701613000005,935.1701613000005,935.1701613000005,935.4699257000002,935.5375419000002,,,,down,0.30192369999986113,None,space,0.3658774999994421,None,,,,,,,,,,,,P104,001,2024-11-15_09h38.40.725,posner_endo_new1,2024.2.4,60.07369841327046,2024-11-15 09h38.47.287665 +0000,
-0.31,0.005,24,4,2,up,4.321894100000463,None,space,0.3992542999994839,None,,,,,2,4,24,2,,,,,935.5530856000005,,,,,,,,,,,,935.5377792999998,935.5530856000005,935.5530856000005,939.8833390999998,,,,939.8836939000003,939.8986739000002,939.8986739000002,939.8986739000002,940.1983375,940.2998447999998,,,,up,4.321894100000463,None,space,0.3992542999994839,None,,,,,,,,,,,,P104,001,2024-11-15_09h38.40.725,posner_endo_new1,2024.2.4,60.07369841327046,2024-11-15 09h38.47.287665 +0000,
0.31,0.005,25,5,2,down,3.0816869999998744,None,space,0.3959770999999819,None,,,,,2,5,25,1,,,,,940.3149426,,,,,,,,,,,,940.3000837999998,940.3149426,940.3149426,943.4127319999998,,,,943.4130747999998,943.4284552999998,943.4284552999998,943.4284552999998,943.7281106999999,943.8291589999999,,,,down,3.0816869999998744,None,space,0.3959770999999819,None,,,,,,,,,,,,P104,001,2024-11-15_09h38.40.725,posner_endo_new1,2024.2.4,60.07369841327046,2024-11-15 09h38.47.287665 +0000,
0.005,10,26,6,2,up,3.6952123999999458,None,None,,,,,,,2,6,26,9,,,,,943.8446144999998,,,,,,,,,,,,943.8294012000006,943.8446144999998,943.8446144999998,947.5418919000003,,,,947.5422370000006,947.5576553000001,947.5576553000001,947.5576553000001,947.8572719000003,950.5547262,,,,up,3.6952123999999458,None,None,,,,,,,,,,,,,,P104,001,2024-11-15_09h38.40.725,posner_endo_new1,2024.2.4,60.07369841327046,2024-11-15 09h38.47.287665 +0000,
0.005,0.31,27,7,2,down,0.11275339999974676,None,space,0.3259846999999354,None,,,,,2,7,27,6,,,,,950.5710725999998,,,,,,,,,,,,950.5549642000005,950.5710725999998,950.5710725999998,950.6887120000001,,,,950.6890574999998,950.7047302000001,950.7047302000001,950.7047302000001,951.0043440999998,951.0387897,,,,down,0.11275339999974676,None,space,0.3259846999999354,None,,,,,,,,,,,,P104,001,2024-11-15_09h38.40.725,posner_endo_new1,2024.2.4,60.07369841327046,2024-11-15 09h38.47.287665 +0000,
0.005,0.31,28,8,2,up,3.1974104000000807,None,space,0.4318272000000434,None,,,,,2,8,28,8,,,,,951.0544062999998,,,,,,,,,,,,951.0389540000006,951.0544062999998,951.0544062999998,954.2677727,,,,954.2680320999998,954.2837412999997,954.2837412999997,954.2837412999997,954.5834956999997,954.7178177000005,,,,up,3.1974104000000807,None,space,0.4318272000000434,None,,,,,,,,,,,,P104,001,2024-11-15_09h38.40.725,posner_endo_new1,2024.2.4,60.07369841327046,2024-11-15 09h38.47.287665 +0000,
0.005,-0.31,29,9,2,down,2.5814630999993824,None,space,0.49699820000023465,None,,,,,2,9,29,5,,,,,954.7338596,,,,,,,,,,,,954.7179814000001,954.7338596,954.7338596,957.3314317000004,,,,957.3316801000001,957.3477831,957.3477831,957.3477831,957.6476063,957.8482255999998,,,,down,2.5814630999993824,None,space,0.49699820000023465,None,,,,,,,,,,,,P104,001,2024-11-15_09h38.40.725,posner_endo_new1,2024.2.4,60.07369841327046,2024-11-15 09h38.47.287665 +0000,
0.005,-0.31,30,0,3,up,2.243842500000028,None,space,0.3569809000000532,None,,,,,3,0,30,7,,,,,957.8637201000001,,,,,,,,,,,,957.8483900000001,957.8637201000001,957.8637201000001,960.1119760000001,,,,960.1122230999999,960.1286066000002,960.1286066000002,960.1286066000002,960.4282112000001,960.4950408000004,,,,up,2.243842500000028,None,space,0.3569809000000532,None,,,,,,,,,,,,P104,001,2024-11-15_09h38.40.725,posner_endo_new1,2024.2.4,60.07369841327046,2024-11-15 09h38.47.287665 +0000,
-0.31,0.005,31,1,3,down,2.8521583000001556,None,space,0.6765482999999222,None,,,,,3,1,31,2,,,,,960.5114881999998,,,,,,,,,,,,960.4952049000003,960.5114881999998,960.5114881999998,963.3756073000004,,,,963.3758563000001,963.3911803000001,963.3911803000001,963.3911803000001,963.6909857,964.0750742999999,,,,down,2.8521583000001556,None,space,0.6765482999999222,None,,,,,,,,,,,,P104,001,2024-11-15_09h38.40.725,posner_endo_new1,2024.2.4,60.07369841327046,2024-11-15 09h38.47.287665 +0000,
0.005,-0.31,32,2,3,up,3.184924399999545,None,space,0.3207296000000497,None,,,,,3,2,32,5,,,,,964.0909649000005,,,,,,,,,,,,964.0752394000001,964.0909649000005,964.0909649000005,967.2885440999999,,,,967.2887947999998,967.3041918999998,967.3041918999998,967.3041918999998,967.6038870000002,967.6374707000004,,,,up,3.184924399999545,None,space,0.3207296000000497,None,,,,,,,,,,,,P104,001,2024-11-15_09h38.40.725,posner_endo_new1,2024.2.4,60.07369841327046,2024-11-15 09h38.47.287665 +0000,
0.31,0.005,33,3,3,down,2.7017839000000095,None,space,0.3909336999995503,None,,,,,3,3,33,1,,,,,967.6539643000006,,,,,,,,,,,,967.637635,967.6539643000006,967.6539643000006,970.3685277000004,,,,970.3687749999999,970.3845960999997,970.3845960999997,970.3845960999997,970.6838493000005,970.7842490000003,,,,down,2.7017839000000095,None,space,0.3909336999995503,None,,,,,,,,,,,,P104,001,2024-11-15_09h38.40.725,posner_endo_new1,2024.2.4,60.07369841327046,2024-11-15 09h38.47.287665 +0000,
0.31,0.005,34,4,3,up,3.130956700000752,None,space,0.46048900000005233,None,,,,,3,4,34,3,,,,,970.8006440999998,,,,,,,,,,,,970.7844133999997,970.8006440999998,970.8006440999998,973.9477222000005,,,,973.9479707,973.9642930999998,973.9642930999998,973.9642930999998,974.2638112000004,974.4311475000004,,,,up,3.130956700000752,None,space,0.46048900000005233,None,,,,,,,,,,,,P104,001,2024-11-15_09h38.40.725,posner_endo_new1,2024.2.4,60.07369841327046,2024-11-15 09h38.47.287665 +0000,
0.005,10,35,5,3,down,2.8205817999996725,None,None,,,,,,,3,5,35,9,,,,,974.4470112999998,,,,,,,,,,,,974.4313104000003,974.4470112999998,974.4470112999998,977.2777694000006,,,,977.2780152000005,977.2936893000006,977.2936893000006,977.2936893000006,977.5933784999997,980.2913324000001,,,,down,2.8205817999996725,None,None,,,,,,,,,,,,,,P104,001,2024-11-15_09h38.40.725,posner_endo_new1,2024.2.4,60.07369841327046,2024-11-15 09h38.47.287665 +0000,
-0.31,0.005,36,6,3,up,0.14492900000004738,None,space,0.3714631000002555,None,,,,,3,6,36,0,,,,,980.3077744000002,,,,,,,,,,,,980.2914890000002,980.3077744000002,980.3077744000002,980.4582139000004,,,,980.4584584000004,980.4742133999998,980.4742133999998,980.4742133999998,980.7738383000005,980.8577315000002,,,,up,0.14492900000004738,None,space,0.3714631000002555,None,,,,,,,,,,,,P104,001,2024-11-15_09h38.40.725,posner_endo_new1,2024.2.4,60.07369841327046,2024-11-15 09h38.47.287665 +0000,
0.005,0.31,37,7,3,down,2.6423837000002095,None,space,0.45625139999992825,None,,,,,3,7,37,6,,,,,980.8735770000003,,,,,,,,,,,,980.8579015000005,980.8735770000003,980.8735770000003,983.5213138999998,,,,983.5215602999997,983.5372683000005,983.5372683000005,983.5372683000005,983.8375225999998,984.0045631000003,,,,down,2.6423837000002095,None,space,0.45625139999992825,None,,,,,,,,,,,,P104,001,2024-11-15_09h38.40.725,posner_endo_new1,2024.2.4,60.07369841327046,2024-11-15 09h38.47.287665 +0000,
10,0.005,38,8,3,up,2.975109500000144,None,None,,,,,,,3,8,38,4,,,,,984.0206778000002,,,,,,,,,,,,984.0047292999998,984.0206778000002,984.0206778000002,987.0014716000005,,,,987.0017220999998,987.0172404000004,987.0172404000004,987.0172404000004,987.3169674000001,990.0145727999998,,,,up,2.975109500000144,None,None,,,,,,,,,,,,,,P104,001,2024-11-15_09h38.40.725,posner_endo_new1,2024.2.4,60.07369841327046,2024-11-15 09h38.47.287665 +0000,
0.005,0.31,39,9,3,up,3.1728736000004574,None,space,0.3243385000005219,None,,,,,3,9,39,8,,,,,990.0309081000005,,,,,,,,,,,,990.0147363000005,990.0309081000005,990.0309081000005,993.2115224999998,,,,993.2117774999997,993.2273535000004,993.2273535000004,993.2273535000004,993.5275134000003,993.5609967999999,,,,up,3.1728736000004574,None,space,0.3243385000005219,None,,,,,,,,,,,,P104,001,2024-11-15_09h38.40.725,posner_endo_new1,2024.2.4,60.07369841327046,2024-11-15 09h38.47.287665 +0000,
0.005,0.31,40,0,4,down,2.850763999999799,None,space,0.3624774999998408,None,,,,,4,0,40,6,,,,,993.5773190999998,,,,,,,,,,,,993.5611621999997,993.5773190999998,993.5773190999998,996.4417804000004,,,,996.4420273000005,996.4576734000002,996.4576734000002,996.4576734000002,996.7570287999997,996.8244094000001,,,,down,2.850763999999799,None,space,0.3624774999998408,None,,,,,,,,,,,,P104,001,2024-11-15_09h38.40.725,posner_endo_new1,2024.2.4,60.07369841327046,2024-11-15 09h38.47.287665 +0000,
-0.31,0.005,41,1,4,up,3.3463528000002043,None,space,0.36458889999994426,None,,,,,4,1,41,0,,,,,996.8409616999998,,,,,,,,,,,,996.8245686,996.8409616999998,996.8409616999998,1000.1880975000004,,,,1000.1883450000005,1000.2036538000002,1000.2036538000002,1000.2036538000002,1000.5035796000002,1000.5710605000004,,,,up,3.3463528000002043,None,space,0.36458889999994426,None,,,,,,,,,,,,P104,001,2024-11-15_09h38.40.725,posner_endo_new1,2024.2.4,60.07369841327046,2024-11-15 09h38.47.287665 +0000,
0.005,0.31,42,2,4,down,3.2972318000001906,None,space,0.3095683999999892,None,,,,,4,2,42,8,,,,,1000.5867219000002,,,,,,,,,,,,1000.5712217,1000.5867219000002,1000.5867219000002,1003.9011709000006,,,,1003.9014180000004,1003.9166456000003,1003.9166456000003,1003.9166456000003,1004.2166708000004,1004.2341052000002,,,,down,3.2972318000001906,None,space,0.3095683999999892,None,,,,,,,,,,,,P104,001,2024-11-15_09h38.40.725,posner_endo_new1,2024.2.4,60.07369841327046,2024-11-15 09h38.47.287665 +0000,
0.005,10,43,3,4,up,3.089763999999377,None,None,,,,,,,4,3,43,9,,,,,1004.2496120000005,,,,,,,,,,,,1004.2342624000003,1004.2496120000005,1004.2496120000005,1007.3475451000004,,,,1007.347788,1007.3633384000004,1007.3633384000004,1007.3633384000004,1007.6631947000005,1010.3598244000004,,,,up,3.089763999999377,None,None,,,,,,,,,,,,,,P104,001,2024-11-15_09h38.40.725,posner_endo_new1,2024.2.4,60.07369841327046,2024-11-15 09h38.47.287665 +0000,
0.005,-0.31,44,4,4,down,0.5869903000002523,None,space,0.33672889999979816,None,,,,,4,4,44,5,,,,,1010.3769208000003,,,,,,,,,,,,1010.3599801999999,1010.3769208000003,1010.3769208000003,1010.9771650000002,,,,1010.9774103999998,1010.9926833999998,1010.9926833999998,1010.9926833999998,1011.292743,1011.3427956000005,,,,down,0.5869903000002523,None,space,0.33672889999979816,None,,,,,,,,,,,,P104,001,2024-11-15_09h38.40.725,posner_endo_new1,2024.2.4,60.07369841327046,2024-11-15 09h38.47.287665 +0000,
0.31,0.005,45,5,4,up,2.811907500000416,None,space,0.41479569999955856,None,,,,,4,5,45,3,,,,,1011.3591677000004,,,,,,,,,,,,1011.3429532,1011.3591677000004,1011.3591677000004,1014.1734001000004,,,,1014.1736437,1014.1895038000002,1014.1895038000002,1014.1895038000002,1014.4895209000006,1014.6064514,,,,up,2.811907500000416,None,space,0.41479569999955856,None,,,,,,,,,,,,P104,001,2024-11-15_09h38.40.725,posner_endo_new1,2024.2.4,60.07369841327046,2024-11-15 09h38.47.287665 +0000,
0.31,0.005,46,6,4,down,3.540687099999559,None,space,0.5556957999997394,None,,,,,4,6,46,1,,,,,1014.6225540000005,,,,,,,,,,,,1014.6066173999998,1014.6225540000005,1014.6225540000005,1018.1715562999998,,,,1018.1723098000002,1018.1860842000006,1018.1860842000006,1018.1860842000006,1018.4854901999997,1018.7541541999999,,,,down,3.540687099999559,None,space,0.5556957999997394,None,,,,,,,,,,,,P104,001,2024-11-15_09h38.40.725,posner_endo_new1,2024.2.4,60.07369841327046,2024-11-15 09h38.47.287665 +0000,
10,0.005,47,7,4,up,1.7954735000002984,None,None,,,,,,,4,7,47,4,,,,,1018.7685915000002,,,,,,,,,,,,1018.7547044000003,1018.7685915000002,1018.7685915000002,1020.5691369000006,,,,1020.5698868999998,1020.5836111999997,1020.5836111999997,1020.5836111999997,1020.8831049,1023.5805608999999,,,,up,1.7954735000002984,None,None,,,,,,,,,,,,,,P104,001,2024-11-15_09h38.40.725,posner_endo_new1,2024.2.4,60.07369841327046,2024-11-15 09h38.47.287665 +0000,
0.005,-0.31,48,8,4,down,0.014901499999723455,None,space,0.4344360000004599,None,,,,,4,8,48,7,,,,,1023.5969341999999,,,,,,,,,,,,1023.5810581000005,1023.5969341999999,1023.5969341999999,1023.6160154999998,,,,1023.6167691999999,1023.6305116000003,1023.6305116000003,1023.6305116000003,1023.9299430000001,1024.0821783000001,,,,down,0.014901499999723455,None,space,0.4344360000004599,None,,,,,,,,,,,,P104,001,2024-11-15_09h38.40.725,posner_endo_new1,2024.2.4,60.07369841327046,2024-11-15 09h38.47.287665 +0000,
-0.31,0.005,49,9,4,up,2.9871637999995073,None,space,0.31117079999967245,None,,,,,4,9,49,2,,,,,1024.0964402,,,,,,,,,,,,1024.0827209,1024.0964402,1024.0964402,1027.0955714000002,,,,1027.0963321999998,1027.1102271999998,1027.1102271999998,1027.1102271999998,1027.4096792,1027.4288163,,,,up,2.9871637999995073,None,space,0.31117079999967245,None,,,,,,,,,,,,P104,001,2024-11-15_09h38.40.725,posner_endo_new1,2024.2.4,60.07369841327046,2024-11-15 09h38.47.287665 +0000,
0.005,-0.31,50,0,5,down,2.832357199999933,None,space,0.3450665000000299,None,,,,,5,0,50,7,,,,,1027.4429883000003,,,,,,,,,,,,1027.4293582,1027.4429883000003,1027.4429883000003,1030.2923969000003,,,,1030.2931647000005,1030.3068297,1030.3068297,1030.3068297,1030.6064428,1030.6587920000002,,,,down,2.832357199999933,None,space,0.3450665000000299,None,,,,,,,,,,,,P104,001,2024-11-15_09h38.40.725,posner_endo_new1,2024.2.4,60.07369841327046,2024-11-15 09h38.47.287665 +0000,
0.005,0.31,51,1,5,up,2.8020360999998957,None,space,0.3124416000000565,None,,,,,5,1,51,6,,,,,1030.6730407000005,,,,,,,,,,,,1030.6593223999998,1030.6730407000005,1030.6730407000005,1033.4870294000002,,,,1033.4872864999998,1033.5033383,1033.5033383,1033.5033383,1033.8030993000002,1033.8204819000002,,,,up,2.8020360999998957,None,space,0.3124416000000565,None,,,,,,,,,,,,P104,001,2024-11-15_09h38.40.725,posner_endo_new1,2024.2.4,60.07369841327046,2024-11-15 09h38.47.287665 +0000,
0.005,0.31,52,2,5,down,3.783348699999806,None,space,0.35007929999937915,None,,,,,5,2,52,8,,,,,1033.8364092000002,,,,,,,,,,,,1033.8206424,1033.8364092000002,1033.8364092000002,1037.6326993000002,,,,1037.6329436000005,1037.6490222000002,1037.6490222000002,1037.6490222000002,1037.9485953000003,1038.0157156000005,,,,down,3.783348699999806,None,space,0.35007929999937915,None,,,,,,,,,,,,P104,001,2024-11-15_09h38.40.725,posner_endo_new1,2024.2.4,60.07369841327046,2024-11-15 09h38.47.287665 +0000,
-0.31,0.005,53,3,5,up,3.3316056999992725,None,space,0.40880079999988084,None,,,,,5,3,53,0,,,,,1038.0317788000002,,,,,,,,,,,,1038.0158785000003,1038.0317788000002,1038.0317788000002,1041.3790697000004,,,,1041.3793133,1041.3950243999998,1041.3950243999998,1041.3950243999998,1041.6949513,1041.8122886,,,,up,3.3316056999992725,None,space,0.40880079999988084,None,,,,,,,,,,,,P104,001,2024-11-15_09h38.40.725,posner_endo_new1,2024.2.4,60.07369841327046,2024-11-15 09h38.47.287665 +0000,
10,0.005,54,4,5,down,3.648360799999864,None,None,,,,,,,5,4,54,4,,,,,1041.8282003000004,,,,,,,,,,,,1041.8124451000003,1041.8282003000004,1041.8282003000004,1045.4918785999998,,,,1045.4921229000001,1045.5077619000003,1045.5077619000003,1045.5077619000003,1045.8068647999999,1048.5045526000004,,,,down,3.648360799999864,None,None,,,,,,,,,,,,,,P104,001,2024-11-15_09h38.40.725,posner_endo_new1,2024.2.4,60.07369841327046,2024-11-15 09h38.47.287665 +0000,
-0.31,0.005,55,5,5,up,0.2508159999997588,None,space,0.3696919000003618,None,,,,,5,5,55,2,,,,,1048.5208717000005,,,,,,,,,,,,1048.5047089,1048.5208717000005,1048.5208717000005,1048.7878898,,,,1048.7881353000002,1048.8044242000005,1048.8044242000005,1048.8044242000005,1049.1036302000002,1049.1877482,,,,up,0.2508159999997588,None,space,0.3696919000003618,None,,,,,,,,,,,,P104,001,2024-11-15_09h38.40.725,posner_endo_new1,2024.2.4,60.07369841327046,2024-11-15 09h38.47.287665 +0000,
0.31,0.005,56,6,5,down,2.864845499999319,None,space,0.3638246000000436,None,,,,,5,6,56,1,,,,,1049.2041219000002,,,,,,,,,,,,1049.1879061,1049.2041219000002,1049.2041219000002,1052.0851721999998,,,,1052.0854163000004,1052.1006758000003,1052.1006758000003,1052.1006758000003,1052.4004310999999,1052.4675757000005,,,,down,2.864845499999319,None,space,0.3638246000000436,None,,,,,,,,,,,,P104,001,2024-11-15_09h38.40.725,posner_endo_new1,2024.2.4,60.07369841327046,2024-11-15 09h38.47.287665 +0000,
0.005,10,57,7,5,up,3.4558061999996426,None,None,,,,,,,5,7,57,9,,,,,1052.4838826000005,,,,,,,,,,,,1052.4677345999999,1052.4838826000005,1052.4838826000005,1055.9477765000001,,,,1055.9480252000003,1055.9636900000005,1055.9636900000005,1055.9636900000005,1056.2634307999997,1058.9607516000005,,,,up,3.4558061999996426,None,None,,,,,,,,,,,,,,P104,001,2024-11-15_09h38.40.725,posner_endo_new1,2024.2.4,60.07369841327046,2024-11-15 09h38.47.287665 +0000,
0.005,-0.31,58,8,5,down,0.8506100000004153,None,space,0.3018769999998767,None,,,,,5,8,58,5,,,,,1058.9771304000005,,,,,,,,,,,,1058.9609049,1058.9771304000005,1058.9771304000005,1059.8433052,,,,1059.8435467999998,1059.8595419000003,1059.8595419000003,1059.8595419000003,1060.1589548000002,1060.1762663999998,,,,down,0.8506100000004153,None,space,0.3018769999998767,None,,,,,,,,,,,,P104,001,2024-11-15_09h38.40.725,posner_endo_new1,2024.2.4,60.07369841327046,2024-11-15 09h38.47.287665 +0000,
0.31,0.005,59,9,5,up,3.586836999999832,None,space,0.38930290000007517,None,,,,,5,9,59,3,,,,,1060.1924248000005,,,,,,,,,,,,1060.1764252000003,1060.1924248000005,1060.1924248000005,1063.7893402999998,,,,1063.7895835,1063.8053293000003,1063.8053293000003,1063.8053293000003,1064.1053579,1064.2054128999998,,,,up,3.586836999999832,None,space,0.38930290000007517,None,,,,,,,,,,,,P104,001,2024-11-15_09h38.40.725,posner_endo_new1,2024.2.4,60.07369841327046,2024-11-15 09h38.47.287665 +0000,
,,,,,,,,,,,,,,,,,,,,,,,,,,,,,,,,,,,,,,,,,,,,,,,,,,,,,,,,,1064.2055154,1064.2218868,1064.2218868,1124.1944976000004,None,,,,,,,P104,001,2024-11-15_09h38.40.725,posner_endo_new1,2024.2.4,60.07369841327046,2024-11-15 09h38.47.287665 +0000,
,,,,,,,,,,,,,,,,,,,,,,,,,,,,,,,,1124.1945772999998,1124.2106472000005,1127.2074641999998,,,,,,,,,,,,,,,,,,,,,,,,,,,,,,,,,,P104,001,2024-11-15_09h38.40.725,posner_endo_new1,2024.2.4,60.07369841327046,2024-11-15 09h38.47.287665 +0000,
-0.31,0.005,0,0,0,down,6.60820540000077,None,space,0.34568810000018857,None,,,,,,,,,0,0,0,0,1127.2271999000004,,,,,,,,,,,,1127.2185559,1127.2271999000004,1127.2271999000004,1133.8530084000004,,,,1133.8538556000003,1133.8676094000002,1133.8676094000002,1133.8676094000002,1134.1671951999997,1134.2195929999998,,,,,,,,,,,,,,,down,6.60820540000077,None,space,0.34568810000018857,None,P104,001,2024-11-15_09h38.40.725,posner_endo_new1,2024.2.4,60.07369841327046,2024-11-15 09h38.47.287665 +0000,
10,0.005,1,1,0,up,3.202246400000149,None,None,,,,,,,,,,,0,1,1,4,1134.233776,,,,,,,,,,,,1134.2201909000005,1134.233776,1134.233776,1137.4493657000003,,,,1137.4501504,1137.4640416000002,1137.4640416000002,1137.4640416000002,1137.7634773,1140.4610230999997,,,,,,,,,,,,,,,up,3.202246400000149,None,None,,,P104,001,2024-11-15_09h38.40.725,posner_endo_new1,2024.2.4,60.07369841327046,2024-11-15 09h38.47.287665 +0000,
-0.31,0.005,2,2,0,down,0.5981236999996327,None,space,0.40064540000003035,None,,,,,,,,,0,2,2,2,1140.4774022000001,,,,,,,,,,,,1140.4615247000002,1140.4774022000001,1140.4774022000001,1141.0791971999997,,,,1141.0799545999998,1141.0936885,1141.0936885,1141.0936885,1141.3931600000005,1141.5117560999997,,,,,,,,,,,,,,,down,0.5981236999996327,None,space,0.40064540000003035,None,P104,001,2024-11-15_09h38.40.725,posner_endo_new1,2024.2.4,60.07369841327046,2024-11-15 09h38.47.287665 +0000,
0.005,0.31,3,3,0,up,3.2936372000003757,None,space,0.3859904999999344,None,,,,,,,,,0,3,3,8,1141.5263333000003,,,,,,,,,,,,1141.5123185000002,1141.5263333000003,1141.5263333000003,1144.8254718999997,,,,1144.8262764,1144.8398918000003,1144.8398918000003,1144.8398918000003,1145.1393159999998,1145.2415300000002,,,,,,,,,,,,,,,up,3.2936372000003757,None,space,0.3859904999999344,None,P104,001,2024-11-15_09h38.40.725,posner_endo_new1,2024.2.4,60.07369841327046,2024-11-15 09h38.47.287665 +0000,
0.31,0.005,4,4,0,down,3.5722701000004236,None,space,0.46037059999980556,None,,,,,,,,,0,4,4,3,1145.2558233,,,,,,,,,,,,1145.2421248,1145.2558233,1145.2558233,1148.8377652,,,,1148.8385315000005,1148.8524002000004,1148.8524002000004,1148.8524002000004,1149.1518651000006,1149.3206331000001,,,,,,,,,,,,,,,down,3.5722701000004236,None,space,0.46037059999980556,None,P104,001,2024-11-15_09h38.40.725,posner_endo_new1,2024.2.4,60.07369841327046,2024-11-15 09h38.47.287665 +0000,
0.005,0.31,5,5,0,up,2.3970476000004055,None,space,0.3225176999994801,None,,,,,,,,,0,5,5,6,1149.3350497000001,,,,,,,,,,,,1149.3211904,1149.3350497000001,1149.3350497000001,1151.7353632000004,,,,1151.7361333999997,1151.7495107000004,1151.7495107000004,1151.7495107000004,1152.048914,1152.0844374999997,,,,,,,,,,,,,,,up,2.3970476000004055,None,space,0.3225176999994801,None,P104,001,2024-11-15_09h38.40.725,posner_endo_new1,2024.2.4,60.07369841327046,2024-11-15 09h38.47.287665 +0000,
0.005,-0.31,6,6,0,down,3.1288298999998005,None,space,0.3746317999994062,None,,,,,,,,,0,6,6,5,1152.0988742,,,,,,,,,,,,1152.0849945999998,1152.0988742,1152.0988742,1155.2314551,,,,1155.2322707000003,1155.2459288,1155.2459288,1155.2459288,1155.5453263,1155.6308795000004,,,,,,,,,,,,,,,down,3.1288298999998005,None,space,0.3746317999994062,None,P104,001,2024-11-15_09h38.40.725,posner_endo_new1,2024.2.4,60.07369841327046,2024-11-15 09h38.47.287665 +0000,
0.005,-0.31,7,7,0,up,2.4861940000000686,None,space,0.33974599999964994,None,,,,,,,,,0,7,7,7,1155.6452448,,,,,,,,,,,,1155.6314337000003,1155.6452448,1155.6452448,1158.1451392999998,,,,1158.1459206999998,1158.1595674,1158.1595674,1158.1595674,1158.4590235000005,1158.5112092999998,,,,,,,,,,,,,,,up,2.4861940000000686,None,space,0.33974599999964994,None,P104,001,2024-11-15_09h38.40.725,posner_endo_new1,2024.2.4,60.07369841327046,2024-11-15 09h38.47.287665 +0000,
0.31,0.005,8,8,0,down,3.061646699999983,None,space,0.3684714000000895,None,,,,,,,,,0,8,8,1,1158.5256255000004,,,,,,,,,,,,1158.5117749,1158.5256255000004,1158.5256255000004,1161.5916785999998,,,,1161.5924516000005,1161.6060663999997,1161.6060663999997,1161.6060663999997,1161.9054751000003,1161.9912542000002,,,,,,,,,,,,,,,down,3.061646699999983,None,space,0.3684714000000895,None,P104,001,2024-11-15_09h38.40.725,posner_endo_new1,2024.2.4,60.07369841327046,2024-11-15 09h38.47.287665 +0000,
0.005,10,9,9,0,up,3.549932300000364,None,None,,,,,,,,,,,0,9,9,9,1162.0053690000004,,,,,,,,,,,,1161.9918116999997,1162.0053690000004,1162.0053690000004,1165.5706755,,,,1165.5714343,1165.5852855000003,1165.5852855000003,1165.5852855000003,1165.8847709000001,1168.5822954000005,,,,,,,,,,,,,,,up,3.549932300000364,None,None,,,P104,001,2024-11-15_09h38.40.725,posner_endo_new1,2024.2.4,60.07369841327046,2024-11-15 09h38.47.287665 +0000,
0.005,-0.31,10,0,1,down,1.2457002000001012,None,space,0.32596040000044013,None,,,,,,,,,1,0,10,7,1168.5986729000006,,,,,,,,,,,,1168.5828136999999,1168.5986729000006,1168.5986729000006,1169.8498209999998,,,,1169.8505836000004,1169.8642844000005,1169.8642844000005,1169.8642844000005,1170.1636537000004,1170.1993504000002,,,,,,,,,,,,,,,down,1.2457002000001012,None,space,0.32596040000044013,None,P104,001,2024-11-15_09h38.40.725,posner_endo_new1,2024.2.4,60.07369841327046,2024-11-15 09h38.47.287665 +0000,
0.31,0.005,11,1,1,up,4.294130999999652,None,space,0.3722983999996359,None,,,,,,,,,1,1,11,1,1170.2136365000006,,,,,,,,,,,,1170.1998949999997,1170.2136365000006,1170.2136365000006,1174.5119827999997,,,,1174.5127407999998,1174.5261822000002,1174.5261822000002,1174.5261822000002,1174.8256250000004,1174.9112169999999,,,,,,,,,,,,,,,up,4.294130999999652,None,space,0.3722983999996359,None,P104,001,2024-11-15_09h38.40.725,posner_endo_new1,2024.2.4,60.07369841327046,2024-11-15 09h38.47.287665 +0000,
10,0.005,12,2,1,down,3.3268348000001424,None,None,,,,,,,,,,,1,2,12,4,1174.9255287000005,,,,,,,,,,,,1174.9118190999998,1174.9255287000005,1174.9255287000005,1178.2579298,,,,1178.258723,1178.2723757000003,1178.2723757000003,1178.2723757000003,1178.5717813,1181.2693133000002,,,,,,,,,,,,,,,down,3.3268348000001424,None,None,,,P104,001,2024-11-15_09h38.40.725,posner_endo_new1,2024.2.4,60.07369841327046,2024-11-15 09h38.47.287665 +0000,
-0.31,0.005,13,3,1,up,1.7179682999994839,None,space,0.36928360000001703,None,,,,,,,,,1,3,13,2,1181.2856707,,,,,,,,,,,,1181.2698206000005,1181.2856707,1181.2856707,1183.0195767000005,,,,1183.0203241,1183.0341085,1183.0341085,1183.0341085,1183.3335708000004,1183.4191086,,,,,,,,,,,,,,,up,1.7179682999994839,None,space,0.36928360000001703,None,P104,001,2024-11-15_09h38.40.725,posner_endo_new1,2024.2.4,60.07369841327046,2024-11-15 09h38.47.287665 +0000,
0.31,0.005,14,4,1,down,2.9462862999998833,None,space,0.3841037000001961,None,,,,,,,,,1,4,14,3,1183.4334832000004,,,,,,,,,,,,1183.4196622999998,1183.4334832000004,1183.4334832000004,1186.3809118999998,,,,1186.3811990000004,1186.3965124000006,1186.3965124000006,1186.3965124000006,1186.6962491000004,1186.7969929,,,,,,,,,,,,,,,down,2.9462862999998833,None,space,0.3841037000001961,None,P104,001,2024-11-15_09h38.40.725,posner_endo_new1,2024.2.4,60.07369841327046,2024-11-15 09h38.47.287665 +0000,
0.005,-0.31,15,5,1,up,3.871176900000137,None,space,0.4230811999996149,None,,,,,,,,,1,5,15,5,1186.8127737000004,,,,,,,,,,,,1186.7971935000005,1186.8127737000004,1186.8127737000004,1190.6933958,,,,1190.6936838000001,1190.7087773000003,1190.7087773000003,1190.7087773000003,1191.0090534,1191.1426546000002,,,,,,,,,,,,,,,up,3.871176900000137,None,space,0.4230811999996149,None,P104,001,2024-11-15_09h38.40.725,posner_endo_new1,2024.2.4,60.07369841327046,2024-11-15 09h38.47.287665 +0000,
0.005,10,16,6,1,down,3.358453499999996,None,None,,,,,,,,,,,1,6,16,9,1191.1585600999997,,,,,,,,,,,,1191.1428580000002,1191.1585600999997,1191.1585600999997,1194.5224813000004,,,,1194.5227713000004,1194.5382298000004,1194.5382298000004,1194.5382298000004,1194.8379643999997,1197.5352512999998,,,,,,,,,,,,,,,down,3.358453499999996,None,None,,,P104,001,2024-11-15_09h38.40.725,posner_endo_new1,2024.2.4,60.07369841327046,2024-11-15 09h38.47.287665 +0000,
-0.31,0.005,17,7,1,up,1.451810800000203,None,space,0.376831200000197,None,,,,,,,,,1,7,17,0,1197.5517707999998,,,,,,,,,,,,1197.5354463000003,1197.5517707999998,1197.5517707999998,1199.0177918,,,,1199.0180873,1199.0335993999997,1199.0335993999997,1199.0335993999997,1199.3334332000004,1199.4176850000003,,,,,,,,,,,,,,,up,1.451810800000203,None,space,0.376831200000197,None,P104,001,2024-11-15_09h38.40.725,posner_endo_new1,2024.2.4,60.07369841327046,2024-11-15 09h38.47.287665 +0000,
0.005,0.31,18,8,1,down,4.378754399999707,None,space,0.5899930999994467,None,,,,,,,,,1,8,18,8,1199.4331815000005,,,,,,,,,,,,1199.4178831,1199.4331815000005,1199.4331815000005,1203.8129814000004,,,,1203.8132707000004,1203.8286843000005,1203.8286843000005,1203.8286843000005,1204.1283279,1204.4290313000001,,,,,,,,,,,,,,,down,4.378754399999707,None,space,0.5899930999994467,None,P104,001,2024-11-15_09h38.40.725,posner_endo_new1,2024.2.4,60.07369841327046,2024-11-15 09h38.47.287665 +0000,
0.005,0.31,19,9,1,down,6.735269399999197,None,space,0.39694500000041444,None,,,,,,,,,1,9,19,6,1204.4446469000004,,,,,,,,,,,,1204.4292298,1204.4446469000004,1204.4446469000004,1211.1886095,,,,1211.1889016000005,1211.2044618,1211.2044618,1211.2044618,1211.5041176000004,1211.604937,,,,,,,,,,,,,,,down,6.735269399999197,None,space,0.39694500000041444,None,P104,001,2024-11-15_09h38.40.725,posner_endo_new1,2024.2.4,60.07369841327046,2024-11-15 09h38.47.287665 +0000,
10,0.005,20,0,2,down,5.647144600000502,None,None,,,,,,,,,,,2,0,20,4,1211.6206859000004,,,,,,,,,,,,1211.6051328000003,1211.6206859000004,1211.6206859000004,1217.2829775,,,,1217.2834103000005,1217.2983615000003,1217.2983615000003,1217.2983615000003,1217.5978919,1220.2954670999998,,,,,,,,,,,,,,,down,5.647144600000502,None,None,,,P104,001,2024-11-15_09h38.40.725,posner_endo_new1,2024.2.4,60.07369841327046,2024-11-15 09h38.47.287665 +0000,
0.31,0.005,21,1,2,up,0.20383169999968231,None,space,0.4515538999994533,None,,,,,,,,,2,1,21,3,1220.3119284000004,,,,,,,,,,,,1220.2957596000006,1220.3119284000004,1220.3119284000004,1220.5297662000003,,,,1220.5302035000004,1220.5452364000002,1220.5452364000002,1220.5452364000002,1220.8446171000005,1221.0119709,,,,,,,,,,,,,,,up,0.20383169999968231,None,space,0.4515538999994533,None,P104,001,2024-11-15_09h38.40.725,posner_endo_new1,2024.2.4,60.07369841327046,2024-11-15 09h38.47.287665 +0000,
0.005,0.31,22,2,2,down,3.392047299999831,None,space,0.4225254999992103,None,,,,,,,,,2,2,22,6,1221.0277998000001,,,,,,,,,,,,1221.0121795000005,1221.0277998000001,1221.0277998000001,1224.4252432000003,,,,1224.4255508000006,1224.440963,1224.440963,1224.440963,1224.7406029000003,1224.8746889000004,,,,,,,,,,,,,,,down,3.392047299999831,None,space,0.4225254999992103,None,P104,001,2024-11-15_09h38.40.725,posner_endo_new1,2024.2.4,60.07369841327046,2024-11-15 09h38.47.287665 +0000,
-0.31,0.005,23,3,2,up,2.632991899999979,None,space,0.35405770000033954,None,,,,,,,,,2,3,23,2,1224.8904981000005,,,,,,,,,,,,1224.8748993,1224.8904981000005,1224.8904981000005,1227.5386097,,,,1227.5389164999997,1227.5544111999998,1227.5544111999998,1227.5544111999998,1227.8541304,1227.9215451,,,,,,,,,,,,,,,up,2.632991899999979,None,space,0.35405770000033954,None,P104,001,2024-11-15_09h38.40.725,posner_endo_new1,2024.2.4,60.07369841327046,2024-11-15 09h38.47.287665 +0000,
0.005,0.31,24,4,2,down,3.5221769999998287,None,space,0.44093160000011267,None,,,,,,,,,2,4,24,8,1227.9374036,,,,,,,,,,,,1227.9217648000003,1227.9374036,1227.9374036,1231.4679180000003,,,,1231.4682246000002,1231.4836821999997,1231.4836821999997,1231.4836821999997,1231.7833815000004,1231.9341431000003,,,,,,,,,,,,,,,down,3.5221769999998287,None,space,0.44093160000011267,None,P104,001,2024-11-15_09h38.40.725,posner_endo_new1,2024.2.4,60.07369841327046,2024-11-15 09h38.47.287665 +0000,
0.005,-0.31,25,5,2,up,2.6299899999994523,None,space,0.42875049999929615,None,,,,,,,,,2,5,25,7,1231.9499197000005,,,,,,,,,,,,1231.9343547999997,1231.9499197000005,1231.9499197000005,1234.5815671,,,,1234.5819019,1234.5971885,1234.5971885,1234.5971885,1234.8968944999997,1235.0309488000003,,,,,,,,,,,,,,,up,2.6299899999994523,None,space,0.42875049999929615,None,P104,001,2024-11-15_09h38.40.725,posner_endo_new1,2024.2.4,60.07369841327046,2024-11-15 09h38.47.287665 +0000,
0.005,10,26,6,2,down,3.2369618000002447,None,None,,,,,,,,,,,2,6,26,9,1235.0467956000002,,,,,,,,,,,,1235.0311655000005,1235.0467956000002,1235.0467956000002,1238.2943448000005,,,,1238.2946487,1238.3100817000004,1238.3100817000004,1238.3100817000004,1238.6097826000005,1241.3071908000002,,,,,,,,,,,,,,,down,3.2369618000002447,None,None,,,P104,001,2024-11-15_09h38.40.725,posner_endo_new1,2024.2.4,60.07369841327046,2024-11-15 09h38.47.287665 +0000,
-0.31,0.005,27,7,2,up,1.13666319999993,None,space,0.370885599999383,None,,,,,,,,,2,7,27,0,1241.3236193000002,,,,,,,,,,,,1241.3073906999998,1241.3236193000002,1241.3236193000002,1242.4733570999997,,,,1242.4736623999997,1242.4893639000002,1242.4893639000002,1242.4893639000002,1242.7888475999998,1242.8730114,,,,,,,,,,,,,,,up,1.13666319999993,None,space,0.370885599999383,None,P104,001,2024-11-15_09h38.40.725,posner_endo_new1,2024.2.4,60.07369841327046,2024-11-15 09h38.47.287665 +0000,
0.005,-0.31,28,8,2,down,3.579333300000144,None,space,0.4641244000004008,None,,,,,,,,,2,8,28,5,1242.8887745000002,,,,,,,,,,,,1242.8732275000002,1242.8887745000002,1242.8887745000002,1246.4693368999997,,,,1246.4696414999999,1246.4850757000004,1246.4850757000004,1246.4850757000004,1246.7847254999997,1246.9521776000001,,,,,,,,,,,,,,,down,3.579333300000144,None,space,0.4641244000004008,None,P104,001,2024-11-15_09h38.40.725,posner_endo_new1,2024.2.4,60.07369841327046,2024-11-15 09h38.47.287665 +0000,
0.31,0.005,29,9,2,up,3.4597364999999627,None,space,0.3528848999994807,None,,,,,,,,,2,9,29,1,1246.9679078999998,,,,,,,,,,,,1246.9523876000003,1246.9679078999998,1246.9679078999998,1250.4322265,,,,1250.4325307999998,1250.4476409999997,1250.4476409999997,1250.4476409999997,1250.7473930000006,1250.8152099999998,,,,,,,,,,,,,,,up,3.4597364999999627,None,space,0.3528848999994807,None,P104,001,2024-11-15_09h38.40.725,posner_endo_new1,2024.2.4,60.07369841327046,2024-11-15 09h38.47.287665 +0000,
0.005,0.31,30,0,3,down,3.485416499999701,None,space,0.5274348000002647,None,,,,,,,,,3,0,30,6,1250.8305515000002,,,,,,,,,,,,1250.8154204000002,1250.8305515000002,1250.8305515000002,1254.3278676,,,,1254.3281852,1254.3437247000002,1254.3437247000002,1254.3437247000002,1254.6434264,1254.8776809,,,,,,,,,,,,,,,down,3.485416499999701,None,space,0.5274348000002647,None,P104,001,2024-11-15_09h38.40.725,posner_endo_new1,2024.2.4,60.07369841327046,2024-11-15 09h38.47.287665 +0000,
10,0.005,31,1,3,up,2.391910899999857,None,None,,,,,,,,,,,3,1,31,4,1254.8931007,,,,,,,,,,,,1254.8778901000005,1254.8931007,1254.8931007,1257.2916641000002,,,,1257.2919799000001,1257.3072907000005,1257.3072907000005,1257.3072907000005,1257.6069607,1260.3043790000002,,,,,,,,,,,,,,,up,2.391910899999857,None,None,,,P104,001,2024-11-15_09h38.40.725,posner_endo_new1,2024.2.4,60.07369841327046,2024-11-15 09h38.47.287665 +0000,
0.005,-0.31,32,2,3,down,0.10668370000075811,None,space,0.3463879999999335,None,,,,,,,,,3,2,32,5,1260.3209095000002,,,,,,,,,,,,1260.3045788,1260.3209095000002,1260.3209095000002,1260.4383773,,,,1260.4386931999998,1260.4540173000005,1260.4540173000005,1260.4540173000005,1260.7537718000003,1260.8047096,,,,,,,,,,,,,,,down,0.10668370000075811,None,space,0.3463879999999335,None,P104,001,2024-11-15_09h38.40.725,posner_endo_new1,2024.2.4,60.07369841327046,2024-11-15 09h38.47.287665 +0000,
0.005,-0.31,33,3,3,up,3.3268497999997635,None,space,0.40394479999940813,None,,,,,,,,,3,3,33,7,1260.8204260000002,,,,,,,,,,,,1260.8049251000002,1260.8204260000002,1260.8204260000002,1264.1512907000006,,,,1264.1515950000003,1264.1669800999998,1264.1669800999998,1264.1669800999998,1264.4667221,1264.5840677000006,,,,,,,,,,,,,,,up,3.3268497999997635,None,space,0.40394479999940813,None,P104,001,2024-11-15_09h38.40.725,posner_endo_new1,2024.2.4,60.07369841327046,2024-11-15 09h38.47.287665 +0000,
0.005,0.31,34,4,3,down,3.6604159999997137,None,space,0.5276194999996733,None,,,,,,,,,3,4,34,8,1264.5998695999997,,,,,,,,,,,,1264.5842787000001,1264.5998695999997,1264.5998695999997,1268.2637751000002,,,,1268.2640799,1268.2794039,1268.2794039,1268.2794039,1268.5791305000002,1268.8132907999998,,,,,,,,,,,,,,,down,3.6604159999997137,None,space,0.5276194999996733,None,P104,001,2024-11-15_09h38.40.725,posner_endo_new1,2024.2.4,60.07369841327046,2024-11-15 09h38.47.287665 +0000,
0.31,0.005,35,5,3,up,2.6798029999999926,None,space,0.3623803999998927,None,,,,,,,,,3,5,35,1,1268.8289224999999,,,,,,,,,,,,1268.8135018000003,1268.8289224999999,1268.8289224999999,1271.5104719,,,,1271.5107815000001,1271.5260465000001,1271.5260465000001,1271.5260465000001,1271.8258413000003,1271.8933021000003,,,,,,,,,,,,,,,up,2.6798029999999926,None,space,0.3623803999998927,None,P104,001,2024-11-15_09h38.40.725,posner_endo_new1,2024.2.4,60.07369841327046,2024-11-15 09h38.47.287665 +0000,
0.005,10,36,6,3,down,3.0709673999999723,None,None,,,,,,,,,,,3,6,36,9,1271.9090569999998,,,,,,,,,,,,1271.8935136999999,1271.9090569999998,1271.9090569999998,1274.9901082000006,,,,1274.9904126000001,1275.0058878999998,1275.0058878999998,1275.0058878999998,1275.3055880000002,1278.0028895000005,,,,,,,,,,,,,,,down,3.0709673999999723,None,None,,,P104,001,2024-11-15_09h38.40.725,posner_endo_new1,2024.2.4,60.07369841327046,2024-11-15 09h38.47.287665 +0000,
0.31,0.005,37,7,3,up,0.2806477000003724,None,space,0.2676653999997143,None,,,,,,,,,3,7,37,3,1278.0194545000004,,,,,,,,,,,,1278.0030944999999,1278.0194545000004,1278.0194545000004,1278.3033477999998,,,,1278.3036561999998,1278.3191031000006,1278.3191031000006,1278.3191031000006,1278.6188481999998,1278.6030978,,,,,,,,,,,,,,,up,0.2806477000003724,None,space,0.2676653999997143,None,P104,001,2024-11-15_09h38.40.725,posner_endo_new1,2024.2.4,60.07369841327046,2024-11-15 09h38.47.287665 +0000,
-0.31,0.005,38,8,3,down,3.369100100000651,None,space,0.41957970000021305,None,,,,,,,,,3,8,38,2,1278.6188481999998,,,,,,,,,,,,1278.6033065000001,1278.6188481999998,1278.6188481999998,1281.9997111000002,,,,1282.0000221,1282.0157105999997,1282.0157105999997,1282.0157105999997,1282.3150180000002,1282.4493703999997,,,,,,,,,,,,,,,down,3.369100100000651,None,space,0.41957970000021305,None,P104,001,2024-11-15_09h38.40.725,posner_endo_new1,2024.2.4,60.07369841327046,2024-11-15 09h38.47.287665 +0000,
-0.31,0.005,39,9,3,up,2.602900099999715,None,space,0.365164900000309,None,,,,,,,,,3,9,39,0,1282.4649306000001,,,,,,,,,,,,1282.4495804999997,1282.4649306000001,1282.4649306000001,1285.0800829999998,,,,1285.0803887000002,1285.0956369000005,1285.0956369000005,1285.0956369000005,1285.3952301,1285.4627464000005,,,,,,,,,,,,,,,up,2.602900099999715,None,space,0.365164900000309,None,P104,001,2024-11-15_09h38.40.725,posner_endo_new1,2024.2.4,60.07369841327046,2024-11-15 09h38.47.287665 +0000,
0.005,-0.31,40,0,4,down,3.084986100000606,None,space,0.3710194000004776,None,,,,,,,,,4,0,40,7,1285.4785505999998,,,,,,,,,,,,1285.4629615000003,1285.4785505999998,1285.4785505999998,1288.5765382,,,,1288.5768417,1288.5923448000003,1288.5923448000003,1288.5923448000003,1288.8916938000002,1288.9757925000004,,,,,,,,,,,,,,,down,3.084986100000606,None,space,0.3710194000004776,None,P104,001,2024-11-15_09h38.40.725,posner_endo_new1,2024.2.4,60.07369841327046,2024-11-15 09h38.47.287665 +0000,
-0.31,0.005,41,1,4,up,2.740486599999713,None,space,0.4032158999998501,None,,,,,,,,,4,1,41,0,1288.9915224000006,,,,,,,,,,,,1288.9760041999998,1288.9915224000006,1288.9915224000006,1291.7396921999998,,,,1291.7400012999997,1291.755354,1291.755354,1291.755354,1292.0551317999998,1292.1724937,,,,,,,,,,,,,,,up,2.740486599999713,None,space,0.4032158999998501,None,P104,001,2024-11-15_09h38.40.725,posner_endo_new1,2024.2.4,60.07369841327046,2024-11-15 09h38.47.287665 +0000,
10,0.005,42,2,4,down,2.6870326999996905,None,None,,,,,,,,,,,4,2,42,4,1292.1883626999997,,,,,,,,,,,,1292.1727112999997,1292.1883626999997,1292.1883626999997,1294.8864611999998,,,,1294.8867675000001,1294.9022407000002,1294.9022407000002,1294.9022407000002,1295.2018984000006,1297.8992129999997,,,,,,,,,,,,,,,down,2.6870326999996905,None,None,,,P104,001,2024-11-15_09h38.40.725,posner_endo_new1,2024.2.4,60.07369841327046,2024-11-15 09h38.47.287665 +0000,
0.31,0.005,43,3,4,up,0.15230279999923368,None,space,0.28516039999976783,None,,,,,,,,,4,3,43,1,1297.9158042999998,,,,,,,,,,,,1297.8994166000002,1297.9158042999998,1297.9158042999998,1298.0831386999998,,,,1298.0834476,1298.0991485000004,1298.0991485000004,1298.0991485000004,1298.3985966999999,1298.3995659000002,,,,,,,,,,,,,,,up,0.15230279999923368,None,space,0.28516039999976783,None,P104,001,2024-11-15_09h38.40.725,posner_endo_new1,2024.2.4,60.07369841327046,2024-11-15 09h38.47.287665 +0000,
-0.31,0.005,44,4,4,down,3.292491400000472,None,space,0.46732019999944896,None,,,,,,,,,4,4,44,2,1298.4153188,,,,,,,,,,,,1298.3997715000005,1298.4153188,1298.4153188,1301.7128162999998,,,,1301.7131410000002,1301.7286026000002,1301.7286026000002,1301.7286026000002,1302.0282797,1302.2126475000005,,,,,,,,,,,,,,,down,3.292491400000472,None,space,0.46732019999944896,None,P104,001,2024-11-15_09h38.40.725,posner_endo_new1,2024.2.4,60.07369841327046,2024-11-15 09h38.47.287665 +0000,
0.31,0.005,45,5,4,up,3.4246358000000328,None,space,0.365148699999736,None,,,,,,,,,4,5,45,3,1302.2279869000004,,,,,,,,,,,,1302.2128578000002,1302.2279869000004,1302.2279869000004,1305.6587531000005,,,,1305.6590711999997,1305.674559,1305.674559,1305.674559,1305.9742062000005,1306.0417599000002,,,,,,,,,,,,,,,up,3.4246358000000328,None,space,0.365148699999736,None,P104,001,2024-11-15_09h38.40.725,posner_endo_new1,2024.2.4,60.07369841327046,2024-11-15 09h38.47.287665 +0000,
0.005,10,46,6,4,down,2.7944791999998415,None,None,,,,,,,,,,,4,6,46,9,1306.0577349000005,,,,,,,,,,,,1306.0419767000003,1306.0577349000005,1306.0577349000005,1308.8556117999997,,,,1308.8559215000005,1308.8712188,1308.8712188,1308.8712188,1309.1709269000003,1311.8682559999997,,,,,,,,,,,,,,,down,2.7944791999998415,None,None,,,P104,001,2024-11-15_09h38.40.725,posner_endo_new1,2024.2.4,60.07369841327046,2024-11-15 09h38.47.287665 +0000,
0.005,0.31,47,7,4,up,0.36771200000021054,None,space,0.30875169999944774,None,,,,,,,,,4,7,47,8,1311.8848457000004,,,,,,,,,,,,1311.8684595000004,1311.8848457000004,1311.8848457000004,1312.2686051,,,,1312.268916,1312.2845066,1312.2845066,1312.2845066,1312.5841851000005,1312.6017523,,,,,,,,,,,,,,,up,0.36771200000021054,None,space,0.30875169999944774,None,P104,001,2024-11-15_09h38.40.725,posner_endo_new1,2024.2.4,60.07369841327046,2024-11-15 09h38.47.287665 +0000,
0.005,0.31,48,8,4,down,3.3542748999998366,None,space,0.3538453000001027,None,,,,,,,,,4,8,48,6,1312.6174073000002,,,,,,,,,,,,1312.6019637999998,1312.6174073000002,1312.6174073000002,1315.9816301,,,,1315.9819532000001,1315.9973295999998,1315.9973295999998,1315.9973295999998,1316.2972791000002,1316.3644667999997,,,,,,,,,,,,,,,down,3.3542748999998366,None,space,0.3538453000001027,None,P104,001,2024-11-15_09h38.40.725,posner_endo_new1,2024.2.4,60.07369841327046,2024-11-15 09h38.47.287665 +0000,
0.005,-0.31,49,9,4,up,2.59934819999944,None,space,0.3893820000002961,None,,,,,,,,,4,9,49,5,1316.380255,,,,,,,,,,,,1316.3646853999999,1316.380255,1316.380255,1318.9951041000004,,,,1318.9954098999997,1319.0108234999998,1319.0108234999998,1319.0108234999998,1319.3105415999999,1319.4115984,,,,,,,,,,,,,,,up,2.59934819999944,None,space,0.3893820000002961,None,P104,001,2024-11-15_09h38.40.725,posner_endo_new1,2024.2.4,60.07369841327046,2024-11-15 09h38.47.287665 +0000,
0.005,0.31,50,0,5,down,3.296070000000327,None,space,0.3475834999999279,None,,,,,,,,,5,0,50,8,1319.4271590999997,,,,,,,,,,,,1319.4118063000005,1319.4271590999997,1319.4271590999997,1322.7249646,,,,1322.7252737999997,1322.7403383,1322.7403383,1322.7403383,1323.0400452000003,1323.0909925000005,,,,,,,,,,,,,,,down,3.296070000000327,None,space,0.3475834999999279,None,P104,001,2024-11-15_09h38.40.725,posner_endo_new1,2024.2.4,60.07369841327046,2024-11-15 09h38.47.287665 +0000,
10,0.005,51,1,5,up,2.9783496999998533,None,None,,,,,,,,,,,5,1,51,4,1323.1068059999998,,,,,,,,,,,,1323.0912340000004,1323.1068059999998,1323.1068059999998,1326.0879749000005,,,,1326.0882862999997,1326.1035970000003,1326.1035970000003,1326.1035970000003,1326.4033313999998,1329.1013942999998,,,,,,,,,,,,,,,up,2.9783496999998533,None,None,,,P104,001,2024-11-15_09h38.40.725,posner_endo_new1,2024.2.4,60.07369841327046,2024-11-15 09h38.47.287665 +0000,
0.31,0.005,52,2,5,down,0.389930600000298,None,space,0.39717319999999745,None,,,,,,,,,5,2,52,1,1329.1177558,,,,,,,,,,,,1329.1019003000001,1329.1177558,1329.1177558,1329.5195599999997,,,,1329.5203069,1329.5342360000004,1329.5342360000004,1329.5342360000004,1329.8337650000003,1329.936248,,,,,,,,,,,,,,,down,0.389930600000298,None,space,0.39717319999999745,None,P104,001,2024-11-15_09h38.40.725,posner_endo_new1,2024.2.4,60.07369841327046,2024-11-15 09h38.47.287665 +0000,
0.005,-0.31,53,3,5,up,2.6852435999999216,None,space,0.3968477999997049,None,,,,,,,,,5,3,53,5,1329.9502918999997,,,,,,,,,,,,1329.9368168,1329.9502918999997,1329.9502918999997,1332.6497442999998,,,,1332.650525,1332.6644858,1332.6644858,1332.6644858,1332.96389,1333.0666026999997,,,,,,,,,,,,,,,up,2.6852435999999216,None,space,0.3968477999997049,None,P104,001,2024-11-15_09h38.40.725,posner_endo_new1,2024.2.4,60.07369841327046,2024-11-15 09h38.47.287665 +0000,
0.31,0.005,54,4,5,down,2.8437547999992603,None,space,0.5011112000001958,None,,,,,,,,,5,4,54,3,1333.0804352000005,,,,,,,,,,,,1333.0671493,1333.0804352000005,1333.0804352000005,1335.9299441000003,,,,1335.9307160999997,1335.9444312000005,1335.9444312000005,1335.9444312000005,1336.2438251000003,1336.4625941000004,,,,,,,,,,,,,,,down,2.8437547999992603,None,space,0.5011112000001958,None,P104,001,2024-11-15_09h38.40.725,posner_endo_new1,2024.2.4,60.07369841327046,2024-11-15 09h38.47.287665 +0000,
0.005,-0.31,55,5,5,up,2.830974800000149,None,space,0.31843100000060076,None,,,,,,,,,5,5,55,7,1336.4769435999997,,,,,,,,,,,,1336.4631472,1336.4769435999997,1336.4769435999997,1339.3100867000003,,,,1339.3108404000004,1339.324302,1339.324302,1339.324302,1339.6237380000002,1339.6593394000001,,,,,,,,,,,,,,,up,2.830974800000149,None,space,0.31843100000060076,None,P104,001,2024-11-15_09h38.40.725,posner_endo_new1,2024.2.4,60.07369841327046,2024-11-15 09h38.47.287665 +0000,
0.005,0.31,56,6,5,down,3.4419146000000183,None,space,0.36045780000040395,None,,,,,,,,,5,6,56,6,1339.6736668000003,,,,,,,,,,,,1339.6598941000002,1339.6736668000003,1339.6736668000003,1343.1228141000001,,,,1343.1235957999997,1343.1370840999998,1343.1370840999998,1343.1370840999998,1343.4364872000006,1343.5054706,,,,,,,,,,,,,,,down,3.4419146000000183,None,space,0.36045780000040395,None,P104,001,2024-11-15_09h38.40.725,posner_endo_new1,2024.2.4,60.07369841327046,2024-11-15 09h38.47.287665 +0000,
-0.31,0.005,57,7,5,up,3.003625400000601,None,space,0.5178432000002431,None,,,,,,,,,5,7,57,0,1343.5197657999997,,,,,,,,,,,,1343.5060146000005,1343.5197657999997,1343.5197657999997,1346.5357099000003,,,,1346.5364942000006,1346.5502364000004,1346.5502364000004,1346.5502364000004,1346.8496784999998,1347.0850458000004,,,,,,,,,,,,,,,up,3.003625400000601,None,space,0.5178432000002431,None,P104,001,2024-11-15_09h38.40.725,posner_endo_new1,2024.2.4,60.07369841327046,2024-11-15 09h38.47.287665 +0000,
0.005,10,58,8,5,down,3.1843614999997953,None,None,,,,,,,,,,,5,8,58,9,1347.0994327999997,,,,,,,,,,,,1347.0855980000006,1347.0994327999997,1347.0994327999997,1350.2985250000002,,,,1350.2992812000002,1350.3130275000003,1350.3130275000003,1350.3130275000003,1350.6125073000003,1353.3100279,,,,,,,,,,,,,,,down,3.1843614999997953,None,None,,,P104,001,2024-11-15_09h38.40.725,posner_endo_new1,2024.2.4,60.07369841327046,2024-11-15 09h38.47.287665 +0000,
-0.31,0.005,59,9,5,up,0.45310820000031526,None,space,0.37200269999993907,None,,,,,,,,,5,9,59,2,1353.3263862000003,,,,,,,,,,,,1353.3105345000004,1353.3263862000003,1353.3263862000003,1353.7948391999998,,,,1353.7956353999998,1353.8094516,1353.8094516,1353.8094516,1354.1089331000003,1354.1944267,,,,,,,,,,,,,,,up,0.45310820000031526,None,space,0.37200269999993907,None,P104,001,2024-11-15_09h38.40.725,posner_endo_new1,2024.2.4,60.07369841327046,2024-11-15 09h38.47.287665 +0000,
