target_y,target_x,thisN,thisTrialN,thisRepN,key_control2.keys,key_control2.rt,key_control2.duration,key_resp.keys,key_resp.rt,key_resp.duration,practice.thisRepN,practice.thisTrialN,practice.thisN,practice.thisIndex,session_1.thisRepN,session_1.thisTrialN,session_1.thisN,session_1.thisIndex,session_2.thisRepN,session_2.thisTrialN,session_2.thisN,session_2.thisIndex,thisRow.t,notes,instructions.started,instructions_txt.started,key_control.started,instructions.stopped,key_control.keys,key_control.rt,key_control.duration,ready.started,ready_txt.started,ready.stopped,fix.started,key_control2.started,fixation_cross.started,fix.stopped,practice.key_control2.keys,practice.key_control2.rt,practice.key_control2.duration,target.started,star.started,fixation_cross_target.started,key_resp.started,star.stopped,target.stopped,practice.key_resp.keys,practice.key_resp.rt,practice.key_resp.duration,session_1.key_control2.keys,session_1.key_control2.rt,session_1.key_control2.duration,session_1.key_resp.keys,session_1.key_resp.rt,session_1.key_resp.duration,break_2.started,text.started,key_control3.started,break_2.stopped,key_control3.keys,session_2.key_control2.keys,session_2.key_control2.rt,session_2.key_control2.duration,session_2.key_resp.keys,session_2.key_resp.rt,session_2.key_resp.duration,participant,session,date,expName,psychopyVersion,frameRate,expStart,
,,,,,,,,,,,,,,,,,,,,,,,,,0.007475600000361737,0.024790499999653548,0.024790499999653548,3153.7893098999994,up,3153.7538016,None,,,,,,,,,,,,,,,,,,,,,,,,,,,,,,,,,,,,,P105,001,2024-11-15_10h07.20.578,posner_endo_new1,2024.2.4,60.20665331710967,2024-11-15 10h07.29.011246 +0000,
,,,,,,,,,,,,,,,,,,,,,,,,,,,,,,,,3153.7893917,3153.8011575,3156.7969780999993,,,,,,,,,,,,,,,,,,,,,,,,,,,,,,,,,,P105,001,2024-11-15_10h07.20.578,posner_endo_new1,2024.2.4,60.20665331710967,2024-11-15 10h07.29.011246 +0000,
0.31,0.005,0,0,0,up,6.216449499999726,None,space,0.4133213999994041,None,0,0,0,1,,,,,,,,,3156.8179880999996,,,,,,,,,,,,3156.8085494000006,3156.8179880999996,3156.8179880999996,3163.0416442999995,up,6.216449499999726,None,3163.0420238999995,3163.057038499999,3163.057038499999,3163.057038499999,3163.3567860000003,3163.4745607999994,space,0.4133213999994041,None,,,,,,,,,,,,,,,,,,P105,001,2024-11-15_10h07.20.578,posner_endo_new1,2024.2.4,60.20665331710967,2024-11-15 10h07.29.011246 +0000,
0.005,0.31,1,1,0,down,4.375390499999412,None,space,0.3071842999997898,None,0,1,1,6,,,,,,,,,3163.4899471999997,,,,,,,,,,,,3163.4747898000005,3163.4899471999997,3163.4899471999997,3167.8700721999994,down,4.375390499999412,None,3167.8704166000007,3167.8854419,3167.8854419,3167.8854419,3168.1852084,3168.2030866000005,space,0.3071842999997898,None,,,,,,,,,,,,,,,,,,P105,001,2024-11-15_10h07.20.578,posner_endo_new1,2024.2.4,60.20665331710967,2024-11-15 10h07.29.011246 +0000,
-0.31,0.005,2,2,0,up,2.9031978999992134,None,space,0.343900300000314,None,0,2,2,2,,,,,,,,,3168.2184264000007,,,,,,,,,,,,3168.2033119999996,3168.2184264000007,3168.2184264000007,3171.1333066999996,up,2.9031978999992134,None,3171.1336489000005,3171.1488972000006,3171.1488972000006,3171.1488972000006,3171.4484759000006,3171.4995655000002,space,0.343900300000314,None,,,,,,,,,,,,,,,,,,P105,001,2024-11-15_10h07.20.578,posner_endo_new1,2024.2.4,60.20665331710967,2024-11-15 10h07.29.011246 +0000,
0.005,-0.31,3,3,0,down,3.085898100000122,None,space,0.2943463999999949,None,0,3,3,5,,,,,,,,,3171.5151485000006,,,,,,,,,,,,3171.4997968000007,3171.5151485000006,3171.5151485000006,3174.6130494999998,down,3.085898100000122,None,3174.613384099999,3174.6285907,3174.6285907,3174.6285907,3174.9282989000003,3174.9294248000006,space,0.2943463999999949,None,,,,,,,,,,,,,,,,,,P105,001,2024-11-15_10h07.20.578,posner_endo_new1,2024.2.4,60.20665331710967,2024-11-15 10h07.29.011246 +0000,
0.31,0.005,4,4,0,up,3.3849599000004673,None,space,0.4257751000004646,None,0,4,4,3,,,,,,,,,3174.944963,,,,,,,,,,,,3174.9296488,3174.944963,3174.944963,3178.3426096999992,up,3.3849599000004673,None,3178.3429775999994,3178.3580261999996,3178.3580261999996,3178.3580261999996,3178.6578329999993,3178.7921621999994,space,0.4257751000004646,None,,,,,,,,,,,,,,,,,,P105,001,2024-11-15_10h07.20.578,posner_endo_new1,2024.2.4,60.20665331710967,2024-11-15 10h07.29.011246 +0000,
0.005,10,5,5,0,down,2.858472100000654,None,None,,,0,5,5,9,,,,,,,,,3178.8075998999993,,,,,,,,,,,,3178.7923857000005,3178.8075998999993,3178.8075998999993,3181.672409499999,down,2.858472100000654,None,3181.6727486,3181.6879979000005,3181.6879979000005,3181.6879979000005,3181.987688699999,3184.6851258000006,None,,,,,,,,,,,,,,,,,,,,P105,001,2024-11-15_10h07.20.578,posner_endo_new1,2024.2.4,60.20665331710967,2024-11-15 10h07.29.011246 +0000,
0.005,0.31,6,6,0,down,3.0995309999998426,None,space,0.33534270000018296,None,0,6,6,8,,,,,,,,,3184.7016822000005,,,,,,,,,,,,3184.6853396000006,3184.7016822000005,3184.7016822000005,3187.8161509,down,3.0995309999998426,None,3187.816487100001,3187.8317647000003,3187.8317647000003,3187.8317647000003,3188.1313867999997,3188.182634999999,space,0.33534270000018296,None,,,,,,,,,,,,,,,,,,P105,001,2024-11-15_10h07.20.578,posner_endo_new1,2024.2.4,60.20665331710967,2024-11-15 10h07.29.011246 +0000,
10,0.005,7,7,0,up,2.3070260000004055,None,None,,,0,7,7,4,,,,,,,,,3188.198034700001,,,,,,,,,,,,3188.1828674000008,3188.198034700001,3188.198034700001,3190.5135348999993,up,2.3070260000004055,None,3190.5138726000005,3190.5290674000007,3190.5290674000007,3190.5290674000007,3190.8286852,3193.5260134,None,,,,,,,,,,,,,,,,,,,,P105,001,2024-11-15_10h07.20.578,posner_endo_new1,2024.2.4,60.20665331710967,2024-11-15 10h07.29.011246 +0000,
-0.31,0.005,8,8,0,down,0.7950104999999894,None,space,0.4290361000003031,None,0,8,8,0,,,,,,,,,3193.5425166999994,,,,,,,,,,,,3193.526232,3193.5425166999994,3193.5425166999994,3194.3428251999994,down,0.7950104999999894,None,3194.3431617000006,3194.3583529000007,3194.3583529000007,3194.3583529000007,3194.6581585000004,3194.7926000999996,space,0.4290361000003031,None,,,,,,,,,,,,,,,,,,P105,001,2024-11-15_10h07.20.578,posner_endo_new1,2024.2.4,60.20665331710967,2024-11-15 10h07.29.011246 +0000,
0.005,-0.31,9,9,0,up,4.713623300000108,None,space,0.39953630000127305,None,0,9,9,7,,,,,,,,,3194.8079017,,,,,,,,,,,,3194.792824099999,3194.8079017,3194.8079017,3199.537470199999,up,4.713623300000108,None,3199.5378055,3199.5531114000005,3199.5531114000005,3199.5531114000005,3199.8528038999993,3199.9540268,space,0.39953630000127305,None,,,,,,,,,,,,,,,,,,P105,001,2024-11-15_10h07.20.578,posner_endo_new1,2024.2.4,60.20665331710967,2024-11-15 10h07.29.011246 +0000,
,,,,,,,,,,,,,,,,,,,,,,,,,,,,,,,,3199.954177399999,3199.969207099999,3202.9662756,,,,,,,,,,,,,,,,,,,,,,,,,,,,,,,,,,P105,001,2024-11-15_10h07.20.578,posner_endo_new1,2024.2.4,60.20665331710967,2024-11-15 10h07.29.011246 +0000,
-0.31,0.005,0,0,0,down,2.4655072999994445,None,space,0.4482148999995843,None,,,,,0,0,0,0,,,,,3202.983723199999,,,,,,,,,,,,3202.972061299999,3202.983723199999,3202.983723199999,3205.4662688999997,,,,3205.4670229000003,3205.4807242000006,3205.4807242000006,3205.4807242000006,3205.7802926000004,3205.9327952999993,,,,down,2.4655072999994445,None,space,0.4482148999995843,None,,,,,,,,,,,,P105,001,2024-11-15_10h07.20.578,posner_endo_new1,2024.2.4,60.20665331710967,2024-11-15 10h07.29.011246 +0000,
0.005,0.31,1,1,0,down,5.2623465999986365,None,space,0.4405455999985861,None,,,,,0,1,1,8,,,,,3205.9468242000003,,,,,,,,,,,,3205.9333389999993,3205.9468242000003,3205.9468242000003,3211.2257069999996,,,,3211.226201199999,3211.240835999999,3211.240835999999,3211.240835999999,3211.5409512999995,3211.6915179000007,,,,down,5.2623465999986365,None,space,0.4405455999985861,None,,,,,,,,,,,,P105,001,2024-11-15_10h07.20.578,posner_endo_new1,2024.2.4,60.20665331710967,2024-11-15 10h07.29.011246 +0000,
0.005,0.31,2,2,0,up,2.1982719999996334,None,space,0.4191296000008151,None,,,,,0,2,2,6,,,,,3211.7073187999995,,,,,,,,,,,,3211.6917335,3211.7073187999995,3211.7073187999995,3213.922711200001,,,,3213.9230324,3213.938765499999,3213.938765499999,3213.938765499999,3214.2380713000002,3214.3723105999998,,,,up,2.1982719999996334,None,space,0.4191296000008151,None,,,,,,,,,,,,P105,001,2024-11-15_10h07.20.578,posner_endo_new1,2024.2.4,60.20665331710967,2024-11-15 10h07.29.011246 +0000,
0.31,0.005,3,3,0,down,3.5822735999990982,None,space,0.42110610000054294,None,,,,,0,3,3,3,,,,,3214.3877795999997,,,,,,,,,,,,3214.3725354,3214.3877795999997,3214.3877795999997,3217.9850602999995,,,,3217.985378900001,3218.0008454,3218.0008454,3218.0008454,3218.3005415999996,3218.4353119999996,,,,down,3.5822735999990982,None,space,0.42110610000054294,None,,,,,,,,,,,,P105,001,2024-11-15_10h07.20.578,posner_endo_new1,2024.2.4,60.20665331710967,2024-11-15 10h07.29.011246 +0000,
10,0.005,4,4,0,down,3.5746634999995877,None,None,,,,,,,0,4,4,4,,,,,3218.450461299999,,,,,,,,,,,,3218.4355290000003,3218.450461299999,3218.450461299999,3222.031094599999,,,,3222.031415199999,3222.0468024,3222.0468024,3222.0468024,3222.3464416000006,3225.0437846000004,,,,down,3.5746634999995877,None,None,,,,,,,,,,,,,,P105,001,2024-11-15_10h07.20.578,posner_endo_new1,2024.2.4,60.20665331710967,2024-11-15 10h07.29.011246 +0000,
0.005,10,5,5,0,up,2.0210943999991287,None,None,,,,,,,0,5,5,9,,,,,3225.0603071000005,,,,,,,,,,,,3225.0439960999993,3225.0603071000005,3225.0603071000005,3227.092434800001,,,,3227.0927598,3227.1081433,3227.1081433,3227.1081433,3227.40797,3230.1053152999993,,,,up,2.0210943999991287,None,None,,,,,,,,,,,,,,P105,001,2024-11-15_10h07.20.578,posner_endo_new1,2024.2.4,60.20665331710967,2024-11-15 10h07.29.011246 +0000,
0.31,0.005,6,6,0,up,2.7515860999992583,None,space,0.305994100001044,None,,,,,0,6,6,1,,,,,3230.121701599999,,,,,,,,,,,,3230.105525499999,3230.121701599999,3230.121701599999,3232.8866467999997,,,,3232.8869706999994,3232.9022255,3232.9022255,3232.9022255,3233.2019652,3233.2196201999996,,,,up,2.7515860999992583,None,space,0.305994100001044,None,,,,,,,,,,,,P105,001,2024-11-15_10h07.20.578,posner_endo_new1,2024.2.4,60.20665331710967,2024-11-15 10h07.29.011246 +0000,
0.005,-0.31,7,7,0,down,3.6953895000006014,None,space,0.3415561000001617,None,,,,,0,7,7,5,,,,,3233.2351447,,,,,,,,,,,,3233.2198408000004,3233.2351447,3233.2351447,3236.9327261,,,,3236.9330449999998,3236.9481335,3236.9481335,3236.9481335,3237.2479349999994,3237.298869799999,,,,down,3.6953895000006014,None,space,0.3415561000001617,None,,,,,,,,,,,,P105,001,2024-11-15_10h07.20.578,posner_endo_new1,2024.2.4,60.20665331710967,2024-11-15 10h07.29.011246 +0000,
-0.31,0.005,8,8,0,up,2.4871377000017674,None,space,0.3649051000011241,None,,,,,0,8,8,2,,,,,3237.3143856999995,,,,,,,,,,,,3237.299087900001,3237.3143856999995,3237.3143856999995,3239.8128999,,,,3239.813218199999,3239.8283716000005,3239.8283716000005,3239.8283716000005,3240.1282369,3240.1959527,,,,up,2.4871377000017674,None,space,0.3649051000011241,None,,,,,,,,,,,,P105,001,2024-11-15_10h07.20.578,posner_endo_new1,2024.2.4,60.20665331710967,2024-11-15 10h07.29.011246 +0000,
0.005,-0.31,9,9,0,down,3.3905942000001232,None,space,0.37752980000004754,None,,,,,0,9,9,7,,,,,3240.2114143,,,,,,,,,,,,3240.1961678999996,3240.2114143,3240.2114143,3243.6090838,,,,3243.6094083999997,3243.6246622,3243.6246622,3243.6246622,3243.9244020000006,3244.0087499,,,,down,3.3905942000001232,None,space,0.37752980000004754,None,,,,,,,,,,,,P105,001,2024-11-15_10h07.20.578,posner_endo_new1,2024.2.4,60.20665331710967,2024-11-15 10h07.29.011246 +0000,
0.31,0.005,10,0,1,down,4.312693800000488,None,space,0.3406659000011132,None,,,,,1,0,10,1,,,,,3244.0243881999995,,,,,,,,,,,,3244.0089778,3244.0243881999995,3244.0243881999995,3248.3541274,,,,3248.3544555999997,3248.3697981000005,3248.3697981000005,3248.3697981000005,3248.6695504,3248.7204717000004,,,,down,4.312693800000488,None,space,0.3406659000011132,None,,,,,,,,,,,,P105,001,2024-11-15_10h07.20.578,posner_endo_new1,2024.2.4,60.20665331710967,2024-11-15 10h07.29.011246 +0000,
0.005,10,11,1,1,up,3.361930900000516,None,None,,,,,,,1,1,11,9,,,,,3248.736100099999,,,,,,,,,,,,3248.7206908000007,3248.736100099999,3248.736100099999,3252.1004064999997,,,,3252.1007274000003,3252.115845099999,3252.115845099999,3252.115845099999,3252.4157742999996,3255.1131126,,,,up,3.361930900000516,None,None,,,,,,,,,,,,,,P105,001,2024-11-15_10h07.20.578,posner_endo_new1,2024.2.4,60.20665331710967,2024-11-15 10h07.29.011246 +0000,
-0.31,0.005,12,2,1,down,0.503759600000194,None,space,0.4152861999991728,None,,,,,1,2,12,0,,,,,3255.1296003000007,,,,,,,,,,,,3255.113325799999,3255.1296003000007,3255.1296003000007,3255.646770199999,,,,3255.647085999999,3255.6624403000005,3255.6624403000005,3255.6624403000005,3255.9620828000006,3256.0796821999993,,,,down,0.503759600000194,None,space,0.4152861999991728,None,,,,,,,,,,,,P105,001,2024-11-15_10h07.20.578,posner_endo_new1,2024.2.4,60.20665331710967,2024-11-15 10h07.29.011246 +0000,
0.005,-0.31,13,3,1,down,4.011185200000909,None,space,0.29013510000004317,None,,,,,1,3,13,5,,,,,3256.0952902999998,,,,,,,,,,,,3256.0798997,3256.0952902999998,3256.0952902999998,3260.1090055000004,,,,3260.1093220000002,3260.1243747999997,3260.1243747999997,3260.1243747999997,3260.4241576999993,3260.4252209999995,,,,down,4.011185200000909,None,space,0.29013510000004317,None,,,,,,,,,,,,P105,001,2024-11-15_10h07.20.578,posner_endo_new1,2024.2.4,60.20665331710967,2024-11-15 10h07.29.011246 +0000,
-0.31,0.005,14,4,1,up,3.2810606000002736,None,space,0.3570636000004015,None,,,,,1,4,14,2,,,,,3260.4409768000005,,,,,,,,,,,,3260.4254402000006,3260.4409768000005,3260.4409768000005,3263.7385004999996,,,,3263.7388262999993,3263.7540633999997,3263.7540633999997,3263.7540633999997,3264.053775799999,3264.1214512999995,,,,up,3.2810606000002736,None,space,0.3570636000004015,None,,,,,,,,,,,,P105,001,2024-11-15_10h07.20.578,posner_endo_new1,2024.2.4,60.20665331710967,2024-11-15 10h07.29.011246 +0000,
0.31,0.005,15,5,1,down,3.784541700000773,None,space,0.3338744000011502,None,,,,,1,5,15,3,,,,,3264.1369985,,,,,,,,,,,,3264.1216702,3264.1369985,3264.1369985,3267.9342818000005,,,,3267.9346055999995,3267.9498239999994,3267.9498239999994,3267.9498239999994,3268.2494343,3268.300495199999,,,,down,3.784541700000773,None,space,0.3338744000011502,None,,,,,,,,,,,,P105,001,2024-11-15_10h07.20.578,posner_endo_new1,2024.2.4,60.20665331710967,2024-11-15 10h07.29.011246 +0000,
0.005,-0.31,16,6,1,down,4.421870000000126,None,space,0.3276821999988897,None,,,,,1,6,16,7,,,,,3268.316151700001,,,,,,,,,,,,3268.3007185999995,3268.316151700001,3268.316151700001,3272.7458485999996,,,,3272.7461679000007,3272.7615556,3272.7615556,3272.7615556,3273.0612309999997,3273.0955661000007,,,,down,4.421870000000126,None,space,0.3276821999988897,None,,,,,,,,,,,,P105,001,2024-11-15_10h07.20.578,posner_endo_new1,2024.2.4,60.20665331710967,2024-11-15 10h07.29.011246 +0000,
0.005,0.31,17,7,1,up,3.130696700000044,None,space,0.4436107000001357,None,,,,,1,7,17,6,,,,,3273.1111844000006,,,,,,,,,,,,3273.0957820000003,3273.1111844000006,3273.1111844000006,3276.2589018,,,,3276.2592244999996,3276.2743984999997,3276.2743984999997,3276.2743984999997,3276.5742448,3276.725240399999,,,,up,3.130696700000044,None,space,0.4436107000001357,None,,,,,,,,,,,,P105,001,2024-11-15_10h07.20.578,posner_endo_new1,2024.2.4,60.20665331710967,2024-11-15 10h07.29.011246 +0000,
10,0.005,18,8,1,down,3.2926416999998764,None,None,,,,,,,1,8,18,4,,,,,3276.7408242,,,,,,,,,,,,3276.725459199999,3276.7408242,3276.7408242,3280.038588199999,,,,3280.0389077,3280.0540555999996,3280.0540555999996,3280.0540555999996,3280.3538635000004,3283.0511305,,,,down,3.2926416999998764,None,None,,,,,,,,,,,,,,P105,001,2024-11-15_10h07.20.578,posner_endo_new1,2024.2.4,60.20665331710967,2024-11-15 10h07.29.011246 +0000,
0.005,0.31,19,9,1,down,3.6376965999988897,None,space,0.3800183000003017,None,,,,,1,9,19,8,,,,,3283.067581199999,,,,,,,,,,,,3283.051347999999,3283.067581199999,3283.067581199999,3286.7149587000004,,,,3286.715280799999,3286.730255299999,3286.730255299999,3286.730255299999,3287.0302666999996,3287.1146518000005,,,,down,3.6376965999988897,None,space,0.3800183000003017,None,,,,,,,,,,,,P105,001,2024-11-15_10h07.20.578,posner_endo_new1,2024.2.4,60.20665331710967,2024-11-15 10h07.29.011246 +0000,
0.005,0.31,20,0,2,up,2.8954071999996813,None,space,0.42670859999998356,None,,,,,2,0,20,8,,,,,3287.1301095,,,,,,,,,,,,3287.1148761999993,3287.1301095,3287.1301095,3290.0282458,,,,3290.0285676999993,3290.043855,3290.043855,3290.043855,3290.3433903000005,3290.4778986,,,,up,2.8954071999996813,None,space,0.42670859999998356,None,,,,,,,,,,,,P105,001,2024-11-15_10h07.20.578,posner_endo_new1,2024.2.4,60.20665331710967,2024-11-15 10h07.29.011246 +0000,
10,0.005,21,1,2,down,2.9798305000003893,None,None,,,,,,,2,1,21,4,,,,,3290.4933616,,,,,,,,,,,,3290.478121099999,3290.4933616,3290.4933616,3293.4748387,,,,3293.4751610999992,3293.4904427,3293.4904427,3293.4904427,3293.790024,3296.4873976,,,,down,2.9798305000003893,None,None,,,,,,,,,,,,,,P105,001,2024-11-15_10h07.20.578,posner_endo_new1,2024.2.4,60.20665331710967,2024-11-15 10h07.29.011246 +0000,
0.005,-0.31,22,2,2,down,2.785783499999525,None,space,0.3882056000002194,None,,,,,2,2,22,7,,,,,3296.5038898000003,,,,,,,,,,,,3296.4876091999995,3296.5038898000003,3296.5038898000003,3299.3021601,,,,3299.3024986,3299.3177257000007,3299.3177257000007,3299.3177257000007,3299.6174685000005,3299.7182859999994,,,,down,2.785783499999525,None,space,0.3882056000002194,None,,,,,,,,,,,,P105,001,2024-11-15_10h07.20.578,posner_endo_new1,2024.2.4,60.20665331710967,2024-11-15 10h07.29.011246 +0000,
0.005,-0.31,23,3,2,up,2.8680781000002753,None,space,0.3700387999997474,None,,,,,2,3,23,5,,,,,3299.733822099999,,,,,,,,,,,,3299.718508599999,3299.733822099999,3299.733822099999,3302.615373999999,,,,3302.6156912999995,3302.631031499999,3302.631031499999,3302.631031499999,3302.930748999999,3303.014863300001,,,,up,2.8680781000002753,None,space,0.3700387999997474,None,,,,,,,,,,,,P105,001,2024-11-15_10h07.20.578,posner_endo_new1,2024.2.4,60.20665331710967,2024-11-15 10h07.29.011246 +0000,
0.31,0.005,24,4,2,down,2.611306400000103,None,space,0.38974059999964084,None,,,,,2,4,24,3,,,,,3303.0306781,,,,,,,,,,,,3303.0150871000005,3303.0306781,3303.0306781,3305.6456168999994,,,,3305.6459455000004,3305.6612188,3305.6612188,3305.6612188,3305.9609196,3306.0617712999992,,,,down,2.611306400000103,None,space,0.38974059999964084,None,,,,,,,,,,,,P105,001,2024-11-15_10h07.20.578,posner_endo_new1,2024.2.4,60.20665331710967,2024-11-15 10h07.29.011246 +0000,
-0.31,0.005,25,5,2,up,2.2201327999991918,None,space,0.35562299999946845,None,,,,,2,5,25,0,,,,,3306.0775293000006,,,,,,,,,,,,3306.0619941999994,3306.0775293000006,3306.0775293000006,3308.3094622999997,,,,3308.3097825000004,3308.3251621,3308.3251621,3308.3251621,3308.6248718000006,3308.6924923000006,,,,up,2.2201327999991918,None,space,0.35562299999946845,None,,,,,,,,,,,,P105,001,2024-11-15_10h07.20.578,posner_endo_new1,2024.2.4,60.20665331710967,2024-11-15 10h07.29.011246 +0000,
-0.31,0.005,26,6,2,down,3.317145900000469,None,space,0.310793200000262,None,,,,,2,6,26,2,,,,,3308.7080872999995,,,,,,,,,,,,3308.6927099999994,3308.7080872999995,3308.7080872999995,3312.0391192999996,,,,3312.0394428,3312.0546359,3312.0546359,3312.0546359,3312.3542187000003,3312.3721707999994,,,,down,3.317145900000469,None,space,0.310793200000262,None,,,,,,,,,,,,P105,001,2024-11-15_10h07.20.578,posner_endo_new1,2024.2.4,60.20665331710967,2024-11-15 10h07.29.011246 +0000,
0.005,10,27,7,2,up,1.9575917000001937,None,None,,,,,,,2,7,27,9,,,,,3312.3875867999996,,,,,,,,,,,,3312.3724,3312.3875867999996,3312.3875867999996,3314.3531726,,,,3314.3534918999994,3314.3689944,3314.3689944,3314.3689944,3314.6686267000005,3317.3660347000005,,,,up,1.9575917000001937,None,None,,,,,,,,,,,,,,P105,001,2024-11-15_10h07.20.578,posner_endo_new1,2024.2.4,60.20665331710967,2024-11-15 10h07.29.011246 +0000,
0.005,0.31,28,8,2,down,0.9388025999996898,None,space,0.33193480000045383,None,,,,,2,8,28,6,,,,,3317.3825285000003,,,,,,,,,,,,3317.3662583000005,3317.3825285000003,3317.3825285000003,3318.3326627000006,,,,3318.3329811000003,3318.3483462000004,3318.3483462000004,3318.3483462000004,3318.647983499999,3318.6824020999993,,,,down,0.9388025999996898,None,space,0.33193480000045383,None,,,,,,,,,,,,P105,001,2024-11-15_10h07.20.578,posner_endo_new1,2024.2.4,60.20665331710967,2024-11-15 10h07.29.011246 +0000,
0.31,0.005,29,9,2,up,2.935454000000391,None,space,0.36492120000002615,None,,,,,2,9,29,1,,,,,3318.6978911000006,,,,,,,,,,,,3318.6826201999993,3318.6978911000006,3318.6978911000006,3321.6459403999997,,,,3321.6462563999994,3321.6613882,3321.6613882,3321.6613882,3321.9610675999993,3322.0288535,,,,up,2.935454000000391,None,space,0.36492120000002615,None,,,,,,,,,,,,P105,001,2024-11-15_10h07.20.578,posner_endo_new1,2024.2.4,60.20665331710967,2024-11-15 10h07.29.011246 +0000,
10,0.005,30,0,3,down,3.1170130999998946,None,None,,,,,,,3,0,30,4,,,,,3322.0445084000003,,,,,,,,,,,,3322.0290712000005,3322.0445084000003,3322.0445084000003,3325.175798099999,,,,3325.1761267,3325.1912938999994,3325.1912938999994,3325.1912938999994,3325.4909546,3328.1883094999994,,,,down,3.1170130999998946,None,None,,,,,,,,,,,,,,P105,001,2024-11-15_10h07.20.578,posner_endo_new1,2024.2.4,60.20665331710967,2024-11-15 10h07.29.011246 +0000,
0.31,0.005,31,1,3,down,4.02081680000083,None,space,0.3717722999990656,None,,,,,3,1,31,3,,,,,3328.2046873,,,,,,,,,,,,3328.1885232000004,3328.2046873,3328.2046873,3332.2351335999992,,,,3332.2354619,3332.2508070999993,3332.2508070999993,3332.2508070999993,3332.5505126000007,3332.6346374999994,,,,down,4.02081680000083,None,space,0.3717722999990656,None,,,,,,,,,,,,P105,001,2024-11-15_10h07.20.578,posner_endo_new1,2024.2.4,60.20665331710967,2024-11-15 10h07.29.011246 +0000,
0.005,-0.31,32,2,3,up,6.775179400001434,None,space,0.4022760999996535,None,,,,,3,2,32,5,,,,,3332.6502567000007,,,,,,,,,,,,3332.6348562000003,3332.6502567000007,3332.6502567000007,3339.4277739999998,,,,3339.4281128000002,3339.4431826,3339.4431826,3339.4431826,3339.7431395999993,3339.8606189,,,,up,6.775179400001434,None,space,0.4022760999996535,None,,,,,,,,,,,,P105,001,2024-11-15_10h07.20.578,posner_endo_new1,2024.2.4,60.20665331710967,2024-11-15 10h07.29.011246 +0000,
-0.31,0.005,33,3,3,down,3.7738214999990305,None,space,0.49585470000056375,None,,,,,3,3,33,2,,,,,3339.8762274,,,,,,,,,,,,3339.8608399000004,3339.8762274,3339.8762274,3343.6570479,,,,3343.6573673000003,3343.6723999999995,3343.6723999999995,3343.6723999999995,3343.971969,3344.1729219999997,,,,down,3.7738214999990305,None,space,0.49585470000056375,None,,,,,,,,,,,,P105,001,2024-11-15_10h07.20.578,posner_endo_new1,2024.2.4,60.20665331710967,2024-11-15 10h07.29.011246 +0000,
0.005,10,34,4,3,down,3.6370406999994884,None,None,,,,,,,3,4,34,9,,,,,3344.1884632,,,,,,,,,,,,3344.1731469999995,3344.1884632,3344.1884632,3347.8358104,,,,3347.8361385999997,3347.8514058,3347.8514058,3347.8514058,3348.1511193999995,3350.8482593999997,,,,down,3.6370406999994884,None,None,,,,,,,,,,,,,,P105,001,2024-11-15_10h07.20.578,posner_endo_new1,2024.2.4,60.20665331710967,2024-11-15 10h07.29.011246 +0000,
0.005,0.31,35,5,3,up,0.19235959999969054,None,space,0.39191399999981513,None,,,,,3,5,35,6,,,,,3350.864960499999,,,,,,,,,,,,3350.848483399999,3350.864960499999,3350.864960499999,3351.065990699999,,,,3351.066313199999,3351.0814622,3351.0814622,3351.0814622,3351.3811415,3351.482139399999,,,,up,0.19235959999969054,None,space,0.39191399999981513,None,,,,,,,,,,,,P105,001,2024-11-15_10h07.20.578,posner_endo_new1,2024.2.4,60.20665331710967,2024-11-15 10h07.29.011246 +0000,
0.005,0.31,36,6,3,down,3.1514566999994713,None,space,0.3867984000007709,None,,,,,3,6,36,8,,,,,3351.4977299,,,,,,,,,,,,3351.4823569,3351.4977299,3351.4977299,3354.662067699999,,,,3354.6623906000004,3354.6778016000007,3354.6778016000007,3354.6778016000007,3354.977430499999,3355.0784619999995,,,,down,3.1514566999994713,None,space,0.3867984000007709,None,,,,,,,,,,,,P105,001,2024-11-15_10h07.20.578,posner_endo_new1,2024.2.4,60.20665331710967,2024-11-15 10h07.29.011246 +0000,
0.005,-0.31,37,7,3,up,6.084063799999058,None,space,0.38483150000138266,None,,,,,3,7,37,7,,,,,3355.0939734000003,,,,,,,,,,,,3355.078685799999,3355.0939734000003,3355.0939734000003,3361.1887374,,,,3361.1890721,3361.204419399999,3361.204419399999,3361.204419399999,3361.504140700001,3361.6051002999993,,,,up,6.084063799999058,None,space,0.38483150000138266,None,,,,,,,,,,,,P105,001,2024-11-15_10h07.20.578,posner_endo_new1,2024.2.4,60.20665331710967,2024-11-15 10h07.29.011246 +0000,
-0.31,0.005,38,8,3,down,3.2694938000004186,None,space,0.46318650000102934,None,,,,,3,8,38,0,,,,,3361.6205568000005,,,,,,,,,,,,3361.6053250999994,3361.6205568000005,3361.6205568000005,3364.901294199999,,,,3364.901551499999,3364.9172516,3364.9172516,3364.9172516,3365.216876799999,3365.384421999999,,,,down,3.2694938000004186,None,space,0.46318650000102934,None,,,,,,,,,,,,P105,001,2024-11-15_10h07.20.578,posner_endo_new1,2024.2.4,60.20665331710967,2024-11-15 10h07.29.011246 +0000,
0.31,0.005,39,9,3,up,7.80109739999898,None,space,0.42214899999999034,None,,,,,3,9,39,1,,,,,3365.3999877999995,,,,,,,,,,,,3365.3845920000003,3365.3999877999995,3365.3999877999995,3373.2096617999996,,,,3373.2099173000006,3373.2255860000005,3373.2255860000005,3373.2255860000005,3373.5251618,3373.6590245000007,,,,up,7.80109739999898,None,space,0.42214899999999034,None,,,,,,,,,,,,P105,001,2024-11-15_10h07.20.578,posner_endo_new1,2024.2.4,60.20665331710967,2024-11-15 10h07.29.011246 +0000,
-0.31,0.005,40,0,4,up,5.462302500000078,None,space,0.41547170000012557,None,,,,,4,0,40,0,,,,,3373.6750453999994,,,,,,,,,,,,3373.6591895,3373.6750453999994,3373.6750453999994,3379.153410499999,,,,3379.1536612,3379.1693316,3379.1693316,3379.1693316,3379.469137599999,3379.5866011,,,,up,5.462302500000078,None,space,0.41547170000012557,None,,,,,,,,,,,,P105,001,2024-11-15_10h07.20.578,posner_endo_new1,2024.2.4,60.20665331710967,2024-11-15 10h07.29.011246 +0000,
0.31,0.005,41,1,4,down,4.279878100000133,None,space,0.45153749999917636,None,,,,,4,1,41,3,,,,,3379.6022145000006,,,,,,,,,,,,3379.5867641999994,3379.6022145000006,3379.6022145000006,3383.8987768999996,,,,3383.8990247,3383.9146499,3383.9146499,3383.9146499,3384.2142065999997,3384.3814705000004,,,,down,4.279878100000133,None,space,0.45153749999917636,None,,,,,,,,,,,,P105,001,2024-11-15_10h07.20.578,posner_endo_new1,2024.2.4,60.20665331710967,2024-11-15 10h07.29.011246 +0000,
0.005,0.31,42,2,4,up,2.235861600000135,None,space,0.36171590000049036,None,,,,,4,2,42,8,,,,,3384.3973750000005,,,,,,,,,,,,3384.3816317,3384.3973750000005,3384.3973750000005,3386.6458153999993,,,,3386.6460635000003,3386.6615798000003,3386.6615798000003,3386.6615798000003,3386.9614010999994,3387.0287222000006,,,,up,2.235861600000135,None,space,0.36171590000049036,None,,,,,,,,,,,,P105,001,2024-11-15_10h07.20.578,posner_endo_new1,2024.2.4,60.20665331710967,2024-11-15 10h07.29.011246 +0000,
10,0.005,43,3,4,up,12.781511099999989,None,None,,,,,,,4,3,43,4,,,,,3387.044524499999,,,,,,,,,,,,3387.0288825999996,3387.044524499999,3387.044524499999,3399.8327437000007,,,,3399.8331141,3399.848307,3399.848307,3399.848307,3400.1479684000005,3402.845425199999,,,,up,12.781511099999989,None,None,,,,,,,,,,,,,,P105,001,2024-11-15_10h07.20.578,posner_endo_new1,2024.2.4,60.20665331710967,2024-11-15 10h07.29.011246 +0000,
0.005,-0.31,44,4,4,up,2.844151699999202,None,space,0.45539979999921343,None,,,,,4,4,44,7,,,,,3402.8618779000008,,,,,,,,,,,,3402.8456582,3402.8618779000008,3402.8618779000008,3405.7101067000003,,,,3405.7104483000003,3405.725515599999,3405.725515599999,3405.725515599999,3406.025300699999,3406.1928365999993,,,,up,2.844151699999202,None,space,0.45539979999921343,None,,,,,,,,,,,,P105,001,2024-11-15_10h07.20.578,posner_endo_new1,2024.2.4,60.20665331710967,2024-11-15 10h07.29.011246 +0000,
-0.31,0.005,45,5,4,down,3.208980999999767,None,space,0.40252590000091004,None,,,,,4,5,45,2,,,,,3406.2085153000007,,,,,,,,,,,,3406.1930933000003,3406.2085153000007,3406.2085153000007,3409.4228029000005,,,,3409.4231395999996,3409.4388457999994,3409.4388457999994,3409.4388457999994,3409.7381399000005,3409.8557573,,,,down,3.208980999999767,None,space,0.40252590000091004,None,,,,,,,,,,,,P105,001,2024-11-15_10h07.20.578,posner_endo_new1,2024.2.4,60.20665331710967,2024-11-15 10h07.29.011246 +0000,
0.005,0.31,46,6,4,up,2.3946696999992128,None,space,0.47326409999914176,None,,,,,4,6,46,6,,,,,3409.8712484999996,,,,,,,,,,,,3409.8559913999998,3409.8712484999996,3409.8712484999996,3412.2700035,,,,3412.2703456,3412.285474799999,3412.285474799999,3412.285474799999,3412.5851757,3412.7694589000002,,,,up,2.3946696999992128,None,space,0.47326409999914176,None,,,,,,,,,,,,P105,001,2024-11-15_10h07.20.578,posner_endo_new1,2024.2.4,60.20665331710967,2024-11-15 10h07.29.011246 +0000,
0.31,0.005,47,7,4,down,4.81706210000084,None,space,0.6018539999986388,None,,,,,4,7,47,1,,,,,3412.7849975999998,,,,,,,,,,,,3412.7696971999994,3412.7849975999998,3412.7849975999998,3417.6145135000006,,,,3417.6148601000004,3417.629963199999,3417.629963199999,3417.629963199999,3417.929779,3418.2472500000003,,,,down,4.81706210000084,None,space,0.6018539999986388,None,,,,,,,,,,,,P105,001,2024-11-15_10h07.20.578,posner_endo_new1,2024.2.4,60.20665331710967,2024-11-15 10h07.29.011246 +0000,
0.005,-0.31,48,8,4,up,7.547040199999174,None,space,0.33634210000127496,None,,,,,4,8,48,5,,,,,3418.2627300999993,,,,,,,,,,,,3418.2474858999994,3418.2627300999993,3418.2627300999993,3425.8226675999995,,,,3425.8230196999993,3425.838399799999,3425.838399799999,3425.838399799999,3426.138005999999,3426.1890925999996,,,,up,7.547040199999174,None,space,0.33634210000127496,None,,,,,,,,,,,,P105,001,2024-11-15_10h07.20.578,posner_endo_new1,2024.2.4,60.20665331710967,2024-11-15 10h07.29.011246 +0000,
0.005,10,49,9,4,down,4.220452999999907,None,None,,,,,,,4,9,49,9,,,,,3426.2047182999995,,,,,,,,,,,,3426.1893215,3426.2047182999995,3426.2047182999995,3430.4346745000003,,,,3430.4350140999995,3430.450265899999,3430.450265899999,3430.450265899999,3430.749989,3433.4472263000007,,,,down,4.220452999999907,None,None,,,,,,,,,,,,,,P105,001,2024-11-15_10h07.20.578,posner_endo_new1,2024.2.4,60.20665331710967,2024-11-15 10h07.29.011246 +0000,
0.005,10,50,0,5,up,4.233278899999277,None,None,,,,,,,5,0,50,9,,,,,3433.4638558000006,,,,,,,,,,,,3433.4474599000005,3433.4638558000006,3433.4638558000006,3437.7105819999997,,,,3437.7109278999997,3437.7260693000007,3437.7260693000007,3437.7260693000007,3438.0258168,3440.7232614000004,,,,up,4.233278899999277,None,None,,,,,,,,,,,,,,P105,001,2024-11-15_10h07.20.578,posner_endo_new1,2024.2.4,60.20665331710967,2024-11-15 10h07.29.011246 +0000,
0.31,0.005,51,1,5,up,1.9335702000007586,None,space,0.560677499999656,None,,,,,5,1,51,1,,,,,3440.739735699999,,,,,,,,,,,,3440.7234879000007,3440.739735699999,3440.739735699999,3442.6889143000008,,,,3442.6892623999993,3442.704458,3442.704458,3442.704458,3443.0041815999994,3443.2717293999995,,,,up,1.9335702000007586,None,space,0.560677499999656,None,,,,,,,,,,,,P105,001,2024-11-15_10h07.20.578,posner_endo_new1,2024.2.4,60.20665331710967,2024-11-15 10h07.29.011246 +0000,
-0.31,0.005,52,2,5,up,10.73029409999981,None,space,0.3557734999994864,None,,,,,5,2,52,0,,,,,3443.2870628,,,,,,,,,,,,3443.2719627999995,3443.2870628,3443.2870628,3454.0272788,,,,3454.0276266,3454.0428797000004,3454.0428797000004,3454.0428797000004,3454.3425478999998,3454.4102889000005,,,,up,10.73029409999981,None,space,0.3557734999994864,None,,,,,,,,,,,,P105,001,2024-11-15_10h07.20.578,posner_endo_new1,2024.2.4,60.20665331710967,2024-11-15 10h07.29.011246 +0000,
-0.31,0.005,53,3,5,down,3.7999125000005733,None,space,0.3844336000001931,None,,,,,5,3,53,2,,,,,3454.4257976999997,,,,,,,,,,,,3454.4105235000006,3454.4257976999997,3454.4257976999997,3458.2395570999997,,,,3458.2398966,3458.2552367999997,3458.2552367999997,3458.2552367999997,3458.5549014999997,3458.6557424000002,,,,down,3.7999125000005733,None,space,0.3844336000001931,None,,,,,,,,,,,,P105,001,2024-11-15_10h07.20.578,posner_endo_new1,2024.2.4,60.20665331710967,2024-11-15 10h07.29.011246 +0000,
0.005,-0.31,54,4,5,down,5.77852189999976,None,space,0.327548499999466,None,,,,,5,4,54,5,,,,,3458.6714216,,,,,,,,,,,,3458.6559753,3458.6714216,3458.6714216,3464.4664608000003,,,,3464.4668022999995,3464.4821871999993,3464.4821871999993,3464.4821871999993,3464.7817682999994,3464.816247499999,,,,down,5.77852189999976,None,space,0.327548499999466,None,,,,,,,,,,,,P105,001,2024-11-15_10h07.20.578,posner_endo_new1,2024.2.4,60.20665331710967,2024-11-15 10h07.29.011246 +0000,
0.31,0.005,55,5,5,up,2.1222824000014953,None,space,0.34359949999998207,None,,,,,5,5,55,3,,,,,3464.8317905000004,,,,,,,,,,,,3464.8164791,3464.8317905000004,3464.8317905000004,3466.9640734000004,,,,3466.9644176,3466.9795097000006,3466.9795097000006,3466.9795097000006,3467.2792384000004,3467.330184799999,,,,up,2.1222824000014953,None,space,0.34359949999998207,None,,,,,,,,,,,,P105,001,2024-11-15_10h07.20.578,posner_endo_new1,2024.2.4,60.20665331710967,2024-11-15 10h07.29.011246 +0000,
0.005,0.31,56,6,5,down,3.9442497000000003,None,space,0.3737351999989187,None,,,,,5,6,56,6,,,,,3467.345835599999,,,,,,,,,,,,3467.3304147,3467.345835599999,3467.345835599999,3471.293069199999,,,,3471.2934084000008,3471.3083915999996,3471.3083915999996,3471.3083915999996,3471.6080674000004,3471.6925169999995,,,,down,3.9442497000000003,None,space,0.3737351999989187,None,,,,,,,,,,,,P105,001,2024-11-15_10h07.20.578,posner_endo_new1,2024.2.4,60.20665331710967,2024-11-15 10h07.29.011246 +0000,
0.005,-0.31,57,7,5,up,7.045670800000153,None,space,0.5561312000008911,None,,,,,5,7,57,7,,,,,3471.7080263999997,,,,,,,,,,,,3471.6927469,3471.7080263999997,3471.7080263999997,3478.7685679999995,,,,3478.7689121999992,3478.784196299999,3478.784196299999,3478.784196299999,3479.0838827999996,3479.3513633000002,,,,up,7.045670800000153,None,space,0.5561312000008911,None,,,,,,,,,,,,P105,001,2024-11-15_10h07.20.578,posner_endo_new1,2024.2.4,60.20665331710967,2024-11-15 10h07.29.011246 +0000,
10,0.005,58,8,5,down,3.939244699999108,None,None,,,,,,,5,8,58,4,,,,,3479.3668595,,,,,,,,,,,,3479.3515948999993,3479.3668595,3479.3668595,3483.3139364,,,,3483.3142804,3483.3295834,3483.3295834,3483.3295834,3483.6291144000006,3486.3266433999997,,,,down,3.939244699999108,None,None,,,,,,,,,,,,,,P105,001,2024-11-15_10h07.20.578,posner_endo_new1,2024.2.4,60.20665331710967,2024-11-15 10h07.29.011246 +0000,
0.005,0.31,59,9,5,up,0.06659330000002228,None,space,0.4541953000007197,None,,,,,5,9,59,8,,,,,3486.3430805000007,,,,,,,,,,,,3486.3268637,3486.3430805000007,3486.3430805000007,3486.4109718,,,,3486.4113082000003,3486.426368299999,3486.426368299999,3486.426368299999,3486.725957999999,3486.8935879,,,,up,0.06659330000002228,None,space,0.4541953000007197,None,,,,,,,,,,,,P105,001,2024-11-15_10h07.20.578,posner_endo_new1,2024.2.4,60.20665331710967,2024-11-15 10h07.29.011246 +0000,
,,,,,,,,,,,,,,,,,,,,,,,,,,,,,,,,,,,,,,,,,,,,,,,,,,,,,,,,,3486.893741600001,3486.909153299999,3486.909153299999,3546.8821028,None,,,,,,,P105,001,2024-11-15_10h07.20.578,posner_endo_new1,2024.2.4,60.20665331710967,2024-11-15 10h07.29.011246 +0000,
,,,,,,,,,,,,,,,,,,,,,,,,,,,,,,,,3546.8821714000005,3546.8978210000005,3549.8949231999995,,,,,,,,,,,,,,,,,,,,,,,,,,,,,,,,,,P105,001,2024-11-15_10h07.20.578,posner_endo_new1,2024.2.4,60.20665331710967,2024-11-15 10h07.29.011246 +0000,
0.005,10,0,0,0,up,14.087681099999827,None,None,,,,,,,,,,,0,0,0,9,3549.913821,,,,,,,,,,,,3549.9051139999992,3549.913821,3549.913821,3564.016386199999,,,,3564.0171499999997,3564.030928099999,3564.030928099999,3564.030928099999,3564.3302769,3567.0277936,,,,,,,,,,,,,,,up,14.087681099999827,None,None,,,P105,001,2024-11-15_10h07.20.578,posner_endo_new1,2024.2.4,60.20665331710967,2024-11-15 10h07.29.011246 +0000,
0.31,0.005,1,1,0,down,0.006026799999744981,None,space,0.401110200000403,None,,,,,,,,,0,1,1,1,3567.0440858,,,,,,,,,,,,3567.0282988,3567.0440858,3567.0440858,3567.0630347999995,,,,3567.0637683000004,3567.077727600001,3567.077727600001,3567.077727600001,3567.3771283000005,3567.4960090000004,,,,,,,,,,,,,,,down,0.006026799999744981,None,space,0.401110200000403,None,P105,001,2024-11-15_10h07.20.578,posner_endo_new1,2024.2.4,60.20665331710967,2024-11-15 10h07.29.011246 +0000,
0.005,-0.31,2,2,0,up,3.8353372999990825,None,space,0.5801073999991786,None,,,,,,,,,0,2,2,7,3567.5103473,,,,,,,,,,,,3567.4965556999996,3567.5103473,3567.5103473,3571.3573698,,,,3571.3578596999996,3571.3725044000003,3571.3725044000003,3571.3725044000003,3571.672487399999,3571.9567468999994,,,,,,,,,,,,,,,up,3.8353372999990825,None,space,0.5801073999991786,None,P105,001,2024-11-15_10h07.20.578,posner_endo_new1,2024.2.4,60.20665331710967,2024-11-15 10h07.29.011246 +0000,
-0.31,0.005,3,3,0,down,3.3585750999991433,None,space,0.4008724999985134,None,,,,,,,,,0,3,3,0,3571.9721867000007,,,,,,,,,,,,3571.9569849,3571.9721867000007,3571.9721867000007,3575.3366406000005,,,,3575.3369906000007,3575.3519988000007,3575.3519988000007,3575.3519988000007,3575.6517232000006,3575.7695313999993,,,,,,,,,,,,,,,down,3.3585750999991433,None,space,0.4008724999985134,None,P105,001,2024-11-15_10h07.20.578,posner_endo_new1,2024.2.4,60.20665331710967,2024-11-15 10h07.29.011246 +0000,
0.31,0.005,4,4,0,up,3.192487500000425,None,space,0.35104189999947266,None,,,,,,,,,0,4,4,3,3575.7849086999995,,,,,,,,,,,,3575.7697671999995,3575.7849086999995,3575.7849086999995,3578.9828271000006,,,,3578.9831802999997,3578.998260799999,3578.998260799999,3578.998260799999,3579.2979754000007,3579.3657432,,,,,,,,,,,,,,,up,3.192487500000425,None,space,0.35104189999947266,None,P105,001,2024-11-15_10h07.20.578,posner_endo_new1,2024.2.4,60.20665331710967,2024-11-15 10h07.29.011246 +0000,
0.005,0.31,5,5,0,down,3.125313399999868,None,space,0.37747589999889897,None,,,,,,,,,0,5,5,8,3579.3812321999994,,,,,,,,,,,,3579.3659828,3579.3812321999994,3579.3812321999994,3582.5124842000005,,,,3582.5128647,3582.5280853999993,3582.5280853999993,3582.5280853999993,3582.8277813000004,3582.9120564999994,,,,,,,,,,,,,,,down,3.125313399999868,None,space,0.37747589999889897,None,P105,001,2024-11-15_10h07.20.578,posner_endo_new1,2024.2.4,60.20665331710967,2024-11-15 10h07.29.011246 +0000,
0.005,0.31,6,6,0,up,2.7377785999997286,None,space,0.4006208999999217,None,,,,,,,,,0,6,6,6,3582.9276432999995,,,,,,,,,,,,3582.9122917999994,3582.9276432999995,3582.9276432999995,3585.6759062,,,,3585.6762473,3585.691544699999,3585.691544699999,3585.691544699999,3585.9911369,3586.1088144999994,,,,,,,,,,,,,,,up,2.7377785999997286,None,space,0.4006208999999217,None,P105,001,2024-11-15_10h07.20.578,posner_endo_new1,2024.2.4,60.20665331710967,2024-11-15 10h07.29.011246 +0000,
10,0.005,7,7,0,down,2.565284199999951,None,None,,,,,,,,,,,0,7,7,4,3586.1244093000005,,,,,,,,,,,,3586.1090483000007,3586.1244093000005,3586.1244093000005,3588.7061336999996,,,,3588.7064726999997,3588.7217091,3588.7217091,3588.7217091,3589.0213404000006,3591.7189261000003,,,,,,,,,,,,,,,down,2.565284199999951,None,None,,,P105,001,2024-11-15_10h07.20.578,posner_endo_new1,2024.2.4,60.20665331710967,2024-11-15 10h07.29.011246 +0000,
-0.31,0.005,8,8,0,up,9.37855590000072,None,space,0.5705832999992708,None,,,,,,,,,0,8,8,2,3591.7353397999996,,,,,,,,,,,,3591.7191583000003,3591.7353397999996,3591.7353397999996,3601.1267764000004,,,,3601.127120699999,3601.1423904999992,3601.1423904999992,3601.1423904999992,3601.4423045999993,3601.726230099999,,,,,,,,,,,,,,,up,9.37855590000072,None,space,0.5705832999992708,None,P105,001,2024-11-15_10h07.20.578,posner_endo_new1,2024.2.4,60.20665331710967,2024-11-15 10h07.29.011246 +0000,
0.005,-0.31,9,9,0,down,2.564232799999445,None,space,0.4322778000005201,None,,,,,,,,,0,9,9,5,3601.7416907000006,,,,,,,,,,,,3601.7264687999996,3601.7416907000006,3601.7416907000006,3604.3070160000007,,,,3604.3073575,3604.3224248000006,3604.3224248000006,3604.3224248000006,3604.6220833999996,3604.756802600001,,,,,,,,,,,,,,,down,2.564232799999445,None,space,0.4322778000005201,None,P105,001,2024-11-15_10h07.20.578,posner_endo_new1,2024.2.4,60.20665331710967,2024-11-15 10h07.29.011246 +0000,
0.005,10,10,0,1,up,3.9253308000006655,None,None,,,,,,,,,,,1,0,10,9,3604.7720097,,,,,,,,,,,,3604.757041499999,3604.7720097,3604.7720097,3608.7023059000003,,,,3608.702645199999,3608.7179343999996,3608.7179343999996,3608.7179343999996,3609.0176438,3611.7150067000002,,,,,,,,,,,,,,,up,3.9253308000006655,None,None,,,P105,001,2024-11-15_10h07.20.578,posner_endo_new1,2024.2.4,60.20665331710967,2024-11-15 10h07.29.011246 +0000,
0.31,0.005,11,1,1,down,0.4147328999988531,None,space,0.49957089999952586,None,,,,,,,,,1,1,11,1,3611.7313835000004,,,,,,,,,,,,3611.7152358000003,3611.7313835000004,3611.7313835000004,3612.1489736000003,,,,3612.149318399999,3612.1643282000005,3612.1643282000005,3612.1643282000005,3612.4640636999993,3612.665141199999,,,,,,,,,,,,,,,down,0.4147328999988531,None,space,0.49957089999952586,None,P105,001,2024-11-15_10h07.20.578,posner_endo_new1,2024.2.4,60.20665331710967,2024-11-15 10h07.29.011246 +0000,
0.31,0.005,12,2,1,up,4.553352300001279,None,space,0.2867504000005283,None,,,,,,,,,1,2,12,3,3612.6805728,,,,,,,,,,,,3612.665374099999,3612.6805728,3612.6805728,3617.243570299999,,,,3617.2439152000006,3617.2592394000003,3617.2592394000003,3617.2592394000003,3617.5588910999995,3617.5600223,,,,,,,,,,,,,,,up,4.553352300001279,None,space,0.2867504000005283,None,P105,001,2024-11-15_10h07.20.578,posner_endo_new1,2024.2.4,60.20665331710967,2024-11-15 10h07.29.011246 +0000,
10,0.005,13,3,1,down,3.625921400000152,None,None,,,,,,,,,,,1,3,13,4,3617.575578599999,,,,,,,,,,,,3617.5602531999994,3617.575578599999,3617.575578599999,3621.2064214,,,,3621.2067606,3621.2218379000005,3621.2218379000005,3621.2218379000005,3621.5215965999996,3624.218890099999,,,,,,,,,,,,,,,down,3.625921400000152,None,None,,,P105,001,2024-11-15_10h07.20.578,posner_endo_new1,2024.2.4,60.20665331710967,2024-11-15 10h07.29.011246 +0000,
-0.31,0.005,14,4,1,up,0.6464347000000998,None,space,0.3654452000009769,None,,,,,,,,,1,4,14,0,3624.2353982999994,,,,,,,,,,,,3624.219115,3624.2353982999994,3624.2353982999994,3624.886009,,,,3624.8863488000006,3624.9013895000007,3624.9013895000007,3624.9013895000007,3625.201078599999,3625.2690158999994,,,,,,,,,,,,,,,up,0.6464347000000998,None,space,0.3654452000009769,None,P105,001,2024-11-15_10h07.20.578,posner_endo_new1,2024.2.4,60.20665331710967,2024-11-15 10h07.29.011246 +0000,
0.005,0.31,15,5,1,down,3.6854200000016135,None,space,0.3674360999993951,None,,,,,,,,,1,5,15,6,3625.2842827000004,,,,,,,,,,,,3625.2692637,3625.2842827000004,3625.2842827000004,3628.9816181000006,,,,3628.9819767999998,3628.9972485,3628.9972485,3628.9972485,3629.2968342000004,3629.3813176000003,,,,,,,,,,,,,,,down,3.6854200000016135,None,space,0.3674360999993951,None,P105,001,2024-11-15_10h07.20.578,posner_endo_new1,2024.2.4,60.20665331710967,2024-11-15 10h07.29.011246 +0000,
0.005,0.31,16,6,1,up,3.8140901000006124,None,space,0.38026349999927334,None,,,,,,,,,1,6,16,8,3629.396840899999,,,,,,,,,,,,3629.3815524,3629.396840899999,3629.396840899999,3633.2273994000006,,,,3633.2277464,3633.2428681,3633.2428681,3633.2428681,3633.5425818000003,3633.6271732000005,,,,,,,,,,,,,,,up,3.8140901000006124,None,space,0.38026349999927334,None,P105,001,2024-11-15_10h07.20.578,posner_endo_new1,2024.2.4,60.20665331710967,2024-11-15 10h07.29.011246 +0000,
0.005,-0.31,17,7,1,down,3.175557000000481,None,space,0.35473970000020927,None,,,,,,,,,1,7,17,7,3633.6424602999996,,,,,,,,,,,,3633.6274132,3633.6424602999996,3633.6424602999996,3636.8238440000005,,,,3636.824188299999,3636.8391154,3636.8391154,3636.8391154,3637.1387883999996,3637.2066047999997,,,,,,,,,,,,,,,down,3.175557000000481,None,space,0.35473970000020927,None,P105,001,2024-11-15_10h07.20.578,posner_endo_new1,2024.2.4,60.20665331710967,2024-11-15 10h07.29.011246 +0000,
0.005,-0.31,18,8,1,up,3.8280603000002884,None,space,0.36784809999880963,None,,,,,,,,,1,8,18,5,3637.2221358999996,,,,,,,,,,,,3637.2068464999993,3637.2221358999996,3637.2221358999996,3641.0527383999997,,,,3641.0530923999995,3641.0680756,3641.0680756,3641.0680756,3641.3678996,3641.452262999999,,,,,,,,,,,,,,,up,3.8280603000002884,None,space,0.36784809999880963,None,P105,001,2024-11-15_10h07.20.578,posner_endo_new1,2024.2.4,60.20665331710967,2024-11-15 10h07.29.011246 +0000,
-0.31,0.005,19,9,1,down,4.3420291999991605,None,space,0.3538501000002725,None,,,,,,,,,1,9,19,2,3641.4676942999995,,,,,,,,,,,,3641.4525092999993,3641.4676942999995,3641.4676942999995,3645.8144326,,,,3645.8147847,3645.8299754,3645.8299754,3645.8299754,3646.129757999999,3646.1973897999997,,,,,,,,,,,,,,,down,4.3420291999991605,None,space,0.3538501000002725,None,P105,001,2024-11-15_10h07.20.578,posner_endo_new1,2024.2.4,60.20665331710967,2024-11-15 10h07.29.011246 +0000,
0.005,-0.31,20,0,2,up,2.348842199999126,None,space,0.3768681999990804,None,,,,,,,,,2,0,20,7,3646.2129480000003,,,,,,,,,,,,3646.1976262000007,3646.2129480000003,3646.2129480000003,3648.5782450999995,,,,3648.5785837000003,3648.5938375999995,3648.5938375999995,3648.5938375999995,3648.8934979000005,3648.9779003000003,,,,,,,,,,,,,,,up,2.348842199999126,None,space,0.3768681999990804,None,P105,001,2024-11-15_10h07.20.578,posner_endo_new1,2024.2.4,60.20665331710967,2024-11-15 10h07.29.011246 +0000,
-0.31,0.005,21,1,2,down,3.8572991999990336,None,space,0.3426447999991069,None,,,,,,,,,2,1,21,2,3648.9933917,,,,,,,,,,,,3648.9781366999996,3648.9933917,3648.9933917,3652.8572729000007,,,,3652.857620999999,3652.8728701,3652.8728701,3652.8728701,3653.1723992999996,3653.223625999999,,,,,,,,,,,,,,,down,3.8572991999990336,None,space,0.3426447999991069,None,P105,001,2024-11-15_10h07.20.578,posner_endo_new1,2024.2.4,60.20665331710967,2024-11-15 10h07.29.011246 +0000,
0.005,0.31,22,2,2,up,2.9946974000013142,None,space,0.5540820000005624,None,,,,,,,,,2,2,22,6,3653.239068499999,,,,,,,,,,,,3653.223862499999,3653.239068499999,3653.239068499999,3656.2370654999995,,,,3656.2374063000007,3656.2526469000004,3656.2526469000004,3656.2526469000004,3656.5523410999995,3656.819832699999,,,,,,,,,,,,,,,up,2.9946974000013142,None,space,0.5540820000005624,None,P105,001,2024-11-15_10h07.20.578,posner_endo_new1,2024.2.4,60.20665331710967,2024-11-15 10h07.29.011246 +0000,
0.31,0.005,23,3,2,up,6.077991300000576,None,space,0.28906110000025365,None,,,,,,,,,2,3,23,1,3656.8353874999993,,,,,,,,,,,,3656.8200689999994,3656.8353874999993,3656.8353874999993,3662.9308741000004,,,,3662.9315078,3662.9457915000003,3662.9457915000003,3662.9457915000003,3663.245465,3663.2474920999994,,,,,,,,,,,,,,,up,6.077991300000576,None,space,0.28906110000025365,None,P105,001,2024-11-15_10h07.20.578,posner_endo_new1,2024.2.4,60.20665331710967,2024-11-15 10h07.29.011246 +0000,
10,0.005,24,4,2,down,3.3162881000007474,None,None,,,,,,,,,,,2,4,24,4,3663.2621156000005,,,,,,,,,,,,3663.2479454000004,3663.2621156000005,3663.2621156000005,3666.592916399999,,,,3666.593168199999,3666.6087303999993,3666.6087303999993,3666.6087303999993,3666.908509499999,3669.6057397999994,,,,,,,,,,,,,,,down,3.3162881000007474,None,None,,,P105,001,2024-11-15_10h07.20.578,posner_endo_new1,2024.2.4,60.20665331710967,2024-11-15 10h07.29.011246 +0000,
0.005,10,25,5,2,up,0.09923279999929946,None,None,,,,,,,,,,,2,5,25,9,3669.622330800001,,,,,,,,,,,,3669.6059072999997,3669.622330800001,3669.622330800001,3669.723192899999,,,,3669.723458299999,3669.7387407000006,3669.7387407000006,3669.7387407000006,3670.0385960999993,3672.7359192000004,,,,,,,,,,,,,,,up,0.09923279999929946,None,None,,,P105,001,2024-11-15_10h07.20.578,posner_endo_new1,2024.2.4,60.20665331710967,2024-11-15 10h07.29.011246 +0000,
0.31,0.005,26,6,2,down,0.9130290000011883,None,space,0.36985420000019076,None,,,,,,,,,2,6,26,3,3672.7522738999996,,,,,,,,,,,,3672.7360814000003,3672.7522738999996,3672.7522738999996,3673.6689650999997,,,,3673.6692196999993,3673.6848506999995,3673.6848506999995,3673.6848506999995,3673.9845473999994,3674.0685409,,,,,,,,,,,,,,,down,0.9130290000011883,None,space,0.36985420000019076,None,P105,001,2024-11-15_10h07.20.578,posner_endo_new1,2024.2.4,60.20665331710967,2024-11-15 10h07.29.011246 +0000,
0.005,-0.31,27,7,2,down,5.485763099999531,None,space,0.34021299999949406,None,,,,,,,,,2,7,27,5,3674.0844830000005,,,,,,,,,,,,3674.0687068000007,3674.0844830000005,3674.0844830000005,3679.5795180000005,,,,3679.5797595999993,3679.595457899999,3679.595457899999,3679.595457899999,3679.8951727999993,3679.9458197000004,,,,,,,,,,,,,,,down,5.485763099999531,None,space,0.34021299999949406,None,P105,001,2024-11-15_10h07.20.578,posner_endo_new1,2024.2.4,60.20665331710967,2024-11-15 10h07.29.011246 +0000,
0.005,0.31,28,8,2,up,3.432128399999783,None,space,0.39459809999971185,None,,,,,,,,,2,8,28,8,3679.9618799,,,,,,,,,,,,3679.945981499999,3679.9618799,3679.9618799,3683.4088931000006,,,,3683.4091319,3683.4248824000006,3683.4248824000006,3683.4248824000006,3683.7245741000006,3683.8251929,,,,,,,,,,,,,,,up,3.432128399999783,None,space,0.39459809999971185,None,P105,001,2024-11-15_10h07.20.578,posner_endo_new1,2024.2.4,60.20665331710967,2024-11-15 10h07.29.011246 +0000,
-0.31,0.005,29,9,2,down,3.712386699999115,None,space,0.4401740000012069,None,,,,,,,,,2,9,29,0,3683.841201699999,,,,,,,,,,,,3683.8253492999993,3683.841201699999,3683.841201699999,3687.554950399999,,,,3687.5551890000006,3687.5706494999995,3687.5706494999995,3687.5706494999995,3687.8702238000005,3688.020976399999,,,,,,,,,,,,,,,down,3.712386699999115,None,space,0.4401740000012069,None,P105,001,2024-11-15_10h07.20.578,posner_endo_new1,2024.2.4,60.20665331710967,2024-11-15 10h07.29.011246 +0000,
-0.31,0.005,30,0,3,up,2.9329851000002236,None,space,0.46898610000062035,None,,,,,,,,,3,0,30,0,3688.0368333999995,,,,,,,,,,,,3688.0211400999997,3688.0368333999995,3688.0368333999995,3690.984612799999,,,,3690.9848619999993,3691.0007184000006,3691.0007184000006,3691.0007184000006,3691.299976799999,3691.4837043000007,,,,,,,,,,,,,,,up,2.9329851000002236,None,space,0.46898610000062035,None,P105,001,2024-11-15_10h07.20.578,posner_endo_new1,2024.2.4,60.20665331710967,2024-11-15 10h07.29.011246 +0000,
0.005,-0.31,31,1,3,down,4.205673500000557,None,space,0.4202546999986225,None,,,,,,,,,3,1,31,5,3691.4999733999994,,,,,,,,,,,,3691.4838734999994,3691.4999733999994,3691.4999733999994,3695.7131781999997,,,,3695.7134189999997,3695.7289340999996,3695.7289340999996,3695.7289340999996,3696.0286543,3696.1626209000005,,,,,,,,,,,,,,,down,4.205673500000557,None,space,0.4202546999986225,None,P105,001,2024-11-15_10h07.20.578,posner_endo_new1,2024.2.4,60.20665331710967,2024-11-15 10h07.29.011246 +0000,
0.31,0.005,32,2,3,up,2.735733199999231,None,space,0.45384219999868947,None,,,,,,,,,3,2,32,3,3696.1783999,,,,,,,,,,,,3696.162777400001,3696.1783999,3696.1783999,3698.926347299999,,,,3698.9265866999995,3698.9424624000003,3698.9424624000003,3698.9424624000003,3699.2420385000005,3699.409211099999,,,,,,,,,,,,,,,up,2.735733199999231,None,space,0.45384219999868947,None,P105,001,2024-11-15_10h07.20.578,posner_endo_new1,2024.2.4,60.20665331710967,2024-11-15 10h07.29.011246 +0000,
0.005,0.31,33,3,3,down,3.201017600000341,None,space,0.3255295999988448,None,,,,,,,,,3,3,33,8,3699.425228099999,,,,,,,,,,,,3699.409372599999,3699.425228099999,3699.425228099999,3702.6394137999996,,,,3702.6396556,3702.6552742999993,3702.6552742999993,3702.6552742999993,3702.9549461000006,3702.9889860000003,,,,,,,,,,,,,,,down,3.201017600000341,None,space,0.3255295999988448,None,P105,001,2024-11-15_10h07.20.578,posner_endo_new1,2024.2.4,60.20665331710967,2024-11-15 10h07.29.011246 +0000,
0.005,-0.31,34,4,3,up,5.709843100001308,None,space,0.4072343000007095,None,,,,,,,,,3,4,34,7,3703.0049455000008,,,,,,,,,,,,3702.9891504000007,3703.0049455000008,3703.0049455000008,3708.717128099999,,,,3708.717500999999,3708.7323622000004,3708.7323622000004,3708.7323622000004,3709.031959599999,3709.1497698000003,,,,,,,,,,,,,,,up,5.709843100001308,None,space,0.4072343000007095,None,P105,001,2024-11-15_10h07.20.578,posner_endo_new1,2024.2.4,60.20665331710967,2024-11-15 10h07.29.011246 +0000,
0.005,0.31,35,5,3,down,3.709013599998798,None,space,0.3714541999997891,None,,,,,,,,,3,5,35,6,3709.1651896999992,,,,,,,,,,,,3709.1500333999993,3709.1651896999992,3709.1651896999992,3712.8792178000003,,,,3712.8796017000004,3712.8945611,3712.8945611,3712.8945611,3713.1944564000005,3713.278936999999,,,,,,,,,,,,,,,down,3.709013599998798,None,space,0.3714541999997891,None,P105,001,2024-11-15_10h07.20.578,posner_endo_new1,2024.2.4,60.20665331710967,2024-11-15 10h07.29.011246 +0000,
-0.31,0.005,36,6,3,down,5.947244299999511,None,space,0.46881740000026184,None,,,,,,,,,3,6,36,2,3713.2943596000005,,,,,,,,,,,,3713.2792083000004,3713.2943596000005,3713.2943596000005,3719.2561191999994,,,,3719.2565092000004,3719.2716230000005,3719.2716230000005,3719.2716230000005,3719.5712311999996,3719.7557880000004,,,,,,,,,,,,,,,down,5.947244299999511,None,space,0.46881740000026184,None,P105,001,2024-11-15_10h07.20.578,posner_endo_new1,2024.2.4,60.20665331710967,2024-11-15 10h07.29.011246 +0000,
10,0.005,37,7,3,up,3.4224238000006153,None,None,,,,,,,,,,,3,7,37,4,3719.7709735999997,,,,,,,,,,,,3719.7560574,3719.7709735999997,3719.7709735999997,3723.2021225000008,,,,3723.2025433,3723.2176020000006,3723.2176020000006,3723.2176020000006,3723.5172626000003,3726.214547899999,,,,,,,,,,,,,,,up,3.4224238000006153,None,None,,,P105,001,2024-11-15_10h07.20.578,posner_endo_new1,2024.2.4,60.20665331710967,2024-11-15 10h07.29.011246 +0000,
0.005,10,38,8,3,down,0.17870310000034806,None,None,,,,,,,,,,,3,8,38,9,3726.2311188999993,,,,,,,,,,,,3726.2148068999995,3726.2311188999993,3726.2311188999993,3726.4157113,,,,3726.4160936000007,3726.430869,3726.430869,3726.430869,3726.7306559999997,3729.4280043,,,,,,,,,,,,,,,down,0.17870310000034806,None,None,,,P105,001,2024-11-15_10h07.20.578,posner_endo_new1,2024.2.4,60.20665331710967,2024-11-15 10h07.29.011246 +0000,
0.31,0.005,39,9,3,down,3.4129422000005434,None,space,0.4969373000003543,None,,,,,,,,,3,9,39,1,3729.444514499999,,,,,,,,,,,,3729.4282676000003,3729.444514499999,3729.444514499999,3732.8589586,,,,3732.859343,3732.8743293000007,3732.8743293000007,3732.8743293000007,3733.1739717,3733.3751489999995,,,,,,,,,,,,,,,down,3.4129422000005434,None,space,0.4969373000003543,None,P105,001,2024-11-15_10h07.20.578,posner_endo_new1,2024.2.4,60.20665331710967,2024-11-15 10h07.29.011246 +0000,
0.005,0.31,40,0,4,down,6.779666300000827,None,space,0.46372340000016266,None,,,,,,,,,4,0,40,6,3733.390464,,,,,,,,,,,,3733.3754315999995,3733.390464,3733.390464,3740.184733100001,,,,3740.185127500001,3740.2002178000002,3740.2002178000002,3740.2002178000002,3740.4998515000007,3740.6676203999996,,,,,,,,,,,,,,,down,6.779666300000827,None,space,0.46372340000016266,None,P105,001,2024-11-15_10h07.20.578,posner_endo_new1,2024.2.4,60.20665331710967,2024-11-15 10h07.29.011246 +0000,
0.005,-0.31,41,1,4,up,2.551147399999536,None,space,0.5341344999997091,None,,,,,,,,,4,1,41,5,3740.6830472,,,,,,,,,,,,3740.6678981000005,3740.6830472,3740.6830472,3743.2482547,,,,3743.2486346999995,3743.2637792000005,3743.2637792000005,3743.2637792000005,3743.563385199999,3743.8144281000004,,,,,,,,,,,,,,,up,2.551147399999536,None,space,0.5341344999997091,None,P105,001,2024-11-15_10h07.20.578,posner_endo_new1,2024.2.4,60.20665331710967,2024-11-15 10h07.29.011246 +0000,
0.31,0.005,42,2,4,up,4.092624799999612,None,space,0.3787512999988394,None,,,,,,,,,4,2,42,3,3743.8297246,,,,,,,,,,,,3743.814706699999,3743.8297246,3743.8297246,3747.9267985000006,,,,3747.9271910999996,3747.9423917000004,3747.9423917000004,3747.9423917000004,3748.2419492999998,3748.326561,,,,,,,,,,,,,,,up,4.092624799999612,None,space,0.3787512999988394,None,P105,001,2024-11-15_10h07.20.578,posner_endo_new1,2024.2.4,60.20665331710967,2024-11-15 10h07.29.011246 +0000,
-0.31,0.005,43,3,4,down,2.804442000000563,None,space,0.3681288999996468,None,,,,,,,,,4,3,43,2,3748.3417563000003,,,,,,,,,,,,3748.3268291999993,3748.3417563000003,3748.3417563000003,3751.1558998,,,,3751.1561497000002,3751.1721201,3751.1721201,3751.1721201,3751.4717048,3751.5553505999997,,,,,,,,,,,,,,,down,2.804442000000563,None,space,0.3681288999996468,None,P105,001,2024-11-15_10h07.20.578,posner_endo_new1,2024.2.4,60.20665331710967,2024-11-15 10h07.29.011246 +0000,
0.31,0.005,44,4,4,down,7.134118800000579,None,space,0.38985649999995076,None,,,,,,,,,4,4,44,1,3751.5716097999994,,,,,,,,,,,,3751.5554969000004,3751.5716097999994,3751.5716097999994,3758.7155712000003,,,,3758.7158856999995,3758.7313746,3758.7313746,3758.7313746,3759.0309147000007,3759.131831999999,,,,,,,,,,,,,,,down,7.134118800000579,None,space,0.38985649999995076,None,P105,001,2024-11-15_10h07.20.578,posner_endo_new1,2024.2.4,60.20665331710967,2024-11-15 10h07.29.011246 +0000,
0.005,10,45,5,4,up,2.950783099999171,None,None,,,,,,,,,,,4,5,45,9,3759.147521499999,,,,,,,,,,,,3759.1320400999994,3759.147521499999,3759.147521499999,3762.1120094,,,,3762.112348299999,3762.1276127,3762.1276127,3762.1276127,3762.4273575000007,3765.1246838999996,,,,,,,,,,,,,,,up,2.950783099999171,None,None,,,P105,001,2024-11-15_10h07.20.578,posner_endo_new1,2024.2.4,60.20665331710967,2024-11-15 10h07.29.011246 +0000,
-0.31,0.005,46,6,4,down,0.5000927000000956,None,space,0.383886599998732,None,,,,,,,,,4,6,46,0,3765.1414251999995,,,,,,,,,,,,3765.124856799999,3765.1414251999995,3765.1414251999995,3765.658328899999,,,,3765.6585768999994,3765.674134000001,3765.674134000001,3765.674134000001,3765.9738614,3766.0743721,,,,,,,,,,,,,,,down,0.5000927000000956,None,space,0.383886599998732,None,P105,001,2024-11-15_10h07.20.578,posner_endo_new1,2024.2.4,60.20665331710967,2024-11-15 10h07.29.011246 +0000,
10,0.005,47,7,4,up,2.7516257999996014,None,None,,,,,,,,,,,4,7,47,4,3766.0903352000005,,,,,,,,,,,,3766.074532999999,3766.0903352000005,3766.0903352000005,3768.8548938999993,,,,3768.8551420999993,3768.8708571000006,3768.8708571000006,3768.8708571000006,3769.170500800001,3771.8678003999994,,,,,,,,,,,,,,,up,2.7516257999996014,None,None,,,P105,001,2024-11-15_10h07.20.578,posner_endo_new1,2024.2.4,60.20665331710967,2024-11-15 10h07.29.011246 +0000,
0.005,-0.31,48,8,4,up,2.3253242000009777,None,space,0.4511836999990919,None,,,,,,,,,4,8,48,7,3771.8844501000003,,,,,,,,,,,,3771.8679623999997,3771.8844501000003,3771.8844501000003,3774.2157924000003,,,,3774.216044999999,3774.2321119999997,3774.2321119999997,3774.2321119999997,3774.531573,3774.6991801999993,,,,,,,,,,,,,,,up,2.3253242000009777,None,space,0.4511836999990919,None,P105,001,2024-11-15_10h07.20.578,posner_endo_new1,2024.2.4,60.20665331710967,2024-11-15 10h07.29.011246 +0000,
0.005,0.31,49,9,4,down,2.7756253000006836,None,space,0.5242429000008997,None,,,,,,,,,4,9,49,8,3774.7148068999995,,,,,,,,,,,,3774.6993507000007,3774.7148068999995,3774.7148068999995,3777.4961743999993,,,,3777.496426399999,3777.5120351000005,3777.5120351000005,3777.5120351000005,3777.8118474000003,3778.0456942,,,,,,,,,,,,,,,down,2.7756253000006836,None,space,0.5242429000008997,None,P105,001,2024-11-15_10h07.20.578,posner_endo_new1,2024.2.4,60.20665331710967,2024-11-15 10h07.29.011246 +0000,
0.005,0.31,50,0,5,up,2.2688073000008444,None,space,0.4170195999995485,None,,,,,,,,,5,0,50,8,3778.0613704000007,,,,,,,,,,,,3778.0458584000007,3778.0613704000007,3778.0613704000007,3780.3430964,,,,3780.3433477,3780.3590384,3780.3590384,3780.3590384,3780.658675999999,3780.7928601999993,,,,,,,,,,,,,,,up,2.2688073000008444,None,space,0.4170195999995485,None,P105,001,2024-11-15_10h07.20.578,posner_endo_new1,2024.2.4,60.20665331710967,2024-11-15 10h07.29.011246 +0000,
0.005,10,51,1,5,down,2.7538781000002928,None,None,,,,,,,,,,,5,1,51,9,3780.808352,,,,,,,,,,,,3780.7930287,3780.808352,3780.808352,3783.5731546999996,,,,3783.5734033999997,3783.589194,3783.589194,3783.589194,3783.8887443000003,3786.5861700999994,,,,,,,,,,,,,,,down,2.7538781000002928,None,None,,,P105,001,2024-11-15_10h07.20.578,posner_endo_new1,2024.2.4,60.20665331710967,2024-11-15 10h07.29.011246 +0000,
10,0.005,52,2,5,down,1.7185437000007369,None,None,,,,,,,,,,,5,2,52,4,3786.602803399999,,,,,,,,,,,,3786.5863298999993,3786.602803399999,3786.602803399999,3788.3350721000006,,,,3788.3353174999993,3788.3507850000005,3788.3507850000005,3788.3507850000005,3788.6506702999995,3791.3479540999997,,,,,,,,,,,,,,,down,1.7185437000007369,None,None,,,P105,001,2024-11-15_10h07.20.578,posner_endo_new1,2024.2.4,60.20665331710967,2024-11-15 10h07.29.011246 +0000,
0.31,0.005,53,3,5,down,1.5334917999989557,None,space,0.39176059999954305,None,,,,,,,,,5,3,53,1,3791.364326000001,,,,,,,,,,,,3791.3481137,3791.364326000001,3791.364326000001,3792.913615199999,,,,3792.913861700001,3792.9295416999994,3792.9295416999994,3792.9295416999994,3793.229311699999,3793.3298441999996,,,,,,,,,,,,,,,down,1.5334917999989557,None,space,0.39176059999954305,None,P105,001,2024-11-15_10h07.20.578,posner_endo_new1,2024.2.4,60.20665331710967,2024-11-15 10h07.29.011246 +0000,
-0.31,0.005,54,4,5,up,2.6082826999991084,None,space,0.3812866000007489,None,,,,,,,,,5,4,54,2,3793.3457844999994,,,,,,,,,,,,3793.3300096000003,3793.3457844999994,3793.3457844999994,3795.9606048999995,,,,3795.9608528999997,3795.9763366999996,3795.9763366999996,3795.9763366999996,3796.2761601,3796.3602094,,,,,,,,,,,,,,,up,2.6082826999991084,None,space,0.3812866000007489,None,P105,001,2024-11-15_10h07.20.578,posner_endo_new1,2024.2.4,60.20665331710967,2024-11-15 10h07.29.011246 +0000,
0.005,0.31,55,5,5,down,2.681691600000704,None,space,0.49722189999920374,None,,,,,,,,,5,5,55,6,3796.376182599999,,,,,,,,,,,,3796.360371999999,3796.376182599999,3796.376182599999,3799.0740086000005,,,,3799.0742563999993,3799.0900144999996,3799.0900144999996,3799.0900144999996,3799.3895699999994,3799.5901116999994,,,,,,,,,,,,,,,down,2.681691600000704,None,space,0.49722189999920374,None,P105,001,2024-11-15_10h07.20.578,posner_endo_new1,2024.2.4,60.20665331710967,2024-11-15 10h07.29.011246 +0000,
0.005,-0.31,56,6,5,up,3.73140020000028,None,space,0.6450898999992205,None,,,,,,,,,5,6,56,5,3799.6062469000008,,,,,,,,,,,,3799.590274099999,3799.6062469000008,3799.6062469000008,3803.3530094,,,,3803.3532560000003,3803.3689735999997,3803.3689735999997,3803.3689735999997,3803.6686052999994,3804.0191042000006,,,,,,,,,,,,,,,up,3.73140020000028,None,space,0.6450898999992205,None,P105,001,2024-11-15_10h07.20.578,posner_endo_new1,2024.2.4,60.20665331710967,2024-11-15 10h07.29.011246 +0000,
0.005,-0.31,57,7,5,down,1.5273252999995748,None,space,0.36714240000037535,None,,,,,,,,,5,7,57,7,3804.0348419,,,,,,,,,,,,3804.0192683000005,3804.0348419,3804.0348419,3805.5676110000004,,,,3805.5678589,3805.5832336999993,3805.5832336999993,3805.5832336999993,3805.8829879000004,3805.9671622000005,,,,,,,,,,,,,,,down,1.5273252999995748,None,space,0.36714240000037535,None,P105,001,2024-11-15_10h07.20.578,posner_endo_new1,2024.2.4,60.20665331710967,2024-11-15 10h07.29.011246 +0000,
-0.31,0.005,58,8,5,up,3.266872099999091,None,space,0.4799729999995179,None,,,,,,,,,5,8,58,0,3805.9829011,,,,,,,,,,,,3805.9673299999995,3805.9829011,3805.9829011,3809.2635245,,,,3809.2637703,3809.2794809999996,3809.2794809999996,3809.2794809999996,3809.579197700001,3809.7631985000007,,,,,,,,,,,,,,,up,3.266872099999091,None,space,0.4799729999995179,None,P105,001,2024-11-15_10h07.20.578,posner_endo_new1,2024.2.4,60.20665331710967,2024-11-15 10h07.29.011246 +0000,
0.31,0.005,59,9,5,down,1.879085100001248,None,space,0.41323670000019774,None,,,,,,,,,5,9,59,3,3809.7789374000004,,,,,,,,,,,,3809.7633618,3809.7789374000004,3809.7789374000004,3811.6614441,,,,3811.661886600001,3811.6766061,3811.6766061,3811.6766061,3811.9763126,3812.0942541999993,,,,,,,,,,,,,,,down,1.879085100001248,None,space,0.41323670000019774,None,P105,001,2024-11-15_10h07.20.578,posner_endo_new1,2024.2.4,60.20665331710967,2024-11-15 10h07.29.011246 +0000,
