target_y,target_x,thisN,thisTrialN,thisRepN,key_control2.keys,key_control2.rt,key_control2.duration,key_resp.keys,key_resp.rt,key_resp.duration,practice.thisRepN,practice.thisTrialN,practice.thisN,practice.thisIndex,session_1.thisRepN,session_1.thisTrialN,session_1.thisN,session_1.thisIndex,session_2.thisRepN,session_2.thisTrialN,session_2.thisN,session_2.thisIndex,thisRow.t,notes,instructions.started,instructions_txt.started,key_control.started,instructions.stopped,key_control.keys,key_control.rt,key_control.duration,ready.started,ready_txt.started,ready.stopped,fix.started,key_control2.started,fixation_cross.started,fix.stopped,practice.key_control2.keys,practice.key_control2.rt,practice.key_control2.duration,target.started,star.started,fixation_cross_target.started,key_resp.started,star.stopped,target.stopped,practice.key_resp.keys,practice.key_resp.rt,practice.key_resp.duration,session_1.key_control2.keys,session_1.key_control2.rt,session_1.key_control2.duration,session_1.key_resp.keys,session_1.key_resp.rt,session_1.key_resp.duration,break_2.started,text.started,key_control3.started,break_2.stopped,key_control3.keys,session_2.key_control2.keys,session_2.key_control2.rt,session_2.key_control2.duration,session_2.key_resp.keys,session_2.key_resp.rt,session_2.key_resp.duration,participant,session,date,expName,psychopyVersion,frameRate,expStart,
,,,,,,,,,,,,,,,,,,,,,,,,,0.007555399999546353,0.019576799999413197,0.019576799999413197,6327.8827681,up,6327.856621299998,None,,,,,,,,,,,,,,,,,,,,,,,,,,,,,,,,,,,,,P106,001,2024-11-15_11h13.52.918,posner_endo_new1,2024.2.4,60.04823073896068,2024-11-15 11h14.00.204682 +0000,
,,,,,,,,,,,,,,,,,,,,,,,,,,,,,,,,6327.8828202,6327.895208800001,6330.892356600001,,,,,,,,,,,,,,,,,,,,,,,,,,,,,,,,,,P106,001,2024-11-15_11h13.52.918,posner_endo_new1,2024.2.4,60.04823073896068,2024-11-15 11h14.00.204682 +0000,
10,0.005,0,0,0,down,3.861831500002154,None,None,,,0,0,0,4,,,,,,,,,6330.9101163999985,,,,,,,,,,,,6330.899573999999,6330.9101163999985,6330.9101163999985,6334.773120500002,down,3.861831500002154,None,6334.7735447999985,6334.788682099999,6334.788682099999,6334.788682099999,6335.088111199999,6337.7851854,None,,,,,,,,,,,,,,,,,,,,P106,001,2024-11-15_11h13.52.918,posner_endo_new1,2024.2.4,60.04823073896068,2024-11-15 11h14.00.204682 +0000,
0.005,0.31,1,1,0,down,2.867132399998809,None,space,0.531041300000652,None,0,1,1,8,,,,,,,,,6337.801918000001,,,,,,,,,,,,6337.7853531,6337.801918000001,6337.801918000001,6340.6829569,down,2.867132399998809,None,6340.683226699999,6340.699048099999,6340.699048099999,6340.699048099999,6340.998483200001,6341.232778599999,space,0.531041300000652,None,,,,,,,,,,,,,,,,,,P106,001,2024-11-15_11h13.52.918,posner_endo_new1,2024.2.4,60.04823073896068,2024-11-15 11h14.00.204682 +0000,
-0.31,0.005,2,2,0,up,2.0596612000008463,None,space,0.46918430000005173,None,0,2,2,0,,,,,,,,,6341.248194600001,,,,,,,,,,,,6341.2329541,6341.248194600001,6341.248194600001,6343.313670399999,up,2.0596612000008463,None,6343.313942000001,6343.3296357,6343.3296357,6343.3296357,6343.629273099999,6343.813290099999,space,0.46918430000005173,None,,,,,,,,,,,,,,,,,,P106,001,2024-11-15_11h13.52.918,posner_endo_new1,2024.2.4,60.04823073896068,2024-11-15 11h14.00.204682 +0000,
0.31,0.005,3,3,0,down,3.639093400001002,None,space,0.4448402000016358,None,0,3,3,1,,,,,,,,,6343.829058399999,,,,,,,,,,,,6343.813463900002,6343.829058399999,6343.829058399999,6347.476045200001,down,3.639093400001002,None,6347.476317199998,6347.491912099998,6347.491912099998,6347.491912099998,6347.7915765,6347.942408899999,space,0.4448402000016358,None,,,,,,,,,,,,,,,,,,P106,001,2024-11-15_11h13.52.918,posner_endo_new1,2024.2.4,60.04823073896068,2024-11-15 11h14.00.204682 +0000,
-0.31,0.005,4,4,0,up,7.134831399998802,None,space,0.511785399998189,None,0,4,4,2,,,,,,,,,6347.958136500001,,,,,,,,,,,,6347.9425845000005,6347.958136500001,6347.958136500001,6355.1017059000005,up,7.134831399998802,None,6355.101972600001,6355.117586,6355.117586,6355.117586,6355.4173271,6355.634576100001,space,0.511785399998189,None,,,,,,,,,,,,,,,,,,P106,001,2024-11-15_11h13.52.918,posner_endo_new1,2024.2.4,60.04823073896068,2024-11-15 11h14.00.204682 +0000,
0.005,0.31,5,5,0,down,3.8975428999983706,None,space,0.35236649999933434,None,0,5,5,6,,,,,,,,,6355.6503582000005,,,,,,,,,,,,6355.634751000001,6355.6503582000005,6355.6503582000005,6359.563630199998,down,3.8975428999983706,None,6359.5639032,6359.579758200001,6359.579758200001,6359.579758200001,6359.8793670999985,6359.9467358,space,0.35236649999933434,None,,,,,,,,,,,,,,,,,,P106,001,2024-11-15_11h13.52.918,posner_endo_new1,2024.2.4,60.04823073896068,2024-11-15 11h14.00.204682 +0000,
0.005,-0.31,6,6,0,up,2.482209400001011,None,space,0.6192496999974537,None,0,6,6,7,,,,,,,,,6359.962323600001,,,,,,,,,,,,6359.946909499999,6359.962323600001,6359.962323600001,6362.4606915,up,2.482209400001011,None,6362.460956300001,6362.476601599999,6362.476601599999,6362.476601599999,6362.776283200001,6363.110089900001,space,0.6192496999974537,None,,,,,,,,,,,,,,,,,,P106,001,2024-11-15_11h13.52.918,posner_endo_new1,2024.2.4,60.04823073896068,2024-11-15 11h14.00.204682 +0000,
0.005,10,7,7,0,down,2.574604999997973,None,None,,,0,7,7,9,,,,,,,,,6363.126113999999,,,,,,,,,,,,6363.110271699999,6363.126113999999,6363.126113999999,6365.707520700002,down,2.574604999997973,None,6365.707789200002,6365.723271999999,6365.723271999999,6365.723271999999,6366.023054100002,6368.7203883,None,,,,,,,,,,,,,,,,,,,,P106,001,2024-11-15_11h13.52.918,posner_endo_new1,2024.2.4,60.04823073896068,2024-11-15 11h14.00.204682 +0000,
0.005,-0.31,8,8,0,down,3.635348099996918,None,space,0.5485756000016409,None,0,8,8,5,,,,,,,,,6368.736853599999,,,,,,,,,,,,6368.720555600001,6368.736853599999,6368.736853599999,6372.384089499999,down,3.635348099996918,None,6372.384362600002,6372.399738299999,6372.399738299999,6372.399738299999,6372.699645000001,6372.950311299999,space,0.5485756000016409,None,,,,,,,,,,,,,,,,,,P106,001,2024-11-15_11h13.52.918,posner_endo_new1,2024.2.4,60.04823073896068,2024-11-15 11h14.00.204682 +0000,
0.31,0.005,9,9,0,up,2.470992800001113,None,space,0.9880006999992474,None,0,9,9,3,,,,,,,,,6372.9659895,,,,,,,,,,,,6372.950485900001,6372.9659895,6372.9659895,6375.4476608,up,2.470992800001113,None,6375.447926199999,6375.463247899999,6375.463247899999,6375.463247899999,6375.7631373,6376.463135099999,space,0.9880006999992474,None,,,,,,,,,,,,,,,,,,P106,001,2024-11-15_11h13.52.918,posner_endo_new1,2024.2.4,60.04823073896068,2024-11-15 11h14.00.204682 +0000,
,,,,,,,,,,,,,,,,,,,,,,,,,,,,,,,,6376.463252400001,6376.4789748,6379.475996100002,,,,,,,,,,,,,,,,,,,,,,,,,,,,,,,,,,P106,001,2024-11-15_11h13.52.918,posner_endo_new1,2024.2.4,60.04823073896068,2024-11-15 11h14.00.204682 +0000,
0.005,-0.31,0,0,0,up,3.774931600000855,None,space,0.43440459999692393,None,,,,,0,0,0,7,,,,,6379.493549700001,,,,,,,,,,,,6379.4829962,6379.493549700001,6379.493549700001,6383.2735689,,,,6383.273970099999,6383.288757599999,6383.288757599999,6383.288757599999,6383.5882513,6383.7394324000015,,,,up,3.774931600000855,None,space,0.43440459999692393,None,,,,,,,,,,,,P106,001,2024-11-15_11h13.52.918,posner_endo_new1,2024.2.4,60.04823073896068,2024-11-15 11h14.00.204682 +0000,
0.005,0.31,1,1,0,down,3.4659294999983103,None,space,0.37217450000025565,None,,,,,0,1,1,6,,,,,6383.754879600001,,,,,,,,,,,,6383.739706799999,6383.754879600001,6383.754879600001,6387.2358704,,,,6387.2362598,6387.2514531000015,6387.2514531000015,6387.2514531000015,6387.551099,6387.635440900001,,,,down,3.4659294999983103,None,space,0.37217450000025565,None,,,,,,,,,,,,P106,001,2024-11-15_11h13.52.918,posner_endo_new1,2024.2.4,60.04823073896068,2024-11-15 11h14.00.204682 +0000,
0.005,0.31,2,2,0,up,2.0488364999982878,None,space,0.5342707999989216,None,,,,,0,2,2,8,,,,,6387.6510194,,,,,,,,,,,,6387.635734200001,6387.6510194,6387.6510194,6389.716747400002,,,,6389.717134800001,6389.732206100001,6389.732206100001,6389.732206100001,6390.031868099999,6390.282858800001,,,,up,2.0488364999982878,None,space,0.5342707999989216,None,,,,,,,,,,,,P106,001,2024-11-15_11h13.52.918,posner_endo_new1,2024.2.4,60.04823073896068,2024-11-15 11h14.00.204682 +0000,
-0.31,0.005,3,3,0,down,3.2188089000010223,None,space,0.3319205999978294,None,,,,,0,3,3,0,,,,,6390.2981832000005,,,,,,,,,,,,6390.2831326999985,6390.2981832000005,6390.2981832000005,6393.5295052,,,,6393.5298889000005,6393.544966699999,6393.544966699999,6393.544966699999,6393.844594800001,6393.879087199999,,,,down,3.2188089000010223,None,space,0.3319205999978294,None,,,,,,,,,,,,P106,001,2024-11-15_11h13.52.918,posner_endo_new1,2024.2.4,60.04823073896068,2024-11-15 11h14.00.204682 +0000,
0.005,-0.31,4,4,0,down,4.206541399998969,None,space,0.39332980000108364,None,,,,,0,4,4,5,,,,,6393.894693999999,,,,,,,,,,,,6393.8793568,6393.894693999999,6393.894693999999,6398.108103400002,,,,6398.1084902,6398.123627699999,6398.123627699999,6398.123627699999,6398.423351599999,6398.524368499999,,,,down,4.206541399998969,None,space,0.39332980000108364,None,,,,,,,,,,,,P106,001,2024-11-15_11h13.52.918,posner_endo_new1,2024.2.4,60.04823073896068,2024-11-15 11h14.00.204682 +0000,
0.31,0.005,5,5,0,up,2.6008236999987275,None,space,0.5549256999984209,None,,,,,0,5,5,1,,,,,6398.5399258,,,,,,,,,,,,6398.524642600001,6398.5399258,6398.5399258,6401.155135199999,,,,6401.155517899999,6401.170538999999,6401.170538999999,6401.170538999999,6401.470209300001,6401.737824200001,,,,up,2.6008236999987275,None,space,0.5549256999984209,None,,,,,,,,,,,,P106,001,2024-11-15_11h13.52.918,posner_endo_new1,2024.2.4,60.04823073896068,2024-11-15 11h14.00.204682 +0000,
-0.31,0.005,6,6,0,down,2.59502490000159,None,space,0.4225390999999945,None,,,,,0,6,6,2,,,,,6401.753203,,,,,,,,,,,,6401.738088400001,6401.753203,6401.753203,6404.3518496,,,,6404.352249899999,6404.367356499999,6404.367356499999,6404.367356499999,6404.6669009,6404.8013861,,,,down,2.59502490000159,None,space,0.4225390999999945,None,,,,,,,,,,,,P106,001,2024-11-15_11h13.52.918,posner_endo_new1,2024.2.4,60.04823073896068,2024-11-15 11h14.00.204682 +0000,
0.005,10,7,7,0,up,2.4520248000007996,None,None,,,,,,,0,7,7,9,,,,,6404.816843799999,,,,,,,,,,,,6404.801656399999,6404.816843799999,6404.816843799999,6407.282201599999,,,,6407.2825892,6407.2975291,6407.2975291,6407.2975291,6407.597327899999,6410.294576,,,,up,2.4520248000007996,None,None,,,,,,,,,,,,,,P106,001,2024-11-15_11h13.52.918,posner_endo_new1,2024.2.4,60.04823073896068,2024-11-15 11h14.00.204682 +0000,
0.31,0.005,8,8,0,up,5.133359200000996,None,space,0.4049004000007699,None,,,,,0,8,8,3,,,,,6410.3111685,,,,,,,,,,,,6410.294831499999,6410.3111685,6410.3111685,6415.457051900001,,,,6415.457437000001,6415.47251,6415.47251,6415.47251,6415.772163500002,6415.889962000001,,,,up,5.133359200000996,None,space,0.4049004000007699,None,,,,,,,,,,,,P106,001,2024-11-15_11h13.52.918,posner_endo_new1,2024.2.4,60.04823073896068,2024-11-15 11h14.00.204682 +0000,
10,0.005,9,9,0,down,2.5321444000001065,None,None,,,,,,,0,9,9,4,,,,,6415.905379899999,,,,,,,,,,,,6415.8902294,6415.905379899999,6415.905379899999,6418.453995100001,,,,6418.454373200002,6418.4695584,6418.4695584,6418.4695584,6418.769153500001,6421.466675300002,,,,down,2.5321444000001065,None,None,,,,,,,,,,,,,,P106,001,2024-11-15_11h13.52.918,posner_endo_new1,2024.2.4,60.04823073896068,2024-11-15 11h14.00.204682 +0000,
0.005,0.31,10,0,1,down,4.465225600000849,None,space,0.4374920000009297,None,,,,,1,0,10,8,,,,,6421.4830253,,,,,,,,,,,,6421.4669232000015,6421.4830253,6421.4830253,6425.962921599999,,,,6425.963315100002,6425.9784612,6425.9784612,6425.9784612,6426.278263,6426.429092800001,,,,down,4.465225600000849,None,space,0.4374920000009297,None,,,,,,,,,,,,P106,001,2024-11-15_11h13.52.918,posner_endo_new1,2024.2.4,60.04823073896068,2024-11-15 11h14.00.204682 +0000,
-0.31,0.005,11,1,1,up,2.336273099997925,None,space,0.5686505000012403,None,,,,,1,1,11,2,,,,,6426.444609800001,,,,,,,,,,,,6426.4293602,6426.444609800001,6426.444609800001,6428.793445899999,,,,6428.7938392,6428.8089163,6428.8089163,6428.8089163,6429.108639400001,6429.3927723000015,,,,up,2.336273099997925,None,space,0.5686505000012403,None,,,,,,,,,,,,P106,001,2024-11-15_11h13.52.918,posner_endo_new1,2024.2.4,60.04823073896068,2024-11-15 11h14.00.204682 +0000,
0.005,-0.31,12,2,1,down,3.3318909000008716,None,space,0.4533515000002808,None,,,,,1,2,12,5,,,,,6429.4081879000005,,,,,,,,,,,,6429.3930457999995,6429.4081879000005,6429.4081879000005,6432.7560113,,,,6432.756402499999,6432.7715651,6432.7715651,6432.7715651,6433.071136099999,6433.2388708,,,,down,3.3318909000008716,None,space,0.4533515000002808,None,,,,,,,,,,,,P106,001,2024-11-15_11h13.52.918,posner_endo_new1,2024.2.4,60.04823073896068,2024-11-15 11h14.00.204682 +0000,
-0.31,0.005,13,3,1,up,1.5099536000016087,None,space,0.5351255999994464,None,,,,,1,3,13,0,,,,,6433.254368599999,,,,,,,,,,,,6433.2391417,6433.254368599999,6433.254368599999,6434.7707548,,,,6434.771144300001,6434.785997999999,6434.785997999999,6434.785997999999,6435.085836000002,6435.336816899999,,,,up,1.5099536000016087,None,space,0.5351255999994464,None,,,,,,,,,,,,P106,001,2024-11-15_11h13.52.918,posner_endo_new1,2024.2.4,60.04823073896068,2024-11-15 11h14.00.204682 +0000,
0.005,-0.31,14,4,1,down,3.5400237000030756,None,space,0.8357503000006545,None,,,,,1,4,14,7,,,,,6435.3522266,,,,,,,,,,,,6435.337097700001,6435.3522266,6435.3522266,6438.899724300001,,,,6438.900113399999,6438.9152091,6438.9152091,6438.9152091,6439.2148672,6439.765587000002,,,,down,3.5400237000030756,None,space,0.8357503000006545,None,,,,,,,,,,,,P106,001,2024-11-15_11h13.52.918,posner_endo_new1,2024.2.4,60.04823073896068,2024-11-15 11h14.00.204682 +0000,
10,0.005,15,5,1,up,2.2557497000016156,None,None,,,,,,,1,5,15,4,,,,,6439.781028400001,,,,,,,,,,,,6439.765861600001,6439.781028400001,6439.781028400001,6442.046691399999,,,,6442.0470819,6442.061955500001,6442.061955500001,6442.061955500001,6442.361768400002,6445.0591066000015,,,,up,2.2557497000016156,None,None,,,,,,,,,,,,,,P106,001,2024-11-15_11h13.52.918,posner_endo_new1,2024.2.4,60.04823073896068,2024-11-15 11h14.00.204682 +0000,
0.31,0.005,16,6,1,down,None,None,space,0.36418459999913466,None,,,,,1,6,16,1,,,,,6445.075545300002,,,,,,,,,,,,6445.059363200002,6445.075545300002,6445.075545300002,6445.193438999999,,,,6445.193827700001,6445.208693699999,6445.208693699999,6445.208693699999,6445.508438600002,6445.576499800001,,,,down,None,None,space,0.36418459999913466,None,,,,,,,,,,,,P106,001,2024-11-15_11h13.52.918,posner_endo_new1,2024.2.4,60.04823073896068,2024-11-15 11h14.00.204682 +0000,
0.005,10,17,7,1,up,1.7406062000009115,None,None,,,,,,,1,7,17,9,,,,,6445.591751100001,,,,,,,,,,,,6445.576779499999,6445.591751100001,6445.591751100001,6447.340702900001,,,,6447.3409818,6447.3564749,6447.3564749,6447.3564749,6447.6562760000015,6450.353524599999,,,,up,1.7406062000009115,None,None,,,,,,,,,,,,,,P106,001,2024-11-15_11h13.52.918,posner_endo_new1,2024.2.4,60.04823073896068,2024-11-15 11h14.00.204682 +0000,
0.31,0.005,18,8,1,up,3.8828732000001764,None,space,0.379637999998522,None,,,,,1,8,18,3,,,,,6450.370013600001,,,,,,,,,,,,6450.3536972,6450.370013600001,6450.370013600001,6454.266785799999,,,,6454.2670545,6454.2828362,6454.2828362,6454.2828362,6454.582388499999,6454.666519900002,,,,up,3.8828732000001764,None,space,0.379637999998522,None,,,,,,,,,,,,P106,001,2024-11-15_11h13.52.918,posner_endo_new1,2024.2.4,60.04823073896068,2024-11-15 11h14.00.204682 +0000,
0.005,0.31,19,9,1,down,3.1055336999997962,None,space,0.6669981999984884,None,,,,,1,9,19,6,,,,,6454.682348599999,,,,,,,,,,,,6454.6667074,6454.682348599999,6454.682348599999,6457.796657300001,,,,6457.7969311000015,6457.812574,6457.812574,6457.812574,6458.112295300001,6458.496014600001,,,,down,3.1055336999997962,None,space,0.6669981999984884,None,,,,,,,,,,,,P106,001,2024-11-15_11h13.52.918,posner_endo_new1,2024.2.4,60.04823073896068,2024-11-15 11h14.00.204682 +0000,
0.005,0.31,20,0,2,up,2.396909600000072,None,space,0.5238812000025064,None,,,,,2,0,20,6,,,,,6458.511773800001,,,,,,,,,,,,6458.496195700001,6458.511773800001,6458.511773800001,6460.910346000001,,,,6460.910617000001,6460.925768000001,6460.925768000001,6460.925768000001,6461.2255482,6461.459461499999,,,,up,2.396909600000072,None,space,0.5238812000025064,None,,,,,,,,,,,,P106,001,2024-11-15_11h13.52.918,posner_endo_new1,2024.2.4,60.04823073896068,2024-11-15 11h14.00.204682 +0000,
0.31,0.005,21,1,2,down,3.289241700000275,None,space,0.6325284000013198,None,,,,,2,1,21,3,,,,,6461.475502900001,,,,,,,,,,,,6461.459648799999,6461.475502900001,6461.475502900001,6464.772752699999,,,,6464.7730204,6464.788623299999,6464.788623299999,6464.788623299999,6465.088436099999,6465.422368899999,,,,down,3.289241700000275,None,space,0.6325284000013198,None,,,,,,,,,,,,P106,001,2024-11-15_11h13.52.918,posner_endo_new1,2024.2.4,60.04823073896068,2024-11-15 11h14.00.204682 +0000,
0.005,10,22,2,2,up,8.190314599996782,None,None,,,,,,,2,2,22,9,,,,,6465.438012900002,,,,,,,,,,,,6465.422555600002,6465.438012900002,6465.438012900002,6473.6305947,,,,6473.630877899999,6473.6462532000005,6473.6462532000005,6473.6462532000005,6473.945884600002,6476.643215100001,,,,up,8.190314599996782,None,None,,,,,,,,,,,,,,P106,001,2024-11-15_11h13.52.918,posner_endo_new1,2024.2.4,60.04823073896068,2024-11-15 11h14.00.204682 +0000,
-0.31,0.005,23,3,2,down,1.2004667999972298,None,space,0.5061721999991278,None,,,,,2,3,23,0,,,,,6476.659985300001,,,,,,,,,,,,6476.643388200002,6476.659985300001,6476.659985300001,6477.8760581999995,,,,6477.876322700002,6477.891970299999,6477.891970299999,6477.891970299999,6478.191723299999,6478.408845099999,,,,down,1.2004667999972298,None,space,0.5061721999991278,None,,,,,,,,,,,,P106,001,2024-11-15_11h13.52.918,posner_endo_new1,2024.2.4,60.04823073896068,2024-11-15 11h14.00.204682 +0000,
0.31,0.005,24,4,2,up,1.3804086999989522,None,space,0.765207399999781,None,,,,,2,4,24,1,,,,,6478.4247602,,,,,,,,,,,,6478.4090252999995,6478.4247602,6478.4247602,6479.807796000001,,,,6479.808100099999,6479.8232911999985,6479.8232911999985,6479.8232911999985,6480.1228304,6480.5901914999995,,,,up,1.3804086999989522,None,space,0.765207399999781,None,,,,,,,,,,,,P106,001,2024-11-15_11h13.52.918,posner_endo_new1,2024.2.4,60.04823073896068,2024-11-15 11h14.00.204682 +0000,
0.005,-0.31,25,5,2,down,3.430958199998713,None,space,0.7792909999989206,None,,,,,2,5,25,7,,,,,6480.605733600001,,,,,,,,,,,,6480.590372800001,6480.605733600001,6480.605733600001,6484.0532083,,,,6484.0534778,6484.068842299999,6484.068842299999,6484.068842299999,6484.3685258000005,6484.852331599999,,,,down,3.430958199998713,None,space,0.7792909999989206,None,,,,,,,,,,,,P106,001,2024-11-15_11h13.52.918,posner_endo_new1,2024.2.4,60.04823073896068,2024-11-15 11h14.00.204682 +0000,
0.005,-0.31,26,6,2,up,1.6799648000014713,None,space,0.6960522000008496,None,,,,,2,6,26,5,,,,,6484.868050100002,,,,,,,,,,,,6484.8525131999995,6484.868050100002,6484.868050100002,6486.550609500002,,,,6486.550877400001,6486.566290499999,6486.566290499999,6486.566290499999,6486.866065400001,6487.2665400000005,,,,up,1.6799648000014713,None,space,0.6960522000008496,None,,,,,,,,,,,,P106,001,2024-11-15_11h13.52.918,posner_endo_new1,2024.2.4,60.04823073896068,2024-11-15 11h14.00.204682 +0000,
0.005,0.31,27,7,2,down,2.690002799998183,None,space,0.4976771000001463,None,,,,,2,7,27,8,,,,,6487.2822433,,,,,,,,,,,,6487.2667196,6487.2822433,6487.2822433,6489.980528700002,,,,6489.9807980000005,6489.996122600001,6489.996122600001,6489.996122600001,6490.295925999999,6490.4966036000005,,,,down,2.690002799998183,None,space,0.4976771000001463,None,,,,,,,,,,,,P106,001,2024-11-15_11h13.52.918,posner_endo_new1,2024.2.4,60.04823073896068,2024-11-15 11h14.00.204682 +0000,
10,0.005,28,8,2,up,1.860366900000372,None,None,,,,,,,2,8,28,4,,,,,6490.512407900002,,,,,,,,,,,,6490.496795899999,6490.512407900002,6490.512407900002,6492.3779232000015,,,,6492.378191899999,6492.3937654,6492.3937654,6492.3937654,6492.693412200002,6495.390872,,,,up,1.860366900000372,None,None,,,,,,,,,,,,,,P106,001,2024-11-15_11h13.52.918,posner_endo_new1,2024.2.4,60.04823073896068,2024-11-15 11h14.00.204682 +0000,
-0.31,0.005,29,9,2,down,0.6767891000017698,None,space,0.44013020000056713,None,,,,,2,9,29,2,,,,,6495.407485899999,,,,,,,,,,,,6495.391048699999,6495.407485899999,6495.407485899999,6496.090732299999,,,,6496.090997700001,6496.106469800001,6496.106469800001,6496.106469800001,6496.4063215999995,6496.557104899999,,,,down,0.6767891000017698,None,space,0.44013020000056713,None,,,,,,,,,,,,P106,001,2024-11-15_11h13.52.918,posner_endo_new1,2024.2.4,60.04823073896068,2024-11-15 11h14.00.204682 +0000,
0.31,0.005,30,0,3,up,2.2960443000010855,None,space,0.5237779999988561,None,,,,,3,0,30,3,,,,,6496.572695999999,,,,,,,,,,,,6496.5572861,6496.572695999999,6496.572695999999,6498.871411200002,,,,6498.8716835999985,6498.8871363,6498.8871363,6498.8871363,6499.1868765,6499.420749500001,,,,up,2.2960443000010855,None,space,0.5237779999988561,None,,,,,,,,,,,,P106,001,2024-11-15_11h13.52.918,posner_endo_new1,2024.2.4,60.04823073896068,2024-11-15 11h14.00.204682 +0000,
0.31,0.005,31,1,3,down,2.911501300000964,None,space,0.8137212000001455,None,,,,,3,1,31,1,,,,,6499.4365459,,,,,,,,,,,,6499.4209305,6499.4365459,6499.4365459,6502.3508468,,,,6502.3511148,6502.366817300001,6502.366817300001,6502.366817300001,6502.6665815000015,6503.183493299999,,,,down,2.911501300000964,None,space,0.8137212000001455,None,,,,,,,,,,,,P106,001,2024-11-15_11h13.52.918,posner_endo_new1,2024.2.4,60.04823073896068,2024-11-15 11h14.00.204682 +0000,
0.005,-0.31,32,2,3,up,1.0047998000009102,None,space,0.6859948999990593,None,,,,,3,2,32,7,,,,,6503.199454900001,,,,,,,,,,,,6503.1836755,6503.199454900001,6503.199454900001,6504.215826300002,,,,6504.216103400002,6504.2316113000015,6504.2316113000015,6504.2316113000015,6504.531401799999,6504.931789000002,,,,up,1.0047998000009102,None,space,0.6859948999990593,None,,,,,,,,,,,,P106,001,2024-11-15_11h13.52.918,posner_endo_new1,2024.2.4,60.04823073896068,2024-11-15 11h14.00.204682 +0000,
10,0.005,33,3,3,down,3.393433199998981,None,None,,,,,,,3,3,33,4,,,,,6504.947549600001,,,,,,,,,,,,6504.931969199999,6504.947549600001,6504.947549600001,6508.345049399999,,,,6508.3453171,6508.360848100001,6508.360848100001,6508.360848100001,6508.660510400001,6511.357893700002,,,,down,3.393433199998981,None,None,,,,,,,,,,,,,,P106,001,2024-11-15_11h13.52.918,posner_endo_new1,2024.2.4,60.04823073896068,2024-11-15 11h14.00.204682 +0000,
0.005,0.31,34,4,3,down,5.117986200002633,None,space,0.5434408000000985,None,,,,,3,4,34,6,,,,,6511.3742759000015,,,,,,,,,,,,6511.358067000001,6511.3742759000015,6511.3742759000015,6516.503098500001,,,,6516.503369500002,6516.519196100002,6516.519196100002,6516.519196100002,6516.8188292999985,6517.0694650000005,,,,down,5.117986200002633,None,space,0.5434408000000985,None,,,,,,,,,,,,P106,001,2024-11-15_11h13.52.918,posner_endo_new1,2024.2.4,60.04823073896068,2024-11-15 11h14.00.204682 +0000,
-0.31,0.005,35,5,3,up,2.399375599998166,None,space,0.8868125999979384,None,,,,,3,5,35,0,,,,,6517.0851879,,,,,,,,,,,,6517.0696489,6517.0851879,6517.0851879,6519.500326199999,,,,6519.500594699999,6519.515902200001,6519.515902200001,6519.515902200001,6519.8157465,6520.4161681000005,,,,up,2.399375599998166,None,space,0.8868125999979384,None,,,,,,,,,,,,P106,001,2024-11-15_11h13.52.918,posner_endo_new1,2024.2.4,60.04823073896068,2024-11-15 11h14.00.204682 +0000,
0.005,-0.31,36,6,3,down,2.668529899998248,None,space,0.5860725000020466,None,,,,,3,6,36,5,,,,,6520.4318441,,,,,,,,,,,,6520.416349899999,6520.4318441,6520.4318441,6523.1131413,,,,6523.113412800001,6523.1289865,6523.1289865,6523.1289865,6523.428701600002,6523.7291687,,,,down,2.668529899998248,None,space,0.5860725000020466,None,,,,,,,,,,,,P106,001,2024-11-15_11h13.52.918,posner_endo_new1,2024.2.4,60.04823073896068,2024-11-15 11h14.00.204682 +0000,
-0.31,0.005,37,7,3,up,2.2592345000011846,None,space,0.7243785999999091,None,,,,,3,7,37,2,,,,,6523.745289099999,,,,,,,,,,,,6523.729355200001,6523.745289099999,6523.745289099999,6526.010210200002,,,,6526.0104820000015,6526.025962600001,6526.025962600001,6526.025962600001,6526.325709500001,6526.759280900002,,,,up,2.2592345000011846,None,space,0.7243785999999091,None,,,,,,,,,,,,P106,001,2024-11-15_11h13.52.918,posner_endo_new1,2024.2.4,60.04823073896068,2024-11-15 11h14.00.204682 +0000,
0.005,0.31,38,8,3,down,2.0930284000023676,None,space,0.7367002999999386,None,,,,,3,8,38,8,,,,,6526.775292300001,,,,,,,,,,,,6526.759466800002,6526.775292300001,6526.775292300001,6528.873915799999,,,,6528.874191499999,6528.8898252,6528.8898252,6528.8898252,6529.189401799998,6529.6399047999985,,,,down,2.0930284000023676,None,space,0.7367002999999386,None,,,,,,,,,,,,P106,001,2024-11-15_11h13.52.918,posner_endo_new1,2024.2.4,60.04823073896068,2024-11-15 11h14.00.204682 +0000,
0.005,10,39,9,3,up,1.2769946000007621,None,None,,,,,,,3,9,39,9,,,,,6529.655541,,,,,,,,,,,,6529.640090699999,6529.655541,6529.655541,6530.938356300001,,,,6530.938627700001,6530.9544928,6530.9544928,6530.9544928,6531.254030700002,6533.951425200001,,,,up,1.2769946000007621,None,None,,,,,,,,,,,,,,P106,001,2024-11-15_11h13.52.918,posner_endo_new1,2024.2.4,60.04823073896068,2024-11-15 11h14.00.204682 +0000,
0.005,0.31,40,0,4,up,3.0290830000012647,None,space,0.43928299999970477,None,,,,,4,0,40,8,,,,,6533.9680168999985,,,,,,,,,,,,6533.951606800001,6533.9680168999985,6533.9680168999985,6536.9990005,,,,6536.9992724,6537.014928799999,6537.014928799999,6537.014928799999,6537.3145635,6537.4650277,,,,up,3.0290830000012647,None,space,0.43928299999970477,None,,,,,,,,,,,,P106,001,2024-11-15_11h13.52.918,posner_endo_new1,2024.2.4,60.04823073896068,2024-11-15 11h14.00.204682 +0000,
0.31,0.005,41,1,4,down,2.812805899997329,None,space,0.45141549999971176,None,,,,,4,1,41,3,,,,,6537.481088200002,,,,,,,,,,,,6537.465208000001,6537.481088200002,6537.481088200002,6540.295664000001,,,,6540.2959338,6540.311336800001,6540.311336800001,6540.311336800001,6540.611261599999,6540.7786648,,,,down,2.812805899997329,None,space,0.45141549999971176,None,,,,,,,,,,,,P106,001,2024-11-15_11h13.52.918,posner_endo_new1,2024.2.4,60.04823073896068,2024-11-15 11h14.00.204682 +0000,
-0.31,0.005,42,2,4,up,2.122068600001512,None,space,0.6702904000012495,None,,,,,4,2,42,2,,,,,6540.7942396,,,,,,,,,,,,6540.778847199999,6540.7942396,6540.7942396,6542.926166100002,,,,6542.9264372,6542.9422595,6542.9422595,6542.9422595,6543.241965000001,6543.625427399998,,,,up,2.122068600001512,None,space,0.6702904000012495,None,,,,,,,,,,,,P106,001,2024-11-15_11h13.52.918,posner_endo_new1,2024.2.4,60.04823073896068,2024-11-15 11h14.00.204682 +0000,
-0.31,0.005,43,3,4,up,5.243243999997503,None,space,0.5380159000014828,None,,,,,4,3,43,0,,,,,6543.641342400002,,,,,,,,,,,,6543.6256140000005,6543.641342400002,6543.641342400002,6548.886780299999,,,,6548.8870621999995,6548.9025525,6548.9025525,6548.9025525,6549.202402999999,6549.452997799999,,,,up,5.243243999997503,None,space,0.5380159000014828,None,,,,,,,,,,,,P106,001,2024-11-15_11h13.52.918,posner_endo_new1,2024.2.4,60.04823073896068,2024-11-15 11h14.00.204682 +0000,
0.005,0.31,44,4,4,down,2.6002713999987463,None,space,0.6355930999998236,None,,,,,4,4,44,6,,,,,6549.4686836,,,,,,,,,,,,6549.453179799999,6549.4686836,6549.4686836,6552.0835511000005,,,,6552.083829700001,6552.0993332,6552.0993332,6552.0993332,6552.398989100002,6552.749735500001,,,,down,2.6002713999987463,None,space,0.6355930999998236,None,,,,,,,,,,,,P106,001,2024-11-15_11h13.52.918,posner_endo_new1,2024.2.4,60.04823073896068,2024-11-15 11h14.00.204682 +0000,
10,0.005,45,5,4,down,4.511333400001604,None,None,,,,,,,4,5,45,4,,,,,6552.765333800002,,,,,,,,,,,,6552.749922999999,6552.765333800002,6552.765333800002,6557.278589199999,,,,6557.2788669,6557.2939749,6557.2939749,6557.2939749,6557.593703999999,6560.2911895,,,,down,4.511333400001604,None,None,,,,,,,,,,,,,,P106,001,2024-11-15_11h13.52.918,posner_endo_new1,2024.2.4,60.04823073896068,2024-11-15 11h14.00.204682 +0000,
0.005,10,46,6,4,up,0.5764785999999731,None,None,,,,,,,4,6,46,9,,,,,6560.3074691,,,,,,,,,,,,6560.291384200002,6560.3074691,6560.3074691,6560.8909317,,,,6560.891206,6560.906858499999,6560.906858499999,6560.906858499999,6561.206818900002,6563.904033300001,,,,up,0.5764785999999731,None,None,,,,,,,,,,,,,,P106,001,2024-11-15_11h13.52.918,posner_endo_new1,2024.2.4,60.04823073896068,2024-11-15 11h14.00.204682 +0000,
0.31,0.005,47,7,4,up,7.723408100002416,None,space,0.44339550000222516,None,,,,,4,7,47,1,,,,,6563.9207116,,,,,,,,,,,,6563.904214000002,6563.9207116,6563.9207116,6571.646856700001,,,,6571.647137399999,6571.662919800001,6571.662919800001,6571.662919800001,6571.9623716999995,6572.1130042,,,,up,7.723408100002416,None,space,0.44339550000222516,None,,,,,,,,,,,,P106,001,2024-11-15_11h13.52.918,posner_endo_new1,2024.2.4,60.04823073896068,2024-11-15 11h14.00.204682 +0000,
0.005,-0.31,48,8,4,down,3.1394352999996045,None,space,0.7025628000010329,None,,,,,4,8,48,7,,,,,6572.128671800001,,,,,,,,,,,,6572.113189,6572.128671800001,6572.128671800001,6575.2764400000015,,,,6575.276694200002,6575.292185900002,6575.292185900002,6575.292185900002,6575.592023199999,6576.009087400002,,,,down,3.1394352999996045,None,space,0.7025628000010329,None,,,,,,,,,,,,P106,001,2024-11-15_11h13.52.918,posner_endo_new1,2024.2.4,60.04823073896068,2024-11-15 11h14.00.204682 +0000,
0.005,-0.31,49,9,4,up,1.580024399998365,None,space,0.6526499999999942,None,,,,,4,9,49,5,,,,,6576.024895300001,,,,,,,,,,,,6576.009245000001,6576.024895300001,6576.024895300001,6577.607603200002,,,,6577.607859700001,6577.6231032,6577.6231032,6577.6231032,6577.9231186,6578.2901987000005,,,,up,1.580024399998365,None,space,0.6526499999999942,None,,,,,,,,,,,,P106,001,2024-11-15_11h13.52.918,posner_endo_new1,2024.2.4,60.04823073896068,2024-11-15 11h14.00.204682 +0000,
0.31,0.005,50,0,5,down,3.1961427999995067,None,space,0.6401050999993458,None,,,,,5,0,50,3,,,,,6578.305903600001,,,,,,,,,,,,6578.290356900001,6578.305903600001,6578.305903600001,6581.503665100001,,,,6581.503912200002,6581.519178499999,6581.519178499999,6581.519178499999,6581.819135400001,6582.1691756,,,,down,3.1961427999995067,None,space,0.6401050999993458,None,,,,,,,,,,,,P106,001,2024-11-15_11h13.52.918,posner_endo_new1,2024.2.4,60.04823073896068,2024-11-15 11h14.00.204682 +0000,
0.005,0.31,51,1,5,up,1.5149630999985675,None,space,0.5049751999977161,None,,,,,5,1,51,6,,,,,6582.1853329000005,,,,,,,,,,,,6582.169342100002,6582.1853329000005,6582.1853329000005,6583.701303099999,,,,6583.701553999999,6583.7172078,6583.7172078,6583.7172078,6584.0166336,6584.233936200002,,,,up,1.5149630999985675,None,space,0.5049751999977161,None,,,,,,,,,,,,P106,001,2024-11-15_11h13.52.918,posner_endo_new1,2024.2.4,60.04823073896068,2024-11-15 11h14.00.204682 +0000,
0.005,-0.31,52,2,5,down,2.154822599997715,None,space,0.9955528000027698,None,,,,,5,2,52,5,,,,,6584.2497650000005,,,,,,,,,,,,6584.2340920999995,6584.2497650000005,6584.2497650000005,6586.4150125000015,,,,6586.4152521,6586.4309221,6586.4309221,6586.4309221,6586.7306952,6587.430712199999,,,,down,2.154822599997715,None,space,0.9955528000027698,None,,,,,,,,,,,,P106,001,2024-11-15_11h13.52.918,posner_endo_new1,2024.2.4,60.04823073896068,2024-11-15 11h14.00.204682 +0000,
0.005,10,53,3,5,up,1.005318499999703,None,None,,,,,,,5,3,53,9,,,,,6587.446677,,,,,,,,,,,,6587.4308759999985,6587.446677,6587.446677,6588.4627795000015,,,,6588.4630196,6588.4788329,6588.4788329,6588.4788329,6588.778479500001,6591.475818400002,,,,up,1.005318499999703,None,None,,,,,,,,,,,,,,P106,001,2024-11-15_11h13.52.918,posner_endo_new1,2024.2.4,60.04823073896068,2024-11-15 11h14.00.204682 +0000,
0.005,0.31,54,4,5,down,6.040098699999362,None,space,0.7013713000014832,None,,,,,5,4,54,8,,,,,6591.492342599999,,,,,,,,,,,,6591.4759724,6591.492342599999,6591.492342599999,6597.537067199999,,,,6597.5373322999985,6597.5529164,6597.5529164,6597.5529164,6597.8527053,6598.269572000001,,,,down,6.040098699999362,None,space,0.7013713000014832,None,,,,,,,,,,,,P106,001,2024-11-15_11h13.52.918,posner_endo_new1,2024.2.4,60.04823073896068,2024-11-15 11h14.00.204682 +0000,
10,0.005,55,5,5,up,7.534342200000538,None,None,,,,,,,5,5,55,4,,,,,6598.285607599999,,,,,,,,,,,,6598.269731,6598.285607599999,6598.285607599999,6605.828465499999,,,,6605.828703700001,6605.844284999999,6605.844284999999,6605.844284999999,6606.1440807,6608.841492200001,,,,up,7.534342200000538,None,None,,,,,,,,,,,,,,P106,001,2024-11-15_11h13.52.918,posner_endo_new1,2024.2.4,60.04823073896068,2024-11-15 11h14.00.204682 +0000,
0.005,-0.31,56,6,5,down,0.058659300000726944,None,space,0.46931400000175927,None,,,,,5,6,56,7,,,,,6608.858139799999,,,,,,,,,,,,6608.841645200002,6608.858139799999,6608.858139799999,6608.925338100002,,,,6608.925575699999,6608.941117599999,6608.941117599999,6608.941117599999,6609.241396900001,6609.424873,,,,down,0.058659300000726944,None,space,0.46931400000175927,None,,,,,,,,,,,,P106,001,2024-11-15_11h13.52.918,posner_endo_new1,2024.2.4,60.04823073896068,2024-11-15 11h14.00.204682 +0000,
-0.31,0.005,57,7,5,up,2.115650200001255,None,space,0.7423645999988366,None,,,,,5,7,57,2,,,,,6609.440785499999,,,,,,,,,,,,6609.425030400002,6609.440785499999,6609.440785499999,6611.572634799999,,,,6611.572877499999,6611.588492400002,6611.588492400002,6611.588492400002,6611.888022499999,6612.3386015,,,,up,2.115650200001255,None,space,0.7423645999988366,None,,,,,,,,,,,,P106,001,2024-11-15_11h13.52.918,posner_endo_new1,2024.2.4,60.04823073896068,2024-11-15 11h14.00.204682 +0000,
-0.31,0.005,58,8,5,down,2.929871500000445,None,space,0.5637788999993063,None,,,,,5,8,58,0,,,,,6612.354365399999,,,,,,,,,,,,6612.338757400001,6612.354365399999,6612.354365399999,6615.2856648000015,,,,6615.2859094999985,6615.3013632,6615.3013632,6615.3013632,6615.601269400002,6615.868137199999,,,,down,2.929871500000445,None,space,0.5637788999993063,None,,,,,,,,,,,,P106,001,2024-11-15_11h13.52.918,posner_endo_new1,2024.2.4,60.04823073896068,2024-11-15 11h14.00.204682 +0000,
0.31,0.005,59,9,5,up,1.4879750000000058,None,space,0.7120963999986998,None,,,,,5,9,59,1,,,,,6615.8842535,,,,,,,,,,,,6615.868294700002,6615.8842535,6615.8842535,6617.383258400001,,,,6617.383529999999,6617.398937400001,6617.398937400001,6617.398937400001,6617.6993821,6618.115649300002,,,,up,1.4879750000000058,None,space,0.7120963999986998,None,,,,,,,,,,,,P106,001,2024-11-15_11h13.52.918,posner_endo_new1,2024.2.4,60.04823073896068,2024-11-15 11h14.00.204682 +0000,
,,,,,,,,,,,,,,,,,,,,,,,,,,,,,,,,,,,,,,,,,,,,,,,,,,,,,,,,,6618.115758100001,6618.131621500001,6618.131621500001,6678.104296599999,None,,,,,,,P106,001,2024-11-15_11h13.52.918,posner_endo_new1,2024.2.4,60.04823073896068,2024-11-15 11h14.00.204682 +0000,
,,,,,,,,,,,,,,,,,,,,,,,,,,,,,,,,6678.1043469,6678.120278499999,6681.117566299999,,,,,,,,,,,,,,,,,,,,,,,,,,,,,,,,,,P106,001,2024-11-15_11h13.52.918,posner_endo_new1,2024.2.4,60.04823073896068,2024-11-15 11h14.00.204682 +0000,
0.31,0.005,0,0,0,down,1.6779968999981065,None,space,0.5024524000000383,None,,,,,,,,,0,0,0,1,6681.134396100002,,,,,,,,,,,,6681.123562600002,6681.134396100002,6681.134396100002,6682.818297000002,,,,6682.8191240000015,6682.832824600002,6682.832824600002,6682.832824600002,6683.132266699999,6683.351164200001,,,,,,,,,,,,,,,down,1.6779968999981065,None,space,0.5024524000000383,None,P106,001,2024-11-15_11h13.52.918,posner_endo_new1,2024.2.4,60.04823073896068,2024-11-15 11h14.00.204682 +0000,
0.005,0.31,1,1,0,up,2.598869699999341,None,space,0.45789460000014515,None,,,,,,,,,0,1,1,8,6683.3653567,,,,,,,,,,,,6683.351725600001,6683.3653567,6683.3653567,6685.981441399999,,,,6685.982207600002,6685.996061900001,6685.996061900001,6685.996061900001,6686.295644900001,6686.4647401,,,,,,,,,,,,,,,up,2.598869699999341,None,space,0.45789460000014515,None,P106,001,2024-11-15_11h13.52.918,posner_endo_new1,2024.2.4,60.04823073896068,2024-11-15 11h14.00.204682 +0000,
-0.31,0.005,2,2,0,down,3.1978481999976793,None,space,0.4373898999983794,None,,,,,,,,,0,2,2,2,6686.478837400002,,,,,,,,,,,,6686.465295000002,6686.478837400002,6686.478837400002,6689.6943794,,,,6689.695121500001,6689.708889900001,6689.708889900001,6689.708889900001,6690.008564200001,6690.160728400002,,,,,,,,,,,,,,,down,3.1978481999976793,None,space,0.4373898999983794,None,P106,001,2024-11-15_11h13.52.918,posner_endo_new1,2024.2.4,60.04823073896068,2024-11-15 11h14.00.204682 +0000,
0.005,10,3,3,0,up,1.9252087999993819,None,None,,,,,,,,,,,0,3,3,9,6690.175069299999,,,,,,,,,,,,6690.161278800002,6690.175069299999,6690.175069299999,6692.1089636,,,,6692.109709100001,6692.1233383,6692.1233383,6692.1233383,6692.422760400001,6695.120311800001,,,,,,,,,,,,,,,up,1.9252087999993819,None,None,,,P106,001,2024-11-15_11h13.52.918,posner_endo_new1,2024.2.4,60.04823073896068,2024-11-15 11h14.00.204682 +0000,
0.005,-0.31,4,4,0,down,0.5005323000004864,None,space,0.857845599999564,None,,,,,,,,,0,4,4,7,6695.136659899999,,,,,,,,,,,,6695.120812699999,6695.136659899999,6695.136659899999,6695.654879500002,,,,6695.655643800001,6695.6694298,6695.6694298,6695.6694298,6695.9691152999985,6696.537511999999,,,,,,,,,,,,,,,down,0.5005323000004864,None,space,0.857845599999564,None,P106,001,2024-11-15_11h13.52.918,posner_endo_new1,2024.2.4,60.04823073896068,2024-11-15 11h14.00.204682 +0000,
0.005,-0.31,5,5,0,up,2.469040700001642,None,space,0.5411440999996557,None,,,,,,,,,0,5,5,5,6696.551924700001,,,,,,,,,,,,6696.538051200001,6696.551924700001,6696.551924700001,6699.035001799999,,,,6699.035758099999,6699.049577099999,6699.049577099999,6699.049577099999,6699.349004899999,6699.6011168,,,,,,,,,,,,,,,up,2.469040700001642,None,space,0.5411440999996557,None,P106,001,2024-11-15_11h13.52.918,posner_endo_new1,2024.2.4,60.04823073896068,2024-11-15 11h14.00.204682 +0000,
0.31,0.005,6,6,0,down,3.1171624999988126,None,space,0.4448329000006197,None,,,,,,,,,0,6,6,3,6699.6153529,,,,,,,,,,,,6699.601666300001,6699.6153529,6699.6153529,6702.7478004,,,,6702.748544999999,6702.762399499999,6702.762399499999,6702.762399499999,6703.061924000001,6703.2145084,,,,,,,,,,,,,,,down,3.1171624999988126,None,space,0.4448329000006197,None,P106,001,2024-11-15_11h13.52.918,posner_endo_new1,2024.2.4,60.04823073896068,2024-11-15 11h14.00.204682 +0000,
0.005,0.31,7,7,0,up,1.4882962000010593,None,space,0.55871660000048,None,,,,,,,,,0,7,7,6,6703.228320599999,,,,,,,,,,,,6703.2150511,6703.228320599999,6703.228320599999,6704.729150200001,,,,6704.7299158999995,6704.7437003999985,6704.7437003999985,6704.7437003999985,6705.043178700002,6705.312081,,,,,,,,,,,,,,,up,1.4882962000010593,None,space,0.55871660000048,None,P106,001,2024-11-15_11h13.52.918,posner_endo_new1,2024.2.4,60.04823073896068,2024-11-15 11h14.00.204682 +0000,
-0.31,0.005,8,8,0,down,2.150014300001203,None,space,0.45270929999969667,None,,,,,,,,,0,8,8,0,6705.3262254,,,,,,,,,,,,6705.312653000001,6705.3262254,6705.3262254,6707.493172999999,,,,6707.4939314,6707.507460500001,6707.507460500001,6707.507460500001,6707.8070205,6707.975905300002,,,,,,,,,,,,,,,down,2.150014300001203,None,space,0.45270929999969667,None,P106,001,2024-11-15_11h13.52.918,posner_endo_new1,2024.2.4,60.04823073896068,2024-11-15 11h14.00.204682 +0000,
10,0.005,9,9,0,up,2.198849100001098,None,None,,,,,,,,,,,0,9,9,4,6707.9901433999985,,,,,,,,,,,,6707.976462999999,6707.9901433999985,6707.9901433999985,6710.2067078,,,,6710.2074503,6710.2212344,6710.2212344,6710.2212344,6710.520898999999,6713.2184399,,,,,,,,,,,,,,,up,2.198849100001098,None,None,,,P106,001,2024-11-15_11h13.52.918,posner_endo_new1,2024.2.4,60.04823073896068,2024-11-15 11h14.00.204682 +0000,
-0.31,0.005,10,0,1,up,5.954135599997244,None,space,0.5336740999991889,None,,,,,,,,,1,0,10,2,6713.234842500002,,,,,,,,,,,,6713.218955299999,6713.234842500002,6713.234842500002,6719.197729300002,,,,6719.198492800002,6719.2121928000015,6719.2121928000015,6719.2121928000015,6719.5117506999995,6719.763508700002,,,,,,,,,,,,,,,up,5.954135599997244,None,space,0.5336740999991889,None,P106,001,2024-11-15_11h13.52.918,posner_endo_new1,2024.2.4,60.04823073896068,2024-11-15 11h14.00.204682 +0000,
0.005,10,11,1,1,down,3.218871000000945,None,None,,,,,,,,,,,1,1,11,9,6719.778152700001,,,,,,,,,,,,6719.7640587999995,6719.778152700001,6719.778152700001,6723.008871099999,,,,6723.009308799999,6723.024132999999,6723.024132999999,6723.024132999999,6723.3238649999985,6726.021246100001,,,,,,,,,,,,,,,down,3.218871000000945,None,None,,,P106,001,2024-11-15_11h13.52.918,posner_endo_new1,2024.2.4,60.04823073896068,2024-11-15 11h14.00.204682 +0000,
0.005,0.31,12,2,1,up,0.13509499999781838,None,space,0.4323640999973577,None,,,,,,,,,1,2,12,8,6726.0377314,,,,,,,,,,,,6726.021528600002,6726.0377314,6726.0377314,6726.188872800001,,,,6726.1892959,6726.2042334,6726.2042334,6726.2042334,6726.503920200001,6726.638535099999,,,,,,,,,,,,,,,up,0.13509499999781838,None,space,0.4323640999973577,None,P106,001,2024-11-15_11h13.52.918,posner_endo_new1,2024.2.4,60.04823073896068,2024-11-15 11h14.00.204682 +0000,
0.31,0.005,13,3,1,down,3.7029264999982843,None,space,0.5920780000014929,None,,,,,,,,,1,3,13,3,6726.6537432000005,,,,,,,,,,,,6726.638835900001,6726.6537432000005,6726.6537432000005,6730.3679438,,,,6730.3683666,6730.383304499999,6730.383304499999,6730.383304499999,6730.6829784,6730.9839818,,,,,,,,,,,,,,,down,3.7029264999982843,None,space,0.5920780000014929,None,P106,001,2024-11-15_11h13.52.918,posner_endo_new1,2024.2.4,60.04823073896068,2024-11-15 11h14.00.204682 +0000,
0.31,0.005,14,4,1,up,2.6377960999998322,None,space,0.527680799998052,None,,,,,,,,,1,4,14,1,6730.999346100001,,,,,,,,,,,,6730.9842833,6730.999346100001,6730.999346100001,6733.647920300002,,,,6733.648350700001,6733.6632455,6733.6632455,6733.6632455,6733.962959299999,6734.1974156,,,,,,,,,,,,,,,up,2.6377960999998322,None,space,0.527680799998052,None,P106,001,2024-11-15_11h13.52.918,posner_endo_new1,2024.2.4,60.04823073896068,2024-11-15 11h14.00.204682 +0000,
0.005,-0.31,15,5,1,down,3.591618300000846,None,space,0.37521469999774126,None,,,,,,,,,1,5,15,7,6734.212693900001,,,,,,,,,,,,6734.197718399999,6734.212693900001,6734.212693900001,6737.810475999999,,,,6737.810909100001,6737.8256889,6737.8256889,6737.8256889,6738.125369100002,6738.209992600001,,,,,,,,,,,,,,,down,3.591618300000846,None,space,0.37521469999774126,None,P106,001,2024-11-15_11h13.52.918,posner_endo_new1,2024.2.4,60.04823073896068,2024-11-15 11h14.00.204682 +0000,
0.005,-0.31,16,6,1,up,3.243168999997579,None,space,0.3976266999998188,None,,,,,,,,,1,6,16,5,6738.225272899999,,,,,,,,,,,,6738.2102958,6738.225272899999,6738.225272899999,6741.4734727,,,,6741.473895700001,6741.488591000001,6741.488591000001,6741.488591000001,6741.7882777999985,6741.889668799999,,,,,,,,,,,,,,,up,3.243168999997579,None,space,0.3976266999998188,None,P106,001,2024-11-15_11h13.52.918,posner_endo_new1,2024.2.4,60.04823073896068,2024-11-15 11h14.00.204682 +0000,
10,0.005,17,7,1,down,2.9639763999985007,None,None,,,,,,,,,,,1,7,17,4,6741.904840499999,,,,,,,,,,,,6741.889979399999,6741.904840499999,6741.904840499999,6744.8700924,,,,6744.87052,6744.885133399999,6744.885133399999,6744.885133399999,6745.184787000002,6747.882254299999,,,,,,,,,,,,,,,down,2.9639763999985007,None,None,,,P106,001,2024-11-15_11h13.52.918,posner_endo_new1,2024.2.4,60.04823073896068,2024-11-15 11h14.00.204682 +0000,
0.005,0.31,18,8,1,down,2.3217069000020274,None,space,0.5737817000008363,None,,,,,,,,,1,8,18,6,6747.8986922,,,,,,,,,,,,6747.8825454,6747.8986922,6747.8986922,6750.230919500002,,,,6750.231366299999,6750.246346799999,6750.246346799999,6750.246346799999,6750.5460069,6750.830347700001,,,,,,,,,,,,,,,down,2.3217069000020274,None,space,0.5737817000008363,None,P106,001,2024-11-15_11h13.52.918,posner_endo_new1,2024.2.4,60.04823073896068,2024-11-15 11h14.00.204682 +0000,
-0.31,0.005,19,9,1,up,6.782977300001221,None,space,0.5770873999972537,None,,,,,,,,,1,9,19,0,6750.845784500001,,,,,,,,,,,,6750.830651200002,6750.845784500001,6750.845784500001,6757.640123100002,,,,6757.6405452,6757.655407999999,6757.655407999999,6757.655407999999,6757.955103600001,6758.239531399999,,,,,,,,,,,,,,,up,6.782977300001221,None,space,0.5770873999972537,None,P106,001,2024-11-15_11h13.52.918,posner_endo_new1,2024.2.4,60.04823073896068,2024-11-15 11h14.00.204682 +0000,
0.005,-0.31,20,0,2,down,3.302015900000697,None,space,0.5318358999975317,None,,,,,,,,,2,0,20,7,6758.2547796,,,,,,,,,,,,6758.239833399999,6758.2547796,6758.2547796,6761.569340599999,,,,6761.569781599999,6761.584730300001,6761.584730300001,6761.584730300001,6761.8844008000015,6762.118968999999,,,,,,,,,,,,,,,down,3.302015900000697,None,space,0.5318358999975317,None,P106,001,2024-11-15_11h13.52.918,posner_endo_new1,2024.2.4,60.04823073896068,2024-11-15 11h14.00.204682 +0000,
10,0.005,21,1,2,up,2.1343854000006104,None,None,,,,,,,,,,,2,1,21,4,6762.1341574,,,,,,,,,,,,6762.119267999999,6762.1341574,6762.1341574,6764.283270100001,,,,6764.283702799999,6764.2990656,6764.2990656,6764.2990656,6764.598612400001,6767.296057300002,,,,,,,,,,,,,,,up,2.1343854000006104,None,None,,,P106,001,2024-11-15_11h13.52.918,posner_endo_new1,2024.2.4,60.04823073896068,2024-11-15 11h14.00.204682 +0000,
0.005,0.31,22,2,2,down,0.8925423000000592,None,space,0.5768591000014567,None,,,,,,,,,2,2,22,8,6767.312609100001,,,,,,,,,,,,6767.2962591,6767.312609100001,6767.312609100001,6768.212745699999,,,,6768.213048000001,6768.228394099999,6768.228394099999,6768.228394099999,6768.528084699999,6768.811979999999,,,,,,,,,,,,,,,down,0.8925423000000592,None,space,0.5768591000014567,None,P106,001,2024-11-15_11h13.52.918,posner_endo_new1,2024.2.4,60.04823073896068,2024-11-15 11h14.00.204682 +0000,
0.31,0.005,23,3,2,down,5.033121700002084,None,space,0.6305878000021039,None,,,,,,,,,2,3,23,3,6768.827794699999,,,,,,,,,,,,6768.812191600002,6768.827794699999,6768.827794699999,6773.873506100001,,,,6773.8738061,6773.889273699999,6773.889273699999,6773.889273699999,6774.188750900001,6774.522778999999,,,,,,,,,,,,,,,down,5.033121700002084,None,space,0.6305878000021039,None,P106,001,2024-11-15_11h13.52.918,posner_endo_new1,2024.2.4,60.04823073896068,2024-11-15 11h14.00.204682 +0000,
0.31,0.005,24,4,2,up,2.3382720000008703,None,space,0.5833028000015474,None,,,,,,,,,2,4,24,1,6774.538600200001,,,,,,,,,,,,6774.522993400002,6774.538600200001,6774.538600200001,6776.887134699999,,,,6776.887433200001,6776.902783900001,6776.902783900001,6776.902783900001,6777.202503600001,6777.5029354,,,,,,,,,,,,,,,up,2.3382720000008703,None,space,0.5833028000015474,None,P106,001,2024-11-15_11h13.52.918,posner_endo_new1,2024.2.4,60.04823073896068,2024-11-15 11h14.00.204682 +0000,
-0.31,0.005,25,5,2,down,2.1420204999994894,None,space,0.6132285999992746,None,,,,,,,,,2,5,25,0,6777.518810400001,,,,,,,,,,,,6777.503151100002,6777.518810400001,6777.518810400001,6779.667695100001,,,,6779.667994399999,6779.683395600001,6779.683395600001,6779.683395600001,6779.983128200001,6780.300294500001,,,,,,,,,,,,,,,down,2.1420204999994894,None,space,0.6132285999992746,None,P106,001,2024-11-15_11h13.52.918,posner_endo_new1,2024.2.4,60.04823073896068,2024-11-15 11h14.00.204682 +0000,
0.005,-0.31,26,6,2,up,11.584870800001227,None,space,0.42989350000061677,None,,,,,,,,,2,6,26,5,6780.315962299999,,,,,,,,,,,,6780.3005089,6780.315962299999,6780.315962299999,6791.9051819000015,,,,6791.905481099999,6791.920778899999,6791.920778899999,6791.920778899999,6792.220553800002,6792.354615200002,,,,,,,,,,,,,,,up,11.584870800001227,None,space,0.42989350000061677,None,P106,001,2024-11-15_11h13.52.918,posner_endo_new1,2024.2.4,60.04823073896068,2024-11-15 11h14.00.204682 +0000,
0.005,0.31,27,7,2,down,4.402420399997936,None,space,0.7129778000016813,None,,,,,,,,,2,7,27,6,6792.370381600002,,,,,,,,,,,,6792.354824099999,6792.370381600002,6792.370381600002,6796.783509299999,,,,6796.7838128,6796.799148500002,6796.799148500002,6796.799148500002,6797.0987704,6797.515972600002,,,,,,,,,,,,,,,down,4.402420399997936,None,space,0.7129778000016813,None,P106,001,2024-11-15_11h13.52.918,posner_endo_new1,2024.2.4,60.04823073896068,2024-11-15 11h14.00.204682 +0000,
-0.31,0.005,28,8,2,up,2.6333479000022635,None,space,0.5320968000014545,None,,,,,,,,,2,8,28,2,6797.531794900002,,,,,,,,,,,,6797.516185,6797.531794900002,6797.531794900002,6800.180037599999,,,,6800.1803368,6800.195806300002,6800.195806300002,6800.195806300002,6800.495352999998,6800.729563699999,,,,,,,,,,,,,,,up,2.6333479000022635,None,space,0.5320968000014545,None,P106,001,2024-11-15_11h13.52.918,posner_endo_new1,2024.2.4,60.04823073896068,2024-11-15 11h14.00.204682 +0000,
0.005,10,29,9,2,down,2.0285118000028888,None,None,,,,,,,,,,,2,9,29,9,6800.745094400001,,,,,,,,,,,,6800.729770000002,6800.745094400001,6800.745094400001,6802.777322500002,,,,6802.7776282999985,6802.792986799999,6802.792986799999,6802.792986799999,6803.0925489,6805.790076699999,,,,,,,,,,,,,,,down,2.0285118000028888,None,None,,,P106,001,2024-11-15_11h13.52.918,posner_endo_new1,2024.2.4,60.04823073896068,2024-11-15 11h14.00.204682 +0000,
0.005,0.31,30,0,3,down,4.846589900000254,None,space,0.4420691999985138,None,,,,,,,,,3,0,30,8,6805.806541400001,,,,,,,,,,,,6805.7902748000015,6805.806541400001,6805.806541400001,6810.669129599999,,,,6810.669443999999,6810.684984300002,6810.684984300002,6810.684984300002,6810.9846196,6811.135763900002,,,,,,,,,,,,,,,down,4.846589900000254,None,space,0.4420691999985138,None,P106,001,2024-11-15_11h13.52.918,posner_endo_new1,2024.2.4,60.04823073896068,2024-11-15 11h14.00.204682 +0000,
-0.31,0.005,31,1,3,up,3.1500522999995155,None,space,0.5681275999995705,None,,,,,,,,,3,1,31,0,6811.150962600001,,,,,,,,,,,,6811.135976400001,6811.150962600001,6811.150962600001,6814.315617,,,,6814.3159381000005,6814.3312377,6814.3312377,6814.3312377,6814.6309783,6814.9149569,,,,,,,,,,,,,,,up,3.1500522999995155,None,space,0.5681275999995705,None,P106,001,2024-11-15_11h13.52.918,posner_endo_new1,2024.2.4,60.04823073896068,2024-11-15 11h14.00.204682 +0000,
-0.31,0.005,32,2,3,down,2.849992600000405,None,space,0.5495163000014145,None,,,,,,,,,3,2,32,2,6814.930614199999,,,,,,,,,,,,6814.915163500002,6814.930614199999,6814.930614199999,6817.795176399999,,,,6817.795489100001,6817.810971300001,6817.810971300001,6817.810971300001,6818.110594599999,6818.361386100001,,,,,,,,,,,,,,,down,2.849992600000405,None,space,0.5495163000014145,None,P106,001,2024-11-15_11h13.52.918,posner_endo_new1,2024.2.4,60.04823073896068,2024-11-15 11h14.00.204682 +0000,
0.31,0.005,33,3,3,up,2.0835257999970054,None,space,0.480035599997791,None,,,,,,,,,3,3,33,3,6818.377182,,,,,,,,,,,,6818.361605099999,6818.377182,6818.377182,6820.475647399999,,,,6820.475945999999,6820.491674000001,6820.491674000001,6820.491674000001,6820.791299299999,6820.975469699999,,,,,,,,,,,,,,,up,2.0835257999970054,None,space,0.480035599997791,None,P106,001,2024-11-15_11h13.52.918,posner_endo_new1,2024.2.4,60.04823073896068,2024-11-15 11h14.00.204682 +0000,
10,0.005,34,4,3,down,3.5978333999992174,None,None,,,,,,,,,,,3,4,34,4,6820.99108,,,,,,,,,,,,6820.9756839,6820.99108,6820.99108,6824.604879800001,,,,6824.605183600001,6824.6204679,6824.6204679,6824.6204679,6824.9204001,6827.6175600999995,,,,,,,,,,,,,,,down,3.5978333999992174,None,None,,,P106,001,2024-11-15_11h13.52.918,posner_endo_new1,2024.2.4,60.04823073896068,2024-11-15 11h14.00.204682 +0000,
0.31,0.005,35,5,3,up,1.3938772000001336,None,space,0.4026126999997359,None,,,,,,,,,3,5,35,1,6827.634274799999,,,,,,,,,,,,6827.6177646,6827.634274799999,6827.634274799999,6829.0339276999985,,,,6829.0342313,6829.0494779,6829.0494779,6829.0494779,6829.349020500002,6829.466729700001,,,,,,,,,,,,,,,up,1.3938772000001336,None,space,0.4026126999997359,None,P106,001,2024-11-15_11h13.52.918,posner_endo_new1,2024.2.4,60.04823073896068,2024-11-15 11h14.00.204682 +0000,
0.005,-0.31,36,6,3,down,3.35484279999946,None,space,0.4567520999989938,None,,,,,,,,,3,6,36,7,6829.482347100002,,,,,,,,,,,,6829.4669392,6829.482347100002,6829.482347100002,6832.846689400001,,,,6832.846990800001,6832.862160500001,6832.862160500001,6832.862160500001,6833.162055699999,6833.329377099999,,,,,,,,,,,,,,,down,3.35484279999946,None,space,0.4567520999989938,None,P106,001,2024-11-15_11h13.52.918,posner_endo_new1,2024.2.4,60.04823073896068,2024-11-15 11h14.00.204682 +0000,
0.005,-0.31,37,7,3,up,6.10824070000308,None,space,0.4949672000002465,None,,,,,,,,,3,7,37,5,6833.3449707,,,,,,,,,,,,6833.3295855,6833.3449707,6833.3449707,6839.455999099999,,,,6839.4562467,6839.4904933,6839.4904933,6839.4904933,6839.8055399,6839.989136200002,,,,,,,,,,,,,,,up,6.10824070000308,None,space,0.4949672000002465,None,P106,001,2024-11-15_11h13.52.918,posner_endo_new1,2024.2.4,60.04823073896068,2024-11-15 11h14.00.204682 +0000,
0.005,10,38,8,3,down,4.159879700000602,None,None,,,,,,,,,,,3,8,38,9,6840.004821800001,,,,,,,,,,,,6839.989297799999,6840.004821800001,6840.004821800001,6844.168145200001,,,,6844.1683844,6844.1838493,6844.1838493,6844.1838493,6844.4837085,6847.1811012,,,,,,,,,,,,,,,down,4.159879700000602,None,None,,,P106,001,2024-11-15_11h13.52.918,posner_endo_new1,2024.2.4,60.04823073896068,2024-11-15 11h14.00.204682 +0000,
0.005,0.31,39,9,3,up,2.464426300000923,None,space,0.5502694999995583,None,,,,,,,,,3,9,39,6,6847.1974739,,,,,,,,,,,,6847.1812651,6847.1974739,6847.1974739,6849.6627367,,,,6849.662977100001,6849.678304000001,6849.678304000001,6849.678304000001,6849.9781387,6850.245301700001,,,,,,,,,,,,,,,up,2.464426300000923,None,space,0.5502694999995583,None,P106,001,2024-11-15_11h13.52.918,posner_endo_new1,2024.2.4,60.04823073896068,2024-11-15 11h14.00.204682 +0000,
-0.31,0.005,40,0,4,down,2.1357648000011977,None,space,0.8227417999987665,None,,,,,,,,,4,0,40,2,6850.261071699999,,,,,,,,,,,,6850.245463200001,6850.261071699999,6850.261071699999,6852.409614700002,,,,6852.4098545000015,6852.425620599999,6852.425620599999,6852.425620599999,6852.7252845,6853.258879500001,,,,,,,,,,,,,,,down,2.1357648000011977,None,space,0.8227417999987665,None,P106,001,2024-11-15_11h13.52.918,posner_endo_new1,2024.2.4,60.04823073896068,2024-11-15 11h14.00.204682 +0000,
0.005,-0.31,41,1,4,up,16.634541499999614,None,space,0.5718753000001016,None,,,,,,,,,4,1,41,7,6853.2746157,,,,,,,,,,,,6853.259046899999,6853.2746157,6853.2746157,6869.925156000001,,,,6869.9253976,6869.940954400001,6869.940954400001,6869.940954400001,6870.241152099999,6870.5245736,,,,,,,,,,,,,,,up,16.634541499999614,None,space,0.5718753000001016,None,P106,001,2024-11-15_11h13.52.918,posner_endo_new1,2024.2.4,60.04823073896068,2024-11-15 11h14.00.204682 +0000,
10,0.005,42,2,4,down,2.8327176999991934,None,None,,,,,,,,,,,4,2,42,4,6870.5402853999985,,,,,,,,,,,,6870.524737399999,6870.5402853999985,6870.5402853999985,6873.3881134,,,,6873.388360500001,6873.404186899999,6873.404186899999,6873.404186899999,6873.703898799999,6876.401059799999,,,,,,,,,,,,,,,down,2.8327176999991934,None,None,,,P106,001,2024-11-15_11h13.52.918,posner_endo_new1,2024.2.4,60.04823073896068,2024-11-15 11h14.00.204682 +0000,
0.005,-0.31,43,3,4,up,1.6431846999985282,None,space,0.7487986999985878,None,,,,,,,,,4,3,43,5,6876.417857700002,,,,,,,,,,,,6876.4012272,6876.417857700002,6876.417857700002,6878.0667152999995,,,,6878.06697,6878.082709099999,6878.082709099999,6878.082709099999,6878.3821425999995,6878.832758500001,,,,,,,,,,,,,,,up,1.6431846999985282,None,space,0.7487986999985878,None,P106,001,2024-11-15_11h13.52.918,posner_endo_new1,2024.2.4,60.04823073896068,2024-11-15 11h14.00.204682 +0000,
0.005,0.31,44,4,4,down,2.1805516999993415,None,space,0.7664074999993318,None,,,,,,,,,4,4,44,6,6878.848533200002,,,,,,,,,,,,6878.832937800002,6878.848533200002,6878.848533200002,6881.030517200001,,,,6881.030783599999,6881.046456100001,6881.046456100001,6881.046456100001,6881.345886700001,6881.8296238,,,,,,,,,,,,,,,down,2.1805516999993415,None,space,0.7664074999993318,None,P106,001,2024-11-15_11h13.52.918,posner_endo_new1,2024.2.4,60.04823073896068,2024-11-15 11h14.00.204682 +0000,
0.005,10,45,5,4,up,1.5349386000016239,None,None,,,,,,,,,,,4,5,45,9,6881.845544200001,,,,,,,,,,,,6881.8297962,6881.845544200001,6881.845544200001,6883.3947381,,,,6883.395,6883.410646799999,6883.410646799999,6883.410646799999,6883.7101301,6886.4077923,,,,,,,,,,,,,,,up,1.5349386000016239,None,None,,,P106,001,2024-11-15_11h13.52.918,posner_endo_new1,2024.2.4,60.04823073896068,2024-11-15 11h14.00.204682 +0000,
0.31,0.005,46,6,4,down,2.020357100002002,None,space,0.7608027999995102,None,,,,,,,,,4,6,46,1,6886.4243613,,,,,,,,,,,,6886.4079614,6886.4243613,6886.4243613,6888.456151499999,,,,6888.4564070000015,6888.471942700002,6888.471942700002,6888.471942700002,6888.771660599999,6889.238445200001,,,,,,,,,,,,,,,down,2.020357100002002,None,space,0.7608027999995102,None,P106,001,2024-11-15_11h13.52.918,posner_endo_new1,2024.2.4,60.04823073896068,2024-11-15 11h14.00.204682 +0000,
-0.31,0.005,47,7,4,up,5.990274699997826,None,space,0.6485103000013623,None,,,,,,,,,4,7,47,0,6889.254530599999,,,,,,,,,,,,6889.238618899999,6889.254530599999,6889.254530599999,6895.2490296,,,,6895.2492870999995,6895.265107899999,6895.265107899999,6895.265107899999,6895.564737500001,6895.915342,,,,,,,,,,,,,,,up,5.990274699997826,None,space,0.6485103000013623,None,P106,001,2024-11-15_11h13.52.918,posner_endo_new1,2024.2.4,60.04823073896068,2024-11-15 11h14.00.204682 +0000,
0.005,0.31,48,8,4,down,3.4411861000007775,None,space,0.43687089999730233,None,,,,,,,,,4,8,48,8,6895.931095700002,,,,,,,,,,,,6895.915516199999,6895.931095700002,6895.931095700002,6899.3782489000005,,,,6899.378502300002,6899.394126899999,6899.394126899999,6899.394126899999,6899.6940472999995,6899.844626099999,,,,,,,,,,,,,,,down,3.4411861000007775,None,space,0.43687089999730233,None,P106,001,2024-11-15_11h13.52.918,posner_endo_new1,2024.2.4,60.04823073896068,2024-11-15 11h14.00.204682 +0000,
0.31,0.005,49,9,4,up,7.7362299999986135,None,space,0.42704119999689283,None,,,,,,,,,4,9,49,3,6899.8603140999985,,,,,,,,,,,,6899.844806900001,6899.8603140999985,6899.8603140999985,6907.603111299999,,,,6907.6033666,6907.619134299999,6907.619134299999,6907.619134299999,6907.9188823,6908.052793400002,,,,,,,,,,,,,,,up,7.7362299999986135,None,space,0.42704119999689283,None,P106,001,2024-11-15_11h13.52.918,posner_endo_new1,2024.2.4,60.04823073896068,2024-11-15 11h14.00.204682 +0000,
0.005,-0.31,50,0,5,down,4.064069200001541,None,space,0.435501200001454,None,,,,,,,,,5,0,50,7,6908.0685680999995,,,,,,,,,,,,6908.0529656,6908.0685680999995,6908.0685680999995,6912.148568500001,,,,6912.148837600002,6912.164352300002,6912.164352300002,6912.164352300002,6912.464316900001,6912.614858100002,,,,,,,,,,,,,,,down,4.064069200001541,None,space,0.435501200001454,None,P106,001,2024-11-15_11h13.52.918,posner_endo_new1,2024.2.4,60.04823073896068,2024-11-15 11h14.00.204682 +0000,
10,0.005,51,1,5,up,2.5746557999991637,None,None,,,,,,,,,,,5,1,51,4,6912.630678000001,,,,,,,,,,,,6912.615036499999,6912.630678000001,6912.630678000001,6915.212149700001,,,,6915.212414599999,6915.227974100002,6915.227974100002,6915.227974100002,6915.5276373000015,6918.2251903,,,,,,,,,,,,,,,up,2.5746557999991637,None,None,,,P106,001,2024-11-15_11h13.52.918,posner_endo_new1,2024.2.4,60.04823073896068,2024-11-15 11h14.00.204682 +0000,
0.005,-0.31,52,2,5,up,3.5237149999993562,None,space,0.5691165000025649,None,,,,,,,,,5,2,52,5,6918.2418378,,,,,,,,,,,,6918.225360299999,6918.2418378,6918.2418378,6921.772006200001,,,,6921.772271099999,6921.787895100002,6921.787895100002,6921.787895100002,6922.0878354000015,6922.371572700002,,,,,,,,,,,,,,,up,3.5237149999993562,None,space,0.5691165000025649,None,P106,001,2024-11-15_11h13.52.918,posner_endo_new1,2024.2.4,60.04823073896068,2024-11-15 11h14.00.204682 +0000,
0.005,0.31,53,3,5,down,3.2652587999982643,None,space,0.5856101999997918,None,,,,,,,,,5,3,53,8,6922.387463300001,,,,,,,,,,,,6922.3717497,6922.387463300001,6922.387463300001,6925.6681756,,,,6925.668439699999,6925.683857,6925.683857,6925.683857,6925.983637400001,6926.284261199999,,,,,,,,,,,,,,,down,3.2652587999982643,None,space,0.5856101999997918,None,P106,001,2024-11-15_11h13.52.918,posner_endo_new1,2024.2.4,60.04823073896068,2024-11-15 11h14.00.204682 +0000,
-0.31,0.005,54,4,5,up,5.617181199999322,None,space,0.686578599998029,None,,,,,,,,,5,4,54,2,6926.299937399999,,,,,,,,,,,,6926.284440399999,6926.299937399999,6926.299937399999,6931.928343899999,,,,6931.928620800001,6931.94399,6931.94399,6931.94399,6932.2441125000005,6932.644331899999,,,,,,,,,,,,,,,up,5.617181199999322,None,space,0.686578599998029,None,P106,001,2024-11-15_11h13.52.918,posner_endo_new1,2024.2.4,60.04823073896068,2024-11-15 11h14.00.204682 +0000,
-0.31,0.005,55,5,5,down,3.7518591999978526,None,space,0.7036535999977787,None,,,,,,,,,5,5,55,0,6932.6602633,,,,,,,,,,,,6932.644506299999,6932.6602633,6932.6602633,6936.4237732,,,,6936.424041400001,6936.439655099999,6936.439655099999,6936.439655099999,6936.7393706,6937.1563245,,,,,,,,,,,,,,,down,3.7518591999978526,None,space,0.7036535999977787,None,P106,001,2024-11-15_11h13.52.918,posner_endo_new1,2024.2.4,60.04823073896068,2024-11-15 11h14.00.204682 +0000,
0.31,0.005,56,6,5,up,2.3442135999976017,None,space,0.4825998000014806,None,,,,,,,,,5,6,56,1,6937.172333800001,,,,,,,,,,,,6937.1565132,6937.172333800001,6937.172333800001,6939.520625900001,,,,6939.5208905,6939.536536899999,6939.536536899999,6939.536536899999,6939.836040000002,6940.020242800001,,,,,,,,,,,,,,,up,2.3442135999976017,None,space,0.4825998000014806,None,P106,001,2024-11-15_11h13.52.918,posner_endo_new1,2024.2.4,60.04823073896068,2024-11-15 11h14.00.204682 +0000,
0.31,0.005,57,7,5,up,5.3922074000001885,None,space,0.5541979000008723,None,,,,,,,,,5,7,57,3,6940.036081599999,,,,,,,,,,,,6940.0204171000005,6940.036081599999,6940.036081599999,6945.431027300001,,,,6945.4312966,6945.4471194,6945.4471194,6945.4471194,6945.746696999999,6946.014108200001,,,,,,,,,,,,,,,up,5.3922074000001885,None,space,0.5541979000008723,None,P106,001,2024-11-15_11h13.52.918,posner_endo_new1,2024.2.4,60.04823073896068,2024-11-15 11h14.00.204682 +0000,
0.005,10,58,8,5,down,2.974943799999892,None,None,,,,,,,,,,,5,8,58,9,6946.029735299999,,,,,,,,,,,,6946.014286900001,6946.029735299999,6946.029735299999,6949.010738699999,,,,6949.011006699999,6949.026758700002,6949.026758700002,6949.026758700002,6949.326433599999,6952.023746700001,,,,,,,,,,,,,,,down,2.974943799999892,None,None,,,P106,001,2024-11-15_11h13.52.918,posner_endo_new1,2024.2.4,60.04823073896068,2024-11-15 11h14.00.204682 +0000,
0.005,0.31,59,9,5,up,9.612501399999019,None,space,0.5094581000012113,None,,,,,,,,,5,9,59,6,6952.0404046,,,,,,,,,,,,6952.023918400002,6952.0404046,6952.0404046,6961.664621600001,,,,6961.664882100002,6961.6805933,6961.6805933,6961.6805933,6961.980376200001,6962.197406300002,,,,,,,,,,,,,,,up,9.612501399999019,None,space,0.5094581000012113,None,P106,001,2024-11-15_11h13.52.918,posner_endo_new1,2024.2.4,60.04823073896068,2024-11-15 11h14.00.204682 +0000,
