target_y,target_x,thisN,thisTrialN,thisRepN,key_control2.keys,key_control2.rt,key_control2.duration,key_resp.keys,key_resp.rt,key_resp.duration,practice.thisRepN,practice.thisTrialN,practice.thisN,practice.thisIndex,session_1.thisRepN,session_1.thisTrialN,session_1.thisN,session_1.thisIndex,session_2.thisRepN,session_2.thisTrialN,session_2.thisN,session_2.thisIndex,thisRow.t,notes,instructions.started,instructions_txt.started,key_control.started,instructions.stopped,key_control.keys,key_control.rt,key_control.duration,ready.started,ready_txt.started,ready.stopped,fix.started,key_control2.started,fixation_cross.started,fix.stopped,practice.key_control2.keys,practice.key_control2.rt,practice.key_control2.duration,target.started,star.started,fixation_cross_target.started,key_resp.started,star.stopped,target.stopped,practice.key_resp.keys,practice.key_resp.rt,practice.key_resp.duration,session_1.key_control2.keys,session_1.key_control2.rt,session_1.key_control2.duration,session_1.key_resp.keys,session_1.key_resp.rt,session_1.key_resp.duration,break_2.started,text.started,key_control3.started,break_2.stopped,key_control3.keys,session_2.key_control2.keys,session_2.key_control2.rt,session_2.key_control2.duration,session_2.key_resp.keys,session_2.key_resp.rt,session_2.key_resp.duration,participant,session,date,expName,psychopyVersion,frameRate,expStart,
,,,,,,,,,,,,,,,,,,,,,,,,,0.0075543000020843465,0.030188800003088545,0.030188800003088545,3010.8254960000013,up,3010.7748651,None,,,,,,,,,,,,,,,,,,,,,,,,,,,,,,,,,,,,,P107,001,2024-11-15_13h13.15.754,posner_endo_new1,2024.2.4,60.13833018807161,2024-11-15 13h13.23.229925 +0000,
,,,,,,,,,,,,,,,,,,,,,,,,,,,,,,,,3010.8255781000007,3010.837344300002,3013.8331359000003,,,,,,,,,,,,,,,,,,,,,,,,,,,,,,,,,,P107,001,2024-11-15_13h13.15.754,posner_endo_new1,2024.2.4,60.13833018807161,2024-11-15 13h13.23.229925 +0000,
0.005,10,0,0,0,up,3.8755533000003197,None,None,,,0,0,0,9,,,,,,,,,3013.857365600001,,,,,,,,,,,,3013.8478318000016,3013.857365600001,3013.857365600001,3017.7469028000014,up,3.8755533000003197,None,3017.747212100003,3017.7628692000035,3017.7628692000035,3017.7628692000035,3018.0624844000013,3020.7598517000006,None,,,,,,,,,,,,,,,,,,,,P107,001,2024-11-15_13h13.15.754,posner_endo_new1,2024.2.4,60.13833018807161,2024-11-15 13h13.23.229925 +0000,
10,0.005,1,1,0,down,2.3161768999998458,None,None,,,0,1,1,4,,,,,,,,,3020.7765228000026,,,,,,,,,,,,3020.760032000002,3020.7765228000026,3020.7765228000026,3023.1082290000013,down,2.3161768999998458,None,3023.1084980000014,3023.123829400003,3023.123829400003,3023.123829400003,3023.423539200001,3026.1209105000016,None,,,,,,,,,,,,,,,,,,,,P107,001,2024-11-15_13h13.15.754,posner_endo_new1,2024.2.4,60.13833018807161,2024-11-15 13h13.23.229925 +0000,
0.005,0.31,2,2,0,up,3.060184699999809,None,space,0.5184755000009318,None,0,2,2,8,,,,,,,,,3026.137241700002,,,,,,,,,,,,3026.1210821000022,3026.137241700002,3026.137241700002,3029.201989500001,up,3.060184699999809,None,3029.2022583000035,3029.2174343000006,3029.2174343000006,3029.2174343000006,3029.517374400002,3029.7513077000003,space,0.5184755000009318,None,,,,,,,,,,,,,,,,,,P107,001,2024-11-15_13h13.15.754,posner_endo_new1,2024.2.4,60.13833018807161,2024-11-15 13h13.23.229925 +0000,
0.31,0.005,3,3,0,down,3.974465600000258,None,space,0.46727610000016284,None,0,3,3,3,,,,,,,,,3029.7667094000026,,,,,,,,,,,,3029.751487900001,3029.7667094000026,3029.7667094000026,3033.7470863000017,down,3.974465600000258,None,3033.747361200003,3033.762934000002,3033.762934000002,3033.762934000002,3034.0625642000014,3034.2462361000034,space,0.46727610000016284,None,,,,,,,,,,,,,,,,,,P107,001,2024-11-15_13h13.15.754,posner_endo_new1,2024.2.4,60.13833018807161,2024-11-15 13h13.23.229925 +0000,
0.005,-0.31,4,4,0,up,6.0060928000020795,None,space,0.3801400000011199,None,0,4,4,5,,,,,,,,,3034.2624106000003,,,,,,,,,,,,3034.2464148,3034.2624106000003,3034.2624106000003,3040.2738764000023,up,6.0060928000020795,None,3040.2741460000034,3040.289678600002,3040.289678600002,3040.289678600002,3040.5894942000014,3040.6736998000015,space,0.3801400000011199,None,,,,,,,,,,,,,,,,,,P107,001,2024-11-15_13h13.15.754,posner_endo_new1,2024.2.4,60.13833018807161,2024-11-15 13h13.23.229925 +0000,
0.005,-0.31,5,5,0,down,4.635523700002523,None,space,0.3922673000015493,None,0,5,5,7,,,,,,,,,3040.6891627000005,,,,,,,,,,,,3040.673894200001,3040.6891627000005,3040.6891627000005,3045.335478300003,down,4.635523700002523,None,3045.3357502,3045.3509398000024,3045.3509398000024,3045.3509398000024,3045.651077900002,3045.751814000003,space,0.3922673000015493,None,,,,,,,,,,,,,,,,,,P107,001,2024-11-15_13h13.15.754,posner_endo_new1,2024.2.4,60.13833018807161,2024-11-15 13h13.23.229925 +0000,
-0.31,0.005,6,6,0,up,7.053972399997292,None,space,0.4409142000004067,None,0,6,6,0,,,,,,,,,3045.7672958000003,,,,,,,,,,,,3045.7519923,3045.7672958000003,3045.7672958000003,3052.8278150000006,up,7.053972399997292,None,3052.8280825,3052.8434024000017,3052.8434024000017,3052.8434024000017,3053.143056500001,3053.2938498000003,space,0.4409142000004067,None,,,,,,,,,,,,,,,,,,P107,001,2024-11-15_13h13.15.754,posner_endo_new1,2024.2.4,60.13833018807161,2024-11-15 13h13.23.229925 +0000,
0.005,0.31,7,7,0,down,4.679893299999094,None,space,0.3710935999988578,None,0,7,7,6,,,,,,,,,3053.3096793000004,,,,,,,,,,,,3053.294034600003,3053.3096793000004,3053.3096793000004,3058.005556100001,down,4.679893299999094,None,3058.0058304000013,3058.0216360000013,3058.0216360000013,3058.0216360000013,3058.3211923000017,3058.4053246000003,space,0.3710935999988578,None,,,,,,,,,,,,,,,,,,P107,001,2024-11-15_13h13.15.754,posner_endo_new1,2024.2.4,60.13833018807161,2024-11-15 13h13.23.229925 +0000,
0.31,0.005,8,8,0,down,12.544104799999332,None,space,0.5079497000006086,None,0,8,8,1,,,,,,,,,3058.4209918000015,,,,,,,,,,,,3058.405502700003,3058.4209918000015,3058.4209918000015,3070.9757248000024,down,12.544104799999332,None,3070.9759935,3070.9917991,3070.9917991,3070.9917991,3071.2912301000033,3071.508166900003,space,0.5079497000006086,None,,,,,,,,,,,,,,,,,,P107,001,2024-11-15_13h13.15.754,posner_endo_new1,2024.2.4,60.13833018807161,2024-11-15 13h13.23.229925 +0000,
-0.31,0.005,9,9,0,up,3.712689500000124,None,space,0.4816090999993321,None,0,9,9,2,,,,,,,,,3071.524387900001,,,,,,,,,,,,3071.508345000002,3071.524387900001,3071.524387900001,3075.2378714000006,up,3.712689500000124,None,3075.238151100002,3075.2539988000026,3075.2539988000026,3075.2539988000026,3075.5536962000006,3075.7375942000035,space,0.4816090999993321,None,,,,,,,,,,,,,,,,,,P107,001,2024-11-15_13h13.15.754,posner_endo_new1,2024.2.4,60.13833018807161,2024-11-15 13h13.23.229925 +0000,
,,,,,,,,,,,,,,,,,,,,,,,,,,,,,,,,3075.7377146,3075.753493700002,3078.7505599000033,,,,,,,,,,,,,,,,,,,,,,,,,,,,,,,,,,P107,001,2024-11-15_13h13.15.754,posner_endo_new1,2024.2.4,60.13833018807161,2024-11-15 13h13.23.229925 +0000,
0.31,0.005,0,0,0,up,14.892416000002413,None,space,0.46108040000035544,None,,,,,0,0,0,3,,,,,3078.7682389,,,,,,,,,,,,3078.7576324,3078.7682389,3078.7682389,3093.669323600003,,,,3093.6696010000014,3093.6850010000016,3093.6850010000016,3093.6850010000016,3093.984949900001,3094.1518435000035,,,,up,14.892416000002413,None,space,0.46108040000035544,None,,,,,,,,,,,,P107,001,2024-11-15_13h13.15.754,posner_endo_new1,2024.2.4,60.13833018807161,2024-11-15 13h13.23.229925 +0000,
0.005,-0.31,1,1,0,down,4.3084256000001915,None,space,0.4112700000005134,None,,,,,0,1,1,5,,,,,3094.168087500002,,,,,,,,,,,,3094.1520305000013,3094.168087500002,3094.168087500002,3098.4812662000004,,,,3098.4815486000007,3098.496421900003,3098.496421900003,3098.496421900003,3098.7965012000022,3098.913624300003,,,,down,4.3084256000001915,None,space,0.4112700000005134,None,,,,,,,,,,,,P107,001,2024-11-15_13h13.15.754,posner_endo_new1,2024.2.4,60.13833018807161,2024-11-15 13h13.23.229925 +0000,
-0.31,0.005,2,2,0,up,5.458947799997986,None,space,0.4411416000002646,None,,,,,0,2,2,2,,,,,3098.929602400003,,,,,,,,,,,,3098.9138151000006,3098.929602400003,3098.929602400003,3104.391663600003,,,,3104.391936600001,3104.4074473,3104.4074473,3104.4074473,3104.706746900003,3104.8576999000034,,,,up,5.458947799997986,None,space,0.4411416000002646,None,,,,,,,,,,,,P107,001,2024-11-15_13h13.15.754,posner_endo_new1,2024.2.4,60.13833018807161,2024-11-15 13h13.23.229925 +0000,
0.005,-0.31,3,3,0,down,3.930807700002333,None,space,0.41485259999899426,None,,,,,0,3,3,7,,,,,3104.873737500002,,,,,,,,,,,,3104.857891200001,3104.873737500002,3104.873737500002,3108.819892800002,,,,3108.8201670000017,3108.836412800003,3108.836412800003,3108.836412800003,3109.1358980000005,3109.2532336000004,,,,down,3.930807700002333,None,space,0.41485259999899426,None,,,,,,,,,,,,P107,001,2024-11-15_13h13.15.754,posner_endo_new1,2024.2.4,60.13833018807161,2024-11-15 13h13.23.229925 +0000,
0.005,10,4,4,0,up,6.321004199999152,None,None,,,,,,,0,4,4,9,,,,,3109.269216300003,,,,,,,,,,,,3109.2534180000002,3109.269216300003,3109.269216300003,3115.5968632000004,,,,3115.597133700001,3115.612635700003,3115.612635700003,3115.612635700003,3115.912196100002,3118.6095896000006,,,,up,6.321004199999152,None,None,,,,,,,,,,,,,,P107,001,2024-11-15_13h13.15.754,posner_endo_new1,2024.2.4,60.13833018807161,2024-11-15 13h13.23.229925 +0000,
10,0.005,5,5,0,down,1.9709056000028795,None,None,,,,,,,0,5,5,4,,,,,3118.6263991000014,,,,,,,,,,,,3118.6097678000006,3118.6263991000014,3118.6263991000014,3120.608182400003,,,,3120.6084678000007,3120.6243894,3120.6243894,3120.6243894,3120.9236055,3123.621129000003,,,,down,1.9709056000028795,None,None,,,,,,,,,,,,,,P107,001,2024-11-15_13h13.15.754,posner_endo_new1,2024.2.4,60.13833018807161,2024-11-15 13h13.23.229925 +0000,
-0.31,0.005,6,6,0,up,4.311155400002463,None,space,0.4223035999966669,None,,,,,0,6,6,0,,,,,3123.6378324000034,,,,,,,,,,,,3123.621307200003,3123.6378324000034,3123.6378324000034,3127.950887400002,,,,3127.951164000002,3127.966682800001,3127.966682800001,3127.966682800001,3128.266169100003,3128.4004281000016,,,,up,4.311155400002463,None,space,0.4223035999966669,None,,,,,,,,,,,,P107,001,2024-11-15_13h13.15.754,posner_endo_new1,2024.2.4,60.13833018807161,2024-11-15 13h13.23.229925 +0000,
0.005,0.31,7,7,0,down,4.636937699997361,None,space,0.4257246999986819,None,,,,,0,7,7,6,,,,,3128.4162859000025,,,,,,,,,,,,3128.4006141000027,3128.4162859000025,3128.4162859000025,3133.062124600001,,,,3133.0624040000002,3133.078085600002,3133.078085600002,3133.078085600002,3133.377795700002,3133.511687600003,,,,down,4.636937699997361,None,space,0.4257246999986819,None,,,,,,,,,,,,P107,001,2024-11-15_13h13.15.754,posner_endo_new1,2024.2.4,60.13833018807161,2024-11-15 13h13.23.229925 +0000,
0.31,0.005,8,8,0,up,6.221869199998764,None,space,0.44389419999788515,None,,,,,0,8,8,1,,,,,3133.5276362000004,,,,,,,,,,,,3133.5118812,3133.5276362000004,3133.5276362000004,3139.755048500003,,,,3139.755321200002,3139.7714237,3139.7714237,3139.7714237,3140.070829700002,3140.2217955000015,,,,up,6.221869199998764,None,space,0.44389419999788515,None,,,,,,,,,,,,P107,001,2024-11-15_13h13.15.754,posner_endo_new1,2024.2.4,60.13833018807161,2024-11-15 13h13.23.229925 +0000,
0.005,0.31,9,9,0,down,3.6961783999977342,None,space,0.44569829999818467,None,,,,,0,9,9,8,,,,,3140.237034200003,,,,,,,,,,,,3140.2219786000023,3140.237034200003,3140.237034200003,3143.934516000001,,,,3143.9347927000017,3143.950185200003,3143.950185200003,3143.950185200003,3144.250187900001,3144.400396300003,,,,down,3.6961783999977342,None,space,0.44569829999818467,None,,,,,,,,,,,,P107,001,2024-11-15_13h13.15.754,posner_endo_new1,2024.2.4,60.13833018807161,2024-11-15 13h13.23.229925 +0000,
0.31,0.005,10,0,1,up,6.892639900001086,None,space,0.48950759999934235,None,,,,,1,0,10,3,,,,,3144.416450300003,,,,,,,,,,,,3144.400590000001,3144.416450300003,3144.416450300003,3151.3103104,,,,3151.3105927000033,3151.326068100003,3151.326068100003,3151.326068100003,3151.6257974,3151.8261802000015,,,,up,6.892639900001086,None,space,0.48950759999934235,None,,,,,,,,,,,,P107,001,2024-11-15_13h13.15.754,posner_endo_new1,2024.2.4,60.13833018807161,2024-11-15 13h13.23.229925 +0000,
-0.31,0.005,11,1,1,down,5.083435600001394,None,space,0.44490050000240444,None,,,,,1,1,11,0,,,,,3151.8421100000014,,,,,,,,,,,,3151.8263644000035,3151.8421100000014,3151.8421100000014,3156.9380543000007,,,,3156.9383265000033,3156.953675800003,3156.953675800003,3156.953675800003,3157.2533573,3157.4038481000025,,,,down,5.083435600001394,None,space,0.44490050000240444,None,,,,,,,,,,,,P107,001,2024-11-15_13h13.15.754,posner_endo_new1,2024.2.4,60.13833018807161,2024-11-15 13h13.23.229925 +0000,
0.005,0.31,12,2,1,up,6.625692800000252,None,space,0.3703423000006296,None,,,,,1,2,12,6,,,,,3157.4198851,,,,,,,,,,,,3157.404038300003,3157.4198851,3157.4198851,3164.047049800003,,,,3164.0473217,3164.0630371000007,3164.0630371000007,3164.0630371000007,3164.362761200002,3164.4470538000023,,,,up,6.625692800000252,None,space,0.3703423000006296,None,,,,,,,,,,,,P107,001,2024-11-15_13h13.15.754,posner_endo_new1,2024.2.4,60.13833018807161,2024-11-15 13h13.23.229925 +0000,
0.005,0.31,13,3,1,down,4.918566099997406,None,space,0.5044832000021415,None,,,,,1,3,13,8,,,,,3164.4628811000002,,,,,,,,,,,,3164.4472368000024,3164.4628811000002,3164.4628811000002,3169.3915433,,,,3169.3918144000017,3169.4077034,3169.4077034,3169.4077034,3169.707546700003,3169.9245563000004,,,,down,4.918566099997406,None,space,0.5044832000021415,None,,,,,,,,,,,,P107,001,2024-11-15_13h13.15.754,posner_endo_new1,2024.2.4,60.13833018807161,2024-11-15 13h13.23.229925 +0000,
0.005,-0.31,14,4,1,up,6.489274999999907,None,space,0.5009671000007074,None,,,,,1,4,14,5,,,,,3169.9402990000017,,,,,,,,,,,,3169.9247429000025,3169.9402990000017,3169.9402990000017,3176.4342325000034,,,,3176.4345170000015,3176.450510400002,3176.450510400002,3176.450510400002,3176.7499792000017,3176.9672807000024,,,,up,6.489274999999907,None,space,0.5009671000007074,None,,,,,,,,,,,,P107,001,2024-11-15_13h13.15.754,posner_endo_new1,2024.2.4,60.13833018807161,2024-11-15 13h13.23.229925 +0000,
0.31,0.005,15,5,1,down,4.525488700001006,None,space,0.456021599999076,None,,,,,1,5,15,1,,,,,3176.983363700001,,,,,,,,,,,,3176.9674642000027,3176.983363700001,3176.983363700001,3181.5126149000025,,,,3181.5128903000004,3181.5286459000017,3181.5286459000017,3181.5286459000017,3181.8278616000025,3181.995442000003,,,,down,4.525488700001006,None,space,0.456021599999076,None,,,,,,,,,,,,P107,001,2024-11-15_13h13.15.754,posner_endo_new1,2024.2.4,60.13833018807161,2024-11-15 13h13.23.229925 +0000,
10,0.005,16,6,1,up,8.137334900002315,None,None,,,,,,,1,6,16,4,,,,,3182.0115877000026,,,,,,,,,,,,3181.995626300002,3182.0115877000026,3182.0115877000026,3190.153607100001,,,,3190.153890900001,3190.1697029000024,3190.1697029000024,3190.1697029000024,3190.469186800001,3193.1665667000016,,,,up,8.137334900002315,None,None,,,,,,,,,,,,,,P107,001,2024-11-15_13h13.15.754,posner_endo_new1,2024.2.4,60.13833018807161,2024-11-15 13h13.23.229925 +0000,
0.005,-0.31,17,7,1,down,1.5663075999982539,None,space,0.4508763999983785,None,,,,,1,7,17,7,,,,,3193.1833705000026,,,,,,,,,,,,3193.166745600003,3193.1833705000026,3193.1833705000026,3194.7659108000007,,,,3194.7661873000034,3194.7818807000003,3194.7818807000003,3194.7818807000003,3195.081466300002,3195.248640400001,,,,down,1.5663075999982539,None,space,0.4508763999983785,None,,,,,,,,,,,,P107,001,2024-11-15_13h13.15.754,posner_endo_new1,2024.2.4,60.13833018807161,2024-11-15 13h13.23.229925 +0000,
-0.31,0.005,18,8,1,up,6.804796600001282,None,space,0.4193641999991087,None,,,,,1,8,18,2,,,,,3195.2644774,,,,,,,,,,,,3195.2488342000033,3195.2644774,3195.2644774,3202.074806800003,,,,3202.075082700001,3202.0909336000004,3202.0909336000004,3202.0909336000004,3202.3905704000026,3202.5246656000018,,,,up,6.804796600001282,None,space,0.4193641999991087,None,,,,,,,,,,,,P107,001,2024-11-15_13h13.15.754,posner_endo_new1,2024.2.4,60.13833018807161,2024-11-15 13h13.23.229925 +0000,
0.005,10,19,9,1,down,4.489217499998631,None,None,,,,,,,1,9,19,9,,,,,3202.5401813000026,,,,,,,,,,,,3202.5248551000004,3202.5401813000026,3202.5401813000026,3207.036500600003,,,,3207.036770900002,3207.052436400001,3207.052436400001,3207.052436400001,3207.3520584000034,3210.049718100003,,,,down,4.489217499998631,None,None,,,,,,,,,,,,,,P107,001,2024-11-15_13h13.15.754,posner_endo_new1,2024.2.4,60.13833018807161,2024-11-15 13h13.23.229925 +0000,
10,0.005,20,0,2,up,4.898902400000225,None,None,,,,,,,2,0,20,4,,,,,3210.066063600003,,,,,,,,,,,,3210.0498960000004,3210.066063600003,3210.066063600003,3214.9786422000034,,,,3214.9789122,3214.9940416000027,3214.9940416000027,3214.9940416000027,3215.2942575000015,3217.9912225000007,,,,up,4.898902400000225,None,None,,,,,,,,,,,,,,P107,001,2024-11-15_13h13.15.754,posner_endo_new1,2024.2.4,60.13833018807161,2024-11-15 13h13.23.229925 +0000,
0.005,-0.31,21,1,2,down,2.477033899998787,None,space,0.4618005999982415,None,,,,,2,1,21,5,,,,,3218.0079711000035,,,,,,,,,,,,3217.9914119000023,3218.0079711000035,3218.0079711000035,3220.489772000001,,,,3220.4900522000025,3220.505534300002,3220.505534300002,3220.505534300002,3220.8050398000014,3220.9726483000013,,,,down,2.477033899998787,None,space,0.4618005999982415,None,,,,,,,,,,,,P107,001,2024-11-15_13h13.15.754,posner_endo_new1,2024.2.4,60.13833018807161,2024-11-15 13h13.23.229925 +0000,
0.005,0.31,22,2,2,up,8.024585899998783,None,space,0.43154370000047493,None,,,,,2,2,22,6,,,,,3220.9880685000026,,,,,,,,,,,,3220.972836300003,3220.9880685000026,3220.9880685000026,3229.014321900002,,,,3229.0146036000006,3229.0298526000006,3229.0298526000006,3229.0298526000006,3229.329747800002,3229.463828600001,,,,up,8.024585899998783,None,space,0.43154370000047493,None,,,,,,,,,,,,P107,001,2024-11-15_13h13.15.754,posner_endo_new1,2024.2.4,60.13833018807161,2024-11-15 13h13.23.229925 +0000,
0.005,10,23,3,2,down,4.325915599998552,None,None,,,,,,,2,3,23,9,,,,,3229.479430800002,,,,,,,,,,,,3229.4640105000035,3229.479430800002,3229.479430800002,3233.808946600002,,,,3233.8092222000014,3233.8250964,3233.8250964,3233.8250964,3234.124613400003,3236.8222155000003,,,,down,4.325915599998552,None,None,,,,,,,,,,,,,,P107,001,2024-11-15_13h13.15.754,posner_endo_new1,2024.2.4,60.13833018807161,2024-11-15 13h13.23.229925 +0000,
0.005,0.31,24,4,2,up,5.63019709999935,None,space,0.42692600000009406,None,,,,,2,4,24,8,,,,,3236.8385853,,,,,,,,,,,,3236.8223972000014,3236.8385853,3236.8385853,3242.4836829000014,,,,3242.4839704000005,3242.4995985000023,3242.4995985000023,3242.4995985000023,3242.799124600002,3242.933442400001,,,,up,5.63019709999935,None,space,0.42692600000009406,None,,,,,,,,,,,,P107,001,2024-11-15_13h13.15.754,posner_endo_new1,2024.2.4,60.13833018807161,2024-11-15 13h13.23.229925 +0000,
0.31,0.005,25,5,2,down,4.61554939999769,None,space,0.5015062999991642,None,,,,,2,5,25,3,,,,,3242.9492210000026,,,,,,,,,,,,3242.9336288000013,3242.9492210000026,3242.9492210000026,3247.578529300001,,,,3247.5787984000017,3247.594123400002,3247.594123400002,3247.594123400002,3247.893887600003,3248.1114540000017,,,,down,4.61554939999769,None,space,0.5015062999991642,None,,,,,,,,,,,,P107,001,2024-11-15_13h13.15.754,posner_endo_new1,2024.2.4,60.13833018807161,2024-11-15 13h13.23.229925 +0000,
-0.31,0.005,26,6,2,up,7.2616194000002,None,space,0.37751850000131526,None,,,,,2,6,26,2,,,,,3248.1271874000013,,,,,,,,,,,,3248.111651700001,3248.1271874000013,3248.1271874000013,3255.403964000001,,,,3255.404234900001,3255.4195827000003,3255.4195827000003,3255.4195827000003,3255.719770200001,3255.8036465000005,,,,up,7.2616194000002,None,space,0.37751850000131526,None,,,,,,,,,,,,P107,001,2024-11-15_13h13.15.754,posner_endo_new1,2024.2.4,60.13833018807161,2024-11-15 13h13.23.229925 +0000,
0.31,0.005,27,7,2,down,4.59428939999998,None,space,0.3793310000000929,None,,,,,2,7,27,1,,,,,3255.819064800002,,,,,,,,,,,,3255.803833500002,3255.819064800002,3255.819064800002,3260.415218600003,,,,3260.4154963,3260.4313134000004,3260.4313134000004,3260.4313134000004,3260.7307556000014,3260.815042600003,,,,down,4.59428939999998,None,space,0.3793310000000929,None,,,,,,,,,,,,P107,001,2024-11-15_13h13.15.754,posner_endo_new1,2024.2.4,60.13833018807161,2024-11-15 13h13.23.229925 +0000,
0.005,-0.31,28,8,2,up,7.910776499997155,None,space,0.3744001000013668,None,,,,,2,8,28,7,,,,,3260.830442000002,,,,,,,,,,,,3260.8152283000018,3260.830442000002,3260.830442000002,3268.756957200003,,,,3268.7572277,3268.772470600001,3268.772470600001,3268.772470600001,3269.0725242000008,3269.156333900002,,,,up,7.910776499997155,None,space,0.3744001000013668,None,,,,,,,,,,,,P107,001,2024-11-15_13h13.15.754,posner_endo_new1,2024.2.4,60.13833018807161,2024-11-15 13h13.23.229925 +0000,
-0.31,0.005,29,9,2,down,3.6985994999995455,None,space,0.4593557999978657,None,,,,,2,9,29,0,,,,,3269.171833800003,,,,,,,,,,,,3269.1565181000005,3269.171833800003,3269.171833800003,3272.8860232000006,,,,3272.8862966000015,3272.9017685,3272.9017685,3272.9017685,3273.2010539000003,3273.368901400001,,,,down,3.6985994999995455,None,space,0.4593557999978657,None,,,,,,,,,,,,P107,001,2024-11-15_13h13.15.754,posner_endo_new1,2024.2.4,60.13833018807161,2024-11-15 13h13.23.229925 +0000,
-0.31,0.005,30,0,3,up,7.988997299999028,None,space,0.4080275000014808,None,,,,,3,0,30,0,,,,,3273.3846299000033,,,,,,,,,,,,3273.3690853000007,3273.3846299000033,3273.3846299000033,3281.377338100003,,,,3281.377623700002,3281.3926699000003,3281.3926699000003,3281.3926699000003,3281.692470000002,3281.810260500002,,,,up,7.988997299999028,None,space,0.4080275000014808,None,,,,,,,,,,,,P107,001,2024-11-15_13h13.15.754,posner_endo_new1,2024.2.4,60.13833018807161,2024-11-15 13h13.23.229925 +0000,
0.005,-0.31,31,1,3,down,4.666668199999549,None,space,0.44733410000117146,None,,,,,3,1,31,7,,,,,3281.826037300001,,,,,,,,,,,,3281.810445400002,3281.826037300001,3281.826037300001,3286.505428700002,,,,3286.5057056000005,3286.5211127000002,3286.5211127000002,3286.5211127000002,3286.8207468,3286.971199900003,,,,down,4.666668199999549,None,space,0.44733410000117146,None,,,,,,,,,,,,P107,001,2024-11-15_13h13.15.754,posner_endo_new1,2024.2.4,60.13833018807161,2024-11-15 13h13.23.229925 +0000,
10,0.005,32,2,3,up,8.473597399999562,None,None,,,,,,,3,2,32,4,,,,,3286.987491900003,,,,,,,,,,,,3286.9713875000016,3286.987491900003,3286.987491900003,3295.4632131000035,,,,3295.463507100001,3295.478541100001,3295.478541100001,3295.478541100001,3295.7780520000015,3298.4755869,,,,up,8.473597399999562,None,None,,,,,,,,,,,,,,P107,001,2024-11-15_13h13.15.754,posner_endo_new1,2024.2.4,60.13833018807161,2024-11-15 13h13.23.229925 +0000,
0.005,0.31,33,3,3,down,1.2965649000034318,None,space,0.44127690000095754,None,,,,,3,3,33,6,,,,,3298.4923830000007,,,,,,,,,,,,3298.4757680000002,3298.4923830000007,3298.4923830000007,3299.7915687000022,,,,3299.7918665000034,3299.8077032,3299.8077032,3299.8077032,3300.1071104000002,3300.2577801000007,,,,down,1.2965649000034318,None,space,0.44127690000095754,None,,,,,,,,,,,,P107,001,2024-11-15_13h13.15.754,posner_endo_new1,2024.2.4,60.13833018807161,2024-11-15 13h13.23.229925 +0000,
0.005,-0.31,34,4,3,up,6.130651300001773,None,space,0.3757551999988209,None,,,,,3,4,34,5,,,,,3300.273943600001,,,,,,,,,,,,3300.2579640000004,3300.273943600001,3300.273943600001,3306.418623100002,,,,3306.4189006000015,3306.434079900002,3306.434079900002,3306.434079900002,3306.7339799,3306.817664800001,,,,up,6.130651300001773,None,space,0.3757551999988209,None,,,,,,,,,,,,P107,001,2024-11-15_13h13.15.754,posner_endo_new1,2024.2.4,60.13833018807161,2024-11-15 13h13.23.229925 +0000,
0.31,0.005,35,5,3,down,5.523379400001431,None,space,0.44458379999923636,None,,,,,3,5,35,3,,,,,3306.8339872000033,,,,,,,,,,,,3306.8178627000016,3306.8339872000033,3306.8339872000033,3312.362514700002,,,,3312.3629446000014,3312.377723200003,3312.377723200003,3312.377723200003,3312.6776194000013,3312.8286431000015,,,,down,5.523379400001431,None,space,0.44458379999923636,None,,,,,,,,,,,,P107,001,2024-11-15_13h13.15.754,posner_endo_new1,2024.2.4,60.13833018807161,2024-11-15 13h13.23.229925 +0000,
0.005,10,36,6,3,down,13.63273560000016,None,None,,,,,,,3,6,36,9,,,,,3312.8441504,,,,,,,,,,,,3312.8288619000014,3312.8441504,3312.8441504,3326.4813288000005,,,,3326.4816732,3326.496646900003,3326.496646900003,3326.496646900003,3326.7966787000005,3329.4939300000005,,,,down,13.63273560000016,None,None,,,,,,,,,,,,,,P107,001,2024-11-15_13h13.15.754,posner_endo_new1,2024.2.4,60.13833018807161,2024-11-15 13h13.23.229925 +0000,
0.31,0.005,37,7,3,up,23.126854600002844,None,space,0.41809769999963464,None,,,,,3,7,37,1,,,,,3329.5102872000025,,,,,,,,,,,,3329.4941469000005,3329.5102872000025,3329.5102872000025,3352.6381040000015,,,,3352.6384407000005,3352.6535798000004,3352.6535798000004,3352.6535798000004,3352.9533409000032,3353.087271100001,,,,up,23.126854600002844,None,space,0.41809769999963464,None,,,,,,,,,,,,P107,001,2024-11-15_13h13.15.754,posner_endo_new1,2024.2.4,60.13833018807161,2024-11-15 13h13.23.229925 +0000,
0.005,0.31,38,8,3,down,3.9980212000009487,None,space,0.4119319000019459,None,,,,,3,8,38,8,,,,,3353.102950200002,,,,,,,,,,,,3353.0874889000006,3353.102950200002,3353.102950200002,3357.116641300003,,,,3357.116975000001,3357.1324058000027,3357.1324058000027,3357.1324058000027,3357.4320530000005,3357.5492423000032,,,,down,3.9980212000009487,None,space,0.4119319000019459,None,,,,,,,,,,,,P107,001,2024-11-15_13h13.15.754,posner_endo_new1,2024.2.4,60.13833018807161,2024-11-15 13h13.23.229925 +0000,
-0.31,0.005,39,9,3,up,9.704304499999125,None,space,0.43143980000240845,None,,,,,3,9,39,2,,,,,3357.5652536000016,,,,,,,,,,,,3357.5494722000003,3357.5652536000016,3357.5652536000016,3367.2729287,,,,3367.273242500003,3367.288443100002,3367.288443100002,3367.288443100002,3367.5881383000014,3367.722473500002,,,,up,9.704304499999125,None,space,0.43143980000240845,None,,,,,,,,,,,,P107,001,2024-11-15_13h13.15.754,posner_endo_new1,2024.2.4,60.13833018807161,2024-11-15 13h13.23.229925 +0000,
0.005,0.31,40,0,4,down,3.9151792000011483,None,space,0.46131660000173724,None,,,,,4,0,40,6,,,,,3367.7380462,,,,,,,,,,,,3367.722694400003,3367.7380462,3367.7380462,3371.668184600003,,,,3371.6685005,3371.684064000001,3371.684064000001,3371.684064000001,3371.983842100002,3372.151268100002,,,,down,3.9151792000011483,None,space,0.46131660000173724,None,,,,,,,,,,,,P107,001,2024-11-15_13h13.15.754,posner_endo_new1,2024.2.4,60.13833018807161,2024-11-15 13h13.23.229925 +0000,
0.005,-0.31,41,1,4,up,8.534316799999942,None,space,0.3734017999995558,None,,,,,4,1,41,7,,,,,3372.1668341000004,,,,,,,,,,,,3372.1515082000005,3372.1668341000004,3372.1668341000004,3380.7090659000023,,,,3380.7093870000026,3380.7248820000023,3380.7248820000023,3380.7248820000023,3381.0244171000013,3381.1087595000026,,,,up,8.534316799999942,None,space,0.3734017999995558,None,,,,,,,,,,,,P107,001,2024-11-15_13h13.15.754,posner_endo_new1,2024.2.4,60.13833018807161,2024-11-15 13h13.23.229925 +0000,
0.005,10,42,2,4,down,5.216951599999447,None,None,,,,,,,4,2,42,9,,,,,3381.1242308,,,,,,,,,,,,3381.1089729000014,3381.1242308,3381.1242308,3386.352961700002,,,,3386.353288800001,3386.368941500001,3386.368941500001,3386.368941500001,3386.6686544000004,3389.3661732,,,,down,5.216951599999447,None,None,,,,,,,,,,,,,,P107,001,2024-11-15_13h13.15.754,posner_endo_new1,2024.2.4,60.13833018807161,2024-11-15 13h13.23.229925 +0000,
-0.31,0.005,43,3,4,up,5.734844599999633,None,space,0.39594279999801074,None,,,,,4,3,43,0,,,,,3389.3825929000013,,,,,,,,,,,,3389.3663769000013,3389.3825929000013,3389.3825929000013,3395.1274453000005,,,,3395.127687400003,3395.1436194000016,3395.1436194000016,3395.1436194000016,3395.4431283000013,3395.543739200002,,,,up,5.734844599999633,None,space,0.39594279999801074,None,,,,,,,,,,,,P107,001,2024-11-15_13h13.15.754,posner_endo_new1,2024.2.4,60.13833018807161,2024-11-15 13h13.23.229925 +0000,
0.005,0.31,44,4,4,down,3.453041500000836,None,space,0.44941560000006575,None,,,,,4,4,44,8,,,,,3395.5596798000006,,,,,,,,,,,,3395.543902900001,3395.5596798000006,3395.5596798000006,3399.023356900001,,,,3399.023603100002,3399.0395218000012,3399.0395218000012,3399.0395218000012,3399.339222300001,3399.489895900002,,,,down,3.453041500000836,None,space,0.44941560000006575,None,,,,,,,,,,,,P107,001,2024-11-15_13h13.15.754,posner_endo_new1,2024.2.4,60.13833018807161,2024-11-15 13h13.23.229925 +0000,
10,0.005,45,5,4,up,8.8351651999983,None,None,,,,,,,4,5,45,4,,,,,3399.5057960000013,,,,,,,,,,,,3399.4900528000035,3399.5057960000013,3399.5057960000013,3408.3489663,,,,3408.3495884000004,3408.363261300001,3408.363261300001,3408.363261300001,3408.662903100001,3411.360423000002,,,,up,8.8351651999983,None,None,,,,,,,,,,,,,,P107,001,2024-11-15_13h13.15.754,posner_endo_new1,2024.2.4,60.13833018807161,2024-11-15 13h13.23.229925 +0000,
-0.31,0.005,46,6,4,down,1.220225399996707,None,space,0.4758441000012681,None,,,,,4,6,46,2,,,,,3411.376994100003,,,,,,,,,,,,3411.3606951,3411.376994100003,3411.376994100003,3412.610175400001,,,,3412.6105586000012,3412.6256923,3412.6256923,3412.6256923,3412.9253540000027,3413.1097683000007,,,,down,1.220225399996707,None,space,0.4758441000012681,None,,,,,,,,,,,,P107,001,2024-11-15_13h13.15.754,posner_endo_new1,2024.2.4,60.13833018807161,2024-11-15 13h13.23.229925 +0000,
0.005,-0.31,47,7,4,up,7.455803299999388,None,space,0.4294923000015842,None,,,,,4,7,47,5,,,,,3413.1253588,,,,,,,,,,,,3413.1100345000013,3413.1253588,3413.1253588,3420.585543100002,,,,3420.5859353000014,3420.6008172,3420.6008172,3420.6008172,3420.900646600003,3421.035138500003,,,,up,7.455803299999388,None,space,0.4294923000015842,None,,,,,,,,,,,,P107,001,2024-11-15_13h13.15.754,posner_endo_new1,2024.2.4,60.13833018807161,2024-11-15 13h13.23.229925 +0000,
0.31,0.005,48,8,4,down,3.707078100000217,None,space,0.36022589999993215,None,,,,,4,8,48,3,,,,,3421.050188100002,,,,,,,,,,,,3421.035413900001,3421.050188100002,3421.050188100002,3424.7641115000006,,,,3424.764389900003,3424.7798760000005,3424.7798760000005,3424.7798760000005,3425.0793949,3425.1469847000008,,,,down,3.707078100000217,None,space,0.36022589999993215,None,,,,,,,,,,,,P107,001,2024-11-15_13h13.15.754,posner_endo_new1,2024.2.4,60.13833018807161,2024-11-15 13h13.23.229925 +0000,
0.31,0.005,49,9,4,up,8.146452100001625,None,space,0.3038185999976122,None,,,,,4,9,49,1,,,,,3425.1626321000003,,,,,,,,,,,,3425.147171200002,3425.1626321000003,3425.1626321000003,3433.3216985,,,,3433.321971000001,3433.337620000002,3433.337620000002,3433.337620000002,3433.6372988000003,3433.6549562,,,,up,8.146452100001625,None,space,0.3038185999976122,None,,,,,,,,,,,,P107,001,2024-11-15_13h13.15.754,posner_endo_new1,2024.2.4,60.13833018807161,2024-11-15 13h13.23.229925 +0000,
-0.31,0.005,50,0,5,down,3.342189299997699,None,None,,,,,,,5,0,50,0,,,,,3433.670559800001,,,,,,,,,,,,3433.6551345000007,3433.670559800001,3433.670559800001,3437.0183190000025,,,,3437.018589000003,3437.0339170000007,3437.0339170000007,3437.0339170000007,3437.3336137000006,3440.031011500003,,,,down,3.342189299997699,None,None,,,,,,,,,,,,,,P107,001,2024-11-15_13h13.15.754,posner_endo_new1,2024.2.4,60.13833018807161,2024-11-15 13h13.23.229925 +0000,
0.005,-0.31,51,1,5,up,7.485882500001026,None,space,0.42390350000277977,None,,,,,5,1,51,7,,,,,3440.0475011000017,,,,,,,,,,,,3440.0311889000004,3440.0475011000017,3440.0475011000017,3447.5406191,,,,3447.5408929000005,3447.5563047000032,3447.5563047000032,3447.5563047000032,3447.8560608000007,3447.9900751000023,,,,up,7.485882500001026,None,space,0.42390350000277977,None,,,,,,,,,,,,P107,001,2024-11-15_13h13.15.754,posner_endo_new1,2024.2.4,60.13833018807161,2024-11-15 13h13.23.229925 +0000,
10,0.005,52,2,5,down,3.4707627999996475,None,None,,,,,,,5,2,52,4,,,,,3448.006118000001,,,,,,,,,,,,3447.990258200003,3448.006118000001,3448.006118000001,3451.486650300001,,,,3451.4869283000007,3451.502417900003,3451.502417900003,3451.502417900003,3451.8020872000016,3454.499612300002,,,,down,3.4707627999996475,None,None,,,,,,,,,,,,,,P107,001,2024-11-15_13h13.15.754,posner_endo_new1,2024.2.4,60.13833018807161,2024-11-15 13h13.23.229925 +0000,
0.005,0.31,53,3,5,up,3.936936099999002,None,space,0.3796103000022413,None,,,,,5,3,53,8,,,,,3454.5158276,,,,,,,,,,,,3454.4997992000026,3454.5158276,3454.5158276,3458.4629939000006,,,,3458.4632710000005,3458.478629100002,3458.478629100002,3458.478629100002,3458.7784151000014,3458.8626110000005,,,,up,3.936936099999002,None,space,0.3796103000022413,None,,,,,,,,,,,,P107,001,2024-11-15_13h13.15.754,posner_endo_new1,2024.2.4,60.13833018807161,2024-11-15 13h13.23.229925 +0000,
0.005,-0.31,54,4,5,down,3.7985458000002836,None,space,0.4079383999996935,None,,,,,5,4,54,5,,,,,3458.8781463000014,,,,,,,,,,,,3458.8627873000005,3458.8781463000014,3458.8781463000014,3462.691920100002,,,,3462.6921889000005,3462.7077798000028,3462.7077798000028,3462.7077798000028,3463.0076063000015,3463.1247188000016,,,,down,3.7985458000002836,None,space,0.4079383999996935,None,,,,,,,,,,,,P107,001,2024-11-15_13h13.15.754,posner_endo_new1,2024.2.4,60.13833018807161,2024-11-15 13h13.23.229925 +0000,
0.005,0.31,55,5,5,up,7.5048077999999805,None,space,0.38280220000160625,None,,,,,5,5,55,6,,,,,3463.1406197000033,,,,,,,,,,,,3463.1248970000015,3463.1406197000033,3463.1406197000033,3470.6499889000006,,,,3470.650258200003,3470.6662466000016,3470.6662466000016,3470.6662466000016,3470.9659076000025,3471.0501379000016,,,,up,7.5048077999999805,None,space,0.38280220000160625,None,,,,,,,,,,,,P107,001,2024-11-15_13h13.15.754,posner_endo_new1,2024.2.4,60.13833018807161,2024-11-15 13h13.23.229925 +0000,
0.31,0.005,56,6,5,down,3.8431187000023783,None,space,0.490031799999997,None,,,,,5,6,56,3,,,,,3471.065919300003,,,,,,,,,,,,3471.0503233000018,3471.065919300003,3471.065919300003,3474.912795600001,,,,3474.9130734000028,3474.9284095000003,3474.9284095000003,3474.9284095000003,3475.2282323,3475.428920100003,,,,down,3.8431187000023783,None,space,0.490031799999997,None,,,,,,,,,,,,P107,001,2024-11-15_13h13.15.754,posner_endo_new1,2024.2.4,60.13833018807161,2024-11-15 13h13.23.229925 +0000,
-0.31,0.005,57,7,5,up,8.96137760000056,None,space,0.4534970999993675,None,,,,,5,7,57,2,,,,,3475.444255000002,,,,,,,,,,,,3475.4290981000013,3475.444255000002,3475.444255000002,3484.4194029000028,,,,3484.4196751000018,3484.4356843000023,3484.4356843000023,3484.4356843000023,3484.735212800002,3484.9026329000008,,,,up,8.96137760000056,None,space,0.4534970999993675,None,,,,,,,,,,,,P107,001,2024-11-15_13h13.15.754,posner_endo_new1,2024.2.4,60.13833018807161,2024-11-15 13h13.23.229925 +0000,
0.005,10,58,8,5,down,4.375079299999925,None,None,,,,,,,5,8,58,9,,,,,3484.918448800003,,,,,,,,,,,,3484.9028185000025,3484.918448800003,3484.918448800003,3489.2980485000007,,,,3489.2983232000006,3489.3135653000027,3489.3135653000027,3489.3135653000027,3489.6136448000034,3492.310831400002,,,,down,4.375079299999925,None,None,,,,,,,,,,,,,,P107,001,2024-11-15_13h13.15.754,posner_endo_new1,2024.2.4,60.13833018807161,2024-11-15 13h13.23.229925 +0000,
0.31,0.005,59,9,5,up,5.917194699999527,None,space,0.3559800999973959,None,,,,,5,9,59,1,,,,,3492.3274248000016,,,,,,,,,,,,3492.3110042000008,3492.3274248000016,3492.3274248000016,3498.2555942,,,,3498.2558670000035,3498.2712900000006,3498.2712900000006,3498.2712900000006,3498.5712158000024,3498.638347600001,,,,up,5.917194699999527,None,space,0.3559800999973959,None,,,,,,,,,,,,P107,001,2024-11-15_13h13.15.754,posner_endo_new1,2024.2.4,60.13833018807161,2024-11-15 13h13.23.229925 +0000,
,,,,,,,,,,,,,,,,,,,,,,,,,,,,,,,,,,,,,,,,,,,,,,,,,,,,,,,,,3498.6384730000027,3498.6543316000025,3498.6543316000025,3558.627088000001,None,,,,,,,P107,001,2024-11-15_13h13.15.754,posner_endo_new1,2024.2.4,60.13833018807161,2024-11-15 13h13.23.229925 +0000,
,,,,,,,,,,,,,,,,,,,,,,,,,,,,,,,,3558.6271419000004,3558.642832900001,3561.639922100003,,,,,,,,,,,,,,,,,,,,,,,,,,,,,,,,,,P107,001,2024-11-15_13h13.15.754,posner_endo_new1,2024.2.4,60.13833018807161,2024-11-15 13h13.23.229925 +0000,
0.005,0.31,0,0,0,up,27.051073999999062,None,space,0.40140449999671546,None,,,,,,,,,0,0,0,8,3561.6581110000006,,,,,,,,,,,,3561.647364100001,3561.6581110000006,3561.6581110000006,3588.7128582000005,,,,3588.7131037,3588.7287625000026,3588.7287625000026,3588.7287625000026,3589.0283413000034,3589.145732000001,,,,,,,,,,,,,,,up,27.051073999999062,None,space,0.40140449999671546,None,P107,001,2024-11-15_13h13.15.754,posner_endo_new1,2024.2.4,60.13833018807161,2024-11-15 13h13.23.229925 +0000,
-0.31,0.005,1,1,0,down,6.171995500000776,None,space,0.4003874000009091,None,,,,,,,,,0,1,1,2,3589.1614498000017,,,,,,,,,,,,3589.145893000001,3589.1614498000017,3589.1614498000017,3595.3390150000014,,,,3595.339256000003,3595.3554404000024,3595.3554404000024,3595.3554404000024,3595.6548115000005,3595.7721814000033,,,,,,,,,,,,,,,down,6.171995500000776,None,space,0.4003874000009091,None,P107,001,2024-11-15_13h13.15.754,posner_endo_new1,2024.2.4,60.13833018807161,2024-11-15 13h13.23.229925 +0000,
-0.31,0.005,2,2,0,up,6.3127174000001105,None,space,0.37645809999958146,None,,,,,,,,,0,2,2,0,3595.7881433000002,,,,,,,,,,,,3595.7723431000013,3595.7881433000002,3595.7881433000002,3602.115733100003,,,,3602.115972900003,3602.131645700003,3602.131645700003,3602.131645700003,3602.4314319000005,3602.5153455,,,,,,,,,,,,,,,up,6.3127174000001105,None,space,0.37645809999958146,None,P107,001,2024-11-15_13h13.15.754,posner_endo_new1,2024.2.4,60.13833018807161,2024-11-15 13h13.23.229925 +0000,
0.005,10,3,3,0,down,6.833960799998749,None,None,,,,,,,,,,,0,3,3,9,3602.531283200002,,,,,,,,,,,,3602.5155042000006,3602.531283200002,3602.531283200002,3609.3750296000035,,,,3609.3752695000003,3609.3910479000006,3609.3910479000006,3609.3910479000006,3609.6907001,3612.3880838000005,,,,,,,,,,,,,,,down,6.833960799998749,None,None,,,P107,001,2024-11-15_13h13.15.754,posner_endo_new1,2024.2.4,60.13833018807161,2024-11-15 13h13.23.229925 +0000,
0.31,0.005,4,4,0,up,1.6164137000014307,None,space,0.41485560000000987,None,,,,,,,,,0,4,4,1,3612.404438700003,,,,,,,,,,,,3612.3882490000033,3612.404438700003,3612.404438700003,3614.037033200002,,,,3614.0372830000015,3614.052924900003,3614.052924900003,3614.052924900003,3614.3525571000027,3614.470083,,,,,,,,,,,,,,,up,1.6164137000014307,None,space,0.41485560000000987,None,P107,001,2024-11-15_13h13.15.754,posner_endo_new1,2024.2.4,60.13833018807161,2024-11-15 13h13.23.229925 +0000,
0.005,-0.31,5,5,0,down,6.847145899999305,None,space,0.424580100003368,None,,,,,,,,,0,5,5,7,3614.485534000003,,,,,,,,,,,,3614.4702431000005,3614.485534000003,3614.485534000003,3621.346182600002,,,,3621.3464353000018,3621.3620126000023,3621.3620126000023,3621.3620126000023,3621.6616865000033,3621.7959231000023,,,,,,,,,,,,,,,down,6.847145899999305,None,space,0.424580100003368,None,P107,001,2024-11-15_13h13.15.754,posner_endo_new1,2024.2.4,60.13833018807161,2024-11-15 13h13.23.229925 +0000,
10,0.005,6,6,0,up,5.657846100002644,None,None,,,,,,,,,,,0,6,6,4,3621.8116372000004,,,,,,,,,,,,3621.796088000003,3621.8116372000004,3621.8116372000004,3627.4731269000004,,,,3627.473371400003,3627.4890347,3627.4890347,3627.4890347,3627.7885933000034,3630.4863257000034,,,,,,,,,,,,,,,up,5.657846100002644,None,None,,,P107,001,2024-11-15_13h13.15.754,posner_endo_new1,2024.2.4,60.13833018807161,2024-11-15 13h13.23.229925 +0000,
0.005,-0.31,7,7,0,down,3.607008400002087,None,space,0.39791479999985313,None,,,,,,,,,0,7,7,5,3630.5026841,,,,,,,,,,,,3630.4864853,3630.5026841,3630.5026841,3634.1164162000023,,,,3634.116656500002,3634.1324158000025,3634.1324158000025,3634.1324158000025,3634.4321371000005,3634.532721300002,,,,,,,,,,,,,,,down,3.607008400002087,None,space,0.39791479999985313,None,P107,001,2024-11-15_13h13.15.754,posner_endo_new1,2024.2.4,60.13833018807161,2024-11-15 13h13.23.229925 +0000,
0.31,0.005,8,8,0,up,4.809052099997643,None,space,0.3753680000008899,None,,,,,,,,,0,8,8,3,3634.5484731000033,,,,,,,,,,,,3634.5328819000024,3634.5484731000033,3634.5484731000033,3639.3610603000016,,,,3639.3612979000027,3639.377111900001,3639.377111900001,3639.377111900001,3639.6765686000035,3639.760716300003,,,,,,,,,,,,,,,up,4.809052099997643,None,space,0.3753680000008899,None,P107,001,2024-11-15_13h13.15.754,posner_endo_new1,2024.2.4,60.13833018807161,2024-11-15 13h13.23.229925 +0000,
0.005,0.31,9,9,0,down,7.6686193000023195,None,space,0.9860530000005383,None,,,,,,,,,0,9,9,6,3639.7766735000005,,,,,,,,,,,,3639.7608768000027,3639.7766735000005,3639.7766735000005,3647.4529650000004,,,,3647.453205500002,3647.4685959000017,3647.4685959000017,3647.4685959000017,3647.7685106000026,3648.4684431000023,,,,,,,,,,,,,,,down,7.6686193000023195,None,space,0.9860530000005383,None,P107,001,2024-11-15_13h13.15.754,posner_endo_new1,2024.2.4,60.13833018807161,2024-11-15 13h13.23.229925 +0000,
0.005,10,10,0,1,up,3.777351600001566,None,None,,,,,,,,,,,1,0,10,9,3648.4843808000005,,,,,,,,,,,,3648.468603600002,3648.4843808000005,3648.4843808000005,3652.2643921000017,,,,3652.2646416000025,3652.2805036000027,3652.2805036000027,3652.2805036000027,3652.580335400002,3655.2777067000025,,,,,,,,,,,,,,,up,3.777351600001566,None,None,,,P107,001,2024-11-15_13h13.15.754,posner_endo_new1,2024.2.4,60.13833018807161,2024-11-15 13h13.23.229925 +0000,
0.31,0.005,11,1,1,down,13.526737199998024,None,space,0.4617990999977337,None,,,,,,,,,1,1,11,1,3655.294155200001,,,,,,,,,,,,3655.2778666000013,3655.294155200001,3655.294155200001,3668.8307055000005,,,,3668.8309671000025,3668.8468039,3668.8468039,3668.8468039,3669.1466284000016,3669.3135999000006,,,,,,,,,,,,,,,down,13.526737199998024,None,space,0.4617990999977337,None,P107,001,2024-11-15_13h13.15.754,posner_endo_new1,2024.2.4,60.13833018807161,2024-11-15 13h13.23.229925 +0000,
0.005,-0.31,12,2,1,up,5.23566270000083,None,space,0.4454144000010274,None,,,,,,,,,1,2,12,7,3669.329553900003,,,,,,,,,,,,3669.313762900001,3669.329553900003,3669.329553900003,3674.5749128000025,,,,3674.5751557000003,3674.5910906000026,3674.5910906000026,3674.5910906000026,3674.8904311000006,3675.0412284000013,,,,,,,,,,,,,,,up,5.23566270000083,None,space,0.4454144000010274,None,P107,001,2024-11-15_13h13.15.754,posner_endo_new1,2024.2.4,60.13833018807161,2024-11-15 13h13.23.229925 +0000,
-0.31,0.005,13,3,1,down,6.331717100001697,None,space,0.4145434000020032,None,,,,,,,,,1,3,13,2,3675.0572261000016,,,,,,,,,,,,3675.0413953000025,3675.0572261000016,3675.0572261000016,3681.401217100003,,,,3681.401457600001,3681.417343500001,3681.417343500001,3681.417343500001,3681.7174013000003,3681.8345117000026,,,,,,,,,,,,,,,down,6.331717100001697,None,space,0.4145434000020032,None,P107,001,2024-11-15_13h13.15.754,posner_endo_new1,2024.2.4,60.13833018807161,2024-11-15 13h13.23.229925 +0000,
0.31,0.005,14,4,1,up,5.739477899998747,None,space,0.35443649999797344,None,,,,,,,,,1,4,14,3,3681.850049800003,,,,,,,,,,,,3681.8346764000016,3681.850049800003,3681.850049800003,3687.596222600001,,,,3687.596848100002,3687.610941500003,3687.610941500003,3687.610941500003,3687.9106813000035,3687.979204500003,,,,,,,,,,,,,,,up,5.739477899998747,None,space,0.35443649999797344,None,P107,001,2024-11-15_13h13.15.754,posner_endo_new1,2024.2.4,60.13833018807161,2024-11-15 13h13.23.229925 +0000,
-0.31,0.005,15,5,1,down,6.507509899998695,None,space,0.5289162999979453,None,,,,,,,,,1,5,15,0,3687.9938618000015,,,,,,,,,,,,3687.9796685,3687.9938618000015,3687.9938618000015,3694.505065700003,,,,3694.5054627000027,3694.5206617000003,3694.5206617000003,3694.5206617000003,3694.820202900002,3695.0541583000013,,,,,,,,,,,,,,,down,6.507509899998695,None,space,0.5289162999979453,None,P107,001,2024-11-15_13h13.15.754,posner_endo_new1,2024.2.4,60.13833018807161,2024-11-15 13h13.23.229925 +0000,
0.005,0.31,16,6,1,up,4.11909469999955,None,space,0.3879962999999407,None,,,,,,,,,1,6,16,8,3695.0700793000033,,,,,,,,,,,,3695.054341700001,3695.0700793000033,3695.0700793000033,3699.1999627000005,,,,3699.200228400001,3699.215854500002,3699.215854500002,3699.215854500002,3699.515204500003,3699.616396900001,,,,,,,,,,,,,,,up,4.11909469999955,None,space,0.3879962999999407,None,P107,001,2024-11-15_13h13.15.754,posner_endo_new1,2024.2.4,60.13833018807161,2024-11-15 13h13.23.229925 +0000,
0.005,0.31,17,7,1,down,5.693128599999909,None,space,0.3342523999999685,None,,,,,,,,,1,7,17,6,3699.6318242000016,,,,,,,,,,,,3699.616577200002,3699.6318242000016,3699.6318242000016,3705.3271163000027,,,,3705.327385700002,3705.342996700001,3705.342996700001,3705.342996700001,3705.6426629000016,3705.6933400000016,,,,,,,,,,,,,,,down,5.693128599999909,None,space,0.3342523999999685,None,P107,001,2024-11-15_13h13.15.754,posner_endo_new1,2024.2.4,60.13833018807161,2024-11-15 13h13.23.229925 +0000,
0.005,-0.31,18,8,1,up,4.7037945999982185,None,space,0.32981609999842476,None,,,,,,,,,1,8,18,5,3705.7092827000015,,,,,,,,,,,,3705.693529,3705.7092827000015,3705.7092827000015,3710.4218991000016,,,,3710.4221786000016,3710.4376599000025,3710.4376599000025,3710.4376599000025,3710.7372730000025,3710.7714529000004,,,,,,,,,,,,,,,up,4.7037945999982185,None,space,0.32981609999842476,None,P107,001,2024-11-15_13h13.15.754,posner_endo_new1,2024.2.4,60.13833018807161,2024-11-15 13h13.23.229925 +0000,
10,0.005,19,9,1,down,6.538220399997954,None,None,,,,,,,,,,,1,9,19,4,3710.7872975000028,,,,,,,,,,,,3710.771642900003,3710.7872975000028,3710.7872975000028,3717.331208200001,,,,3717.3314813000034,3717.3472317000014,3717.3472317000014,3717.3472317000014,3717.6469879000033,3720.3444825000006,,,,,,,,,,,,,,,down,6.538220399997954,None,None,,,P107,001,2024-11-15_13h13.15.754,posner_endo_new1,2024.2.4,60.13833018807161,2024-11-15 13h13.23.229925 +0000,
-0.31,0.005,20,0,2,up,2.14074619999883,None,space,0.3773865000002843,None,,,,,,,,,2,0,20,0,3720.3605276000017,,,,,,,,,,,,3720.344657900001,3720.3605276000017,3720.3605276000017,3722.509232200002,,,,3722.5095207000013,3722.525085000001,3722.525085000001,3722.525085000001,3722.8249177000034,3722.9092885000027,,,,,,,,,,,,,,,up,2.14074619999883,None,space,0.3773865000002843,None,P107,001,2024-11-15_13h13.15.754,posner_endo_new1,2024.2.4,60.13833018807161,2024-11-15 13h13.23.229925 +0000,
0.005,-0.31,21,1,2,down,5.480329900001379,None,space,0.3850951999993413,None,,,,,,,,,2,1,21,7,3722.924923900002,,,,,,,,,,,,3722.9094704000017,3722.924923900002,3722.924923900002,3728.4201034000034,,,,3728.420375900001,3728.4357899000024,3728.4357899000024,3728.4357899000024,3728.735529100002,3728.8362896000035,,,,,,,,,,,,,,,down,5.480329900001379,None,space,0.3850951999993413,None,P107,001,2024-11-15_13h13.15.754,posner_endo_new1,2024.2.4,60.13833018807161,2024-11-15 13h13.23.229925 +0000,
0.31,0.005,22,2,2,up,4.873691599997983,None,space,0.34417910000047414,None,,,,,,,,,2,2,22,3,3728.852016500001,,,,,,,,,,,,3728.836476800003,3728.852016500001,3728.852016500001,3733.731457400001,,,,3733.7317415000034,3733.746931400001,3733.746931400001,3733.746931400001,3734.0466258000015,3734.097777500003,,,,,,,,,,,,,,,up,4.873691599997983,None,space,0.34417910000047414,None,P107,001,2024-11-15_13h13.15.754,posner_endo_new1,2024.2.4,60.13833018807161,2024-11-15 13h13.23.229925 +0000,
0.005,0.31,23,3,2,down,6.093102499999077,None,space,0.4457129999973404,None,,,,,,,,,2,3,23,8,3734.1130009000008,,,,,,,,,,,,3734.0979603000014,3734.1130009000008,3734.1130009000008,3740.2081669,,,,3740.208441300001,3740.2239875000014,3740.2239875000014,3740.2239875000014,3740.523496400001,3740.6741438000026,,,,,,,,,,,,,,,down,6.093102499999077,None,space,0.4457129999973404,None,P107,001,2024-11-15_13h13.15.754,posner_endo_new1,2024.2.4,60.13833018807161,2024-11-15 13h13.23.229925 +0000,
10,0.005,24,4,2,up,4.219724899998255,None,None,,,,,,,,,,,2,4,24,4,3740.6900069000003,,,,,,,,,,,,3740.6743303000003,3740.6900069000003,3740.6900069000003,3744.919834100001,,,,3744.920104800003,3744.935810400002,3744.935810400002,3744.935810400002,3745.235448000003,3747.932735100003,,,,,,,,,,,,,,,up,4.219724899998255,None,None,,,P107,001,2024-11-15_13h13.15.754,posner_endo_new1,2024.2.4,60.13833018807161,2024-11-15 13h13.23.229925 +0000,
0.31,0.005,25,5,2,down,4.648509800001193,None,space,0.37968520000140416,None,,,,,,,,,2,5,25,1,3747.949286500003,,,,,,,,,,,,3747.9329128000027,3747.949286500003,3747.949286500003,3752.612114200001,,,,3752.612382800002,3752.6279712000032,3752.6279712000032,3752.6279712000032,3752.927575900001,3753.0115901000026,,,,,,,,,,,,,,,down,4.648509800001193,None,space,0.37968520000140416,None,P107,001,2024-11-15_13h13.15.754,posner_endo_new1,2024.2.4,60.13833018807161,2024-11-15 13h13.23.229925 +0000,
0.005,0.31,26,6,2,up,5.074235299998691,None,space,0.42723299999852316,None,,,,,,,,,2,6,26,6,3753.0275366000023,,,,,,,,,,,,3753.0117874000025,3753.0275366000023,3753.0275366000023,3758.1062576000004,,,,3758.106528600001,3758.122243900001,3758.122243900001,3758.122243900001,3758.4219920000032,3758.5561092000025,,,,,,,,,,,,,,,up,5.074235299998691,None,space,0.42723299999852316,None,P107,001,2024-11-15_13h13.15.754,posner_endo_new1,2024.2.4,60.13833018807161,2024-11-15 13h13.23.229925 +0000,
-0.31,0.005,27,7,2,down,5.689722200000688,None,space,0.4351768999986234,None,,,,,,,,,2,7,27,2,3758.571612400003,,,,,,,,,,,,3758.556288800002,3758.571612400003,3758.571612400003,3764.266346200002,,,,3764.266621900002,3764.282161500003,3764.282161500003,3764.282161500003,3764.581815100002,3764.7330005000003,,,,,,,,,,,,,,,down,5.689722200000688,None,space,0.4351768999986234,None,P107,001,2024-11-15_13h13.15.754,posner_endo_new1,2024.2.4,60.13833018807161,2024-11-15 13h13.23.229925 +0000,
0.005,10,28,8,2,up,6.160981900000479,None,None,,,,,,,,,,,2,8,28,9,3764.748338900001,,,,,,,,,,,,3764.7331814000026,3764.748338900001,3764.748338900001,3770.9101606000004,,,,3770.9104420000003,3770.9257547000016,3770.9257547000016,3770.9257547000016,3771.2255742000016,3773.922769300003,,,,,,,,,,,,,,,up,6.160981900000479,None,None,,,P107,001,2024-11-15_13h13.15.754,posner_endo_new1,2024.2.4,60.13833018807161,2024-11-15 13h13.23.229925 +0000,
0.005,-0.31,29,9,2,down,3.7144258999978774,None,space,0.5411797999986447,None,,,,,,,,,2,9,29,5,3773.9391428000017,,,,,,,,,,,,3773.9229510000005,3773.9391428000017,3773.9391428000017,3777.669786100003,,,,3777.670053500002,3777.685462900001,3777.685462900001,3777.685462900001,3777.9848041000005,3778.2356830000026,,,,,,,,,,,,,,,down,3.7144258999978774,None,space,0.5411797999986447,None,P107,001,2024-11-15_13h13.15.754,posner_endo_new1,2024.2.4,60.13833018807161,2024-11-15 13h13.23.229925 +0000,
-0.31,0.005,30,0,3,up,3.69063019999885,None,space,0.4437502000000677,None,,,,,,,,,3,0,30,2,3778.251690500001,,,,,,,,,,,,3778.2358661000035,3778.251690500001,3778.251690500001,3781.9486669000034,,,,3781.9489343000023,3781.964505300002,3781.964505300002,3781.964505300002,3782.2641999000007,3782.4149913,,,,,,,,,,,,,,,up,3.69063019999885,None,space,0.4437502000000677,None,P107,001,2024-11-15_13h13.15.754,posner_endo_new1,2024.2.4,60.13833018807161,2024-11-15 13h13.23.229925 +0000,
0.005,-0.31,31,1,3,down,6.062531999999919,None,space,0.3979384999984177,None,,,,,,,,,3,1,31,7,3782.430448400002,,,,,,,,,,,,3782.415178700001,3782.430448400002,3782.430448400002,3788.5087826000017,,,,3788.509066900002,3788.5241924,3788.5241924,3788.5241924,3788.823720800003,3788.9249278000025,,,,,,,,,,,,,,,down,6.062531999999919,None,space,0.3979384999984177,None,P107,001,2024-11-15_13h13.15.754,posner_endo_new1,2024.2.4,60.13833018807161,2024-11-15 13h13.23.229925 +0000,
0.005,0.31,32,2,3,up,3.913900499999727,None,space,0.32005669999853126,None,,,,,,,,,3,2,32,6,3788.9406046000004,,,,,,,,,,,,3788.925109400003,3788.9406046000004,3788.9406046000004,3792.8707206,,,,3792.8709909000027,3792.8867156000015,3792.8867156000015,3792.8867156000015,3793.186424300002,3793.220750800003,,,,,,,,,,,,,,,up,3.913900499999727,None,space,0.32005669999853126,None,P107,001,2024-11-15_13h13.15.754,posner_endo_new1,2024.2.4,60.13833018807161,2024-11-15 13h13.23.229925 +0000,
-0.31,0.005,33,3,3,down,6.144828399999824,None,space,0.33815779999713413,None,,,,,,,,,3,3,33,0,3793.2364463000013,,,,,,,,,,,,3793.2209406,3793.2364463000013,3793.2364463000013,3799.397374,,,,3799.397647400001,3799.413487500002,3799.413487500002,3799.413487500002,3799.713078800003,3799.763716100002,,,,,,,,,,,,,,,down,6.144828399999824,None,space,0.33815779999713413,None,P107,001,2024-11-15_13h13.15.754,posner_endo_new1,2024.2.4,60.13833018807161,2024-11-15 13h13.23.229925 +0000,
0.31,0.005,34,4,3,up,5.5293637000031595,None,space,0.3122995000012452,None,,,,,,,,,3,4,34,3,3799.779718400001,,,,,,,,,,,,3799.7639019000017,3799.779718400001,3799.779718400001,3805.324605200003,,,,3805.3248735000016,3805.3405336000033,3805.3405336000033,3805.3405336000033,3805.6402011000027,3805.657692800003,,,,,,,,,,,,,,,up,5.5293637000031595,None,space,0.3122995000012452,None,P107,001,2024-11-15_13h13.15.754,posner_endo_new1,2024.2.4,60.13833018807161,2024-11-15 13h13.23.229925 +0000,
10,0.005,35,5,3,up,10.804111500001454,None,space,1.3287473999989743,None,,,,,,,,,3,5,35,4,3805.6737579,,,,,,,,,,,,3805.6578854,3805.6737579,3805.6737579,3816.480024800003,,,,3816.480300200001,3816.4957668000025,3816.4957668000025,3816.4957668000025,3816.795301000002,3817.8287512000024,,,,,,,,,,,,,,,up,10.804111500001454,None,space,1.3287473999989743,None,P107,001,2024-11-15_13h13.15.754,posner_endo_new1,2024.2.4,60.13833018807161,2024-11-15 13h13.23.229925 +0000,
0.005,-0.31,36,6,3,down,6.424979399998847,None,space,0.3902163000020664,None,,,,,,,,,3,6,36,5,3817.8442263000034,,,,,,,,,,,,3817.828933500001,3817.8442263000034,3817.8442263000034,3824.271913300003,,,,3824.272189200001,3824.287879000003,3824.287879000003,3824.287879000003,3824.5876613,3824.6879278000015,,,,,,,,,,,,,,,down,6.424979399998847,None,space,0.3902163000020664,None,P107,001,2024-11-15_13h13.15.754,posner_endo_new1,2024.2.4,60.13833018807161,2024-11-15 13h13.23.229925 +0000,
0.31,0.005,37,7,3,up,4.806155000002036,None,space,0.4182193999986339,None,,,,,,,,,3,7,37,1,3824.7042244000004,,,,,,,,,,,,3824.6881125,3824.7042244000004,3824.7042244000004,3829.516871300002,,,,3829.517140300002,3829.532389,3829.532389,3829.532389,3829.8322106000014,3829.9662231,,,,,,,,,,,,,,,up,4.806155000002036,None,space,0.4182193999986339,None,P107,001,2024-11-15_13h13.15.754,posner_endo_new1,2024.2.4,60.13833018807161,2024-11-15 13h13.23.229925 +0000,
0.005,10,38,8,3,down,5.583880900001532,None,None,,,,,,,,,,,3,8,38,9,3829.981759500002,,,,,,,,,,,,3829.966409200002,3829.981759500002,3829.981759500002,3835.5770491000003,,,,3835.577321500001,3835.5929958000015,3835.5929958000015,3835.5929958000015,3835.8925242000005,3838.589989,,,,,,,,,,,,,,,down,5.583880900001532,None,None,,,P107,001,2024-11-15_13h13.15.754,posner_endo_new1,2024.2.4,60.13833018807161,2024-11-15 13h13.23.229925 +0000,
0.005,0.31,39,9,3,up,3.134471299999859,None,space,0.4955542999996396,None,,,,,,,,,3,9,39,8,3838.606510100002,,,,,,,,,,,,3838.5901655000016,3838.606510100002,3838.606510100002,3841.7540982000028,,,,3841.7543682000032,3841.7701270000034,3841.7701270000034,3841.7701270000034,3842.0697488000005,3842.270416200001,,,,,,,,,,,,,,,up,3.134471299999859,None,space,0.4955542999996396,None,P107,001,2024-11-15_13h13.15.754,posner_endo_new1,2024.2.4,60.13833018807161,2024-11-15 13h13.23.229925 +0000,
-0.31,0.005,40,0,4,down,4.878879699997924,None,space,0.4022804999985965,None,,,,,,,,,4,0,40,2,3842.2861152000005,,,,,,,,,,,,3842.270611,3842.2861152000005,3842.2861152000005,3847.1814189000033,,,,3847.181692600003,3847.197666100001,3847.197666100001,3847.197666100001,3847.4975257000006,3847.614392700001,,,,,,,,,,,,,,,down,4.878879699997924,None,space,0.4022804999985965,None,P107,001,2024-11-15_13h13.15.754,posner_endo_new1,2024.2.4,60.13833018807161,2024-11-15 13h13.23.229925 +0000,
0.31,0.005,41,1,4,up,6.134844799998973,None,space,0.46641839999938384,None,,,,,,,,,4,1,41,3,3847.6307240000024,,,,,,,,,,,,3847.6145762000015,3847.6307240000024,3847.6307240000024,3853.7752043,,,,3853.7754743000005,3853.7910076000007,3853.7910076000007,3853.7910076000007,3854.090508100002,3854.2583307000023,,,,,,,,,,,,,,,up,6.134844799998973,None,space,0.46641839999938384,None,P107,001,2024-11-15_13h13.15.754,posner_endo_new1,2024.2.4,60.13833018807161,2024-11-15 13h13.23.229925 +0000,
0.005,0.31,42,2,4,down,6.123853999997664,None,space,0.41255049999745097,None,,,,,,,,,4,2,42,8,3854.2735224000025,,,,,,,,,,,,3854.258522,3854.2735224000025,3854.2735224000025,3860.401761000001,,,,3860.402034300001,3860.4172633000017,3860.4172633000017,3860.4172633000017,3860.7172914000002,3860.8342672,,,,,,,,,,,,,,,down,6.123853999997664,None,space,0.41255049999745097,None,P107,001,2024-11-15_13h13.15.754,posner_endo_new1,2024.2.4,60.13833018807161,2024-11-15 13h13.23.229925 +0000,
0.31,0.005,43,3,4,up,4.0669011999998474,None,space,0.5116473000016413,None,,,,,,,,,4,3,43,1,3860.8504421000034,,,,,,,,,,,,3860.834449500002,3860.8504421000034,3860.8504421000034,3864.9302874000023,,,,3864.9305589000032,3864.9463571000015,3864.9463571000015,3864.9463571000015,3865.245504300001,3865.4628467000002,,,,,,,,,,,,,,,up,4.0669011999998474,None,space,0.5116473000016413,None,P107,001,2024-11-15_13h13.15.754,posner_endo_new1,2024.2.4,60.13833018807161,2024-11-15 13h13.23.229925 +0000,
0.005,-0.31,44,4,4,down,5.33510749999914,None,space,0.34934720000092057,None,,,,,,,,,4,4,44,7,3865.4786341,,,,,,,,,,,,3865.463038500002,3865.4786341,3865.4786341,3870.8242425000026,,,,3870.8245109000018,3870.8401415000008,3870.8401415000008,3870.8401415000008,3871.1398684000014,3871.190732500003,,,,,,,,,,,,,,,down,5.33510749999914,None,space,0.34934720000092057,None,P107,001,2024-11-15_13h13.15.754,posner_endo_new1,2024.2.4,60.13833018807161,2024-11-15 13h13.23.229925 +0000,
0.005,-0.31,45,5,4,up,6.8471624000012525,None,space,0.5358597000013106,None,,,,,,,,,4,5,45,5,3871.2066309,,,,,,,,,,,,3871.1909142000004,3871.2066309,3871.2066309,3878.0669377000013,,,,3878.0672118,3878.082843,3878.082843,3878.082843,3878.382526900001,3878.632996700002,,,,,,,,,,,,,,,up,6.8471624000012525,None,space,0.5358597000013106,None,P107,001,2024-11-15_13h13.15.754,posner_endo_new1,2024.2.4,60.13833018807161,2024-11-15 13h13.23.229925 +0000,
10,0.005,46,6,4,down,4.220543799998268,None,None,,,,,,,,,,,4,6,46,4,3878.6488654000023,,,,,,,,,,,,3878.633179800003,3878.6488654000023,3878.6488654000023,3882.878780400002,,,,3882.8790517000016,3882.894390900001,3882.894390900001,3882.894390900001,3883.194175800003,3885.891676700001,,,,,,,,,,,,,,,down,4.220543799998268,None,None,,,P107,001,2024-11-15_13h13.15.754,posner_endo_new1,2024.2.4,60.13833018807161,2024-11-15 13h13.23.229925 +0000,
-0.31,0.005,47,7,4,up,2.6970275999992737,None,space,0.4248103000027186,None,,,,,,,,,4,7,47,0,3885.908023400003,,,,,,,,,,,,3885.8918661000025,3885.908023400003,3885.908023400003,3888.6064121000018,,,,3888.6066785000003,3888.6219568000015,3888.6219568000015,3888.6219568000015,3888.921585600001,3889.0556703,,,,,,,,,,,,,,,up,2.6970275999992737,None,space,0.4248103000027186,None,P107,001,2024-11-15_13h13.15.754,posner_endo_new1,2024.2.4,60.13833018807161,2024-11-15 13h13.23.229925 +0000,
0.005,0.31,48,8,4,down,5.501306199999817,None,space,0.5408787999986089,None,,,,,,,,,4,8,48,6,3889.0717564000006,,,,,,,,,,,,3889.0558630000014,3889.0717564000006,3889.0717564000006,3894.5834596000022,,,,3894.583729500002,3894.599310200003,3894.599310200003,3894.599310200003,3894.899090900002,3895.149522300002,,,,,,,,,,,,,,,down,5.501306199999817,None,space,0.5408787999986089,None,P107,001,2024-11-15_13h13.15.754,posner_endo_new1,2024.2.4,60.13833018807161,2024-11-15 13h13.23.229925 +0000,
0.005,10,49,9,4,up,4.9127612999982375,None,None,,,,,,,,,,,4,9,49,9,3895.1651533000004,,,,,,,,,,,,3895.1497094000006,3895.1651533000004,3895.1651533000004,3900.094369000002,,,,3900.0946380000023,3900.1101641000023,3900.1101641000023,3900.1101641000023,3900.4099234000023,3903.1074142000034,,,,,,,,,,,,,,,up,4.9127612999982375,None,None,,,P107,001,2024-11-15_13h13.15.754,posner_endo_new1,2024.2.4,60.13833018807161,2024-11-15 13h13.23.229925 +0000,
0.005,-0.31,50,0,5,down,4.6340251000001444,None,space,0.3850979000017105,None,,,,,,,,,5,0,50,7,3903.1237561000016,,,,,,,,,,,,3903.1075905000034,3903.1237561000016,3903.1237561000016,3907.7699963000014,,,,3907.7702665000033,3907.7857169000017,3907.7857169000017,3907.7857169000017,3908.0855754000004,3908.1863385000033,,,,,,,,,,,,,,,down,4.6340251000001444,None,space,0.3850979000017105,None,P107,001,2024-11-15_13h13.15.754,posner_endo_new1,2024.2.4,60.13833018807161,2024-11-15 13h13.23.229925 +0000,
0.005,0.31,51,1,5,up,6.363859199998842,None,space,0.4280730000027688,None,,,,,,,,,5,1,51,6,3908.2015971,,,,,,,,,,,,3908.1865195000028,3908.2015971,3908.2015971,3914.579629400003,,,,3914.579905300001,3914.595519100003,3914.595519100003,3914.595519100003,3914.8952629000014,3915.0293077000024,,,,,,,,,,,,,,,up,6.363859199998842,None,space,0.4280730000027688,None,P107,001,2024-11-15_13h13.15.754,posner_endo_new1,2024.2.4,60.13833018807161,2024-11-15 13h13.23.229925 +0000,
0.005,-0.31,52,2,5,down,5.592163299999811,None,space,0.3995001000002958,None,,,,,,,,,5,2,52,5,3915.044917200001,,,,,,,,,,,,3915.029488,3915.044917200001,3915.044917200001,3920.6399987000004,,,,3920.6402801000004,3920.6559763000005,3920.6559763000005,3920.6559763000005,3920.955597100001,3921.056330000003,,,,,,,,,,,,,,,down,5.592163299999811,None,space,0.3995001000002958,None,P107,001,2024-11-15_13h13.15.754,posner_endo_new1,2024.2.4,60.13833018807161,2024-11-15 13h13.23.229925 +0000,
-0.31,0.005,53,3,5,up,6.9649156000014045,None,space,0.39625599999999395,None,,,,,,,,,5,3,53,0,3921.0722532,,,,,,,,,,,,3921.0565223000012,3921.0722532,3921.0722532,3928.049184700001,,,,3928.049458100002,3928.0651195000028,3928.0651195000028,3928.0651195000028,3928.3646432000023,3928.4651429000005,,,,,,,,,,,,,,,up,6.9649156000014045,None,space,0.39625599999999395,None,P107,001,2024-11-15_13h13.15.754,posner_endo_new1,2024.2.4,60.13833018807161,2024-11-15 13h13.23.229925 +0000,
0.31,0.005,54,4,5,down,8.620448699999542,None,space,0.3793175999999221,None,,,,,,,,,5,4,54,1,3928.4814092000015,,,,,,,,,,,,3928.465329100003,3928.4814092000015,3928.4814092000015,3937.1062316000025,,,,3937.1065012,3937.1223648000014,3937.1223648000014,3937.1223648000014,3937.4219725000003,3937.5063577,,,,,,,,,,,,,,,down,8.620448699999542,None,space,0.3793175999999221,None,P107,001,2024-11-15_13h13.15.754,posner_endo_new1,2024.2.4,60.13833018807161,2024-11-15 13h13.23.229925 +0000,
0.005,10,55,5,5,up,4.828047400002106,None,None,,,,,,,,,,,5,5,55,9,3937.5217262000006,,,,,,,,,,,,3937.5065375000013,3937.5217262000006,3937.5217262000006,3942.3514748000016,,,,3942.3517506000026,3942.3668668000028,3942.3668668000028,3942.3668668000028,3942.6664713000027,3945.3641700000007,,,,,,,,,,,,,,,up,4.828047400002106,None,None,,,P107,001,2024-11-15_13h13.15.754,posner_endo_new1,2024.2.4,60.13833018807161,2024-11-15 13h13.23.229925 +0000,
0.005,0.31,56,6,5,down,4.512802799999918,None,space,0.39329450000150246,None,,,,,,,,,5,6,56,8,3945.3804499000034,,,,,,,,,,,,3945.3643518000026,3945.3804499000034,3945.3804499000034,3949.9100988000027,,,,3949.9103743000014,3949.926165500001,3949.926165500001,3949.926165500001,3950.2253165,3950.326258500001,,,,,,,,,,,,,,,down,4.512802799999918,None,space,0.39329450000150246,None,P107,001,2024-11-15_13h13.15.754,posner_endo_new1,2024.2.4,60.13833018807161,2024-11-15 13h13.23.229925 +0000,
10,0.005,57,7,5,up,4.046839599999657,None,None,,,,,,,,,,,5,7,57,4,3950.342381300001,,,,,,,,,,,,3950.326448900003,3950.342381300001,3950.342381300001,3954.4054725000024,,,,3954.4057407,3954.4214599000006,3954.4214599000006,3954.4214599000006,3954.7212793000035,3957.4185432000013,,,,,,,,,,,,,,,up,4.046839599999657,None,None,,,P107,001,2024-11-15_13h13.15.754,posner_endo_new1,2024.2.4,60.13833018807161,2024-11-15 13h13.23.229925 +0000,
0.31,0.005,58,8,5,down,3.290426599996863,None,space,0.41600000000107684,None,,,,,,,,,5,8,58,3,3957.4351779000026,,,,,,,,,,,,3957.418726300002,3957.4351779000026,3957.4351779000026,3960.7322533000006,,,,3960.7325512000025,3960.7483513000006,3960.7483513000006,3960.7483513000006,3961.047845000001,3961.1654891000035,,,,,,,,,,,,,,,down,3.290426599996863,None,space,0.41600000000107684,None,P107,001,2024-11-15_13h13.15.754,posner_endo_new1,2024.2.4,60.13833018807161,2024-11-15 13h13.23.229925 +0000,
-0.31,0.005,59,9,5,up,7.1598765999988245,None,space,0.40907270000025164,None,,,,,,,,,5,9,59,2,3961.181220900002,,,,,,,,,,,,3961.1656822000004,3961.181220900002,3961.181220900002,3968.3578382000014,,,,3968.3581080000004,3968.3739026000003,3968.3739026000003,3968.3739026000003,3968.673141700001,3968.790869100001,,,,,,,,,,,,,,,up,7.1598765999988245,None,space,0.40907270000025164,None,P107,001,2024-11-15_13h13.15.754,posner_endo_new1,2024.2.4,60.13833018807161,2024-11-15 13h13.23.229925 +0000,
