target_y,target_x,thisN,thisTrialN,thisRepN,key_control2.keys,key_control2.rt,key_control2.duration,key_resp.keys,key_resp.rt,key_resp.duration,practice.thisRepN,practice.thisTrialN,practice.thisN,practice.thisIndex,session_1.thisRepN,session_1.thisTrialN,session_1.thisN,session_1.thisIndex,session_2.thisRepN,session_2.thisTrialN,session_2.thisN,session_2.thisIndex,thisRow.t,notes,instructions.started,instructions_txt.started,key_control.started,instructions.stopped,key_control.keys,key_control.rt,key_control.duration,ready.started,ready_txt.started,ready.stopped,fix.started,key_control2.started,fixation_cross.started,fix.stopped,practice.key_control2.keys,practice.key_control2.rt,practice.key_control2.duration,target.started,star.started,fixation_cross_target.started,key_resp.started,star.stopped,target.stopped,practice.key_resp.keys,practice.key_resp.rt,practice.key_resp.duration,session_1.key_control2.keys,session_1.key_control2.rt,session_1.key_control2.duration,session_1.key_resp.keys,session_1.key_resp.rt,session_1.key_resp.duration,break_2.started,text.started,key_control3.started,break_2.stopped,key_control3.keys,session_2.key_control2.keys,session_2.key_control2.rt,session_2.key_control2.duration,session_2.key_resp.keys,session_2.key_resp.rt,session_2.key_resp.duration,participant,session,date,expName,psychopyVersion,frameRate,expStart,
,,,,,,,,,,,,,,,,,,,,,,,,,0.007704400002694456,0.023276400002941955,0.023276400002941955,1785.7515101000026,up,1785.722652700002,None,,,,,,,,,,,,,,,,,,,,,,,,,,,,,,,,,,,,,P108,001,2024-11-15_14h26.54.645,posner_endo_new1,2024.2.4,60.0932647478556,2024-11-15 14h27.02.635362 +0000,
,,,,,,,,,,,,,,,,,,,,,,,,,,,,,,,,1785.7515615000011,1785.7642562,1788.7612249000013,,,,,,,,,,,,,,,,,,,,,,,,,,,,,,,,,,P108,001,2024-11-15_14h26.54.645,posner_endo_new1,2024.2.4,60.0932647478556,2024-11-15 14h27.02.635362 +0000,
0.005,10,0,0,0,up,3.39003220000086,None,None,,,0,0,0,9,,,,,,,,,1788.7792375999998,,,,,,,,,,,,1788.7681697000007,1788.7792375999998,1788.7792375999998,1792.1751559000004,up,3.39003220000086,None,1792.1754383000007,1792.1909855000013,1792.1909855000013,1792.1909855000013,1792.4907042000013,1795.1881470000008,None,,,,,,,,,,,,,,,,,,,,P108,001,2024-11-15_14h26.54.645,posner_endo_new1,2024.2.4,60.0932647478556,2024-11-15 14h27.02.635362 +0000,
0.005,0.31,1,1,0,down,0.5008476000002702,None,space,0.40080030000171973,None,0,1,1,8,,,,,,,,,1795.2046203999998,,,,,,,,,,,,1795.1883113000004,1795.2046203999998,1795.2046203999998,1795.7214359999998,down,0.5008476000002702,None,1795.7217001999998,1795.7373210000005,1795.7373210000005,1795.7373210000005,1796.0370833000015,1796.1543284,space,0.40080030000171973,None,,,,,,,,,,,,,,,,,,P108,001,2024-11-15_14h26.54.645,posner_endo_new1,2024.2.4,60.0932647478556,2024-11-15 14h27.02.635362 +0000,
-0.31,0.005,2,2,0,up,2.767336400000204,None,space,0.4280276000026788,None,0,2,2,0,,,,,,,,,1796.1702955,,,,,,,,,,,,1796.154489800003,1796.1702955,1796.1702955,1798.9515019000028,up,2.767336400000204,None,1798.9517513000028,1798.967394000003,1798.967394000003,1798.967394000003,1799.267017000002,1799.4011409000013,space,0.4280276000026788,None,,,,,,,,,,,,,,,,,,P108,001,2024-11-15_14h26.54.645,posner_endo_new1,2024.2.4,60.0932647478556,2024-11-15 14h27.02.635362 +0000,
0.005,0.31,3,3,0,down,3.151863200000662,None,space,0.28786570000011125,None,0,3,3,6,,,,,,,,,1799.4171103000008,,,,,,,,,,,,1799.4013013000003,1799.4171103000008,1799.4171103000008,1802.5811405000022,down,3.151863200000662,None,1802.5813965000016,1802.5969904000012,1802.5969904000012,1802.5969904000012,1802.8966645,1802.8974726000015,space,0.28786570000011125,None,,,,,,,,,,,,,,,,,,P108,001,2024-11-15_14h26.54.645,posner_endo_new1,2024.2.4,60.0932647478556,2024-11-15 14h27.02.635362 +0000,
0.31,0.005,4,4,0,up,3.0242737999979,None,space,0.23611850000088452,None,0,4,4,3,,,,,,,,,1802.913314700003,,,,,,,,,,,,1802.8976298000016,1802.913314700003,1802.913314700003,1805.9442854000008,up,3.0242737999979,None,1805.9445380000034,1805.9602246000031,1805.9602246000031,1805.9602246000031,,1806.2108143000005,space,0.23611850000088452,None,,,,,,,,,,,,,,,,,,P108,001,2024-11-15_14h26.54.645,posner_endo_new1,2024.2.4,60.0932647478556,2024-11-15 14h27.02.635362 +0000,
0.005,-0.31,5,5,0,down,2.919125800002803,None,space,0.29351219999807654,None,0,5,5,5,,,,,,,,,1806.226586300003,,,,,,,,,,,,1806.2109830000009,1806.226586300003,1806.226586300003,1809.157661600002,down,2.919125800002803,None,1809.157933100003,1809.1734484000008,1809.1734484000008,1809.1734484000008,1809.4731069000009,1809.473931200002,space,0.29351219999807654,None,,,,,,,,,,,,,,,,,,P108,001,2024-11-15_14h26.54.645,posner_endo_new1,2024.2.4,60.0932647478556,2024-11-15 14h27.02.635362 +0000,
0.31,0.005,6,6,0,up,3.071279499999946,None,space,0.29646520000096643,None,0,6,6,1,,,,,,,,,1809.489883600003,,,,,,,,,,,,1809.474094600002,1809.489883600003,1809.489883600003,1812.5709565000034,up,3.071279499999946,None,1812.571207500001,1812.5868243000004,1812.5868243000004,1812.5868243000004,1812.8866194000002,1812.8875216000015,space,0.29646520000096643,None,,,,,,,,,,,,,,,,,,P108,001,2024-11-15_14h26.54.645,posner_endo_new1,2024.2.4,60.0932647478556,2024-11-15 14h27.02.635362 +0000,
-0.31,0.005,7,7,0,down,3.290262900001835,None,space,0.25991139999678126,None,0,7,7,2,,,,,,,,,1812.9031770000001,,,,,,,,,,,,1812.8876851000023,1812.9031770000001,1812.9031770000001,1816.2005788000024,down,3.290262900001835,None,1816.200828500001,1816.2164281000005,1816.2164281000005,1816.2164281000005,,1816.483388200002,space,0.25991139999678126,None,,,,,,,,,,,,,,,,,,P108,001,2024-11-15_14h26.54.645,posner_endo_new1,2024.2.4,60.0932647478556,2024-11-15 14h27.02.635362 +0000,
10,0.005,8,8,0,up,3.0622632000013255,None,None,,,0,8,8,4,,,,,,,,,1816.4994625,,,,,,,,,,,,1816.4835487000018,1816.4994625,1816.4994625,1819.5641602000032,up,3.0622632000013255,None,1819.564405600002,1819.579365700003,1819.579365700003,1819.579365700003,1819.8791039000025,1822.5766712000004,None,,,,,,,,,,,,,,,,,,,,P108,001,2024-11-15_14h26.54.645,posner_endo_new1,2024.2.4,60.0932647478556,2024-11-15 14h27.02.635362 +0000,
0.005,-0.31,9,9,0,down,3.6481635000018287,None,space,0.45400379999773577,None,0,9,9,7,,,,,,,,,1822.5932557000015,,,,,,,,,,,,1822.5768289000007,1822.5932557000015,1822.5932557000015,1826.2570760000017,down,3.6481635000018287,None,1826.2573238000004,1826.272782600001,1826.272782600001,1826.272782600001,1826.5726699000006,1826.7397108000005,space,0.45400379999773577,None,,,,,,,,,,,,,,,,,,P108,001,2024-11-15_14h26.54.645,posner_endo_new1,2024.2.4,60.0932647478556,2024-11-15 14h27.02.635362 +0000,
,,,,,,,,,,,,,,,,,,,,,,,,,,,,,,,,1826.739819100003,1826.7555064000007,1829.7526502,,,,,,,,,,,,,,,,,,,,,,,,,,,,,,,,,,P108,001,2024-11-15_14h26.54.645,posner_endo_new1,2024.2.4,60.0932647478556,2024-11-15 14h27.02.635362 +0000,
0.005,-0.31,0,0,0,down,15.128723899997567,None,space,0.4005603000005067,None,,,,,0,0,0,7,,,,,1829.7691685000027,,,,,,,,,,,,1829.7583865000015,1829.7691685000027,1829.7691685000027,1844.9044949000017,,,,1844.9047527000002,1844.9204249000031,1844.9204249000031,1844.9204249000031,1845.2201131000002,1845.3373888000024,,,,down,15.128723899997567,None,space,0.4005603000005067,None,,,,,,,,,,,,P108,001,2024-11-15_14h26.54.645,posner_endo_new1,2024.2.4,60.0932647478556,2024-11-15 14h27.02.635362 +0000,
0.005,0.31,1,1,0,up,3.303804499999387,None,space,0.2949812999977439,None,,,,,0,1,1,8,,,,,1845.353295500001,,,,,,,,,,,,1845.3375543000002,1845.353295500001,1845.353295500001,1848.6674005000023,,,,1848.6676539,1848.683220400002,1848.683220400002,1848.683220400002,1848.9829372000022,1848.9837404000027,,,,up,3.303804499999387,None,space,0.2949812999977439,None,,,,,,,,,,,,P108,001,2024-11-15_14h26.54.645,posner_endo_new1,2024.2.4,60.0932647478556,2024-11-15 14h27.02.635362 +0000,
0.31,0.005,2,2,0,down,3.7944410999989486,None,space,0.3720635999998194,None,,,,,0,2,2,3,,,,,1848.9994458,,,,,,,,,,,,1848.983903700002,1848.9994458,1848.9994458,1852.7966121999998,,,,1852.796872400002,1852.8124516000025,1852.8124516000025,1852.8124516000025,1853.1120154000018,1853.1958902000006,,,,down,3.7944410999989486,None,space,0.3720635999998194,None,,,,,,,,,,,,P108,001,2024-11-15_14h26.54.645,posner_endo_new1,2024.2.4,60.0932647478556,2024-11-15 14h27.02.635362 +0000,
0.005,0.31,3,3,0,up,3.1093027999995684,None,space,0.2556983999966178,None,,,,,0,3,3,6,,,,,1853.2117929000015,,,,,,,,,,,,1853.196055100001,1853.2117929000015,1853.2117929000015,1856.3262757000011,,,,1856.3265294000012,1856.3421261000003,1856.3421261000003,1856.3421261000003,,1856.6090514000025,,,,up,3.1093027999995684,None,space,0.2556983999966178,None,,,,,,,,,,,,P108,001,2024-11-15_14h26.54.645,posner_endo_new1,2024.2.4,60.0932647478556,2024-11-15 14h27.02.635362 +0000,
0.31,0.005,4,4,0,down,3.7358939000005194,None,space,0.2748260999978811,None,,,,,0,4,4,1,,,,,1856.6250916999998,,,,,,,,,,,,1856.609218200003,1856.6250916999998,1856.6250916999998,1860.3719383000025,,,,1860.3721940000032,1860.3879462000004,1860.3879462000004,1860.3879462000004,1860.6876678000008,1860.6715736000006,,,,down,3.7358939000005194,None,space,0.2748260999978811,None,,,,,,,,,,,,P108,001,2024-11-15_14h26.54.645,posner_endo_new1,2024.2.4,60.0932647478556,2024-11-15 14h27.02.635362 +0000,
0.005,10,5,5,0,up,2.8336024999989604,None,None,,,,,,,0,5,5,9,,,,,1860.6876678000008,,,,,,,,,,,,1860.6717368999998,1860.6876678000008,1860.6876678000008,1863.5354129000007,,,,1863.535663900002,1863.5514423000022,1863.5514423000022,1863.5514423000022,1863.8510241000004,1866.5484580000011,,,,up,2.8336024999989604,None,None,,,,,,,,,,,,,,P108,001,2024-11-15_14h26.54.645,posner_endo_new1,2024.2.4,60.0932647478556,2024-11-15 14h27.02.635362 +0000,
0.005,-0.31,6,6,0,down,1.7481015000012121,None,space,0.3128383999974176,None,,,,,0,6,6,5,,,,,1866.5648606000032,,,,,,,,,,,,1866.548628200002,1866.5648606000032,1866.5648606000032,1868.3143745000016,,,,1868.3146257000008,1868.3298160000013,1868.3298160000013,1868.3298160000013,1868.6293241000021,1868.6469283000006,,,,down,1.7481015000012121,None,space,0.3128383999974176,None,,,,,,,,,,,,P108,001,2024-11-15_14h26.54.645,posner_endo_new1,2024.2.4,60.0932647478556,2024-11-15 14h27.02.635362 +0000,
10,0.005,7,7,0,up,3.0983355999997,None,None,,,,,,,0,7,7,4,,,,,1868.6628218000005,,,,,,,,,,,,1868.6470943000022,1868.6628218000005,1868.6628218000005,1871.7770178000028,,,,1871.7772756000013,1871.7929289000022,1871.7929289000022,1871.7929289000022,1872.0926174000015,1874.7900407000016,,,,up,3.0983355999997,None,None,,,,,,,,,,,,,,P108,001,2024-11-15_14h26.54.645,posner_endo_new1,2024.2.4,60.0932647478556,2024-11-15 14h27.02.635362 +0000,
-0.31,0.005,8,8,0,down,1.0749047000026621,None,space,0.2650902000023052,None,,,,,0,8,8,2,,,,,1874.8064473000013,,,,,,,,,,,,1874.7902122000014,1874.8064473000013,1874.8064473000013,1875.8895518000027,,,,1875.8898034000013,1875.9052846000013,1875.9052846000013,1875.9052846000013,,1876.172707400001,,,,down,1.0749047000026621,None,space,0.2650902000023052,None,,,,,,,,,,,,P108,001,2024-11-15_14h26.54.645,posner_endo_new1,2024.2.4,60.0932647478556,2024-11-15 14h27.02.635362 +0000,
-0.31,0.005,9,9,0,up,2.6927127999988443,None,space,0.30941600000005565,None,,,,,0,9,9,0,,,,,1876.1885263000004,,,,,,,,,,,,1876.1728756000011,1876.1885263000004,1876.1885263000004,1878.886488600001,,,,1878.8867384000005,1878.9022054000015,1878.9022054000015,1878.9022054000015,1879.202072,1879.2194871000029,,,,up,2.6927127999988443,None,space,0.30941600000005565,None,,,,,,,,,,,,P108,001,2024-11-15_14h26.54.645,posner_endo_new1,2024.2.4,60.0932647478556,2024-11-15 14h27.02.635362 +0000,
0.005,-0.31,10,0,1,down,3.925638800003071,None,space,0.37879359999715234,None,,,,,1,0,10,5,,,,,1879.2353526000006,,,,,,,,,,,,1879.2196528000022,1879.2353526000006,1879.2353526000006,1883.1654966000024,,,,1883.1657548000003,1883.1811805000034,1883.1811805000034,1883.1811805000034,1883.480871300002,1883.5651565000007,,,,down,3.925638800003071,None,space,0.37879359999715234,None,,,,,,,,,,,,P108,001,2024-11-15_14h26.54.645,posner_endo_new1,2024.2.4,60.0932647478556,2024-11-15 14h27.02.635362 +0000,
0.005,0.31,11,1,1,up,2.6763819999978296,None,space,0.3108780999973533,None,,,,,1,1,11,8,,,,,1883.5807206000027,,,,,,,,,,,,1883.5653222,1883.5807206000027,1883.5807206000027,1886.2622686000032,,,,1886.2625219000001,1886.2781490000016,1886.2781490000016,1886.2781490000016,1886.5778555000034,1886.595461500001,,,,up,2.6763819999978296,None,space,0.3108780999973533,None,,,,,,,,,,,,P108,001,2024-11-15_14h26.54.645,posner_endo_new1,2024.2.4,60.0932647478556,2024-11-15 14h27.02.635362 +0000,
0.005,10,12,2,1,down,3.7581133999992744,None,None,,,,,,,1,2,12,9,,,,,1886.6111391000013,,,,,,,,,,,,1886.5956269000017,1886.6111391000013,1886.6111391000013,1890.3746412,,,,1890.3748914000025,1890.3905553000004,1890.3905553000004,1890.3905553000004,1890.6902106000016,1893.3876417000029,,,,down,3.7581133999992744,None,None,,,,,,,,,,,,,,P108,001,2024-11-15_14h26.54.645,posner_endo_new1,2024.2.4,60.0932647478556,2024-11-15 14h27.02.635362 +0000,
10,0.005,13,3,1,up,0.005467700000735931,None,None,,,,,,,1,3,13,4,,,,,1893.4041614000016,,,,,,,,,,,,1893.3878055000023,1893.4041614000016,1893.4041614000016,1893.421509900003,,,,1893.4217586000013,1893.4374978000014,1893.4374978000014,1893.4374978000014,1893.7373141000025,1896.4344238000012,,,,up,0.005467700000735931,None,None,,,,,,,,,,,,,,P108,001,2024-11-15_14h26.54.645,posner_endo_new1,2024.2.4,60.0932647478556,2024-11-15 14h27.02.635362 +0000,
-0.31,0.005,14,4,1,down,10.542306200000894,None,space,0.3888637000018207,None,,,,,1,4,14,0,,,,,1896.4511303,,,,,,,,,,,,1896.4345850000027,1896.4511303,1896.4511303,1907.0077724000002,,,,1907.0080226000027,1907.0234674000021,1907.0234674000021,1907.0234674000021,1907.3231921000006,1907.4239117000034,,,,down,10.542306200000894,None,space,0.3888637000018207,None,,,,,,,,,,,,P108,001,2024-11-15_14h26.54.645,posner_endo_new1,2024.2.4,60.0932647478556,2024-11-15 14h27.02.635362 +0000,
0.005,0.31,15,5,1,up,2.8971674000022176,None,space,0.30712359999961336,None,,,,,1,5,15,6,,,,,1907.4397048000028,,,,,,,,,,,,1907.4240822000029,1907.4397048000028,1907.4397048000028,1910.3377119000033,,,,1910.337966500003,1910.3534349000001,1910.3534349000001,1910.3534349000001,1910.653140600003,1910.6705886000018,,,,up,2.8971674000022176,None,space,0.30712359999961336,None,,,,,,,,,,,,P108,001,2024-11-15_14h26.54.645,posner_endo_new1,2024.2.4,60.0932647478556,2024-11-15 14h27.02.635362 +0000,
0.005,-0.31,16,6,1,down,3.963059899997461,None,space,0.28187980000075186,None,,,,,1,6,16,7,,,,,1910.6865279000012,,,,,,,,,,,,1910.6707513000001,1910.6865279000012,1910.6865279000012,1914.666400500002,,,,1914.6666517000012,1914.6823909000013,1914.6823909000013,1914.6823909000013,1914.9821488000016,1914.9663542000017,,,,down,3.963059899997461,None,space,0.28187980000075186,None,,,,,,,,,,,,P108,001,2024-11-15_14h26.54.645,posner_endo_new1,2024.2.4,60.0932647478556,2024-11-15 14h27.02.635362 +0000,
0.31,0.005,17,7,1,up,2.563046499999473,None,space,0.33913790000224253,None,,,,,1,7,17,1,,,,,1914.9821488000016,,,,,,,,,,,,1914.9665179000003,1914.9821488000016,1914.9821488000016,1917.5470133000017,,,,1917.5472861000017,1917.5626770000017,1917.5626770000017,1917.5626770000017,1917.8623822000009,1917.9132645999998,,,,up,2.563046499999473,None,space,0.33913790000224253,None,,,,,,,,,,,,P108,001,2024-11-15_14h26.54.645,posner_endo_new1,2024.2.4,60.0932647478556,2024-11-15 14h27.02.635362 +0000,
0.31,0.005,18,8,1,up,15.128787400000874,None,space,0.272022700002708,None,,,,,1,8,18,3,,,,,1917.9289652000007,,,,,,,,,,,,1917.9134304,1917.9289652000007,1917.9289652000007,1933.0643156000006,,,,1933.0645681000024,1933.080362300003,1933.080362300003,1933.080362300003,1933.379852500002,1933.3639946000003,,,,up,15.128787400000874,None,space,0.272022700002708,None,,,,,,,,,,,,P108,001,2024-11-15_14h26.54.645,posner_endo_new1,2024.2.4,60.0932647478556,2024-11-15 14h27.02.635362 +0000,
-0.31,0.005,19,9,1,down,5.165628099999594,None,space,0.4013917999982368,None,,,,,1,9,19,2,,,,,1933.379852500002,,,,,,,,,,,,1933.3641583000026,1933.379852500002,1933.379852500002,1938.5588106000032,,,,1938.559063800003,1938.5747254000016,1938.5747254000016,1938.5747254000016,1938.874349400001,1938.991614300001,,,,down,5.165628099999594,None,space,0.4013917999982368,None,,,,,,,,,,,,P108,001,2024-11-15_14h26.54.645,posner_endo_new1,2024.2.4,60.0932647478556,2024-11-15 14h27.02.635362 +0000,
0.31,0.005,20,0,2,up,1.946389899996575,None,space,0.33207709999987856,None,,,,,2,0,20,3,,,,,1939.0075558000026,,,,,,,,,,,,1938.9917804000033,1939.0075558000026,1939.0075558000026,1940.9562761000016,,,,1940.9565264000012,1940.9721850000024,1940.9721850000024,1940.9721850000024,1941.2718054000034,1941.3060203000023,,,,up,1.946389899996575,None,space,0.33207709999987856,None,,,,,,,,,,,,P108,001,2024-11-15_14h26.54.645,posner_endo_new1,2024.2.4,60.0932647478556,2024-11-15 14h27.02.635362 +0000,
-0.31,0.005,21,1,2,down,4.391643300001306,None,space,0.3219690999976592,None,,,,,2,1,21,2,,,,,1941.3219246000008,,,,,,,,,,,,1941.3061936000013,1941.3219246000008,1941.3219246000008,1945.7182233000021,,,,1945.7184769000014,1945.7339145000005,1945.7339145000005,1945.7339145000005,1946.0337429000028,1946.067683600002,,,,down,4.391643300001306,None,space,0.3219690999976592,None,,,,,,,,,,,,P108,001,2024-11-15_14h26.54.645,posner_endo_new1,2024.2.4,60.0932647478556,2024-11-15 14h27.02.635362 +0000,
-0.31,0.005,22,2,2,up,3.213727199999994,None,space,0.3022017000002961,None,,,,,2,2,22,0,,,,,1946.083584400003,,,,,,,,,,,,1946.0678492000006,1946.083584400003,1946.083584400003,1949.2980549000022,,,,1949.2983101999998,1949.3140168999998,1949.3140168999998,1949.3140168999998,1949.6132671000014,1949.6306459000007,,,,up,3.213727199999994,None,space,0.3022017000002961,None,,,,,,,,,,,,P108,001,2024-11-15_14h26.54.645,posner_endo_new1,2024.2.4,60.0932647478556,2024-11-15 14h27.02.635362 +0000,
10,0.005,23,3,2,down,4.187368400002015,None,None,,,,,,,2,3,23,4,,,,,1949.6465517000033,,,,,,,,,,,,1949.6308172999998,1949.6465517000033,1949.6465517000033,1953.8430970000009,,,,1953.8433466000024,1953.8590332000022,1953.8590332000022,1953.8590332000022,1954.1587470000013,1956.8560921000026,,,,down,4.187368400002015,None,None,,,,,,,,,,,,,,P108,001,2024-11-15_14h26.54.645,posner_endo_new1,2024.2.4,60.0932647478556,2024-11-15 14h27.02.635362 +0000,
0.005,-0.31,24,4,2,up,3.4175691999989795,None,space,0.3242935000016587,None,,,,,2,4,24,7,,,,,1956.8724814000016,,,,,,,,,,,,1956.8562622000027,1956.8724814000016,1956.8724814000016,1960.3030184000017,,,,1960.3032840000014,1960.3190372999998,1960.3190372999998,1960.3190372999998,1960.6186865000018,1960.6526125000019,,,,up,3.4175691999989795,None,space,0.3242935000016587,None,,,,,,,,,,,,P108,001,2024-11-15_14h26.54.645,posner_endo_new1,2024.2.4,60.0932647478556,2024-11-15 14h27.02.635362 +0000,
0.005,0.31,25,5,2,down,5.372732300002099,None,space,0.3407203999995545,None,,,,,2,5,25,8,,,,,1960.6686880000016,,,,,,,,,,,,1960.6527788000021,1960.6686880000016,1960.6686880000016,1966.047422300002,,,,1966.047674100002,1966.0633085000009,1966.0633085000009,1966.0633085000009,1966.3628226,1966.4135640000022,,,,down,5.372732300002099,None,space,0.3407203999995545,None,,,,,,,,,,,,P108,001,2024-11-15_14h26.54.645,posner_endo_new1,2024.2.4,60.0932647478556,2024-11-15 14h27.02.635362 +0000,
0.005,-0.31,26,6,2,up,3.7877354999982344,None,space,0.35911829999895417,None,,,,,2,6,26,5,,,,,1966.4294244000012,,,,,,,,,,,,1966.4137300000002,1966.4294244000012,1966.4294244000012,1970.226317800003,,,,1970.2265705000027,1970.2423067000018,1970.2423067000018,1970.2423067000018,1970.5420040999998,1970.609262500002,,,,up,3.7877354999982344,None,space,0.35911829999895417,None,,,,,,,,,,,,P108,001,2024-11-15_14h26.54.645,posner_endo_new1,2024.2.4,60.0932647478556,2024-11-15 14h27.02.635362 +0000,
0.31,0.005,27,7,2,down,3.7844989000004716,None,space,0.3341292999975849,None,,,,,2,7,27,1,,,,,1970.6252120999998,,,,,,,,,,,,1970.6094276000003,1970.6252120999998,1970.6252120999998,1974.4221589000008,,,,1974.4224108000017,1974.4379885000017,1974.4379885000017,1974.4379885000017,1974.7377274000028,1974.7882567000015,,,,down,3.7844989000004716,None,space,0.3341292999975849,None,,,,,,,,,,,,P108,001,2024-11-15_14h26.54.645,posner_endo_new1,2024.2.4,60.0932647478556,2024-11-15 14h27.02.635362 +0000,
0.005,0.31,28,8,2,up,3.4056509000001824,None,space,0.3221391000006406,None,,,,,2,8,28,6,,,,,1974.8042240000032,,,,,,,,,,,,1974.7884201000015,1974.8042240000032,1974.8042240000032,1978.218305800001,,,,1978.2185618000003,1978.2341436000024,1978.2341436000024,1978.2341436000024,1978.533767300003,1978.5679268000022,,,,up,3.4056509000001824,None,space,0.3221391000006406,None,,,,,,,,,,,,P108,001,2024-11-15_14h26.54.645,posner_endo_new1,2024.2.4,60.0932647478556,2024-11-15 14h27.02.635362 +0000,
0.005,10,29,9,2,down,3.7943191999984265,None,None,,,,,,,2,9,29,9,,,,,1978.5836579000024,,,,,,,,,,,,1978.5680908000031,1978.5836579000024,1978.5836579000024,1982.3806479000013,,,,1982.3808973000014,1982.3966224000033,1982.3966224000033,1982.3966224000033,1982.696090700003,1985.3936474000002,,,,down,3.7943191999984265,None,None,,,,,,,,,,,,,,P108,001,2024-11-15_14h26.54.645,posner_endo_new1,2024.2.4,60.0932647478556,2024-11-15 14h27.02.635362 +0000,
0.005,10,30,0,3,down,4.983930999998847,None,None,,,,,,,3,0,30,9,,,,,1985.4100598000005,,,,,,,,,,,,1985.393810700003,1985.4100598000005,1985.4100598000005,1990.405772500002,,,,1990.4060236000005,1990.4215384000017,1990.4215384000017,1990.4215384000017,1990.7213002000026,1993.4186260000024,,,,down,4.983930999998847,None,None,,,,,,,,,,,,,,P108,001,2024-11-15_14h26.54.645,posner_endo_new1,2024.2.4,60.0932647478556,2024-11-15 14h27.02.635362 +0000,
-0.31,0.005,31,1,3,up,None,None,space,0.3079275999989477,None,,,,,3,1,31,0,,,,,1993.4352088000014,,,,,,,,,,,,1993.4187883000013,1993.4352088000014,1993.4352088000014,1993.6192373000013,,,,1993.619490000001,1993.6348718000008,1993.6348718000008,1993.6348718000008,1993.9345971000002,1993.9520523000028,,,,up,None,None,space,0.3079275999989477,None,,,,,,,,,,,,P108,001,2024-11-15_14h26.54.645,posner_endo_new1,2024.2.4,60.0932647478556,2024-11-15 14h27.02.635362 +0000,
0.005,0.31,32,2,3,down,4.4889978999999585,None,space,0.3184698000004573,None,,,,,3,2,32,8,,,,,1993.9680147,,,,,,,,,,,,1993.952219400002,1993.9680147,1993.9680147,1998.4640663999999,,,,1998.4643163,1998.4800207000008,1998.4800207000008,1998.4800207000008,1998.779651500001,1998.813996500001,,,,down,4.4889978999999585,None,space,0.3184698000004573,None,,,,,,,,,,,,P108,001,2024-11-15_14h26.54.645,posner_endo_new1,2024.2.4,60.0932647478556,2024-11-15 14h27.02.635362 +0000,
0.31,0.005,33,3,3,up,3.125046099998144,None,space,0.3372540999989724,None,,,,,3,3,33,1,,,,,1998.8297276000012,,,,,,,,,,,,1998.814165900003,1998.8297276000012,1998.8297276000012,2001.9605472000003,,,,2001.9608167000006,2001.9763865000023,2001.9763865000023,2001.9763865000023,2002.2761309000016,2002.3266389000019,,,,up,3.125046099998144,None,space,0.3372540999989724,None,,,,,,,,,,,,P108,001,2024-11-15_14h26.54.645,posner_endo_new1,2024.2.4,60.0932647478556,2024-11-15 14h27.02.635362 +0000,
-0.31,0.005,34,4,3,down,4.442463399998815,None,space,0.5948661000002176,None,,,,,3,4,34,2,,,,,2002.342771800002,,,,,,,,,,,,2002.3268048000027,2002.342771800002,2002.342771800002,2006.7890361000027,,,,2006.789298300002,2006.804804000003,2006.804804000003,2006.804804000003,2007.1044771000015,2007.4049950000008,,,,down,4.442463399998815,None,space,0.5948661000002176,None,,,,,,,,,,,,P108,001,2024-11-15_14h26.54.645,posner_endo_new1,2024.2.4,60.0932647478556,2024-11-15 14h27.02.635362 +0000,
0.005,-0.31,35,5,3,up,5.981211900001654,None,space,0.3299793000005593,None,,,,,3,5,35,5,,,,,2007.4208367000028,,,,,,,,,,,,2007.4051611000032,2007.4208367000028,2007.4208367000028,2013.4155671000008,,,,2013.415818100002,2013.4315295000015,2013.4315295000015,2013.4315295000015,2013.731163200002,2013.7652510000007,,,,up,5.981211900001654,None,space,0.3299793000005593,None,,,,,,,,,,,,P108,001,2024-11-15_14h26.54.645,posner_endo_new1,2024.2.4,60.0932647478556,2024-11-15 14h27.02.635362 +0000,
0.005,-0.31,36,6,3,down,4.716488899997785,None,space,0.38823369999954593,None,,,,,3,6,36,7,,,,,2013.7810362000018,,,,,,,,,,,,2013.765416600003,2013.7810362000018,2013.7810362000018,2018.5103086000017,,,,2018.5105637000015,2018.5261594000003,2018.5261594000003,2018.5261594000003,2018.825945200002,2018.9266159,,,,down,4.716488899997785,None,space,0.38823369999954593,None,,,,,,,,,,,,P108,001,2024-11-15_14h26.54.645,posner_endo_new1,2024.2.4,60.0932647478556,2024-11-15 14h27.02.635362 +0000,
0.005,0.31,37,7,3,up,3.8424914999995963,None,space,0.296865299998899,None,,,,,3,7,37,6,,,,,2018.942669,,,,,,,,,,,,2018.9267802000031,2018.942669,2018.942669,2022.7893863999998,,,,2022.7896403000013,2022.8051868000002,2022.8051868000002,2022.8051868000002,2023.1048461000028,2023.1057246000018,,,,up,3.8424914999995963,None,space,0.296865299998899,None,,,,,,,,,,,,P108,001,2024-11-15_14h26.54.645,posner_endo_new1,2024.2.4,60.0932647478556,2024-11-15 14h27.02.635362 +0000,
10,0.005,38,8,3,down,4.831861000002391,None,None,,,,,,,3,8,38,4,,,,,2023.1215558000004,,,,,,,,,,,,2023.105889800001,2023.1215558000004,2023.1215558000004,2027.9671817000017,,,,2027.9674378000018,2027.9832143000021,2027.9832143000021,2027.9832143000021,2028.282601400002,2030.9803425999999,,,,down,4.831861000002391,None,None,,,,,,,,,,,,,,P108,001,2024-11-15_14h26.54.645,posner_endo_new1,2024.2.4,60.0932647478556,2024-11-15 14h27.02.635362 +0000,
0.31,0.005,39,9,3,up,5.764271500000177,None,space,0.3484574000030989,None,,,,,3,9,39,3,,,,,2030.996854000001,,,,,,,,,,,,2030.9805104000006,2030.996854000001,2030.996854000001,2036.7749903000004,,,,2036.7752478000002,2036.7906838000017,2036.7906838000017,2036.7906838000017,2037.0905231000033,2037.1414517000012,,,,up,5.764271500000177,None,space,0.3484574000030989,None,,,,,,,,,,,,P108,001,2024-11-15_14h26.54.645,posner_endo_new1,2024.2.4,60.0932647478556,2024-11-15 14h27.02.635362 +0000,
0.005,-0.31,40,0,4,down,4.33274320000055,None,space,0.4013421000017843,None,,,,,4,0,40,7,,,,,2037.1571094000028,,,,,,,,,,,,2037.141624400003,2037.1571094000028,2037.1571094000028,2041.5035369000034,,,,2041.5037884000012,2041.519281500001,2041.519281500001,2041.519281500001,2041.8189550000025,2041.936469700002,,,,down,4.33274320000055,None,space,0.4013421000017843,None,,,,,,,,,,,,P108,001,2024-11-15_14h26.54.645,posner_endo_new1,2024.2.4,60.0932647478556,2024-11-15 14h27.02.635362 +0000,
-0.31,0.005,41,1,4,up,3.0491246999990835,None,space,0.35240069999781554,None,,,,,4,1,41,2,,,,,2041.9522287,,,,,,,,,,,,2041.936634900001,2041.9522287,2041.9522287,2045.0165815,,,,2045.0168325000013,2045.0324527000012,2045.0324527000012,2045.0324527000012,2045.3321178000006,2045.399430100002,,,,up,3.0491246999990835,None,space,0.35240069999781554,None,,,,,,,,,,,,P108,001,2024-11-15_14h26.54.645,posner_endo_new1,2024.2.4,60.0932647478556,2024-11-15 14h27.02.635362 +0000,
-0.31,0.005,42,2,4,down,4.09806209999806,None,space,0.3032138999988092,None,,,,,4,2,42,0,,,,,2045.4154420000013,,,,,,,,,,,,2045.3995990000003,2045.4154420000013,2045.4154420000013,2049.5284102000005,,,,2049.5286699000026,2049.544544200002,2049.544544200002,2049.544544200002,2049.8441317000033,2049.861585900002,,,,down,4.09806209999806,None,space,0.3032138999988092,None,,,,,,,,,,,,P108,001,2024-11-15_14h26.54.645,posner_endo_new1,2024.2.4,60.0932647478556,2024-11-15 14h27.02.635362 +0000,
0.005,0.31,43,3,4,up,3.211970400003338,None,space,0.31921000000147615,None,,,,,4,3,43,6,,,,,2049.8775516000023,,,,,,,,,,,,2049.8617491000005,2049.8775516000023,2049.8775516000023,2053.0916491000025,,,,2053.091898300001,2053.107515200001,2053.107515200001,2053.107515200001,2053.407179400001,2053.4413005000024,,,,up,3.211970400003338,None,space,0.31921000000147615,None,,,,,,,,,,,,P108,001,2024-11-15_14h26.54.645,posner_endo_new1,2024.2.4,60.0932647478556,2024-11-15 14h27.02.635362 +0000,
0.005,10,44,4,4,down,4.000480200000311,None,None,,,,,,,4,4,44,9,,,,,2053.457105200003,,,,,,,,,,,,2053.4414652000014,2053.457105200003,2053.457105200003,2057.4704446000032,,,,2057.4706946000006,2057.4861772000004,2057.4861772000004,2057.4861772000004,2057.786103800001,2060.4832967,,,,down,4.000480200000311,None,None,,,,,,,,,,,,,,P108,001,2024-11-15_14h26.54.645,posner_endo_new1,2024.2.4,60.0932647478556,2024-11-15 14h27.02.635362 +0000,
10,0.005,45,5,4,down,6.333226200000354,None,None,,,,,,,4,5,45,4,,,,,2060.4999731000025,,,,,,,,,,,,2060.4834560000018,2060.4999731000025,2060.4999731000025,2066.844201300002,,,,2066.844455900002,2066.860005600003,2066.860005600003,2066.860005600003,2067.1597691000024,2069.857085800002,,,,down,6.333226200000354,None,None,,,,,,,,,,,,,,P108,001,2024-11-15_14h26.54.645,posner_endo_new1,2024.2.4,60.0932647478556,2024-11-15 14h27.02.635362 +0000,
0.005,-0.31,46,6,4,down,4.840621300001658,None,space,0.39863559999866993,None,,,,,4,6,46,5,,,,,2069.873524900002,,,,,,,,,,,,2069.857237100001,2069.873524900002,2069.873524900002,2074.7195698000032,,,,2074.7198179000006,2074.735313600002,2074.735313600002,2074.735313600002,2075.0350174000014,2075.135937700001,,,,down,4.840621300001658,None,space,0.39863559999866993,None,,,,,,,,,,,,P108,001,2024-11-15_14h26.54.645,posner_endo_new1,2024.2.4,60.0932647478556,2024-11-15 14h27.02.635362 +0000,
0.31,0.005,47,7,4,up,2.9381112000010035,None,space,0.39794160000019474,None,,,,,4,7,47,1,,,,,2075.1515838000014,,,,,,,,,,,,2075.136098500003,2075.1515838000014,2075.1515838000014,2078.099347200001,,,,2078.0995950000033,2078.1154412000033,2078.1154412000033,2078.1154412000033,2078.4149679,2078.5156492000024,,,,up,2.9381112000010035,None,space,0.39794160000019474,None,,,,,,,,,,,,P108,001,2024-11-15_14h26.54.645,posner_endo_new1,2024.2.4,60.0932647478556,2024-11-15 14h27.02.635362 +0000,
0.31,0.005,48,8,4,down,3.710097700000915,None,space,0.3678487999968638,None,,,,,4,8,48,3,,,,,2078.531517000003,,,,,,,,,,,,2078.5158114000005,2078.531517000003,2078.531517000003,2082.245126500002,,,,2082.2453780000033,2082.2609558000004,2082.2609558000004,2082.2609558000004,2082.5607105000017,2082.6446904000004,,,,down,3.710097700000915,None,space,0.3678487999968638,None,,,,,,,,,,,,P108,001,2024-11-15_14h26.54.645,posner_endo_new1,2024.2.4,60.0932647478556,2024-11-15 14h27.02.635362 +0000,
0.005,0.31,49,9,4,up,3.5572568000025058,None,space,0.347181900000578,None,,,,,4,9,49,8,,,,,2082.660566900002,,,,,,,,,,,,2082.6448555000024,2082.660566900002,2082.660566900002,2086.2243351000034,,,,2086.224586100001,2086.2402299000023,2086.2402299000023,2086.2402299000023,2086.540090800001,2086.5906012000014,,,,up,3.5572568000025058,None,space,0.347181900000578,None,,,,,,,,,,,,P108,001,2024-11-15_14h26.54.645,posner_endo_new1,2024.2.4,60.0932647478556,2024-11-15 14h27.02.635362 +0000,
0.005,0.31,50,0,5,down,3.8910281999997096,None,space,0.3411460999996052,None,,,,,5,0,50,8,,,,,2086.6065314000007,,,,,,,,,,,,2086.5907663,2086.6065314000007,2086.6065314000007,2090.503230600003,,,,2090.5035002000004,2090.519261600002,2090.519261600002,2090.519261600002,2090.818994600002,2090.8695800000023,,,,down,3.8910281999997096,None,space,0.3411460999996052,None,,,,,,,,,,,,P108,001,2024-11-15_14h26.54.645,posner_endo_new1,2024.2.4,60.0932647478556,2024-11-15 14h27.02.635362 +0000,
0.31,0.005,51,1,5,up,4.756256599997869,None,space,0.3437482000008458,None,,,,,5,1,51,3,,,,,2090.885650400003,,,,,,,,,,,,2090.869739900001,2090.885650400003,2090.885650400003,2095.6479440000003,,,,2095.648202700002,2095.6640611000003,2095.6640611000003,2095.6640611000003,2095.963664500003,2096.0143728000003,,,,up,4.756256599997869,None,space,0.3437482000008458,None,,,,,,,,,,,,P108,001,2024-11-15_14h26.54.645,posner_endo_new1,2024.2.4,60.0932647478556,2024-11-15 14h27.02.635362 +0000,
0.005,-0.31,52,2,5,down,4.62755819999802,None,space,0.3696267000013904,None,,,,,5,2,52,7,,,,,2096.0302453000004,,,,,,,,,,,,2096.014536900002,2096.0302453000004,2096.0302453000004,2100.659618200003,,,,2100.659860300002,2100.675484500003,2100.675484500003,2100.675484500003,2100.975241400003,2101.059285200001,,,,down,4.62755819999802,None,space,0.3696267000013904,None,,,,,,,,,,,,P108,001,2024-11-15_14h26.54.645,posner_endo_new1,2024.2.4,60.0932647478556,2024-11-15 14h27.02.635362 +0000,
0.005,10,53,3,5,up,3.4868159999969066,None,None,,,,,,,5,3,53,9,,,,,2101.075208500002,,,,,,,,,,,,2101.0594471000004,2101.075208500002,2101.075208500002,2104.5722355,,,,2104.572470700001,2104.588269400003,2104.588269400003,2104.588269400003,2104.8879627000024,2107.5852067000014,,,,up,3.4868159999969066,None,None,,,,,,,,,,,,,,P108,001,2024-11-15_14h26.54.645,posner_endo_new1,2024.2.4,60.0932647478556,2024-11-15 14h27.02.635362 +0000,
-0.31,0.005,54,4,5,down,2.519665600000735,None,space,0.3706970999992336,None,,,,,5,4,54,0,,,,,2107.6016432000033,,,,,,,,,,,,2107.585370500001,2107.6016432000033,2107.6016432000033,2110.133242900003,,,,2110.1334967000003,2110.149136600001,2110.149136600001,2110.149136600001,2110.448862100002,2110.5328262000003,,,,down,2.519665600000735,None,space,0.3706970999992336,None,,,,,,,,,,,,P108,001,2024-11-15_14h26.54.645,posner_endo_new1,2024.2.4,60.0932647478556,2024-11-15 14h27.02.635362 +0000,
0.005,-0.31,55,5,5,up,3.6126231999987795,None,space,0.35616790000131004,None,,,,,5,5,55,5,,,,,2110.5487771000007,,,,,,,,,,,,2110.532987800001,2110.5487771000007,2110.5487771000007,2114.1624819000026,,,,2114.162731200002,2114.178422500001,2114.178422500001,2114.178422500001,2114.4781831,2114.545359400003,,,,up,3.6126231999987795,None,space,0.35616790000131004,None,,,,,,,,,,,,P108,001,2024-11-15_14h26.54.645,posner_endo_new1,2024.2.4,60.0932647478556,2024-11-15 14h27.02.635362 +0000,
10,0.005,56,6,5,down,4.30461749999813,None,None,,,,,,,5,6,56,4,,,,,2114.561292100003,,,,,,,,,,,,2114.545521,2114.561292100003,2114.561292100003,2118.8744946000006,,,,2118.8747500000027,2118.8901723000017,2118.8901723000017,2118.8901723000017,2119.189814100002,2121.8873423000005,,,,down,4.30461749999813,None,None,,,,,,,,,,,,,,P108,001,2024-11-15_14h26.54.645,posner_endo_new1,2024.2.4,60.0932647478556,2024-11-15 14h27.02.635362 +0000,
0.31,0.005,57,7,5,up,1.1861229999994976,None,space,0.40126320000126725,None,,,,,5,7,57,1,,,,,2121.903746400003,,,,,,,,,,,,2121.887512700003,2121.903746400003,2121.903746400003,2123.1032816000006,,,,2123.103531500001,2123.1192378000014,2123.1192378000014,2123.1192378000014,2123.4189074000024,2123.536107,,,,up,1.1861229999994976,None,space,0.40126320000126725,None,,,,,,,,,,,,P108,001,2024-11-15_14h26.54.645,posner_endo_new1,2024.2.4,60.0932647478556,2024-11-15 14h27.02.635362 +0000,
0.005,0.31,58,8,5,down,4.553437300000951,None,space,0.36365400000067893,None,,,,,5,8,58,6,,,,,2123.5520832,,,,,,,,,,,,2123.5362762000004,2123.5520832,2123.5520832,2128.1148973000018,,,,2128.115156400003,2128.1308021000004,2128.1308021000004,2128.1308021000004,2128.430391400001,2128.4977660000004,,,,down,4.553437300000951,None,space,0.36365400000067893,None,,,,,,,,,,,,P108,001,2024-11-15_14h26.54.645,posner_endo_new1,2024.2.4,60.0932647478556,2024-11-15 14h27.02.635362 +0000,
-0.31,0.005,59,9,5,up,3.5437674000022525,None,space,0.4119132999985595,None,,,,,5,9,59,2,,,,,2128.5136303,,,,,,,,,,,,2128.4979280000007,2128.5136303,2128.5136303,2132.0608562000016,,,,2132.061120800001,2132.0767161000003,2132.0767161000003,2132.0767161000003,2132.376379600002,2132.493912400001,,,,up,3.5437674000022525,None,space,0.4119132999985595,None,,,,,,,,,,,,P108,001,2024-11-15_14h26.54.645,posner_endo_new1,2024.2.4,60.0932647478556,2024-11-15 14h27.02.635362 +0000,
,,,,,,,,,,,,,,,,,,,,,,,,,,,,,,,,,,,,,,,,,,,,,,,,,,,,,,,,,2132.4940197000033,2132.509622900001,2132.509622900001,2192.482312,None,,,,,,,P108,001,2024-11-15_14h26.54.645,posner_endo_new1,2024.2.4,60.0932647478556,2024-11-15 14h27.02.635362 +0000,
,,,,,,,,,,,,,,,,,,,,,,,,,,,,,,,,2192.482364300002,2192.498149700001,2195.4951746000006,,,,,,,,,,,,,,,,,,,,,,,,,,,,,,,,,,P108,001,2024-11-15_14h26.54.645,posner_endo_new1,2024.2.4,60.0932647478556,2024-11-15 14h27.02.635362 +0000,
10,0.005,0,0,0,down,2.698337400001037,None,None,,,,,,,,,,,0,0,0,4,2195.5118666000017,,,,,,,,,,,,2195.5009316000032,2195.5118666000017,2195.5118666000017,2198.2265864,,,,2198.2268535000003,2198.2424468000027,2198.2424468000027,2198.2424468000027,2198.542082900003,2201.239515700003,,,,,,,,,,,,,,,down,2.698337400001037,None,None,,,P108,001,2024-11-15_14h26.54.645,posner_endo_new1,2024.2.4,60.0932647478556,2024-11-15 14h27.02.635362 +0000,
0.005,0.31,1,1,0,up,3.6730438000013237,None,space,0.35597430000052555,None,,,,,,,,,0,1,1,6,2201.2560759000007,,,,,,,,,,,,2201.239682800002,2201.2560759000007,2201.2560759000007,2204.9362789000006,,,,2204.936535800003,2204.9522123000024,2204.9522123000024,2204.9522123000024,2205.2519606000023,2205.3191216000014,,,,,,,,,,,,,,,up,3.6730438000013237,None,space,0.35597430000052555,None,P108,001,2024-11-15_14h26.54.645,posner_endo_new1,2024.2.4,60.0932647478556,2024-11-15 14h27.02.635362 +0000,
-0.31,0.005,2,2,0,down,7.730168499998399,None,space,0.4364812999992864,None,,,,,,,,,0,2,2,0,2205.3351414000026,,,,,,,,,,,,2205.3192949000004,2205.3351414000026,2205.3351414000026,2213.0780565000023,,,,2213.0783175000033,2213.0938522000033,2213.0938522000033,2213.0938522000033,2213.393594500001,2213.5441812000026,,,,,,,,,,,,,,,down,7.730168499998399,None,space,0.4364812999992864,None,P108,001,2024-11-15_14h26.54.645,posner_endo_new1,2024.2.4,60.0932647478556,2024-11-15 14h27.02.635362 +0000,
-0.31,0.005,3,3,0,up,2.872957600000518,None,space,0.4220050000003539,None,,,,,,,,,0,3,3,2,2213.5600993000007,,,,,,,,,,,,2213.54435,2213.5600993000007,2213.5600993000007,2216.4410677000014,,,,2216.441319700003,2216.4571717,2216.4571717,2216.4571717,2216.7567438000005,2216.890717800001,,,,,,,,,,,,,,,up,2.872957600000518,None,space,0.4220050000003539,None,P108,001,2024-11-15_14h26.54.645,posner_endo_new1,2024.2.4,60.0932647478556,2024-11-15 14h27.02.635362 +0000,
0.005,0.31,4,4,0,down,3.190996500001347,None,space,0.3780771999990975,None,,,,,,,,,0,4,4,8,2216.906554000001,,,,,,,,,,,,2216.890891400002,2216.906554000001,2216.906554000001,2220.1039329000014,,,,2220.1041951000007,2220.1200637,2220.1200637,2220.1200637,2220.4198007000014,2220.5037992,,,,,,,,,,,,,,,down,3.190996500001347,None,space,0.3780771999990975,None,P108,001,2024-11-15_14h26.54.645,posner_endo_new1,2024.2.4,60.0932647478556,2024-11-15 14h27.02.635362 +0000,
0.31,0.005,5,5,0,up,2.7941615999989153,None,space,0.33220170000276994,None,,,,,,,,,0,5,5,3,2220.519487900001,,,,,,,,,,,,2220.503967300003,2220.519487900001,2220.519487900001,2223.3177421,,,,2223.3179937000023,2223.3334650000033,2223.3334650000033,2223.3334650000033,2223.6330901,2223.667373100001,,,,,,,,,,,,,,,up,2.7941615999989153,None,space,0.33220170000276994,None,P108,001,2024-11-15_14h26.54.645,posner_endo_new1,2024.2.4,60.0932647478556,2024-11-15 14h27.02.635362 +0000,
0.005,-0.31,6,6,0,down,5.198274499998661,None,space,0.3481733000007807,None,,,,,,,,,0,6,6,5,2223.6829085000027,,,,,,,,,,,,2223.6675421,2223.6829085000027,2223.6829085000027,2228.8950455000013,,,,2228.8953081,2228.9110701000027,2228.9110701000027,2228.9110701000027,2229.2105978,2229.261465000003,,,,,,,,,,,,,,,down,5.198274499998661,None,space,0.3481733000007807,None,P108,001,2024-11-15_14h26.54.645,posner_endo_new1,2024.2.4,60.0932647478556,2024-11-15 14h27.02.635362 +0000,
0.005,10,7,7,0,up,3.004661999999371,None,None,,,,,,,,,,,0,7,7,9,2229.2772522000014,,,,,,,,,,,,2229.2616356,2229.2772522000014,2229.2772522000014,2232.2916038000003,,,,2232.2918525000023,2232.307646700003,2232.307646700003,2232.307646700003,2232.6070905000015,2235.3046982000014,,,,,,,,,,,,,,,up,3.004661999999371,None,None,,,P108,001,2024-11-15_14h26.54.645,posner_endo_new1,2024.2.4,60.0932647478556,2024-11-15 14h27.02.635362 +0000,
0.005,-0.31,8,8,0,down,0.856277200000477,None,space,0.27988510000068345,None,,,,,,,,,0,8,8,7,2235.3210369000008,,,,,,,,,,,,2235.3048643,2235.3210369000008,2235.3210369000008,2236.1875746000005,,,,2236.1878271000023,2236.203573400002,2236.203573400002,2236.203573400002,2236.5032556000006,2236.487513600001,,,,,,,,,,,,,,,down,0.856277200000477,None,space,0.27988510000068345,None,P108,001,2024-11-15_14h26.54.645,posner_endo_new1,2024.2.4,60.0932647478556,2024-11-15 14h27.02.635362 +0000,
0.31,0.005,9,9,0,up,3.3944602999981726,None,space,0.426358299999265,None,,,,,,,,,0,9,9,1,2236.5032556000006,,,,,,,,,,,,2236.487680600003,2236.5032556000006,2236.5032556000006,2239.9005417000008,,,,2239.9008016000007,2239.9162687000025,2239.9162687000025,2239.9162687000025,2240.2161465000027,2240.3499538000033,,,,,,,,,,,,,,,up,3.3944602999981726,None,space,0.426358299999265,None,P108,001,2024-11-15_14h26.54.645,posner_endo_new1,2024.2.4,60.0932647478556,2024-11-15 14h27.02.635362 +0000,
0.005,10,10,0,1,down,3.8432888999996067,None,None,,,,,,,,,,,1,0,10,9,2240.3659023,,,,,,,,,,,,2240.350121200001,2240.3659023,2240.3659023,2244.2129389,,,,2244.213200500002,2244.2286196000023,2244.2286196000023,2244.2286196000023,2244.52837,2247.2258014,,,,,,,,,,,,,,,down,3.8432888999996067,None,None,,,P108,001,2024-11-15_14h26.54.645,posner_endo_new1,2024.2.4,60.0932647478556,2024-11-15 14h27.02.635362 +0000,
10,0.005,11,1,1,up,0.9038103000020783,None,None,,,,,,,,,,,1,1,11,4,2247.242325000003,,,,,,,,,,,,2247.225973800003,2247.242325000003,2247.242325000003,2248.1587032000025,,,,2248.1589518,2248.1744516,2248.1744516,2248.1744516,2248.4742983000033,2251.171728100002,,,,,,,,,,,,,,,up,0.9038103000020783,None,None,,,P108,001,2024-11-15_14h26.54.645,posner_endo_new1,2024.2.4,60.0932647478556,2024-11-15 14h27.02.635362 +0000,
0.005,-0.31,12,2,1,down,2.205016500000056,None,space,0.32651980000082403,None,,,,,,,,,1,2,12,7,2251.188170900001,,,,,,,,,,,,2251.171894000003,2251.188170900001,2251.188170900001,2253.4033848,,,,2253.4036328,2253.4194474000033,2253.4194474000033,2253.4194474000033,2253.7189497,2253.7530179000023,,,,,,,,,,,,,,,down,2.205016500000056,None,space,0.32651980000082403,None,P108,001,2024-11-15_14h26.54.645,posner_endo_new1,2024.2.4,60.0932647478556,2024-11-15 14h27.02.635362 +0000,
0.005,0.31,13,3,1,up,3.3123500000001513,None,space,0.30659940000259667,None,,,,,,,,,1,3,13,6,2253.768887500002,,,,,,,,,,,,2253.753189700001,2253.768887500002,2253.768887500002,2257.0829287000015,,,,2257.0831792000026,2257.0988677000023,2257.0988677000023,2257.0988677000023,2257.3986546000015,2257.4160629,,,,,,,,,,,,,,,up,3.3123500000001513,None,space,0.30659940000259667,None,P108,001,2024-11-15_14h26.54.645,posner_endo_new1,2024.2.4,60.0932647478556,2024-11-15 14h27.02.635362 +0000,
0.005,0.31,14,4,1,down,4.08995479999794,None,space,0.2739446000014141,None,,,,,,,,,1,4,14,8,2257.4317512000016,,,,,,,,,,,,2257.416231700001,2257.4317512000016,2257.4317512000016,2261.5284656000003,,,,2261.5287169000003,2261.5443932000017,2261.5443932000017,2261.5443932000017,2261.8439104000026,2261.828145800002,,,,,,,,,,,,,,,down,4.08995479999794,None,space,0.2739446000014141,None,P108,001,2024-11-15_14h26.54.645,posner_endo_new1,2024.2.4,60.0932647478556,2024-11-15 14h27.02.635362 +0000,
-0.31,0.005,15,5,1,up,3.5261262000021816,None,space,0.3170860999998695,None,,,,,,,,,1,5,15,0,2261.8439104000026,,,,,,,,,,,,2261.828310300003,2261.8439104000026,2261.8439104000026,2265.3744560000014,,,,2265.3747116000013,2265.3903901000012,2265.3903901000012,2265.3903901000012,2265.6900163000028,2265.724156100001,,,,,,,,,,,,,,,up,3.5261262000021816,None,space,0.3170860999998695,None,P108,001,2024-11-15_14h26.54.645,posner_endo_new1,2024.2.4,60.0932647478556,2024-11-15 14h27.02.635362 +0000,
0.005,-0.31,16,6,1,down,11.821228699998755,None,space,0.32742750000033993,None,,,,,,,,,1,6,16,5,2265.7399374000015,,,,,,,,,,,,2265.7243216000024,2265.7399374000015,2265.7399374000015,2277.5621352000016,,,,2277.5623834,2277.5778635000024,2277.5778635000024,2277.5778635000024,2277.8776407000005,2277.911629500002,,,,,,,,,,,,,,,down,11.821228699998755,None,space,0.32742750000033993,None,P108,001,2024-11-15_14h26.54.645,posner_endo_new1,2024.2.4,60.0932647478556,2024-11-15 14h27.02.635362 +0000,
0.31,0.005,17,7,1,up,2.826566699997784,None,space,0.30394560000058846,None,,,,,,,,,1,7,17,3,2277.9275658000006,,,,,,,,,,,,2277.911795900003,2277.9275658000006,2277.9275658000006,2280.758779400003,,,,2280.7590275000002,2280.7744932000023,2280.7744932000023,2280.7744932000023,2281.0743081,2281.0919214000023,,,,,,,,,,,,,,,up,2.826566699997784,None,space,0.30394560000058846,None,P108,001,2024-11-15_14h26.54.645,posner_endo_new1,2024.2.4,60.0932647478556,2024-11-15 14h27.02.635362 +0000,
0.31,0.005,18,8,1,down,3.221462800000154,None,space,0.35235430000102497,None,,,,,,,,,1,8,18,1,2281.1075986000033,,,,,,,,,,,,2281.0920890000016,2281.1075986000033,2281.1075986000033,2284.338375800002,,,,2284.3386334000024,2284.3543125000033,2284.3543125000033,2284.3543125000033,2284.6539856000018,2284.7213773000003,,,,,,,,,,,,,,,down,3.221462800000154,None,space,0.35235430000102497,None,P108,001,2024-11-15_14h26.54.645,posner_endo_new1,2024.2.4,60.0932647478556,2024-11-15 14h27.02.635362 +0000,
-0.31,0.005,19,9,1,up,3.583970699997735,None,space,0.3460052000009455,None,,,,,,,,,1,9,19,2,2284.737297300002,,,,,,,,,,,,2284.7215429000025,2284.737297300002,2284.737297300002,2288.334173000003,,,,2288.3344303000013,2288.350194400002,2288.350194400002,2288.350194400002,2288.649892200003,2288.7005935000016,,,,,,,,,,,,,,,up,3.583970699997735,None,space,0.3460052000009455,None,P108,001,2024-11-15_14h26.54.645,posner_endo_new1,2024.2.4,60.0932647478556,2024-11-15 14h27.02.635362 +0000,
-0.31,0.005,20,0,2,down,4.549131699997815,None,space,0.3047073999987333,None,,,,,,,,,2,0,20,0,2288.7164631000014,,,,,,,,,,,,2288.7007860000012,2288.7164631000014,2288.7164631000014,2293.279232500001,,,,2293.2794826000027,2293.2952171000034,2293.2952171000034,2293.2952171000034,2293.5947557,2293.6122651000005,,,,,,,,,,,,,,,down,4.549131699997815,None,space,0.3047073999987333,None,P108,001,2024-11-15_14h26.54.645,posner_endo_new1,2024.2.4,60.0932647478556,2024-11-15 14h27.02.635362 +0000,
0.005,-0.31,21,1,2,up,3.50985159999982,None,space,0.3466463000004296,None,,,,,,,,,2,1,21,7,2293.6281272000015,,,,,,,,,,,,2293.6124290000007,2293.6281272000015,2293.6281272000015,2297.1419829000006,,,,2297.1422390000007,2297.1579279,2297.1579279,2297.1579279,2297.457580800001,2297.5082303000017,,,,,,,,,,,,,,,up,3.50985159999982,None,space,0.3466463000004296,None,P108,001,2024-11-15_14h26.54.645,posner_endo_new1,2024.2.4,60.0932647478556,2024-11-15 14h27.02.635362 +0000,
0.005,10,22,2,2,down,5.405973199998698,None,None,,,,,,,,,,,2,2,22,9,2297.524107100002,,,,,,,,,,,,2297.508398500002,2297.524107100002,2297.524107100002,2302.9359065000026,,,,2302.9361640000025,2302.952046800001,2302.952046800001,2302.952046800001,2303.2516411000033,2305.9490060000026,,,,,,,,,,,,,,,down,5.405973199998698,None,None,,,P108,001,2024-11-15_14h26.54.645,posner_endo_new1,2024.2.4,60.0932647478556,2024-11-15 14h27.02.635362 +0000,
0.005,-0.31,23,3,2,up,0.3958621000019775,None,space,0.35803599999781,None,,,,,,,,,2,3,23,5,2305.965515400003,,,,,,,,,,,,2305.949169300002,2305.965515400003,2305.965515400003,2306.365804300003,,,,2306.3660535000017,2306.3817303000033,2306.3817303000033,2306.3817303000033,2306.6813930000026,2306.748720900003,,,,,,,,,,,,,,,up,0.3958621000019775,None,space,0.35803599999781,None,P108,001,2024-11-15_14h26.54.645,posner_endo_new1,2024.2.4,60.0932647478556,2024-11-15 14h27.02.635362 +0000,
0.005,0.31,24,4,2,down,4.364593500002229,None,space,0.32042340000043623,None,,,,,,,,,2,4,24,6,2306.7647234000033,,,,,,,,,,,,2306.748886000001,2306.7647234000033,2306.7647234000033,2311.144235800002,,,,2311.1444997,2311.1603259000003,2311.1603259000003,2311.1603259000003,2311.4598299000027,2311.493864,,,,,,,,,,,,,,,down,4.364593500002229,None,space,0.32042340000043623,None,P108,001,2024-11-15_14h26.54.645,posner_endo_new1,2024.2.4,60.0932647478556,2024-11-15 14h27.02.635362 +0000,
0.31,0.005,25,5,2,up,3.2754251999976987,None,space,0.30718229999911273,None,,,,,,,,,2,5,25,3,2311.5099415000004,,,,,,,,,,,,2311.4940300000017,2311.5099415000004,2311.5099415000004,2314.790464700003,,,,2314.7906992000026,2314.806444900001,2314.806444900001,2314.806444900001,2315.1062805,2315.123668600001,,,,,,,,,,,,,,,up,3.2754251999976987,None,space,0.30718229999911273,None,P108,001,2024-11-15_14h26.54.645,posner_endo_new1,2024.2.4,60.0932647478556,2024-11-15 14h27.02.635362 +0000,
10,0.005,26,6,2,down,4.270142600002146,None,None,,,,,,,,,,,2,6,26,4,2315.1394598000006,,,,,,,,,,,,2315.123833200003,2315.1394598000006,2315.1394598000006,2319.419381900003,,,,2319.4196329000006,2319.4351618,2319.4351618,2319.4351618,2319.734757600003,2322.4321955000014,,,,,,,,,,,,,,,down,4.270142600002146,None,None,,,P108,001,2024-11-15_14h26.54.645,posner_endo_new1,2024.2.4,60.0932647478556,2024-11-15 14h27.02.635362 +0000,
0.005,0.31,27,7,2,up,1.2244356999981392,None,space,0.35136859999693115,None,,,,,,,,,2,7,27,8,2322.448650600003,,,,,,,,,,,,2322.432359000002,2322.448650600003,2322.448650600003,2323.6815523000005,,,,2323.681800100003,2323.6970843000017,2323.6970843000017,2323.6970843000017,2323.9971111000013,2324.0644517,,,,,,,,,,,,,,,up,1.2244356999981392,None,space,0.35136859999693115,None,P108,001,2024-11-15_14h26.54.645,posner_endo_new1,2024.2.4,60.0932647478556,2024-11-15 14h27.02.635362 +0000,
-0.31,0.005,28,8,2,down,4.160881100000552,None,space,0.5343687999993563,None,,,,,,,,,2,8,28,2,2324.0803011000025,,,,,,,,,,,,2324.064616200001,2324.0803011000025,2324.0803011000025,2328.243540000003,,,,2328.2437863000014,2328.2593904000023,2328.2593904000023,2328.2593904000023,2328.5589978000025,2328.8095294000013,,,,,,,,,,,,,,,down,4.160881100000552,None,space,0.5343687999993563,None,P108,001,2024-11-15_14h26.54.645,posner_endo_new1,2024.2.4,60.0932647478556,2024-11-15 14h27.02.635362 +0000,
0.31,0.005,29,9,2,up,2.456126100001711,None,space,0.30853799999749754,None,,,,,,,,,2,9,29,1,2328.8255776000005,,,,,,,,,,,,2328.809699900001,2328.8255776000005,2328.8255776000005,2331.2904173000024,,,,2331.2906666000017,2331.3062046000014,2331.3062046000014,2331.3062046000014,2331.6059055000005,2331.623246700001,,,,,,,,,,,,,,,up,2.456126100001711,None,space,0.30853799999749754,None,P108,001,2024-11-15_14h26.54.645,posner_endo_new1,2024.2.4,60.0932647478556,2024-11-15 14h27.02.635362 +0000,
0.005,-0.31,30,0,3,down,4.258136699998431,None,space,0.28151770000113174,None,,,,,,,,,3,0,30,7,2331.6394624000022,,,,,,,,,,,,2331.623412500001,2331.6394624000022,2331.6394624000022,2335.9024218000013,,,,2335.902676700003,2335.918246600002,2335.918246600002,2335.918246600002,2336.2180210000006,2336.2021657000005,,,,,,,,,,,,,,,down,4.258136699998431,None,space,0.28151770000113174,None,P108,001,2024-11-15_14h26.54.645,posner_endo_new1,2024.2.4,60.0932647478556,2024-11-15 14h27.02.635362 +0000,
0.005,10,31,1,3,up,3.1036082999999053,None,None,,,,,,,,,,,3,1,31,9,2336.2180210000006,,,,,,,,,,,,2336.202331200002,2336.2180210000006,2336.2180210000006,2339.332155600001,,,,2339.3324139000033,2339.348041100002,2339.348041100002,2339.348041100002,2339.6477863,2342.3450674000014,,,,,,,,,,,,,,,up,3.1036082999999053,None,None,,,P108,001,2024-11-15_14h26.54.645,posner_endo_new1,2024.2.4,60.0932647478556,2024-11-15 14h27.02.635362 +0000,
0.005,0.31,32,2,3,down,2.8001235999981873,None,space,0.33514650000142865,None,,,,,,,,,3,2,32,8,2342.3617104000004,,,,,,,,,,,,2342.3452320000033,2342.3617104000004,2342.3617104000004,2345.1761436000015,,,,2345.1763944000013,2345.192144800003,2345.192144800003,2345.192144800003,2345.4918165000017,2345.5423481,,,,,,,,,,,,,,,down,2.8001235999981873,None,space,0.33514650000142865,None,P108,001,2024-11-15_14h26.54.645,posner_endo_new1,2024.2.4,60.0932647478556,2024-11-15 14h27.02.635362 +0000,
0.31,0.005,33,3,3,up,2.9708855999997468,None,space,0.28767919999881997,None,,,,,,,,,3,3,33,3,2345.558262100003,,,,,,,,,,,,2345.5425173000003,2345.558262100003,2345.558262100003,2348.5392871000004,,,,2348.5395370000006,2348.555348200003,2348.555348200003,2348.555348200003,2348.8548451000024,2348.8556610000014,,,,,,,,,,,,,,,up,2.9708855999997468,None,space,0.28767919999881997,None,P108,001,2024-11-15_14h26.54.645,posner_endo_new1,2024.2.4,60.0932647478556,2024-11-15 14h27.02.635362 +0000,
-0.31,0.005,34,4,3,down,4.930001299999276,None,space,0.3373455000000831,None,,,,,,,,,3,4,34,2,2348.871638200002,,,,,,,,,,,,2348.855825900002,2348.871638200002,2348.871638200002,2353.8172969000007,,,,2353.817545400001,2353.833263100001,2353.833263100001,2353.833263100001,2354.132860700003,2354.1836124,,,,,,,,,,,,,,,down,4.930001299999276,None,space,0.3373455000000831,None,P108,001,2024-11-15_14h26.54.645,posner_endo_new1,2024.2.4,60.0932647478556,2024-11-15 14h27.02.635362 +0000,
0.31,0.005,35,5,3,up,3.0342595000001893,None,space,0.2884066000005987,None,,,,,,,,,3,5,35,1,2354.1994293000025,,,,,,,,,,,,2354.1837852000026,2354.1994293000025,2354.1994293000025,2357.247131600001,,,,2357.2473807000024,2357.2630155000006,2357.2630155000006,2357.2630155000006,2357.5627776,2357.5635946,,,,,,,,,,,,,,,up,3.0342595000001893,None,space,0.2884066000005987,None,P108,001,2024-11-15_14h26.54.645,posner_endo_new1,2024.2.4,60.0932647478556,2024-11-15 14h27.02.635362 +0000,
0.005,0.31,36,6,3,down,4.926202200000262,None,space,0.2899230000002717,None,,,,,,,,,3,6,36,6,2357.579432800001,,,,,,,,,,,,2357.5637580000002,2357.579432800001,2357.579432800001,2362.5085113000023,,,,2362.5087495000007,2362.5244311000024,2362.5244311000024,2362.5244311000024,2362.8240812000004,2362.8248999000025,,,,,,,,,,,,,,,down,4.926202200000262,None,space,0.2899230000002717,None,P108,001,2024-11-15_14h26.54.645,posner_endo_new1,2024.2.4,60.0932647478556,2024-11-15 14h27.02.635362 +0000,
10,0.005,37,7,3,up,3.312873800001398,None,None,,,,,,,,,,,3,7,37,4,2362.8405796000006,,,,,,,,,,,,2362.8250640000006,2362.8405796000006,2362.8405796000006,2366.1546481000005,,,,2366.154900900001,2366.170587200002,2366.170587200002,2366.170587200002,2366.4702345000005,2369.167693700001,,,,,,,,,,,,,,,up,3.312873800001398,None,None,,,P108,001,2024-11-15_14h26.54.645,posner_endo_new1,2024.2.4,60.0932647478556,2024-11-15 14h27.02.635362 +0000,
0.005,-0.31,38,8,3,down,3.169565500000317,None,space,0.29597110000031535,None,,,,,,,,,3,8,38,5,2369.1842062000032,,,,,,,,,,,,2369.167866300002,2369.1842062000032,2369.1842062000032,2372.365119600003,,,,2372.3653693000015,2372.3808857000004,2372.3808857000004,2372.3808857000004,2372.680649500002,2372.6814494000027,,,,,,,,,,,,,,,down,3.169565500000317,None,space,0.29597110000031535,None,P108,001,2024-11-15_14h26.54.645,posner_endo_new1,2024.2.4,60.0932647478556,2024-11-15 14h27.02.635362 +0000,
-0.31,0.005,39,9,3,up,3.1840542999998434,None,space,0.3431371000006038,None,,,,,,,,,3,9,39,0,2372.6973335000002,,,,,,,,,,,,2372.6816124000034,2372.6973335000002,2372.6973335000002,2375.8947432000023,,,,2375.8949962000006,2375.9106890000003,2375.9106890000003,2375.9106890000003,2376.2103688000025,2376.2609577000003,,,,,,,,,,,,,,,up,3.1840542999998434,None,space,0.3431371000006038,None,P108,001,2024-11-15_14h26.54.645,posner_endo_new1,2024.2.4,60.0932647478556,2024-11-15 14h27.02.635362 +0000,
10,0.005,40,0,4,down,4.468923300002643,None,None,,,,,,,,,,,4,0,40,4,2376.2770812000017,,,,,,,,,,,,2376.2611225,2376.2770812000017,2376.2770812000017,2380.7565280000017,,,,2380.756778400002,2380.7723325000006,2380.7723325000006,2380.7723325000006,2381.0722480000004,2383.7693884,,,,,,,,,,,,,,,down,4.468923300002643,None,None,,,P108,001,2024-11-15_14h26.54.645,posner_endo_new1,2024.2.4,60.0932647478556,2024-11-15 14h27.02.635362 +0000,
0.005,-0.31,41,1,4,up,1.6160224999985076,None,space,0.3938726999986102,None,,,,,,,,,4,1,41,5,2383.7858350000024,,,,,,,,,,,,2383.769543800001,2383.7858350000024,2383.7858350000024,2385.4184575,,,,2385.4187084000005,2385.4342079000016,2385.4342079000016,2385.4342079000016,2385.7338124000016,2385.8345449000008,,,,,,,,,,,,,,,up,1.6160224999985076,None,space,0.3938726999986102,None,P108,001,2024-11-15_14h26.54.645,posner_endo_new1,2024.2.4,60.0932647478556,2024-11-15 14h27.02.635362 +0000,
0.005,0.31,42,2,4,down,4.9355735999997705,None,space,0.38426479999907315,None,,,,,,,,,4,2,42,6,2385.8504525000026,,,,,,,,,,,,2385.834715300003,2385.8504525000026,2385.8504525000026,2390.7962155000023,,,,2390.796453400002,2390.812041600002,2390.812041600002,2390.812041600002,2391.111687300003,2391.2124213000025,,,,,,,,,,,,,,,down,4.9355735999997705,None,space,0.38426479999907315,None,P108,001,2024-11-15_14h26.54.645,posner_endo_new1,2024.2.4,60.0932647478556,2024-11-15 14h27.02.635362 +0000,
0.005,-0.31,43,3,4,up,3.589136700000381,None,space,0.35868180000034044,None,,,,,,,,,4,3,43,7,2391.2284070000023,,,,,,,,,,,,2391.2125892000004,2391.2284070000023,2391.2284070000023,2394.825463600002,,,,2394.8257232000033,2394.8411994000016,2394.8411994000016,2394.8411994000016,2395.1409165000005,2395.2083837000027,,,,,,,,,,,,,,,up,3.589136700000381,None,space,0.35868180000034044,None,P108,001,2024-11-15_14h26.54.645,posner_endo_new1,2024.2.4,60.0932647478556,2024-11-15 14h27.02.635362 +0000,
0.31,0.005,44,4,4,down,4.937425600001006,None,space,0.32765260000087437,None,,,,,,,,,4,4,44,1,2395.2241908000033,,,,,,,,,,,,2395.2085466000026,2395.2241908000033,2395.2241908000033,2400.1700905,,,,2400.1703425000014,2400.1858463000026,2400.1858463000026,2400.1858463000026,2400.4857052000007,2400.5193553000026,,,,,,,,,,,,,,,down,4.937425600001006,None,space,0.32765260000087437,None,P108,001,2024-11-15_14h26.54.645,posner_endo_new1,2024.2.4,60.0932647478556,2024-11-15 14h27.02.635362 +0000,
-0.31,0.005,45,5,4,up,3.402134699997987,None,space,0.35032919999866863,None,,,,,,,,,4,5,45,0,2400.5354657000025,,,,,,,,,,,,2400.5195194000007,2400.5354657000025,2400.5354657000025,2403.9494176000007,,,,2403.9496720000025,2403.965343,2403.965343,2403.965343,2404.265036200002,2404.332252,,,,,,,,,,,,,,,up,3.402134699997987,None,space,0.35032919999866863,None,P108,001,2024-11-15_14h26.54.645,posner_endo_new1,2024.2.4,60.0932647478556,2024-11-15 14h27.02.635362 +0000,
-0.31,0.005,46,6,4,down,4.494738100001996,None,space,0.32646269999895594,None,,,,,,,,,4,6,46,2,2404.348217900002,,,,,,,,,,,,2404.332419600003,2404.348217900002,2404.348217900002,2408.8445567000017,,,,2408.8448069000005,2408.8603492,2408.8603492,2408.8603492,2409.160152100001,2409.194081400001,,,,,,,,,,,,,,,down,4.494738100001996,None,space,0.32646269999895594,None,P108,001,2024-11-15_14h26.54.645,posner_endo_new1,2024.2.4,60.0932647478556,2024-11-15 14h27.02.635362 +0000,
0.31,0.005,47,7,4,up,2.887636699997529,None,space,0.3122671999990416,None,,,,,,,,,4,7,47,3,2409.2099155000033,,,,,,,,,,,,2409.1942509,2409.2099155000033,2409.2099155000033,2412.107801600003,,,,2412.1080524999998,2412.123709700001,2412.123709700001,2412.123709700001,2412.4233638000005,2412.440780500001,,,,,,,,,,,,,,,up,2.887636699997529,None,space,0.3122671999990416,None,P108,001,2024-11-15_14h26.54.645,posner_endo_new1,2024.2.4,60.0932647478556,2024-11-15 14h27.02.635362 +0000,
0.005,0.31,48,8,4,down,3.881204000001162,None,space,0.3174475000014354,None,,,,,,,,,4,8,48,8,2412.456633400001,,,,,,,,,,,,2412.4409489000027,2412.456633400001,2412.456633400001,2416.353279400002,,,,2416.3535292000015,2416.3692956000014,2416.3692956000014,2416.3692956000014,2416.6690288000027,2416.7031427,,,,,,,,,,,,,,,down,3.881204000001162,None,space,0.3174475000014354,None,P108,001,2024-11-15_14h26.54.645,posner_endo_new1,2024.2.4,60.0932647478556,2024-11-15 14h27.02.635362 +0000,
0.005,10,49,9,4,up,3.5942125000001397,None,None,,,,,,,,,,,4,9,49,9,2416.7190064000024,,,,,,,,,,,,2416.703308100001,2416.7190064000024,2416.7190064000024,2420.316094200003,,,,2420.3163472000015,2420.3319550000015,2420.3319550000015,2420.3319550000015,2420.6315740000027,2423.328884600003,,,,,,,,,,,,,,,up,3.5942125000001397,None,None,,,P108,001,2024-11-15_14h26.54.645,posner_endo_new1,2024.2.4,60.0932647478556,2024-11-15 14h27.02.635362 +0000,
0.005,-0.31,50,0,5,down,1.9446714999976393,None,space,0.4117160999994667,None,,,,,,,,,5,0,50,7,2423.3454937000024,,,,,,,,,,,,2423.3290521000017,2423.3454937000024,2423.3454937000024,2425.294244200002,,,,2425.2944958000007,2425.3105329000027,2425.3105329000027,2425.3105329000027,2425.6099087000002,2425.727332900002,,,,,,,,,,,,,,,down,1.9446714999976393,None,space,0.4117160999994667,None,P108,001,2024-11-15_14h26.54.645,posner_endo_new1,2024.2.4,60.0932647478556,2024-11-15 14h27.02.635362 +0000,
0.005,10,51,1,5,up,3.9385452999995323,None,None,,,,,,,,,,,5,1,51,9,2425.7431234000032,,,,,,,,,,,,2425.7274985000004,2425.7431234000032,2425.7431234000032,2429.689958500003,,,,2429.690223100002,2429.7057604,2429.7057604,2429.7057604,2430.0052931000027,2432.7027332,,,,,,,,,,,,,,,up,3.9385452999995323,None,None,,,P108,001,2024-11-15_14h26.54.645,posner_endo_new1,2024.2.4,60.0932647478556,2024-11-15 14h27.02.635362 +0000,
-0.31,0.005,52,2,5,down,1.3221052999979293,None,space,0.288134500002343,None,,,,,,,,,5,2,52,0,2432.7191899000027,,,,,,,,,,,,2432.7028978000017,2432.7191899000027,2432.7191899000027,2434.0518218000034,,,,2434.052074200001,2434.0677907000027,2434.0677907000027,2434.0677907000027,2434.3674728000005,2434.368277400001,,,,,,,,,,,,,,,down,1.3221052999979293,None,space,0.288134500002343,None,P108,001,2024-11-15_14h26.54.645,posner_endo_new1,2024.2.4,60.0932647478556,2024-11-15 14h27.02.635362 +0000,
0.005,-0.31,53,3,5,up,2.849121199997171,None,space,0.3365157999978692,None,,,,,,,,,5,3,53,5,2434.3842637000016,,,,,,,,,,,,2434.3684404000014,2434.3842637000016,2434.3842637000016,2437.248706100003,,,,2437.2489566000004,2437.2646534000014,2437.2646534000014,2437.2646534000014,2437.5642688000007,2437.614951300002,,,,,,,,,,,,,,,up,2.849121199997171,None,space,0.3365157999978692,None,P108,001,2024-11-15_14h26.54.645,posner_endo_new1,2024.2.4,60.0932647478556,2024-11-15 14h27.02.635362 +0000,
0.31,0.005,54,4,5,down,5.282851100000698,None,space,0.2848182000016095,None,,,,,,,,,5,4,54,1,2437.6309741000005,,,,,,,,,,,,2437.6151266000015,2437.6309741000005,2437.6309741000005,2442.926260700002,,,,2442.9265111000022,2442.9421133000033,2442.9421133000033,2442.9421133000033,2443.2418571000017,2443.242694700002,,,,,,,,,,,,,,,down,5.282851100000698,None,space,0.2848182000016095,None,P108,001,2024-11-15_14h26.54.645,posner_endo_new1,2024.2.4,60.0932647478556,2024-11-15 14h27.02.635362 +0000,
0.005,0.31,55,5,5,up,3.919127599998319,None,space,0.45319240000026184,None,,,,,,,,,5,5,55,8,2443.258548500002,,,,,,,,,,,,2443.242856300003,2443.258548500002,2443.258548500002,2447.1887638000007,,,,2447.1890098000003,2447.2043453000006,2447.2043453000006,2447.2043453000006,2447.503742500001,2447.6720116000033,,,,,,,,,,,,,,,up,3.919127599998319,None,space,0.45319240000026184,None,P108,001,2024-11-15_14h26.54.645,posner_endo_new1,2024.2.4,60.0932647478556,2024-11-15 14h27.02.635362 +0000,
-0.31,0.005,56,6,5,down,4.267163399999845,None,space,0.37599279999994906,None,,,,,,,,,5,6,56,2,2447.686787400002,,,,,,,,,,,,2447.672197400003,2447.686787400002,2447.686787400002,2451.9668592000016,,,,2451.967117100001,2451.982729800002,2451.982729800002,2451.982729800002,2452.282502000002,2452.3664646000034,,,,,,,,,,,,,,,down,4.267163399999845,None,space,0.37599279999994906,None,P108,001,2024-11-15_14h26.54.645,posner_endo_new1,2024.2.4,60.0932647478556,2024-11-15 14h27.02.635362 +0000,
0.31,0.005,57,7,5,up,3.747301499999594,None,space,0.30078750000029686,None,,,,,,,,,5,7,57,3,2452.382305400002,,,,,,,,,,,,2452.366630700002,2452.382305400002,2452.382305400002,2456.1461202000028,,,,2456.1463716,2456.1618892000006,2456.1618892000006,2456.1618892000006,2456.4616406000023,2456.4790281000023,,,,,,,,,,,,,,,up,3.747301499999594,None,space,0.30078750000029686,None,P108,001,2024-11-15_14h26.54.645,posner_endo_new1,2024.2.4,60.0932647478556,2024-11-15 14h27.02.635362 +0000,
0.005,0.31,58,8,5,down,4.995747299999493,None,space,0.2664076000000932,None,,,,,,,,,5,8,58,6,2456.495016800003,,,,,,,,,,,,2456.4791941000003,2456.495016800003,2456.495016800003,2461.5071725000016,,,,2461.5074341,2461.5231171000014,2461.5231171000014,2461.5231171000014,,2461.790450700002,,,,,,,,,,,,,,,down,4.995747299999493,None,space,0.2664076000000932,None,P108,001,2024-11-15_14h26.54.645,posner_endo_new1,2024.2.4,60.0932647478556,2024-11-15 14h27.02.635362 +0000,
10,0.005,59,9,5,up,5.379134599999816,None,None,,,,,,,,,,,5,9,59,4,2461.8060616000002,,,,,,,,,,,,2461.790617800001,2461.8060616000002,2461.8060616000002,2467.201483800003,,,,2467.2017446000027,2467.217173500001,2467.217173500001,2467.217173500001,2467.517076700002,2470.214218600002,,,,,,,,,,,,,,,up,5.379134599999816,None,None,,,P108,001,2024-11-15_14h26.54.645,posner_endo_new1,2024.2.4,60.0932647478556,2024-11-15 14h27.02.635362 +0000,
