target_y,target_x,thisN,thisTrialN,thisRepN,key_control2.keys,key_control2.rt,key_control2.duration,key_resp.keys,key_resp.rt,key_resp.duration,practice.thisRepN,practice.thisTrialN,practice.thisN,practice.thisIndex,session_1.thisRepN,session_1.thisTrialN,session_1.thisN,session_1.thisIndex,session_2.thisRepN,session_2.thisTrialN,session_2.thisN,session_2.thisIndex,thisRow.t,notes,instructions.started,instructions_txt.started,key_control.started,instructions.stopped,key_control.keys,key_control.rt,key_control.duration,ready.started,ready_txt.started,ready.stopped,fix.started,key_control2.started,fixation_cross.started,fix.stopped,practice.key_control2.keys,practice.key_control2.rt,practice.key_control2.duration,target.started,star.started,fixation_cross_target.started,key_resp.started,star.stopped,target.stopped,practice.key_resp.keys,practice.key_resp.rt,practice.key_resp.duration,session_1.key_control2.keys,session_1.key_control2.rt,session_1.key_control2.duration,session_1.key_resp.keys,session_1.key_resp.rt,session_1.key_resp.duration,break_2.started,text.started,key_control3.started,break_2.stopped,key_control3.keys,session_2.key_control2.keys,session_2.key_control2.rt,session_2.key_control2.duration,session_2.key_resp.keys,session_2.key_resp.rt,session_2.key_resp.duration,participant,session,date,expName,psychopyVersion,frameRate,expStart,
,,,,,,,,,,,,,,,,,,,,,,,,,0.007466700000804849,0.02470790000006673,0.02470790000006673,2.945149200000742,up,2.9018849000021874,None,,,,,,,,,,,,,,,,,,,,,,,,,,,,,,,,,,,,,P109,001,2024-11-15_16h17.06.166,posner_endo_new1,2024.2.4,60.051007325150486,2024-11-15 16h17.13.888632 +0000,
,,,,,,,,,,,,,,,,,,,,,,,,,,,,,,,,2.945218199998635,2.9569904999989376,5.952620600000955,,,,,,,,,,,,,,,,,,,,,,,,,,,,,,,,,,P109,001,2024-11-15_16h17.06.166,posner_endo_new1,2024.2.4,60.051007325150486,2024-11-15 16h17.13.888632 +0000,
10,0.005,0,0,0,down,9.89819179999904,None,None,,,0,0,0,4,,,,,,,,,5.972149799999897,,,,,,,,,,,,5.963131799999246,5.972149799999897,5.972149799999897,15.877295199999935,down,9.89819179999904,None,15.877655200001755,15.892772899998818,15.892772899998818,15.892772899998818,16.19219389999853,18.889519700001983,None,,,,,,,,,,,,,,,,,,,,P109,001,2024-11-15_16h17.06.166,posner_endo_new1,2024.2.4,60.051007325150486,2024-11-15 16h17.13.888632 +0000,
0.005,-0.31,1,1,0,up,1.8440104000001156,None,space,0.4570701000011468,None,0,1,1,5,,,,,,,,,18.90607209999871,,,,,,,,,,,,18.889744000000064,18.90607209999871,18.90607209999871,20.75536469999861,up,1.8440104000001156,None,20.755710800000088,20.770813300001464,20.770813300001464,20.770813300001464,21.07053409999935,21.238086000001204,space,0.4570701000011468,None,,,,,,,,,,,,,,,,,,P109,001,2024-11-15_16h17.06.166,posner_endo_new1,2024.2.4,60.051007325150486,2024-11-15 16h17.13.888632 +0000,
-0.31,0.005,2,2,0,down,4.720833700001094,None,space,0.3308004999998957,None,0,2,2,2,,,,,,,,,21.25365260000035,,,,,,,,,,,,21.238319500000216,21.25365260000035,21.25365260000035,25.98331909999979,down,4.720833700001094,None,25.9836733000011,25.998721100000694,25.998721100000694,25.998721100000694,26.29852060000121,26.332830999999715,space,0.3308004999998957,None,,,,,,,,,,,,,,,,,,P109,001,2024-11-15_16h17.06.166,posner_endo_new1,2024.2.4,60.051007325150486,2024-11-15 16h17.13.888632 +0000,
0.005,0.31,3,3,0,up,4.442023799998424,None,space,0.4227820999985852,None,0,3,3,6,,,,,,,,,26.3484712999998,,,,,,,,,,,,26.333060699998896,26.3484712999998,26.3484712999998,30.795041800000035,up,4.442023799998424,None,30.79539400000067,30.810516800000187,30.810516800000187,30.810516800000187,31.110208900001453,31.244619299999613,space,0.4227820999985852,None,,,,,,,,,,,,,,,,,,P109,001,2024-11-15_16h17.06.166,posner_endo_new1,2024.2.4,60.051007325150486,2024-11-15 16h17.13.888632 +0000,
0.005,-0.31,4,4,0,down,3.9626740999992762,None,space,0.3383943000008003,None,0,4,4,7,,,,,,,,,31.260145600001124,,,,,,,,,,,,31.24485139999888,31.260145600001124,31.260145600001124,35.223991700000624,down,3.9626740999992762,None,35.22434350000185,35.23938900000212,35.23938900000212,35.23938900000212,35.53910790000009,35.5901182000016,space,0.3383943000008003,None,,,,,,,,,,,,,,,,,,P109,001,2024-11-15_16h17.06.166,posner_endo_new1,2024.2.4,60.051007325150486,2024-11-15 16h17.13.888632 +0000,
0.005,0.31,5,5,0,up,5.784694399997534,None,space,0.3068462000010186,None,0,5,5,8,,,,,,,,,35.605659699998796,,,,,,,,,,,,35.590363100000104,35.605659699998796,35.605659699998796,41.40096360000098,up,5.784694399997534,None,41.40131069999916,41.41637339999943,41.41637339999943,41.41637339999943,41.71599530000094,41.73382689999926,space,0.3068462000010186,None,,,,,,,,,,,,,,,,,,P109,001,2024-11-15_16h17.06.166,posner_endo_new1,2024.2.4,60.051007325150486,2024-11-15 16h17.13.888632 +0000,
0.31,0.005,6,6,0,down,7.704931099997339,None,space,0.30837160000010044,None,0,6,6,3,,,,,,,,,41.749326799999835,,,,,,,,,,,,41.734057000001485,41.749326799999835,41.749326799999835,49.45935620000091,down,7.704931099997339,None,49.45970419999867,49.474760799999785,49.474760799999785,49.474760799999785,49.77447860000029,49.79229630000191,space,0.30837160000010044,None,,,,,,,,,,,,,,,,,,P109,001,2024-11-15_16h17.06.166,posner_endo_new1,2024.2.4,60.051007325150486,2024-11-15 16h17.13.888632 +0000,
0.31,0.005,7,7,0,up,6.590514499999699,None,space,0.46347469999818713,None,0,7,7,1,,,,,,,,,49.80781190000198,,,,,,,,,,,,49.79252769999948,49.80781190000198,49.80781190000198,56.402148100001796,up,6.590514499999699,None,56.40252709999913,56.417654000000766,56.417654000000766,56.417654000000766,56.717322100001184,56.88515090000146,space,0.46347469999818713,None,,,,,,,,,,,,,,,,,,P109,001,2024-11-15_16h17.06.166,posner_endo_new1,2024.2.4,60.051007325150486,2024-11-15 16h17.13.888632 +0000,
0.005,10,8,8,0,down,6.249801599999046,None,None,,,0,8,8,9,,,,,,,,,56.90053629999966,,,,,,,,,,,,56.88538340000014,56.90053629999966,56.90053629999966,63.16188179999881,down,6.249801599999046,None,63.16223960000207,63.1774413000021,63.1774413000021,63.1774413000021,63.47710029999871,66.17455139999947,None,,,,,,,,,,,,,,,,,,,,P109,001,2024-11-15_16h17.06.166,posner_endo_new1,2024.2.4,60.051007325150486,2024-11-15 16h17.13.888632 +0000,
-0.31,0.005,9,9,0,up,2.535208600002079,None,space,0.3380011999979615,None,0,9,9,0,,,,,,,,,66.19102969999949,,,,,,,,,,,,66.17478620000111,66.19102969999949,66.19102969999949,68.73943090000103,up,2.535208600002079,None,68.7397775999998,68.75513150000188,68.75513150000188,68.75513150000188,69.05483200000162,69.10561769999913,space,0.3380011999979615,None,,,,,,,,,,,,,,,,,,P109,001,2024-11-15_16h17.06.166,posner_endo_new1,2024.2.4,60.051007325150486,2024-11-15 16h17.13.888632 +0000,
,,,,,,,,,,,,,,,,,,,,,,,,,,,,,,,,69.1057707,69.12127310000142,72.11848490000193,,,,,,,,,,,,,,,,,,,,,,,,,,,,,,,,,,P109,001,2024-11-15_16h17.06.166,posner_endo_new1,2024.2.4,60.051007325150486,2024-11-15 16h17.13.888632 +0000,
0.005,0.31,0,0,0,up,8.901537199999439,None,space,0.31168070000057924,None,,,,,0,0,0,6,,,,,72.13726419999875,,,,,,,,,,,,72.12827259999904,72.13726419999875,72.13726419999875,81.04330839999966,,,,81.04356990000088,81.05955360000007,81.05955360000007,81.05955360000007,81.35847170000125,81.37642540000161,,,,up,8.901537199999439,None,space,0.31168070000057924,None,,,,,,,,,,,,P109,001,2024-11-15_16h17.06.166,posner_endo_new1,2024.2.4,60.051007325150486,2024-11-15 16h17.13.888632 +0000,
10,0.005,1,1,0,down,5.846637999999075,None,None,,,,,,,0,1,1,4,,,,,81.39184120000209,,,,,,,,,,,,81.376591799999,81.39184120000209,81.39184120000209,87.25381800000105,,,,87.25406999999905,87.2694819999997,87.2694819999997,87.2694819999997,87.5690136000012,90.26667209999869,,,,down,5.846637999999075,None,None,,,,,,,,,,,,,,P109,001,2024-11-15_16h17.06.166,posner_endo_new1,2024.2.4,60.051007325150486,2024-11-15 16h17.13.888632 +0000,
0.005,-0.31,2,2,0,up,0.33168840000143973,None,space,0.46441069999855245,None,,,,,0,2,2,5,,,,,90.28317120000065,,,,,,,,,,,,90.26683530000082,90.28317120000065,90.28317120000065,90.61691730000166,,,,90.61717000000135,90.63283930000034,90.63283930000034,90.63283930000034,90.9325045000005,91.09982540000055,,,,up,0.33168840000143973,None,space,0.46441069999855245,None,,,,,,,,,,,,P109,001,2024-11-15_16h17.06.166,posner_endo_new1,2024.2.4,60.051007325150486,2024-11-15 16h17.13.888632 +0000,
0.31,0.005,3,3,0,down,8.962719299997843,None,space,0.9831584999992629,None,,,,,0,3,3,1,,,,,91.11568759999864,,,,,,,,,,,,91.09999040000184,91.11568759999864,91.11568759999864,100.09035700000095,,,,100.09061890000157,100.10642440000083,100.10642440000083,100.10642440000083,100.40569630000027,101.1056322000004,,,,down,8.962719299997843,None,space,0.9831584999992629,None,,,,,,,,,,,,P109,001,2024-11-15_16h17.06.166,posner_endo_new1,2024.2.4,60.051007325150486,2024-11-15 16h17.13.888632 +0000,
0.005,10,4,4,0,up,5.003864900001645,None,None,,,,,,,0,4,4,9,,,,,101.12204600000041,,,,,,,,,,,,101.10580159999881,101.12204600000041,101.12204600000041,106.13420939999924,,,,106.13446490000206,106.15012800000113,106.15012800000113,106.15012800000113,106.44989440000063,109.14725520000138,,,,up,5.003864900001645,None,None,,,,,,,,,,,,,,P109,001,2024-11-15_16h17.06.166,posner_endo_new1,2024.2.4,60.051007325150486,2024-11-15 16h17.13.888632 +0000,
0.005,0.31,5,5,0,down,4.331144099996891,None,space,0.5746799000007741,None,,,,,0,5,5,8,,,,,109.16336130000127,,,,,,,,,,,,109.1474257000009,109.16336130000127,109.16336130000127,113.51026730000012,,,,113.51052379999965,113.52599689999988,113.52599689999988,113.52599689999988,113.82535360000111,114.10958419999952,,,,down,4.331144099996891,None,space,0.5746799000007741,None,,,,,,,,,,,,P109,001,2024-11-15_16h17.06.166,posner_endo_new1,2024.2.4,60.051007325150486,2024-11-15 16h17.13.888632 +0000,
-0.31,0.005,6,6,0,up,5.729354600000079,None,space,0.42124649999823305,None,,,,,0,6,6,0,,,,,114.12533780000012,,,,,,,,,,,,114.10975260000123,114.12533780000012,114.12533780000012,119.86998350000067,,,,119.8702357000002,119.88611560000209,119.88611560000209,119.88611560000209,120.18538030000127,120.31985400000121,,,,up,5.729354600000079,None,space,0.42124649999823305,None,,,,,,,,,,,,P109,001,2024-11-15_16h17.06.166,posner_endo_new1,2024.2.4,60.051007325150486,2024-11-15 16h17.13.888632 +0000,
0.005,-0.31,7,7,0,down,4.342352300001949,None,space,0.4743723999999929,None,,,,,0,7,7,7,,,,,120.33579169999939,,,,,,,,,,,,120.32002049999937,120.33579169999939,120.33579169999939,124.68229330000031,,,,124.68254410000009,124.69762009999977,124.69762009999977,124.69762009999977,124.99717830000009,125.18155430000115,,,,down,4.342352300001949,None,space,0.4743723999999929,None,,,,,,,,,,,,P109,001,2024-11-15_16h17.06.166,posner_endo_new1,2024.2.4,60.051007325150486,2024-11-15 16h17.13.888632 +0000,
-0.31,0.005,8,8,0,up,3.017582799999218,None,space,0.48890340000070864,None,,,,,0,8,8,2,,,,,125.19701740000164,,,,,,,,,,,,125.18171979999897,125.19701740000164,125.19701740000164,128.22843759999887,,,,128.2286908999995,128.2443635999989,128.2443635999989,128.2443635999989,128.54357230000096,128.744486399999,,,,up,3.017582799999218,None,space,0.48890340000070864,None,,,,,,,,,,,,P109,001,2024-11-15_16h17.06.166,posner_endo_new1,2024.2.4,60.051007325150486,2024-11-15 16h17.13.888632 +0000,
0.31,0.005,9,9,0,down,4.685418500001106,None,space,0.6747114999998303,None,,,,,0,9,9,3,,,,,128.76057149999906,,,,,,,,,,,,128.7446533000002,128.76057149999906,128.76057149999906,133.45634730000165,,,,133.4566005000015,133.47223339999982,133.47223339999982,133.47223339999982,133.77194230000168,134.15564900000027,,,,down,4.685418500001106,None,space,0.6747114999998303,None,,,,,,,,,,,,P109,001,2024-11-15_16h17.06.166,posner_endo_new1,2024.2.4,60.051007325150486,2024-11-15 16h17.13.888632 +0000,
0.31,0.005,10,0,1,up,3.1868796999988263,None,space,0.41544749999957276,None,,,,,1,0,10,3,,,,,134.17171950000193,,,,,,,,,,,,134.15581490000113,134.17171950000193,134.17171950000193,137.36901529999886,,,,137.36927490000016,137.3845207000013,137.3845207000013,137.3845207000013,137.6842727000003,137.8022153999991,,,,up,3.1868796999988263,None,space,0.41544749999957276,None,,,,,,,,,,,,P109,001,2024-11-15_16h17.06.166,posner_endo_new1,2024.2.4,60.051007325150486,2024-11-15 16h17.13.888632 +0000,
-0.31,0.005,11,1,1,down,4.588861800002633,None,space,0.3619336000010662,None,,,,,1,1,11,2,,,,,137.81767290000062,,,,,,,,,,,,137.8023819000009,137.81767290000062,137.81767290000062,142.41344949999984,,,,142.41371309999886,142.4297133,142.4297133,142.4297133,142.72904930000004,142.7969587000007,,,,down,4.588861800002633,None,space,0.3619336000010662,None,,,,,,,,,,,,P109,001,2024-11-15_16h17.06.166,posner_endo_new1,2024.2.4,60.051007325150486,2024-11-15 16h17.13.888632 +0000,
10,0.005,12,2,1,up,4.097541499999352,None,None,,,,,,,1,2,12,4,,,,,142.81271790000028,,,,,,,,,,,,142.79712870000003,142.81271790000028,142.81271790000028,146.9261312000017,,,,146.92638259999876,146.94194979999884,146.94194979999884,146.94194979999884,147.2414401999995,149.93843520000155,,,,up,4.097541499999352,None,None,,,,,,,,,,,,,,P109,001,2024-11-15_16h17.06.166,posner_endo_new1,2024.2.4,60.051007325150486,2024-11-15 16h17.13.888632 +0000,
0.005,0.31,13,3,1,down,3.6595761999997194,None,space,0.4764848999984679,None,,,,,1,3,13,8,,,,,149.95534970000153,,,,,,,,,,,,149.93859840000005,149.95534970000153,149.95534970000153,153.61883709999893,,,,153.6190932999998,153.63501570000153,153.63501570000153,153.63501570000153,153.9344643000004,154.11876829999892,,,,down,3.6595761999997194,None,space,0.4764848999984679,None,,,,,,,,,,,,P109,001,2024-11-15_16h17.06.166,posner_endo_new1,2024.2.4,60.051007325150486,2024-11-15 16h17.13.888632 +0000,
0.005,-0.31,14,4,1,up,4.536274499998399,None,space,0.5145044999990205,None,,,,,1,4,14,5,,,,,154.1344629999985,,,,,,,,,,,,154.1189400000003,154.1344629999985,154.1344629999985,158.6825788999995,,,,158.68332670000018,158.69711000000098,158.69711000000098,158.69711000000098,158.99642010000025,159.21546279999893,,,,up,4.536274499998399,None,space,0.5145044999990205,None,,,,,,,,,,,,P109,001,2024-11-15_16h17.06.166,posner_endo_new1,2024.2.4,60.051007325150486,2024-11-15 16h17.13.888632 +0000,
0.31,0.005,15,5,1,down,5.681193399999756,None,space,0.2838436999991245,None,,,,,1,5,15,1,,,,,159.22952459999942,,,,,,,,,,,,159.21601640000154,159.22952459999942,159.22952459999942,164.926030300001,,,,164.92679240000143,164.94072120000055,164.94072120000055,164.94072120000055,165.24000929999966,165.24244829999952,,,,down,5.681193399999756,None,space,0.2838436999991245,None,,,,,,,,,,,,P109,001,2024-11-15_16h17.06.166,posner_endo_new1,2024.2.4,60.051007325150486,2024-11-15 16h17.13.888632 +0000,
0.005,-0.31,16,6,1,up,4.333491400000639,None,space,0.3914191000003484,None,,,,,1,6,16,7,,,,,165.25662580000062,,,,,,,,,,,,165.24305749999985,165.25662580000062,165.25662580000062,169.6030137000016,,,,169.60337060000165,169.61858439999924,169.61858439999924,169.61858439999924,169.91824669999914,170.01919139999882,,,,up,4.333491400000639,None,space,0.3914191000003484,None,,,,,,,,,,,,P109,001,2024-11-15_16h17.06.166,posner_endo_new1,2024.2.4,60.051007325150486,2024-11-15 16h17.13.888632 +0000,
-0.31,0.005,17,7,1,down,5.243408999998792,None,space,0.46094710000033956,None,,,,,1,7,17,0,,,,,170.03481810000085,,,,,,,,,,,,170.01943060000121,170.03481810000085,170.03481810000085,175.280382500001,,,,175.2807302000001,175.29607300000134,175.29607300000134,175.29607300000134,175.59594350000043,175.763416400001,,,,down,5.243408999998792,None,space,0.46094710000033956,None,,,,,,,,,,,,P109,001,2024-11-15_16h17.06.166,posner_endo_new1,2024.2.4,60.051007325150486,2024-11-15 16h17.13.888632 +0000,
0.005,0.31,18,8,1,up,4.26803860000291,None,space,0.5423667000031855,None,,,,,1,8,18,6,,,,,175.77892549999888,,,,,,,,,,,,175.7636562000007,175.77892549999888,175.77892549999888,180.05912620000163,,,,180.0594732999998,180.07455180000034,180.07455180000034,180.07455180000034,180.37421410000024,180.62504400000034,,,,up,4.26803860000291,None,space,0.5423667000031855,None,,,,,,,,,,,,P109,001,2024-11-15_16h17.06.166,posner_endo_new1,2024.2.4,60.051007325150486,2024-11-15 16h17.13.888632 +0000,
0.005,10,19,9,1,down,5.2618598000008205,None,None,,,,,,,1,9,19,9,,,,,180.64067409999916,,,,,,,,,,,,180.62528190000012,180.64067409999916,180.64067409999916,185.91961509999965,,,,185.9199695999996,185.93527470000117,185.93527470000117,185.93527470000117,186.23495639999965,188.93235279999863,,,,down,5.2618598000008205,None,None,,,,,,,,,,,,,,P109,001,2024-11-15_16h17.06.166,posner_endo_new1,2024.2.4,60.051007325150486,2024-11-15 16h17.13.888632 +0000,
0.005,10,20,0,2,up,2.0261863000014273,None,None,,,,,,,2,0,20,9,,,,,188.94886309999856,,,,,,,,,,,,188.9325815000011,188.94886309999856,188.94886309999856,190.98116010000012,,,,190.98150890000034,190.9967562999991,190.9967562999991,190.9967562999991,191.29639170000155,193.99387000000206,,,,up,2.0261863000014273,None,None,,,,,,,,,,,,,,P109,001,2024-11-15_16h17.06.166,posner_endo_new1,2024.2.4,60.051007325150486,2024-11-15 16h17.13.888632 +0000,
10,0.005,21,1,2,down,3.380358200000046,None,None,,,,,,,2,1,21,4,,,,,194.0102283999986,,,,,,,,,,,,193.99410530000023,194.0102283999986,194.0102283999986,197.39174679999996,,,,197.39209299999857,197.40681300000142,197.40681300000142,197.40681300000142,197.70648680000158,200.40390010000192,,,,down,3.380358200000046,None,None,,,,,,,,,,,,,,P109,001,2024-11-15_16h17.06.166,posner_endo_new1,2024.2.4,60.051007325150486,2024-11-15 16h17.13.888632 +0000,
0.005,0.31,22,2,2,up,1.386339799999405,None,space,0.46675369999866234,None,,,,,2,2,22,8,,,,,200.42035599999872,,,,,,,,,,,,200.40414099999907,200.42035599999872,200.42035599999872,201.82003070000064,,,,201.82038860000102,201.83563610000056,201.83563610000056,201.83563610000056,202.1352611000002,202.31952250000177,,,,up,1.386339799999405,None,space,0.46675369999866234,None,,,,,,,,,,,,P109,001,2024-11-15_16h17.06.166,posner_endo_new1,2024.2.4,60.051007325150486,2024-11-15 16h17.13.888632 +0000,
-0.31,0.005,23,3,2,down,3.454955400000472,None,space,0.5940654000005452,None,,,,,2,3,23,2,,,,,202.33515049999914,,,,,,,,,,,,202.31977539999934,202.33515049999914,202.33515049999914,205.79930310000054,,,,205.7996536999999,205.81482360000155,205.81482360000155,205.81482360000155,206.11461340000096,206.41541860000143,,,,down,3.454955400000472,None,space,0.5940654000005452,None,,,,,,,,,,,,P109,001,2024-11-15_16h17.06.166,posner_endo_new1,2024.2.4,60.051007325150486,2024-11-15 16h17.13.888632 +0000,
-0.31,0.005,24,4,2,up,4.78359509999791,None,space,0.574578300002031,None,,,,,2,4,24,0,,,,,206.4308674999993,,,,,,,,,,,,206.4156557999995,206.4308674999993,206.4308674999993,211.22700690000056,,,,211.22735929999908,211.24264369999946,211.24264369999946,211.24264369999946,211.5422647000014,211.82643499999904,,,,up,4.78359509999791,None,space,0.574578300002031,None,,,,,,,,,,,,P109,001,2024-11-15_16h17.06.166,posner_endo_new1,2024.2.4,60.051007325150486,2024-11-15 16h17.13.888632 +0000,
0.005,0.31,25,5,2,down,4.548774999999296,None,space,0.4108396999981778,None,,,,,2,5,25,6,,,,,211.84196130000055,,,,,,,,,,,,211.826675100001,211.84196130000055,211.84196130000055,216.40513700000156,,,,216.40549330000067,216.4206422999996,216.4206422999996,216.4206422999996,216.72024030000102,216.83805190000203,,,,down,4.548774999999296,None,space,0.4108396999981778,None,,,,,,,,,,,,P109,001,2024-11-15_16h17.06.166,posner_endo_new1,2024.2.4,60.051007325150486,2024-11-15 16h17.13.888632 +0000,
0.31,0.005,26,6,2,up,7.576872799996636,None,space,0.4277218000024732,None,,,,,2,6,26,1,,,,,216.85354509999888,,,,,,,,,,,,216.83829279999918,216.85354509999888,216.85354509999888,224.44695409999986,,,,224.44730100000015,224.46251889999985,224.46251889999985,224.46251889999985,224.7620711999989,224.8966584000009,,,,up,7.576872799996636,None,space,0.4277218000024732,None,,,,,,,,,,,,P109,001,2024-11-15_16h17.06.166,posner_endo_new1,2024.2.4,60.051007325150486,2024-11-15 16h17.13.888632 +0000,
0.005,-0.31,27,7,2,down,5.022631299998466,None,space,0.456475800001499,None,,,,,2,7,27,5,,,,,224.91197680000187,,,,,,,,,,,,224.89689709999948,224.91197680000187,224.91197680000187,229.94126020000112,,,,229.94160940000074,229.95686869999918,229.95686869999918,229.95686869999918,230.25661709999986,230.42411830000128,,,,down,5.022631299998466,None,space,0.456475800001499,None,,,,,,,,,,,,P109,001,2024-11-15_16h17.06.166,posner_endo_new1,2024.2.4,60.051007325150486,2024-11-15 16h17.13.888632 +0000,
0.31,0.005,28,8,2,up,3.831038799999078,None,space,0.2962269000017841,None,,,,,2,8,28,3,,,,,230.4397566000007,,,,,,,,,,,,230.42436910000106,230.4397566000007,230.4397566000007,234.28683319999982,,,,234.28718239999944,234.30246360000092,234.30246360000092,234.30246360000092,234.60233770000195,234.60349919999862,,,,up,3.831038799999078,None,space,0.2962269000017841,None,,,,,,,,,,,,P109,001,2024-11-15_16h17.06.166,posner_endo_new1,2024.2.4,60.051007325150486,2024-11-15 16h17.13.888632 +0000,
0.005,-0.31,29,9,2,down,3.8042152999987593,None,space,0.38380529999994906,None,,,,,2,9,29,7,,,,,234.6188312000013,,,,,,,,,,,,234.60374109999975,234.6188312000013,234.6188312000013,238.43267950000154,,,,238.43303100000048,238.4481491000006,238.4481491000006,238.4481491000006,238.74783079999906,238.8489081000007,,,,down,3.8042152999987593,None,space,0.38380529999994906,None,,,,,,,,,,,,P109,001,2024-11-15_16h17.06.166,posner_endo_new1,2024.2.4,60.051007325150486,2024-11-15 16h17.13.888632 +0000,
0.31,0.005,30,0,3,up,4.334263599997939,None,space,0.3340989999996964,None,,,,,3,0,30,3,,,,,238.86444380000103,,,,,,,,,,,,238.84915430000183,238.86444380000103,238.86444380000103,243.2110618000006,,,,243.21140989999913,243.22667210000145,243.22667210000145,243.22667210000145,243.5264109000018,243.57743610000034,,,,up,4.334263599997939,None,space,0.3340989999996964,None,,,,,,,,,,,,P109,001,2024-11-15_16h17.06.166,posner_endo_new1,2024.2.4,60.051007325150486,2024-11-15 16h17.13.888632 +0000,
-0.31,0.005,31,1,3,down,3.822063400002662,None,space,0.3807331999996677,None,,,,,3,1,31,0,,,,,243.59284760000082,,,,,,,,,,,,243.57767909999893,243.59284760000082,243.59284760000082,247.4233537,,,,247.4237076999998,247.4389669000011,247.4389669000011,247.4389669000011,247.7386793000005,247.8231409,,,,down,3.822063400002662,None,space,0.3807331999996677,None,,,,,,,,,,,,P109,001,2024-11-15_16h17.06.166,posner_endo_new1,2024.2.4,60.051007325150486,2024-11-15 16h17.13.888632 +0000,
0.005,-0.31,32,2,3,up,3.703434600000037,None,space,0.4818057999982557,None,,,,,3,2,32,7,,,,,247.83866480000142,,,,,,,,,,,,247.82338000000163,247.83866480000142,247.83866480000142,251.55253549999907,,,,251.55290009999953,251.5681054000015,251.5681054000015,251.5681054000015,251.86780630000067,252.05209319999994,,,,up,3.703434600000037,None,space,0.4818057999982557,None,,,,,,,,,,,,P109,001,2024-11-15_16h17.06.166,posner_endo_new1,2024.2.4,60.051007325150486,2024-11-15 16h17.13.888632 +0000,
0.31,0.005,33,3,3,down,4.17088639999929,None,space,0.4311318999971263,None,,,,,3,3,33,1,,,,,252.06763059999867,,,,,,,,,,,,252.05233249999947,252.06763059999867,252.06763059999867,256.24795839999933,,,,256.24831130000166,256.2632478000014,256.2632478000014,256.2632478000014,256.56300890000057,256.6974001999988,,,,down,4.17088639999929,None,space,0.4311318999971263,None,,,,,,,,,,,,P109,001,2024-11-15_16h17.06.166,posner_endo_new1,2024.2.4,60.051007325150486,2024-11-15 16h17.13.888632 +0000,
0.005,0.31,34,4,3,up,5.997397300001467,None,space,0.3778024000021105,None,,,,,3,4,34,6,,,,,256.71278710000115,,,,,,,,,,,,256.69764190000205,256.71278710000115,256.71278710000115,262.72440899999856,,,,262.7247518000004,262.7400983000007,262.7400983000007,262.7400983000007,263.0398017000007,263.12416999999914,,,,up,5.997397300001467,None,space,0.3778024000021105,None,,,,,,,,,,,,P109,001,2024-11-15_16h17.06.166,posner_endo_new1,2024.2.4,60.051007325150486,2024-11-15 16h17.13.888632 +0000,
-0.31,0.005,35,5,3,down,5.698978800002806,None,space,0.4373520999979519,None,,,,,3,5,35,2,,,,,263.13968039999963,,,,,,,,,,,,263.12440889999925,263.13968039999963,263.13968039999963,268.85145980000016,,,,268.85180649999893,268.8670327,268.8670327,268.8670327,269.16680279999855,269.3177374000006,,,,down,5.698978800002806,None,space,0.4373520999979519,None,,,,,,,,,,,,P109,001,2024-11-15_16h17.06.166,posner_endo_new1,2024.2.4,60.051007325150486,2024-11-15 16h17.13.888632 +0000,
0.005,0.31,36,6,3,up,4.441414499997336,None,space,0.36926539999694796,None,,,,,3,6,36,8,,,,,269.3333477999986,,,,,,,,,,,,269.3179768000009,269.3333477999986,269.3333477999986,273.7799066000007,,,,273.78025179999895,273.7954112000007,273.7954112000007,273.7954112000007,274.0950989000012,274.1794570999991,,,,up,4.441414499997336,None,space,0.36926539999694796,None,,,,,,,,,,,,P109,001,2024-11-15_16h17.06.166,posner_endo_new1,2024.2.4,60.051007325150486,2024-11-15 16h17.13.888632 +0000,
0.005,10,37,7,3,down,4.778926499999216,None,None,,,,,,,3,7,37,9,,,,,274.1950171999997,,,,,,,,,,,,274.179710299999,274.1950171999997,274.1950171999997,278.9909888000002,,,,278.99133730000176,279.0067232000001,279.0067232000001,279.0067232000001,279.3064111999993,282.0037536999989,,,,down,4.778926499999216,None,None,,,,,,,,,,,,,,P109,001,2024-11-15_16h17.06.166,posner_endo_new1,2024.2.4,60.051007325150486,2024-11-15 16h17.13.888632 +0000,
10,0.005,38,8,3,up,2.1137247000006028,None,None,,,,,,,3,8,38,4,,,,,282.0203380000021,,,,,,,,,,,,282.00398470000073,282.0203380000021,282.0203380000021,284.13607160000174,,,,284.1364347000017,284.1514860999996,284.1514860999996,284.1514860999996,284.4511679999996,287.14850600000136,,,,up,2.1137247000006028,None,None,,,,,,,,,,,,,,P109,001,2024-11-15_16h17.06.166,posner_endo_new1,2024.2.4,60.051007325150486,2024-11-15 16h17.13.888632 +0000,
0.005,-0.31,39,9,3,down,3.025605099999666,None,space,0.33955710000009276,None,,,,,3,9,39,5,,,,,287.16515849999996,,,,,,,,,,,,287.14873850000004,287.16515849999996,287.16515849999996,290.1965515000011,,,,290.19692270000087,290.21195720000105,290.21195720000105,290.21195720000105,290.5116550999992,290.5631620999993,,,,down,3.025605099999666,None,space,0.33955710000009276,None,,,,,,,,,,,,P109,001,2024-11-15_16h17.06.166,posner_endo_new1,2024.2.4,60.051007325150486,2024-11-15 16h17.13.888632 +0000,
0.005,-0.31,40,0,4,up,5.5001460000021325,None,space,0.4162527000007685,None,,,,,4,0,40,7,,,,,290.57826399999976,,,,,,,,,,,,290.56340160000036,290.57826399999976,290.57826399999976,296.09021669999856,,,,296.0905727999998,296.10587320000195,296.10587320000195,296.10587320000195,296.4055938999991,296.52352489999976,,,,up,5.5001460000021325,None,space,0.4162527000007685,None,,,,,,,,,,,,P109,001,2024-11-15_16h17.06.166,posner_endo_new1,2024.2.4,60.051007325150486,2024-11-15 16h17.13.888632 +0000,
0.005,-0.31,41,1,4,down,4.61942579999959,None,space,0.5432517000008374,None,,,,,4,1,41,5,,,,,296.53883960000167,,,,,,,,,,,,296.52376469999945,296.53883960000167,296.53883960000167,301.16849849999926,,,,301.16886370000066,301.1839710999993,301.1839710999993,301.1839710999993,301.48372980000204,301.734476900001,,,,down,4.61942579999959,None,space,0.5432517000008374,None,,,,,,,,,,,,P109,001,2024-11-15_16h17.06.166,posner_endo_new1,2024.2.4,60.051007325150486,2024-11-15 16h17.13.888632 +0000,
0.31,0.005,42,2,4,up,4.39257539999744,None,space,0.4550759999983711,None,,,,,4,2,42,3,,,,,301.7501422999994,,,,,,,,,,,,301.7347249000013,301.7501422999994,301.7501422999994,306.14682470000116,,,,306.14717160000146,306.16238130000056,306.16238130000056,306.16238130000056,306.4619702000018,306.62957950000055,,,,up,4.39257539999744,None,space,0.4550759999983711,None,,,,,,,,,,,,P109,001,2024-11-15_16h17.06.166,posner_endo_new1,2024.2.4,60.051007325150486,2024-11-15 16h17.13.888632 +0000,
0.005,0.31,43,3,4,down,4.761434500000178,None,space,0.3528035999988788,None,,,,,4,3,43,6,,,,,306.64516020000156,,,,,,,,,,,,306.62981859999854,306.64516020000156,306.64516020000156,311.40811659999963,,,,311.40851620000103,311.4235711000001,311.4235711000001,311.4235711000001,311.7232843999991,311.7910014000008,,,,down,4.761434500000178,None,space,0.3528035999988788,None,,,,,,,,,,,,P109,001,2024-11-15_16h17.06.166,posner_endo_new1,2024.2.4,60.051007325150486,2024-11-15 16h17.13.888632 +0000,
-0.31,0.005,44,4,4,up,3.792518199999904,None,space,0.43152140000165673,None,,,,,4,4,44,2,,,,,311.80648360000123,,,,,,,,,,,,311.7912405999996,311.80648360000123,311.80648360000123,315.60378499999933,,,,315.6041358000002,315.619241299999,315.619241299999,315.619241299999,315.9188068000003,316.0532413000001,,,,up,3.792518199999904,None,space,0.43152140000165673,None,,,,,,,,,,,,P109,001,2024-11-15_16h17.06.166,posner_endo_new1,2024.2.4,60.051007325150486,2024-11-15 16h17.13.888632 +0000,
0.31,0.005,45,5,4,down,4.433506399996986,None,space,0.3381881000022986,None,,,,,4,5,45,1,,,,,316.06875650000075,,,,,,,,,,,,316.05347900000197,316.06875650000075,316.06875650000075,320.5153676000009,,,,320.5157141000018,320.5309708999994,320.5309708999994,320.5309708999994,320.83060190000106,320.8816623999992,,,,down,4.433506399996986,None,space,0.3381881000022986,None,,,,,,,,,,,,P109,001,2024-11-15_16h17.06.166,posner_endo_new1,2024.2.4,60.051007325150486,2024-11-15 16h17.13.888632 +0000,
10,0.005,46,6,4,up,4.885499500000151,None,None,,,,,,,4,6,46,4,,,,,320.89718920000087,,,,,,,,,,,,320.881905000002,320.89718920000087,320.89718920000087,325.79331850000017,,,,325.7936688000009,325.80887989999974,325.80887989999974,325.80887989999974,326.1084848999999,328.80600649999906,,,,up,4.885499500000151,None,None,,,,,,,,,,,,,,P109,001,2024-11-15_16h17.06.166,posner_endo_new1,2024.2.4,60.051007325150486,2024-11-15 16h17.13.888632 +0000,
0.005,0.31,47,7,4,down,2.8161739999995916,None,space,0.5116486000006262,None,,,,,4,7,47,8,,,,,328.82233070000075,,,,,,,,,,,,328.80623299999934,328.82233070000075,328.82233070000075,331.65406630000143,,,,331.65441360000113,331.6695265999988,331.6695265999988,331.6695265999988,331.96918409999853,332.18693820000044,,,,down,2.8161739999995916,None,space,0.5116486000006262,None,,,,,,,,,,,,P109,001,2024-11-15_16h17.06.166,posner_endo_new1,2024.2.4,60.051007325150486,2024-11-15 16h17.13.888632 +0000,
-0.31,0.005,48,8,4,up,4.755737000003137,None,space,0.45006909999938216,None,,,,,4,8,48,0,,,,,332.20234920000075,,,,,,,,,,,,332.1871800000008,332.20234920000075,332.20234920000075,336.9652496000017,,,,336.96559530000013,336.9807942000007,336.9807942000007,336.9807942000007,337.2804552999987,337.4479429999992,,,,up,4.755737000003137,None,space,0.45006909999938216,None,,,,,,,,,,,,P109,001,2024-11-15_16h17.06.166,posner_endo_new1,2024.2.4,60.051007325150486,2024-11-15 16h17.13.888632 +0000,
0.005,10,49,9,4,down,5.1749748000002,None,None,,,,,,,4,9,49,9,,,,,337.4636018000019,,,,,,,,,,,,337.448178300001,337.4636018000019,337.4636018000019,342.64278639999975,,,,342.6431330000014,342.65824430000066,342.65824430000066,342.65824430000066,342.95798569999897,345.6553831000019,,,,down,5.1749748000002,None,None,,,,,,,,,,,,,,P109,001,2024-11-15_16h17.06.166,posner_endo_new1,2024.2.4,60.051007325150486,2024-11-15 16h17.13.888632 +0000,
0.005,-0.31,50,0,5,up,2.7989658000005875,None,space,0.3493174999966868,None,,,,,5,0,50,7,,,,,345.67199410000103,,,,,,,,,,,,345.65560650000043,345.67199410000103,345.67199410000103,348.4867532999997,,,,348.4871091999994,348.5023767999992,348.5023767999992,348.5023767999992,348.8020279000011,348.8530109000021,,,,up,2.7989658000005875,None,space,0.3493174999966868,None,,,,,,,,,,,,P109,001,2024-11-15_16h17.06.166,posner_endo_new1,2024.2.4,60.051007325150486,2024-11-15 16h17.13.888632 +0000,
0.005,10,51,1,5,down,3.8183231000002706,None,None,,,,,,,5,1,51,9,,,,,348.86864100000093,,,,,,,,,,,,348.85324350000155,348.86864100000093,348.86864100000093,352.69912190000105,,,,352.6994709999999,352.71466359999977,352.71466359999977,352.71466359999977,353.01434770000196,355.71181570000044,,,,down,3.8183231000002706,None,None,,,,,,,,,,,,,,P109,001,2024-11-15_16h17.06.166,posner_endo_new1,2024.2.4,60.051007325150486,2024-11-15 16h17.13.888632 +0000,
10,0.005,52,2,5,up,1.222290300000168,None,None,,,,,,,5,2,52,4,,,,,355.7282864000008,,,,,,,,,,,,355.7120422000007,355.7282864000008,355.7282864000008,356.9614322000016,,,,356.96178449999934,356.9770274000002,356.9770274000002,356.9770274000002,357.2765834999991,359.97403230000054,,,,up,1.222290300000168,None,None,,,,,,,,,,,,,,P109,001,2024-11-15_16h17.06.166,posner_endo_new1,2024.2.4,60.051007325150486,2024-11-15 16h17.13.888632 +0000,
0.005,-0.31,53,3,5,down,1.4483306000001903,None,space,0.33198059999995166,None,,,,,5,3,53,5,,,,,359.99056740000015,,,,,,,,,,,,359.9742675000016,359.99056740000015,359.99056740000015,361.4403080000011,,,,361.4406630000012,361.45572439999887,361.45572439999887,361.45572439999887,361.7553822000009,361.79005400000096,,,,down,1.4483306000001903,None,space,0.33198059999995166,None,,,,,,,,,,,,P109,001,2024-11-15_16h17.06.166,posner_endo_new1,2024.2.4,60.051007325150486,2024-11-15 16h17.13.888632 +0000,
0.31,0.005,54,4,5,up,3.921704899999895,None,space,0.3916766000002099,None,,,,,5,4,54,1,,,,,361.8053598000006,,,,,,,,,,,,361.7902877000015,361.8053598000006,361.8053598000006,365.73585150000144,,,,365.73621640000056,365.7512519000011,365.7512519000011,365.7512519000011,366.05099580000024,366.15212650000103,,,,up,3.921704899999895,None,space,0.3916766000002099,None,,,,,,,,,,,,P109,001,2024-11-15_16h17.06.166,posner_endo_new1,2024.2.4,60.051007325150486,2024-11-15 16h17.13.888632 +0000,
-0.31,0.005,55,5,5,down,5.471012200003315,None,space,0.377600199997687,None,,,,,5,5,55,0,,,,,366.1675677000021,,,,,,,,,,,,366.15236229999937,366.1675677000021,366.1675677000021,371.6464281000008,,,,371.6467807000008,371.661869399999,371.661869399999,371.661869399999,371.96165689999907,372.04600310000023,,,,down,5.471012200003315,None,space,0.377600199997687,None,,,,,,,,,,,,P109,001,2024-11-15_16h17.06.166,posner_endo_new1,2024.2.4,60.051007325150486,2024-11-15 16h17.13.888632 +0000,
0.31,0.005,56,6,5,up,3.752654600000824,None,space,0.42401549999704,None,,,,,5,6,56,3,,,,,372.06160380000074,,,,,,,,,,,,372.0462437999995,372.06160380000074,372.06160380000074,375.82557799999995,,,,375.8259257999998,375.84098040000026,375.84098040000026,375.84098040000026,376.1407099999997,376.27500059999875,,,,up,3.752654600000824,None,space,0.42401549999704,None,,,,,,,,,,,,P109,001,2024-11-15_16h17.06.166,posner_endo_new1,2024.2.4,60.051007325150486,2024-11-15 16h17.13.888632 +0000,
0.005,0.31,57,7,5,down,4.052024099997652,None,space,0.37872910000078264,None,,,,,5,7,57,6,,,,,376.2905740999995,,,,,,,,,,,,376.2752381999999,376.2905740999995,376.2905740999995,380.35409849999996,,,,380.35444909999933,380.3697519999987,380.3697519999987,380.3697519999987,380.66938909999953,380.75391780000064,,,,down,4.052024099997652,None,space,0.37872910000078264,None,,,,,,,,,,,,P109,001,2024-11-15_16h17.06.166,posner_endo_new1,2024.2.4,60.051007325150486,2024-11-15 16h17.13.888632 +0000,
-0.31,0.005,58,8,5,up,3.4130613999986963,None,space,0.4577936000023328,None,,,,,5,8,58,2,,,,,380.7693115000002,,,,,,,,,,,,380.75415540000176,380.7693115000002,380.7693115000002,384.18338869999934,,,,384.18364239999937,384.19925220000005,384.19925220000005,384.19925220000005,384.4988626000013,384.6661869000018,,,,up,3.4130613999986963,None,space,0.4577936000023328,None,,,,,,,,,,,,P109,001,2024-11-15_16h17.06.166,posner_endo_new1,2024.2.4,60.051007325150486,2024-11-15 16h17.13.888632 +0000,
0.005,0.31,59,9,5,down,4.732236499999999,None,space,0.4224949000017659,None,,,,,5,9,59,8,,,,,384.6819457999991,,,,,,,,,,,,384.66635289999977,384.6819457999991,384.6819457999991,389.4280479000008,,,,389.42838180000035,389.4438829999999,389.4438829999999,389.4438829999999,389.7435872999995,389.8777044999988,,,,down,4.732236499999999,None,space,0.4224949000017659,None,,,,,,,,,,,,P109,001,2024-11-15_16h17.06.166,posner_endo_new1,2024.2.4,60.051007325150486,2024-11-15 16h17.13.888632 +0000,
,,,,,,,,,,,,,,,,,,,,,,,,,,,,,,,,,,,,,,,,,,,,,,,,,,,,,,,,,389.8778519000007,389.8933118999994,389.8933118999994,449.8661926999994,None,,,,,,,P109,001,2024-11-15_16h17.06.166,posner_endo_new1,2024.2.4,60.051007325150486,2024-11-15 16h17.13.888632 +0000,
,,,,,,,,,,,,,,,,,,,,,,,,,,,,,,,,449.8662632000014,449.88190640000175,452.8794295000007,,,,,,,,,,,,,,,,,,,,,,,,,,,,,,,,,,P109,001,2024-11-15_16h17.06.166,posner_endo_new1,2024.2.4,60.051007325150486,2024-11-15 16h17.13.888632 +0000,
0.31,0.005,0,0,0,up,7.326293399997667,None,space,0.3938899999993737,None,,,,,,,,,0,0,0,1,452.91311420000056,,,,,,,,,,,,452.903384600002,452.91311420000056,452.91311420000056,460.25579730000027,,,,460.2562117000016,460.27125460000025,460.27125460000025,460.27125460000025,460.570913399999,460.67207380000036,,,,,,,,,,,,,,,up,7.326293399997667,None,space,0.3938899999993737,None,P109,001,2024-11-15_16h17.06.166,posner_endo_new1,2024.2.4,60.051007325150486,2024-11-15 16h17.13.888632 +0000,
-0.31,0.005,1,1,0,down,4.927321399998618,None,space,0.476117999998678,None,,,,,,,,,0,1,1,0,460.68745280000076,,,,,,,,,,,,460.67235660000006,460.68745280000076,460.68745280000076,465.61697370000184,,,,465.6173667000003,465.63237300000037,465.63237300000037,465.63237300000037,465.93210309999995,466.1165929000017,,,,,,,,,,,,,,,down,4.927321399998618,None,space,0.476117999998678,None,P109,001,2024-11-15_16h17.06.166,posner_endo_new1,2024.2.4,60.051007325150486,2024-11-15 16h17.13.888632 +0000,
0.005,10,2,2,0,up,4.683357800000522,None,None,,,,,,,,,,,0,2,2,9,466.1316528999996,,,,,,,,,,,,466.1168719999987,466.1316528999996,466.1316528999996,470.82831459999943,,,,470.82870529999855,470.84380180000153,470.84380180000153,470.84380180000153,471.14340430000084,473.84082059999855,,,,,,,,,,,,,,,up,4.683357800000522,None,None,,,P109,001,2024-11-15_16h17.06.166,posner_endo_new1,2024.2.4,60.051007325150486,2024-11-15 16h17.13.888632 +0000,
0.005,0.31,3,3,0,up,9.156765600000654,None,space,0.4866230000006908,None,,,,,,,,,0,3,3,6,473.8574129000008,,,,,,,,,,,,473.84108840000044,473.8574129000008,473.8574129000008,483.0161540000008,,,,483.0165460999997,483.0312550000017,483.0312550000017,483.0312550000017,483.3308872000016,483.53199759999916,,,,,,,,,,,,,,,up,9.156765600000654,None,space,0.4866230000006908,None,P109,001,2024-11-15_16h17.06.166,posner_endo_new1,2024.2.4,60.051007325150486,2024-11-15 16h17.13.888632 +0000,
0.005,-0.31,4,4,0,down,5.315650699998514,None,space,0.3979369999979099,None,,,,,,,,,0,4,4,7,483.54737770000065,,,,,,,,,,,,483.5322739000003,483.54737770000065,483.54737770000065,488.87649389999933,,,,488.87688960000014,488.8918840000006,488.8918840000006,488.8918840000006,489.1917457999989,489.29292429999987,,,,,,,,,,,,,,,down,5.315650699998514,None,space,0.3979369999979099,None,P109,001,2024-11-15_16h17.06.166,posner_endo_new1,2024.2.4,60.051007325150486,2024-11-15 16h17.13.888632 +0000,
0.005,-0.31,5,5,0,up,3.9466796000015165,None,space,0.3421833999964292,None,,,,,,,,,0,5,5,5,489.30822239999907,,,,,,,,,,,,489.2932017999992,489.30822239999907,489.30822239999907,493.2572388000008,,,,493.2580272000014,493.2716776999987,493.2716776999987,493.2716776999987,493.5708478000015,493.6233579,,,,,,,,,,,,,,,up,3.9466796000015165,None,space,0.3421833999964292,None,P109,001,2024-11-15_16h17.06.166,posner_endo_new1,2024.2.4,60.051007325150486,2024-11-15 16h17.13.888632 +0000,
0.31,0.005,6,6,0,down,4.248761500002729,None,space,0.45111349999933736,None,,,,,,,,,0,6,6,3,493.6374469000002,,,,,,,,,,,,493.623929100002,493.6374469000002,493.6374469000002,497.9005692999999,,,,497.9010132000003,497.9158032000014,497.9158032000014,497.9158032000014,498.21548339999936,498.38338329999897,,,,,,,,,,,,,,,down,4.248761500002729,None,space,0.45111349999933736,None,P109,001,2024-11-15_16h17.06.166,posner_endo_new1,2024.2.4,60.051007325150486,2024-11-15 16h17.13.888632 +0000,
-0.31,0.005,7,7,0,up,5.8717174000012164,None,space,0.44454899999982445,None,,,,,,,,,0,7,7,2,498.3986377000001,,,,,,,,,,,,498.3837066999986,498.3986377000001,498.3986377000001,504.27734280000004,,,,504.27778509999916,504.29261190000034,504.29261190000034,504.29261190000034,504.592291500001,504.7436230000021,,,,,,,,,,,,,,,up,5.8717174000012164,None,space,0.44454899999982445,None,P109,001,2024-11-15_16h17.06.166,posner_endo_new1,2024.2.4,60.051007325150486,2024-11-15 16h17.13.888632 +0000,
10,0.005,8,8,0,down,5.511326600000757,None,None,,,,,,,,,,,0,8,8,4,504.7588203000014,,,,,,,,,,,,504.7439348000007,504.7588203000014,504.7588203000014,510.28748189999897,,,,510.2877386,510.3035130999997,510.3035130999997,510.3035130999997,510.6030888999994,513.3006075000012,,,,,,,,,,,,,,,down,5.511326600000757,None,None,,,P109,001,2024-11-15_16h17.06.166,posner_endo_new1,2024.2.4,60.051007325150486,2024-11-15 16h17.13.888632 +0000,
0.005,0.31,9,9,0,up,1.4020270000000892,None,space,0.3890346000007412,None,,,,,,,,,0,9,9,8,513.3167027000018,,,,,,,,,,,,513.3007706999997,513.3167027000018,513.3167027000018,514.7331612999988,,,,514.7334183000021,514.7491813000015,514.7491813000015,514.7491813000015,515.0483482999989,515.1494301999992,,,,,,,,,,,,,,,up,1.4020270000000892,None,space,0.3890346000007412,None,P109,001,2024-11-15_16h17.06.166,posner_endo_new1,2024.2.4,60.051007325150486,2024-11-15 16h17.13.888632 +0000,
0.31,0.005,10,0,1,down,4.401184000002104,None,space,0.41788269999960903,None,,,,,,,,,1,0,10,1,515.165084100001,,,,,,,,,,,,515.1496052000002,515.165084100001,515.165084100001,519.5778885,,,,519.5781411999997,519.593652800002,519.593652800002,519.593652800002,519.8938669000017,520.0276113,,,,,,,,,,,,,,,down,4.401184000002104,None,space,0.41788269999960903,None,P109,001,2024-11-15_16h17.06.166,posner_endo_new1,2024.2.4,60.051007325150486,2024-11-15 16h17.13.888632 +0000,
-0.31,0.005,11,1,1,up,2.9710256999969715,None,space,0.4346419000030437,None,,,,,,,,,1,1,11,2,520.0430712999987,,,,,,,,,,,,520.0277760999998,520.0430712999987,520.0430712999987,523.024689599999,,,,523.0249418000021,523.0399996000015,523.0399996000015,523.0399996000015,523.3399441000001,523.4907525000017,,,,,,,,,,,,,,,up,2.9710256999969715,None,space,0.4346419000030437,None,P109,001,2024-11-15_16h17.06.166,posner_endo_new1,2024.2.4,60.051007325150486,2024-11-15 16h17.13.888632 +0000,
10,0.005,12,2,1,down,3.836253500001476,None,None,,,,,,,,,,,1,2,12,4,523.5061984999993,,,,,,,,,,,,523.4909259999986,523.5061984999993,523.5061984999993,527.353700300002,,,,527.3539504,527.369043499999,527.369043499999,527.369043499999,527.6691323000014,530.3666182000015,,,,,,,,,,,,,,,down,3.836253500001476,None,None,,,P109,001,2024-11-15_16h17.06.166,posner_endo_new1,2024.2.4,60.051007325150486,2024-11-15 16h17.13.888632 +0000,
0.005,-0.31,13,3,1,up,2.5832628999996814,None,space,0.4959712000018044,None,,,,,,,,,1,3,13,7,530.3829809000017,,,,,,,,,,,,530.3667787000013,530.3829809000017,530.3829809000017,532.9810734999992,,,,532.9813275999986,532.9970685000008,532.9970685000008,532.9970685000008,533.2967749000018,533.4974053000005,,,,,,,,,,,,,,,up,2.5832628999996814,None,space,0.4959712000018044,None,P109,001,2024-11-15_16h17.06.166,posner_endo_new1,2024.2.4,60.051007325150486,2024-11-15 16h17.13.888632 +0000,
0.005,10,14,4,1,down,7.149797699999908,None,None,,,,,,,,,,,1,4,14,9,533.5131161999998,,,,,,,,,,,,533.497570800002,533.5131161999998,533.5131161999998,540.6732774000011,,,,540.6735382000006,540.689207200001,540.689207200001,540.689207200001,540.9887387999988,543.6861610999986,,,,,,,,,,,,,,,down,7.149797699999908,None,None,,,P109,001,2024-11-15_16h17.06.166,posner_endo_new1,2024.2.4,60.051007325150486,2024-11-15 16h17.13.888632 +0000,
0.005,0.31,15,5,1,up,2.3197248999967996,None,space,0.46040809999976773,None,,,,,,,,,1,5,15,6,543.7026650000007,,,,,,,,,,,,543.6863267000008,543.7026650000007,543.7026650000007,546.0342205000015,,,,546.0344723999988,546.0504012000019,546.0504012000019,546.0504012000019,546.3496487000011,546.5173458999998,,,,,,,,,,,,,,,up,2.3197248999967996,None,space,0.46040809999976773,None,P109,001,2024-11-15_16h17.06.166,posner_endo_new1,2024.2.4,60.051007325150486,2024-11-15 16h17.13.888632 +0000,
0.005,0.31,16,6,1,down,6.233478199999809,None,space,0.37539900000047055,None,,,,,,,,,1,6,16,8,546.5327120000002,,,,,,,,,,,,546.5175103000001,546.5327120000002,546.5327120000002,552.7775199999996,,,,552.7777709000002,552.7934868000011,552.7934868000011,552.7934868000011,553.0931277999989,553.1767375000018,,,,,,,,,,,,,,,down,6.233478199999809,None,space,0.37539900000047055,None,P109,001,2024-11-15_16h17.06.166,posner_endo_new1,2024.2.4,60.051007325150486,2024-11-15 16h17.13.888632 +0000,
0.005,-0.31,17,7,1,up,5.166027000002941,None,space,0.40572310000061407,None,,,,,,,,,1,7,17,5,553.1927480000013,,,,,,,,,,,,553.176903800002,553.1927480000013,553.1927480000013,558.3716538000008,,,,558.3719138999986,558.3871614000018,558.3871614000018,558.3871614000018,558.6868820000018,558.8047680000018,,,,,,,,,,,,,,,up,5.166027000002941,None,space,0.40572310000061407,None,P109,001,2024-11-15_16h17.06.166,posner_endo_new1,2024.2.4,60.051007325150486,2024-11-15 16h17.13.888632 +0000,
0.31,0.005,18,8,1,down,4.050260799998796,None,space,0.38851749999957974,None,,,,,,,,,1,8,18,3,558.8205716000011,,,,,,,,,,,,558.804935600001,558.8205716000011,558.8205716000011,562.8833407999991,,,,562.8835913000003,562.8999150000018,562.8999150000018,562.8999150000018,563.198978700002,563.3001321000011,,,,,,,,,,,,,,,down,4.050260799998796,None,space,0.38851749999957974,None,P109,001,2024-11-15_16h17.06.166,posner_endo_new1,2024.2.4,60.051007325150486,2024-11-15 16h17.13.888632 +0000,
-0.31,0.005,19,9,1,up,7.139140100000077,None,space,0.3580958999991708,None,,,,,,,,,1,9,19,0,563.3154944999987,,,,,,,,,,,,563.3003037000017,563.3154944999987,563.3154944999987,570.4595203999997,,,,570.4597739000019,570.4752671999995,570.4752671999995,570.4752671999995,570.7749863999998,570.8435570000001,,,,,,,,,,,,,,,up,7.139140100000077,None,space,0.3580958999991708,None,P109,001,2024-11-15_16h17.06.166,posner_endo_new1,2024.2.4,60.051007325150486,2024-11-15 16h17.13.888632 +0000,
0.005,-0.31,20,0,2,down,3.9812222000000475,None,space,0.39846770000076503,None,,,,,,,,,2,0,20,5,570.8581914999995,,,,,,,,,,,,570.8439997999994,570.8581914999995,570.8581914999995,574.8552627999998,,,,574.8556706999989,574.8706954000008,574.8706954000008,574.8706954000008,575.1704189000011,575.2715381000016,,,,,,,,,,,,,,,down,3.9812222000000475,None,space,0.39846770000076503,None,P109,001,2024-11-15_16h17.06.166,posner_endo_new1,2024.2.4,60.051007325150486,2024-11-15 16h17.13.888632 +0000,
0.31,0.005,21,1,2,up,4.519949999998062,None,space,0.4733769999984361,None,,,,,,,,,2,1,21,1,575.2869503000002,,,,,,,,,,,,575.271813899999,575.2869503000002,575.2869503000002,579.8168598000011,,,,579.817250600001,579.8322243000002,579.8322243000002,579.8322243000002,580.1319985000009,580.3163792999985,,,,,,,,,,,,,,,up,4.519949999998062,None,space,0.4733769999984361,None,P109,001,2024-11-15_16h17.06.166,posner_endo_new1,2024.2.4,60.051007325150486,2024-11-15 16h17.13.888632 +0000,
-0.31,0.005,22,2,2,down,3.7950101000024006,None,space,0.49084249999941676,None,,,,,,,,,2,2,22,0,580.3317134999998,,,,,,,,,,,,580.3166593999995,580.3317134999998,580.3317134999998,584.1291433000006,,,,584.1295328999986,584.1445439999989,584.1445439999989,584.1445439999989,584.4442076999985,584.6452008000015,,,,,,,,,,,,,,,down,3.7950101000024006,None,space,0.49084249999941676,None,P109,001,2024-11-15_16h17.06.166,posner_endo_new1,2024.2.4,60.051007325150486,2024-11-15 16h17.13.888632 +0000,
0.005,-0.31,23,3,2,up,4.363322999997763,None,space,0.4676166999997804,None,,,,,,,,,2,3,23,7,584.6606983999991,,,,,,,,,,,,584.6454802000007,584.6606983999991,584.6606983999991,589.0408069000005,,,,589.0412308000014,589.0562363999998,589.0562363999998,589.0562363999998,589.3557729999993,589.5402477999996,,,,,,,,,,,,,,,up,4.363322999997763,None,space,0.4676166999997804,None,P109,001,2024-11-15_16h17.06.166,posner_endo_new1,2024.2.4,60.051007325150486,2024-11-15 16h17.13.888632 +0000,
0.005,0.31,24,4,2,up,10.834717000001547,None,space,0.38292149999688263,None,,,,,,,,,2,4,24,6,589.555664800002,,,,,,,,,,,,589.5405241000008,589.555664800002,589.555664800002,600.3958535999991,,,,600.3962490000013,600.4111995999992,600.4111995999992,600.4111995999992,600.7110166999992,600.7955246999991,,,,,,,,,,,,,,,up,10.834717000001547,None,space,0.38292149999688263,None,P109,001,2024-11-15_16h17.06.166,posner_endo_new1,2024.2.4,60.051007325150486,2024-11-15 16h17.13.888632 +0000,
0.31,0.005,25,5,2,down,4.915812200000801,None,space,0.41457400000217604,None,,,,,,,,,2,5,25,3,600.8109110000005,,,,,,,,,,,,600.7957984999994,600.8109110000005,600.8109110000005,605.7402892999999,,,,605.7406855000008,605.755780800002,605.755780800002,605.755780800002,606.055477599999,606.1730671000005,,,,,,,,,,,,,,,down,4.915812200000801,None,space,0.41457400000217604,None,P109,001,2024-11-15_16h17.06.166,posner_endo_new1,2024.2.4,60.051007325150486,2024-11-15 16h17.13.888632 +0000,
-0.31,0.005,26,6,2,up,3.8657552000004216,None,space,0.43873529999837046,None,,,,,,,,,2,6,26,2,606.1887162000021,,,,,,,,,,,,606.1732617999987,606.1887162000021,606.1887162000021,610.0690388000003,,,,610.0693186999997,610.0848135000015,610.0848135000015,610.0848135000015,610.3844935000016,610.5352351000001,,,,,,,,,,,,,,,up,3.8657552000004216,None,space,0.43873529999837046,None,P109,001,2024-11-15_16h17.06.166,posner_endo_new1,2024.2.4,60.051007325150486,2024-11-15 16h17.13.888632 +0000,
10,0.005,27,7,2,down,4.4641649999975925,None,None,,,,,,,,,,,2,7,27,4,610.550831200002,,,,,,,,,,,,610.5354222999995,610.550831200002,610.550831200002,615.0305651000017,,,,615.0308494000019,615.0463830000008,615.0463830000008,615.0463830000008,615.3460292999989,618.0434558999987,,,,,,,,,,,,,,,down,4.4641649999975925,None,None,,,P109,001,2024-11-15_16h17.06.166,posner_endo_new1,2024.2.4,60.051007325150486,2024-11-15 16h17.13.888632 +0000,
0.005,10,28,8,2,up,0.7707326999989164,None,None,,,,,,,,,,,2,8,28,9,618.0601510000015,,,,,,,,,,,,618.0436485999999,618.0601510000015,618.0601510000015,618.8429833000009,,,,618.8432651000003,618.8588417999999,618.8588417999999,618.8588417999999,619.1589366000007,621.8561135999989,,,,,,,,,,,,,,,up,0.7707326999989164,None,None,,,P109,001,2024-11-15_16h17.06.166,posner_endo_new1,2024.2.4,60.051007325150486,2024-11-15 16h17.13.888632 +0000,
0.005,0.31,29,9,2,down,2.6702999000008276,None,space,0.35230049999881885,None,,,,,,,,,2,9,29,8,621.8727581999992,,,,,,,,,,,,621.8563028999997,621.8727581999992,621.8727581999992,624.5559495999987,,,,624.5567426000016,624.5706284000007,624.5706284000007,624.5706284000007,624.8699383000021,624.9389272000008,,,,,,,,,,,,,,,down,2.6702999000008276,None,space,0.35230049999881885,None,P109,001,2024-11-15_16h17.06.166,posner_endo_new1,2024.2.4,60.051007325150486,2024-11-15 16h17.13.888632 +0000,
0.31,0.005,30,0,3,up,5.453623000001244,None,space,0.4552112000019406,None,,,,,,,,,3,0,30,3,624.9532039000005,,,,,,,,,,,,624.9394811999991,624.9532039000005,624.9532039000005,630.4168705000011,,,,630.4176554000005,630.4313430000002,630.4313430000002,630.4313430000002,630.7306080999988,630.8994951999994,,,,,,,,,,,,,,,up,5.453623000001244,None,space,0.4552112000019406,None,P109,001,2024-11-15_16h17.06.166,posner_endo_new1,2024.2.4,60.051007325150486,2024-11-15 16h17.13.888632 +0000,
0.005,0.31,31,1,3,down,5.980669200002012,None,space,0.5643930000005639,None,,,,,,,,,3,1,31,6,630.913751,,,,,,,,,,,,630.9000387999986,630.913751,630.913751,636.9101245999991,,,,636.9109046000012,636.924691799999,636.924691799999,636.924691799999,637.2239504999998,637.4930657000004,,,,,,,,,,,,,,,down,5.980669200002012,None,space,0.5643930000005639,None,P109,001,2024-11-15_16h17.06.166,posner_endo_new1,2024.2.4,60.051007325150486,2024-11-15 16h17.13.888632 +0000,
-0.31,0.005,32,2,3,up,5.7717037000002165,None,space,0.45430389999819454,None,,,,,,,,,3,2,32,0,637.5070497999986,,,,,,,,,,,,637.4936220000018,637.5070497999986,637.5070497999986,643.2868514000002,,,,643.2875969999986,643.3014497000004,643.3014497000004,643.3014497000004,643.600772400001,643.7697257,,,,,,,,,,,,,,,up,5.7717037000002165,None,space,0.45430389999819454,None,P109,001,2024-11-15_16h17.06.166,posner_endo_new1,2024.2.4,60.051007325150486,2024-11-15 16h17.13.888632 +0000,
0.31,0.005,33,3,3,down,5.078613300000143,None,space,0.463394899998093,None,,,,,,,,,3,3,33,1,643.7839233000013,,,,,,,,,,,,643.7702783999994,643.7839233000013,643.7839233000013,648.8795314000017,,,,648.879882199999,648.8950853999995,648.8950853999995,648.8950853999995,649.1947872000019,649.3624282000019,,,,,,,,,,,,,,,down,5.078613300000143,None,space,0.463394899998093,None,P109,001,2024-11-15_16h17.06.166,posner_endo_new1,2024.2.4,60.051007325150486,2024-11-15 16h17.13.888632 +0000,
0.005,-0.31,34,4,3,up,3.276564599997073,None,space,0.39571129999967525,None,,,,,,,,,3,4,34,7,649.3779347999989,,,,,,,,,,,,649.362673399999,649.3779347999989,649.3779347999989,652.659188900001,,,,652.6595443000006,652.6745613999992,652.6745613999992,652.6745613999992,652.9742454000007,653.0753366999998,,,,,,,,,,,,,,,up,3.276564599997073,None,space,0.39571129999967525,None,P109,001,2024-11-15_16h17.06.166,posner_endo_new1,2024.2.4,60.051007325150486,2024-11-15 16h17.13.888632 +0000,
-0.31,0.005,35,5,3,down,5.859882699998707,None,space,0.4282429000013508,None,,,,,,,,,3,5,35,2,653.0907598000013,,,,,,,,,,,,653.0755740999994,653.0907598000013,653.0907598000013,658.9526081000004,,,,658.9529561999989,658.9681106999997,658.9681106999997,658.9681106999997,659.267773800002,659.4020717999992,,,,,,,,,,,,,,,down,5.859882699998707,None,space,0.4282429000013508,None,P109,001,2024-11-15_16h17.06.166,posner_endo_new1,2024.2.4,60.051007325150486,2024-11-15 16h17.13.888632 +0000,
0.005,10,36,6,3,up,3.981288400002086,None,None,,,,,,,,,,,3,6,36,9,659.4176373000009,,,,,,,,,,,,659.4023320000015,659.4176373000009,659.4176373000009,663.4147357000002,,,,663.4150852999992,663.4302333000014,663.4302333000014,663.4302333000014,663.7299133999986,666.4272700000001,,,,,,,,,,,,,,,up,3.981288400002086,None,None,,,P109,001,2024-11-15_16h17.06.166,posner_endo_new1,2024.2.4,60.051007325150486,2024-11-15 16h17.13.888632 +0000,
0.005,0.31,37,7,3,down,2.347401600000012,None,space,0.32988819999809493,None,,,,,,,,,3,7,37,8,666.4437781999986,,,,,,,,,,,,666.4275081000014,666.4437781999986,666.4437781999986,668.7926005000008,,,,668.792946900001,668.8080813999986,668.8080813999986,668.8080813999986,669.1078750999986,669.1421785999992,,,,,,,,,,,,,,,down,2.347401600000012,None,space,0.32988819999809493,None,P109,001,2024-11-15_16h17.06.166,posner_endo_new1,2024.2.4,60.051007325150486,2024-11-15 16h17.13.888632 +0000,
0.005,-0.31,38,8,3,up,3.6733093000002555,None,space,0.45087710000007064,None,,,,,,,,,3,8,38,5,669.1577867000015,,,,,,,,,,,,669.1424178000016,669.1577867000015,669.1577867000015,672.8383314999992,,,,672.8386761000002,672.8539493999997,672.8539493999997,672.8539493999997,673.1536607000016,673.321173100001,,,,,,,,,,,,,,,up,3.6733093000002555,None,space,0.45087710000007064,None,P109,001,2024-11-15_16h17.06.166,posner_endo_new1,2024.2.4,60.051007325150486,2024-11-15 16h17.13.888632 +0000,
10,0.005,39,9,3,down,4.301506899999367,None,None,,,,,,,,,,,3,9,39,4,673.3367561000014,,,,,,,,,,,,673.3214106999985,673.3367561000014,673.3367561000014,677.6501448999988,,,,677.6504951999996,677.6655911000016,677.6655911000016,677.6655911000016,677.9653194999992,680.6627636000012,,,,,,,,,,,,,,,down,4.301506899999367,None,None,,,P109,001,2024-11-15_16h17.06.166,posner_endo_new1,2024.2.4,60.051007325150486,2024-11-15 16h17.13.888632 +0000,
0.31,0.005,40,0,4,up,1.0633207999999286,None,space,0.29587379999793484,None,,,,,,,,,4,0,40,1,680.6793179999986,,,,,,,,,,,,680.6629985,680.6793179999986,680.6793179999986,681.7457843000011,,,,681.7461335000007,681.7615396000001,681.7615396000001,681.7615396000001,682.0616579000016,682.0628662000017,,,,,,,,,,,,,,,up,1.0633207999999286,None,space,0.29587379999793484,None,P109,001,2024-11-15_16h17.06.166,posner_endo_new1,2024.2.4,60.051007325150486,2024-11-15 16h17.13.888632 +0000,
0.005,-0.31,41,1,4,down,3.256942200001504,None,space,0.45178350000060163,None,,,,,,,,,4,1,41,7,682.0779079999993,,,,,,,,,,,,682.0631039,682.0779079999993,682.0779079999993,685.3418162000016,,,,685.3420746000011,685.3573299000018,685.3573299000018,685.3573299000018,685.6576554999992,685.8248967,,,,,,,,,,,,,,,down,3.256942200001504,None,space,0.45178350000060163,None,P109,001,2024-11-15_16h17.06.166,posner_endo_new1,2024.2.4,60.051007325150486,2024-11-15 16h17.13.888632 +0000,
0.31,0.005,42,2,4,up,4.078225999997812,None,space,0.43277089999901364,None,,,,,,,,,4,2,42,3,685.8406842000004,,,,,,,,,,,,685.8250630000002,685.8406842000004,685.8406842000004,689.9207606999989,,,,689.9210232000005,689.9365056999995,689.9365056999995,689.9365056999995,690.2362930000018,690.370077800002,,,,,,,,,,,,,,,up,4.078225999997812,None,space,0.43277089999901364,None,P109,001,2024-11-15_16h17.06.166,posner_endo_new1,2024.2.4,60.051007325150486,2024-11-15 16h17.13.888632 +0000,
-0.31,0.005,43,3,4,up,8.724819999999454,None,space,0.4598880999983521,None,,,,,,,,,4,3,43,2,690.3855414999998,,,,,,,,,,,,690.3702458000007,690.3855414999998,690.3855414999998,699.1113828999987,,,,699.111643799999,699.1270026999991,699.1270026999991,699.1270026999991,699.4268111000019,699.5939173000006,,,,,,,,,,,,,,,up,8.724819999999454,None,space,0.4598880999983521,None,P109,001,2024-11-15_16h17.06.166,posner_endo_new1,2024.2.4,60.051007325150486,2024-11-15 16h17.13.888632 +0000,
0.005,-0.31,44,4,4,down,6.493043999998918,None,space,0.4559585999995761,None,,,,,,,,,4,4,44,5,699.6099668999996,,,,,,,,,,,,699.5940941000008,699.6099668999996,699.6099668999996,706.1042046000002,,,,706.1044600999994,706.1201283000009,706.1201283000009,706.1201283000009,706.4197509000005,706.5869385000005,,,,,,,,,,,,,,,down,6.493043999998918,None,space,0.4559585999995761,None,P109,001,2024-11-15_16h17.06.166,posner_endo_new1,2024.2.4,60.051007325150486,2024-11-15 16h17.13.888632 +0000,
-0.31,0.005,45,5,4,up,6.660416500002611,None,space,0.5479741000017384,None,,,,,,,,,4,5,45,0,706.6026858000005,,,,,,,,,,,,706.5871058000012,706.6026858000005,706.6026858000005,713.2800089000011,,,,713.2802718999992,713.2954915000009,713.2954915000009,713.2954915000009,713.5956966000012,713.8462789000005,,,,,,,,,,,,,,,up,6.660416500002611,None,space,0.5479741000017384,None,P109,001,2024-11-15_16h17.06.166,posner_endo_new1,2024.2.4,60.051007325150486,2024-11-15 16h17.13.888632 +0000,
0.005,0.31,46,6,4,up,10.264216800002032,None,space,0.5240908000014315,None,,,,,,,,,4,6,46,8,713.8621270000003,,,,,,,,,,,,713.8464525999989,713.8621270000003,713.8621270000003,724.1356861999993,,,,724.1359453000005,724.1514117000006,724.1514117000006,724.1514117000006,724.4511396999987,724.685118100002,,,,,,,,,,,,,,,up,10.264216800002032,None,space,0.5240908000014315,None,P109,001,2024-11-15_16h17.06.166,posner_endo_new1,2024.2.4,60.051007325150486,2024-11-15 16h17.13.888632 +0000,
10,0.005,47,7,4,down,5.545895399998699,None,None,,,,,,,,,,,4,7,47,4,724.7010545000012,,,,,,,,,,,,724.6852810000019,724.7010545000012,724.7010545000012,730.2626267000014,,,,730.2628786999994,730.2786273999991,730.2786273999991,730.2786273999991,730.5782336000011,733.2756097999991,,,,,,,,,,,,,,,down,5.545895399998699,None,None,,,P109,001,2024-11-15_16h17.06.166,posner_endo_new1,2024.2.4,60.051007325150486,2024-11-15 16h17.13.888632 +0000,
0.005,10,48,8,4,up,2.042507800000749,None,None,,,,,,,,,,,4,8,48,9,733.2922122000018,,,,,,,,,,,,733.2757727999997,733.2922122000018,733.2922122000018,735.3409460000003,,,,735.3411997000003,735.3567215000003,735.3567215000003,735.3567215000003,735.6564303999985,738.3532706000005,,,,,,,,,,,,,,,up,2.042507800000749,None,None,,,P109,001,2024-11-15_16h17.06.166,posner_endo_new1,2024.2.4,60.051007325150486,2024-11-15 16h17.13.888632 +0000,
0.005,0.31,49,9,4,up,8.684722799996962,None,space,0.41058780000093975,None,,,,,,,,,4,9,49,6,738.3703128000016,,,,,,,,,,,,738.3534327999987,738.3703128000016,738.3703128000016,747.061787900002,,,,747.0620559999988,747.0780384999998,747.0780384999998,747.0780384999998,747.3777743999999,747.4946705000002,,,,,,,,,,,,,,,up,8.684722799996962,None,space,0.41058780000093975,None,P109,001,2024-11-15_16h17.06.166,posner_endo_new1,2024.2.4,60.051007325150486,2024-11-15 16h17.13.888632 +0000,
-0.31,0.005,50,0,5,down,4.111309299998538,None,space,0.4556087999990268,None,,,,,,,,,5,0,50,2,747.5110726999992,,,,,,,,,,,,747.4948359000009,747.5110726999992,747.5110726999992,751.6238864000006,,,,751.6241356999999,751.6399926000013,751.6399926000013,751.6399926000013,751.939854799999,752.1070006000009,,,,,,,,,,,,,,,down,4.111309299998538,None,space,0.4556087999990268,None,P109,001,2024-11-15_16h17.06.166,posner_endo_new1,2024.2.4,60.051007325150486,2024-11-15 16h17.13.888632 +0000,
0.31,0.005,51,1,5,down,9.044282000002568,None,space,0.4609407000025385,None,,,,,,,,,5,1,51,3,752.1223696000015,,,,,,,,,,,,752.1071652999999,752.1223696000015,752.1223696000015,761.1811885999996,,,,761.1814405000005,761.196953300001,761.196953300001,761.196953300001,761.4960849999989,761.6635510999986,,,,,,,,,,,,,,,down,9.044282000002568,None,space,0.4609407000025385,None,P109,001,2024-11-15_16h17.06.166,posner_endo_new1,2024.2.4,60.051007325150486,2024-11-15 16h17.13.888632 +0000,
0.005,-0.31,52,2,5,up,7.174994500001048,None,space,0.39867249999952037,None,,,,,,,,,5,2,52,7,761.6798750000016,,,,,,,,,,,,761.663717899999,761.6798750000016,761.6798750000016,768.8568988000006,,,,768.8573366000019,768.8719978000008,768.8719978000008,768.8719978000008,769.1717210999996,769.2731127000006,,,,,,,,,,,,,,,up,7.174994500001048,None,space,0.39867249999952037,None,P109,001,2024-11-15_16h17.06.166,posner_endo_new1,2024.2.4,60.051007325150486,2024-11-15 16h17.13.888632 +0000,
10,0.005,53,3,5,up,9.486886700000468,None,None,,,,,,,,,,,5,3,53,4,769.2882433000013,,,,,,,,,,,,769.2734304000005,769.2882433000013,769.2882433000013,778.7801108999993,,,,778.7805487000005,778.7951949000017,778.7951949000017,778.7951949000017,779.0948820000012,781.7923061000001,,,,,,,,,,,,,,,up,9.486886700000468,None,None,,,P109,001,2024-11-15_16h17.06.166,posner_endo_new1,2024.2.4,60.051007325150486,2024-11-15 16h17.13.888632 +0000,
0.31,0.005,54,4,5,up,5.310067900001741,None,space,0.45098670000152197,None,,,,,,,,,5,4,54,1,781.8088043999996,,,,,,,,,,,,781.7925996000013,781.8088043999996,781.8088043999996,787.121481000002,,,,787.1219283999999,787.1366564000018,787.1366564000018,787.1366564000018,787.43635,787.6042424000007,,,,,,,,,,,,,,,up,5.310067900001741,None,space,0.45098670000152197,None,P109,001,2024-11-15_16h17.06.166,posner_endo_new1,2024.2.4,60.051007325150486,2024-11-15 16h17.13.888632 +0000,
0.005,-0.31,55,5,5,down,4.52398119999998,None,space,0.48235750000094413,None,,,,,,,,,5,5,55,5,787.619499299999,,,,,,,,,,,,787.6045518999999,787.619499299999,787.619499299999,792.1497745999986,,,,792.1502217999987,792.1648359999999,792.1648359999999,792.1648359999999,792.4645472000011,792.6492476999993,,,,,,,,,,,,,,,down,4.52398119999998,None,space,0.48235750000094413,None,P109,001,2024-11-15_16h17.06.166,posner_endo_new1,2024.2.4,60.051007325150486,2024-11-15 16h17.13.888632 +0000,
0.005,0.31,56,6,5,up,4.357915299999149,None,space,0.33981670000139275,None,,,,,,,,,5,6,56,6,792.6643408000018,,,,,,,,,,,,792.6495656000006,792.6643408000018,792.6643408000018,797.0279432999996,,,,797.0283925000003,797.0432024000002,797.0432024000002,797.0432024000002,797.3428931999988,797.3942446000001,,,,,,,,,,,,,,,up,4.357915299999149,None,space,0.33981670000139275,None,P109,001,2024-11-15_16h17.06.166,posner_endo_new1,2024.2.4,60.051007325150486,2024-11-15 16h17.13.888632 +0000,
0.005,0.31,57,7,5,down,4.445252699999401,None,space,0.531866600002104,None,,,,,,,,,5,7,57,8,797.4094852000017,,,,,,,,,,,,797.3945511999991,797.4094852000017,797.4094852000017,801.8563594000007,,,,801.8568034999989,801.8715947000019,801.8715947000019,801.8715947000019,802.1713013000008,802.4059617000021,,,,,,,,,,,,,,,down,4.445252699999401,None,space,0.531866600002104,None,P109,001,2024-11-15_16h17.06.166,posner_endo_new1,2024.2.4,60.051007325150486,2024-11-15 16h17.13.888632 +0000,
0.005,10,58,8,5,up,3.402026300002035,None,None,,,,,,,,,,,5,8,58,9,802.4210267999988,,,,,,,,,,,,802.4062694999993,802.4210267999988,802.4210267999988,805.8355641000016,,,,805.8360051999989,805.8508513000015,805.8508513000015,805.8508513000015,806.1505493000004,808.8482513000017,,,,,,,,,,,,,,,up,3.402026300002035,None,None,,,P109,001,2024-11-15_16h17.06.166,posner_endo_new1,2024.2.4,60.051007325150486,2024-11-15 16h17.13.888632 +0000,
-0.31,0.005,59,9,5,down,1.533408999999665,None,space,0.418372799998906,None,,,,,,,,,5,9,59,0,808.8648979999998,,,,,,,,,,,,808.8484453000019,808.8648979999998,808.8648979999998,810.4141579999996,,,,810.414467999999,810.4299475000007,810.4299475000007,810.4299475000007,810.7296473999995,810.8637688999988,,,,,,,,,,,,,,,down,1.533408999999665,None,space,0.418372799998906,None,P109,001,2024-11-15_16h17.06.166,posner_endo_new1,2024.2.4,60.051007325150486,2024-11-15 16h17.13.888632 +0000,
