target_y,target_x,thisN,thisTrialN,thisRepN,key_control2.keys,key_control2.rt,key_control2.duration,key_resp.keys,key_resp.rt,key_resp.duration,practice.thisRepN,practice.thisTrialN,practice.thisN,practice.thisIndex,session_1.thisRepN,session_1.thisTrialN,session_1.thisN,session_1.thisIndex,session_2.thisRepN,session_2.thisTrialN,session_2.thisN,session_2.thisIndex,thisRow.t,notes,instructions.started,instructions_txt.started,key_control.started,instructions.stopped,key_control.keys,key_control.rt,key_control.duration,ready.started,ready_txt.started,ready.stopped,fix.started,key_control2.started,fixation_cross.started,fix.stopped,practice.key_control2.keys,practice.key_control2.rt,practice.key_control2.duration,target.started,star.started,fixation_cross_target.started,key_resp.started,star.stopped,target.stopped,practice.key_resp.keys,practice.key_resp.rt,practice.key_resp.duration,key_resp.stopped,session_1.key_control2.keys,session_1.key_control2.rt,session_1.key_control2.duration,session_1.key_resp.keys,session_1.key_resp.rt,session_1.key_resp.duration,break_2.started,text.started,key_control3.started,break_2.stopped,key_control3.keys,session_2.key_control2.keys,session_2.key_control2.rt,session_2.key_control2.duration,session_2.key_resp.keys,session_2.key_resp.rt,session_2.key_resp.duration,participant,session,date,expName,psychopyVersion,frameRate,expStart,
,,,,,,,,,,,,,,,,,,,,,,,,,0.007538599999975304,0.024590299999999843,0.024590299999999843,4130.7800993,up,4130.7445169,None,,,,,,,,,,,,,,,,,,,,,,,,,,,,,,,,,,,,,,P110,001,2024-11-19_08h50.20.436,posner_endo_new1,2024.2.4,60.03287400182413,2024-11-19 08h52.46.877981 +0000,
,,,,,,,,,,,,,,,,,,,,,,,,,,,,,,,,4130.7801741,4130.789223899999,4133.7836489,,,,,,,,,,,,,,,,,,,,,,,,,,,,,,,,,,,P110,001,2024-11-19_08h50.20.436,posner_endo_new1,2024.2.4,60.03287400182413,2024-11-19 08h52.46.877981 +0000,
0.005,0.31,0,0,0,up,2.631076200001189,None,space,0.5233599000002869,None,0,0,0,8,,,,,,,,,4133.8015815,,,,,,,,,,,,4133.790390300001,4133.8015815,4133.8015815,4136.449465199999,up,2.631076200001189,None,4136.4501437,4136.467231799999,4136.467231799999,4136.467231799999,4136.780415699999,4136.9991001,space,0.5233599000002869,None,,,,,,,,,,,,,,,,,,,P110,001,2024-11-19_08h50.20.436,posner_endo_new1,2024.2.4,60.03287400182413,2024-11-19 08h52.46.877981 +0000,
0.005,0.31,1,1,0,down,4.843550300000061,None,space,0.3358133000001544,None,0,1,1,6,,,,,,,,,4137.013505999999,,,,,,,,,,,,4136.9995203,4137.013505999999,4137.013505999999,4141.8599405,down,4.843550300000061,None,4141.8603141,4141.875252899999,4141.875252899999,4141.875252899999,4142.1749937,4142.226135999999,space,0.3358133000001544,None,,,,,,,,,,,,,,,,,,,P110,001,2024-11-19_08h50.20.436,posner_endo_new1,2024.2.4,60.03287400182413,2024-11-19 08h52.46.877981 +0000,
0.005,-0.31,2,2,0,up,3.4232688000010967,None,space,0.3616740999987087,None,0,2,2,5,,,,,,,,,4142.241631000001,,,,,,,,,,,,4142.226386300001,4142.241631000001,4142.241631000001,4145.672653899999,up,3.4232688000010967,None,4145.6730293,4145.6880731,4145.6880731,4145.6880731,4145.9877368,4146.0555771,space,0.3616740999987087,None,,,,,,,,,,,,,,,,,,,P110,001,2024-11-19_08h50.20.436,posner_endo_new1,2024.2.4,60.03287400182413,2024-11-19 08h52.46.877981 +0000,
-0.31,0.005,3,3,0,down,2.202418699998816,None,space,0.430126699999164,None,0,3,3,0,,,,,,,,,4146.071010399999,,,,,,,,,,,,4146.0558575,4146.071010399999,4146.071010399999,4148.286601100001,down,2.202418699998816,None,4148.2869723,4148.3021481,4148.3021481,4148.3021481,4148.601687,4148.7362624,space,0.430126699999164,None,,,,,,,,,,,,,,,,,,,P110,001,2024-11-19_08h50.20.436,posner_endo_new1,2024.2.4,60.03287400182413,2024-11-19 08h52.46.877981 +0000,
10,0.005,4,4,0,up,3.0025614999995014,None,None,,,0,4,4,4,,,,,,,,,4148.751429399999,,,,,,,,,,,,4148.736523,4148.751429399999,4148.751429399999,4151.766439499999,up,3.0025614999995014,None,4151.766809999999,4151.7817534999995,4151.7817534999995,4151.7817534999995,4152.081569600001,4154.778891800001,None,,,4152.780799100001,,,,,,,,,,,,,,,,,,P110,001,2024-11-19_08h50.20.436,posner_endo_new1,2024.2.4,60.03287400182413,2024-11-19 08h52.46.877981 +0000,
0.005,10,5,5,0,up,2.9733668999997462,None,None,,,0,5,5,9,,,,,,,,,4154.7954943,,,,,,,,,,,,4154.7791278,4154.7954943,4154.7954943,4157.7769178,up,2.9733668999997462,None,4157.777291599999,4157.792401000001,4157.792401000001,4157.792401000001,4158.0921253,4160.7895166,None,,,4158.8080264,,,,,,,,,,,,,,,,,,P110,001,2024-11-19_08h50.20.436,posner_endo_new1,2024.2.4,60.03287400182413,2024-11-19 08h52.46.877981 +0000,
0.31,0.005,6,6,0,down,1.6113611000000674,None,space,0.4057439999996859,None,0,6,6,1,,,,,,,,,4160.806049700001,,,,,,,,,,,,4160.7897515,4160.806049700001,4160.806049700001,4162.422158400001,down,1.6113611000000674,None,4162.4225331,4162.437569399999,4162.437569399999,4162.437569399999,4162.737279700001,4162.8551334,space,0.4057439999996859,None,,,,,,,,,,,,,,,,,,,P110,001,2024-11-19_08h50.20.436,posner_endo_new1,2024.2.4,60.03287400182413,2024-11-19 08h52.46.877981 +0000,
-0.31,0.005,7,7,0,up,3.1386020999998436,None,None,,,0,7,7,2,,,,,,,,,4162.870574299999,,,,,,,,,,,,4162.8554005000005,4162.870574299999,4162.870574299999,4166.018530400001,up,3.1386020999998436,None,4166.0189016,4166.034035999999,4166.034035999999,4166.034035999999,4166.3337149,4169.0310359,None,,,4167.049532999999,,,,,,,,,,,,,,,,,,P110,001,2024-11-19_08h50.20.436,posner_endo_new1,2024.2.4,60.03287400182413,2024-11-19 08h52.46.877981 +0000,
0.005,-0.31,8,8,0,down,0.4731382999998459,None,space,0.41051320000042324,None,0,8,8,7,,,,,,,,,4169.0474963,,,,,,,,,,,,4169.031270199999,4169.0474963,4169.0474963,4169.531561399999,down,0.4731382999998459,None,4169.5319366,4169.5469502,4169.5469502,4169.5469502,4169.8466792,4169.964649199999,space,0.41051320000042324,None,,,,,,,,,,,,,,,,,,,P110,001,2024-11-19_08h50.20.436,posner_endo_new1,2024.2.4,60.03287400182413,2024-11-19 08h52.46.877981 +0000,
0.31,0.005,9,9,0,up,2.7489199999999983,None,None,,,0,9,9,3,,,,,,,,,4169.979924900001,,,,,,,,,,,,4169.9649100999995,4169.979924900001,4169.979924900001,4172.744755399999,up,2.7489199999999983,None,4172.7451256,4172.7604758,4172.7604758,4172.7604758,4173.0600963,4175.7575297,None,,,4173.759359399999,,,,,,,,,,,,,,,,,,P110,001,2024-11-19_08h50.20.436,posner_endo_new1,2024.2.4,60.03287400182413,2024-11-19 08h52.46.877981 +0000,
,,,,,,,,,,,,,,,,,,,,,,,,,,,,,,,,4175.7576768,4175.774063499999,4178.75446,,,,,,,,,,,,,,,,,,,,,,,,,,,,,,,,,,,P110,001,2024-11-19_08h50.20.436,posner_endo_new1,2024.2.4,60.03287400182413,2024-11-19 08h52.46.877981 +0000,
-0.31,0.005,0,0,0,up,3.1900983000014094,None,None,,,,,,,0,0,0,0,,,,,4178.7786897000005,,,,,,,,,,,,4178.7700843,4178.7786897000005,4178.7786897000005,4181.985504800001,,,,4181.985891300001,4182.0009639,4182.0009639,4182.0009639,4182.3006604,4184.998105500001,,,,4183.0165953,up,3.1900983000014094,None,None,,,,,,,,,,,,,,P110,001,2024-11-19_08h50.20.436,posner_endo_new1,2024.2.4,60.03287400182413,2024-11-19 08h52.46.877981 +0000,
0.005,0.31,1,1,0,up,3.3551139000010153,None,space,0.5131049999999959,None,,,,,0,1,1,1,,,,,4185.014474,,,,,,,,,,,,4184.998355600001,4185.014474,4185.014474,4188.379022900001,,,,4188.379408299999,4188.3944164,4188.3944164,4188.3944164,4188.694181000001,4188.9117288,,,,,up,3.3551139000010153,None,space,0.5131049999999959,None,,,,,,,,,,,,P110,001,2024-11-19_08h50.20.436,posner_endo_new1,2024.2.4,60.03287400182413,2024-11-19 08h52.46.877981 +0000,
0.31,0.005,2,2,0,down,2.8985020000000077,None,None,,,,,,,0,2,2,2,,,,,4188.9273209,,,,,,,,,,,,4188.9119937,4188.9273209,4188.9273209,4191.841896,,,,4191.842268599999,4191.857610999999,4191.857610999999,4191.857610999999,4192.157239300001,4194.854697500001,,,,4192.873269600001,down,2.8985020000000077,None,None,,,,,,,,,,,,,,P110,001,2024-11-19_08h50.20.436,posner_endo_new1,2024.2.4,60.03287400182413,2024-11-19 08h52.46.877981 +0000,
0.31,0.005,3,3,0,up,0.9224419999991369,None,None,,,,,,,0,3,3,3,,,,,4194.8711666,,,,,,,,,,,,4194.8549451,4194.8711666,4194.8711666,4195.8047525,,,,4195.805127400001,4195.8201639,4195.8201639,4195.8201639,4196.1199547,4198.8173095,,,,4196.8190892,up,0.9224419999991369,None,None,,,,,,,,,,,,,,P110,001,2024-11-19_08h50.20.436,posner_endo_new1,2024.2.4,60.03287400182413,2024-11-19 08h52.46.877981 +0000,
-0.31,0.005,4,4,0,up,3.463141900001574,None,None,,,,,,,0,4,4,4,,,,,4198.833751,,,,,,,,,,,,4198.817556399999,4198.833751,4198.833751,4202.2982916,,,,4202.2986648999995,4202.3135193,4202.3135193,4202.3135193,4202.6132203,4205.3106415,,,,4203.312479099999,up,3.463141900001574,None,None,,,,,,,,,,,,,,P110,001,2024-11-19_08h50.20.436,posner_endo_new1,2024.2.4,60.03287400182413,2024-11-19 08h52.46.877981 +0000,
0.005,-0.31,5,5,0,up,2.8419179000011354,None,space,0.3897746000002371,None,,,,,0,5,5,5,,,,,4205.3269397,,,,,,,,,,,,4205.3108854,4205.3269397,4205.3269397,4208.175445499999,,,,4208.1758259,4208.190928599999,4208.190928599999,4208.190928599999,4208.4905877,4208.591770499999,,,,,up,2.8419179000011354,None,space,0.3897746000002371,None,,,,,,,,,,,,P110,001,2024-11-19_08h50.20.436,posner_endo_new1,2024.2.4,60.03287400182413,2024-11-19 08h52.46.877981 +0000,
0.005,-0.31,6,6,0,down,3.370620900001086,None,space,0.4480352999999013,None,,,,,0,6,6,6,,,,,4208.6071591,,,,,,,,,,,,4208.5920348,4208.6071591,4208.6071591,4211.9881728,,,,4211.988543199999,4212.0036569,4212.0036569,4212.0036569,4212.3032563,4212.454456699999,,,,,down,3.370620900001086,None,space,0.4480352999999013,None,,,,,,,,,,,,P110,001,2024-11-19_08h50.20.436,posner_endo_new1,2024.2.4,60.03287400182413,2024-11-19 08h52.46.877981 +0000,
10,0.005,7,7,0,up,2.227300099999411,None,None,,,,,,,0,7,7,7,,,,,4212.469941400001,,,,,,,,,,,,4212.4547234,4212.469941400001,4212.469941400001,4214.7024079,,,,4214.702779699999,4214.717583400001,4214.717583400001,4214.717583400001,4215.017247899999,4217.714574600001,,,,4215.716549299999,up,2.227300099999411,None,None,,,,,,,,,,,,,,P110,001,2024-11-19_08h50.20.436,posner_endo_new1,2024.2.4,60.03287400182413,2024-11-19 08h52.46.877981 +0000,
-0.31,0.005,8,8,0,down,0.646100200001456,None,None,,,,,,,0,8,8,8,,,,,4217.7310774,,,,,,,,,,,,4217.7148282,4217.7310774,4217.7310774,4218.3817946,,,,4218.3821757999995,4218.3973929,4218.3973929,4218.3973929,4218.696864400001,4221.3942128,,,,4219.4127438,down,0.646100200001456,None,None,,,,,,,,,,,,,,P110,001,2024-11-19_08h50.20.436,posner_endo_new1,2024.2.4,60.03287400182413,2024-11-19 08h52.46.877981 +0000,
0.005,0.31,9,9,0,up,1.5505868000000191,None,space,0.4067625000006956,None,,,,,0,9,9,9,,,,,4221.4107048999995,,,,,,,,,,,,4221.394458000001,4221.4107048999995,4221.4107048999995,4222.9770654,,,,4222.977444599999,4222.992464000001,4222.992464000001,4222.992464000001,4223.292060600001,4223.409931300001,,,,,up,1.5505868000000191,None,space,0.4067625000006956,None,,,,,,,,,,,,P110,001,2024-11-19_08h50.20.436,posner_endo_new1,2024.2.4,60.03287400182413,2024-11-19 08h52.46.877981 +0000,
0.005,-0.31,10,10,0,down,2.672139199999947,None,space,0.6746920000005048,None,,,,,0,10,10,10,,,,,4223.4253549000005,,,,,,,,,,,,4223.410199,4223.4253549000005,4223.4253549000005,4226.107118,,,,4226.107507000001,4226.1226037,4226.1226037,4226.1226037,4226.422095,4226.8063602,,,,,down,2.672139199999947,None,space,0.6746920000005048,None,,,,,,,,,,,,P110,001,2024-11-19_08h50.20.436,posner_endo_new1,2024.2.4,60.03287400182413,2024-11-19 08h52.46.877981 +0000,
0.005,0.31,11,11,0,up,3.875431500000559,None,space,0.4131503000007797,None,,,,,0,11,11,11,,,,,4226.8218357000005,,,,,,,,,,,,4226.8066246,4226.8218357000005,4226.8218357000005,4230.702596499999,,,,4230.702976500001,4230.717889400001,4230.717889400001,4230.717889400001,4231.017554100001,4231.1353612,,,,,up,3.875431500000559,None,space,0.4131503000007797,None,,,,,,,,,,,,P110,001,2024-11-19_08h50.20.436,posner_endo_new1,2024.2.4,60.03287400182413,2024-11-19 08h52.46.877981 +0000,
10,0.005,12,12,0,down,3.0188293999999587,None,None,,,,,,,0,12,12,12,,,,,4231.1508398999995,,,,,,,,,,,,4231.135625499999,4231.1508398999995,4231.1508398999995,4234.182215999999,,,,4234.1825919,4234.197572499999,4234.197572499999,4234.197572499999,4234.4972999,4237.1947003000005,,,,4235.1967114,down,3.0188293999999587,None,None,,,,,,,,,,,,,,P110,001,2024-11-19_08h50.20.436,posner_endo_new1,2024.2.4,60.03287400182413,2024-11-19 08h52.46.877981 +0000,
0.31,0.005,13,13,0,down,2.9900211000003765,None,None,,,,,,,0,13,13,13,,,,,4237.2111004,,,,,,,,,,,,4237.1949540000005,4237.2111004,4237.2111004,4240.2093172,,,,4240.2096891,4240.224793199999,4240.224793199999,4240.224793199999,4240.524568700001,4243.2218992,,,,4241.240327699999,down,2.9900211000003765,None,None,,,,,,,,,,,,,,P110,001,2024-11-19_08h50.20.436,posner_endo_new1,2024.2.4,60.03287400182413,2024-11-19 08h52.46.877981 +0000,
10,0.005,14,14,0,up,0.9950684999985242,None,None,,,,,,,0,14,14,14,,,,,4243.2384891,,,,,,,,,,,,4243.2221434,4243.2384891,4243.2384891,4244.238714499999,,,,4244.239083099999,4244.254090799999,4244.254090799999,4244.254090799999,4244.553741600001,4247.251080100001,,,,4245.2696516,up,0.9950684999985242,None,None,,,,,,,,,,,,,,P110,001,2024-11-19_08h50.20.436,posner_endo_new1,2024.2.4,60.03287400182413,2024-11-19 08h52.46.877981 +0000,
-0.31,0.005,15,15,0,down,0.07808599999953003,None,None,,,,,,,0,15,15,15,,,,,4247.2675389,,,,,,,,,,,,4247.251336200001,4247.2675389,4247.2675389,4247.351997399999,,,,4247.3523711,4247.3674353999995,4247.3674353999995,4247.3674353999995,4247.6672347,4250.3647,,,,4248.3664596,down,0.07808599999953003,None,None,,,,,,,,,,,,,,P110,001,2024-11-19_08h50.20.436,posner_endo_new1,2024.2.4,60.03287400182413,2024-11-19 08h52.46.877981 +0000,
0.005,-0.31,16,16,0,up,0.8605881999992562,None,space,0.5076595000009547,None,,,,,0,16,16,16,,,,,4250.381059400001,,,,,,,,,,,,4250.364945900001,4250.381059400001,4250.381059400001,4251.2481708,,,,4251.248547200001,4251.263539,4251.263539,4251.263539,4251.5632293,4251.780898499999,,,,,up,0.8605881999992562,None,space,0.5076595000009547,None,,,,,,,,,,,,P110,001,2024-11-19_08h50.20.436,posner_endo_new1,2024.2.4,60.03287400182413,2024-11-19 08h52.46.877981 +0000,
0.005,0.31,17,17,0,down,1.8931594000005134,None,space,0.5953103000010742,None,,,,,0,17,17,17,,,,,4251.7963564,,,,,,,,,,,,4251.7811661,4251.7963564,4251.7963564,4253.6955984,,,,4253.695972400001,4253.7109681,4253.7109681,4253.7109681,4254.0108556,4254.3116193000005,,,,,down,1.8931594000005134,None,space,0.5953103000010742,None,,,,,,,,,,,,P110,001,2024-11-19_08h50.20.436,posner_endo_new1,2024.2.4,60.03287400182413,2024-11-19 08h52.46.877981 +0000,
-0.31,0.005,18,18,0,up,3.3791291000015917,None,None,,,,,,,0,18,18,18,,,,,4254.326913700001,,,,,,,,,,,,4254.311883799999,4254.326913700001,4254.326913700001,4257.7082331,,,,4257.7086069,4257.723623,4257.723623,4257.723623,4258.023305799999,4260.7207143,,,,4258.7392466,up,3.3791291000015917,None,None,,,,,,,,,,,,,,P110,001,2024-11-19_08h50.20.436,posner_endo_new1,2024.2.4,60.03287400182413,2024-11-19 08h52.46.877981 +0000,
10,0.005,19,19,0,down,0.8325841000005312,None,None,,,,,,,0,19,19,19,,,,,4260.737164599999,,,,,,,,,,,,4260.7209588000005,4260.737164599999,4260.737164599999,4261.5709109,,,,4261.5712802,4261.5863506000005,4261.5863506000005,4261.5863506000005,4261.8860045,4264.5833109,,,,4262.6019992,down,0.8325841000005312,None,None,,,,,,,,,,,,,,P110,001,2024-11-19_08h50.20.436,posner_endo_new1,2024.2.4,60.03287400182413,2024-11-19 08h52.46.877981 +0000,
0.005,0.31,20,20,0,down,2.7778330000001006,None,space,0.34756819999893196,None,,,,,0,20,20,20,,,,,4264.599888000001,,,,,,,,,,,,4264.5835592,4264.599888000001,4264.599888000001,4267.381596499999,,,,4267.3819723,4267.3970436,4267.3970436,4267.3970436,4267.696772400001,4267.7481857,,,,,down,2.7778330000001006,None,space,0.34756819999893196,None,,,,,,,,,,,,P110,001,2024-11-19_08h50.20.436,posner_endo_new1,2024.2.4,60.03287400182413,2024-11-19 08h52.46.877981 +0000,
0.005,-0.31,21,21,0,up,3.030006200000571,None,space,0.47182359999897017,None,,,,,0,21,21,21,,,,,4267.763384899999,,,,,,,,,,,,4267.7484508,4267.763384899999,4267.763384899999,4270.794868499999,,,,4270.795242099999,4270.810242199999,4270.810242199999,4270.810242199999,4271.109938,4271.2944264,,,,,up,3.030006200000571,None,space,0.47182359999897017,None,,,,,,,,,,,,P110,001,2024-11-19_08h50.20.436,posner_endo_new1,2024.2.4,60.03287400182413,2024-11-19 08h52.46.877981 +0000,
0.005,0.31,22,22,0,down,2.4274707999993552,None,space,0.40488209999966784,None,,,,,0,22,22,22,,,,,4271.309731900001,,,,,,,,,,,,4271.2946985,4271.309731900001,4271.309731900001,4273.7417859,,,,4273.742165,4273.7572163,4273.7572163,4273.7572163,4274.0568079,4274.1742030000005,,,,,down,2.4274707999993552,None,space,0.40488209999966784,None,,,,,,,,,,,,P110,001,2024-11-19_08h50.20.436,posner_endo_new1,2024.2.4,60.03287400182413,2024-11-19 08h52.46.877981 +0000,
0.31,0.005,23,23,0,up,3.067334100000153,None,None,,,,,,,0,23,23,23,,,,,4274.1899385,,,,,,,,,,,,4274.1744738,4274.1899385,4274.1899385,4277.2708783,,,,4277.2711155,4277.286834099999,4277.286834099999,4277.286834099999,4277.5865158,4280.2839764,,,,4278.302336500001,up,3.067334100000153,None,None,,,,,,,,,,,,,,P110,001,2024-11-19_08h50.20.436,posner_endo_new1,2024.2.4,60.03287400182413,2024-11-19 08h52.46.877981 +0000,
0.005,0.31,24,24,0,down,0.3249991000011505,None,space,0.469256200000018,None,,,,,0,24,24,24,,,,,4280.300436199999,,,,,,,,,,,,4280.284132500001,4280.300436199999,4280.300436199999,4280.6351118,,,,4280.635725300001,4280.6499399,4280.6499399,4280.6499399,4280.949639500001,4281.1347700999995,,,,,down,0.3249991000011505,None,space,0.469256200000018,None,,,,,,,,,,,,P110,001,2024-11-19_08h50.20.436,posner_endo_new1,2024.2.4,60.03287400182413,2024-11-19 08h52.46.877981 +0000,
0.31,0.005,25,25,0,up,3.252007799999774,None,None,,,,,,,0,25,25,25,,,,,4281.1494692,,,,,,,,,,,,4281.1351725,4281.1494692,4281.1494692,4284.4153811,,,,4284.416130199999,4284.429977899999,4284.429977899999,4284.429977899999,4284.7295001,4287.4266458,,,,4285.444977900001,up,3.252007799999774,None,None,,,,,,,,,,,,,,P110,001,2024-11-19_08h50.20.436,posner_endo_new1,2024.2.4,60.03287400182413,2024-11-19 08h52.46.877981 +0000,
10,0.005,26,26,0,down,0.6220027999988815,None,None,,,,,,,0,26,26,26,,,,,4287.443352,,,,,,,,,,,,4287.4267979,4287.443352,4287.443352,4288.0785789,,,,4288.0793123,4288.0930181,4288.0930181,4288.0930181,4288.3924097,4291.0895337,,,,4289.1083462999995,down,0.6220027999988815,None,None,,,,,,,,,,,,,,P110,001,2024-11-19_08h50.20.436,posner_endo_new1,2024.2.4,60.03287400182413,2024-11-19 08h52.46.877981 +0000,
10,0.005,27,27,0,up,0.22348190000047907,None,None,,,,,,,0,27,27,27,,,,,4291.106022,,,,,,,,,,,,4291.089695500001,4291.106022,4291.106022,4291.3401135,,,,4291.3403488,4291.3557745,4291.3557745,4291.3557745,4291.6556120000005,4294.352968499999,,,,4292.3549559,up,0.22348190000047907,None,None,,,,,,,,,,,,,,P110,001,2024-11-19_08h50.20.436,posner_endo_new1,2024.2.4,60.03287400182413,2024-11-19 08h52.46.877981 +0000,
0.005,-0.31,28,28,0,down,0.8800805999999284,None,space,0.3775616999992053,None,,,,,0,28,28,28,,,,,4294.3694005,,,,,,,,,,,,4294.353121300001,4294.3694005,4294.3694005,4295.2525854,,,,4295.2528203,4295.2686194,4295.2686194,4295.2686194,4295.5766647,4295.6517005999995,,,,,down,0.8800805999999284,None,space,0.3775616999992053,None,,,,,,,,,,,,P110,001,2024-11-19_08h50.20.436,posner_endo_new1,2024.2.4,60.03287400182413,2024-11-19 08h52.46.877981 +0000,
0.31,0.005,29,29,0,up,3.597552799999903,None,None,,,,,,,0,29,29,29,,,,,4295.667898199999,,,,,,,,,,,,4295.651857999999,4295.667898199999,4295.667898199999,4299.281683499999,,,,4299.281922800001,4299.2978387,4299.2978387,4299.2978387,4299.5974193,4302.2947446,,,,4300.313312300001,up,3.597552799999903,None,None,,,,,,,,,,,,,,P110,001,2024-11-19_08h50.20.436,posner_endo_new1,2024.2.4,60.03287400182413,2024-11-19 08h52.46.877981 +0000,
10,0.005,30,30,0,down,0.05022400000052585,None,None,,,,,,,0,30,30,30,,,,,4302.3114768,,,,,,,,,,,,4302.2948966,4302.3114768,4302.3114768,4302.3785035,,,,4302.378739399999,4302.3947047,4302.3947047,4302.3947047,4302.6942726,4305.391736199999,,,,4303.4102201000005,down,0.05022400000052585,None,None,,,,,,,,,,,,,,P110,001,2024-11-19_08h50.20.436,posner_endo_new1,2024.2.4,60.03287400182413,2024-11-19 08h52.46.877981 +0000,
0.31,0.005,31,31,0,up,0.6327673999985564,None,None,,,,,,,0,31,31,31,,,,,4305.4082026,,,,,,,,,,,,4305.391891900001,4305.4082026,4305.4082026,4306.0416824,,,,4306.0419237999995,4306.0574772,4306.0574772,4306.0574772,4306.3572043,4309.054582299999,,,,4307.0564383,up,0.6327673999985564,None,None,,,,,,,,,,,,,,P110,001,2024-11-19_08h50.20.436,posner_endo_new1,2024.2.4,60.03287400182413,2024-11-19 08h52.46.877981 +0000,
0.31,0.005,32,32,0,down,0.08206889999928535,None,None,,,,,,,0,32,32,32,,,,,4309.071244999999,,,,,,,,,,,,4309.054742799999,4309.071244999999,4309.071244999999,4309.155273599999,,,,4309.155512400001,4309.1709206,4309.1709206,4309.1709206,4309.470355199999,4312.1679886,,,,4310.1700303,down,0.08206889999928535,None,None,,,,,,,,,,,,,,P110,001,2024-11-19_08h50.20.436,posner_endo_new1,2024.2.4,60.03287400182413,2024-11-19 08h52.46.877981 +0000,
10,0.005,33,33,0,down,4.416570299999876,None,None,,,,,,,0,33,33,33,,,,,4312.1847022,,,,,,,,,,,,4312.1681405,4312.1847022,4312.1847022,4316.6141052,,,,4316.614345399999,4316.629950099999,4316.629950099999,4316.629950099999,4316.929550499999,4319.627151299999,,,,4317.629008,down,4.416570299999876,None,None,,,,,,,,,,,,,,P110,001,2024-11-19_08h50.20.436,posner_endo_new1,2024.2.4,60.03287400182413,2024-11-19 08h52.46.877981 +0000,
0.005,-0.31,34,34,0,up,2.141060500000094,None,space,0.35038410000015574,None,,,,,0,34,34,34,,,,,4319.6436944,,,,,,,,,,,,4319.6273069,4319.6436944,4319.6436944,4321.792121099999,,,,4321.792371400001,4321.8079359,4321.8079359,4321.8079359,4322.107822399999,4322.175173899999,,,,,up,2.141060500000094,None,space,0.35038410000015574,None,,,,,,,,,,,,P110,001,2024-11-19_08h50.20.436,posner_endo_new1,2024.2.4,60.03287400182413,2024-11-19 08h52.46.877981 +0000,
-0.31,0.005,35,35,0,down,2.6425126000012824,None,None,,,,,,,0,35,35,35,,,,,4322.1910085,,,,,,,,,,,,4322.175331300001,4322.1910085,4322.1910085,4324.8391319,,,,4324.8393696,4324.8549244999995,4324.8549244999995,4324.8549244999995,4325.1546784,4327.8520625,,,,4325.8538969,down,2.6425126000012824,None,None,,,,,,,,,,,,,,P110,001,2024-11-19_08h50.20.436,posner_endo_new1,2024.2.4,60.03287400182413,2024-11-19 08h52.46.877981 +0000,
-0.31,0.005,36,36,0,up,0.5886291000006167,None,None,,,,,,,0,36,36,36,,,,,4327.868473099999,,,,,,,,,,,,4327.8522201,4327.868473099999,4327.868473099999,4328.4687484999995,,,,4328.468989200001,4328.4845807,4328.4845807,4328.4845807,4328.7842697,4331.4816218,,,,4329.500193,up,0.5886291000006167,None,None,,,,,,,,,,,,,,P110,001,2024-11-19_08h50.20.436,posner_endo_new1,2024.2.4,60.03287400182413,2024-11-19 08h52.46.877981 +0000,
10,0.005,37,37,0,up,3.7035618999998405,None,None,,,,,,,0,37,37,37,,,,,4331.4981694,,,,,,,,,,,,4331.4817748000005,4331.4981694,4331.4981694,4335.2117698,,,,4335.212008500001,4335.227751099999,4335.227751099999,4335.227751099999,4335.5273875,4338.2249629,,,,4336.2434061,up,3.7035618999998405,None,None,,,,,,,,,,,,,,P110,001,2024-11-19_08h50.20.436,posner_endo_new1,2024.2.4,60.03287400182413,2024-11-19 08h52.46.877981 +0000,
0.005,0.31,38,38,0,up,1.4481954999992013,None,space,0.45053720000032627,None,,,,,0,38,38,38,,,,,4338.2412466000005,,,,,,,,,,,,4338.2251166999995,4338.2412466000005,4338.2412466000005,4339.6907808,,,,4339.6910238,4339.706526800001,4339.706526800001,4339.706526800001,4340.006440200001,4340.1733515,,,,,up,1.4481954999992013,None,space,0.45053720000032627,None,,,,,,,,,,,,P110,001,2024-11-19_08h50.20.436,posner_endo_new1,2024.2.4,60.03287400182413,2024-11-19 08h52.46.877981 +0000,
0.005,-0.31,39,39,0,down,3.5323857000003045,None,space,0.7553360999991128,None,,,,,0,39,39,39,,,,,4340.1892785,,,,,,,,,,,,4340.1735145,4340.1892785,4340.1892785,4343.736376700001,,,,4343.7366114,4343.7522414,4343.7522414,4343.7522414,4344.051961499999,4344.5188836,,,,,down,3.5323857000003045,None,space,0.7553360999991128,None,,,,,,,,,,,,P110,001,2024-11-19_08h50.20.436,posner_endo_new1,2024.2.4,60.03287400182413,2024-11-19 08h52.46.877981 +0000,
0.31,0.005,40,40,0,up,1.2583592000009958,None,None,,,,,,,0,40,40,40,,,,,4344.5348526,,,,,,,,,,,,4344.519044000001,4344.5348526,4344.5348526,4345.8008488,,,,4345.8010832,4345.816692,4345.816692,4345.816692,4346.1165439,4348.8142701,,,,4346.8158047,up,1.2583592000009958,None,None,,,,,,,,,,,,,,P110,001,2024-11-19_08h50.20.436,posner_endo_new1,2024.2.4,60.03287400182413,2024-11-19 08h52.46.877981 +0000,
-0.31,0.005,41,41,0,down,0.539272299998629,None,None,,,,,,,0,41,41,41,,,,,4348.8306125,,,,,,,,,,,,4348.8147690000005,4348.8306125,4348.8306125,4349.3823637000005,,,,4349.383099799999,4349.396906100001,4349.396906100001,4349.396906100001,4349.6964136999995,4352.393891399999,,,,4350.412341699999,down,0.539272299998629,None,None,,,,,,,,,,,,,,P110,001,2024-11-19_08h50.20.436,posner_endo_new1,2024.2.4,60.03287400182413,2024-11-19 08h52.46.877981 +0000,
0.31,0.005,42,42,0,down,1.91099419999955,None,None,,,,,,,0,42,42,42,,,,,4352.4103175,,,,,,,,,,,,4352.3943856000005,4352.4103175,4352.4103175,4354.327577599999,,,,4354.3283139,4354.341918599999,4354.341918599999,4354.341918599999,4354.6413675,4357.3388815,,,,4355.357305699999,down,1.91099419999955,None,None,,,,,,,,,,,,,,P110,001,2024-11-19_08h50.20.436,posner_endo_new1,2024.2.4,60.03287400182413,2024-11-19 08h52.46.877981 +0000,
10,0.005,43,43,0,down,2.8142354999999952,None,None,,,,,,,0,43,43,43,,,,,4357.3552623,,,,,,,,,,,,4357.3393612,4357.3552623,4357.3552623,4360.171801,,,,4360.1725602999995,4360.1859781,4360.1859781,4360.1859781,4360.4853905,4363.1829223,,,,4361.201315099999,down,2.8142354999999952,None,None,,,,,,,,,,,,,,P110,001,2024-11-19_08h50.20.436,posner_endo_new1,2024.2.4,60.03287400182413,2024-11-19 08h52.46.877981 +0000,
-0.31,0.005,44,44,0,down,3.4098706999993738,None,None,,,,,,,0,44,44,44,,,,,4363.199291999999,,,,,,,,,,,,4363.183423799999,4363.199291999999,4363.199291999999,4366.6148507,,,,4366.615583999999,4366.629364799999,4366.629364799999,4366.629364799999,4366.928808000001,4369.6263251,,,,4367.6447496,down,3.4098706999993738,None,None,,,,,,,,,,,,,,P110,001,2024-11-19_08h50.20.436,posner_endo_new1,2024.2.4,60.03287400182413,2024-11-19 08h52.46.877981 +0000,
0.005,0.31,45,45,0,down,1.1992510999989463,None,space,0.5213050000002113,None,,,,,0,45,45,45,,,,,4369.6426976,,,,,,,,,,,,4369.6268366,4369.6426976,4369.6426976,4370.8442442,,,,4370.8449963,4370.858407,4370.858407,4370.858407,4371.1578033999995,4371.393239700001,,,,,down,1.1992510999989463,None,space,0.5213050000002113,None,,,,,,,,,,,,P110,001,2024-11-19_08h50.20.436,posner_endo_new1,2024.2.4,60.03287400182413,2024-11-19 08h52.46.877981 +0000,
0.005,-0.31,46,46,0,up,2.985808299999917,None,space,0.38491290000092704,None,,,,,0,46,46,46,,,,,4371.4075519,,,,,,,,,,,,4371.393788199999,4371.4075519,4371.4075519,4374.406740799999,,,,4374.4074764,4374.421312099999,4374.421312099999,4374.421312099999,4374.7207992,4374.823141999999,,,,,up,2.985808299999917,None,space,0.38491290000092704,None,,,,,,,,,,,,P110,001,2024-11-19_08h50.20.436,posner_endo_new1,2024.2.4,60.03287400182413,2024-11-19 08h52.46.877981 +0000,
-0.31,0.005,47,47,0,down,3.036412299999938,None,space,0.4314769000011438,None,,,,,0,47,47,47,,,,,4374.837383599999,,,,,,,,,,,,4374.823670600001,4374.837383599999,4374.837383599999,4377.8867252,,,,4377.8874748,4377.9011355,4377.9011355,4377.9011355,4378.2006182000005,4378.336619899999,,,,,down,3.036412299999938,None,space,0.4314769000011438,None,,,,,,,,,,,,P110,001,2024-11-19_08h50.20.436,posner_endo_new1,2024.2.4,60.03287400182413,2024-11-19 08h52.46.877981 +0000,
0.005,-0.31,48,48,0,up,2.139109499999904,None,space,0.4346110000005865,None,,,,,0,48,48,48,,,,,4378.3505241,,,,,,,,,,,,4378.337167899999,4378.3505241,4378.3505241,4380.5005318,,,,4380.501269300001,4380.5151097,4380.5151097,4380.5151097,4380.814632199999,4380.9668212,,,,,up,2.139109499999904,None,space,0.4346110000005865,None,,,,,,,,,,,,P110,001,2024-11-19_08h50.20.436,posner_endo_new1,2024.2.4,60.03287400182413,2024-11-19 08h52.46.877981 +0000,
0.005,-0.31,49,49,0,down,3.7964657000011357,None,space,0.46922079999967536,None,,,,,0,49,49,49,,,,,4380.9811116,,,,,,,,,,,,4380.967366700001,4380.9811116,4380.9811116,4384.77988,,,,4384.7806394,4384.794140599999,4384.794140599999,4384.794140599999,4385.0935763,4385.279092500001,,,,,down,3.7964657000011357,None,space,0.46922079999967536,None,,,,,,,,,,,,P110,001,2024-11-19_08h50.20.436,posner_endo_new1,2024.2.4,60.03287400182413,2024-11-19 08h52.46.877981 +0000,
0.005,0.31,50,50,0,up,2.3248212999988027,None,space,0.49256310000055237,None,,,,,0,50,50,50,,,,,4385.2933579,,,,,,,,,,,,4385.279627100001,4385.2933579,4385.2933579,4387.6246754,,,,4387.6249255,4387.641354699999,4387.641354699999,4387.641354699999,4387.9408329,4388.1407566,,,,,up,2.3248212999988027,None,space,0.49256310000055237,None,,,,,,,,,,,,P110,001,2024-11-19_08h50.20.436,posner_endo_new1,2024.2.4,60.03287400182413,2024-11-19 08h52.46.877981 +0000,
0.31,0.005,51,51,0,down,3.076883799998541,None,None,,,,,,,0,51,51,51,,,,,4388.156988799999,,,,,,,,,,,,4388.140914899999,4388.156988799999,4388.156988799999,4391.237664099999,,,,4391.2379067,4391.2539486000005,4391.2539486000005,4391.2539486000005,4391.553464500001,4394.2509042,,,,4392.2693875,down,3.076883799998541,None,None,,,,,,,,,,,,,,P110,001,2024-11-19_08h50.20.436,posner_endo_new1,2024.2.4,60.03287400182413,2024-11-19 08h52.46.877981 +0000,
0.31,0.005,52,52,0,down,4.390418099999806,None,None,,,,,,,0,52,52,52,,,,,4394.267354199999,,,,,,,,,,,,4394.251061000001,4394.267354199999,4394.267354199999,4398.6634355999995,,,,4398.663674699999,4398.6795375,4398.6795375,4398.6795375,4398.9792290000005,4401.6764325,,,,4399.6951252,down,4.390418099999806,None,None,,,,,,,,,,,,,,P110,001,2024-11-19_08h50.20.436,posner_endo_new1,2024.2.4,60.03287400182413,2024-11-19 08h52.46.877981 +0000,
0.005,0.31,53,53,0,up,0.27617260000079114,None,space,0.5444113000012294,None,,,,,0,53,53,53,,,,,4401.6931251000005,,,,,,,,,,,,4401.6765934,4401.6931251000005,4401.6931251000005,4401.9769062,,,,4401.9771445999995,4401.9928683,4401.9928683,4401.9928683,4402.292376199999,4402.543175500001,,,,,up,0.27617260000079114,None,space,0.5444113000012294,None,,,,,,,,,,,,P110,001,2024-11-19_08h50.20.436,posner_endo_new1,2024.2.4,60.03287400182413,2024-11-19 08h52.46.877981 +0000,
-0.31,0.005,54,54,0,up,6.0114468000010675,None,None,,,,,,,0,54,54,54,,,,,4402.558878399999,,,,,,,,,,,,4402.5433307,4402.558878399999,4402.558878399999,4408.586738399999,,,,4408.5869791000005,4408.6027285,4408.6027285,4408.6027285,4408.9022841000005,4411.599813499999,,,,4409.601716900001,up,6.0114468000010675,None,None,,,,,,,,,,,,,,P110,001,2024-11-19_08h50.20.436,posner_endo_new1,2024.2.4,60.03287400182413,2024-11-19 08h52.46.877981 +0000,
10,0.005,55,55,0,down,0.8173043999995571,None,None,,,,,,,0,55,55,55,,,,,4411.616210099999,,,,,,,,,,,,4411.5999658,4411.616210099999,4411.616210099999,4412.4493822,,,,4412.449617800001,4412.465305600001,4412.465305600001,4412.465305600001,4412.7652495,4415.4621111,,,,4413.4809762,down,0.8173043999995571,None,None,,,,,,,,,,,,,,P110,001,2024-11-19_08h50.20.436,posner_endo_new1,2024.2.4,60.03287400182413,2024-11-19 08h52.46.877981 +0000,
0.31,0.005,56,56,0,down,2.0103156000004674,None,None,,,,,,,0,56,56,56,,,,,4415.479136,,,,,,,,,,,,4415.462265300001,4415.479136,4415.479136,4417.494355299999,,,,4417.494594899999,4417.5103039000005,4417.5103039000005,4417.5103039000005,4417.8098883,4420.507648999999,,,,4418.5257523,down,2.0103156000004674,None,None,,,,,,,,,,,,,,P110,001,2024-11-19_08h50.20.436,posner_endo_new1,2024.2.4,60.03287400182413,2024-11-19 08h52.46.877981 +0000,
0.005,0.31,57,57,0,down,2.036978899999667,None,space,0.42587060000005295,None,,,,,0,57,57,57,,,,,4420.523907000001,,,,,,,,,,,,4420.5078003,4420.523907000001,4420.523907000001,4422.5725327,,,,4422.5727683000005,4422.5884561,4422.5884561,4422.5884561,4422.888195899999,4423.022075700001,,,,,down,2.036978899999667,None,space,0.42587060000005295,None,,,,,,,,,,,,P110,001,2024-11-19_08h50.20.436,posner_endo_new1,2024.2.4,60.03287400182413,2024-11-19 08h52.46.877981 +0000,
-0.31,0.005,58,58,0,up,2.4519122000001516,None,None,,,,,,,0,58,58,58,,,,,4423.0378605999995,,,,,,,,,,,,4423.022236700001,4423.0378605999995,4423.0378605999995,4425.502788899999,,,,4425.503030600001,4425.518794400001,4425.518794400001,4425.518794400001,4425.818334400001,4428.5161625,,,,4426.534357799999,up,2.4519122000001516,None,None,,,,,,,,,,,,,,P110,001,2024-11-19_08h50.20.436,posner_endo_new1,2024.2.4,60.03287400182413,2024-11-19 08h52.46.877981 +0000,
-0.31,0.005,59,59,0,up,4.406144700000368,None,None,,,,,,,0,59,59,59,,,,,4428.5325006,,,,,,,,,,,,4428.516667100001,4428.5325006,4428.5325006,4432.9454463,,,,4432.9456850999995,4432.961046300001,4432.961046300001,4432.961046300001,4433.260812,4435.958107300001,,,,4433.9601901999995,up,4.406144700000368,None,None,,,,,,,,,,,,,,P110,001,2024-11-19_08h50.20.436,posner_endo_new1,2024.2.4,60.03287400182413,2024-11-19 08h52.46.877981 +0000,
,,,,,,,,,,,,,,,,,,,,,,,,,,,,,,,,,,,,,,,,,,,,,,,,,,,,,,,,,,4435.9582064999995,4435.9746512,4435.9746512,4495.931024199999,None,,,,,,,P110,001,2024-11-19_08h50.20.436,posner_endo_new1,2024.2.4,60.03287400182413,2024-11-19 08h52.46.877981 +0000,
,,,,,,,,,,,,,,,,,,,,,,,,,,,,,,,,4495.931102799999,4495.9468741,4498.9439019,,,,,,,,,,,,,,,,,,,,,,,,,,,,,,,,,,,P110,001,2024-11-19_08h50.20.436,posner_endo_new1,2024.2.4,60.03287400182413,2024-11-19 08h52.46.877981 +0000,
0.005,0.31,0,0,0,down,56.81797109999934,None,space,0.603544100000363,None,,,,,,,,,0,0,0,0,4498.968839200001,,,,,,,,,,,,4498.960235299999,4498.968839200001,4498.968839200001,4555.8034351999995,,,,4555.8038308,4555.8189938,4555.8189938,4555.8189938,4556.118703,4556.4361217000005,,,,,,,,,,,,,,,,down,56.81797109999934,None,space,0.603544100000363,None,P110,001,2024-11-19_08h50.20.436,posner_endo_new1,2024.2.4,60.03287400182413,2024-11-19 08h52.46.877981 +0000,
-0.31,0.005,1,1,0,up,2.7176240000007965,None,space,0.4292648000009649,None,,,,,,,,,0,1,1,1,4556.4516128,,,,,,,,,,,,4556.4363918,4556.4516128,4556.4516128,4559.1833427,,,,4559.1837251,4559.198791700001,4559.198791700001,4559.198791700001,4559.498383800001,4559.6329702,,,,,,,,,,,,,,,,up,2.7176240000007965,None,space,0.4292648000009649,None,P110,001,2024-11-19_08h50.20.436,posner_endo_new1,2024.2.4,60.03287400182413,2024-11-19 08h52.46.877981 +0000,
0.005,-0.31,2,2,0,down,2.9531151999999565,None,space,0.41647550000016054,None,,,,,,,,,0,2,2,2,4559.648130400001,,,,,,,,,,,,4559.6332434,4559.648130400001,4559.648130400001,4562.6130443,,,,4562.6134205,4562.6286122,4562.6286122,4562.6286122,4562.928313300001,4563.0462536,,,,,,,,,,,,,,,,down,2.9531151999999565,None,space,0.41647550000016054,None,P110,001,2024-11-19_08h50.20.436,posner_endo_new1,2024.2.4,60.03287400182413,2024-11-19 08h52.46.877981 +0000,
0.31,0.005,3,3,0,up,3.836352700000134,None,None,,,,,,,,,,,0,3,3,3,4563.0614769,,,,,,,,,,,,4563.046522799999,4563.0614769,4563.0614769,4566.9086448,,,,4566.9090216,4566.924255100001,4566.924255100001,4566.924255100001,4567.2239677,4569.9212967,,,,4567.923239,,,,,,,,,,,,up,3.836352700000134,None,None,,,P110,001,2024-11-19_08h50.20.436,posner_endo_new1,2024.2.4,60.03287400182413,2024-11-19 08h52.46.877981 +0000,
0.005,0.31,4,4,0,down,0.11163479999959236,None,space,0.36525190000065777,None,,,,,,,,,0,4,4,4,4569.9376889,,,,,,,,,,,,4569.921547,4569.9376889,4569.9376889,4570.0557063,,,,4570.0560809,4570.070989,4570.070989,4570.070989,4570.370767300001,4570.438454200001,,,,,,,,,,,,,,,,down,0.11163479999959236,None,space,0.36525190000065777,None,P110,001,2024-11-19_08h50.20.436,posner_endo_new1,2024.2.4,60.03287400182413,2024-11-19 08h52.46.877981 +0000,
0.005,-0.31,5,5,0,up,3.4833395999994536,None,space,0.34704339999916556,None,,,,,,,,,0,5,5,5,4570.4539845,,,,,,,,,,,,4570.4387222000005,4570.4539845,4570.4539845,4573.951649799999,,,,4573.9520257,4573.9670957,4573.9670957,4573.9670957,4574.266560399999,4574.3172543,,,,,,,,,,,,,,,,up,3.4833395999994536,None,space,0.34704339999916556,None,P110,001,2024-11-19_08h50.20.436,posner_endo_new1,2024.2.4,60.03287400182413,2024-11-19 08h52.46.877981 +0000,
-0.31,0.005,6,6,0,down,4.084053299999141,None,None,,,,,,,,,,,0,6,6,6,4574.333290099999,,,,,,,,,,,,4574.317402000001,4574.333290099999,4574.333290099999,4578.4298621,,,,4578.430097099999,4578.4456849,4578.4456849,4578.4456849,4578.745387499999,4581.4427479000005,,,,4579.4443749,,,,,,,,,,,,down,4.084053299999141,None,None,,,P110,001,2024-11-19_08h50.20.436,posner_endo_new1,2024.2.4,60.03287400182413,2024-11-19 08h52.46.877981 +0000,
0.005,0.31,7,7,0,down,4.4857833000005485,None,space,0.44400059999861696,None,,,,,,,,,0,7,7,7,4581.459412599999,,,,,,,,,,,,4581.442902700001,4581.459412599999,4581.459412599999,4585.955553399999,,,,4585.9557952,4585.9715887,4585.9715887,4585.9715887,4586.271137199999,4586.421598499999,,,,,,,,,,,,,,,,down,4.4857833000005485,None,space,0.44400059999861696,None,P110,001,2024-11-19_08h50.20.436,posner_endo_new1,2024.2.4,60.03287400182413,2024-11-19 08h52.46.877981 +0000,
0.31,0.005,8,8,0,up,1.8598645000001852,None,None,,,,,,,,,,,0,8,8,8,4586.4377121,,,,,,,,,,,,4586.4217573000005,4586.4377121,4586.4377121,4588.3032411,,,,4588.3034788,4588.3190847999995,4588.3190847999995,4588.3190847999995,4588.6185795,4591.316047300001,,,,4589.3179184,,,,,,,,,,,,up,1.8598645000001852,None,None,,,P110,001,2024-11-19_08h50.20.436,posner_endo_new1,2024.2.4,60.03287400182413,2024-11-19 08h52.46.877981 +0000,
10,0.005,9,9,0,down,0.3891003000007913,None,None,,,,,,,,,,,0,9,9,9,4591.332718,,,,,,,,,,,,4591.3162018,4591.332718,4591.332718,4591.732802500001,,,,4591.733043099999,4591.748905,4591.748905,4591.748905,4592.048680399999,4594.7457902999995,,,,4592.7644332,,,,,,,,,,,,down,0.3891003000007913,None,None,,,P110,001,2024-11-19_08h50.20.436,posner_endo_new1,2024.2.4,60.03287400182413,2024-11-19 08h52.46.877981 +0000,
0.31,0.005,10,10,0,up,0.3433766999987711,None,None,,,,,,,,,,,0,10,10,10,4594.7624815,,,,,,,,,,,,4594.745945999999,4594.7624815,4594.7624815,4595.1127562,,,,4595.112996100001,4595.1285188,4595.1285188,4595.1285188,4595.428416000001,4598.1257814,,,,4596.1276032000005,,,,,,,,,,,,up,0.3433766999987711,None,None,,,P110,001,2024-11-19_08h50.20.436,posner_endo_new1,2024.2.4,60.03287400182413,2024-11-19 08h52.46.877981 +0000,
0.005,0.31,11,11,0,down,0.46039380000001984,None,space,0.620039600000382,None,,,,,,,,,0,11,11,11,4598.142337699999,,,,,,,,,,,,4598.125936,4598.142337699999,4598.142337699999,4598.6093378000005,,,,4598.6095743000005,4598.6250886,4598.6250886,4598.6250886,4598.924626800001,4599.258418900001,,,,,,,,,,,,,,,,down,0.46039380000001984,None,space,0.620039600000382,None,P110,001,2024-11-19_08h50.20.436,posner_endo_new1,2024.2.4,60.03287400182413,2024-11-19 08h52.46.877981 +0000,
10,0.005,12,12,0,up,3.295442999999068,None,None,,,,,,,,,,,0,12,12,12,4599.2745507,,,,,,,,,,,,4599.2585769,4599.2745507,4599.2745507,4602.5718762,,,,4602.5721142,4602.5876971,4602.5876971,4602.5876971,4602.8873521000005,4605.5848554,,,,4603.5867619,,,,,,,,,,,,up,3.295442999999068,None,None,,,P110,001,2024-11-19_08h50.20.436,posner_endo_new1,2024.2.4,60.03287400182413,2024-11-19 08h52.46.877981 +0000,
-0.31,0.005,13,13,0,down,0.3765677000010328,None,space,0.35096530000009807,None,,,,,,,,,0,13,13,13,4605.601303400001,,,,,,,,,,,,4605.585015000001,4605.601303400001,4605.601303400001,4605.984959199999,,,,4605.985194299999,4606.0010685,4606.0010685,4606.0010685,4606.3006241,4606.3680018,,,,,,,,,,,,,,,,down,0.3765677000010328,None,space,0.35096530000009807,None,P110,001,2024-11-19_08h50.20.436,posner_endo_new1,2024.2.4,60.03287400182413,2024-11-19 08h52.46.877981 +0000,
0.31,0.005,14,14,0,up,3.9456527000002097,None,None,,,,,,,,,,,0,14,14,14,4606.383984,,,,,,,,,,,,4606.3681621,4606.383984,4606.383984,4610.3306149,,,,4610.330849600001,4610.3465646,4610.3465646,4610.3465646,4610.646281900001,4613.343565699999,,,,4611.3622115,,,,,,,,,,,,up,3.9456527000002097,None,None,,,P110,001,2024-11-19_08h50.20.436,posner_endo_new1,2024.2.4,60.03287400182413,2024-11-19 08h52.46.877981 +0000,
0.005,-0.31,15,15,0,down,0.5699863999998342,None,space,0.44761619999917457,None,,,,,,,,,0,15,15,15,4613.3601198,,,,,,,,,,,,4613.343729,4613.3601198,4613.3601198,4613.9436749,,,,4613.943922099999,4613.959430000001,4613.959430000001,4613.959430000001,4614.2592267,4614.409743,,,,,,,,,,,,,,,,down,0.5699863999998342,None,space,0.44761619999917457,None,P110,001,2024-11-19_08h50.20.436,posner_endo_new1,2024.2.4,60.03287400182413,2024-11-19 08h52.46.877981 +0000,
0.31,0.005,16,16,0,down,1.7763536000002205,None,None,,,,,,,,,,,0,16,16,16,4614.425607699999,,,,,,,,,,,,4614.409907900001,4614.425607699999,4614.425607699999,4616.207705999999,,,,4616.2079448,4616.223810899999,4616.223810899999,4616.223810899999,4616.523531999999,4619.220799500001,,,,4617.222863000001,,,,,,,,,,,,down,1.7763536000002205,None,None,,,P110,001,2024-11-19_08h50.20.436,posner_endo_new1,2024.2.4,60.03287400182413,2024-11-19 08h52.46.877981 +0000,
0.31,0.005,17,17,0,up,0.5085192000005918,None,None,,,,,,,,,,,0,17,17,17,4619.2374494,,,,,,,,,,,,4619.220953800001,4619.2374494,4619.2374494,4619.754286199999,,,,4619.7545202,4619.770258500001,4619.770258500001,4619.770258500001,4620.069806199999,4622.767291599999,,,,4620.785843899999,,,,,,,,,,,,up,0.5085192000005918,None,None,,,P110,001,2024-11-19_08h50.20.436,posner_endo_new1,2024.2.4,60.03287400182413,2024-11-19 08h52.46.877981 +0000,
0.005,-0.31,18,18,0,up,3.105841099999452,None,space,0.647821099999419,None,,,,,,,,,0,18,18,18,4622.7837533,,,,,,,,,,,,4622.7674517,4622.7837533,4622.7837533,4625.898048700001,,,,4625.8982884,4625.9139417999995,4625.9139417999995,4625.9139417999995,4626.2137060000005,4626.5642542000005,,,,,,,,,,,,,,,,up,3.105841099999452,None,space,0.647821099999419,None,P110,001,2024-11-19_08h50.20.436,posner_endo_new1,2024.2.4,60.03287400182413,2024-11-19 08h52.46.877981 +0000,
0.005,-0.31,19,19,0,up,4.949805299998843,None,space,0.457264300001043,None,,,,,,,,,0,19,19,19,4626.5799326,,,,,,,,,,,,4626.564413100001,4626.5799326,4626.5799326,4631.542227800001,,,,4631.5424645,4631.5581907,4631.5581907,4631.5581907,4631.857831699999,4632.025044,,,,,,,,,,,,,,,,up,4.949805299998843,None,space,0.457264300001043,None,P110,001,2024-11-19_08h50.20.436,posner_endo_new1,2024.2.4,60.03287400182413,2024-11-19 08h52.46.877981 +0000,
10,0.005,20,20,0,down,1.8259165999988909,None,None,,,,,,,,,,,0,20,20,20,4632.0409629000005,,,,,,,,,,,,4632.025201500001,4632.0409629000005,4632.0409629000005,4633.873327400001,,,,4633.8735641,4633.889104399999,4633.889104399999,4633.889104399999,4634.188840700001,4636.8861032,,,,4634.8880463000005,,,,,,,,,,,,down,1.8259165999988909,None,None,,,P110,001,2024-11-19_08h50.20.436,posner_endo_new1,2024.2.4,60.03287400182413,2024-11-19 08h52.46.877981 +0000,
0.005,-0.31,21,21,0,up,1.2587262999986706,None,space,0.38534269999945536,None,,,,,,,,,0,21,21,21,4636.902710799999,,,,,,,,,,,,4636.886259299999,4636.902710799999,4636.902710799999,4638.1687867,,,,4638.1690218,4638.184661200001,4638.184661200001,4638.184661200001,4638.484269799999,4638.5850197,,,,,,,,,,,,,,,,up,1.2587262999986706,None,space,0.38534269999945536,None,P110,001,2024-11-19_08h50.20.436,posner_endo_new1,2024.2.4,60.03287400182413,2024-11-19 08h52.46.877981 +0000,
0.005,0.31,22,22,0,down,2.2008720000012545,None,space,0.39048770000044897,None,,,,,,,,,0,22,22,22,4638.6008600000005,,,,,,,,,,,,4638.5851795,4638.6008600000005,4638.6008600000005,4640.8159192,,,,4640.816158400001,4640.832097299999,4640.832097299999,4640.832097299999,4641.1317168000005,4641.232483,,,,,,,,,,,,,,,,down,2.2008720000012545,None,space,0.39048770000044897,None,P110,001,2024-11-19_08h50.20.436,posner_endo_new1,2024.2.4,60.03287400182413,2024-11-19 08h52.46.877981 +0000,
0.31,0.005,23,23,0,up,2.425563400000101,None,None,,,,,,,,,,,0,23,23,23,4641.2482086,,,,,,,,,,,,4641.2326684,4641.2482086,4641.2482086,4643.6797248,,,,4643.679968,4643.6958306,4643.6958306,4643.6958306,4643.995455,4646.6927409,,,,4644.711339400001,,,,,,,,,,,,up,2.425563400000101,None,None,,,P110,001,2024-11-19_08h50.20.436,posner_endo_new1,2024.2.4,60.03287400182413,2024-11-19 08h52.46.877981 +0000,
-0.31,0.005,24,24,0,up,2.3806354999996984,None,None,,,,,,,,,,,0,24,24,24,4646.709396800001,,,,,,,,,,,,4646.6928979,4646.709396800001,4646.709396800001,4649.0910167,,,,4649.0912539,4649.106882,4649.106882,4649.106882,4649.406639499999,4652.103981800001,,,,4650.1059047,,,,,,,,,,,,up,2.3806354999996984,None,None,,,P110,001,2024-11-19_08h50.20.436,posner_endo_new1,2024.2.4,60.03287400182413,2024-11-19 08h52.46.877981 +0000,
10,0.005,25,25,0,down,0.44167490000108955,None,None,,,,,,,,,,,0,25,25,25,4652.1204435,,,,,,,,,,,,4652.1041401,4652.1204435,4652.1204435,4652.5707196,,,,4652.570960499999,4652.5864755,4652.5864755,4652.5864755,4652.886309899999,4655.583704999999,,,,4653.5856604,,,,,,,,,,,,down,0.44167490000108955,None,None,,,P110,001,2024-11-19_08h50.20.436,posner_endo_new1,2024.2.4,60.03287400182413,2024-11-19 08h52.46.877981 +0000,
0.005,0.31,26,26,0,up,0.625023799999326,None,space,0.5419932000004337,None,,,,,,,,,0,26,26,26,4655.600329999999,,,,,,,,,,,,4655.5838604,4655.600329999999,4655.600329999999,4656.2335871,,,,4656.233828099999,4656.249620500001,4656.249620500001,4656.249620500001,4656.549336800001,4656.7998013,,,,,,,,,,,,,,,,up,0.625023799999326,None,space,0.5419932000004337,None,P110,001,2024-11-19_08h50.20.436,posner_endo_new1,2024.2.4,60.03287400182413,2024-11-19 08h52.46.877981 +0000,
0.31,0.005,27,27,0,down,2.9374703000012232,None,None,,,,,,,,,,,0,27,27,27,4656.815663400001,,,,,,,,,,,,4656.7999602,4656.815663400001,4656.815663400001,4659.7633627,,,,4659.7635983,4659.7793055,4659.7793055,4659.7793055,4660.078952,4662.776400000001,,,,4660.7783638,,,,,,,,,,,,down,2.9374703000012232,None,None,,,P110,001,2024-11-19_08h50.20.436,posner_endo_new1,2024.2.4,60.03287400182413,2024-11-19 08h52.46.877981 +0000,
0.005,0.31,28,28,0,down,4.113231900000756,None,space,0.48424549999981537,None,,,,,,,,,0,28,28,28,4662.7928806,,,,,,,,,,,,4662.776556700001,4662.7928806,4662.7928806,4666.9227348,,,,4666.9229777,4666.9385907,4666.9385907,4666.9385907,4667.238341800001,4667.4388526,,,,,,,,,,,,,,,,down,4.113231900000756,None,space,0.48424549999981537,None,P110,001,2024-11-19_08h50.20.436,posner_endo_new1,2024.2.4,60.03287400182413,2024-11-19 08h52.46.877981 +0000,
10,0.005,29,29,0,up,2.050533699999505,None,None,,,,,,,,,,,0,29,29,29,4667.454832400001,,,,,,,,,,,,4667.439010800001,4667.454832400001,4667.454832400001,4669.5200616,,,,4669.5202974,4669.5361416,4669.5361416,4669.5361416,4669.8356485,4672.5331633000005,,,,4670.551686500001,,,,,,,,,,,,up,2.050533699999505,None,None,,,P110,001,2024-11-19_08h50.20.436,posner_endo_new1,2024.2.4,60.03287400182413,2024-11-19 08h52.46.877981 +0000,
0.005,-0.31,30,30,0,down,1.6760450999991008,None,space,0.43824010000025737,None,,,,,,,,,0,30,30,30,4672.5495226,,,,,,,,,,,,4672.533324599999,4672.5495226,4672.5495226,4674.2318841,,,,4674.2321187,4674.247810999999,4674.247810999999,4674.247810999999,4674.5475331,4674.6981956,,,,,,,,,,,,,,,,down,1.6760450999991008,None,space,0.43824010000025737,None,P110,001,2024-11-19_08h50.20.436,posner_endo_new1,2024.2.4,60.03287400182413,2024-11-19 08h52.46.877981 +0000,
0.31,0.005,31,31,0,up,3.1197683999998844,None,None,,,,,,,,,,,0,31,31,31,4674.7141011,,,,,,,,,,,,4674.698356700001,4674.7141011,4674.7141011,4677.8446786,,,,4677.8449132000005,4677.8607584,4677.8607584,4677.8607584,4678.1605798,4680.857855,,,,4678.8599813,,,,,,,,,,,,up,3.1197683999998844,None,None,,,P110,001,2024-11-19_08h50.20.436,posner_endo_new1,2024.2.4,60.03287400182413,2024-11-19 08h52.46.877981 +0000,
10,0.005,32,32,0,down,2.071643100000074,None,None,,,,,,,,,,,0,32,32,32,4680.8743832,,,,,,,,,,,,4680.8580091,4680.8743832,4680.8743832,4682.9563751000005,,,,4682.9566178000005,4682.9723275,4682.9723275,4682.9723275,4683.271959600001,4685.9693176,,,,4683.971261000001,,,,,,,,,,,,down,2.071643100000074,None,None,,,P110,001,2024-11-19_08h50.20.436,posner_endo_new1,2024.2.4,60.03287400182413,2024-11-19 08h52.46.877981 +0000,
-0.31,0.005,33,33,0,up,0.793285099998684,None,None,,,,,,,,,,,0,33,33,33,4685.9858492,,,,,,,,,,,,4685.969479199999,4685.9858492,4685.9858492,4686.7858519,,,,4686.7860872,4686.801658300001,4686.801658300001,4686.801658300001,4687.1014172,4689.798735300001,,,,4687.8006637,,,,,,,,,,,,up,0.793285099998684,None,None,,,P110,001,2024-11-19_08h50.20.436,posner_endo_new1,2024.2.4,60.03287400182413,2024-11-19 08h52.46.877981 +0000,
10,0.005,34,34,0,down,0.8425339999994321,None,None,,,,,,,,,,,0,34,34,34,4689.815294,,,,,,,,,,,,4689.798889399999,4689.815294,4689.815294,4690.664994299999,,,,4690.665229,4690.6810482,4690.6810482,4690.6810482,4690.980750799999,4693.678041699999,,,,4691.6801271,,,,,,,,,,,,down,0.8425339999994321,None,None,,,P110,001,2024-11-19_08h50.20.436,posner_endo_new1,2024.2.4,60.03287400182413,2024-11-19 08h52.46.877981 +0000,
0.005,-0.31,35,35,0,up,2.362892400000419,None,space,0.5346310000004451,None,,,,,,,,,0,35,35,35,4693.694436399999,,,,,,,,,,,,4693.6784222999995,4693.694436399999,4693.694436399999,4696.0601233,,,,4696.060501600001,4696.075563599999,4696.075563599999,4696.075563599999,4696.3751704999995,4696.6261333,,,,,,,,,,,,,,,,up,2.362892400000419,None,space,0.5346310000004451,None,P110,001,2024-11-19_08h50.20.436,posner_endo_new1,2024.2.4,60.03287400182413,2024-11-19 08h52.46.877981 +0000,
0.31,0.005,36,36,0,down,1.216937200000757,None,None,,,,,,,,,,,0,36,36,36,4696.6417406,,,,,,,,,,,,4696.626397100001,4696.6417406,4696.6417406,4697.8748715,,,,4697.875244700001,4697.890401999999,4697.890401999999,4697.890401999999,4698.1900602999995,4700.887413500001,,,,4698.9060991999995,,,,,,,,,,,,down,1.216937200000757,None,None,,,P110,001,2024-11-19_08h50.20.436,posner_endo_new1,2024.2.4,60.03287400182413,2024-11-19 08h52.46.877981 +0000,
10,0.005,37,37,0,up,0.2821166000012454,None,None,,,,,,,,,,,0,37,37,37,4700.903991200001,,,,,,,,,,,,4700.8876633,4700.903991200001,4700.903991200001,4701.1882645999995,,,,4701.1886460000005,4701.2035961,4701.2035961,4701.2035961,4701.5033702,4704.200716199999,,,,4702.202723599999,,,,,,,,,,,,up,0.2821166000012454,None,None,,,P110,001,2024-11-19_08h50.20.436,posner_endo_new1,2024.2.4,60.03287400182413,2024-11-19 08h52.46.877981 +0000,
10,0.005,38,38,0,up,4.232461900000999,None,None,,,,,,,,,,,0,38,38,38,4704.2172522,,,,,,,,,,,,4704.200965100001,4704.2172522,4704.2172522,4708.4640366,,,,4708.4644198999995,4708.479518100001,4708.479518100001,4708.479518100001,4708.7792708,4711.4766559,,,,4709.4785498,,,,,,,,,,,,up,4.232461900000999,None,None,,,P110,001,2024-11-19_08h50.20.436,posner_endo_new1,2024.2.4,60.03287400182413,2024-11-19 08h52.46.877981 +0000,
-0.31,0.005,39,39,0,down,2.260564499998509,None,None,,,,,,,,,,,0,39,39,39,4711.4931428,,,,,,,,,,,,4711.476905199999,4711.4931428,4711.4931428,4713.758845,,,,4713.7592188,4713.7741276,4713.7741276,4713.7741276,4714.073874399999,4716.771198799999,,,,4714.7897773,,,,,,,,,,,,down,2.260564499998509,None,None,,,P110,001,2024-11-19_08h50.20.436,posner_endo_new1,2024.2.4,60.03287400182413,2024-11-19 08h52.46.877981 +0000,
0.005,-0.31,40,40,0,up,0.9020649000012781,None,space,0.4556056000001263,None,,,,,,,,,0,40,40,40,4716.7878523,,,,,,,,,,,,4716.771456,4716.7878523,4716.7878523,4717.704647299999,,,,4717.7050263,4717.7201332,4717.7201332,4717.7201332,4718.0198556,4718.1874742,,,,,,,,,,,,,,,,up,0.9020649000012781,None,space,0.4556056000001263,None,P110,001,2024-11-19_08h50.20.436,posner_endo_new1,2024.2.4,60.03287400182413,2024-11-19 08h52.46.877981 +0000,
0.005,-0.31,41,41,0,down,1.3504947000001266,None,space,0.43536610000046494,None,,,,,,,,,0,41,41,41,4718.202928299999,,,,,,,,,,,,4718.187747399999,4718.202928299999,4718.202928299999,4719.5693544999995,,,,4719.5697246,4719.584894899999,4719.584894899999,4719.584894899999,4719.884564100001,4720.0355994,,,,,,,,,,,,,,,,down,1.3504947000001266,None,space,0.43536610000046494,None,P110,001,2024-11-19_08h50.20.436,posner_endo_new1,2024.2.4,60.03287400182413,2024-11-19 08h52.46.877981 +0000,
10,0.005,42,42,0,up,3.647650099999737,None,None,,,,,,,,,,,0,42,42,42,4720.0510732,,,,,,,,,,,,4720.0358715,4720.0510732,4720.0510732,4723.7150846,,,,4723.7154598,4723.730567799999,4723.730567799999,4723.730567799999,4724.030315,4726.727664399999,,,,4724.7295988999995,,,,,,,,,,,,up,3.647650099999737,None,None,,,P110,001,2024-11-19_08h50.20.436,posner_endo_new1,2024.2.4,60.03287400182413,2024-11-19 08h52.46.877981 +0000,
0.005,-0.31,43,43,0,down,0.9300017000005028,None,space,0.6279058999989502,None,,,,,,,,,0,43,43,43,4726.744192,,,,,,,,,,,,4726.7279149000005,4726.744192,4726.744192,4727.6778837,,,,4727.678259599999,4727.6932258,4727.6932258,4727.6932258,4727.9929429,4728.3270961,,,,,,,,,,,,,,,,down,0.9300017000005028,None,space,0.6279058999989502,None,P110,001,2024-11-19_08h50.20.436,posner_endo_new1,2024.2.4,60.03287400182413,2024-11-19 08h52.46.877981 +0000,
-0.31,0.005,44,44,0,up,4.491530799999964,None,None,,,,,,,,,,,0,44,44,44,4728.342540199999,,,,,,,,,,,,4728.3273699,4728.342540199999,4728.342540199999,4732.8392152,,,,4732.8395991,4732.8546121,4732.8546121,4732.8546121,4733.154388700001,4735.8517854,,,,4733.8536490999995,,,,,,,,,,,,up,4.491530799999964,None,None,,,P110,001,2024-11-19_08h50.20.436,posner_endo_new1,2024.2.4,60.03287400182413,2024-11-19 08h52.46.877981 +0000,
10,0.005,45,45,0,down,0.8220383999996557,None,None,,,,,,,,,,,0,45,45,45,4735.868227700001,,,,,,,,,,,,4735.8520396,4735.868227700001,4735.868227700001,4736.701885099999,,,,4736.702276100001,4736.717370099999,4736.717370099999,4736.717370099999,4737.017085699999,4739.714420799999,,,,4737.7330249999995,,,,,,,,,,,,down,0.8220383999996557,None,None,,,P110,001,2024-11-19_08h50.20.436,posner_endo_new1,2024.2.4,60.03287400182413,2024-11-19 08h52.46.877981 +0000,
0.005,0.31,46,46,0,up,2.1903775000009773,None,space,0.4718883999994432,None,,,,,,,,,0,46,46,46,4739.730916099999,,,,,,,,,,,,4739.7146729,4739.730916099999,4739.730916099999,4741.929889499999,,,,4741.930270000001,4741.9453005,4741.9453005,4741.9453005,4742.2449722,4742.429276700001,,,,,,,,,,,,,,,,up,2.1903775000009773,None,space,0.4718883999994432,None,P110,001,2024-11-19_08h50.20.436,posner_endo_new1,2024.2.4,60.03287400182413,2024-11-19 08h52.46.877981 +0000,
0.005,-0.31,47,47,0,down,3.7009493999994447,None,space,0.4152864000006957,None,,,,,,,,,0,47,47,47,4742.4448606999995,,,,,,,,,,,,4742.429551900001,4742.4448606999995,4742.4448606999995,4746.1587834,,,,4746.1591625,4746.174387200001,4746.174387200001,4746.174387200001,4746.4740236,4746.5917359,,,,,,,,,,,,,,,,down,3.7009493999994447,None,space,0.4152864000006957,None,P110,001,2024-11-19_08h50.20.436,posner_endo_new1,2024.2.4,60.03287400182413,2024-11-19 08h52.46.877981 +0000,
0.31,0.005,48,48,0,down,4.242976899999121,None,None,,,,,,,,,,,0,48,48,48,4746.607246899999,,,,,,,,,,,,4746.592004100001,4746.607246899999,4746.607246899999,4750.854316700001,,,,4750.8546893,4750.8696193,4750.8696193,4750.8696193,4751.169207700001,4753.8666316,,,,4751.8852197,,,,,,,,,,,,down,4.242976899999121,None,None,,,P110,001,2024-11-19_08h50.20.436,posner_endo_new1,2024.2.4,60.03287400182413,2024-11-19 08h52.46.877981 +0000,
-0.31,0.005,49,49,0,down,2.7590537999985827,None,space,0.6836561000000074,None,,,,,,,,,0,49,49,49,4753.883121299999,,,,,,,,,,,,4753.8668094,4753.883121299999,4753.883121299999,4756.6477997,,,,4756.6480668,4756.663501499999,4756.663501499999,4756.663501499999,4756.9632182000005,4757.363713999999,,,,,,,,,,,,,,,,down,2.7590537999985827,None,space,0.6836561000000074,None,P110,001,2024-11-19_08h50.20.436,posner_endo_new1,2024.2.4,60.03287400182413,2024-11-19 08h52.46.877981 +0000,
0.005,0.31,50,50,0,up,3.5188280000002123,None,space,0.4075654000007489,None,,,,,,,,,0,50,50,50,4757.3793771,,,,,,,,,,,,4757.363896700001,4757.3793771,4757.3793771,4760.909949000001,,,,4760.910220899999,4760.9259946,4760.9259946,4760.9259946,4761.2256469,4761.343008,,,,,,,,,,,,,,,,up,3.5188280000002123,None,space,0.4075654000007489,None,P110,001,2024-11-19_08h50.20.436,posner_endo_new1,2024.2.4,60.03287400182413,2024-11-19 08h52.46.877981 +0000,
0.005,0.31,51,51,0,down,2.1478994000008242,None,space,0.5207814999994298,None,,,,,,,,,0,51,51,51,4761.3587761,,,,,,,,,,,,4761.343191600001,4761.3587761,4761.3587761,4763.5077523,,,,4763.5080239,4763.5231208000005,4763.5231208000005,4763.5231208000005,4763.8229845000005,4764.056792199999,,,,,,,,,,,,,,,,down,2.1478994000008242,None,space,0.5207814999994298,None,P110,001,2024-11-19_08h50.20.436,posner_endo_new1,2024.2.4,60.03287400182413,2024-11-19 08h52.46.877981 +0000,
10,0.005,52,52,0,up,2.584681399999681,None,None,,,,,,,,,,,0,52,52,52,4764.0726295,,,,,,,,,,,,4764.056975400001,4764.0726295,4764.0726295,4766.670768599999,,,,4766.6710308,4766.686786099999,4766.686786099999,4766.686786099999,4766.986378899999,4769.6836442,,,,4767.7023957,,,,,,,,,,,,up,2.584681399999681,None,None,,,P110,001,2024-11-19_08h50.20.436,posner_endo_new1,2024.2.4,60.03287400182413,2024-11-19 08h52.46.877981 +0000,
-0.31,0.005,53,53,0,down,0.9339419000007183,None,None,,,,,,,,,,,0,53,53,53,4769.700244399999,,,,,,,,,,,,4769.6838197,4769.700244399999,4769.700244399999,4770.650016199999,,,,4770.6502819,4770.666044199999,4770.666044199999,4770.666044199999,4770.965559300001,4773.6629207000005,,,,4771.681541800001,,,,,,,,,,,,down,0.9339419000007183,None,None,,,P110,001,2024-11-19_08h50.20.436,posner_endo_new1,2024.2.4,60.03287400182413,2024-11-19 08h52.46.877981 +0000,
10,0.005,54,54,0,up,0.30613629999970726,None,None,,,,,,,,,,,0,54,54,54,4773.679723499999,,,,,,,,,,,,4773.663100600001,4773.679723499999,4773.679723499999,4773.996615599999,,,,4773.9968813,4774.012789599999,4774.012789599999,4774.012789599999,4774.3122551,4777.0096717,,,,4775.028349099999,,,,,,,,,,,,up,0.30613629999970726,None,None,,,P110,001,2024-11-19_08h50.20.436,posner_endo_new1,2024.2.4,60.03287400182413,2024-11-19 08h52.46.877981 +0000,
0.005,0.31,55,55,0,down,0.3361273999998957,None,space,0.6882731000005151,None,,,,,,,,,0,55,55,55,4777.0260942,,,,,,,,,,,,4777.009852200001,4777.0260942,4777.0260942,4777.3765048000005,,,,4777.376769500001,4777.3923834,4777.3923834,4777.3923834,4777.6921702,4778.092419799999,,,,,,,,,,,,,,,,down,0.3361273999998957,None,space,0.6882731000005151,None,P110,001,2024-11-19_08h50.20.436,posner_endo_new1,2024.2.4,60.03287400182413,2024-11-19 08h52.46.877981 +0000,
0.005,-0.31,56,56,0,up,3.50998669999899,None,space,0.4211219999997411,None,,,,,,,,,0,56,56,56,4778.1083502,,,,,,,,,,,,4778.092599899999,4778.1083502,4778.1083502,4781.622149499999,,,,4781.6224155,4781.6380376,4781.6380376,4781.6380376,4781.9377165999995,4782.0718222,,,,,,,,,,,,,,,,up,3.50998669999899,None,space,0.4211219999997411,None,P110,001,2024-11-19_08h50.20.436,posner_endo_new1,2024.2.4,60.03287400182413,2024-11-19 08h52.46.877981 +0000,
0.005,0.31,57,57,0,down,2.482396700001118,None,space,0.4873726000005263,None,,,,,,,,,0,57,57,57,4782.0876379,,,,,,,,,,,,4782.0720045,4782.0876379,4782.0876379,4784.5858393,,,,4784.5861057,4784.6016279,4784.6016279,4784.6016279,4784.9014384,4785.1021256,,,,,,,,,,,,,,,,down,2.482396700001118,None,space,0.4873726000005263,None,P110,001,2024-11-19_08h50.20.436,posner_endo_new1,2024.2.4,60.03287400182413,2024-11-19 08h52.46.877981 +0000,
-0.31,0.005,58,58,0,up,2.8520317999991676,None,None,,,,,,,,,,,0,58,58,58,4785.1179101,,,,,,,,,,,,4785.1023079999995,4785.1179101,4785.1179101,4787.982472,,,,4787.9827343,4787.9982053,4787.9982053,4787.9982053,4788.297933399999,4790.9953269,,,,4789.0137963,,,,,,,,,,,,up,2.8520317999991676,None,None,,,P110,001,2024-11-19_08h50.20.436,posner_endo_new1,2024.2.4,60.03287400182413,2024-11-19 08h52.46.877981 +0000,
-0.31,0.005,59,59,0,down,1.0382260000005772,None,None,,,,,,,,,,,0,59,59,59,4791.011537,,,,,,,,,,,,4790.9955085,4791.011537,4791.011537,4792.061425100001,,,,4792.0616926,4792.077275899999,4792.077275899999,4792.077275899999,4792.377209599999,4795.074373699999,,,,4793.0762789,,,,,,,,,,,,down,1.0382260000005772,None,None,,,P110,001,2024-11-19_08h50.20.436,posner_endo_new1,2024.2.4,60.03287400182413,2024-11-19 08h52.46.877981 +0000,
