target_y,target_x,thisN,thisTrialN,thisRepN,key_control2.keys,key_control2.rt,key_control2.duration,key_resp.keys,key_resp.rt,key_resp.duration,practice.thisRepN,practice.thisTrialN,practice.thisN,practice.thisIndex,session_1.thisRepN,session_1.thisTrialN,session_1.thisN,session_1.thisIndex,session_2.thisRepN,session_2.thisTrialN,session_2.thisN,session_2.thisIndex,thisRow.t,notes,instructions.started,instructions_txt.started,key_control.started,instructions.stopped,key_control.keys,key_control.rt,key_control.duration,ready.started,ready_txt.started,ready.stopped,fix.started,key_control2.started,fixation_cross.started,fix.stopped,practice.key_control2.keys,practice.key_control2.rt,practice.key_control2.duration,target.started,star.started,fixation_cross_target.started,key_resp.started,star.stopped,key_resp.stopped,target.stopped,practice.key_resp.keys,practice.key_resp.rt,practice.key_resp.duration,session_1.key_control2.keys,session_1.key_control2.rt,session_1.key_control2.duration,session_1.key_resp.keys,session_1.key_resp.rt,session_1.key_resp.duration,break_2.started,text.started,key_control3.started,break_2.stopped,key_control3.keys,session_2.key_control2.keys,session_2.key_control2.rt,session_2.key_control2.duration,session_2.key_resp.keys,session_2.key_resp.rt,session_2.key_resp.duration,participant,session,date,expName,psychopyVersion,frameRate,expStart,
,,,,,,,,,,,,,,,,,,,,,,,,,0.007632799999555573,0.020024200000079873,0.020024200000079873,1445.4775178,up,1445.4478489000003,None,,,,,,,,,,,,,,,,,,,,,,,,,,,,,,,,,,,,,,P113,001,2024-11-19_10h15.00.081,posner_endo_new1,2024.2.4,60.06283774090029,2024-11-19 10h29.28.518993 +0000,
,,,,,,,,,,,,,,,,,,,,,,,,,,,,,,,,1445.4775794999996,1445.4932291999994,1448.4905638,,,,,,,,,,,,,,,,,,,,,,,,,,,,,,,,,,,P113,001,2024-11-19_10h15.00.081,posner_endo_new1,2024.2.4,60.06283774090029,2024-11-19 10h29.28.518993 +0000,
0.005,10,0,0,0,down,2.1659686000002694,None,None,,,0,0,0,9,,,,,,,,,1448.5092237999997,,,,,,,,,,,,1448.4989568,1448.5092237999997,1448.5092237999997,1450.6886335999998,down,2.1659686000002694,None,1450.6888977999997,1450.7046572,1450.7046572,1450.7046572,1451.0043606,1451.7203377999995,1453.7015752999996,None,,,,,,,,,,,,,,,,,,,,P113,001,2024-11-19_10h15.00.081,posner_endo_new1,2024.2.4,60.06283774090029,2024-11-19 10h29.28.518993 +0000,
0.005,-0.31,1,1,0,down,1.3654544000000897,None,space,0.5167632000002413,None,0,1,1,5,,,,,,,,,1453.7181730000002,,,,,,,,,,,,1453.7017256999998,1453.7181730000002,1453.7181730000002,1455.1008118999998,down,1.3654544000000897,None,1455.1010514,1455.1168140999998,1455.1168140999998,1455.1168140999998,1455.4159871000002,,1455.6504218999999,space,0.5167632000002413,None,,,,,,,,,,,,,,,,,,P113,001,2024-11-19_10h15.00.081,posner_endo_new1,2024.2.4,60.06283774090029,2024-11-19 10h29.28.518993 +0000,
10,0.005,2,2,0,up,1.9530119000000923,None,None,,,0,2,2,4,,,,,,,,,1455.6659085000001,,,,,,,,,,,,1455.6505697000002,1455.6659085000001,1455.6659085000001,1457.6317259999996,up,1.9530119000000923,None,1457.6319631999995,1457.6473975999997,1457.6473975999997,1457.6473975999997,1457.9470534000002,1458.6461309999995,1460.6446262,None,,,,,,,,,,,,,,,,,,,,P113,001,2024-11-19_10h15.00.081,posner_endo_new1,2024.2.4,60.06283774090029,2024-11-19 10h29.28.518993 +0000,
0.005,0.31,3,3,0,up,1.7985956999991686,None,space,0.4231042000001253,None,0,3,3,8,,,,,,,,,1460.6607194999997,,,,,,,,,,,,1460.6447724,1460.6607194999997,1460.6607194999997,1462.4600237999994,up,1.7985956999991686,None,1462.4602632999995,1462.4758845999995,1462.4758845999995,1462.4758845999995,1462.7755209999996,,1462.9095914,space,0.4231042000001253,None,,,,,,,,,,,,,,,,,,P113,001,2024-11-19_10h15.00.081,posner_endo_new1,2024.2.4,60.06283774090029,2024-11-19 10h29.28.518993 +0000,
-0.31,0.005,4,4,0,down,1.7340604000000894,None,space,0.687007900000026,None,0,4,4,0,,,,,,,,,1462.9253465000002,,,,,,,,,,,,1462.9097411000002,1462.9253465000002,1462.9253465000002,1464.6743017999997,down,1.7340604000000894,None,1464.6745432999996,1464.6905405999996,1464.6905405999996,1464.6905405999996,1465.0065803999996,,1465.3903364999996,space,0.687007900000026,None,,,,,,,,,,,,,,,,,,P113,001,2024-11-19_10h15.00.081,posner_endo_new1,2024.2.4,60.06283774090029,2024-11-19 10h29.28.518993 +0000,
-0.31,0.005,5,5,0,up,1.5408631000000241,None,space,0.3724768000001859,None,0,5,5,2,,,,,,,,,1465.4062155000001,,,,,,,,,,,,1465.3904837999999,1465.4062155000001,1465.4062155000001,1466.9553391,up,1.5408631000000241,None,1466.9555762999998,1466.9711569,1466.9711569,1466.9711569,1467.2711319,,1467.3547989999997,space,0.3724768000001859,None,,,,,,,,,,,,,,,,,,P113,001,2024-11-19_10h15.00.081,posner_endo_new1,2024.2.4,60.06283774090029,2024-11-19 10h29.28.518993 +0000,
0.31,0.005,6,6,0,down,1.7931149999994886,None,space,0.38585860000057437,None,0,6,6,3,,,,,,,,,1467.3708467999995,,,,,,,,,,,,1467.3549558999994,1467.3708467999995,1467.3708467999995,1469.1696110000003,down,1.7931149999994886,None,1469.1698458,1469.1856375999996,1469.1856375999996,1469.1856375999996,1469.4856019999997,,1469.5859891,space,0.38585860000057437,None,,,,,,,,,,,,,,,,,,P113,001,2024-11-19_10h15.00.081,posner_endo_new1,2024.2.4,60.06283774090029,2024-11-19 10h29.28.518993 +0000,
0.005,0.31,7,7,0,up,1.5930299000001469,None,space,0.3632817999996405,None,0,7,7,6,,,,,,,,,1469.6019828999997,,,,,,,,,,,,1469.5861366999998,1469.6019828999997,1469.6019828999997,1471.2007624999997,up,1.5930299000001469,None,1471.2010012,1471.2170832000002,1471.2170832000002,1471.2170832000002,1471.5162890000001,,1471.5840028000002,space,0.3632817999996405,None,,,,,,,,,,,,,,,,,,P113,001,2024-11-19_10h15.00.081,posner_endo_new1,2024.2.4,60.06283774090029,2024-11-19 10h29.28.518993 +0000,
0.31,0.005,8,8,0,down,1.5469691000007515,None,space,0.3477990999999747,None,0,8,8,1,,,,,,,,,1471.600187,,,,,,,,,,,,1471.5841507999994,1471.600187,1471.600187,1473.1491593,down,1.5469691000007515,None,1473.1494025000002,1473.164981,1473.164981,1473.164981,1473.4646774000003,,1473.5148166,space,0.3477990999999747,None,,,,,,,,,,,,,,,,,,P113,001,2024-11-19_10h15.00.081,posner_endo_new1,2024.2.4,60.06283774090029,2024-11-19 10h29.28.518993 +0000,
0.005,-0.31,9,9,0,up,1.8724787000001015,None,space,0.23712429999977758,None,0,9,9,7,,,,,,,,,1473.5313195999997,,,,,,,,,,,,1473.5149653999997,1473.5313195999997,1473.5313195999997,1475.4134838,up,1.8724787000001015,None,1475.4137197999999,1475.4292477999998,1475.4292477999998,1475.4292477999998,,,1475.6798778000002,space,0.23712429999977758,None,,,,,,,,,,,,,,,,,,P113,001,2024-11-19_10h15.00.081,posner_endo_new1,2024.2.4,60.06283774090029,2024-11-19 10h29.28.518993 +0000,
,,,,,,,,,,,,,,,,,,,,,,,,,,,,,,,,1475.6799814999995,1475.6956203,1478.6926812000002,,,,,,,,,,,,,,,,,,,,,,,,,,,,,,,,,,,P113,001,2024-11-19_10h15.00.081,posner_endo_new1,2024.2.4,60.06283774090029,2024-11-19 10h29.28.518993 +0000,
-0.31,0.005,0,0,0,up,1.5958638000001883,None,space,0.5272716999998011,None,,,,,0,0,0,0,,,,,1478.7112535999995,,,,,,,,,,,,1478.7007863,1478.7112535999995,1478.7112535999995,1480.3087256,,,,1480.3089721999995,1480.3243249999996,1480.3243249999996,1480.3243249999996,1480.6242117000002,,1480.8579662000002,,,,up,1.5958638000001883,None,space,0.5272716999998011,None,,,,,,,,,,,,P113,001,2024-11-19_10h15.00.081,posner_endo_new1,2024.2.4,60.06283774090029,2024-11-19 10h29.28.518993 +0000,
0.005,0.31,1,1,0,down,1.55385699999988,None,space,0.4204053000003114,None,,,,,0,1,1,1,,,,,1480.8737374000002,,,,,,,,,,,,1480.8581219999996,1480.8737374000002,1480.8737374000002,1482.4394880999998,,,,1482.4397271999997,1482.4555528,1482.4555528,1482.4555528,1482.7550903000001,,1482.8890457999996,,,,down,1.55385699999988,None,space,0.4204053000003114,None,,,,,,,,,,,,P113,001,2024-11-19_10h15.00.081,posner_endo_new1,2024.2.4,60.06283774090029,2024-11-19 10h29.28.518993 +0000,
0.31,0.005,2,2,0,up,1.7466647000001103,None,space,0.32540829999925336,None,,,,,0,2,2,2,,,,,1482.9050435999998,,,,,,,,,,,,1482.889204,1482.9050435999998,1482.9050435999998,1484.6541141999996,,,,1484.6543542,1484.6698179999994,1484.6698179999994,1484.6698179999994,1484.9694958999999,,1485.0036565999999,,,,up,1.7466647000001103,None,space,0.32540829999925336,None,,,,,,,,,,,,P113,001,2024-11-19_10h15.00.081,posner_endo_new1,2024.2.4,60.06283774090029,2024-11-19 10h29.28.518993 +0000,
0.31,0.005,3,3,0,down,1.5435231999999814,None,space,0.35499479999998584,None,,,,,0,3,3,3,,,,,1485.0195840999995,,,,,,,,,,,,1485.0038114999998,1485.0195840999995,1485.0195840999995,1486.5687153999997,,,,1486.5689536999998,1486.5845123999998,1486.5845123999998,1486.5845123999998,1486.8842739000002,,1486.9515971,,,,down,1.5435231999999814,None,space,0.35499479999998584,None,,,,,,,,,,,,P113,001,2024-11-19_10h15.00.081,posner_endo_new1,2024.2.4,60.06283774090029,2024-11-19 10h29.28.518993 +0000,
-0.31,0.005,4,4,0,up,2.1153692999996565,None,None,,,,,,,0,4,4,4,,,,,1486.9674685999998,,,,,,,,,,,,1486.9517561000002,1486.9674685999998,1486.9674685999998,1489.0994781,,,,1489.0997164999999,1489.1153686999996,1489.1153686999996,1489.1153686999996,1489.4150816000001,1490.1143453999994,1492.1121697999997,,,,up,2.1153692999996565,None,None,,,,,,,,,,,,,,P113,001,2024-11-19_10h15.00.081,posner_endo_new1,2024.2.4,60.06283774090029,2024-11-19 10h29.28.518993 +0000,
0.005,-0.31,5,5,0,up,0.9229408000001058,None,space,0.26472610000018904,None,,,,,0,5,5,5,,,,,1492.1286306000002,,,,,,,,,,,,1492.1124804,1492.1286306000002,1492.1286306000002,1493.0624761999998,,,,1493.0629505999996,1493.0776682999995,1493.0776682999995,1493.0776682999995,,,1493.3458917999997,,,,up,0.9229408000001058,None,space,0.26472610000018904,None,,,,,,,,,,,,P113,001,2024-11-19_10h15.00.081,posner_endo_new1,2024.2.4,60.06283774090029,2024-11-19 10h29.28.518993 +0000,
0.005,-0.31,6,6,0,down,1.8429610000002867,None,space,0.3552419000006921,None,,,,,0,6,6,6,,,,,1493.3606981000003,,,,,,,,,,,,1493.3462387,1493.3606981000003,1493.3606981000003,1495.2103038999994,,,,1495.2107863,1495.2254618999996,1495.2254618999996,1495.2254618999996,1495.5251604999994,,1495.5931910999998,,,,down,1.8429610000002867,None,space,0.3552419000006921,None,,,,,,,,,,,,P113,001,2024-11-19_10h15.00.081,posner_endo_new1,2024.2.4,60.06283774090029,2024-11-19 10h29.28.518993 +0000,
10,0.005,7,7,0,up,1.8667206999998598,None,space,0.012632599999960803,None,,,,,0,7,7,7,,,,,1495.6084043,,,,,,,,,,,,1495.593524,1495.6084043,1495.6084043,1497.4913784999999,,,,1497.4918558999998,1497.5064688000002,1497.5064688000002,1497.5064688000002,,,1497.5246663999997,,,,up,1.8667206999998598,None,space,0.012632599999960803,None,,,,,,,,,,,,P113,001,2024-11-19_10h15.00.081,posner_endo_new1,2024.2.4,60.06283774090029,2024-11-19 10h29.28.518993 +0000,
-0.31,0.005,8,8,0,down,1.7196870999996463,None,space,0.41739789999974164,None,,,,,0,8,8,8,,,,,1497.5397672999998,,,,,,,,,,,,1497.5250084999998,1497.5397672999998,1497.5397672999998,1499.2727860999994,,,,1499.2732661,1499.2879834999994,1499.2879834999994,1499.2879834999994,1499.5876693999999,,1499.7224041,,,,down,1.7196870999996463,None,space,0.41739789999974164,None,,,,,,,,,,,,P113,001,2024-11-19_10h15.00.081,posner_endo_new1,2024.2.4,60.06283774090029,2024-11-19 10h29.28.518993 +0000,
0.005,0.31,9,9,0,up,1.7942689000001337,None,space,0.38422499999978754,None,,,,,0,9,9,9,,,,,1499.7375696,,,,,,,,,,,,1499.7227493999999,1499.7375696,1499.7375696,1501.5372710000001,,,,1501.5377571999998,1501.5523316999997,1501.5523316999997,1501.5523316999997,1501.8520248999994,,1501.9534175,,,,up,1.7942689000001337,None,space,0.38422499999978754,None,,,,,,,,,,,,P113,001,2024-11-19_10h15.00.081,posner_endo_new1,2024.2.4,60.06283774090029,2024-11-19 10h29.28.518993 +0000,
0.005,-0.31,10,10,0,down,1.5624359000003096,None,space,0.39055110000026616,None,,,,,0,10,10,10,,,,,1501.9685682999998,,,,,,,,,,,,1501.9537742000002,1501.9685682999998,1501.9685682999998,1503.5352569999995,,,,1503.5357355999995,1503.5502947999994,1503.5502947999994,1503.5502947999994,1503.8499776999997,,1503.9514146000001,,,,down,1.5624359000003096,None,space,0.39055110000026616,None,,,,,,,,,,,,P113,001,2024-11-19_10h15.00.081,posner_endo_new1,2024.2.4,60.06283774090029,2024-11-19 10h29.28.518993 +0000,
0.005,0.31,11,11,0,up,1.7485621000005267,None,space,0.30248570000003383,None,,,,,0,11,11,11,,,,,1503.9665287999997,,,,,,,,,,,,1503.9517486999994,1503.9665287999997,1503.9665287999997,1505.7165690000002,,,,1505.7170663999996,1505.73139,1505.73139,1505.73139,1506.0313465,,1506.0490594000003,,,,up,1.7485621000005267,None,space,0.30248570000003383,None,,,,,,,,,,,,P113,001,2024-11-19_10h15.00.081,posner_endo_new1,2024.2.4,60.06283774090029,2024-11-19 10h29.28.518993 +0000,
10,0.005,12,12,0,down,1.5704137000002447,None,None,,,,,,,0,12,12,12,,,,,1506.0647239,,,,,,,,,,,,1506.0492952999994,1506.0647239,1506.0647239,1507.6474208,,,,1507.6477564999996,1507.6629955999997,1507.6629955999997,1507.6629955999997,1507.9627875999995,1508.6620643999995,1510.6601738,,,,down,1.5704137000002447,None,None,,,,,,,,,,,,,,P113,001,2024-11-19_10h15.00.081,posner_endo_new1,2024.2.4,60.06283774090029,2024-11-19 10h29.28.518993 +0000,
0.31,0.005,13,13,0,down,1.2387369000007311,None,space,0.3525536999995893,None,,,,,0,13,13,13,,,,,1510.6766847,,,,,,,,,,,,1510.6603868000002,1510.6766847,1510.6766847,1511.9262848999997,,,,1511.9266195,1511.9419944,1511.9419944,1511.9419944,1512.2416058999997,,1512.3093494999994,,,,down,1.2387369000007311,None,space,0.3525536999995893,None,,,,,,,,,,,,P113,001,2024-11-19_10h15.00.081,posner_endo_new1,2024.2.4,60.06283774090029,2024-11-19 10h29.28.518993 +0000,
10,0.005,14,14,0,up,2.03081420000035,None,None,,,,,,,0,14,14,14,,,,,1512.3249698,,,,,,,,,,,,1512.3095793000002,1512.3249698,1512.3249698,1514.3572453999996,,,,1514.3575775999998,1514.3730174000002,1514.3730174000002,1514.3730174000002,1514.6725687999997,1515.3884548999995,1517.3701676,,,,up,2.03081420000035,None,None,,,,,,,,,,,,,,P113,001,2024-11-19_10h15.00.081,posner_endo_new1,2024.2.4,60.06283774090029,2024-11-19 10h29.28.518993 +0000,
-0.31,0.005,15,15,0,up,1.1934136999998373,None,space,0.4108702000003177,None,,,,,0,15,15,15,,,,,1517.3864268999996,,,,,,,,,,,,1517.3703827999998,1517.3864268999996,1517.3864268999996,1518.5863382999996,,,,1518.5866737999995,1518.6018316,1518.6018316,1518.6018316,1518.9015504999998,,1519.0191980999998,,,,up,1.1934136999998373,None,space,0.4108702000003177,None,,,,,,,,,,,,P113,001,2024-11-19_10h15.00.081,posner_endo_new1,2024.2.4,60.06283774090029,2024-11-19 10h29.28.518993 +0000,
0.005,-0.31,16,16,0,down,1.7763365000000704,None,space,0.442044899999928,None,,,,,0,16,16,16,,,,,1519.0346975000002,,,,,,,,,,,,1519.0194350000002,1519.0346975000002,1519.0346975000002,1520.8171624999995,,,,1520.8174924999994,1520.8329052999998,1520.8329052999998,1520.8329052999998,1521.1325618,,1521.2834649999995,,,,down,1.7763365000000704,None,space,0.442044899999928,None,,,,,,,,,,,,P113,001,2024-11-19_10h15.00.081,posner_endo_new1,2024.2.4,60.06283774090029,2024-11-19 10h29.28.518993 +0000,
0.005,0.31,17,17,0,up,1.816657700000178,None,space,0.364406699999563,None,,,,,0,17,17,17,,,,,1521.2990510999998,,,,,,,,,,,,1521.2836916999995,1521.2990510999998,1521.2990510999998,1523.1314966,,,,1523.1318326,1523.1471769,1523.1471769,1523.1471769,1523.4468993,,1523.5144762,,,,up,1.816657700000178,None,space,0.364406699999563,None,,,,,,,,,,,,P113,001,2024-11-19_10h15.00.081,posner_endo_new1,2024.2.4,60.06283774090029,2024-11-19 10h29.28.518993 +0000,
-0.31,0.005,18,18,0,down,1.5930507999992187,None,space,0.45507999999972526,None,,,,,0,18,18,18,,,,,1523.530146,,,,,,,,,,,,1523.5147146999998,1523.530146,1523.530146,1525.1295111,,,,1525.1298508,1525.1450992,1525.1450992,1525.1450992,1525.4447939000001,,1525.6123816999998,,,,down,1.5930507999992187,None,space,0.45507999999972526,None,,,,,,,,,,,,P113,001,2024-11-19_10h15.00.081,posner_endo_new1,2024.2.4,60.06283774090029,2024-11-19 10h29.28.518993 +0000,
10,0.005,19,19,0,up,1.9037075000005643,None,None,,,,,,,0,19,19,19,,,,,1525.6279507999998,,,,,,,,,,,,1525.6126069000002,1525.6279507999998,1525.6279507999998,1527.5436405,,,,1527.5439738999994,1527.5593996999996,1527.5593996999996,1527.5593996999996,1527.8590550999998,1528.5749988999996,1530.5564465999996,,,,up,1.9037075000005643,None,None,,,,,,,,,,,,,,P113,001,2024-11-19_10h15.00.081,posner_endo_new1,2024.2.4,60.06283774090029,2024-11-19 10h29.28.518993 +0000,
0.005,0.31,20,20,0,up,0.9820545000002312,None,space,0.43672439999954804,None,,,,,0,20,20,20,,,,,1530.5729247999998,,,,,,,,,,,,1530.5566626999998,1530.5729247999998,1530.5729247999998,1531.5563637999994,,,,1531.5566946999998,1531.5719847,1531.5719847,1531.5719847,1531.8716303,,1532.0224852000001,,,,up,0.9820545000002312,None,space,0.43672439999954804,None,,,,,,,,,,,,P113,001,2024-11-19_10h15.00.081,posner_endo_new1,2024.2.4,60.06283774090029,2024-11-19 10h29.28.518993 +0000,
0.005,-0.31,21,21,0,down,1.741209799999524,None,space,0.3353784999999334,None,,,,,0,21,21,21,,,,,1532.0382172,,,,,,,,,,,,1532.0227180000002,1532.0382172,1532.0382172,1533.7873308999997,,,,1533.7876664999994,1533.8029963,1533.8029963,1533.8029963,1534.1026788,,1534.1536746000002,,,,down,1.741209799999524,None,space,0.3353784999999334,None,,,,,,,,,,,,P113,001,2024-11-19_10h15.00.081,posner_endo_new1,2024.2.4,60.06283774090029,2024-11-19 10h29.28.518993 +0000,
0.005,0.31,22,22,0,up,1.9861140000002706,None,space,0.34135220000007394,None,,,,,0,22,22,22,,,,,1534.1692149,,,,,,,,,,,,1534.1539009999997,1534.1692149,1534.1692149,1536.1682119999996,,,,1536.1685449999995,1536.1839580999995,1536.1839580999995,1536.1839580999995,1536.4836821999997,,1536.5346150999994,,,,up,1.9861140000002706,None,space,0.34135220000007394,None,,,,,,,,,,,,P113,001,2024-11-19_10h15.00.081,posner_endo_new1,2024.2.4,60.06283774090029,2024-11-19 10h29.28.518993 +0000,
0.31,0.005,23,23,0,down,1.5097848999994312,None,space,0.4190171000000191,None,,,,,0,23,23,23,,,,,1536.5502435999997,,,,,,,,,,,,1536.5348408,1536.5502435999997,1536.5502435999997,1538.0664940999995,,,,1538.0668306999996,1538.0819256999994,1538.0819256999994,1538.0819256999994,1538.3819106,,1538.5158473000001,,,,down,1.5097848999994312,None,space,0.4190171000000191,None,,,,,,,,,,,,P113,001,2024-11-19_10h15.00.081,posner_endo_new1,2024.2.4,60.06283774090029,2024-11-19 10h29.28.518993 +0000,
0.005,0.31,24,24,0,up,1.839727500000663,None,space,0.33192369999960647,None,,,,,0,24,24,24,,,,,1538.5315541999998,,,,,,,,,,,,1538.5160789000001,1538.5315541999998,1538.5315541999998,1540.3806343999995,,,,1540.3809652999998,1540.3962493999998,1540.3962493999998,1540.3962493999998,1540.6959931000001,,1540.7301821,,,,up,1.839727500000663,None,space,0.33192369999960647,None,,,,,,,,,,,,P113,001,2024-11-19_10h15.00.081,posner_endo_new1,2024.2.4,60.06283774090029,2024-11-19 10h29.28.518993 +0000,
0.31,0.005,25,25,0,down,1.6258526000001439,None,space,0.3712722999998732,None,,,,,0,25,25,25,,,,,1540.7459068999997,,,,,,,,,,,,1540.7304189999995,1540.7459068999997,1540.7459068999997,1542.3787092000002,,,,1542.3790425999996,1542.3942701999995,1542.3942701999995,1542.3942701999995,1542.6938544999994,,1542.7782681999997,,,,down,1.6258526000001439,None,space,0.3712722999998732,None,,,,,,,,,,,,P113,001,2024-11-19_10h15.00.081,posner_endo_new1,2024.2.4,60.06283774090029,2024-11-19 10h29.28.518993 +0000,
10,0.005,26,26,0,up,2.0973539000005985,None,None,,,,,,,0,26,26,26,,,,,1542.7938359,,,,,,,,,,,,1542.7784984,1542.7938359,1542.7938359,1544.8928575,,,,1544.8931942,1544.9082738999996,1544.9082738999996,1544.9082738999996,1545.2080332999994,1545.9072568000001,1547.9052929999998,,,,up,2.0973539000005985,None,None,,,,,,,,,,,,,,P113,001,2024-11-19_10h15.00.081,posner_endo_new1,2024.2.4,60.06283774090029,2024-11-19 10h29.28.518993 +0000,
10,0.005,27,27,0,up,1.697715899999821,None,None,,,,,,,0,27,27,27,,,,,1547.9219530999999,,,,,,,,,,,,1547.9055147999998,1547.9219530999999,1547.9219530999999,1549.6213723,,,,1549.6217096999999,1549.6367387999999,1549.6367387999999,1549.6367387999999,1549.9365352999994,1550.6358181999994,1552.6340770999996,,,,up,1.697715899999821,None,None,,,,,,,,,,,,,,P113,001,2024-11-19_10h15.00.081,posner_endo_new1,2024.2.4,60.06283774090029,2024-11-19 10h29.28.518993 +0000,
0.005,-0.31,28,28,0,up,1.74513719999959,None,space,0.4721792000000278,None,,,,,0,28,28,28,,,,,1552.6503634,,,,,,,,,,,,1552.6342924,1552.6503634,1552.6503634,1554.3996447999998,,,,1554.3999775000002,1554.4153140999997,1554.4153140999997,1554.4153140999997,1554.7149731,,1554.8991919999999,,,,up,1.74513719999959,None,space,0.4721792000000278,None,,,,,,,,,,,,P113,001,2024-11-19_10h15.00.081,posner_endo_new1,2024.2.4,60.06283774090029,2024-11-19 10h29.28.518993 +0000,
0.31,0.005,29,29,0,down,1.7048247999991872,None,space,0.3521528000001126,None,,,,,0,29,29,29,,,,,1554.9147779999994,,,,,,,,,,,,1554.8994192,1554.9147779999994,1554.9147779999994,1556.6306513999998,,,,1556.6309827999994,1556.6463471999996,1556.6463471999996,1556.6463471999996,1556.9460651999998,,1557.0136404999994,,,,down,1.7048247999991872,None,space,0.3521528000001126,None,,,,,,,,,,,,P113,001,2024-11-19_10h15.00.081,posner_endo_new1,2024.2.4,60.06283774090029,2024-11-19 10h29.28.518993 +0000,
10,0.005,30,30,0,up,1.999522799999795,None,None,,,,,,,0,30,30,30,,,,,1557.0292455999997,,,,,,,,,,,,1557.0138658999995,1557.0292455999997,1557.0292455999997,1559.0448953999994,,,,1559.0452291000001,1559.0605631999997,1559.0605631999997,1559.0605631999997,1559.3603070999998,1560.0761301000002,1562.0575786,,,,up,1.999522799999795,None,None,,,,,,,,,,,,,,P113,001,2024-11-19_10h15.00.081,posner_endo_new1,2024.2.4,60.06283774090029,2024-11-19 10h29.28.518993 +0000,
0.31,0.005,31,31,0,up,0.8257923000001028,None,space,0.3135824999999386,None,,,,,0,31,31,31,,,,,1562.0740608999995,,,,,,,,,,,,1562.0577997999999,1562.0740608999995,1562.0740608999995,1562.9075930999998,,,,1562.9079309999997,1562.9232573999998,1562.9232573999998,1562.9232573999998,1563.2229261000002,,1563.2408317999998,,,,up,0.8257923000001028,None,space,0.3135824999999386,None,,,,,,,,,,,,P113,001,2024-11-19_10h15.00.081,posner_endo_new1,2024.2.4,60.06283774090029,2024-11-19 10h29.28.518993 +0000,
0.31,0.005,32,32,0,down,1.714873400000215,None,space,0.35824999999931606,None,,,,,0,32,32,32,,,,,1563.2562475999994,,,,,,,,,,,,1563.2410669,1563.2562475999994,1563.2562475999994,1564.9723740999998,,,,1564.9727063,1564.9877458,1564.9877458,1564.9877458,1565.2874723999994,,1565.3551224000003,,,,down,1.714873400000215,None,space,0.35824999999931606,None,,,,,,,,,,,,P113,001,2024-11-19_10h15.00.081,posner_endo_new1,2024.2.4,60.06283774090029,2024-11-19 10h29.28.518993 +0000,
10,0.005,33,33,0,up,1.9206877999995413,None,None,,,,,,,0,33,33,33,,,,,1565.3708207,,,,,,,,,,,,1565.355348,1565.3708207,1565.3708207,1567.3030837999995,,,,1567.3034208,1567.3187337999998,1567.3187337999998,1567.3187337999998,1567.6183946,1568.3343248,1570.3158094,,,,up,1.9206877999995413,None,None,,,,,,,,,,,,,,P113,001,2024-11-19_10h15.00.081,posner_endo_new1,2024.2.4,60.06283774090029,2024-11-19 10h29.28.518993 +0000,
0.005,-0.31,34,34,0,up,1.38352870000017,None,space,0.3812494000003426,None,,,,,0,34,34,34,,,,,1570.3322110999998,,,,,,,,,,,,1570.3160323000002,1570.3322110999998,1570.3322110999998,1571.7319093999995,,,,1571.7322394000003,1571.7475988999995,1571.7475988999995,1571.7475988999995,1572.0472935999996,,1572.1317064999994,,,,up,1.38352870000017,None,space,0.3812494000003426,None,,,,,,,,,,,,P113,001,2024-11-19_10h15.00.081,posner_endo_new1,2024.2.4,60.06283774090029,2024-11-19 10h29.28.518993 +0000,
-0.31,0.005,35,35,0,down,1.7359545999997863,None,space,0.3579167999996571,None,,,,,0,35,35,35,,,,,1572.1471178000002,,,,,,,,,,,,1572.1319371999998,1572.1471178000002,1572.1471178000002,1573.896358,,,,1573.8966892999997,1573.9119257000002,1573.9119257000002,1573.9119257000002,1574.2117192999995,,1574.2793789999996,,,,down,1.7359545999997863,None,space,0.3579167999996571,None,,,,,,,,,,,,P113,001,2024-11-19_10h15.00.081,posner_endo_new1,2024.2.4,60.06283774090029,2024-11-19 10h29.28.518993 +0000,
-0.31,0.005,36,36,0,up,2.028909399999975,None,space,0.32010540000010224,None,,,,,0,36,36,36,,,,,1574.2949686000002,,,,,,,,,,,,1574.2796069999995,1574.2949686000002,1574.2949686000002,1576.3272109999998,,,,1576.3275414999998,1576.3428165999994,1576.3428165999994,1576.3428165999994,1576.6425097000001,,1576.6769114999997,,,,up,2.028909399999975,None,space,0.32010540000010224,None,,,,,,,,,,,,P113,001,2024-11-19_10h15.00.081,posner_endo_new1,2024.2.4,60.06283774090029,2024-11-19 10h29.28.518993 +0000,
10,0.005,37,37,0,down,1.311029899999994,None,None,,,,,,,0,37,37,37,,,,,1576.6925347999995,,,,,,,,,,,,1576.6771380999999,1576.6925347999995,1576.6925347999995,1578.0088753,,,,1578.0092058999999,1578.0244861,1578.0244861,1578.0244861,1578.3242140000002,1579.0233707999996,1581.0213779999995,,,,down,1.311029899999994,None,None,,,,,,,,,,,,,,P113,001,2024-11-19_10h15.00.081,posner_endo_new1,2024.2.4,60.06283774090029,2024-11-19 10h29.28.518993 +0000,
0.005,0.31,38,38,0,down,1.6211702000000514,None,space,0.41968869999982417,None,,,,,0,38,38,38,,,,,1581.0381176,,,,,,,,,,,,1581.0215933,1581.0381176,1581.0381176,1582.6706920999995,,,,1582.6710248,1582.6863675999994,1582.6863675999994,1582.6863675999994,1582.9859937,,1583.1203429999996,,,,down,1.6211702000000514,None,space,0.41968869999982417,None,,,,,,,,,,,,P113,001,2024-11-19_10h15.00.081,posner_endo_new1,2024.2.4,60.06283774090029,2024-11-19 10h29.28.518993 +0000,
0.005,-0.31,39,39,0,up,1.771499400000721,None,space,0.3352856999999858,None,,,,,0,39,39,39,,,,,1583.1359186,,,,,,,,,,,,1583.1205683999997,1583.1359186,1583.1359186,1584.918423,,,,1584.9187550999995,1584.9340301000002,1584.9340301000002,1584.9340301000002,1585.2338684999995,,1585.2847149999998,,,,up,1.771499400000721,None,space,0.3352856999999858,None,,,,,,,,,,,,P113,001,2024-11-19_10h15.00.081,posner_endo_new1,2024.2.4,60.06283774090029,2024-11-19 10h29.28.518993 +0000,
0.31,0.005,40,40,0,down,1.8555078999997932,None,space,0.30701260000023467,None,,,,,0,40,40,40,,,,,1585.3003589999998,,,,,,,,,,,,1585.2849430999995,1585.3003589999998,1585.3003589999998,1587.1661538999997,,,,1587.1664874999997,1587.1817366999994,1587.1817366999994,1587.1817366999994,1587.4814349999997,,1587.4990693999998,,,,down,1.8555078999997932,None,space,0.30701260000023467,None,,,,,,,,,,,,P113,001,2024-11-19_10h15.00.081,posner_endo_new1,2024.2.4,60.06283774090029,2024-11-19 10h29.28.518993 +0000,
-0.31,0.005,41,41,0,up,1.9682922000001781,None,space,0.3493423999998413,None,,,,,0,41,41,41,,,,,1587.5147258999996,,,,,,,,,,,,1587.4993046999998,1587.5147258999996,1587.5147258999996,1589.4971887000002,,,,1589.4975204000002,1589.5127198999999,1589.5127198999999,1589.5127198999999,1589.8124050999995,,1589.8636004,,,,up,1.9682922000001781,None,space,0.3493423999998413,None,,,,,,,,,,,,P113,001,2024-11-19_10h15.00.081,posner_endo_new1,2024.2.4,60.06283774090029,2024-11-19 10h29.28.518993 +0000,
0.31,0.005,42,42,0,down,1.6684599000000162,None,space,0.41822449999926903,None,,,,,0,42,42,42,,,,,1589.878971,,,,,,,,,,,,1589.8638239000002,1589.878971,1589.878971,1591.5616584999998,,,,1591.561995,1591.5771715,1591.5771715,1591.5771715,1591.8770146999996,,1592.0111971999995,,,,down,1.6684599000000162,None,space,0.41822449999926903,None,,,,,,,,,,,,P113,001,2024-11-19_10h15.00.081,posner_endo_new1,2024.2.4,60.06283774090029,2024-11-19 10h29.28.518993 +0000,
10,0.005,43,43,0,up,1.897177300000294,None,None,,,,,,,0,43,43,43,,,,,1592.0267396999998,,,,,,,,,,,,1592.0114328999998,1592.0267396999998,1592.0267396999998,1593.9259796999995,,,,1593.9263108999994,1593.9415385000002,1593.9415385000002,1593.9415385000002,1594.2412427999998,1594.9572017,1596.9385926999994,,,,up,1.897177300000294,None,None,,,,,,,,,,,,,,P113,001,2024-11-19_10h15.00.081,posner_endo_new1,2024.2.4,60.06283774090029,2024-11-19 10h29.28.518993 +0000,
-0.31,0.005,44,44,0,up,1.7130536000004213,None,space,0.3442899000001489,None,,,,,0,44,44,44,,,,,1596.9550635999994,,,,,,,,,,,,1596.9388078000002,1596.9550635999994,1596.9550635999994,1598.6711592000001,,,,1598.6714956999995,1598.6866711000002,1598.6866711000002,1598.6866711000002,1598.986358,,1599.0373742000002,,,,up,1.7130536000004213,None,space,0.3442899000001489,None,,,,,,,,,,,,P113,001,2024-11-19_10h15.00.081,posner_endo_new1,2024.2.4,60.06283774090029,2024-11-19 10h29.28.518993 +0000,
0.005,0.31,45,45,0,down,1.4068070999992415,None,space,0.4338514999999461,None,,,,,0,45,45,45,,,,,1599.0529534999996,,,,,,,,,,,,1599.0376004,1599.0529534999996,1599.0529534999996,1600.4690406999998,,,,1600.4693809999999,1600.4848502999994,1600.4848502999994,1600.4848502999994,1600.7845437999995,,1600.9355095,,,,down,1.4068070999992415,None,space,0.4338514999999461,None,,,,,,,,,,,,P113,001,2024-11-19_10h15.00.081,posner_endo_new1,2024.2.4,60.06283774090029,2024-11-19 10h29.28.518993 +0000,
0.005,-0.31,46,46,0,up,1.9162044000004244,None,space,0.2870546000003742,None,,,,,0,46,46,46,,,,,1600.9509049999997,,,,,,,,,,,,1600.93574,1600.9509049999997,1600.9509049999997,1602.8834175000002,,,,1602.8837494999998,1602.8990029999995,1602.8990029999995,1602.8990029999995,1603.198714,,1603.1998283000003,,,,up,1.9162044000004244,None,space,0.2870546000003742,None,,,,,,,,,,,,P113,001,2024-11-19_10h15.00.081,posner_endo_new1,2024.2.4,60.06283774090029,2024-11-19 10h29.28.518993 +0000,
-0.31,0.005,47,47,0,down,1.4841519000001426,None,space,0.4327698999995846,None,,,,,0,47,47,47,,,,,1603.2153367,,,,,,,,,,,,1603.2000512999994,1603.2153367,1603.2153367,1604.7148986000002,,,,1604.7152314999994,1604.7305464,1604.7305464,1604.7305464,1605.0301601,,1605.1646412999999,,,,down,1.4841519000001426,None,space,0.4327698999995846,None,,,,,,,,,,,,P113,001,2024-11-19_10h15.00.081,posner_endo_new1,2024.2.4,60.06283774090029,2024-11-19 10h29.28.518993 +0000,
0.005,-0.31,48,48,0,up,2.0876852000001236,None,space,0.3082291000000623,None,,,,,0,48,48,48,,,,,1605.1799929999997,,,,,,,,,,,,1605.1648644999996,1605.1799929999997,1605.1799929999997,1607.2788725999999,,,,1607.2792103000002,1607.2944418999996,1607.2944418999996,1607.2944418999996,1607.5942678000001,,1607.6118549000003,,,,up,2.0876852000001236,None,space,0.3082291000000623,None,,,,,,,,,,,,P113,001,2024-11-19_10h15.00.081,posner_endo_new1,2024.2.4,60.06283774090029,2024-11-19 10h29.28.518993 +0000,
0.005,-0.31,49,49,0,down,1.5042201999995086,None,space,0.3943810000000667,None,,,,,0,49,49,49,,,,,1607.6274607999994,,,,,,,,,,,,1607.6120824,1607.6274607999994,1607.6274607999994,1609.1435936999997,,,,1609.1439335999994,1609.1592634999997,1609.1592634999997,1609.1592634999997,1609.4589968999999,,1609.5598814999994,,,,down,1.5042201999995086,None,space,0.3943810000000667,None,,,,,,,,,,,,P113,001,2024-11-19_10h15.00.081,posner_endo_new1,2024.2.4,60.06283774090029,2024-11-19 10h29.28.518993 +0000,
0.005,0.31,50,50,0,up,1.8368273999994926,None,space,0.27393929999925604,None,,,,,0,50,50,50,,,,,1609.5754326999995,,,,,,,,,,,,1609.5601213,1609.5754326999995,1609.5754326999995,1611.4246870999996,,,,1611.4250186999998,1611.4402887999995,1611.4402887999995,1611.4402887999995,1611.7400907,,1611.7246543,,,,up,1.8368273999994926,None,space,0.27393929999925604,None,,,,,,,,,,,,P113,001,2024-11-19_10h15.00.081,posner_endo_new1,2024.2.4,60.06283774090029,2024-11-19 10h29.28.518993 +0000,
0.31,0.005,51,51,0,down,1.5989254999994955,None,space,0.4071475000000646,None,,,,,0,51,51,51,,,,,1611.7400907,,,,,,,,,,,,1611.7248751999996,1611.7400907,1611.7400907,1613.3560429999998,,,,1613.3563754999996,1613.3716237999997,1613.3716237999997,1613.3716237999997,1613.6713135999998,,1613.7890671999994,,,,down,1.5989254999994955,None,space,0.4071475000000646,None,,,,,,,,,,,,P113,001,2024-11-19_10h15.00.081,posner_endo_new1,2024.2.4,60.06283774090029,2024-11-19 10h29.28.518993 +0000,
0.31,0.005,52,52,0,up,1.838810100000046,None,space,0.3278707999998005,None,,,,,0,52,52,52,,,,,1613.8045145999995,,,,,,,,,,,,1613.7892998999996,1613.8045145999995,1613.8045145999995,1615.6536298,,,,1615.6539599999996,1615.6693206999998,1615.6693206999998,1615.6693206999998,1615.9690443,,1616.0034183999996,,,,up,1.838810100000046,None,space,0.3278707999998005,None,,,,,,,,,,,,P113,001,2024-11-19_10h15.00.081,posner_endo_new1,2024.2.4,60.06283774090029,2024-11-19 10h29.28.518993 +0000,
0.005,0.31,53,53,0,down,1.544963800000005,None,space,0.6398669000000154,None,,,,,0,53,53,53,,,,,1616.018956,,,,,,,,,,,,1616.0036442,1616.018956,1616.018956,1617.5684801999996,,,,1617.5688118999997,1617.5840257999998,1617.5840257999998,1617.5840257999998,1617.8837896999994,,1618.2343541999999,,,,down,1.544963800000005,None,space,0.6398669000000154,None,,,,,,,,,,,,P113,001,2024-11-19_10h15.00.081,posner_endo_new1,2024.2.4,60.06283774090029,2024-11-19 10h29.28.518993 +0000,
-0.31,0.005,54,54,0,up,1.689533300000221,None,space,0.3604602999994313,None,,,,,0,54,54,54,,,,,1618.2500099999997,,,,,,,,,,,,1618.2345908999996,1618.2500099999997,1618.2500099999997,1619.9493511,,,,1619.9496871000001,1619.9648339999994,1619.9648339999994,1619.9648339999994,1620.2646589999995,,1620.3322380999998,,,,up,1.689533300000221,None,space,0.3604602999994313,None,,,,,,,,,,,,P113,001,2024-11-19_10h15.00.081,posner_endo_new1,2024.2.4,60.06283774090029,2024-11-19 10h29.28.518993 +0000,
10,0.005,55,55,0,down,1.4881267000000662,None,None,,,,,,,0,55,55,55,,,,,1620.3479342,,,,,,,,,,,,1620.3324660999997,1620.3479342,1620.3479342,1621.8489080999998,,,,1621.8496423999995,1621.8633828000002,1621.8633828000002,1621.8633828000002,1622.1629305999995,1622.8788458,1624.8604589999995,,,,down,1.4881267000000662,None,None,,,,,,,,,,,,,,P113,001,2024-11-19_10h15.00.081,posner_endo_new1,2024.2.4,60.06283774090029,2024-11-19 10h29.28.518993 +0000,
0.31,0.005,56,56,0,down,0.8946859000006953,None,space,0.37844290000066394,None,,,,,0,56,56,56,,,,,1624.8767701999996,,,,,,,,,,,,1624.8610079,1624.8767701999996,1624.8767701999996,1625.7784862999997,,,,1625.7792222999997,1625.7927860999998,1625.7927860999998,1625.7927860999998,1626.0922198999997,,1626.1781264,,,,down,0.8946859000006953,None,space,0.37844290000066394,None,,,,,,,,,,,,P113,001,2024-11-19_10h15.00.081,posner_endo_new1,2024.2.4,60.06283774090029,2024-11-19 10h29.28.518993 +0000,
0.005,0.31,57,57,0,up,1.9630999000000884,None,space,0.3054351000000679,None,,,,,0,57,57,57,,,,,1626.1921538999995,,,,,,,,,,,,1626.1786553000002,1626.1921538999995,1626.1921538999995,1628.1594956,,,,1628.1602634,1628.1737089999997,1628.1737089999997,1628.1737089999997,1628.4731744,,1628.492123,,,,up,1.9630999000000884,None,space,0.3054351000000679,None,,,,,,,,,,,,P113,001,2024-11-19_10h15.00.081,posner_endo_new1,2024.2.4,60.06283774090029,2024-11-19 10h29.28.518993 +0000,
-0.31,0.005,58,58,0,down,1.6574953999997888,None,space,0.3944470000005822,None,,,,,0,58,58,58,,,,,1628.5064395999998,,,,,,,,,,,,1628.4926570999996,1628.5064395999998,1628.5064395999998,1630.173812,,,,1630.1745460000002,1630.1882125000002,1630.1882125000002,1630.1882125000002,1630.4877325999996,,1630.5899816,,,,down,1.6574953999997888,None,space,0.3944470000005822,None,,,,,,,,,,,,P113,001,2024-11-19_10h15.00.081,posner_endo_new1,2024.2.4,60.06283774090029,2024-11-19 10h29.28.518993 +0000,
-0.31,0.005,59,59,0,up,1.5029711999995925,None,space,0.4547480999999607,None,,,,,0,59,59,59,,,,,1630.6042990999995,,,,,,,,,,,,1630.5905199,1630.6042990999995,1630.6042990999995,1632.1217041,,,,1632.1224427999996,1632.1362422000002,1632.1362422000002,1632.1362422000002,1632.4357626,,1632.6047325999998,,,,up,1.5029711999995925,None,space,0.4547480999999607,None,,,,,,,,,,,,P113,001,2024-11-19_10h15.00.081,posner_endo_new1,2024.2.4,60.06283774090029,2024-11-19 10h29.28.518993 +0000,
,,,,,,,,,,,,,,,,,,,,,,,,,,,,,,,,,,,,,,,,,,,,,,,,,,,,,,,,,,1632.6050834999996,1632.6209271999996,1632.6209271999996,1692.5928521999995,None,,,,,,,P113,001,2024-11-19_10h15.00.081,posner_endo_new1,2024.2.4,60.06283774090029,2024-11-19 10h29.28.518993 +0000,
,,,,,,,,,,,,,,,,,,,,,,,,,,,,,,,,1692.5930030999998,1692.6076107999997,1695.6047747000002,,,,,,,,,,,,,,,,,,,,,,,,,,,,,,,,,,,P113,001,2024-11-19_10h15.00.081,posner_endo_new1,2024.2.4,60.06283774090029,2024-11-19 10h29.28.518993 +0000,
0.005,0.31,0,0,0,down,2.519615899999735,None,space,0.3664410000001226,None,,,,,,,,,0,0,0,0,1695.6437559999995,,,,,,,,,,,,1695.6352405999996,1695.6437559999995,1695.6437559999995,1698.1698679,,,,1698.1703812999995,1698.1846878999995,1698.1846878999995,1698.1846878999995,1698.4843941999998,,1698.5527106999998,,,,,,,,,,,,,,,down,2.519615899999735,None,space,0.3664410000001226,None,P113,001,2024-11-19_10h15.00.081,posner_endo_new1,2024.2.4,60.06283774090029,2024-11-19 10h29.28.518993 +0000,
-0.31,0.005,1,1,0,up,1.8518110000004526,None,space,0.38214700000025914,None,,,,,,,,,0,1,1,1,1698.5676271000002,,,,,,,,,,,,1698.5530567999995,1698.5676271000002,1698.5676271000002,1700.4338779,,,,1700.4343761,1700.4490414000002,1700.4490414000002,1700.4490414000002,1700.7487341999995,,1700.8336680000002,,,,,,,,,,,,,,,up,1.8518110000004526,None,space,0.38214700000025914,None,P113,001,2024-11-19_10h15.00.081,posner_endo_new1,2024.2.4,60.06283774090029,2024-11-19 10h29.28.518993 +0000,
0.005,-0.31,2,2,0,down,1.5229380000000674,None,space,0.32837560000007215,None,,,,,,,,,0,2,2,2,1700.8486266,,,,,,,,,,,,1700.8340080999997,1700.8486266,1700.8486266,1702.3820225,,,,1702.3825035999998,1702.3970548999996,1702.3970548999996,1702.3970548999996,1702.6967451,,1702.7317917,,,,,,,,,,,,,,,down,1.5229380000000674,None,space,0.32837560000007215,None,P113,001,2024-11-19_10h15.00.081,posner_endo_new1,2024.2.4,60.06283774090029,2024-11-19 10h29.28.518993 +0000,
0.31,0.005,3,3,0,up,1.752414200000203,None,space,0.3224847999999838,None,,,,,,,,,0,3,3,3,1702.7467167999994,,,,,,,,,,,,1702.7321307000002,1702.7467167999994,1702.7467167999994,1704.5124822999996,,,,1704.5127126999996,1704.5287023,1704.5287023,1704.5287023,1704.8284361999995,,1704.8627554999994,,,,,,,,,,,,,,,up,1.752414200000203,None,space,0.3224847999999838,None,P113,001,2024-11-19_10h15.00.081,posner_endo_new1,2024.2.4,60.06283774090029,2024-11-19 10h29.28.518993 +0000,
0.005,0.31,4,4,0,down,1.2779749000001175,None,None,,,,,,,,,,,0,4,4,4,1704.8776540999997,,,,,,,,,,,,1704.8629119999996,1704.8776540999997,1704.8776540999997,1706.1608005999997,,,,1706.1610387,1706.1767247999996,1706.1767247999996,1706.1767247999996,1706.4764121999997,1707.1757665999994,1709.1740607000002,,,,,,,,,,,,,,,down,1.2779749000001175,None,None,,,P113,001,2024-11-19_10h15.00.081,posner_endo_new1,2024.2.4,60.06283774090029,2024-11-19 10h29.28.518993 +0000,
0.005,-0.31,5,5,0,down,0.7736959999992905,None,space,0.2981387999998333,None,,,,,,,,,0,5,5,5,1709.1903531999997,,,,,,,,,,,,1709.1742145999997,1709.1903531999997,1709.1903531999997,1709.9732271000003,,,,1709.973478,1709.9896110999998,1709.9896110999998,1709.9896110999998,1710.2893735999996,,1710.2901949999996,,,,,,,,,,,,,,,down,0.7736959999992905,None,space,0.2981387999998333,None,P113,001,2024-11-19_10h15.00.081,posner_endo_new1,2024.2.4,60.06283774090029,2024-11-19 10h29.28.518993 +0000,
-0.31,0.005,6,6,0,up,1.849648100000195,None,space,0.28063639999982115,None,,,,,,,,,0,6,6,6,1710.3058903,,,,,,,,,,,,1710.2903463000002,1710.3058903,1710.3058903,1712.1714557999994,,,,1712.1717008999995,1712.1873334000002,1712.1873334000002,1712.1873334000002,1712.4870767000002,,1712.4712060000002,,,,,,,,,,,,,,,up,1.849648100000195,None,space,0.28063639999982115,None,P113,001,2024-11-19_10h15.00.081,posner_endo_new1,2024.2.4,60.06283774090029,2024-11-19 10h29.28.518993 +0000,
0.005,0.31,7,7,0,down,1.9565628999998808,None,space,0.33485120000023016,None,,,,,,,,,0,7,7,7,1712.4870767000002,,,,,,,,,,,,1712.4713608000002,1712.4870767000002,1712.4870767000002,1714.4524046999995,,,,1714.4526445000001,1714.4685442999998,1714.4685442999998,1714.4685442999998,1714.7680157999994,,1714.8188337000001,,,,,,,,,,,,,,,down,1.9565628999998808,None,space,0.33485120000023016,None,P113,001,2024-11-19_10h15.00.081,posner_endo_new1,2024.2.4,60.06283774090029,2024-11-19 10h29.28.518993 +0000,
0.31,0.005,8,8,0,up,1.9527466999998069,None,space,0.24873999999999796,None,,,,,,,,,0,8,8,8,1714.8347027,,,,,,,,,,,,1714.8189905999998,1714.8347027,1714.8347027,1716.8000846999994,,,,1716.8003241999995,1716.8159275999997,1716.8159275999997,1716.8159275999997,,,1717.0667972,,,,,,,,,,,,,,,up,1.9527466999998069,None,space,0.24873999999999796,None,P113,001,2024-11-19_10h15.00.081,posner_endo_new1,2024.2.4,60.06283774090029,2024-11-19 10h29.28.518993 +0000,
10,0.005,9,9,0,down,1.6488915999998426,None,None,,,,,,,,,,,0,9,9,9,1717.0822269999999,,,,,,,,,,,,1717.0669542999995,1717.0822269999999,1717.0822269999999,1718.7479069,,,,1718.7481484,1718.7640548999998,1718.7640548999998,1718.7640548999998,1719.0635973999997,1719.7794852999996,1721.7610238999996,,,,,,,,,,,,,,,down,1.6488915999998426,None,None,,,P113,001,2024-11-19_10h15.00.081,posner_endo_new1,2024.2.4,60.06283774090029,2024-11-19 10h29.28.518993 +0000,
0.31,0.005,10,10,0,down,1.1699729000001753,None,space,0.32955930000025546,None,,,,,,,,,0,10,10,10,1721.7775805,,,,,,,,,,,,1721.7611982999997,1721.7775805,1721.7775805,1722.9603269999998,,,,1722.9605682000001,1722.9764569,1722.9764569,1722.9764569,1723.2761624999994,,1723.3102799999997,,,,,,,,,,,,,,,down,1.1699729000001753,None,space,0.32955930000025546,None,P113,001,2024-11-19_10h15.00.081,posner_endo_new1,2024.2.4,60.06283774090029,2024-11-19 10h29.28.518993 +0000,
0.005,0.31,11,11,0,up,1.5099645000000237,None,space,0.3696669999999358,None,,,,,,,,,0,11,11,11,1723.3260714999997,,,,,,,,,,,,1723.3104431000002,1723.3260714999997,1723.3260714999997,1724.8417352999995,,,,1724.8419734,1724.8576269999994,1724.8576269999994,1724.8576269999994,1725.1573830999996,,1725.2414272999995,,,,,,,,,,,,,,,up,1.5099645000000237,None,space,0.3696669999999358,None,P113,001,2024-11-19_10h15.00.081,posner_endo_new1,2024.2.4,60.06283774090029,2024-11-19 10h29.28.518993 +0000,
10,0.005,12,12,0,down,1.1706488999998328,None,None,,,,,,,,,,,0,12,12,12,1725.2570304,,,,,,,,,,,,1725.2415861999998,1725.2570304,1725.2570304,1726.4401828,,,,1726.4404235000002,1726.4562347,1726.4562347,1726.4562347,1726.7558449999997,1727.4717339999997,1729.4532318000001,,,,,,,,,,,,,,,down,1.1706488999998328,None,None,,,P113,001,2024-11-19_10h15.00.081,posner_endo_new1,2024.2.4,60.06283774090029,2024-11-19 10h29.28.518993 +0000,
-0.31,0.005,13,13,0,down,1.3337154000000737,None,space,0.33753879999949277,None,,,,,,,,,0,13,13,13,1729.4697569,,,,,,,,,,,,1729.4533849,1729.4697569,1729.4697569,1730.8191445000002,,,,1730.8193854,1730.8350503000001,1730.8350503000001,1730.8350503000001,1731.1346030999994,,1731.1854551999995,,,,,,,,,,,,,,,down,1.3337154000000737,None,space,0.33753879999949277,None,P113,001,2024-11-19_10h15.00.081,posner_endo_new1,2024.2.4,60.06283774090029,2024-11-19 10h29.28.518993 +0000,
0.31,0.005,14,14,0,up,2.1703597000005175,None,space,0.3989321999997628,None,,,,,,,,,0,14,14,14,1731.2012083,,,,,,,,,,,,1731.1856195,1731.2012083,1731.2012083,1733.3832376999999,,,,1733.3834779999997,1733.3990244999995,1733.3990244999995,1733.3990244999995,1733.6987061,,1733.7993686999998,,,,,,,,,,,,,,,up,2.1703597000005175,None,space,0.3989321999997628,None,P113,001,2024-11-19_10h15.00.081,posner_endo_new1,2024.2.4,60.06283774090029,2024-11-19 10h29.28.518993 +0000,
0.005,-0.31,15,15,0,down,0.5643106999996235,None,space,0.429500399999597,None,,,,,,,,,0,15,15,15,1733.8149478999994,,,,,,,,,,,,1733.7995260999996,1733.8149478999994,1733.8149478999994,1734.3818658999999,,,,1734.3821054999999,1734.3980929,1734.3980929,1734.3980929,1734.6976827999997,,1734.8317122999997,,,,,,,,,,,,,,,down,0.5643106999996235,None,space,0.429500399999597,None,P113,001,2024-11-19_10h15.00.081,posner_endo_new1,2024.2.4,60.06283774090029,2024-11-19 10h29.28.518993 +0000,
0.31,0.005,16,16,0,up,1.5008367000000362,None,space,0.3337443999998868,None,,,,,,,,,0,16,16,16,1734.8472186,,,,,,,,,,,,1734.8318727999995,1734.8472186,1734.8472186,1736.3632682999996,,,,1736.3635087000002,1736.3793650999996,1736.3793650999996,1736.3793650999996,1736.6790634,,1736.7297449999996,,,,,,,,,,,,,,,up,1.5008367000000362,None,space,0.3337443999998868,None,P113,001,2024-11-19_10h15.00.081,posner_endo_new1,2024.2.4,60.06283774090029,2024-11-19 10h29.28.518993 +0000,
0.31,0.005,17,17,0,down,1.9064023000000816,None,space,0.3136238000006415,None,,,,,,,,,0,17,17,17,1736.7456235,,,,,,,,,,,,1736.7299013000002,1736.7456235,1736.7456235,1738.6610154,,,,1738.6612575999998,1738.6769513999998,1738.6769513999998,1738.6769513999998,1738.9765802000002,,1738.9941252999997,,,,,,,,,,,,,,,down,1.9064023000000816,None,space,0.3136238000006415,None,P113,001,2024-11-19_10h15.00.081,posner_endo_new1,2024.2.4,60.06283774090029,2024-11-19 10h29.28.518993 +0000,
0.005,-0.31,18,18,0,up,0.9852731999999378,None,space,0.3678639999998268,None,,,,,,,,,0,18,18,18,1739.0098681999998,,,,,,,,,,,,1738.9942838999996,1739.0098681999998,1739.0098681999998,1740.0096518999999,,,,1740.0098903999997,1740.0255344999996,1740.0255344999996,1740.0255344999996,1740.3253736999995,,1740.4092492,,,,,,,,,,,,,,,up,0.9852731999999378,None,space,0.3678639999998268,None,P113,001,2024-11-19_10h15.00.081,posner_endo_new1,2024.2.4,60.06283774090029,2024-11-19 10h29.28.518993 +0000,
0.005,-0.31,19,19,0,down,1.3788723999996364,None,space,0.38073420000000624,None,,,,,,,,,0,19,19,19,1740.4251495999997,,,,,,,,,,,,1740.4094063000002,1740.4251495999997,1740.4251495999997,1741.8078105999994,,,,1741.8080614,1741.8238223999997,1741.8238223999997,1741.8238223999997,1742.1234329999997,,1742.2073148999998,,,,,,,,,,,,,,,down,1.3788723999996364,None,space,0.38073420000000624,None,P113,001,2024-11-19_10h15.00.081,posner_endo_new1,2024.2.4,60.06283774090029,2024-11-19 10h29.28.518993 +0000,
10,0.005,20,20,0,up,1.5961821000000782,None,None,,,,,,,,,,,0,20,20,20,1742.2231893999997,,,,,,,,,,,,1742.2074719000002,1742.2231893999997,1742.2231893999997,1743.8221390999997,,,,1743.8223804,1743.8384545999997,1743.8384545999997,1743.8384545999997,1744.1379462999994,1744.8540965000002,1746.8354877000002,,,,,,,,,,,,,,,up,1.5961821000000782,None,None,,,P113,001,2024-11-19_10h15.00.081,posner_endo_new1,2024.2.4,60.06283774090029,2024-11-19 10h29.28.518993 +0000,
0.005,-0.31,21,21,0,up,0.8718218000003617,None,space,0.3835425999996005,None,,,,,,,,,0,21,21,21,1746.8518775000002,,,,,,,,,,,,1746.8356411999994,1746.8518775000002,1746.8518775000002,1747.7352381,,,,1747.7354835999995,1747.7510734999996,1747.7510734999996,1747.7510734999996,1748.0506727000002,,1748.1513445,,,,,,,,,,,,,,,up,0.8718218000003617,None,space,0.3835425999996005,None,P113,001,2024-11-19_10h15.00.081,posner_endo_new1,2024.2.4,60.06283774090029,2024-11-19 10h29.28.518993 +0000,
0.005,0.31,22,22,0,down,1.3810685999997077,None,space,0.39524009999968257,None,,,,,,,,,0,22,22,22,1748.1670914999995,,,,,,,,,,,,1748.1515012999998,1748.1670914999995,1748.1670914999995,1749.5502378,,,,1749.5504769999998,1749.5656443999997,1749.5656443999997,1749.5656443999997,1749.8657807999998,,1749.965999,,,,,,,,,,,,,,,down,1.3810685999997077,None,space,0.39524009999968257,None,P113,001,2024-11-19_10h15.00.081,posner_endo_new1,2024.2.4,60.06283774090029,2024-11-19 10h29.28.518993 +0000,
0.31,0.005,23,23,0,up,1.62189699999999,None,space,0.35560260000056587,None,,,,,,,,,0,23,23,23,1749.9821852999994,,,,,,,,,,,,1749.9661619999997,1749.9821852999994,1749.9821852999994,1751.6144728,,,,1751.6147359999995,1751.6304013,1751.6304013,1751.6304013,1751.9301132,,1751.9974983000002,,,,,,,,,,,,,,,up,1.62189699999999,None,space,0.35560260000056587,None,P113,001,2024-11-19_10h15.00.081,posner_endo_new1,2024.2.4,60.06283774090029,2024-11-19 10h29.28.518993 +0000,
-0.31,0.005,24,24,0,down,1.534517400000368,None,space,0.45364669999980833,None,,,,,,,,,0,24,24,24,1752.0134054,,,,,,,,,,,,1751.9976545,1752.0134054,1752.0134054,1753.5624839000002,,,,1753.5627224999998,1753.5783812,1753.5783812,1753.5783812,1753.8780498999995,,1754.0453431999995,,,,,,,,,,,,,,,down,1.534517400000368,None,space,0.45364669999980833,None,P113,001,2024-11-19_10h15.00.081,posner_endo_new1,2024.2.4,60.06283774090029,2024-11-19 10h29.28.518993 +0000,
10,0.005,25,25,0,up,1.3021349999999074,None,None,,,,,,,,,,,0,25,25,25,1754.0612204999998,,,,,,,,,,,,1754.0455059999995,1754.0612204999998,1754.0612204999998,1755.3773130999998,,,,1755.3775556,1755.3933458000001,1755.3933458000001,1755.3933458000001,1755.6929640999997,1756.4088426999997,1758.3901953999994,,,,,,,,,,,,,,,up,1.3021349999999074,None,None,,,P113,001,2024-11-19_10h15.00.081,posner_endo_new1,2024.2.4,60.06283774090029,2024-11-19 10h29.28.518993 +0000,
0.005,0.31,26,26,0,up,0.06843750000007276,None,space,0.2714564000007158,None,,,,,,,,,0,26,26,26,1758.4068814000002,,,,,,,,,,,,1758.3903494999995,1758.4068814000002,1758.4068814000002,1758.4907721,,,,1758.4910106999996,1758.5067468999996,1758.5067468999996,1758.5067468999996,1758.8064951999995,,1758.7903609999994,,,,,,,,,,,,,,,up,0.06843750000007276,None,space,0.2714564000007158,None,P113,001,2024-11-19_10h15.00.081,posner_endo_new1,2024.2.4,60.06283774090029,2024-11-19 10h29.28.518993 +0000,
0.31,0.005,27,27,0,down,1.7735069000000294,None,space,0.3592251000000033,None,,,,,,,,,0,27,27,27,1758.8064951999995,,,,,,,,,,,,1758.7905175999995,1758.8064951999995,1758.8064951999995,1760.5886193999995,,,,1760.5888650999996,1760.6045421,1760.6045421,1760.6045421,1760.9042364999996,,1760.9714919999997,,,,,,,,,,,,,,,down,1.7735069000000294,None,space,0.3592251000000033,None,P113,001,2024-11-19_10h15.00.081,posner_endo_new1,2024.2.4,60.06283774090029,2024-11-19 10h29.28.518993 +0000,
0.005,0.31,28,28,0,up,1.1365746999999828,None,space,0.454674999999952,None,,,,,,,,,0,28,28,28,1760.9873584999996,,,,,,,,,,,,1760.9716548999995,1760.9873584999996,1760.9873584999996,1762.1369599,,,,1762.1372032999998,1762.1530137,1762.1530137,1762.1530137,1762.4528011000002,,1762.6197981999994,,,,,,,,,,,,,,,up,1.1365746999999828,None,space,0.454674999999952,None,P113,001,2024-11-19_10h15.00.081,posner_endo_new1,2024.2.4,60.06283774090029,2024-11-19 10h29.28.518993 +0000,
10,0.005,29,29,0,down,0.4160007000000405,None,None,,,,,,,,,,,0,29,29,29,1762.6358640999997,,,,,,,,,,,,1762.6199563999999,1762.6358640999997,1762.6358640999997,1763.0528088,,,,1763.0530546,1763.0686592000002,1763.0686592000002,1763.0686592000002,1763.3686591999995,1764.0842966999999,1766.0654699999996,,,,,,,,,,,,,,,down,0.4160007000000405,None,None,,,P113,001,2024-11-19_10h15.00.081,posner_endo_new1,2024.2.4,60.06283774090029,2024-11-19 10h29.28.518993 +0000,
0.005,-0.31,30,30,0,down,0.5210918000002493,None,space,0.3179590999998254,None,,,,,,,,,0,30,30,30,1766.0823556999994,,,,,,,,,,,,1766.0656236999994,1766.0823556999994,1766.0823556999994,1766.6156141000001,,,,1766.6158531,1766.6318820999995,1766.6318820999995,1766.6318820999995,1766.9314028999997,,1766.9655029999994,,,,,,,,,,,,,,,down,0.5210918000002493,None,space,0.3179590999998254,None,P113,001,2024-11-19_10h15.00.081,posner_endo_new1,2024.2.4,60.06283774090029,2024-11-19 10h29.28.518993 +0000,
0.31,0.005,31,31,0,up,1.8462823999998363,None,space,0.3248316999997769,None,,,,,,,,,0,31,31,31,1766.9813569999997,,,,,,,,,,,,1766.9656661999998,1766.9813569999997,1766.9813569999997,1768.8303380999996,,,,1768.8305800999997,1768.8461732999995,1768.8461732999995,1768.8461732999995,1769.1458582999994,,1769.1793675999998,,,,,,,,,,,,,,,up,1.8462823999998363,None,space,0.3248316999997769,None,P113,001,2024-11-19_10h15.00.081,posner_endo_new1,2024.2.4,60.06283774090029,2024-11-19 10h29.28.518993 +0000,
10,0.005,32,32,0,down,1.2158667000003334,None,None,,,,,,,,,,,0,32,32,32,1769.1957868999998,,,,,,,,,,,,1769.1795296,1769.1957868999998,1769.1957868999998,1770.4284280000002,,,,1770.4286766999994,1770.4441582999998,1770.4441582999998,1770.4441582999998,1770.7438272,1771.443034,1773.4415246999997,,,,,,,,,,,,,,,down,1.2158667000003334,None,None,,,P113,001,2024-11-19_10h15.00.081,posner_endo_new1,2024.2.4,60.06283774090029,2024-11-19 10h29.28.518993 +0000,
-0.31,0.005,33,33,0,down,1.2977812999997695,None,space,0.3029372000000876,None,,,,,,,,,0,33,33,33,1773.4581982,,,,,,,,,,,,1773.4416836999999,1773.4581982,1773.4581982,1774.7574194999997,,,,1774.7576626999999,1774.7732079999996,1774.7732079999996,1774.7732079999996,1775.0730247000001,,1775.0904415999994,,,,,,,,,,,,,,,down,1.2977812999997695,None,space,0.3029372000000876,None,P113,001,2024-11-19_10h15.00.081,posner_endo_new1,2024.2.4,60.06283774090029,2024-11-19 10h29.28.518993 +0000,
10,0.005,34,34,0,up,1.5454380999999557,None,None,,,,,,,,,,,0,34,34,34,1775.1064227999996,,,,,,,,,,,,1775.0905989000003,1775.1064227999996,1775.1064227999996,1776.6552439999996,,,,1776.6554899000002,1776.6715247000002,1776.6715247000002,1776.6715247000002,1776.9711069999994,1777.6703435999998,1779.6683336999995,,,,,,,,,,,,,,,up,1.5454380999999557,None,None,,,P113,001,2024-11-19_10h15.00.081,posner_endo_new1,2024.2.4,60.06283774090029,2024-11-19 10h29.28.518993 +0000,
0.005,-0.31,35,35,0,up,0.8306317999995372,None,space,0.4041235000004235,None,,,,,,,,,0,35,35,35,1779.6851409,,,,,,,,,,,,1779.6684882,1779.6851409,1779.6851409,1780.5182292999998,,,,1780.5184706,1780.5341452000002,1780.5341452000002,1780.5341452000002,1780.8338390999998,,1780.9512055999994,,,,,,,,,,,,,,,up,0.8306317999995372,None,space,0.4041235000004235,None,P113,001,2024-11-19_10h15.00.081,posner_endo_new1,2024.2.4,60.06283774090029,2024-11-19 10h29.28.518993 +0000,
0.31,0.005,36,36,0,down,1.5484193000002051,None,space,0.3916402000004382,None,,,,,,,,,0,36,36,36,1780.9670889999998,,,,,,,,,,,,1780.9513624,1780.9670889999998,1780.9670889999998,1782.5162189000002,,,,1782.5164611,1782.5321358,1782.5321358,1782.5321358,1782.8317339999994,,1782.9326020999997,,,,,,,,,,,,,,,down,1.5484193000002051,None,space,0.3916402000004382,None,P113,001,2024-11-19_10h15.00.081,posner_endo_new1,2024.2.4,60.06283774090029,2024-11-19 10h29.28.518993 +0000,
10,0.005,37,37,0,up,1.5602722000003268,None,None,,,,,,,,,,,0,37,37,37,1782.9481765,,,,,,,,,,,,1782.9327595999994,1782.9481765,1782.9481765,1784.5140626000002,,,,1784.5143020999994,1784.5299882,1784.5299882,1784.5299882,1784.8297710999996,1785.5289759999996,1787.5270215,,,,,,,,,,,,,,,up,1.5602722000003268,None,None,,,P113,001,2024-11-19_10h15.00.081,posner_endo_new1,2024.2.4,60.06283774090029,2024-11-19 10h29.28.518993 +0000,
10,0.005,38,38,0,up,0.6443137000005663,None,None,,,,,,,,,,,0,38,38,38,1787.5437966,,,,,,,,,,,,1787.5271822999994,1787.5437966,1787.5437966,1788.193776,,,,1788.1940184999994,1788.2095842999997,1788.2095842999997,1788.2095842999997,1788.509427,1789.2086408999994,1791.2068336000002,,,,,,,,,,,,,,,up,0.6443137000005663,None,None,,,P113,001,2024-11-19_10h15.00.081,posner_endo_new1,2024.2.4,60.06283774090029,2024-11-19 10h29.28.518993 +0000,
-0.31,0.005,39,39,0,up,1.156369000000268,None,space,0.3358723999999711,None,,,,,,,,,0,39,39,39,1791.2232434999996,,,,,,,,,,,,1791.2069867,1791.2232434999996,1791.2232434999996,1792.3893428000001,,,,1792.3895813,1792.4053673999997,1792.4053673999997,1792.4053673999997,1792.7045970999998,,1792.7557105999995,,,,,,,,,,,,,,,up,1.156369000000268,None,space,0.3358723999999711,None,P113,001,2024-11-19_10h15.00.081,posner_endo_new1,2024.2.4,60.06283774090029,2024-11-19 10h29.28.518993 +0000,
0.005,-0.31,40,40,0,down,1.6880071000005046,None,space,0.42869250000057946,None,,,,,,,,,0,40,40,40,1792.7716585999997,,,,,,,,,,,,1792.7558668000001,1792.7716585999997,1792.7716585999997,1794.4706516999995,,,,1794.4708949999995,1794.4865652999997,1794.4865652999997,1794.4865652999997,1794.7861710999996,,1794.9200614000001,,,,,,,,,,,,,,,down,1.6880071000005046,None,space,0.42869250000057946,None,P113,001,2024-11-19_10h15.00.081,posner_endo_new1,2024.2.4,60.06283774090029,2024-11-19 10h29.28.518993 +0000,
0.005,-0.31,41,41,0,up,1.4359032000002117,None,space,0.3868619000004401,None,,,,,,,,,0,41,41,41,1794.9360867999994,,,,,,,,,,,,1794.9202252999994,1794.9360867999994,1794.9360867999994,1796.3852551,,,,1796.3854949999995,1796.4013966000002,1796.4013966000002,1796.4013966000002,1796.7007635,,1796.8015503999995,,,,,,,,,,,,,,,up,1.4359032000002117,None,space,0.3868619000004401,None,P113,001,2024-11-19_10h15.00.081,posner_endo_new1,2024.2.4,60.06283774090029,2024-11-19 10h29.28.518993 +0000,
10,0.005,42,42,0,down,1.2660855000003721,None,None,,,,,,,,,,,0,42,42,42,1796.8176182999996,,,,,,,,,,,,1796.8017117,1796.8176182999996,1796.8176182999996,1798.1000585000002,,,,1798.1003046999995,1798.1162499000002,1798.1162499000002,1798.1162499000002,1798.4157395000002,1799.1151058999994,1801.1132479999997,,,,,,,,,,,,,,,down,1.2660855000003721,None,None,,,P113,001,2024-11-19_10h15.00.081,posner_endo_new1,2024.2.4,60.06283774090029,2024-11-19 10h29.28.518993 +0000,
0.005,-0.31,43,43,0,down,1.0823675000001458,None,space,0.40537720000065747,None,,,,,,,,,0,43,43,43,1801.1296880999998,,,,,,,,,,,,1801.1134022999995,1801.1296880999998,1801.1296880999998,1802.2129613999996,,,,1802.2132104000002,1802.2285094,1802.2285094,1802.2285094,1802.5284420999997,,1802.6454538999997,,,,,,,,,,,,,,,down,1.0823675000001458,None,space,0.40537720000065747,None,P113,001,2024-11-19_10h15.00.081,posner_endo_new1,2024.2.4,60.06283774090029,2024-11-19 10h29.28.518993 +0000,
-0.31,0.005,44,44,0,up,1.5350107000003845,None,space,0.35113309999997,None,,,,,,,,,0,44,44,44,1802.6614616999996,,,,,,,,,,,,1802.6456102000002,1802.6614616999996,1802.6614616999996,1804.2106996000002,,,,1804.2109414999995,1804.2265294,1804.2265294,1804.2265294,1804.5263385999997,,1804.5936463999997,,,,,,,,,,,,,,,up,1.5350107000003845,None,space,0.35113309999997,None,P113,001,2024-11-19_10h15.00.081,posner_endo_new1,2024.2.4,60.06283774090029,2024-11-19 10h29.28.518993 +0000,
10,0.005,45,45,0,down,1.2978743000003305,None,None,,,,,,,,,,,0,45,45,45,1804.6097204999996,,,,,,,,,,,,1804.5938025999994,1804.6097204999996,1804.6097204999996,1805.9091465000001,,,,1805.9093852999995,1805.9247783,1805.9247783,1805.9247783,1806.2247590999996,1806.9238403999998,1808.9218129,,,,,,,,,,,,,,,down,1.2978743000003305,None,None,,,P113,001,2024-11-19_10h15.00.081,posner_endo_new1,2024.2.4,60.06283774090029,2024-11-19 10h29.28.518993 +0000,
0.005,0.31,46,46,0,down,0.13768720000007306,None,space,0.3676582000007329,None,,,,,,,,,0,46,46,46,1808.9384467,,,,,,,,,,,,1808.9219660999997,1808.9384467,1808.9384467,1809.0889869000002,,,,1809.0892303,1809.1049345000001,1809.1049345000001,1809.1049345000001,1809.4047261999995,,1809.4884938999994,,,,,,,,,,,,,,,down,0.13768720000007306,None,space,0.3676582000007329,None,P113,001,2024-11-19_10h15.00.081,posner_endo_new1,2024.2.4,60.06283774090029,2024-11-19 10h29.28.518993 +0000,
0.005,-0.31,47,47,0,up,1.8991980999999214,None,space,0.3256807000007029,None,,,,,,,,,0,47,47,47,1809.5045873999998,,,,,,,,,,,,1809.4886507,1809.5045873999998,1809.5045873999998,1811.4196296,,,,1811.4198699999997,1811.4360178999996,1811.4360178999996,1811.4360178999996,1811.7356386000001,,1811.7696182,,,,,,,,,,,,,,,up,1.8991980999999214,None,space,0.3256807000007029,None,P113,001,2024-11-19_10h15.00.081,posner_endo_new1,2024.2.4,60.06283774090029,2024-11-19 10h29.28.518993 +0000,
0.31,0.005,48,48,0,down,1.1466646999997465,None,space,0.4441047999998773,None,,,,,,,,,0,48,48,48,1811.7856375000001,,,,,,,,,,,,1811.7697828,1811.7856375000001,1811.7856375000001,1812.9350733,,,,1812.9353161,1812.9510702999996,1812.9510702999996,1812.9510702999996,1813.2507428999998,,1813.4012936,,,,,,,,,,,,,,,down,1.1466646999997465,None,space,0.4441047999998773,None,P113,001,2024-11-19_10h15.00.081,posner_endo_new1,2024.2.4,60.06283774090029,2024-11-19 10h29.28.518993 +0000,
-0.31,0.005,49,49,0,up,1.6583276000001206,None,space,0.3221680999995442,None,,,,,,,,,0,49,49,49,1813.4171706999996,,,,,,,,,,,,1813.401452,1813.4171706999996,1813.4171706999996,1815.0830712999996,,,,1815.0833099000001,1815.0989401999996,1815.0989401999996,1815.0989401999996,1815.3985474,,1815.4325677999996,,,,,,,,,,,,,,,up,1.6583276000001206,None,space,0.3221680999995442,None,P113,001,2024-11-19_10h15.00.081,posner_endo_new1,2024.2.4,60.06283774090029,2024-11-19 10h29.28.518993 +0000,
0.005,0.31,50,50,0,down,1.5153485000000728,None,space,0.3649232999996457,None,,,,,,,,,0,50,50,50,1815.4481356999995,,,,,,,,,,,,1815.4327340999998,1815.4481356999995,1815.4481356999995,1816.9642626999994,,,,1816.9645033999996,1816.9801972999994,1816.9801972999994,1816.9801972999994,1817.2798900999996,,1817.3473082,,,,,,,,,,,,,,,down,1.5153485000000728,None,space,0.3649232999996457,None,P113,001,2024-11-19_10h15.00.081,posner_endo_new1,2024.2.4,60.06283774090029,2024-11-19 10h29.28.518993 +0000,
0.005,0.31,51,51,0,up,1.5676417000004221,None,space,0.33752519999961805,None,,,,,,,,,0,51,51,51,1817.3638377999996,,,,,,,,,,,,1817.3474701999994,1817.3638377999996,1817.3638377999996,1818.9454510999994,,,,1818.9456923999996,1818.9615932999995,1818.9615932999995,1818.9615932999995,1819.2612385000002,,1819.3118798999994,,,,,,,,,,,,,,,up,1.5676417000004221,None,space,0.33752519999961805,None,P113,001,2024-11-19_10h15.00.081,posner_endo_new1,2024.2.4,60.06283774090029,2024-11-19 10h29.28.518993 +0000,
10,0.005,52,52,0,down,1.1476033999997526,None,None,,,,,,,,,,,0,52,52,52,1819.3278777999994,,,,,,,,,,,,1819.3120356,1819.3278777999994,1819.3278777999994,1820.4774820000002,,,,1820.4777231999997,1820.4933234,1820.4933234,1820.4933234,1820.7926141999997,1821.5085717000002,1823.4900265999995,,,,,,,,,,,,,,,down,1.1476033999997526,None,None,,,P113,001,2024-11-19_10h15.00.081,posner_endo_new1,2024.2.4,60.06283774090029,2024-11-19 10h29.28.518993 +0000,
-0.31,0.005,53,53,0,down,0.6652374000004784,None,space,0.4013930999999502,None,,,,,,,,,0,53,53,53,1823.5065101999999,,,,,,,,,,,,1823.4903118000002,1823.5065101999999,1823.5065101999999,1824.1739152999999,,,,1824.1743655999999,1824.1891552999996,1824.1891552999996,1824.1891552999996,1824.4888429000002,,1824.6067243999996,,,,,,,,,,,,,,,down,0.6652374000004784,None,space,0.4013930999999502,None,P113,001,2024-11-19_10h15.00.081,posner_endo_new1,2024.2.4,60.06283774090029,2024-11-19 10h29.28.518993 +0000,
10,0.005,54,54,0,up,1.3019373999995878,None,None,,,,,,,,,,,0,54,54,54,1824.6220332000003,,,,,,,,,,,,1824.6070233,1824.6220332000003,1824.6220332000003,1825.9386592,,,,1825.9390895999995,1825.9540079999997,1825.9540079999997,1825.9540079999997,1826.2537080000002,1826.9696410999995,1828.9511228000001,,,,,,,,,,,,,,,up,1.3019373999995878,None,None,,,P113,001,2024-11-19_10h15.00.081,posner_endo_new1,2024.2.4,60.06283774090029,2024-11-19 10h29.28.518993 +0000,
0.005,0.31,55,55,0,up,0.6279314000003069,None,space,0.3593396999995093,None,,,,,,,,,0,55,55,55,1828.9675922999995,,,,,,,,,,,,1828.9513981,1828.9675922999995,1828.9675922999995,1829.6015533999998,,,,1829.6019759,1829.6169572999997,1829.6169572999997,1829.6169572999997,1829.9166595999995,,1829.9845428999997,,,,,,,,,,,,,,,up,0.6279314000003069,None,space,0.3593396999995093,None,P113,001,2024-11-19_10h15.00.081,posner_endo_new1,2024.2.4,60.06283774090029,2024-11-19 10h29.28.518993 +0000,
0.005,-0.31,56,56,0,down,1.2999192999996012,None,space,0.3567784999995638,None,,,,,,,,,0,56,56,56,1829.9998595999996,,,,,,,,,,,,1829.9848390999996,1829.9998595999996,1829.9998595999996,1831.3164808000001,,,,1831.3169085,1831.3318414999994,1831.3318414999994,1831.3318414999994,1831.6315227999994,,1831.6994586,,,,,,,,,,,,,,,down,1.2999192999996012,None,space,0.3567784999995638,None,P113,001,2024-11-19_10h15.00.081,posner_endo_new1,2024.2.4,60.06283774090029,2024-11-19 10h29.28.518993 +0000,
0.005,0.31,57,57,0,up,1.7933482999997068,None,space,0.4442716000003202,None,,,,,,,,,0,57,57,57,1831.71479,,,,,,,,,,,,1831.6997708999997,1831.71479,1831.71479,1833.5144362,,,,1833.5148573999995,1833.5295968,1833.5295968,1833.5295968,1833.8292898,,1833.9804660999998,,,,,,,,,,,,,,,up,1.7933482999997068,None,space,0.4442716000003202,None,P113,001,2024-11-19_10h15.00.081,posner_endo_new1,2024.2.4,60.06283774090029,2024-11-19 10h29.28.518993 +0000,
-0.31,0.005,58,58,0,down,1.336398299999928,None,space,0.372881100000086,None,,,,,,,,,0,58,58,58,1833.9957691999998,,,,,,,,,,,,1833.9807628999997,1833.9957691999998,1833.9957691999998,1835.3457069999995,,,,1835.3461351999995,1835.3610432999994,1835.3610432999994,1835.3610432999994,1835.6607588999996,,1835.7453507,,,,,,,,,,,,,,,down,1.336398299999928,None,space,0.372881100000086,None,P113,001,2024-11-19_10h15.00.081,posner_endo_new1,2024.2.4,60.06283774090029,2024-11-19 10h29.28.518993 +0000,
-0.31,0.005,59,59,0,up,1.1149497000005795,None,space,0.3661852999994153,None,,,,,,,,,0,59,59,59,1835.7606504999994,,,,,,,,,,,,1835.7456487,1835.7606504999994,1835.7606504999994,1836.87759,,,,1836.8780142999994,1836.8928139,1836.8928139,1836.8928139,1837.1929017000002,,1837.2607782999994,,,,,,,,,,,,,,,up,1.1149497000005795,None,space,0.3661852999994153,None,P113,001,2024-11-19_10h15.00.081,posner_endo_new1,2024.2.4,60.06283774090029,2024-11-19 10h29.28.518993 +0000,
