target_y,target_x,thisN,thisTrialN,thisRepN,key_control2.keys,key_control2.rt,key_control2.duration,key_resp.keys,key_resp.rt,key_resp.duration,practice.thisRepN,practice.thisTrialN,practice.thisN,practice.thisIndex,session_1.thisRepN,session_1.thisTrialN,session_1.thisN,session_1.thisIndex,session_2.thisRepN,session_2.thisTrialN,session_2.thisN,session_2.thisIndex,thisRow.t,notes,instructions.started,instructions_txt.started,key_control.started,instructions.stopped,key_control.keys,key_control.rt,key_control.duration,ready.started,ready_txt.started,ready.stopped,fix.started,key_control2.started,fixation_cross.started,fix.stopped,practice.key_control2.keys,practice.key_control2.rt,practice.key_control2.duration,target.started,star.started,fixation_cross_target.started,key_resp.started,star.stopped,target.stopped,practice.key_resp.keys,practice.key_resp.rt,practice.key_resp.duration,key_resp.stopped,session_1.key_control2.keys,session_1.key_control2.rt,session_1.key_control2.duration,session_1.key_resp.keys,session_1.key_resp.rt,session_1.key_resp.duration,break_2.started,text.started,key_control3.started,break_2.stopped,key_control3.keys,session_2.key_control2.keys,session_2.key_control2.rt,session_2.key_control2.duration,session_2.key_resp.keys,session_2.key_resp.rt,session_2.key_resp.duration,participant,session,date,expName,psychopyVersion,frameRate,expStart,
,,,,,,,,,,,,,,,,,,,,,,,,,0.007589500000001692,0.02036460000000062,0.02036460000000062,424.7279406,up,424.6921919,None,,,,,,,,,,,,,,,,,,,,,,,,,,,,,,,,,,,,,,P114,001,2024-11-19_13h58.45.886,posner_endo_new1,2024.2.4,60.02617141073639,2024-11-19 13h58.53.218602 +0000,
,,,,,,,,,,,,,,,,,,,,,,,,,,,,,,,,424.7280297,424.738065,427.7299381,,,,,,,,,,,,,,,,,,,,,,,,,,,,,,,,,,,P114,001,2024-11-19_13h58.45.886,posner_endo_new1,2024.2.4,60.02617141073639,2024-11-19 13h58.53.218602 +0000,
0.005,0.31,0,0,0,up,5.2016475000000355,None,space,0.4564826000000153,None,0,0,0,8,,,,,,,,,427.7506609,,,,,,,,,,,,427.741307,427.7506609,427.7506609,432.9588006,up,5.2016475000000355,None,432.9591569,432.9747944,432.9747944,432.9747944,433.2742527,433.4416514,space,0.4564826000000153,None,,,,,,,,,,,,,,,,,,,P114,001,2024-11-19_13h58.45.886,posner_endo_new1,2024.2.4,60.02617141073639,2024-11-19 13h58.53.218602 +0000,
0.005,-0.31,1,1,0,down,2.702175699999998,None,space,0.3746858999999745,None,0,1,1,5,,,,,,,,,433.457258,,,,,,,,,,,,433.4418556,433.457258,433.457258,436.1722903,down,2.702175699999998,None,436.1726013,436.1880442,436.1880442,436.1880442,436.4876136,436.5717179,space,0.3746858999999745,None,,,,,,,,,,,,,,,,,,,P114,001,2024-11-19_13h58.45.886,posner_endo_new1,2024.2.4,60.02617141073639,2024-11-19 13h58.53.218602 +0000,
-0.31,0.005,2,2,0,up,2.5411399999999844,None,space,0.3047745000000077,None,0,2,2,2,,,,,,,,,436.587473,,,,,,,,,,,,436.5719196,436.587473,436.587473,439.1359012,up,2.5411399999999844,None,439.1362133,439.1516344,439.1516344,439.1516344,439.4511312,439.4689349,space,0.3047745000000077,None,,,,,,,,,,,,,,,,,,,P114,001,2024-11-19_13h58.45.886,posner_endo_new1,2024.2.4,60.02617141073639,2024-11-19 13h58.53.218602 +0000,
0.005,-0.31,3,3,0,down,2.04269290000002,None,space,0.4405636000000186,None,0,3,3,7,,,,,,,,,439.4846226,,,,,,,,,,,,439.46914,439.4846226,439.4846226,441.535447,down,2.04269290000002,None,441.5362391,441.5496979,441.5496979,441.5496979,441.8488263,441.9996377,space,0.4405636000000186,None,,,,,,,,,,,,,,,,,,,P114,001,2024-11-19_13h58.45.886,posner_endo_new1,2024.2.4,60.02617141073639,2024-11-19 13h58.53.218602 +0000,
0.31,0.005,4,4,0,up,3.0559992000000307,None,space,0.580782499999998,None,0,4,4,3,,,,,,,,,442.015296,,,,,,,,,,,,441.9998633,442.015296,442.015296,445.0798589,up,3.0559992000000307,None,445.0802055,445.0955458,445.0955458,445.0955458,445.3952115,445.6794872,space,0.580782499999998,None,,,,,,,,,,,,,,,,,,,P114,001,2024-11-19_13h58.45.886,posner_endo_new1,2024.2.4,60.02617141073639,2024-11-19 13h58.53.218602 +0000,
0.31,0.005,5,5,0,down,2.936514299999999,None,space,0.5227748000000361,None,0,5,5,1,,,,,,,,,445.6948589,,,,,,,,,,,,445.6797172,445.6948589,445.6948589,448.6429533,down,2.936514299999999,None,448.6433108,448.6584199,448.6584199,448.6584199,448.95813880000003,449.1923523,space,0.5227748000000361,None,,,,,,,,,,,,,,,,,,,P114,001,2024-11-19_13h58.45.886,posner_endo_new1,2024.2.4,60.02617141073639,2024-11-19 13h58.53.218602 +0000,
-0.31,0.005,6,6,0,up,2.126985599999955,None,space,0.2799934000000235,None,0,6,6,0,,,,,,,,,449.2079679,,,,,,,,,,,,449.1925823,449.2079679,449.2079679,451.3402387,up,2.126985599999955,None,451.3405893,451.3557806,451.3557806,451.3557806,451.6554216,451.6401124,space,0.2799934000000235,None,,,,,,,,,,,,,,,,,,,P114,001,2024-11-19_13h58.45.886,posner_endo_new1,2024.2.4,60.02617141073639,2024-11-19 13h58.53.218602 +0000,
0.005,0.31,7,7,0,down,2.8718964000000256,None,space,0.3414950999999746,None,0,7,7,6,,,,,,,,,451.6554216,,,,,,,,,,,,451.6403522,451.6554216,451.6554216,454.5365813,down,2.8718964000000256,None,454.536834,454.5525801,454.5525801,454.5525801,454.8524066,454.9030074,space,0.3414950999999746,None,,,,,,,,,,,,,,,,,,,P114,001,2024-11-19_13h58.45.886,posner_endo_new1,2024.2.4,60.02617141073639,2024-11-19 13h58.53.218602 +0000,
10,0.005,8,8,0,up,1.9607546999999954,None,None,,,0,8,8,4,,,,,,,,,454.918872,,,,,,,,,,,,454.9031709,454.918872,454.918872,456.8842208,up,1.9607546999999954,None,456.88447610000003,456.9000457,456.9000457,456.9000457,457.1998496,459.89741200000003,None,,,457.899019,,,,,,,,,,,,,,,,,,P114,001,2024-11-19_13h58.45.886,posner_endo_new1,2024.2.4,60.02617141073639,2024-11-19 13h58.53.218602 +0000,
0.005,10,9,9,0,down,0.3737755999999308,None,None,,,0,9,9,9,,,,,,,,,459.91381220000005,,,,,,,,,,,,459.89794859999995,459.91381220000005,459.91381220000005,460.2991508,down,0.3737755999999308,None,460.29994050000005,460.3137328,460.3137328,460.3137328,460.6130206,463.31002060000003,None,,,461.32901330000004,,,,,,,,,,,,,,,,,,P114,001,2024-11-19_13h58.45.886,posner_endo_new1,2024.2.4,60.02617141073639,2024-11-19 13h58.53.218602 +0000,
,,,,,,,,,,,,,,,,,,,,,,,,,,,,,,,,463.31022140000005,463.32646520000003,466.3073253,,,,,,,,,,,,,,,,,,,,,,,,,,,,,,,,,,,P114,001,2024-11-19_13h58.45.886,posner_endo_new1,2024.2.4,60.02617141073639,2024-11-19 13h58.53.218602 +0000,
-0.31,0.005,0,0,0,up,6.628890699999943,None,space,0.3364589000000251,None,,,,,0,0,0,0,,,,,466.3301652,,,,,,,,,,,,466.3214682,466.3301652,466.3301652,472.96812309999996,,,,472.96849799999995,472.9836265,472.9836265,472.9836265,473.2831976,473.33424319999995,,,,,up,6.628890699999943,None,space,0.3364589000000251,None,,,,,,,,,,,,P114,001,2024-11-19_13h58.45.886,posner_endo_new1,2024.2.4,60.02617141073639,2024-11-19 13h58.53.218602 +0000,
0.005,0.31,1,1,0,down,3.177147600000012,None,space,0.3344598999999562,None,,,,,0,1,1,1,,,,,473.34991560000003,,,,,,,,,,,,473.33448080000005,473.34991560000003,473.34991560000003,476.5311199,,,,476.5314664,476.5466166,476.5466166,476.5466166,476.84636309999996,476.8973045,,,,,down,3.177147600000012,None,space,0.3344598999999562,None,,,,,,,,,,,,P114,001,2024-11-19_13h58.45.886,posner_endo_new1,2024.2.4,60.02617141073639,2024-11-19 13h58.53.218602 +0000,
0.31,0.005,2,2,0,up,2.27059440000005,None,space,0.47981370000002244,None,,,,,0,2,2,2,,,,,476.9129567,,,,,,,,,,,,476.89754259999995,476.9129567,476.9129567,479.1950435,,,,479.19538880000005,479.21054030000005,479.21054030000005,479.21054030000005,479.51029860000006,479.6946875,,,,,up,2.27059440000005,None,space,0.47981370000002244,None,,,,,,,,,,,,P114,001,2024-11-19_13h58.45.886,posner_endo_new1,2024.2.4,60.02617141073639,2024-11-19 13h58.53.218602 +0000,
0.31,0.005,3,3,0,down,2.3533371000000898,None,space,0.5182612999999492,None,,,,,0,3,3,3,,,,,479.71006209999996,,,,,,,,,,,,479.6949231,479.71006209999996,479.71006209999996,482.07545689999995,,,,482.07580640000003,482.0909401,482.0909401,482.0909401,482.3905817,482.6249044,,,,,down,2.3533371000000898,None,space,0.5182612999999492,None,,,,,,,,,,,,P114,001,2024-11-19_13h58.45.886,posner_endo_new1,2024.2.4,60.02617141073639,2024-11-19 13h58.53.218602 +0000,
-0.31,0.005,4,4,0,up,2.6716638999999986,None,space,0.2672559000000092,None,,,,,0,4,4,4,,,,,482.6403225,,,,,,,,,,,,482.62514450000003,482.6403225,482.6403225,485.32198189999997,,,,485.32232910000005,485.3376413,485.3376413,485.3376413,485.6373585,485.62184990000003,,,,,up,2.6716638999999986,None,space,0.2672559000000092,None,,,,,,,,,,,,P114,001,2024-11-19_13h58.45.886,posner_endo_new1,2024.2.4,60.02617141073639,2024-11-19 13h58.53.218602 +0000,
0.005,-0.31,5,5,0,down,3.0178257999999687,None,space,0.4058400999999776,None,,,,,0,5,5,5,,,,,485.6373585,,,,,,,,,,,,485.6220899,485.6373585,485.6373585,488.66876850000006,,,,488.66911689999995,488.68419570000003,488.68419570000003,488.68419570000003,488.98388650000004,489.10153249999996,,,,,down,3.0178257999999687,None,space,0.4058400999999776,None,,,,,,,,,,,,P114,001,2024-11-19_13h58.45.886,posner_endo_new1,2024.2.4,60.02617141073639,2024-11-19 13h58.53.218602 +0000,
0.005,-0.31,6,6,0,up,2.4180807000000186,None,space,0.2893889000000627,None,,,,,0,6,6,6,,,,,489.1170326,,,,,,,,,,,,489.10177020000003,489.1170326,489.1170326,491.54903079999997,,,,491.54937689999997,491.5646487,491.5646487,491.5646487,491.8643091,491.865729,,,,,up,2.4180807000000186,None,space,0.2893889000000627,None,,,,,,,,,,,,P114,001,2024-11-19_13h58.45.886,posner_endo_new1,2024.2.4,60.02617141073639,2024-11-19 13h58.53.218602 +0000,
10,0.005,7,7,0,down,2.566206700000066,None,None,,,,,,,0,7,7,7,,,,,491.88098920000004,,,,,,,,,,,,491.86596910000003,491.88098920000004,491.88098920000004,494.4627113,,,,494.4630575,494.47823040000003,494.47823040000003,494.47823040000003,494.77789229999996,497.47550950000004,,,,495.4772806,down,2.566206700000066,None,None,,,,,,,,,,,,,,P114,001,2024-11-19_13h58.45.886,posner_endo_new1,2024.2.4,60.02617141073639,2024-11-19 13h58.53.218602 +0000,
-0.31,0.005,8,8,0,down,3.0994922999999517,None,space,0.5282638999999563,None,,,,,0,8,8,8,,,,,497.4919403,,,,,,,,,,,,497.4757403,497.4919403,497.4919403,500.60640290000003,,,,500.60675390000006,500.62206949999995,500.62206949999995,500.62206949999995,500.92167630000006,501.15589539999996,,,,,down,3.0994922999999517,None,space,0.5282638999999563,None,,,,,,,,,,,,P114,001,2024-11-19_13h58.45.886,posner_endo_new1,2024.2.4,60.02617141073639,2024-11-19 13h58.53.218602 +0000,
0.005,0.31,9,9,0,up,2.6761185000000296,None,space,0.3746844999999439,None,,,,,0,9,9,9,,,,,501.1714981,,,,,,,,,,,,501.15613210000004,501.1714981,501.1714981,503.8530638,,,,503.85340670000005,503.86865910000006,503.86865910000006,503.86865910000006,504.1684299,504.2528323,,,,,up,2.6761185000000296,None,space,0.3746844999999439,None,,,,,,,,,,,,P114,001,2024-11-19_13h58.45.886,posner_endo_new1,2024.2.4,60.02617141073639,2024-11-19 13h58.53.218602 +0000,
0.005,-0.31,10,10,0,down,2.875285100000042,None,space,0.5981967999999824,None,,,,,0,10,10,10,,,,,504.2683505,,,,,,,,,,,,504.25307510000005,504.2683505,504.2683505,507.14995810000005,,,,507.1503053,507.16529260000004,507.16529260000004,507.16529260000004,507.46500519999995,507.7658529,,,,,down,2.875285100000042,None,space,0.5981967999999824,None,,,,,,,,,,,,P114,001,2024-11-19_13h58.45.886,posner_endo_new1,2024.2.4,60.02617141073639,2024-11-19 13h58.53.218602 +0000,
0.005,0.31,11,11,0,up,1.4982916999999816,None,space,0.49421510000001945,None,,,,,0,11,11,11,,,,,507.7814336,,,,,,,,,,,,507.76609140000005,507.7814336,507.7814336,509.28109889999996,,,,509.28144929999996,509.296478,509.296478,509.296478,509.59622679999995,509.7972158,,,,,up,1.4982916999999816,None,space,0.49421510000001945,None,,,,,,,,,,,,P114,001,2024-11-19_13h58.45.886,posner_endo_new1,2024.2.4,60.02617141073639,2024-11-19 13h58.53.218602 +0000,
10,0.005,12,12,0,down,2.707067000000052,None,None,,,,,,,0,12,12,12,,,,,509.8125125,,,,,,,,,,,,509.7974627,509.8125125,509.8125125,512.5277351,,,,512.5280807,512.5431241,512.5431241,512.5431241,512.842637,515.5402277000001,,,,513.5421855,down,2.707067000000052,None,None,,,,,,,,,,,,,,P114,001,2024-11-19_13h58.45.886,posner_endo_new1,2024.2.4,60.02617141073639,2024-11-19 13h58.53.218602 +0000,
0.31,0.005,13,13,0,up,1.0182157000000416,None,space,0.2655654999999797,None,,,,,0,13,13,13,,,,,515.5567917,,,,,,,,,,,,515.5404315,515.5567917,515.5567917,516.5899294,,,,516.5902414,516.6056707,516.6056707,516.6056707,,516.8731931,,,,,up,1.0182157000000416,None,space,0.2655654999999797,None,,,,,,,,,,,,P114,001,2024-11-19_13h58.45.886,posner_endo_new1,2024.2.4,60.02617141073639,2024-11-19 13h58.53.218602 +0000,
10,0.005,14,14,0,down,2.862967700000013,None,None,,,,,,,0,14,14,14,,,,,516.8886539,,,,,,,,,,,,516.8734078,516.8886539,516.8886539,519.7534325,,,,519.7537519,519.7690026,519.7690026,519.7690026,520.0687293,522.766123,,,,520.7846824,down,2.862967700000013,None,None,,,,,,,,,,,,,,P114,001,2024-11-19_13h58.45.886,posner_endo_new1,2024.2.4,60.02617141073639,2024-11-19 13h58.53.218602 +0000,
-0.31,0.005,15,15,0,up,0.2090722000000369,None,space,0.310129599999982,None,,,,,0,15,15,15,,,,,522.7826542,,,,,,,,,,,,522.7663252,522.7826542,522.7826542,523.0001827,,,,523.0004939,523.0156953,523.0156953,523.0156953,523.3153395,523.3328669,,,,,up,0.2090722000000369,None,space,0.310129599999982,None,,,,,,,,,,,,P114,001,2024-11-19_13h58.45.886,posner_endo_new1,2024.2.4,60.02617141073639,2024-11-19 13h58.53.218602 +0000,
0.005,-0.31,16,16,0,down,3.322594900000013,None,space,0.5227041999999074,None,,,,,0,16,16,16,,,,,523.3486303,,,,,,,,,,,,523.3330792,523.3486303,523.3486303,526.6794847,,,,526.6797978,526.6953874,526.6953874,526.6953874,526.9949673,527.2288978,,,,,down,3.322594900000013,None,space,0.5227041999999074,None,,,,,,,,,,,,P114,001,2024-11-19_13h58.45.886,posner_endo_new1,2024.2.4,60.02617141073639,2024-11-19 13h58.53.218602 +0000,
0.005,0.31,17,17,0,up,2.714408599999956,None,space,0.2502332999999908,None,,,,,0,17,17,17,,,,,527.2446436,,,,,,,,,,,,527.2291263,527.2446436,527.2446436,529.9759492000001,,,,529.9762728,529.9919673,529.9919673,529.9919673,,530.2591617,,,,,up,2.714408599999956,None,space,0.2502332999999908,None,,,,,,,,,,,,P114,001,2024-11-19_13h58.45.886,posner_endo_new1,2024.2.4,60.02617141073639,2024-11-19 13h58.53.218602 +0000,
-0.31,0.005,18,18,0,down,2.948630900000012,None,space,0.4911068000000114,None,,,,,0,18,18,18,,,,,530.2749538,,,,,,,,,,,,530.2593795,530.2749538,530.2749538,533.2395533,,,,533.2398739,533.2553502,533.2553502,533.2553502,533.5548968,533.7557304,,,,,down,2.948630900000012,None,space,0.4911068000000114,None,,,,,,,,,,,,P114,001,2024-11-19_13h58.45.886,posner_endo_new1,2024.2.4,60.02617141073639,2024-11-19 13h58.53.218602 +0000,
10,0.005,19,19,0,up,2.0923071999999365,None,None,,,,,,,0,19,19,19,,,,,533.7714429,,,,,,,,,,,,533.755947,533.7714429,533.7714429,535.8702486,,,,535.8705595,535.8858802,535.8858802,535.8858802,536.1855113,538.8830129,,,,536.9015556,up,2.0923071999999365,None,None,,,,,,,,,,,,,,P114,001,2024-11-19_13h58.45.886,posner_endo_new1,2024.2.4,60.02617141073639,2024-11-19 13h58.53.218602 +0000,
0.005,0.31,20,20,0,down,0.1559192999999368,None,space,0.3375888999999006,None,,,,,0,20,20,20,,,,,538.8993006,,,,,,,,,,,,538.8832129,538.8993006,538.8993006,539.0669075,,,,539.0672238,539.0825781,539.0825781,539.0825781,539.382291,539.4331788,,,,,down,0.1559192999999368,None,space,0.3375888999999006,None,,,,,,,,,,,,P114,001,2024-11-19_13h58.45.886,posner_endo_new1,2024.2.4,60.02617141073639,2024-11-19 13h58.53.218602 +0000,
0.005,-0.31,21,21,0,up,2.6477703000000474,None,space,0.3580709000000297,None,,,,,0,21,21,21,,,,,539.4488521,,,,,,,,,,,,539.4333895,539.4488521,539.4488521,542.0974067,,,,542.0976601,542.1128202,542.1128202,542.1128202,542.4125844,542.4800216,,,,,up,2.6477703000000474,None,space,0.3580709000000297,None,,,,,,,,,,,,P114,001,2024-11-19_13h58.45.886,posner_endo_new1,2024.2.4,60.02617141073639,2024-11-19 13h58.53.218602 +0000,
0.005,0.31,22,22,0,down,2.8793316000000004,None,space,0.5323329000000285,None,,,,,0,22,22,22,,,,,542.4959039,,,,,,,,,,,,542.4801833,542.4959039,542.4959039,545.3772509,,,,545.377503,545.3930131,545.3930131,545.3930131,545.6928234,545.9264827,,,,,down,2.8793316000000004,None,space,0.5323329000000285,None,,,,,,,,,,,,P114,001,2024-11-19_13h58.45.886,posner_endo_new1,2024.2.4,60.02617141073639,2024-11-19 13h58.53.218602 +0000,
0.31,0.005,23,23,0,up,2.6891292999999905,None,space,0.3403622999999243,None,,,,,0,23,23,23,,,,,545.9423368,,,,,,,,,,,,545.9266459,545.9423368,545.9423368,548.6402284,,,,548.6404791,548.6560711,548.6560711,548.6560711,548.9557315,549.0066316,,,,,up,2.6891292999999905,None,space,0.3403622999999243,None,,,,,,,,,,,,P114,001,2024-11-19_13h58.45.886,posner_endo_new1,2024.2.4,60.02617141073639,2024-11-19 13h58.53.218602 +0000,
0.005,0.31,24,24,0,up,5.401324399999908,None,space,0.32231130000002395,None,,,,,0,24,24,24,,,,,549.0225708,,,,,,,,,,,,549.0067956,549.0225708,549.0225708,554.4342694,,,,554.4345353,554.4502839,554.4502839,554.4502839,554.7499383,554.7840997,,,,,up,5.401324399999908,None,space,0.32231130000002395,None,,,,,,,,,,,,P114,001,2024-11-19_13h58.45.886,posner_endo_new1,2024.2.4,60.02617141073639,2024-11-19 13h58.53.218602 +0000,
0.31,0.005,25,25,0,down,2.863213500000029,None,space,0.3620690000000195,None,,,,,0,25,25,25,,,,,554.8000125,,,,,,,,,,,,554.7842679,554.8000125,554.8000125,557.6646847,,,,557.664936,557.6803143,557.6803143,557.6803143,557.9800179,558.0476553,,,,,down,2.863213500000029,None,space,0.3620690000000195,None,,,,,,,,,,,,P114,001,2024-11-19_13h58.45.886,posner_endo_new1,2024.2.4,60.02617141073639,2024-11-19 13h58.53.218602 +0000,
10,0.005,26,26,0,up,2.4079973999999993,None,None,,,,,,,0,26,26,26,,,,,558.0633065,,,,,,,,,,,,558.0478254,558.0633065,558.0633065,560.4793891,,,,560.48001,560.4939636,560.4939636,560.4939636,560.7936558,563.4912068,,,,561.5095886,up,2.4079973999999993,None,None,,,,,,,,,,,,,,P114,001,2024-11-19_13h58.45.886,posner_endo_new1,2024.2.4,60.02617141073639,2024-11-19 13h58.53.218602 +0000,
10,0.005,27,27,0,down,0.0769074999999475,None,None,,,,,,,0,27,27,27,,,,,563.5076615,,,,,,,,,,,,563.4914644,563.5076615,563.5076615,563.5920098,,,,563.5924061,563.6075321,563.6075321,563.6075321,563.907179,566.6046137,,,,564.6065347,down,0.0769074999999475,None,None,,,,,,,,,,,,,,P114,001,2024-11-19_13h58.45.886,posner_endo_new1,2024.2.4,60.02617141073639,2024-11-19 13h58.53.218602 +0000,
0.005,-0.31,28,28,0,up,0.4025444000000107,None,space,0.2958088000000316,None,,,,,0,28,28,28,,,,,566.6211814,,,,,,,,,,,,566.6047775,566.6211814,566.6211814,567.0381446,,,,567.0384013,567.0541008,567.0541008,567.0541008,567.3537763,567.3545991,,,,,up,0.4025444000000107,None,space,0.2958088000000316,None,,,,,,,,,,,,P114,001,2024-11-19_13h58.45.886,posner_endo_new1,2024.2.4,60.02617141073639,2024-11-19 13h58.53.218602 +0000,
0.31,0.005,29,29,0,down,2.9974025999999867,None,space,0.39341890000002877,None,,,,,0,29,29,29,,,,,567.3704657,,,,,,,,,,,,567.3547622,567.3704657,567.3704657,570.3847372,,,,570.3849944,570.4004821,570.4004821,570.4004821,570.7002181,570.8008818,,,,,down,2.9974025999999867,None,space,0.39341890000002877,None,,,,,,,,,,,,P114,001,2024-11-19_13h58.45.886,posner_endo_new1,2024.2.4,60.02617141073639,2024-11-19 13h58.53.218602 +0000,
10,0.005,30,30,0,up,2.5180382999999438,None,None,,,,,,,0,30,30,30,,,,,570.8170213,,,,,,,,,,,,570.8010468,570.8170213,570.8170213,573.3485081,,,,573.3487646,573.3642600000001,573.3642600000001,573.3642600000001,573.6637927,576.3613043,,,,574.3634338,up,2.5180382999999438,None,None,,,,,,,,,,,,,,P114,001,2024-11-19_13h58.45.886,posner_endo_new1,2024.2.4,60.02617141073639,2024-11-19 13h58.53.218602 +0000,
0.31,0.005,31,31,0,down,0.3094152999999551,None,space,0.35457020000001194,None,,,,,0,31,31,31,,,,,576.3775685,,,,,,,,,,,,576.3614878,576.3775685,576.3775685,576.694833,,,,576.6950853,576.7106906,576.7106906,576.7106906,577.0105474,577.078063,,,,,down,0.3094152999999551,None,space,0.35457020000001194,None,,,,,,,,,,,,P114,001,2024-11-19_13h58.45.886,posner_endo_new1,2024.2.4,60.02617141073639,2024-11-19 13h58.53.218602 +0000,
0.31,0.005,32,32,0,up,4.058115499999985,None,space,0.35255159999996977,None,,,,,0,32,32,32,,,,,577.0936876,,,,,,,,,,,,577.078227,577.0936876,577.0936876,581.1580332,,,,581.1586137,581.1726727,581.1726727,581.1726727,581.472345,581.5408261,,,,,up,4.058115499999985,None,space,0.35255159999996977,None,,,,,,,,,,,,P114,001,2024-11-19_13h58.45.886,posner_endo_new1,2024.2.4,60.02617141073639,2024-11-19 13h58.53.218602 +0000,
10,0.005,33,33,0,down,3.1559967999999117,None,None,,,,,,,0,33,33,33,,,,,581.5556369,,,,,,,,,,,,581.5412488,581.5556369,581.5556369,584.7207511,,,,584.7211456,584.7358702,584.7358702,584.7358702,585.0356995,587.7330168,,,,585.7349218,down,3.1559967999999117,None,None,,,,,,,,,,,,,,P114,001,2024-11-19_13h58.45.886,posner_endo_new1,2024.2.4,60.02617141073639,2024-11-19 13h58.53.218602 +0000,
0.005,-0.31,34,34,0,up,1.2735899000000472,None,space,0.3708718000000317,None,,,,,0,34,34,34,,,,,587.7496002,,,,,,,,,,,,587.733275,587.7496002,587.7496002,589.032787,,,,589.0331827,589.0480698,589.0480698,589.0480698,589.3478195,589.4324876000001,,,,,up,1.2735899000000472,None,space,0.3708718000000317,None,,,,,,,,,,,,P114,001,2024-11-19_13h58.45.886,posner_endo_new1,2024.2.4,60.02617141073639,2024-11-19 13h58.53.218602 +0000,
-0.31,0.005,35,35,0,down,3.175629200000003,None,space,0.42344420000006266,None,,,,,0,35,35,35,,,,,589.4477036,,,,,,,,,,,,589.4327613,589.4477036,589.4477036,592.6291929,,,,592.6295885,592.6445104000001,592.6445104000001,592.6445104000001,592.9441775,593.0785664,,,,,down,3.175629200000003,None,space,0.42344420000006266,None,,,,,,,,,,,,P114,001,2024-11-19_13h58.45.886,posner_endo_new1,2024.2.4,60.02617141073639,2024-11-19 13h58.53.218602 +0000,
-0.31,0.005,36,36,0,up,2.7054712000000336,None,space,0.4756658999999672,None,,,,,0,36,36,36,,,,,593.0940714,,,,,,,,,,,,593.0788396,593.0940714,593.0940714,595.8091852,,,,595.8095824,595.8245657,595.8245657,595.8245657,596.1242813,596.3086491,,,,,up,2.7054712000000336,None,space,0.4756658999999672,None,,,,,,,,,,,,P114,001,2024-11-19_13h58.45.886,posner_endo_new1,2024.2.4,60.02617141073639,2024-11-19 13h58.53.218602 +0000,
10,0.005,37,37,0,down,2.691703299999972,None,None,,,,,,,0,37,37,37,,,,,596.3241512,,,,,,,,,,,,596.3089196,596.3241512,596.3241512,599.0226201,,,,599.0230179,599.037958,599.037958,599.037958,599.3376257,602.0350136,,,,600.0535497,down,2.691703299999972,None,None,,,,,,,,,,,,,,P114,001,2024-11-19_13h58.45.886,posner_endo_new1,2024.2.4,60.02617141073639,2024-11-19 13h58.53.218602 +0000,
0.005,0.31,38,38,0,down,3.3000901999999996,None,space,0.552859900000044,None,,,,,0,38,38,38,,,,,602.0515406,,,,,,,,,,,,602.0352893,602.0515406,602.0515406,605.3661078,,,,605.3665119,605.3815045,605.3815045,605.3815045,605.6811938,605.9487469,,,,,down,3.3000901999999996,None,space,0.552859900000044,None,,,,,,,,,,,,P114,001,2024-11-19_13h58.45.886,posner_endo_new1,2024.2.4,60.02617141073639,2024-11-19 13h58.53.218602 +0000,
0.005,-0.31,39,39,0,up,2.1069881999999325,None,space,0.5763748000000533,None,,,,,0,39,39,39,,,,,605.9641357,,,,,,,,,,,,605.9490307,605.9641357,605.9641357,608.0799032,,,,608.0803061,608.0953999,608.0953999,608.0953999,608.3950393,608.679199,,,,,up,2.1069881999999325,None,space,0.5763748000000533,None,,,,,,,,,,,,P114,001,2024-11-19_13h58.45.886,posner_endo_new1,2024.2.4,60.02617141073639,2024-11-19 13h58.53.218602 +0000,
0.31,0.005,40,40,0,down,2.3128335999999763,None,space,0.3045558000000028,None,,,,,0,40,40,40,,,,,608.6947441,,,,,,,,,,,,608.6794748,608.6947441,608.6947441,611.0102229,,,,611.0106313,611.0257902,611.0257902,611.0257902,611.3254052,611.3431870000001,,,,,down,2.3128335999999763,None,space,0.3045558000000028,None,,,,,,,,,,,,P114,001,2024-11-19_13h58.45.886,posner_endo_new1,2024.2.4,60.02617141073639,2024-11-19 13h58.53.218602 +0000,
-0.31,0.005,41,41,0,up,2.2413080999999693,None,space,0.29586729999994077,None,,,,,0,41,41,41,,,,,611.3587541,,,,,,,,,,,,611.3434655,611.3587541,611.3587541,613.6075453,,,,613.6079373,613.623013,613.623013,613.623013,613.9228105,613.9242648,,,,,up,2.2413080999999693,None,space,0.29586729999994077,None,,,,,,,,,,,,P114,001,2024-11-19_13h58.45.886,posner_endo_new1,2024.2.4,60.02617141073639,2024-11-19 13h58.53.218602 +0000,
0.31,0.005,42,42,0,down,3.5482972999999447,None,space,0.44427200000006906,None,,,,,0,42,42,42,,,,,613.9393024,,,,,,,,,,,,613.9245438,613.9393024,613.9393024,617.5036396,,,,617.5040366,617.5190747,617.5190747,617.5190747,617.8186473,617.9698141,,,,,down,3.5482972999999447,None,space,0.44427200000006906,None,,,,,,,,,,,,P114,001,2024-11-19_13h58.45.886,posner_endo_new1,2024.2.4,60.02617141073639,2024-11-19 13h58.53.218602 +0000,
10,0.005,43,43,0,up,1.583137699999952,None,None,,,,,,,0,43,43,43,,,,,617.9852168,,,,,,,,,,,,617.9700846,617.9852168,617.9852168,619.5848409,,,,619.5852293,619.6002478,619.6002478,619.6002478,619.8998652,622.5972977,,,,620.6159056,up,1.583137699999952,None,None,,,,,,,,,,,,,,P114,001,2024-11-19_13h58.45.886,posner_endo_new1,2024.2.4,60.02617141073639,2024-11-19 13h58.53.218602 +0000,
-0.31,0.005,44,44,0,down,0.6255007000000887,None,space,0.25814070000001266,None,,,,,0,44,44,44,,,,,622.6138876,,,,,,,,,,,,622.5975534,622.6138876,622.6138876,623.247944,,,,623.2483479,623.2630847,623.2630847,623.2630847,,623.5306749,,,,,down,0.6255007000000887,None,space,0.25814070000001266,None,,,,,,,,,,,,P114,001,2024-11-19_13h58.45.886,posner_endo_new1,2024.2.4,60.02617141073639,2024-11-19 13h58.53.218602 +0000,
0.005,0.31,45,45,0,up,3.2622804000000087,None,space,0.32615019999991546,None,,,,,0,45,45,45,,,,,623.5462379,,,,,,,,,,,,623.5309503,623.5462379,623.5462379,626.8108568,,,,626.811249,626.8261289,626.8261289,626.8261289,627.1258842,627.1605841,,,,,up,3.2622804000000087,None,space,0.32615019999991546,None,,,,,,,,,,,,P114,001,2024-11-19_13h58.45.886,posner_endo_new1,2024.2.4,60.02617141073639,2024-11-19 13h58.53.218602 +0000,
0.005,-0.31,46,46,0,down,4.256047999999964,None,space,0.2689659999999776,None,,,,,0,46,46,46,,,,,627.1758192,,,,,,,,,,,,627.1608602,627.1758192,627.1758192,631.4393113,,,,631.4397005,631.4547362,631.4547362,631.4547362,631.7545624,631.7391385,,,,,down,4.256047999999964,None,space,0.2689659999999776,None,,,,,,,,,,,,P114,001,2024-11-19_13h58.45.886,posner_endo_new1,2024.2.4,60.02617141073639,2024-11-19 13h58.53.218602 +0000,
-0.31,0.005,47,47,0,up,3.1891104999999698,None,space,0.45817319999991923,None,,,,,0,47,47,47,,,,,631.7545624,,,,,,,,,,,,631.7394118,631.7545624,631.7545624,634.9519894,,,,634.9522668,634.9678957,634.9678957,634.9678957,635.2676672,635.4349082,,,,,up,3.1891104999999698,None,space,0.45817319999991923,None,,,,,,,,,,,,P114,001,2024-11-19_13h58.45.886,posner_endo_new1,2024.2.4,60.02617141073639,2024-11-19 13h58.53.218602 +0000,
0.005,-0.31,48,48,0,down,3.1569101000000046,None,space,0.2740043000000014,None,,,,,0,48,48,48,,,,,635.4507227,,,,,,,,,,,,635.4351039000001,635.4507227,635.4507227,638.6149495,,,,638.615229,638.6307703,638.6307703,638.6307703,638.9304201,638.9146893,,,,,down,3.1569101000000046,None,space,0.2740043000000014,None,,,,,,,,,,,,P114,001,2024-11-19_13h58.45.886,posner_endo_new1,2024.2.4,60.02617141073639,2024-11-19 13h58.53.218602 +0000,
0.005,-0.31,49,49,0,up,1.9248092999999926,None,space,0.4594763000000057,None,,,,,0,49,49,49,,,,,638.9304201,,,,,,,,,,,,638.9148874,638.9304201,638.9304201,640.8625463,,,,640.8628265,640.8784397000001,640.8784397000001,640.8784397000001,641.1782903,641.3455413,,,,,up,1.9248092999999926,None,space,0.4594763000000057,None,,,,,,,,,,,,P114,001,2024-11-19_13h58.45.886,posner_endo_new1,2024.2.4,60.02617141073639,2024-11-19 13h58.53.218602 +0000,
0.005,0.31,50,50,0,down,2.413654700000052,None,space,0.3737363999999843,None,,,,,0,50,50,50,,,,,641.3612794000001,,,,,,,,,,,,641.3457288,641.3612794000001,641.3612794000001,643.7766893,,,,643.7769859,643.7922243,643.7922243,643.7922243,644.0915566,644.1760518,,,,,down,2.413654700000052,None,space,0.3737363999999843,None,,,,,,,,,,,,P114,001,2024-11-19_13h58.45.886,posner_endo_new1,2024.2.4,60.02617141073639,2024-11-19 13h58.53.218602 +0000,
0.31,0.005,51,51,0,up,2.7121660999999904,None,space,0.3241028999999571,None,,,,,0,51,51,51,,,,,644.191852,,,,,,,,,,,,644.1762435,644.191852,644.191852,646.9067179,,,,646.9069954,646.9222204,646.9222204,646.9222204,647.2218987,647.2561724,,,,,up,2.7121660999999904,None,space,0.3241028999999571,None,,,,,,,,,,,,P114,001,2024-11-19_13h58.45.886,posner_endo_new1,2024.2.4,60.02617141073639,2024-11-19 13h58.53.218602 +0000,
0.31,0.005,52,52,0,down,3.7769413999999415,None,space,0.24749550000001364,None,,,,,0,52,52,52,,,,,647.2718717,,,,,,,,,,,,647.2563605,647.2718717,647.2718717,651.052443,,,,651.0527225,651.0680375000001,651.0680375000001,651.0680375000001,,651.3186367,,,,,down,3.7769413999999415,None,space,0.24749550000001364,None,,,,,,,,,,,,P114,001,2024-11-19_13h58.45.886,posner_endo_new1,2024.2.4,60.02617141073639,2024-11-19 13h58.53.218602 +0000,
0.005,0.31,53,53,0,up,3.1286555000000362,None,space,0.36815009999997983,None,,,,,0,53,53,53,,,,,651.334412,,,,,,,,,,,,651.3188241,651.334412,651.334412,654.4654644,,,,654.4657483,654.4811567,654.4811567,654.4811567,654.7809096,654.865054,,,,,up,3.1286555000000362,None,space,0.36815009999997983,None,,,,,,,,,,,,P114,001,2024-11-19_13h58.45.886,posner_endo_new1,2024.2.4,60.02617141073639,2024-11-19 13h58.53.218602 +0000,
-0.31,0.005,54,54,0,down,3.2787364000000707,None,space,0.27587710000000243,None,,,,,0,54,54,54,,,,,654.8807991,,,,,,,,,,,,654.8652422,654.8807991,654.8807991,658.1615989000001,,,,658.1618776,658.1774226,658.1774226,658.1774226,658.4772254,658.4612595,,,,,down,3.2787364000000707,None,space,0.27587710000000243,None,,,,,,,,,,,,P114,001,2024-11-19_13h58.45.886,posner_endo_new1,2024.2.4,60.02617141073639,2024-11-19 13h58.53.218602 +0000,
10,0.005,55,55,0,up,2.4340093000000707,None,None,,,,,,,0,55,55,55,,,,,658.4772254,,,,,,,,,,,,658.4614484,658.4772254,658.4772254,660.9252981,,,,660.9255807,660.9412651,660.9412651,660.9412651,661.2409414,663.9384758,,,,661.9568585,up,2.4340093000000707,None,None,,,,,,,,,,,,,,P114,001,2024-11-19_13h58.45.886,posner_endo_new1,2024.2.4,60.02617141073639,2024-11-19 13h58.53.218602 +0000,
0.31,0.005,56,56,0,down,1.092449600000009,None,space,0.2745019000000184,None,,,,,0,56,56,56,,,,,663.9550492,,,,,,,,,,,,663.9386588,663.9550492,663.9550492,665.0545078,,,,665.0547835,665.0703517,665.0703517,665.0703517,665.3700582,665.354277,,,,,down,1.092449600000009,None,space,0.2745019000000184,None,,,,,,,,,,,,P114,001,2024-11-19_13h58.45.886,posner_endo_new1,2024.2.4,60.02617141073639,2024-11-19 13h58.53.218602 +0000,
0.005,0.31,57,57,0,up,2.4130153000000973,None,space,0.3349358000000393,None,,,,,0,57,57,57,,,,,665.3700582,,,,,,,,,,,,665.3544626,665.3700582,665.3700582,667.7851631,,,,667.785442,667.8009009,667.8009009,667.8009009,668.1005583,668.1515338,,,,,up,2.4130153000000973,None,space,0.3349358000000393,None,,,,,,,,,,,,P114,001,2024-11-19_13h58.45.886,posner_endo_new1,2024.2.4,60.02617141073639,2024-11-19 13h58.53.218602 +0000,
-0.31,0.005,58,58,0,down,3.2961229000000003,None,space,0.2723323000000164,None,,,,,0,58,58,58,,,,,668.1670861,,,,,,,,,,,,668.1517283000001,668.1670861,668.1670861,671.4648743,,,,671.4651558,671.4803529,671.4803529,671.4803529,671.780289,671.7643835,,,,,down,3.2961229000000003,None,space,0.2723323000000164,None,,,,,,,,,,,,P114,001,2024-11-19_13h58.45.886,posner_endo_new1,2024.2.4,60.02617141073639,2024-11-19 13h58.53.218602 +0000,
-0.31,0.005,59,59,0,up,2.4111972000000605,None,space,0.33072279999998955,None,,,,,0,59,59,59,,,,,671.780289,,,,,,,,,,,,671.7645728,671.780289,671.780289,674.1953911,,,,674.1956752,674.2109069,674.2109069,674.2109069,674.5106274,674.5449332000001,,,,,up,2.4111972000000605,None,space,0.33072279999998955,None,,,,,,,,,,,,P114,001,2024-11-19_13h58.45.886,posner_endo_new1,2024.2.4,60.02617141073639,2024-11-19 13h58.53.218602 +0000,
,,,,,,,,,,,,,,,,,,,,,,,,,,,,,,,,,,,,,,,,,,,,,,,,,,,,,,,,,,674.5450576,674.5607141,674.5607141,734.5336071,None,,,,,,,P114,001,2024-11-19_13h58.45.886,posner_endo_new1,2024.2.4,60.02617141073639,2024-11-19 13h58.53.218602 +0000,
,,,,,,,,,,,,,,,,,,,,,,,,,,,,,,,,734.5336792,734.5493629,737.5463534,,,,,,,,,,,,,,,,,,,,,,,,,,,,,,,,,,,P114,001,2024-11-19_13h58.45.886,posner_endo_new1,2024.2.4,60.02617141073639,2024-11-19 13h58.53.218602 +0000,
0.005,0.31,0,0,0,up,17.86374349999994,None,space,0.3715383999999631,None,,,,,,,,,0,0,0,0,737.5678398,,,,,,,,,,,,737.5595475,737.5678398,737.5678398,755.4472264,,,,755.4480791,755.4617711,755.4617711,755.4617711,755.7610245,755.8466806,,,,,,,,,,,,,,,,up,17.86374349999994,None,space,0.3715383999999631,None,P114,001,2024-11-19_13h58.45.886,posner_endo_new1,2024.2.4,60.02617141073639,2024-11-19 13h58.53.218602 +0000,
-0.31,0.005,1,1,0,down,3.5065236999998888,None,space,0.43035299999996823,None,,,,,,,,,0,1,1,1,755.8608908,,,,,,,,,,,,755.8472514,755.8608908,755.8608908,759.3763974,,,,759.3771831,759.3909606,759.3909606,759.3909606,759.6903878,759.8261023,,,,,,,,,,,,,,,,down,3.5065236999998888,None,space,0.43035299999996823,None,P114,001,2024-11-19_13h58.45.886,posner_endo_new1,2024.2.4,60.02617141073639,2024-11-19 13h58.53.218602 +0000,
0.005,-0.31,2,2,0,up,2.615116499999999,None,space,0.306141499999967,None,,,,,,,,,0,2,2,2,759.8402004,,,,,,,,,,,,759.826688,759.8402004,759.8402004,762.4729435,,,,762.4736977,762.4875118,762.4875118,762.4875118,762.7871798,762.8062983,,,,,,,,,,,,,,,,up,2.615116499999999,None,space,0.306141499999967,None,P114,001,2024-11-19_13h58.45.886,posner_endo_new1,2024.2.4,60.02617141073639,2024-11-19 13h58.53.218602 +0000,
0.31,0.005,3,3,0,down,2.5789777999999615,None,space,0.35988179999992553,None,,,,,,,,,0,3,3,3,762.8204985,,,,,,,,,,,,762.8068727,762.8204985,762.8204985,765.4038428,,,,765.4046255,765.4182777,765.4182777,765.4182777,765.7175536,765.7865435,,,,,,,,,,,,,,,,down,2.5789777999999615,None,space,0.35988179999992553,None,P114,001,2024-11-19_13h58.45.886,posner_endo_new1,2024.2.4,60.02617141073639,2024-11-19 13h58.53.218602 +0000,
0.005,0.31,4,4,0,up,2.9907175000000734,None,space,0.42539990000000216,None,,,,,,,,,0,4,4,4,765.8007778,,,,,,,,,,,,765.7871566,765.8007778,765.8007778,768.8004747,,,,768.8012591,768.8148087,768.8148087,768.8148087,769.114061,769.2500272,,,,,,,,,,,,,,,,up,2.9907175000000734,None,space,0.42539990000000216,None,P114,001,2024-11-19_13h58.45.886,posner_endo_new1,2024.2.4,60.02617141073639,2024-11-19 13h58.53.218602 +0000,
0.005,-0.31,5,5,0,down,2.5678461999999627,None,space,0.3519994000000679,None,,,,,,,,,0,5,5,5,769.2639221000001,,,,,,,,,,,,769.2505964,769.2639221000001,769.2639221000001,771.8468972000001,,,,771.8477062,771.8614988,771.8614988,771.8614988,772.1609524,772.2299085,,,,,,,,,,,,,,,,down,2.5678461999999627,None,space,0.3519994000000679,None,P114,001,2024-11-19_13h58.45.886,posner_endo_new1,2024.2.4,60.02617141073639,2024-11-19 13h58.53.218602 +0000,
-0.31,0.005,6,6,0,up,2.8667715999999928,None,space,0.29208459999995284,None,,,,,,,,,0,6,6,6,772.2442101,,,,,,,,,,,,772.2304746,772.2442101,772.2442101,775.1270058,,,,775.1277883,775.1415788,775.1415788,775.1415788,775.4409088,775.4435166,,,,,,,,,,,,,,,,up,2.8667715999999928,None,space,0.29208459999995284,None,P114,001,2024-11-19_13h58.45.886,posner_endo_new1,2024.2.4,60.02617141073639,2024-11-19 13h58.53.218602 +0000,
0.005,0.31,7,7,0,down,2.645670199999927,None,space,0.4509931999999708,None,,,,,,,,,0,7,7,7,775.4575916,,,,,,,,,,,,775.4440896,775.4575916,775.4575916,778.1074954,,,,778.1082863,778.1218934,778.1218934,778.1218934,778.4211896,778.5903019,,,,,,,,,,,,,,,,down,2.645670199999927,None,space,0.4509931999999708,None,P114,001,2024-11-19_13h58.45.886,posner_endo_new1,2024.2.4,60.02617141073639,2024-11-19 13h58.53.218602 +0000,
0.31,0.005,8,8,0,up,2.658831100000043,None,space,0.2714836000000105,None,,,,,,,,,0,8,8,8,778.6043836,,,,,,,,,,,,778.590875,778.6043836,778.6043836,781.2693245,,,,781.2696781,781.2848104,781.2848104,781.2848104,781.5846329,781.5690284,,,,,,,,,,,,,,,,up,2.658831100000043,None,space,0.2714836000000105,None,P114,001,2024-11-19_13h58.45.886,posner_endo_new1,2024.2.4,60.02617141073639,2024-11-19 13h58.53.218602 +0000,
10,0.005,9,9,0,down,2.8466227999999774,None,None,,,,,,,,,,,0,9,9,9,781.5846329,,,,,,,,,,,,781.5692784,781.5846329,781.5846329,784.4328735,,,,784.433231,784.4482055,784.4482055,784.4482055,784.7480289,787.4453059,,,,785.4471594,,,,,,,,,,,,down,2.8466227999999774,None,None,,,P114,001,2024-11-19_13h58.45.886,posner_endo_new1,2024.2.4,60.02617141073639,2024-11-19 13h58.53.218602 +0000,
0.31,0.005,10,10,0,down,3.5780482999999776,None,space,0.5284091999999418,None,,,,,,,,,0,10,10,10,787.4619094,,,,,,,,,,,,787.4455394,787.4619094,787.4619094,791.0427268,,,,791.0430979,791.0582156,791.0582156,791.0582156,791.3577886,791.5920437,,,,,,,,,,,,,,,,down,3.5780482999999776,None,space,0.5284091999999418,None,P114,001,2024-11-19_13h58.45.886,posner_endo_new1,2024.2.4,60.02617141073639,2024-11-19 13h58.53.218602 +0000,
0.005,0.31,11,11,0,up,2.496413700000062,None,space,0.30411770000000615,None,,,,,,,,,0,11,11,11,791.607576,,,,,,,,,,,,791.592282,791.607576,791.607576,794.1063695,,,,794.1067145,794.1216389,794.1216389,794.1216389,794.4213693,794.439194,,,,,,,,,,,,,,,,up,2.496413700000062,None,space,0.30411770000000615,None,P114,001,2024-11-19_13h58.45.886,posner_endo_new1,2024.2.4,60.02617141073639,2024-11-19 13h58.53.218602 +0000,
10,0.005,12,12,0,down,3.033129200000076,None,None,,,,,,,,,,,0,12,12,12,794.4545961,,,,,,,,,,,,794.4394313,794.4545961,794.4545961,797.502659,,,,797.5030014,797.5182365000001,797.5182365000001,797.5182365000001,797.8180476,800.5153093,,,,798.5338912,,,,,,,,,,,,down,3.033129200000076,None,None,,,P114,001,2024-11-19_13h58.45.886,posner_endo_new1,2024.2.4,60.02617141073639,2024-11-19 13h58.53.218602 +0000,
-0.31,0.005,13,13,0,down,2.363848399999938,None,space,0.45475870000007035,None,,,,,,,,,0,13,13,13,800.5317705,,,,,,,,,,,,800.5155383,800.5317705,800.5317705,802.8972346,,,,802.8976144,802.9126524,802.9126524,802.9126524,803.2124888,803.379881,,,,,,,,,,,,,,,,down,2.363848399999938,None,space,0.45475870000007035,None,P114,001,2024-11-19_13h58.45.886,posner_endo_new1,2024.2.4,60.02617141073639,2024-11-19 13h58.53.218602 +0000,
0.31,0.005,14,14,0,up,2.69187270000009,None,space,0.38183970000000045,None,,,,,,,,,0,14,14,14,803.3954448,,,,,,,,,,,,803.3801235,803.3954448,803.3954448,806.0938468,,,,806.0941902,806.1093749,806.1093749,806.1093749,806.4091267,806.4936139,,,,,,,,,,,,,,,,up,2.69187270000009,None,space,0.38183970000000045,None,P114,001,2024-11-19_13h58.45.886,posner_endo_new1,2024.2.4,60.02617141073639,2024-11-19 13h58.53.218602 +0000,
0.005,-0.31,15,15,0,down,2.666389800000047,None,space,0.3140216000000464,None,,,,,,,,,0,15,15,15,806.5089787000001,,,,,,,,,,,,806.4938573000001,806.5089787000001,806.5089787000001,809.1907551,,,,809.1910988,809.2061685,809.2061685,809.2061685,809.5060234,809.5237388,,,,,,,,,,,,,,,,down,2.666389800000047,None,space,0.3140216000000464,None,P114,001,2024-11-19_13h58.45.886,posner_endo_new1,2024.2.4,60.02617141073639,2024-11-19 13h58.53.218602 +0000,
0.31,0.005,16,16,0,up,2.804290100000003,None,space,0.28258389999996325,None,,,,,,,,,0,16,16,16,809.5391981,,,,,,,,,,,,809.5239803,809.5391981,809.5391981,812.3541568,,,,812.3545084,812.3697675,812.3697675,812.3697675,812.6693519,812.654011,,,,,,,,,,,,,,,,up,2.804290100000003,None,space,0.28258389999996325,None,P114,001,2024-11-19_13h58.45.886,posner_endo_new1,2024.2.4,60.02617141073639,2024-11-19 13h58.53.218602 +0000,
0.31,0.005,17,17,0,down,2.4498912000000246,None,space,0.2909357999999429,None,,,,,,,,,0,17,17,17,812.6693519,,,,,,,,,,,,812.6542567,812.6693519,812.6693519,815.134612,,,,815.1349645,815.1501884,815.1501884,815.1501884,815.4498447,815.4510109,,,,,,,,,,,,,,,,down,2.4498912000000246,None,space,0.2909357999999429,None,P114,001,2024-11-19_13h58.45.886,posner_endo_new1,2024.2.4,60.02617141073639,2024-11-19 13h58.53.218602 +0000,
0.005,-0.31,18,18,0,up,2.3725438999999824,None,space,0.2689769000000979,None,,,,,,,,,0,18,18,18,815.466537,,,,,,,,,,,,815.451261,815.466537,815.466537,817.8484192,,,,817.8487646,817.8640873,817.8640873,817.8640873,818.1637017,818.1482758,,,,,,,,,,,,,,,,up,2.3725438999999824,None,space,0.2689769000000979,None,P114,001,2024-11-19_13h58.45.886,posner_endo_new1,2024.2.4,60.02617141073639,2024-11-19 13h58.53.218602 +0000,
0.005,-0.31,19,19,0,down,3.284032199999956,None,space,0.3264533000000256,None,,,,,,,,,0,19,19,19,818.1637017,,,,,,,,,,,,818.1485179,818.1637017,818.1637017,821.4615297,,,,821.4618805,821.4770387,821.4770387,821.4770387,821.7768322000001,821.8110682,,,,,,,,,,,,,,,,down,3.284032199999956,None,space,0.3264533000000256,None,P114,001,2024-11-19_13h58.45.886,posner_endo_new1,2024.2.4,60.02617141073639,2024-11-19 13h58.53.218602 +0000,
10,0.005,20,20,0,up,2.124299800000017,None,None,,,,,,,,,,,0,20,20,20,821.8266227,,,,,,,,,,,,821.8113093,821.8266227,821.8266227,823.9588197,,,,823.9591668,823.9745383,823.9745383,823.9745383,824.2743193,826.971618,,,,824.9901576,,,,,,,,,,,,up,2.124299800000017,None,None,,,P114,001,2024-11-19_13h58.45.886,posner_endo_new1,2024.2.4,60.02617141073639,2024-11-19 13h58.53.218602 +0000,
0.005,-0.31,21,21,0,down,1.2274588999999878,None,space,0.33353950000002897,None,,,,,,,,,0,21,21,21,826.988019,,,,,,,,,,,,826.9718468,826.988019,826.988019,828.2210667,,,,828.2214157,828.2367743,828.2367743,828.2367743,828.5365192,828.5874986,,,,,,,,,,,,,,,,down,1.2274588999999878,None,space,0.33353950000002897,None,P114,001,2024-11-19_13h58.45.886,posner_endo_new1,2024.2.4,60.02617141073639,2024-11-19 13h58.53.218602 +0000,
0.005,0.31,22,22,0,up,3.980069999999955,None,space,0.355273400000101,None,,,,,,,,,0,22,22,22,828.6031181,,,,,,,,,,,,828.5877523,828.6031181,828.6031181,832.60003,,,,832.6003788,832.6156924000001,832.6156924000001,832.6156924000001,832.9153858,832.9831107,,,,,,,,,,,,,,,,up,3.980069999999955,None,space,0.355273400000101,None,P114,001,2024-11-19_13h58.45.886,posner_endo_new1,2024.2.4,60.02617141073639,2024-11-19 13h58.53.218602 +0000,
0.31,0.005,23,23,0,down,3.416348800000037,None,space,0.40277070000001913,None,,,,,,,,,0,23,23,23,832.9985602,,,,,,,,,,,,832.983355,832.9985602,832.9985602,836.4294242,,,,836.4297742,836.4450648,836.4450648,836.4450648,836.7447323,836.8623609,,,,,,,,,,,,,,,,down,3.416348800000037,None,space,0.40277070000001913,None,P114,001,2024-11-19_13h58.45.886,posner_endo_new1,2024.2.4,60.02617141073639,2024-11-19 13h58.53.218602 +0000,
-0.31,0.005,24,24,0,up,3.5219481000000314,None,space,0.46056210000006104,None,,,,,,,,,0,24,24,24,836.8779538,,,,,,,,,,,,836.8626124,836.8779538,836.8779538,840.4086421,,,,840.4089934,840.4243356,840.4243356,840.4243356,840.7238649,840.8916818,,,,,,,,,,,,,,,,up,3.5219481000000314,None,space,0.46056210000006104,None,P114,001,2024-11-19_13h58.45.886,posner_endo_new1,2024.2.4,60.02617141073639,2024-11-19 13h58.53.218602 +0000,
10,0.005,25,25,0,down,8.252288799999974,None,None,,,,,,,,,,,0,25,25,25,840.9072236,,,,,,,,,,,,840.8919347,840.9072236,840.9072236,849.1664788,,,,849.1668266,849.1819679,849.1819679,849.1819679,849.4817132000001,852.179273,,,,850.1976402,,,,,,,,,,,,down,8.252288799999974,None,None,,,P114,001,2024-11-19_13h58.45.886,posner_endo_new1,2024.2.4,60.02617141073639,2024-11-19 13h58.53.218602 +0000,
0.005,0.31,26,26,0,down,3.3244442000000163,None,space,0.45733340000003864,None,,,,,,,,,0,26,26,26,852.1955395,,,,,,,,,,,,852.1794348,852.1955395,852.1955395,855.5259884,,,,855.5262437,855.5422058,855.5422058,855.5422058,855.8419058,856.009168,,,,,,,,,,,,,,,,down,3.3244442000000163,None,space,0.45733340000003864,None,P114,001,2024-11-19_13h58.45.886,posner_endo_new1,2024.2.4,60.02617141073639,2024-11-19 13h58.53.218602 +0000,
0.31,0.005,27,27,0,up,2.4155133000000433,None,space,0.3383971000000656,None,,,,,,,,,0,27,27,27,856.0251028,,,,,,,,,,,,856.0093353,856.0251028,856.0251028,858.4565616,,,,858.4568305,858.4723065000001,858.4723065000001,858.4723065000001,858.7722234,858.8229845,,,,,,,,,,,,,,,,up,2.4155133000000433,None,space,0.3383971000000656,None,P114,001,2024-11-19_13h58.45.886,posner_endo_new1,2024.2.4,60.02617141073639,2024-11-19 13h58.53.218602 +0000,
0.005,0.31,28,28,0,down,3.5448266999999305,None,space,0.32806089999996857,None,,,,,,,,,0,28,28,28,858.8388907,,,,,,,,,,,,858.8231529,858.8388907,858.8388907,862.3859704,,,,862.3862219,862.4018965,862.4018965,862.4018965,862.7015713,862.7358135,,,,,,,,,,,,,,,,down,3.5448266999999305,None,space,0.32806089999996857,None,P114,001,2024-11-19_13h58.45.886,posner_endo_new1,2024.2.4,60.02617141073639,2024-11-19 13h58.53.218602 +0000,
10,0.005,29,29,0,up,3.0250674999999774,None,None,,,,,,,,,,,0,29,29,29,862.7513664,,,,,,,,,,,,862.7359833,862.7513664,862.7513664,865.7827052,,,,865.7829602,865.7983078,865.7983078,865.7983078,866.0981278,868.7953953,,,,866.7974751,,,,,,,,,,,,up,3.0250674999999774,None,None,,,P114,001,2024-11-19_13h58.45.886,posner_endo_new1,2024.2.4,60.02617141073639,2024-11-19 13h58.53.218602 +0000,
0.005,-0.31,30,30,0,down,1.7957816000000548,None,space,0.35670809999999165,None,,,,,,,,,0,30,30,30,868.8117543,,,,,,,,,,,,868.7958224,868.8117543,868.8117543,870.6121287,,,,870.612759,870.626545,870.626545,870.626545,870.9263056,870.9949266,,,,,,,,,,,,,,,,down,1.7957816000000548,None,space,0.35670809999999165,None,P114,001,2024-11-19_13h58.45.886,posner_endo_new1,2024.2.4,60.02617141073639,2024-11-19 13h58.53.218602 +0000,
0.31,0.005,31,31,0,up,4.998013399999991,None,space,0.5513514000000441,None,,,,,,,,,0,31,31,31,871.009469,,,,,,,,,,,,870.9954008,871.009469,871.009469,876.0230272,,,,876.0236743,876.0376878,876.0376878,876.0376878,876.3374256,876.6057905,,,,,,,,,,,,,,,,up,4.998013399999991,None,space,0.5513514000000441,None,P114,001,2024-11-19_13h58.45.886,posner_endo_new1,2024.2.4,60.02617141073639,2024-11-19 13h58.53.218602 +0000,
10,0.005,32,32,0,down,3.0111307999999326,None,None,,,,,,,,,,,0,32,32,32,876.6204044,,,,,,,,,,,,876.6062455,876.6204044,876.6204044,879.6362457,,,,879.6368911,879.6506734,879.6506734,879.6506734,879.9503485,882.647889,,,,880.6498414,,,,,,,,,,,,down,3.0111307999999326,None,None,,,P114,001,2024-11-19_13h58.45.886,posner_endo_new1,2024.2.4,60.02617141073639,2024-11-19 13h58.53.218602 +0000,
-0.31,0.005,33,33,0,down,3.287137400000006,None,space,0.5964267999999038,None,,,,,,,,,0,33,33,33,882.6643661,,,,,,,,,,,,882.6481537,882.6643661,882.6643661,885.9620495,,,,885.9624495,885.9777466,885.9777466,885.9777466,886.2773586,886.5783672,,,,,,,,,,,,,,,,down,3.287137400000006,None,space,0.5964267999999038,None,P114,001,2024-11-19_13h58.45.886,posner_endo_new1,2024.2.4,60.02617141073639,2024-11-19 13h58.53.218602 +0000,
10,0.005,34,34,0,up,3.3498577999999952,None,None,,,,,,,,,,,0,34,34,34,886.5937906,,,,,,,,,,,,886.5786458,886.5937906,886.5937906,889.9581892,,,,889.9585943,889.9735845,889.9735845,889.9735845,890.2732923,892.9705051,,,,890.9724611,,,,,,,,,,,,up,3.3498577999999952,None,None,,,P114,001,2024-11-19_13h58.45.886,posner_endo_new1,2024.2.4,60.02617141073639,2024-11-19 13h58.53.218602 +0000,
0.005,-0.31,35,35,0,down,0.6207580000000235,None,space,0.318031299999916,None,,,,,,,,,0,35,35,35,892.9871324,,,,,,,,,,,,892.9706778,892.9871324,892.9871324,893.6206122,,,,893.62088,893.6364873,893.6364873,893.6364873,893.9361306,893.9703874,,,,,,,,,,,,,,,,down,0.6207580000000235,None,space,0.318031299999916,None,P114,001,2024-11-19_13h58.45.886,posner_endo_new1,2024.2.4,60.02617141073639,2024-11-19 13h58.53.218602 +0000,
0.31,0.005,36,36,0,up,2.444936299999995,None,space,0.32108449999998356,None,,,,,,,,,0,36,36,36,893.9860921,,,,,,,,,,,,893.9705697,893.9860921,893.9860921,896.4346017,,,,896.4348669,896.4502579,896.4502579,896.4502579,896.7499439,896.7841379,,,,,,,,,,,,,,,,up,2.444936299999995,None,space,0.32108449999998356,None,P114,001,2024-11-19_13h58.45.886,posner_endo_new1,2024.2.4,60.02617141073639,2024-11-19 13h58.53.218602 +0000,
10,0.005,37,37,0,down,3.1195903999999928,None,None,,,,,,,,,,,0,37,37,37,896.8000349,,,,,,,,,,,,896.7843161,896.8000349,896.8000349,899.9309006,,,,899.9311736,899.9467733,899.9467733,899.9467733,900.2463603,902.9437405,,,,900.9456636,,,,,,,,,,,,down,3.1195903999999928,None,None,,,P114,001,2024-11-19_13h58.45.886,posner_endo_new1,2024.2.4,60.02617141073639,2024-11-19 13h58.53.218602 +0000,
10,0.005,38,38,0,up,1.6231742999999597,None,None,,,,,,,,,,,0,38,38,38,902.9603241,,,,,,,,,,,,902.9439281,902.9603241,902.9603241,904.5927625,,,,904.593028,904.6086726,904.6086726,904.6086726,904.9080837,907.6056325,,,,905.6073865,,,,,,,,,,,,up,1.6231742999999597,None,None,,,P114,001,2024-11-19_13h58.45.886,posner_endo_new1,2024.2.4,60.02617141073639,2024-11-19 13h58.53.218602 +0000,
-0.31,0.005,39,39,0,down,0.9615827000000081,None,space,0.38125650000006317,None,,,,,,,,,0,39,39,39,907.6221707,,,,,,,,,,,,907.6058065,907.6221707,907.6221707,908.5887917,,,,908.5890581,908.6045902,908.6045902,908.6045902,908.9041792,908.9884634,,,,,,,,,,,,,,,,down,0.9615827000000081,None,space,0.38125650000006317,None,P114,001,2024-11-19_13h58.45.886,posner_endo_new1,2024.2.4,60.02617141073639,2024-11-19 13h58.53.218602 +0000,
0.005,-0.31,40,40,0,up,3.4437858000000006,None,space,0.3410827000000154,None,,,,,,,,,0,40,40,40,909.003929,,,,,,,,,,,,908.9886412,909.003929,909.003929,912.4514448,,,,912.4517231,912.4671002,912.4671002,912.4671002,912.7668143,912.8177942,,,,,,,,,,,,,,,,up,3.4437858000000006,None,space,0.3410827000000154,None,P114,001,2024-11-19_13h58.45.886,posner_endo_new1,2024.2.4,60.02617141073639,2024-11-19 13h58.53.218602 +0000,
0.005,-0.31,41,41,0,down,3.365808300000026,None,space,0.4815954000000602,None,,,,,,,,,0,41,41,41,912.8335838,,,,,,,,,,,,912.8179741,912.8335838,912.8335838,916.214079,,,,916.214349,916.230059,916.230059,916.230059,916.5296802,916.7138646,,,,,,,,,,,,,,,,down,3.365808300000026,None,space,0.4815954000000602,None,P114,001,2024-11-19_13h58.45.886,posner_endo_new1,2024.2.4,60.02617141073639,2024-11-19 13h58.53.218602 +0000,
10,0.005,42,42,0,up,5.0532969999999295,None,None,,,,,,,,,,,0,42,42,42,916.7296612,,,,,,,,,,,,916.7140433,916.7296612,916.7296612,921.7917787,,,,921.7920478,921.8076393,921.8076393,921.8076393,922.1074629,924.8047375,,,,922.8066309,,,,,,,,,,,,up,5.0532969999999295,None,None,,,P114,001,2024-11-19_13h58.45.886,posner_endo_new1,2024.2.4,60.02617141073639,2024-11-19 13h58.53.218602 +0000,
0.005,-0.31,43,43,0,down,1.170018099999993,None,space,0.3893752999999833,None,,,,,,,,,0,43,43,43,924.8213035,,,,,,,,,,,,924.8049117,924.8213035,924.8213035,926.0042699,,,,926.0045391,926.0199464,926.0199464,926.0199464,926.31972,926.4204567,,,,,,,,,,,,,,,,down,1.170018099999993,None,space,0.3893752999999833,None,P114,001,2024-11-19_13h58.45.886,posner_endo_new1,2024.2.4,60.02617141073639,2024-11-19 13h58.53.218602 +0000,
-0.31,0.005,44,44,0,up,2.850749800000017,None,space,0.35794909999992797,None,,,,,,,,,0,44,44,44,926.4361412,,,,,,,,,,,,926.4206447,926.4361412,926.4361412,929.3007459,,,,929.301014,929.3167089,929.3167089,929.3167089,929.6164405,929.683611,,,,,,,,,,,,,,,,up,2.850749800000017,None,space,0.35794909999992797,None,P114,001,2024-11-19_13h58.45.886,posner_endo_new1,2024.2.4,60.02617141073639,2024-11-19 13h58.53.218602 +0000,
10,0.005,45,45,0,down,3.7808756000000585,None,None,,,,,,,,,,,0,45,45,45,929.6996556,,,,,,,,,,,,929.6837992,929.6996556,929.6996556,933.4964427,,,,933.4967178,933.5122477,933.5122477,933.5122477,933.8119938,936.5094934,,,,934.5112335,,,,,,,,,,,,down,3.7808756000000585,None,None,,,P114,001,2024-11-19_13h58.45.886,posner_endo_new1,2024.2.4,60.02617141073639,2024-11-19 13h58.53.218602 +0000,
0.005,0.31,46,46,0,up,0.6653409000000465,None,space,0.4192764999999099,None,,,,,,,,,0,46,46,46,936.5258875,,,,,,,,,,,,936.509668,936.5258875,936.5258875,937.1929677,,,,937.1932413,937.2083673,937.2083673,937.2083673,937.5082392,937.6424045,,,,,,,,,,,,,,,,up,0.6653409000000465,None,space,0.4192764999999099,None,P114,001,2024-11-19_13h58.45.886,posner_endo_new1,2024.2.4,60.02617141073639,2024-11-19 13h58.53.218602 +0000,
0.005,-0.31,47,47,0,down,3.8535749000000123,None,space,0.6031543000000283,None,,,,,,,,,0,47,47,47,937.6580233,,,,,,,,,,,,937.6425872,937.6580233,937.6580233,941.5214913,,,,941.5217612,941.5374771,941.5374771,941.5374771,941.837182,942.154311,,,,,,,,,,,,,,,,down,3.8535749000000123,None,space,0.6031543000000283,None,P114,001,2024-11-19_13h58.45.886,posner_endo_new1,2024.2.4,60.02617141073639,2024-11-19 13h58.53.218602 +0000,
0.31,0.005,48,48,0,up,2.2294299000000137,None,space,0.3219980999999734,None,,,,,,,,,0,48,48,48,942.1702369,,,,,,,,,,,,942.154491,942.1702369,942.1702369,944.4023477,,,,944.4026168,944.4178445,944.4178445,944.4178445,944.7180214,944.7516256,,,,,,,,,,,,,,,,up,2.2294299000000137,None,space,0.3219980999999734,None,P114,001,2024-11-19_13h58.45.886,posner_endo_new1,2024.2.4,60.02617141073639,2024-11-19 13h58.53.218602 +0000,
-0.31,0.005,49,49,0,down,3.2715853999999354,None,space,0.2666011000000026,None,,,,,,,,,0,49,49,49,944.7674296,,,,,,,,,,,,944.7518104,944.7674296,944.7674296,948.0484945,,,,948.0487678,948.0641496,948.0641496,948.0641496,,948.3315805,,,,,,,,,,,,,,,,down,3.2715853999999354,None,space,0.2666011000000026,None,P114,001,2024-11-19_13h58.45.886,posner_endo_new1,2024.2.4,60.02617141073639,2024-11-19 13h58.53.218602 +0000,
0.005,0.31,50,50,0,up,2.2766328000000158,None,space,0.2847352000000001,None,,,,,,,,,0,50,50,50,948.3473385,,,,,,,,,,,,948.3317719,948.3473385,948.3473385,950.629216,,,,950.6294819,950.6448445,950.6448445,950.6448445,950.9445461,950.9454122,,,,,,,,,,,,,,,,up,2.2766328000000158,None,space,0.2847352000000001,None,P114,001,2024-11-19_13h58.45.886,posner_endo_new1,2024.2.4,60.02617141073639,2024-11-19 13h58.53.218602 +0000,
0.005,0.31,51,51,0,down,3.7908255000000963,None,space,0.2970789999999397,None,,,,,,,,,0,51,51,51,950.9611942,,,,,,,,,,,,950.9455937,950.9611942,950.9611942,954.7580892,,,,954.7583586,954.774012,954.774012,954.774012,955.0737195,955.0746653,,,,,,,,,,,,,,,,down,3.7908255000000963,None,space,0.2970789999999397,None,P114,001,2024-11-19_13h58.45.886,posner_endo_new1,2024.2.4,60.02617141073639,2024-11-19 13h58.53.218602 +0000,
10,0.005,52,52,0,up,2.4211639000000105,None,None,,,,,,,,,,,0,52,52,52,955.090223,,,,,,,,,,,,955.0748416,955.090223,955.090223,957.5220233,,,,957.522295,957.5377575,957.5377575,957.5377575,957.8373842,960.5349467,,,,958.5367284,,,,,,,,,,,,up,2.4211639000000105,None,None,,,P114,001,2024-11-19_13h58.45.886,posner_endo_new1,2024.2.4,60.02617141073639,2024-11-19 13h58.53.218602 +0000,
-0.31,0.005,53,53,0,down,0.960822300000018,None,space,0.33222920000002887,None,,,,,,,,,0,53,53,53,960.5513693,,,,,,,,,,,,960.5351262,960.5513693,960.5513693,961.5178514,,,,961.5181195,961.5337374,961.5337374,961.5337374,961.8334077,961.8676683,,,,,,,,,,,,,,,,down,0.960822300000018,None,space,0.33222920000002887,None,P114,001,2024-11-19_13h58.45.886,posner_endo_new1,2024.2.4,60.02617141073639,2024-11-19 13h58.53.218602 +0000,
10,0.005,54,54,0,up,2.8281336999999667,None,None,,,,,,,,,,,0,54,54,54,961.883196,,,,,,,,,,,,961.8678561,961.883196,961.883196,964.7147101,,,,964.7149761000001,964.7304099,964.7304099,964.7304099,965.0301724,967.7273135,,,,965.7293746,,,,,,,,,,,,up,2.8281336999999667,None,None,,,P114,001,2024-11-19_13h58.45.886,posner_endo_new1,2024.2.4,60.02617141073639,2024-11-19 13h58.53.218602 +0000,
0.005,0.31,55,55,0,down,6.59963330000005,None,space,0.4068385999999009,None,,,,,,,,,0,55,55,55,967.7440629,,,,,,,,,,,,967.7274871,967.7440629,967.7440629,974.3546914,,,,974.3549624999999,974.3704401000001,974.3704401000001,974.3704401000001,974.6703761,974.7874757000001,,,,,,,,,,,,,,,,down,6.59963330000005,None,space,0.4068385999999009,None,P114,001,2024-11-19_13h58.45.886,posner_endo_new1,2024.2.4,60.02617141073639,2024-11-19 13h58.53.218602 +0000,
0.005,-0.31,56,56,0,up,2.8044386999999915,None,space,0.6068659000000025,None,,,,,,,,,0,56,56,56,974.8035085,,,,,,,,,,,,974.7876544,974.8035085,974.8035085,977.6187655,,,,977.6193563,977.6336706000001,977.6336706000001,977.6336706000001,977.9333676,978.2515617,,,,,,,,,,,,,,,,up,2.8044386999999915,None,space,0.6068659000000025,None,P114,001,2024-11-19_13h58.45.886,posner_endo_new1,2024.2.4,60.02617141073639,2024-11-19 13h58.53.218602 +0000,
0.005,0.31,57,57,0,down,2.7806126000000404,None,space,0.4782235000000128,None,,,,,,,,,0,57,57,57,978.2663587999999,,,,,,,,,,,,978.2519725000001,978.2663587999999,978.2663587999999,981.0488799000001,,,,981.0494637,981.063487,981.063487,981.063487,981.3631713999999,981.5483198000001,,,,,,,,,,,,,,,,down,2.7806126000000404,None,space,0.4782235000000128,None,P114,001,2024-11-19_13h58.45.886,posner_endo_new1,2024.2.4,60.02617141073639,2024-11-19 13h58.53.218602 +0000,
-0.31,0.005,58,58,0,up,2.2604584000000614,None,space,0.31123920000004546,None,,,,,,,,,0,58,58,58,981.5629336999999,,,,,,,,,,,,981.5487399,981.5629336999999,981.5629336999999,983.8292892999999,,,,983.8298606,983.8439666999999,983.8439666999999,983.8439666999999,984.1438465,984.1619291999999,,,,,,,,,,,,,,,,up,2.2604584000000614,None,space,0.31123920000004546,None,P114,001,2024-11-19_13h58.45.886,posner_endo_new1,2024.2.4,60.02617141073639,2024-11-19 13h58.53.218602 +0000,
-0.31,0.005,59,59,0,down,2.8216334000001098,None,space,0.30127410000000054,None,,,,,,,,,0,59,59,59,984.1771841999999,,,,,,,,,,,,984.1622123999999,984.1771841999999,984.1771841999999,987.0089383999999,,,,987.0093372,987.0242774,987.0242774,987.0242774,987.3239741000001,987.3418290999999,,,,,,,,,,,,,,,,down,2.8216334000001098,None,space,0.30127410000000054,None,P114,001,2024-11-19_13h58.45.886,posner_endo_new1,2024.2.4,60.02617141073639,2024-11-19 13h58.53.218602 +0000,
