target_y,target_x,thisN,thisTrialN,thisRepN,key_control2.keys,key_control2.rt,key_control2.duration,key_resp.keys,key_resp.rt,key_resp.duration,practice.thisRepN,practice.thisTrialN,practice.thisN,practice.thisIndex,session_1.thisRepN,session_1.thisTrialN,session_1.thisN,session_1.thisIndex,session_2.thisRepN,session_2.thisTrialN,session_2.thisN,session_2.thisIndex,thisRow.t,notes,instructions.started,instructions_txt.started,key_control.started,instructions.stopped,key_control.keys,key_control.rt,key_control.duration,ready.started,ready_txt.started,ready.stopped,fix.started,key_control2.started,fixation_cross.started,fix.stopped,practice.key_control2.keys,practice.key_control2.rt,practice.key_control2.duration,target.started,star.started,fixation_cross_target.started,key_resp.started,star.stopped,target.stopped,practice.key_resp.keys,practice.key_resp.rt,practice.key_resp.duration,key_resp.stopped,session_1.key_control2.keys,session_1.key_control2.rt,session_1.key_control2.duration,session_1.key_resp.keys,session_1.key_resp.rt,session_1.key_resp.duration,break_2.started,text.started,key_control3.started,break_2.stopped,key_control3.keys,session_2.key_control2.keys,session_2.key_control2.rt,session_2.key_control2.duration,session_2.key_resp.keys,session_2.key_resp.rt,session_2.key_resp.duration,participant,session,date,expName,psychopyVersion,frameRate,expStart,
,,,,,,,,,,,,,,,,,,,,,,,,,0.007637400000021444,0.028080000000045402,0.028080000000045402,349.7415003000001,up,349.70923070000026,None,,,,,,,,,,,,,,,,,,,,,,,,,,,,,,,,,,,,,,p115,001,2024-11-19_14h48.54.141,posner_endo_new1,2024.2.4,60.066698061446445,2024-11-19 14h49.04.192239 +0000,
,,,,,,,,,,,,,,,,,,,,,,,,,,,,,,,,349.74157419999983,349.75422500000013,352.7512608000002,,,,,,,,,,,,,,,,,,,,,,,,,,,,,,,,,,,p115,001,2024-11-19_14h48.54.141,posner_endo_new1,2024.2.4,60.066698061446445,2024-11-19 14h49.04.192239 +0000,
-0.31,0.005,0,0,0,up,2.463508699999693,None,space,0.44285020000006625,None,0,0,0,0,,,,,,,,,352.76943630000005,,,,,,,,,,,,352.75831579999976,352.76943630000005,352.76943630000005,355.2493021,up,2.463508699999693,None,355.2495789999998,355.2652244000001,355.2652244000001,355.2652244000001,355.5648898999998,355.7154316000001,space,0.44285020000006625,None,,,,,,,,,,,,,,,,,,,p115,001,2024-11-19_14h48.54.141,posner_endo_new1,2024.2.4,60.066698061446445,2024-11-19 14h49.04.192239 +0000,
0.005,-0.31,1,1,0,down,4.2782907000000705,None,space,0.32827190000034534,None,0,1,1,5,,,,,,,,,355.73137259999976,,,,,,,,,,,,355.71558959999993,355.73137259999976,355.73137259999976,360.01122350000014,down,4.2782907000000705,None,360.01146960000005,360.02703999999994,360.02703999999994,360.02703999999994,360.32659879999983,360.3607449000001,space,0.32827190000034534,None,,,,,,,,,,,,,,,,,,,p115,001,2024-11-19_14h48.54.141,posner_endo_new1,2024.2.4,60.066698061446445,2024-11-19 14h49.04.192239 +0000,
-0.31,0.005,2,2,0,up,2.6243445999998585,None,space,0.317270500000177,None,0,2,2,2,,,,,,,,,360.3767892000001,,,,,,,,,,,,360.36090000000013,360.3767892000001,360.3767892000001,363.0080883999999,up,2.6243445999998585,None,363.0083386000001,363.0239898,363.0239898,363.0239898,363.3238388,363.3575381999999,space,0.317270500000177,None,,,,,,,,,,,,,,,,,,,p115,001,2024-11-19_14h48.54.141,posner_endo_new1,2024.2.4,60.066698061446445,2024-11-19 14h49.04.192239 +0000,
0.005,0.31,3,3,0,down,2.4523198000001685,None,space,0.3267249000000447,None,0,3,3,6,,,,,,,,,363.37355720000005,,,,,,,,,,,,363.3576962000002,363.37355720000005,363.37355720000005,365.83863139999994,down,2.4523198000001685,None,365.8388737,365.8542633000002,365.8542633000002,365.8542633000002,366.15426179999986,366.18829159999996,space,0.3267249000000447,None,,,,,,,,,,,,,,,,,,,p115,001,2024-11-19_14h48.54.141,posner_endo_new1,2024.2.4,60.066698061446445,2024-11-19 14h49.04.192239 +0000,
10,0.005,4,4,0,up,2.350013199999921,None,None,,,0,4,4,4,,,,,,,,,366.2039549000001,,,,,,,,,,,,366.18844230000013,366.2039549000001,366.2039549000001,368.5689126000002,up,2.350013199999921,None,368.5691664000001,368.5849232999999,368.5849232999999,368.5849232999999,368.8846189000001,371.5820018999998,None,,,369.5838171999999,,,,,,,,,,,,,,,,,,p115,001,2024-11-19_14h48.54.141,posner_endo_new1,2024.2.4,60.066698061446445,2024-11-19 14h49.04.192239 +0000,
0.005,0.31,5,5,0,up,2.970861199999945,None,space,0.5191577000000507,None,0,5,5,8,,,,,,,,,371.59843469999987,,,,,,,,,,,,371.5821559000001,371.59843469999987,371.59843469999987,374.5794596999999,up,2.970861199999945,None,374.57970269999987,374.5954760999998,374.5954760999998,374.5954760999998,374.8952284000002,375.1290598999999,space,0.5191577000000507,None,,,,,,,,,,,,,,,,,,,p115,001,2024-11-19_14h48.54.141,posner_endo_new1,2024.2.4,60.066698061446445,2024-11-19 14h49.04.192239 +0000,
0.005,10,6,6,0,down,2.271791900000153,None,None,,,0,6,6,9,,,,,,,,,375.1449551999999,,,,,,,,,,,,375.1292147999998,375.1449551999999,375.1449551999999,377.42664909999985,down,2.271791900000153,None,377.4268947999999,377.44255710000016,377.44255710000016,377.44255710000016,377.7424388999998,380.4397021,None,,,378.458118,,,,,,,,,,,,,,,,,,p115,001,2024-11-19_14h48.54.141,posner_endo_new1,2024.2.4,60.066698061446445,2024-11-19 14h49.04.192239 +0000,
0.31,0.005,7,7,0,up,0.3843861000000288,None,space,0.5037591999998767,None,0,7,7,1,,,,,,,,,380.4560735,,,,,,,,,,,,380.43986459999996,380.4560735,380.4560735,380.85661119999986,up,0.3843861000000288,None,380.8568626000001,380.8722114000002,380.8722114000002,380.8722114000002,381.17200760000014,381.38930530000016,space,0.5037591999998767,None,,,,,,,,,,,,,,,,,,,p115,001,2024-11-19_14h48.54.141,posner_endo_new1,2024.2.4,60.066698061446445,2024-11-19 14h49.04.192239 +0000,
0.31,0.005,8,8,0,down,1.811569800000143,None,space,0.2849701999998615,None,0,8,8,3,,,,,,,,,381.40529830000014,,,,,,,,,,,,381.3894611999999,381.40529830000014,381.40529830000014,383.2209785,down,1.811569800000143,None,383.2212215999998,383.2365464999998,383.2365464999998,383.2365464999998,383.53632400000015,383.5371538999998,space,0.2849701999998615,None,,,,,,,,,,,,,,,,,,,p115,001,2024-11-19_14h48.54.141,posner_endo_new1,2024.2.4,60.066698061446445,2024-11-19 14h49.04.192239 +0000,
0.005,-0.31,9,9,0,up,2.728641200000311,None,space,0.33318169999984093,None,0,9,9,7,,,,,,,,,383.5528377999999,,,,,,,,,,,,383.5373125000001,383.5528377999999,383.5528377999999,386.2842829000001,up,2.728641200000311,None,386.2845339999999,386.2999854999998,386.2999854999998,386.2999854999998,386.5997490999998,386.63397350000014,space,0.33318169999984093,None,,,,,,,,,,,,,,,,,,,p115,001,2024-11-19_14h48.54.141,posner_endo_new1,2024.2.4,60.066698061446445,2024-11-19 14h49.04.192239 +0000,
,,,,,,,,,,,,,,,,,,,,,,,,,,,,,,,,386.6340795000001,386.64985350000006,389.64680050000015,,,,,,,,,,,,,,,,,,,,,,,,,,,,,,,,,,,p115,001,2024-11-19_14h48.54.141,posner_endo_new1,2024.2.4,60.066698061446445,2024-11-19 14h49.04.192239 +0000,
-0.31,0.005,0,0,0,up,15.423619099999996,None,space,0.4160620999996354,None,,,,,0,0,0,0,,,,,389.6655793,,,,,,,,,,,,389.6550701000001,389.6655793,389.6655793,405.0983255000001,,,,405.09858669999994,405.11424720000014,405.11424720000014,405.11424720000014,405.41388849999976,405.5314641,,,,,up,15.423619099999996,None,space,0.4160620999996354,None,,,,,,,,,,,,p115,001,2024-11-19_14h48.54.141,posner_endo_new1,2024.2.4,60.066698061446445,2024-11-19 14h49.04.192239 +0000,
0.005,0.31,1,1,0,down,6.462054100000387,None,space,0.26880590000018856,None,,,,,0,1,1,1,,,,,405.5472356999999,,,,,,,,,,,,405.53163559999984,405.5472356999999,405.5472356999999,412.02445020000005,,,,412.0247005000001,412.0404580999998,412.0404580999998,412.0404580999998,412.34015279999994,412.3242547,,,,,down,6.462054100000387,None,space,0.26880590000018856,None,,,,,,,,,,,,p115,001,2024-11-19_14h48.54.141,posner_endo_new1,2024.2.4,60.066698061446445,2024-11-19 14h49.04.192239 +0000,
0.31,0.005,2,2,0,up,2.573214100000314,None,space,0.36673800000016854,None,,,,,0,2,2,2,,,,,412.34015279999994,,,,,,,,,,,,412.3244203999998,412.34015279999994,412.34015279999994,414.9215153,,,,414.92176960000006,414.9375608999999,414.9375608999999,414.9375608999999,415.2371982999998,415.32111639999994,,,,,up,2.573214100000314,None,space,0.36673800000016854,None,,,,,,,,,,,,p115,001,2024-11-19_14h48.54.141,posner_endo_new1,2024.2.4,60.066698061446445,2024-11-19 14h49.04.192239 +0000,
0.31,0.005,3,3,0,down,2.28813480000008,None,space,0.390563899999961,None,,,,,0,3,3,3,,,,,415.3370107999999,,,,,,,,,,,,415.3212797000001,415.3370107999999,415.3370107999999,417.63552949999985,,,,417.6357769000001,417.6513313999999,417.6513313999999,417.6513313999999,417.9509898000001,418.05171870000004,,,,,down,2.28813480000008,None,space,0.390563899999961,None,,,,,,,,,,,,p115,001,2024-11-19_14h48.54.141,posner_endo_new1,2024.2.4,60.066698061446445,2024-11-19 14h49.04.192239 +0000,
-0.31,0.005,4,4,0,up,2.893573800000013,None,space,0.26478580000002694,None,,,,,0,4,4,4,,,,,418.0674718999999,,,,,,,,,,,,418.05188150000004,418.0674718999999,418.0674718999999,420.96554460000016,,,,420.9657937000002,420.9812744000001,420.9812744000001,420.9812744000001,,421.24866840000004,,,,,up,2.893573800000013,None,space,0.26478580000002694,None,,,,,,,,,,,,p115,001,2024-11-19_14h48.54.141,posner_endo_new1,2024.2.4,60.066698061446445,2024-11-19 14h49.04.192239 +0000,
0.005,-0.31,5,5,0,down,2.8245161999998345,None,space,0.24305699999968056,None,,,,,0,5,5,5,,,,,421.2642850000002,,,,,,,,,,,,421.2488321999999,421.2642850000002,421.2642850000002,424.0955734999998,,,,424.09582820000014,424.1115043,424.1115043,424.1115043,,424.3621076999998,,,,,down,2.8245161999998345,None,space,0.24305699999968056,None,,,,,,,,,,,,p115,001,2024-11-19_14h48.54.141,posner_endo_new1,2024.2.4,60.066698061446445,2024-11-19 14h49.04.192239 +0000,
0.005,-0.31,6,6,0,up,2.903392100000019,None,space,0.28470400000014706,None,,,,,0,6,6,6,,,,,424.37787179999987,,,,,,,,,,,,424.3622710999998,424.37787179999987,424.37787179999987,427.29223809999985,,,,427.2925111999998,427.3081668,427.3081668,427.3081668,427.6078941999999,427.60872800000016,,,,,up,2.903392100000019,None,space,0.28470400000014706,None,,,,,,,,,,,,p115,001,2024-11-19_14h48.54.141,posner_endo_new1,2024.2.4,60.066698061446445,2024-11-19 14h49.04.192239 +0000,
10,0.005,7,7,0,down,2.3281638999997085,None,None,,,,,,,0,7,7,7,,,,,427.6245297999999,,,,,,,,,,,,427.60888750000004,427.6245297999999,427.6245297999999,429.95649509999976,,,,429.95674180000015,429.9720093000001,429.9720093000001,429.9720093000001,430.2717988999998,432.9690377000002,,,,430.97103160000006,down,2.3281638999997085,None,None,,,,,,,,,,,,,,p115,001,2024-11-19_14h48.54.141,posner_endo_new1,2024.2.4,60.066698061446445,2024-11-19 14h49.04.192239 +0000,
-0.31,0.005,8,8,0,up,0.4148136000003433,None,space,0.30143790000010995,None,,,,,0,8,8,8,,,,,432.9857704000001,,,,,,,,,,,,432.9692046,432.9857704000001,432.9857704000001,433.40262919999986,,,,433.4028748999999,433.4185754,433.4185754,433.4185754,433.7183054000002,433.7357278999998,,,,,up,0.4148136000003433,None,space,0.30143790000010995,None,,,,,,,,,,,,p115,001,2024-11-19_14h48.54.141,posner_endo_new1,2024.2.4,60.066698061446445,2024-11-19 14h49.04.192239 +0000,
0.005,0.31,9,9,0,down,1.9052785000003496,None,space,0.3234375000001819,None,,,,,0,9,9,9,,,,,433.75173540000014,,,,,,,,,,,,433.7358902000001,433.75173540000014,433.75173540000014,435.6669373999998,,,,435.6671940000001,435.6829395,435.6829395,435.6829395,435.9826088,436.01660790000005,,,,,down,1.9052785000003496,None,space,0.3234375000001819,None,,,,,,,,,,,,p115,001,2024-11-19_14h48.54.141,posner_endo_new1,2024.2.4,60.066698061446445,2024-11-19 14h49.04.192239 +0000,
0.005,-0.31,10,10,0,up,2.7607059000001755,None,space,0.39172740000003614,None,,,,,0,10,10,10,,,,,436.03261239999983,,,,,,,,,,,,436.0167766999998,436.03261239999983,436.03261239999983,438.79723699999977,,,,438.79748549999977,438.81293890000006,438.81293890000006,438.81293890000006,439.1127548999998,439.21338779999996,,,,,up,2.7607059000001755,None,space,0.39172740000003614,None,,,,,,,,,,,,p115,001,2024-11-19_14h48.54.141,posner_endo_new1,2024.2.4,60.066698061446445,2024-11-19 14h49.04.192239 +0000,
0.005,0.31,11,11,0,down,2.435566999999992,None,space,0.33289049999984854,None,,,,,0,11,11,11,,,,,439.2293768999998,,,,,,,,,,,,439.2135480000002,439.2293768999998,439.2293768999998,441.6774188999998,,,,441.6776651,441.69337829999995,441.69337829999995,441.69337829999995,441.99301259999993,442.0272854,,,,,down,2.435566999999992,None,space,0.33289049999984854,None,,,,,,,,,,,,p115,001,2024-11-19_14h48.54.141,posner_endo_new1,2024.2.4,60.066698061446445,2024-11-19 14h49.04.192239 +0000,
10,0.005,12,12,0,up,2.141755099999955,None,None,,,,,,,0,12,12,12,,,,,442.0429419000002,,,,,,,,,,,,442.0274534,442.0429419000002,442.0429419000002,444.1914962999999,,,,444.1917506,444.20755599999984,444.20755599999984,444.20755599999984,444.50723449999987,447.2047656999998,,,,445.20653489999995,up,2.141755099999955,None,None,,,,,,,,,,,,,,p115,001,2024-11-19_14h48.54.141,posner_endo_new1,2024.2.4,60.066698061446445,2024-11-19 14h49.04.192239 +0000,
0.31,0.005,13,13,0,up,3.0838603000001967,None,space,0.3412207000001217,None,,,,,0,13,13,13,,,,,447.22118809999984,,,,,,,,,,,,447.2049278999998,447.22118809999984,447.22118809999984,450.3186681000002,,,,450.31891529999984,450.33456750000005,450.33456750000005,450.33456750000005,450.63425629999983,450.6849468999999,,,,,up,3.0838603000001967,None,space,0.3412207000001217,None,,,,,,,,,,,,p115,001,2024-11-19_14h48.54.141,posner_endo_new1,2024.2.4,60.066698061446445,2024-11-19 14h49.04.192239 +0000,
10,0.005,14,14,0,down,1.7254227999997056,None,None,,,,,,,0,14,14,14,,,,,450.70092380000006,,,,,,,,,,,,450.6851111000001,450.70092380000006,450.70092380000006,452.43315170000005,,,,452.43341120000014,452.4490047999998,452.4490047999998,452.4490047999998,452.74897839999994,455.4460551000002,,,,453.44814529999985,down,1.7254227999997056,None,None,,,,,,,,,,,,,,p115,001,2024-11-19_14h48.54.141,posner_endo_new1,2024.2.4,60.066698061446445,2024-11-19 14h49.04.192239 +0000,
-0.31,0.005,15,15,0,up,None,None,space,0.45154009999987466,None,,,,,0,15,15,15,,,,,455.4626981000001,,,,,,,,,,,,455.4462149000001,455.4626981000001,455.4626981000001,455.57977870000013,,,,455.5800309000001,455.5959382000001,455.5959382000001,455.5959382000001,455.8955864999998,456.0629877000001,,,,,up,None,None,space,0.45154009999987466,None,,,,,,,,,,,,p115,001,2024-11-19_14h48.54.141,posner_endo_new1,2024.2.4,60.066698061446445,2024-11-19 14h49.04.192239 +0000,
0.005,-0.31,16,16,0,down,2.0897393000000193,None,space,0.27238030000034996,None,,,,,0,16,16,16,,,,,456.0786532000002,,,,,,,,,,,,456.06315159999986,456.0786532000002,456.0786532000002,458.17721960000017,,,,458.17747599999984,458.19319480000013,458.19319480000013,458.19319480000013,458.4929554,458.47715719999997,,,,,down,2.0897393000000193,None,space,0.27238030000034996,None,,,,,,,,,,,,p115,001,2024-11-19_14h48.54.141,posner_endo_new1,2024.2.4,60.066698061446445,2024-11-19 14h49.04.192239 +0000,
0.005,0.31,17,17,0,up,2.500421699999606,None,space,0.27681899999970483,None,,,,,0,17,17,17,,,,,458.4929554,,,,,,,,,,,,458.4773197999998,458.4929554,458.4929554,461.0078319999998,,,,461.0080764999998,461.02362700000003,461.02362700000003,461.02362700000003,461.32326550000016,461.30742789999977,,,,,up,2.500421699999606,None,space,0.27681899999970483,None,,,,,,,,,,,,p115,001,2024-11-19_14h48.54.141,posner_endo_new1,2024.2.4,60.066698061446445,2024-11-19 14h49.04.192239 +0000,
-0.31,0.005,18,18,0,down,2.1017010000000482,None,space,0.3607421000001523,None,,,,,0,18,18,18,,,,,461.32326550000016,,,,,,,,,,,,461.3075951999999,461.32326550000016,461.32326550000016,463.43870460000016,,,,463.43895699999985,463.45461109999997,463.45461109999997,463.45461109999997,463.7541354,463.82157529999995,,,,,down,2.1017010000000482,None,space,0.3607421000001523,None,,,,,,,,,,,,p115,001,2024-11-19_14h48.54.141,posner_endo_new1,2024.2.4,60.066698061446445,2024-11-19 14h49.04.192239 +0000,
10,0.005,19,19,0,up,2.571131599999717,None,None,,,,,,,0,19,19,19,,,,,463.83739289999994,,,,,,,,,,,,463.8217407000002,463.83739289999994,463.83739289999994,466.41886859999977,,,,466.41911359999995,466.4347595999998,466.4347595999998,466.4347595999998,466.73448389999976,469.4318598,,,,467.45043609999993,up,2.571131599999717,None,None,,,,,,,,,,,,,,p115,001,2024-11-19_14h48.54.141,posner_endo_new1,2024.2.4,60.066698061446445,2024-11-19 14h49.04.192239 +0000,
0.005,0.31,20,20,0,up,3.2401905000001534,None,space,0.38614719999986846,None,,,,,0,20,20,20,,,,,469.4482813999998,,,,,,,,,,,,469.43202040000006,469.4482813999998,469.4482813999998,472.6957318999998,,,,472.6959750000001,472.711675,472.711675,472.711675,473.01130460000013,473.11207160000004,,,,,up,3.2401905000001534,None,space,0.38614719999986846,None,,,,,,,,,,,,p115,001,2024-11-19_14h48.54.141,posner_endo_new1,2024.2.4,60.066698061446445,2024-11-19 14h49.04.192239 +0000,
0.005,-0.31,21,21,0,down,2.1774571999999353,None,space,0.32481129999996483,None,,,,,0,21,21,21,,,,,473.12799719999975,,,,,,,,,,,,473.1122341999999,473.12799719999975,473.12799719999975,475.30988179999986,,,,475.31012869999995,475.3256455999999,475.3256455999999,475.3256455999999,475.6253286000001,475.65934030000017,,,,,down,2.1774571999999353,None,space,0.32481129999996483,None,,,,,,,,,,,,p115,001,2024-11-19_14h48.54.141,posner_endo_new1,2024.2.4,60.066698061446445,2024-11-19 14h49.04.192239 +0000,
0.005,0.31,22,22,0,up,2.6054583000000093,None,space,0.33491259999982503,None,,,,,0,22,22,22,,,,,475.6753119,,,,,,,,,,,,475.65950139999995,475.6753119,475.6753119,478.29006679999975,,,,478.29031239999995,478.3059570999999,478.3059570999999,478.3059570999999,478.60568680000006,478.65623400000004,,,,,up,2.6054583000000093,None,space,0.33491259999982503,None,,,,,,,,,,,,p115,001,2024-11-19_14h48.54.141,posner_endo_new1,2024.2.4,60.066698061446445,2024-11-19 14h49.04.192239 +0000,
0.31,0.005,23,23,0,down,2.4810833999999886,None,space,0.33343669999976555,None,,,,,0,23,23,23,,,,,478.67212930000005,,,,,,,,,,,,478.6563956,478.67212930000005,478.67212930000005,481.15399819999993,,,,481.1542512000001,481.1696935,481.1696935,481.1696935,481.4695025000001,481.51998969999977,,,,,down,2.4810833999999886,None,space,0.33343669999976555,None,,,,,,,,,,,,p115,001,2024-11-19_14h48.54.141,posner_endo_new1,2024.2.4,60.066698061446445,2024-11-19 14h49.04.192239 +0000,
0.005,0.31,24,24,0,up,2.4413057000001572,None,space,0.29658329999983835,None,,,,,0,24,24,24,,,,,481.53579249999984,,,,,,,,,,,,481.5201615000001,481.53579249999984,481.53579249999984,483.98422419999997,,,,483.9844742,484.0002220000001,484.0002220000001,484.0002220000001,484.2999813000001,484.30088829999977,,,,,up,2.4413057000001572,None,space,0.29658329999983835,None,,,,,,,,,,,,p115,001,2024-11-19_14h48.54.141,posner_endo_new1,2024.2.4,60.066698061446445,2024-11-19 14h49.04.192239 +0000,
0.31,0.005,25,25,0,down,2.036672200000339,None,space,0.3457989000003181,None,,,,,0,25,25,25,,,,,484.31649370000014,,,,,,,,,,,,484.30104859999983,484.31649370000014,484.31649370000014,486.36513879999984,,,,486.3653930999999,486.38089409999975,486.38089409999975,486.38089409999975,486.6807601999999,486.73145969999996,,,,,down,2.036672200000339,None,space,0.3457989000003181,None,,,,,,,,,,,,p115,001,2024-11-19_14h48.54.141,posner_endo_new1,2024.2.4,60.066698061446445,2024-11-19 14h49.04.192239 +0000,
10,0.005,26,26,0,up,1.405325300000186,None,None,,,,,,,0,26,26,26,,,,,486.74735090000013,,,,,,,,,,,,486.73162219999995,486.74735090000013,486.74735090000013,488.1633133999999,,,,488.1635609,488.1791896,488.1791896,488.1791896,488.47889299999997,491.1762358000001,,,,489.1949460999999,up,1.405325300000186,None,None,,,,,,,,,,,,,,p115,001,2024-11-19_14h48.54.141,posner_endo_new1,2024.2.4,60.066698061446445,2024-11-19 14h49.04.192239 +0000,
10,0.005,27,27,0,up,2.679763399999956,None,None,,,,,,,0,27,27,27,,,,,491.1928211999998,,,,,,,,,,,,491.17640089999986,491.1928211999998,491.1928211999998,493.87427549999984,,,,493.87453019999975,493.8901314999998,493.8901314999998,493.8901314999998,494.1896624000001,496.8870443999999,,,,494.9056039000002,up,2.679763399999956,None,None,,,,,,,,,,,,,,p115,001,2024-11-19_14h48.54.141,posner_endo_new1,2024.2.4,60.066698061446445,2024-11-19 14h49.04.192239 +0000,
0.005,-0.31,28,28,0,up,7.169637200000125,None,space,0.35369660000014846,None,,,,,0,28,28,28,,,,,496.9035948999999,,,,,,,,,,,,496.88720999999987,496.9035948999999,496.9035948999999,504.0803095000001,,,,504.0805575999998,504.0962666999999,504.0962666999999,504.0962666999999,504.3958456999999,504.4634073000002,,,,,up,7.169637200000125,None,space,0.35369660000014846,None,,,,,,,,,,,,p115,001,2024-11-19_14h48.54.141,posner_endo_new1,2024.2.4,60.066698061446445,2024-11-19 14h49.04.192239 +0000,
0.31,0.005,29,29,0,down,2.10546579999982,None,space,0.4948094999999739,None,,,,,0,29,29,29,,,,,504.4792591999999,,,,,,,,,,,,504.4635696,504.4792591999999,504.4792591999999,506.5944866,,,,506.5947311,506.61026390000006,506.61026390000006,506.61026390000006,506.91012409999985,507.11068079999995,,,,,down,2.10546579999982,None,space,0.4948094999999739,None,,,,,,,,,,,,p115,001,2024-11-19_14h48.54.141,posner_endo_new1,2024.2.4,60.066698061446445,2024-11-19 14h49.04.192239 +0000,
10,0.005,30,30,0,up,1.9541377999998986,None,None,,,,,,,0,30,30,30,,,,,507.1264228,,,,,,,,,,,,507.1108433999998,507.1264228,507.1264228,509.0918664999999,,,,509.09211270000014,509.1078557999999,509.1078557999999,509.1078557999999,509.4074535,512.1048248000002,,,,510.1233935999999,up,1.9541377999998986,None,None,,,,,,,,,,,,,,p115,001,2024-11-19_14h48.54.141,posner_endo_new1,2024.2.4,60.066698061446445,2024-11-19 14h49.04.192239 +0000,
0.31,0.005,31,31,0,up,1.911986699999943,None,space,0.26345039999978326,None,,,,,0,31,31,31,,,,,512.1214644000001,,,,,,,,,,,,512.1049969000001,512.1214644000001,512.1214644000001,514.0368970999998,,,,514.0371411000001,514.0527855999999,514.0527855999999,514.0527855999999,,514.3199722999998,,,,,up,1.911986699999943,None,space,0.26345039999978326,None,,,,,,,,,,,,p115,001,2024-11-19_14h48.54.141,posner_endo_new1,2024.2.4,60.066698061446445,2024-11-19 14h49.04.192239 +0000,
0.31,0.005,32,32,0,down,2.07332630000019,None,space,0.33893369999987044,None,,,,,0,32,32,32,,,,,514.3357857999999,,,,,,,,,,,,514.3201353,514.3357857999999,514.3357857999999,516.4179048000001,,,,516.4181497999998,516.4334697999998,516.4334697999998,516.4334697999998,516.7334166999999,516.7840695,,,,,down,2.07332630000019,None,space,0.33893369999987044,None,,,,,,,,,,,,p115,001,2024-11-19_14h48.54.141,posner_endo_new1,2024.2.4,60.066698061446445,2024-11-19 14h49.04.192239 +0000,
10,0.005,33,33,0,up,2.6254618000002665,None,None,,,,,,,0,33,33,33,,,,,516.7998327999999,,,,,,,,,,,,516.7842344999999,516.7998327999999,516.7998327999999,519.4314024,,,,519.4316476999998,519.4472709000001,519.4472709000001,519.4472709000001,519.7468189000001,522.4443236000002,,,,520.4628263999998,up,2.6254618000002665,None,None,,,,,,,,,,,,,,p115,001,2024-11-19_14h48.54.141,posner_endo_new1,2024.2.4,60.066698061446445,2024-11-19 14h49.04.192239 +0000,
0.005,-0.31,34,34,0,up,2.0202454999998736,None,space,0.33792099999982383,None,,,,,0,34,34,34,,,,,522.4607664999999,,,,,,,,,,,,522.4444910000002,522.4607664999999,522.4607664999999,524.4928263000002,,,,524.4930721999999,524.5085869,524.5085869,524.5085869,524.8083972999998,524.8591665999998,,,,,up,2.0202454999998736,None,space,0.33792099999982383,None,,,,,,,,,,,,p115,001,2024-11-19_14h48.54.141,posner_endo_new1,2024.2.4,60.066698061446445,2024-11-19 14h49.04.192239 +0000,
-0.31,0.005,35,35,0,down,2.1575683999999455,None,space,0.34151850000034756,None,,,,,0,35,35,35,,,,,524.8749148000002,,,,,,,,,,,,524.8593332999999,524.8749148000002,524.8749148000002,527.0402850999999,,,,527.0405335,527.0559985,527.0559985,527.0559985,527.3558257,527.4065814,,,,,down,2.1575683999999455,None,space,0.34151850000034756,None,,,,,,,,,,,,p115,001,2024-11-19_14h48.54.141,posner_endo_new1,2024.2.4,60.066698061446445,2024-11-19 14h49.04.192239 +0000,
-0.31,0.005,36,36,0,up,5.746479399999771,None,space,0.321729900000264,None,,,,,0,36,36,36,,,,,527.4224421999998,,,,,,,,,,,,527.4067442999999,527.4224421999998,527.4224421999998,533.1840057,,,,533.1842597999998,533.1998116999998,533.1998116999998,533.1998116999998,533.4995088999999,533.5336315,,,,,up,5.746479399999771,None,space,0.321729900000264,None,,,,,,,,,,,,p115,001,2024-11-19_14h48.54.141,posner_endo_new1,2024.2.4,60.066698061446445,2024-11-19 14h49.04.192239 +0000,
10,0.005,37,37,0,down,1.8357191000000057,None,None,,,,,,,0,37,37,37,,,,,533.5494835999998,,,,,,,,,,,,533.5337961,533.5494835999998,533.5494835999998,535.3982053,,,,535.3984606999998,535.4141448999999,535.4141448999999,535.4141448999999,535.7139480000001,538.4111616,,,,536.413219,down,1.8357191000000057,None,None,,,,,,,,,,,,,,p115,001,2024-11-19_14h48.54.141,posner_endo_new1,2024.2.4,60.066698061446445,2024-11-19 14h49.04.192239 +0000,
0.005,0.31,38,38,0,down,1.429229899999882,None,space,0.3215567000002011,None,,,,,0,38,38,38,,,,,538.4278189000001,,,,,,,,,,,,538.4113213999999,538.4278189000001,538.4278189000001,539.8606335999998,,,,539.8608857999998,539.8761891999998,539.8761891999998,539.8761891999998,540.1760220000001,540.2100055999999,,,,,down,1.429229899999882,None,space,0.3215567000002011,None,,,,,,,,,,,,p115,001,2024-11-19_14h48.54.141,posner_endo_new1,2024.2.4,60.066698061446445,2024-11-19 14h49.04.192239 +0000,
0.005,-0.31,39,39,0,up,4.470915999999761,None,space,0.37752610000006825,None,,,,,0,39,39,39,,,,,540.2257777,,,,,,,,,,,,540.2101659,540.2257777,540.2257777,544.7057728,,,,544.706209,544.7209800999999,544.7209800999999,544.7209800999999,545.0206573999999,545.1053255000002,,,,,up,4.470915999999761,None,space,0.37752610000006825,None,,,,,,,,,,,,p115,001,2024-11-19_14h48.54.141,posner_endo_new1,2024.2.4,60.066698061446445,2024-11-19 14h49.04.192239 +0000,
0.31,0.005,40,40,0,down,1.7927687999999762,None,space,0.33494659999996657,None,,,,,0,40,40,40,,,,,545.1205163,,,,,,,,,,,,545.1056365999998,545.1205163,545.1205163,546.9201287000001,,,,546.9205751,546.9356551000001,546.9356551000001,546.9356551000001,547.2355456,547.2863849999999,,,,,down,1.7927687999999762,None,space,0.33494659999996657,None,,,,,,,,,,,,p115,001,2024-11-19_14h48.54.141,posner_endo_new1,2024.2.4,60.066698061446445,2024-11-19 14h49.04.192239 +0000,
-0.31,0.005,41,41,0,up,2.1627825000000485,None,space,0.5310349000001224,None,,,,,0,41,41,41,,,,,547.3021140000001,,,,,,,,,,,,547.2866055,547.3021140000001,547.3021140000001,549.4676180000001,,,,549.4679347000001,549.4832649999998,549.4832649999998,549.4832649999998,549.7827609000001,550.0170008999999,,,,,up,2.1627825000000485,None,space,0.5310349000001224,None,,,,,,,,,,,,p115,001,2024-11-19_14h48.54.141,posner_endo_new1,2024.2.4,60.066698061446445,2024-11-19 14h49.04.192239 +0000,
0.31,0.005,42,42,0,down,1.9685394000002816,None,space,0.27375809999966805,None,,,,,0,42,42,42,,,,,550.0326445999999,,,,,,,,,,,,550.0172152999999,550.0326445999999,550.0326445999999,552.0148777999998,,,,552.0151961000001,552.0305517000002,552.0305517000002,552.0305517000002,552.3302675,552.3148016,,,,,down,1.9685394000002816,None,space,0.27375809999966805,None,,,,,,,,,,,,p115,001,2024-11-19_14h48.54.141,posner_endo_new1,2024.2.4,60.066698061446445,2024-11-19 14h49.04.192239 +0000,
10,0.005,43,43,0,up,2.408199500000137,None,None,,,,,,,0,43,43,43,,,,,552.3302675,,,,,,,,,,,,552.3150107000001,552.3302675,552.3302675,554.7456548999999,,,,554.7459619000001,554.7610764000001,554.7610764000001,554.7610764000001,555.0608582999998,557.7580751999999,,,,555.7768354,up,2.408199500000137,None,None,,,,,,,,,,,,,,p115,001,2024-11-19_14h48.54.141,posner_endo_new1,2024.2.4,60.066698061446445,2024-11-19 14h49.04.192239 +0000,
-0.31,0.005,44,44,0,up,1.5057590999999775,None,space,0.3949342999999317,None,,,,,0,44,44,44,,,,,557.7747245999999,,,,,,,,,,,,557.7582851000002,557.7747245999999,557.7747245999999,559.2908647999998,,,,559.2911709,559.3064276999999,559.3064276999999,559.3064276999999,559.6061094000002,559.7072115999999,,,,,up,1.5057590999999775,None,space,0.3949342999999317,None,,,,,,,,,,,,p115,001,2024-11-19_14h48.54.141,posner_endo_new1,2024.2.4,60.066698061446445,2024-11-19 14h49.04.192239 +0000,
0.005,0.31,45,45,0,down,1.822374999999738,None,space,0.317471100000148,None,,,,,0,45,45,45,,,,,559.7227681999998,,,,,,,,,,,,559.7074246000002,559.7227681999998,559.7227681999998,561.5550859999998,,,,561.5553934,561.5708196,561.5708196,561.5708196,561.8706023,561.9049027000001,,,,,down,1.822374999999738,None,space,0.317471100000148,None,,,,,,,,,,,,p115,001,2024-11-19_14h48.54.141,posner_endo_new1,2024.2.4,60.066698061446445,2024-11-19 14h49.04.192239 +0000,
0.005,-0.31,46,46,0,up,5.024169600000278,None,space,0.4468493999997918,None,,,,,0,46,46,46,,,,,561.9204608999999,,,,,,,,,,,,561.9051140000001,561.9204608999999,561.9204608999999,566.9497743000002,,,,566.9500752999998,566.9652599000001,566.9652599000001,566.9652599000001,567.2649832000002,567.4159626000001,,,,,up,5.024169600000278,None,space,0.4468493999997918,None,,,,,,,,,,,,p115,001,2024-11-19_14h48.54.141,posner_endo_new1,2024.2.4,60.066698061446445,2024-11-19 14h49.04.192239 +0000,
-0.31,0.005,47,47,0,down,5.233478699999978,None,space,0.3551234999999906,None,,,,,0,47,47,47,,,,,567.4313941999999,,,,,,,,,,,,567.4161826999998,567.4313941999999,567.4313941999999,572.6770747999999,,,,572.6773807999998,572.6928890999998,572.6928890999998,572.6928890999998,572.9924308999998,573.0599732999999,,,,,down,5.233478699999978,None,space,0.3551234999999906,None,,,,,,,,,,,,p115,001,2024-11-19_14h48.54.141,posner_endo_new1,2024.2.4,60.066698061446445,2024-11-19 14h49.04.192239 +0000,
0.005,-0.31,48,48,0,up,4.876966899999843,None,space,0.3830139000001509,None,,,,,0,48,48,48,,,,,573.0757325999998,,,,,,,,,,,,573.0601923999998,573.0757325999998,573.0757325999998,577.9550865000001,,,,577.9553973000002,577.9706265999998,577.9706265999998,577.9706265999998,578.2702902999999,578.3547121000001,,,,,up,4.876966899999843,None,space,0.3830139000001509,None,,,,,,,,,,,,p115,001,2024-11-19_14h48.54.141,posner_endo_new1,2024.2.4,60.066698061446445,2024-11-19 14h49.04.192239 +0000,
0.005,-0.31,49,49,0,down,2.1909714000003078,None,space,0.3388616999995975,None,,,,,0,49,49,49,,,,,578.3703065999998,,,,,,,,,,,,578.3549219000001,578.3703065999998,578.3703065999998,580.5689410999998,,,,580.5691874999998,580.5845714000002,580.5845714000002,580.5845714000002,580.8843563,580.9351117000001,,,,,down,2.1909714000003078,None,space,0.3388616999995975,None,,,,,,,,,,,,p115,001,2024-11-19_14h48.54.141,posner_endo_new1,2024.2.4,60.066698061446445,2024-11-19 14h49.04.192239 +0000,
0.005,0.31,50,50,0,up,4.601900000000114,None,space,0.34593160000031276,None,,,,,0,50,50,50,,,,,580.9507606000002,,,,,,,,,,,,580.9352714000001,580.9507606000002,580.9507606000002,585.5635597999999,,,,585.5638057000001,585.5796353000001,585.5796353000001,585.5796353000001,585.8793037999999,585.9299719,,,,,up,4.601900000000114,None,space,0.34593160000031276,None,,,,,,,,,,,,p115,001,2024-11-19_14h48.54.141,posner_endo_new1,2024.2.4,60.066698061446445,2024-11-19 14h49.04.192239 +0000,
0.31,0.005,51,51,0,down,1.8228562999997848,None,space,0.5303552000000309,None,,,,,0,51,51,51,,,,,585.9457306999998,,,,,,,,,,,,585.9301317,585.9457306999998,585.9457306999998,587.7780818000001,,,,587.7783312000001,587.7938887,587.7938887,587.7938887,588.0935368,588.3274980000001,,,,,down,1.8228562999997848,None,space,0.5303552000000309,None,,,,,,,,,,,,p115,001,2024-11-19_14h48.54.141,posner_endo_new1,2024.2.4,60.066698061446445,2024-11-19 14h49.04.192239 +0000,
0.31,0.005,52,52,0,up,5.2256506000003355,None,space,0.35353859999986526,None,,,,,0,52,52,52,,,,,588.3433426000001,,,,,,,,,,,,588.3276620000001,588.3433426000001,588.3433426000001,593.5721948,,,,593.5724405999999,593.5879387,593.5879387,593.5879387,593.8876153000001,593.9552266000001,,,,,up,5.2256506000003355,None,space,0.35353859999986526,None,,,,,,,,,,,,p115,001,2024-11-19_14h48.54.141,posner_endo_new1,2024.2.4,60.066698061446445,2024-11-19 14h49.04.192239 +0000,
0.005,0.31,53,53,0,down,2.3016303999997945,None,space,0.37734720000025845,None,,,,,0,53,53,53,,,,,593.9708194,,,,,,,,,,,,593.9553955000001,593.9708194,593.9708194,596.2860984999998,,,,596.2863410999998,596.3019294000001,596.3019294000001,596.3019294000001,596.6016476999998,596.6856383999998,,,,,down,2.3016303999997945,None,space,0.37734720000025845,None,,,,,,,,,,,,p115,001,2024-11-19_14h48.54.141,posner_endo_new1,2024.2.4,60.066698061446445,2024-11-19 14h49.04.192239 +0000,
-0.31,0.005,54,54,0,up,5.131224200000361,None,space,0.30924000000004526,None,,,,,0,54,54,54,,,,,596.7015095000002,,,,,,,,,,,,596.6857998,596.7015095000002,596.7015095000002,601.8469888,,,,601.8472361999998,601.8628242999998,601.8628242999998,601.8628242999998,602.1625886000002,602.1801007999998,,,,,up,5.131224200000361,None,space,0.30924000000004526,None,,,,,,,,,,,,p115,001,2024-11-19_14h48.54.141,posner_endo_new1,2024.2.4,60.066698061446445,2024-11-19 14h49.04.192239 +0000,
10,0.005,55,55,0,down,2.220821899999919,None,None,,,,,,,0,55,55,55,,,,,602.1959053999999,,,,,,,,,,,,602.1802735000001,602.1959053999999,602.1959053999999,604.4276449999998,,,,604.4278961,604.4435377,604.4435377,604.4435377,604.7436696,607.4405707000001,,,,605.4591749000001,down,2.220821899999919,None,None,,,,,,,,,,,,,,p115,001,2024-11-19_14h48.54.141,posner_endo_new1,2024.2.4,60.066698061446445,2024-11-19 14h49.04.192239 +0000,
0.31,0.005,56,56,0,down,0.9356687000004058,None,space,0.3397322000000713,None,,,,,0,56,56,56,,,,,607.4571958000001,,,,,,,,,,,,607.4407347000001,607.4571958000001,607.4571958000001,608.4070550000001,,,,608.4072987999998,608.4229059999998,608.4229059999998,608.4229059999998,608.7225239999998,608.7733374999998,,,,,down,0.9356687000004058,None,space,0.3397322000000713,None,,,,,,,,,,,,p115,001,2024-11-19_14h48.54.141,posner_endo_new1,2024.2.4,60.066698061446445,2024-11-19 14h49.04.192239 +0000,
0.005,0.31,57,57,0,up,1.9323206000003665,None,space,0.3444068000003426,None,,,,,0,57,57,57,,,,,608.7890219999999,,,,,,,,,,,,608.7735004000001,608.7890219999999,608.7890219999999,610.7379206,,,,610.7381730000002,610.7538137000001,610.7538137000001,610.7538137000001,611.0534078000001,611.1042966999998,,,,,up,1.9323206000003665,None,space,0.3444068000003426,None,,,,,,,,,,,,p115,001,2024-11-19_14h48.54.141,posner_endo_new1,2024.2.4,60.066698061446445,2024-11-19 14h49.04.192239 +0000,
-0.31,0.005,58,58,0,down,2.0244759000001977,None,space,0.2940214999998716,None,,,,,0,58,58,58,,,,,611.1201464999999,,,,,,,,,,,,611.1044600999999,611.1201464999999,611.1201464999999,613.1520627999998,,,,613.1523054999998,613.1679398000001,613.1679398000001,613.1679398000001,613.4676694999998,613.4685844,,,,,down,2.0244759000001977,None,space,0.2940214999998716,None,,,,,,,,,,,,p115,001,2024-11-19_14h48.54.141,posner_endo_new1,2024.2.4,60.066698061446445,2024-11-19 14h49.04.192239 +0000,
-0.31,0.005,59,59,0,up,1.3805739999997968,None,space,0.3879793000000973,None,,,,,0,59,59,59,,,,,613.4843151999999,,,,,,,,,,,,613.4687448999998,613.4843151999999,613.4843151999999,614.8670791,,,,614.8673223000001,614.8829086000001,614.8829086000001,614.8829086000001,615.1825555999999,615.2833473000001,,,,,up,1.3805739999997968,None,space,0.3879793000000973,None,,,,,,,,,,,,p115,001,2024-11-19_14h48.54.141,posner_endo_new1,2024.2.4,60.066698061446445,2024-11-19 14h49.04.192239 +0000,
,,,,,,,,,,,,,,,,,,,,,,,,,,,,,,,,,,,,,,,,,,,,,,,,,,,,,,,,,,615.2834548000001,615.2990909999999,615.2990909999999,675.2716703000001,None,,,,,,,p115,001,2024-11-19_14h48.54.141,posner_endo_new1,2024.2.4,60.066698061446445,2024-11-19 14h49.04.192239 +0000,
,,,,,,,,,,,,,,,,,,,,,,,,,,,,,,,,675.2717257999998,675.2878676,678.2848104999998,,,,,,,,,,,,,,,,,,,,,,,,,,,,,,,,,,,p115,001,2024-11-19_14h48.54.141,posner_endo_new1,2024.2.4,60.066698061446445,2024-11-19 14h49.04.192239 +0000,
0.005,0.31,0,0,0,up,9.898240799999712,None,space,0.3093751000001248,None,,,,,,,,,0,0,0,0,678.3035524000002,,,,,,,,,,,,678.2932931,678.3035524000002,678.3035524000002,688.2085643,,,,688.2088506999999,688.2244581999998,688.2244581999998,688.2244581999998,688.5242871999999,688.5416442000001,,,,,,,,,,,,,,,,up,9.898240799999712,None,space,0.3093751000001248,None,p115,001,2024-11-19_14h48.54.141,posner_endo_new1,2024.2.4,60.066698061446445,2024-11-19 14h49.04.192239 +0000,
-0.31,0.005,1,1,0,down,1.9149130999999215,None,space,0.43875740000021324,None,,,,,,,,,0,1,1,1,688.5574701999999,,,,,,,,,,,,688.5418101,688.5574701999999,688.5574701999999,690.4731717999998,,,,690.473426,690.4888245000002,690.4888245000002,690.4888245000002,690.7885738,690.9390969000001,,,,,,,,,,,,,,,,down,1.9149130999999215,None,space,0.43875740000021324,None,p115,001,2024-11-19_14h48.54.141,posner_endo_new1,2024.2.4,60.066698061446445,2024-11-19 14h49.04.192239 +0000,
0.005,-0.31,2,2,0,up,3.0705097000000023,None,space,0.3564175999999861,None,,,,,,,,,0,2,2,2,690.9549784999999,,,,,,,,,,,,690.9392650999998,690.9549784999999,690.9549784999999,694.0360083,,,,694.0362541999998,694.0517108999998,694.0517108999998,694.0517108999998,694.3515578000001,694.4190054999999,,,,,,,,,,,,,,,,up,3.0705097000000023,None,space,0.3564175999999861,None,p115,001,2024-11-19_14h48.54.141,posner_endo_new1,2024.2.4,60.066698061446445,2024-11-19 14h49.04.192239 +0000,
0.31,0.005,3,3,0,down,2.4539503000000877,None,space,0.3221005000000332,None,,,,,,,,,0,3,3,3,694.4348444000002,,,,,,,,,,,,694.4191722,694.4348444000002,694.4348444000002,696.8995292999998,,,,696.8997770000001,696.9156087000001,696.9156087000001,696.9156087000001,697.2153684,697.2494161,,,,,,,,,,,,,,,,down,2.4539503000000877,None,space,0.3221005000000332,None,p115,001,2024-11-19_14h48.54.141,posner_endo_new1,2024.2.4,60.066698061446445,2024-11-19 14h49.04.192239 +0000,
0.005,0.31,4,4,0,up,2.5357512999999017,None,space,0.34789930000033564,None,,,,,,,,,0,4,4,4,697.2649934000001,,,,,,,,,,,,697.2495804,697.2649934000001,697.2649934000001,699.8135131999998,,,,699.8137611000002,699.8292154999999,699.8292154999999,699.8292154999999,700.1289557999999,700.1797528000002,,,,,,,,,,,,,,,,up,2.5357512999999017,None,space,0.34789930000033564,None,p115,001,2024-11-19_14h48.54.141,posner_endo_new1,2024.2.4,60.066698061446445,2024-11-19 14h49.04.192239 +0000,
0.005,-0.31,5,5,0,down,2.6377284999998665,None,space,0.3752843999996003,None,,,,,,,,,0,5,5,5,700.1954876999998,,,,,,,,,,,,700.1799188,700.1954876999998,700.1954876999998,702.8435982999999,,,,702.8438446,702.8594778000001,702.8594778000001,702.8594778000001,703.1591521999999,703.2435743999999,,,,,,,,,,,,,,,,down,2.6377284999998665,None,space,0.3752843999996003,None,p115,001,2024-11-19_14h48.54.141,posner_endo_new1,2024.2.4,60.066698061446445,2024-11-19 14h49.04.192239 +0000,
-0.31,0.005,6,6,0,up,3.182134700000006,None,space,0.28848500000003696,None,,,,,,,,,0,6,6,6,703.2591125999998,,,,,,,,,,,,703.2437405999999,703.2591125999998,703.2591125999998,706.4564697999999,,,,706.4567160000001,706.4725204000001,706.4725204000001,706.4725204000001,706.7721018000002,706.7729328999999,,,,,,,,,,,,,,,,up,3.182134700000006,None,space,0.28848500000003696,None,p115,001,2024-11-19_14h48.54.141,posner_endo_new1,2024.2.4,60.066698061446445,2024-11-19 14h49.04.192239 +0000,
0.005,0.31,7,7,0,down,2.284040500000174,None,space,0.5176107000002048,None,,,,,,,,,0,7,7,7,706.7887906000001,,,,,,,,,,,,706.7730989000002,706.7887906000001,706.7887906000001,709.0872613000001,,,,709.0875059999998,709.1031555999998,709.1031555999998,709.1031555999998,709.4026924,709.6366742,,,,,,,,,,,,,,,,down,2.284040500000174,None,space,0.5176107000002048,None,p115,001,2024-11-19_14h48.54.141,posner_endo_new1,2024.2.4,60.066698061446445,2024-11-19 14h49.04.192239 +0000,
0.31,0.005,8,8,0,up,2.67650679999997,None,space,0.2986390000000938,None,,,,,,,,,0,8,8,8,709.6525808000001,,,,,,,,,,,,709.6368406000001,709.6525808000001,709.6525808000001,712.3339225999998,,,,712.3341740000001,712.3498783999999,712.3498783999999,712.3498783999999,712.6494718999998,712.6504125000001,,,,,,,,,,,,,,,,up,2.67650679999997,None,space,0.2986390000000938,None,p115,001,2024-11-19_14h48.54.141,posner_endo_new1,2024.2.4,60.066698061446445,2024-11-19 14h49.04.192239 +0000,
10,0.005,9,9,0,down,2.182476100000258,None,None,,,,,,,,,,,0,9,9,9,712.666154,,,,,,,,,,,,712.6505824999999,712.666154,712.666154,714.8647477999998,,,,714.8649971,714.8806838,714.8806838,714.8806838,715.1803482999999,717.8776705,,,,715.8960662,,,,,,,,,,,,down,2.182476100000258,None,None,,,p115,001,2024-11-19_14h48.54.141,posner_endo_new1,2024.2.4,60.066698061446445,2024-11-19 14h49.04.192239 +0000,
0.31,0.005,10,10,0,up,0.18660370000043258,None,space,0.3162259999999151,None,,,,,,,,,0,10,10,10,717.894076,,,,,,,,,,,,717.8778404,717.894076,717.894076,718.0947858999998,,,,718.0950441,718.1105151000002,718.1105151000002,718.1105151000002,718.4102753000002,718.4278349000001,,,,,,,,,,,,,,,,up,0.18660370000043258,None,space,0.3162259999999151,None,p115,001,2024-11-19_14h48.54.141,posner_endo_new1,2024.2.4,60.066698061446445,2024-11-19 14h49.04.192239 +0000,
0.005,0.31,11,11,0,down,3.6219344000001,None,space,0.3216084000000592,None,,,,,,,,,0,11,11,11,718.4435632,,,,,,,,,,,,718.4279989000001,718.4435632,718.4435632,722.0738225999999,,,,722.0740691999999,722.0897922999998,722.0897922999998,722.0897922999998,722.3894936000002,722.4234293999998,,,,,,,,,,,,,,,,down,3.6219344000001,None,space,0.3216084000000592,None,p115,001,2024-11-19_14h48.54.141,posner_endo_new1,2024.2.4,60.066698061446445,2024-11-19 14h49.04.192239 +0000,
10,0.005,12,12,0,up,3.025641199999882,None,None,,,,,,,,,,,0,12,12,12,722.4394551,,,,,,,,,,,,722.4235997999999,722.4394551,722.4394551,725.4705069000001,,,,725.4707560000002,725.4863187999999,725.4863187999999,725.4863187999999,725.7860242000002,728.4833254,,,,726.4854547999998,,,,,,,,,,,,up,3.025641199999882,None,None,,,p115,001,2024-11-19_14h48.54.141,posner_endo_new1,2024.2.4,60.066698061446445,2024-11-19 14h49.04.192239 +0000,
-0.31,0.005,13,13,0,up,3.598180399999819,None,space,0.32596190000003844,None,,,,,,,,,0,13,13,13,728.4999584000002,,,,,,,,,,,,728.4834888,728.4999584000002,728.4999584000002,732.1137230999998,,,,732.1139718999998,732.1294548999999,732.1294548999999,732.1294548999999,732.4292639,732.4631368999999,,,,,,,,,,,,,,,,up,3.598180399999819,None,space,0.32596190000003844,None,p115,001,2024-11-19_14h48.54.141,posner_endo_new1,2024.2.4,60.066698061446445,2024-11-19 14h49.04.192239 +0000,
0.31,0.005,14,14,0,down,2.2578333999999813,None,space,0.5442068000002109,None,,,,,,,,,0,14,14,14,732.4790505000001,,,,,,,,,,,,732.4632998000002,732.4790505000001,732.4790505000001,734.7442572,,,,734.7445026999999,734.7600984000001,734.7600984000001,734.7600984000001,735.0597437000001,735.3102555999999,,,,,,,,,,,,,,,,down,2.2578333999999813,None,space,0.5442068000002109,None,p115,001,2024-11-19_14h48.54.141,posner_endo_new1,2024.2.4,60.066698061446445,2024-11-19 14h49.04.192239 +0000,
0.005,-0.31,15,15,0,up,3.0983956999998554,None,space,0.3357814999999391,None,,,,,,,,,0,15,15,15,735.3262295,,,,,,,,,,,,735.3104205,735.3262295,735.3262295,738.4405029,,,,738.4407621,738.4565090000001,738.4565090000001,738.4565090000001,738.7561464999999,738.8069599,,,,,,,,,,,,,,,,up,3.0983956999998554,None,space,0.3357814999999391,None,p115,001,2024-11-19_14h48.54.141,posner_endo_new1,2024.2.4,60.066698061446445,2024-11-19 14h49.04.192239 +0000,
0.31,0.005,16,16,0,down,2.3224872000000687,None,space,0.3786795000000893,None,,,,,,,,,0,16,16,16,738.8226104999999,,,,,,,,,,,,738.8071242000001,738.8226104999999,738.8226104999999,741.1543102,,,,741.1545566999998,741.1702965999998,741.1702965999998,741.1702965999998,741.4699765999999,741.5540713,,,,,,,,,,,,,,,,down,2.3224872000000687,None,space,0.3786795000000893,None,p115,001,2024-11-19_14h48.54.141,posner_endo_new1,2024.2.4,60.066698061446445,2024-11-19 14h49.04.192239 +0000,
0.31,0.005,17,17,0,up,3.215034299999843,None,space,0.3146076999996694,None,,,,,,,,,0,17,17,17,741.5699949999998,,,,,,,,,,,,741.5542455,741.5699949999998,741.5699949999998,744.8007662,,,,744.8010214999999,744.8166470000001,744.8166470000001,744.8166470000001,745.1163769999998,745.1338289,,,,,,,,,,,,,,,,up,3.215034299999843,None,space,0.3146076999996694,None,p115,001,2024-11-19_14h48.54.141,posner_endo_new1,2024.2.4,60.066698061446445,2024-11-19 14h49.04.192239 +0000,
0.005,-0.31,18,18,0,down,2.3478627999998025,None,space,0.2745832000000519,None,,,,,,,,,0,18,18,18,745.1494493999999,,,,,,,,,,,,745.1339973999998,745.1494493999999,745.1494493999999,747.4981051,,,,747.4983557,747.5137734,747.5137734,747.5137734,747.8135378000002,747.7975096999999,,,,,,,,,,,,,,,,down,2.3478627999998025,None,space,0.2745832000000519,None,p115,001,2024-11-19_14h48.54.141,posner_endo_new1,2024.2.4,60.066698061446445,2024-11-19 14h49.04.192239 +0000,
0.005,-0.31,19,19,0,up,2.8512080999998943,None,space,0.25748790000034205,None,,,,,,,,,0,19,19,19,747.8135378000002,,,,,,,,,,,,747.7976801999998,747.8135378000002,747.8135378000002,750.6779376999998,,,,750.6781818,750.6939388999999,750.6939388999999,750.6939388999999,,750.9611444000002,,,,,,,,,,,,,,,,up,2.8512080999998943,None,space,0.25748790000034205,None,p115,001,2024-11-19_14h48.54.141,posner_endo_new1,2024.2.4,60.066698061446445,2024-11-19 14h49.04.192239 +0000,
10,0.005,20,20,0,down,2.37551620000022,None,None,,,,,,,,,,,0,20,20,20,750.9769655999999,,,,,,,,,,,,750.9613106000002,750.9769655999999,750.9769655999999,753.3584418999999,,,,753.3586958000001,753.3745315000001,753.3745315000001,753.3745315000001,753.6741698000001,756.3714795999999,,,,754.3901547,,,,,,,,,,,,down,2.37551620000022,None,None,,,p115,001,2024-11-19_14h48.54.141,posner_endo_new1,2024.2.4,60.066698061446445,2024-11-19 14h49.04.192239 +0000,
0.005,-0.31,21,21,0,up,0.8128028999999515,None,space,0.4017655000002378,None,,,,,,,,,0,21,21,21,756.388074,,,,,,,,,,,,756.3716427999998,756.388074,756.388074,757.2047277000001,,,,757.2049803999998,757.2204699999998,757.2204699999998,757.2204699999998,757.5201314999999,757.6376939000002,,,,,,,,,,,,,,,,up,0.8128028999999515,None,space,0.4017655000002378,None,p115,001,2024-11-19_14h48.54.141,posner_endo_new1,2024.2.4,60.066698061446445,2024-11-19 14h49.04.192239 +0000,
0.005,0.31,22,22,0,down,2.779792699999689,None,space,0.3943718999998964,None,,,,,,,,,0,22,22,22,757.6535430999998,,,,,,,,,,,,757.6378601000001,757.6535430999998,757.6535430999998,760.4348068999998,,,,760.4350550999998,760.4504768000002,760.4504768000002,760.4504768000002,760.7503940000001,760.8510476000001,,,,,,,,,,,,,,,,down,2.779792699999689,None,space,0.3943718999998964,None,p115,001,2024-11-19_14h48.54.141,posner_endo_new1,2024.2.4,60.066698061446445,2024-11-19 14h49.04.192239 +0000,
0.31,0.005,23,23,0,up,2.6701442000003226,None,space,0.42487019999998665,None,,,,,,,,,0,23,23,23,760.866845,,,,,,,,,,,,760.8512135999999,760.866845,760.866845,763.548131,,,,763.5483795,763.5641415,763.5641415,763.5641415,763.8636618,763.9977558999999,,,,,,,,,,,,,,,,up,2.6701442000003226,None,space,0.42487019999998665,None,p115,001,2024-11-19_14h48.54.141,posner_endo_new1,2024.2.4,60.066698061446445,2024-11-19 14h49.04.192239 +0000,
-0.31,0.005,24,24,0,down,2.4033001000002514,None,space,0.5316020000000208,None,,,,,,,,,0,24,24,24,764.0137108999998,,,,,,,,,,,,763.9979195999999,764.0137108999998,764.0137108999998,766.4285338,,,,766.4287798,766.4444712999998,766.4444712999998,766.4444712999998,766.7443926999999,766.9781281,,,,,,,,,,,,,,,,down,2.4033001000002514,None,space,0.5316020000000208,None,p115,001,2024-11-19_14h48.54.141,posner_endo_new1,2024.2.4,60.066698061446445,2024-11-19 14h49.04.192239 +0000,
10,0.005,25,25,0,up,2.82295189999968,None,None,,,,,,,,,,,0,25,25,25,766.9939967999999,,,,,,,,,,,,766.9782925999998,766.9939967999999,766.9939967999999,769.8251009,,,,769.8253460999999,769.8410174,769.8410174,769.8410174,770.1405645999998,772.8381163999998,,,,770.8398023,,,,,,,,,,,,up,2.82295189999968,None,None,,,p115,001,2024-11-19_14h48.54.141,posner_endo_new1,2024.2.4,60.066698061446445,2024-11-19 14h49.04.192239 +0000,
0.005,0.31,26,26,0,down,0.36284489999979996,None,space,0.3720960999999079,None,,,,,,,,,0,26,26,26,772.8544287,,,,,,,,,,,,772.8382766999998,772.8544287,772.8544287,773.2217556999999,,,,773.2220044000001,773.2374599,773.2374599,773.2374599,773.5371134000002,773.6213825,,,,,,,,,,,,,,,,down,0.36284489999979996,None,space,0.3720960999999079,None,p115,001,2024-11-19_14h48.54.141,posner_endo_new1,2024.2.4,60.066698061446445,2024-11-19 14h49.04.192239 +0000,
0.31,0.005,27,27,0,up,2.5562950999997156,None,space,0.3800734999999804,None,,,,,,,,,0,27,27,27,773.6370308,,,,,,,,,,,,773.6215477999999,773.6370308,773.6370308,776.2019187999999,,,,776.2021667999998,776.2177511,776.2177511,776.2177511,776.5175267999998,776.6015727999998,,,,,,,,,,,,,,,,up,2.5562950999997156,None,space,0.3800734999999804,None,p115,001,2024-11-19_14h48.54.141,posner_endo_new1,2024.2.4,60.066698061446445,2024-11-19 14h49.04.192239 +0000,
0.005,0.31,28,28,0,down,2.0071422000000894,None,space,0.28458809999983714,None,,,,,,,,,0,28,28,28,776.6174132000001,,,,,,,,,,,,776.6017456999998,776.6174132000001,776.6174132000001,778.6326083999998,,,,778.6328554000002,778.6486199000001,778.6486199000001,778.6486199000001,778.9481915000001,778.9490288000002,,,,,,,,,,,,,,,,down,2.0071422000000894,None,space,0.28458809999983714,None,p115,001,2024-11-19_14h48.54.141,posner_endo_new1,2024.2.4,60.066698061446445,2024-11-19 14h49.04.192239 +0000,
10,0.005,29,29,0,up,2.7005911999999626,None,None,,,,,,,,,,,0,29,29,29,778.9649408,,,,,,,,,,,,778.9491917999999,778.9649408,778.9649408,781.6796758999999,,,,781.6799213999998,781.6956543000001,781.6956543000001,781.6956543000001,781.9951692,784.6925709000002,,,,782.7111107999999,,,,,,,,,,,,up,2.7005911999999626,None,None,,,p115,001,2024-11-19_14h48.54.141,posner_endo_new1,2024.2.4,60.066698061446445,2024-11-19 14h49.04.192239 +0000,
0.005,-0.31,30,30,0,up,2.595566299999973,None,space,0.2892050000000381,None,,,,,,,,,0,30,30,30,784.7091360999998,,,,,,,,,,,,784.6927323,784.7091360999998,784.7091360999998,787.3072843,,,,787.3075303,787.3231249999999,787.3231249999999,787.3231249999999,787.6226744,787.6235044999999,,,,,,,,,,,,,,,,up,2.595566299999973,None,space,0.2892050000000381,None,p115,001,2024-11-19_14h48.54.141,posner_endo_new1,2024.2.4,60.066698061446445,2024-11-19 14h49.04.192239 +0000,
0.31,0.005,31,31,0,down,2.0025416000003133,None,space,0.5000602000000072,None,,,,,,,,,0,31,31,31,787.6395308000001,,,,,,,,,,,,787.6236666999998,787.6395308000001,787.6395308000001,789.6549052999999,,,,789.6551877000002,789.6708233999998,789.6708233999998,789.6708233999998,789.9703574999999,790.1875983,,,,,,,,,,,,,,,,down,2.0025416000003133,None,space,0.5000602000000072,None,p115,001,2024-11-19_14h48.54.141,posner_endo_new1,2024.2.4,60.066698061446445,2024-11-19 14h49.04.192239 +0000,
10,0.005,32,32,0,up,2.565548200000194,None,None,,,,,,,,,,,0,32,32,32,790.2035215000001,,,,,,,,,,,,790.1877611999998,790.2035215000001,790.2035215000001,792.7850229000001,,,,792.7852785999999,792.8008879999998,792.8008879999998,792.8008879999998,793.1005716,795.7978231000002,,,,793.8163946999998,,,,,,,,,,,,up,2.565548200000194,None,None,,,p115,001,2024-11-19_14h48.54.141,posner_endo_new1,2024.2.4,60.066698061446445,2024-11-19 14h49.04.192239 +0000,
-0.31,0.005,33,33,0,up,1.9943407000000661,None,space,0.3065212999999858,None,,,,,,,,,0,33,33,33,795.8144631999999,,,,,,,,,,,,795.7979844000001,795.8144631999999,795.8144631999999,797.8132062,,,,797.8134534000001,797.8289301999998,797.8289301999998,797.8289301999998,798.1286897999998,798.1461896999999,,,,,,,,,,,,,,,,up,1.9943407000000661,None,space,0.3065212999999858,None,p115,001,2024-11-19_14h48.54.141,posner_endo_new1,2024.2.4,60.066698061446445,2024-11-19 14h49.04.192239 +0000,
10,0.005,34,34,0,down,1.9511969000000136,None,None,,,,,,,,,,,0,34,34,34,798.1620324999999,,,,,,,,,,,,798.1463570999999,798.1620324999999,798.1620324999999,800.1274254999998,,,,800.1276707000002,800.1434285999999,800.1434285999999,800.1434285999999,800.4429817999999,803.1402812000001,,,,801.1589204000002,,,,,,,,,,,,down,1.9511969000000136,None,None,,,p115,001,2024-11-19_14h48.54.141,posner_endo_new1,2024.2.4,60.066698061446445,2024-11-19 14h49.04.192239 +0000,
0.005,-0.31,35,35,0,up,0.020095100000162347,None,space,0.4887204000001475,None,,,,,,,,,0,35,35,35,803.1569635000001,,,,,,,,,,,,803.1404446000001,803.1569635000001,803.1569635000001,803.1908588000001,,,,803.1911157,803.2068238000002,803.2068238000002,803.2068238000002,803.5063725,803.7071775999998,,,,,,,,,,,,,,,,up,0.020095100000162347,None,space,0.4887204000001475,None,p115,001,2024-11-19_14h48.54.141,posner_endo_new1,2024.2.4,60.066698061446445,2024-11-19 14h49.04.192239 +0000,
0.31,0.005,36,36,0,down,1.8623983999996199,None,space,0.38035050000007686,None,,,,,,,,,0,36,36,36,803.7228572999998,,,,,,,,,,,,803.7073414000001,803.7228572999998,803.7228572999998,805.5885748000001,,,,805.5888230999999,805.6043467999998,805.6043467999998,805.6043467999998,805.9040894999998,805.9884425999999,,,,,,,,,,,,,,,,down,1.8623983999996199,None,space,0.38035050000007686,None,p115,001,2024-11-19_14h48.54.141,posner_endo_new1,2024.2.4,60.066698061446445,2024-11-19 14h49.04.192239 +0000,
10,0.005,37,37,0,up,2.4445175000000745,None,None,,,,,,,,,,,0,37,37,37,806.0039729999999,,,,,,,,,,,,805.9886072999998,806.0039729999999,806.0039729999999,808.4522668999998,,,,808.45253,808.4679940000001,808.4679940000001,808.4679940000001,808.7678887000002,811.4652330999998,,,,809.4670075999998,,,,,,,,,,,,up,2.4445175000000745,None,None,,,p115,001,2024-11-19_14h48.54.141,posner_endo_new1,2024.2.4,60.066698061446445,2024-11-19 14h49.04.192239 +0000,
10,0.005,38,38,0,up,2.9277046000001974,None,None,,,,,,,,,,,0,38,38,38,811.4816842,,,,,,,,,,,,811.4653970999998,811.4816842,811.4816842,814.412941,,,,814.4131880999998,814.4286874,814.4286874,814.4286874,814.7282589000001,817.4256227999999,,,,815.4277031000001,,,,,,,,,,,,up,2.9277046000001974,None,None,,,p115,001,2024-11-19_14h48.54.141,posner_endo_new1,2024.2.4,60.066698061446445,2024-11-19 14h49.04.192239 +0000,
-0.31,0.005,39,39,0,down,0.07886629999984507,None,space,0.32376650000014706,None,,,,,,,,,0,39,39,39,817.4423692999999,,,,,,,,,,,,817.4257870000001,817.4423692999999,817.4423692999999,817.5263110999999,,,,817.5265574999999,817.542203,817.542203,817.542203,817.8418944999999,817.8758695000001,,,,,,,,,,,,,,,,down,0.07886629999984507,None,space,0.32376650000014706,None,p115,001,2024-11-19_14h48.54.141,posner_endo_new1,2024.2.4,60.066698061446445,2024-11-19 14h49.04.192239 +0000,
0.005,-0.31,40,40,0,up,2.5024373999999625,None,space,0.34152210000002015,None,,,,,,,,,0,40,40,40,817.8916549999999,,,,,,,,,,,,817.8760493,817.8916549999999,817.8916549999999,820.4067242000001,,,,820.4069703,820.4225514999998,820.4225514999998,820.4225514999998,820.7222569,820.7732452999999,,,,,,,,,,,,,,,,up,2.5024373999999625,None,space,0.34152210000002015,None,p115,001,2024-11-19_14h48.54.141,posner_endo_new1,2024.2.4,60.066698061446445,2024-11-19 14h49.04.192239 +0000,
0.005,-0.31,41,41,0,down,1.9240339000002677,None,space,0.37330949999977747,None,,,,,,,,,0,41,41,41,820.7888254,,,,,,,,,,,,820.7734175999999,820.7888254,820.7888254,822.7210258,,,,822.7212691,822.7369054999999,822.7369054999999,822.7369054999999,823.0365916000001,823.1204094999998,,,,,,,,,,,,,,,,down,1.9240339000002677,None,space,0.37330949999977747,None,p115,001,2024-11-19_14h48.54.141,posner_endo_new1,2024.2.4,60.066698061446445,2024-11-19 14h49.04.192239 +0000,
10,0.005,42,42,0,up,2.8326059000000896,None,None,,,,,,,,,,,0,42,42,42,823.1364457999998,,,,,,,,,,,,823.1205802,823.1364457999998,823.1364457999998,825.9841895,,,,825.9844352999999,826.000231,826.000231,826.000231,826.2999073000001,828.9972794,,,,827.0158409000001,,,,,,,,,,,,up,2.8326059000000896,None,None,,,p115,001,2024-11-19_14h48.54.141,posner_endo_new1,2024.2.4,60.066698061446445,2024-11-19 14h49.04.192239 +0000,
0.005,-0.31,43,43,0,up,2.932126799999878,None,space,0.32108289999996487,None,,,,,,,,,0,43,43,43,829.0137393,,,,,,,,,,,,828.9974435999998,829.0137393,829.0137393,831.9614683999998,,,,831.9617119,831.9774093000001,831.9774093000001,831.9774093000001,832.2770971,832.311236,,,,,,,,,,,,,,,,up,2.932126799999878,None,space,0.32108289999996487,None,p115,001,2024-11-19_14h48.54.141,posner_endo_new1,2024.2.4,60.066698061446445,2024-11-19 14h49.04.192239 +0000,
-0.31,0.005,44,44,0,down,1.8415411999999378,None,space,0.396864800000003,None,,,,,,,,,0,44,44,44,832.3270369000002,,,,,,,,,,,,832.3114085000002,832.3270369000002,832.3270369000002,834.1757505,,,,834.1759980000002,834.1916366999999,834.1916366999999,834.1916366999999,834.4913952000002,834.5922371000001,,,,,,,,,,,,,,,,down,1.8415411999999378,None,space,0.396864800000003,None,p115,001,2024-11-19_14h48.54.141,posner_endo_new1,2024.2.4,60.066698061446445,2024-11-19 14h49.04.192239 +0000,
10,0.005,45,45,0,up,2.497504299999946,None,None,,,,,,,,,,,0,45,45,45,834.6079497000001,,,,,,,,,,,,834.5923997,834.6079497000001,834.6079497000001,837.1064522000001,,,,837.1067072000001,837.1220084000001,837.1220084000001,837.1220084000001,837.4218666000002,840.1191328,,,,838.1212375999999,,,,,,,,,,,,up,2.497504299999946,None,None,,,p115,001,2024-11-19_14h48.54.141,posner_endo_new1,2024.2.4,60.066698061446445,2024-11-19 14h49.04.192239 +0000,
0.005,0.31,46,46,0,up,2.7696939000002203,None,space,0.3414863999996669,None,,,,,,,,,0,46,46,46,840.1356203,,,,,,,,,,,,840.1192973000002,840.1356203,840.1356203,842.9170917000001,,,,842.9173388999998,842.9328356999999,842.9328356999999,842.9328356999999,843.2325142,843.2832346,,,,,,,,,,,,,,,,up,2.7696939000002203,None,space,0.3414863999996669,None,p115,001,2024-11-19_14h48.54.141,posner_endo_new1,2024.2.4,60.066698061446445,2024-11-19 14h49.04.192239 +0000,
0.005,-0.31,47,47,0,down,1.7499705000000176,None,space,0.36791679999987537,None,,,,,,,,,0,47,47,47,843.2991679000002,,,,,,,,,,,,843.2833993999998,843.2991679000002,843.2991679000002,845.064828,,,,845.0650725,845.0805380000002,845.0805380000002,845.0805380000002,845.3803975999999,845.4643508999998,,,,,,,,,,,,,,,,down,1.7499705000000176,None,space,0.36791679999987537,None,p115,001,2024-11-19_14h48.54.141,posner_endo_new1,2024.2.4,60.066698061446445,2024-11-19 14h49.04.192239 +0000,
0.31,0.005,48,48,0,up,2.697161800000231,None,space,0.3599150999998528,None,,,,,,,,,0,48,48,48,845.4802709999999,,,,,,,,,,,,845.4645162000002,845.4802709999999,845.4802709999999,848.1783025,,,,848.1785544999998,848.1941324,848.1941324,848.1941324,848.4937964999999,848.5611866999998,,,,,,,,,,,,,,,,up,2.697161800000231,None,space,0.3599150999998528,None,p115,001,2024-11-19_14h48.54.141,posner_endo_new1,2024.2.4,60.066698061446445,2024-11-19 14h49.04.192239 +0000,
-0.31,0.005,49,49,0,down,1.719476499999928,None,space,0.38171939999983806,None,,,,,,,,,0,49,49,49,848.5771153000001,,,,,,,,,,,,848.5613586999998,848.5771153000001,848.5771153000001,850.3094196000002,,,,850.3096688,850.3252554999999,850.3252554999999,850.3252554999999,850.6250811,850.7090680000001,,,,,,,,,,,,,,,,down,1.719476499999928,None,space,0.38171939999983806,None,p115,001,2024-11-19_14h48.54.141,posner_endo_new1,2024.2.4,60.066698061446445,2024-11-19 14h49.04.192239 +0000,
0.005,0.31,50,50,0,up,3.019622199999958,None,space,0.3304176000001462,None,,,,,,,,,0,50,50,50,850.7247873000001,,,,,,,,,,,,850.7092306999998,850.7247873000001,850.7247873000001,853.75587,,,,853.7561135000001,853.7718449999998,853.7718449999998,853.7718449999998,854.0715263000002,854.1056242,,,,,,,,,,,,,,,,up,3.019622199999958,None,space,0.3304176000001462,None,p115,001,2024-11-19_14h48.54.141,posner_endo_new1,2024.2.4,60.066698061446445,2024-11-19 14h49.04.192239 +0000,
0.005,0.31,51,51,0,down,1.687395700000252,None,space,0.30541790000006586,None,,,,,,,,,0,51,51,51,854.1214340000001,,,,,,,,,,,,854.1057940000001,854.1214340000001,854.1214340000001,855.8202768000001,,,,855.8205328999998,855.8365398000001,855.8365398000001,855.8365398000001,856.1356142,856.1534820000002,,,,,,,,,,,,,,,,down,1.687395700000252,None,space,0.30541790000006586,None,p115,001,2024-11-19_14h48.54.141,posner_endo_new1,2024.2.4,60.066698061446445,2024-11-19 14h49.04.192239 +0000,
10,0.005,52,52,0,up,2.4639228000000912,None,None,,,,,,,,,,,0,52,52,52,856.1691286999999,,,,,,,,,,,,856.1536458999999,856.1691286999999,856.1691286999999,858.6344457999999,,,,858.6346926000001,858.6501398999999,858.6501398999999,858.6501398999999,858.9497388,861.6471243999999,,,,859.6657721000001,,,,,,,,,,,,up,2.4639228000000912,None,None,,,p115,001,2024-11-19_14h48.54.141,posner_endo_new1,2024.2.4,60.066698061446445,2024-11-19 14h49.04.192239 +0000,
-0.31,0.005,53,53,0,up,1.5688132999998743,None,space,0.351330500000131,None,,,,,,,,,0,53,53,53,861.6637120999999,,,,,,,,,,,,861.6472862,861.6637120999999,861.6637120999999,863.2464722,,,,863.2467324999998,863.2619359,863.2619359,863.2619359,863.5616820999999,863.6290979,,,,,,,,,,,,,,,,up,1.5688132999998743,None,space,0.351330500000131,None,p115,001,2024-11-19_14h48.54.141,posner_endo_new1,2024.2.4,60.066698061446445,2024-11-19 14h49.04.192239 +0000,
10,0.005,54,54,0,down,1.8998420999996597,None,None,,,,,,,,,,,0,54,54,54,863.6450246999998,,,,,,,,,,,,863.6292619999999,863.6450246999998,863.6450246999998,865.5605248000002,,,,865.5607703000001,865.5761911999998,865.5761911999998,865.5761911999998,865.8760471999999,868.5732367,,,,866.5754094999998,,,,,,,,,,,,down,1.8998420999996597,None,None,,,p115,001,2024-11-19_14h48.54.141,posner_endo_new1,2024.2.4,60.066698061446445,2024-11-19 14h49.04.192239 +0000,
0.005,0.31,55,55,0,up,0.11511659999996482,None,space,0.363633899999968,None,,,,,,,,,0,55,55,55,868.5899269000001,,,,,,,,,,,,868.5733999999998,868.5899269000001,868.5899269000001,868.7073363999998,,,,868.7075826999999,868.7231333,868.7231333,868.7231333,869.0226981000001,869.0903834999999,,,,,,,,,,,,,,,,up,0.11511659999996482,None,space,0.363633899999968,None,p115,001,2024-11-19_14h48.54.141,posner_endo_new1,2024.2.4,60.066698061446445,2024-11-19 14h49.04.192239 +0000,
0.005,-0.31,56,56,0,down,1.4307094999999208,None,space,0.7202080000001843,None,,,,,,,,,0,56,56,56,869.1059065,,,,,,,,,,,,869.0905475999998,869.1059065,869.1059065,870.5387132000001,,,,870.5389577000001,870.5546537999999,870.5546537999999,870.5546537999999,870.8542987000001,871.2879588999999,,,,,,,,,,,,,,,,down,1.4307094999999208,None,space,0.7202080000001843,None,p115,001,2024-11-19_14h48.54.141,posner_endo_new1,2024.2.4,60.066698061446445,2024-11-19 14h49.04.192239 +0000,
0.005,0.31,57,57,0,up,2.658245099999931,None,space,0.35074910000003,None,,,,,,,,,0,57,57,57,871.3037020000002,,,,,,,,,,,,871.2881220999998,871.3037020000002,871.3037020000002,873.9686704999999,,,,873.9689238000001,873.9845076000001,873.9845076000001,873.9845076000001,874.2841334999998,874.3515401999998,,,,,,,,,,,,,,,,up,2.658245099999931,None,space,0.35074910000003,None,p115,001,2024-11-19_14h48.54.141,posner_endo_new1,2024.2.4,60.066698061446445,2024-11-19 14h49.04.192239 +0000,
-0.31,0.005,58,58,0,down,1.8411415000000488,None,space,0.7313950000002478,None,,,,,,,,,0,58,58,58,874.3672360999999,,,,,,,,,,,,874.3517117000001,874.3672360999999,874.3672360999999,876.2161516000001,,,,876.2164044000001,876.2321191999999,876.2321191999999,876.2321191999999,876.5317868000002,876.9656452999998,,,,,,,,,,,,,,,,down,1.8411415000000488,None,space,0.7313950000002478,None,p115,001,2024-11-19_14h48.54.141,posner_endo_new1,2024.2.4,60.066698061446445,2024-11-19 14h49.04.192239 +0000,
-0.31,0.005,59,59,0,up,1.2209466999997858,None,space,0.33915120000028764,None,,,,,,,,,0,59,59,59,876.9814059,,,,,,,,,,,,876.9658107999999,876.9814059,876.9814059,878.2141627999999,,,,878.2144245999998,878.2299465000001,878.2299465000001,878.2299465000001,878.5297110000001,878.5803838000002,,,,,,,,,,,,,,,,up,1.2209466999997858,None,space,0.33915120000028764,None,p115,001,2024-11-19_14h48.54.141,posner_endo_new1,2024.2.4,60.066698061446445,2024-11-19 14h49.04.192239 +0000,
