target_y,target_x,thisN,thisTrialN,thisRepN,key_control2.keys,key_control2.rt,key_control2.duration,key_resp.keys,key_resp.rt,key_resp.duration,practice.thisRepN,practice.thisTrialN,practice.thisN,practice.thisIndex,session_1.thisRepN,session_1.thisTrialN,session_1.thisN,session_1.thisIndex,session_2.thisRepN,session_2.thisTrialN,session_2.thisN,session_2.thisIndex,thisRow.t,notes,instructions.started,instructions_txt.started,key_control.started,instructions.stopped,key_control.keys,key_control.rt,key_control.duration,ready.started,ready_txt.started,ready_txt.stopped,ready.stopped,fix.started,key_control2.started,fixation_cross.started,fix.stopped,practice.key_control2.keys,practice.key_control2.rt,practice.key_control2.duration,target.started,star.started,fixation_cross_target.started,key_resp.started,star.stopped,target.stopped,practice.key_resp.keys,practice.key_resp.rt,practice.key_resp.duration,key_resp.stopped,session_1.key_control2.keys,session_1.key_control2.rt,session_1.key_control2.duration,session_1.key_resp.keys,session_1.key_resp.rt,session_1.key_resp.duration,break_2.started,text.started,key_control3.started,break_2.stopped,key_control3.keys,session_2.key_control2.keys,session_2.key_control2.rt,session_2.key_control2.duration,session_2.key_resp.keys,session_2.key_resp.rt,session_2.key_resp.duration,participant,session,date,expName,psychopyVersion,frameRate,expStart,
,,,,,,,,,,,,,,,,,,,,,,,,,0.0076251000000411295,0.02763750000002574,0.02763750000002574,1572.0675241000001,up,1572.0156761,None,,,,,,,,,,,,,,,,,,,,,,,,,,,,,,,,,,,,,,,P117,001,2024-11-20_08h48.48.187,posner_endo_new1,2024.2.4,60.0319730288377,2024-11-20 08h48.55.831346 +0000,
,,,,,,,,,,,,,,,,,,,,,,,,,,,,,,,,1572.0676313000001,1572.0778411,1575.0965236999998,1575.0674677,,,,,,,,,,,,,,,,,,,,,,,,,,,,,,,,,,,P117,001,2024-11-20_08h48.48.187,posner_endo_new1,2024.2.4,60.0319730288377,2024-11-20 08h48.55.831346 +0000,
0.31,0.005,0,0,0,up,1.3948278000002574,None,space,0.2843908999998348,None,0,0,0,1,,,,,,,,,1575.0965236999998,,,,,,,,,,,,,1575.0852281,1575.0965236999998,1575.0965236999998,1576.4998262000001,up,1.3948278000002574,None,1576.5001542000002,1576.5159984999998,1576.5159984999998,1576.5159984999998,1576.8153019,1576.8162771999998,space,0.2843908999998348,None,,,,,,,,,,,,,,,,,,,P117,001,2024-11-20_08h48.48.187,posner_endo_new1,2024.2.4,60.0319730288377,2024-11-20 08h48.55.831346 +0000,
0.005,-0.31,1,1,0,down,7.660306400000081,None,space,0.38281770000003235,None,0,1,1,7,,,,,,,,,1576.8320534000002,,,,,,,,,,,,,1576.8164803000002,1576.8320534000002,1576.8320534000002,1584.5082568999999,down,7.660306400000081,None,1584.5085517,1584.5241199,1584.5241199,1584.5241199,1584.8238862,1584.9081238,space,0.38281770000003235,None,,,,,,,,,,,,,,,,,,,P117,001,2024-11-20_08h48.48.187,posner_endo_new1,2024.2.4,60.0319730288377,2024-11-20 08h48.55.831346 +0000,
0.005,0.31,2,2,0,up,4.399425500000234,None,space,0.30096039999989443,None,0,2,2,8,,,,,,,,,1584.9236834,,,,,,,,,,,,,1584.9083165,1584.9236834,1584.9236834,1589.3367931,up,4.399425500000234,None,1589.3370902,1589.3525253,1589.3525253,1589.3525253,1589.6521879999998,1589.669669,space,0.30096039999989443,None,,,,,,,,,,,,,,,,,,,P117,001,2024-11-20_08h48.48.187,posner_endo_new1,2024.2.4,60.0319730288377,2024-11-20 08h48.55.831346 +0000,
-0.31,0.005,3,3,0,down,6.878235399999994,None,space,0.2848951999999372,None,0,3,3,0,,,,,,,,,1589.6854824999998,,,,,,,,,,,,,1589.6698655000002,1589.6854824999998,1589.6854824999998,1596.5794147,down,6.878235399999994,None,1596.5797255999998,1596.5951037000002,1596.5951037000002,1596.5951037000002,1596.894736,1596.8957229,space,0.2848951999999372,None,,,,,,,,,,,,,,,,,,,P117,001,2024-11-20_08h48.48.187,posner_endo_new1,2024.2.4,60.0319730288377,2024-11-20 08h48.55.831346 +0000,
10,0.005,4,4,0,up,6.571322400000099,None,None,,,0,4,4,4,,,,,,,,,1596.9115015999998,,,,,,,,,,,,,1596.8959292000002,1596.9115015999998,1596.9115015999998,1603.4891023000002,up,6.571322400000099,None,1603.4893976,1603.5048576000002,1603.5048576000002,1603.5048576000002,1603.8043384,1606.5016858000001,None,,,1604.520338,,,,,,,,,,,,,,,,,,P117,001,2024-11-20_08h48.48.187,posner_endo_new1,2024.2.4,60.0319730288377,2024-11-20 08h48.55.831346 +0000,
0.005,-0.31,5,5,0,down,4.644792600000073,None,space,0.3763567000000876,None,0,5,5,5,,,,,,,,,1606.5183124000002,,,,,,,,,,,,,1606.5018711,1606.5183124000002,1606.5183124000002,1611.1646389,down,4.644792600000073,None,1611.1649357,1611.1800783,1611.1800783,1611.1800783,1611.4799454000001,1611.5641656,space,0.3763567000000876,None,,,,,,,,,,,,,,,,,,,P117,001,2024-11-20_08h48.48.187,posner_endo_new1,2024.2.4,60.0319730288377,2024-11-20 08h48.55.831346 +0000,
-0.31,0.005,6,6,0,up,6.391649400000006,None,space,0.3517154000001028,None,0,6,6,2,,,,,,,,,1611.5797409,,,,,,,,,,,,,1611.5643589,1611.5797409,1611.5797409,1617.9742589999998,up,6.391649400000006,None,1617.9745547,1617.9899550000002,1617.9899550000002,1617.9899550000002,1618.2896324,1618.3570545999999,space,0.3517154000001028,None,,,,,,,,,,,,,,,,,,,P117,001,2024-11-20_08h48.48.187,posner_endo_new1,2024.2.4,60.0319730288377,2024-11-20 08h48.55.831346 +0000,
0.005,10,7,7,0,down,6.84630449999986,None,None,,,0,7,7,9,,,,,,,,,1618.3729445000001,,,,,,,,,,,,,1618.3572484,1618.3729445000001,1618.3729445000001,1625.2331537000002,down,6.84630449999986,None,1625.2334082999998,1625.2491547000002,1625.2491547000002,1625.2491547000002,1625.5488597,1628.2465453000002,None,,,1626.2482475,,,,,,,,,,,,,,,,,,P117,001,2024-11-20_08h48.48.187,posner_endo_new1,2024.2.4,60.0319730288377,2024-11-20 08h48.55.831346 +0000,
0.005,0.31,8,8,0,up,3.0364206999997805,None,space,0.30987770000001547,None,0,8,8,6,,,,,,,,,1628.2629052,,,,,,,,,,,,,1628.2467058,1628.2629052,1628.2629052,1631.3102453,up,3.0364206999997805,None,1631.3105087000001,1631.3261872,1631.3261872,1631.3261872,1631.6259466,1631.6433223000001,space,0.30987770000001547,None,,,,,,,,,,,,,,,,,,,P117,001,2024-11-20_08h48.48.187,posner_endo_new1,2024.2.4,60.0319730288377,2024-11-20 08h48.55.831346 +0000,
0.31,0.005,9,9,0,down,6.648171100000127,None,space,0.310355100000379,None,0,9,9,3,,,,,,,,,1631.6591979000002,,,,,,,,,,,,,1631.6434881000002,1631.6591979000002,1631.6591979000002,1638.3198018,down,6.648171100000127,None,1638.3200549,1638.3359668,1638.3359668,1638.3359668,1638.6353316000002,1638.6529054999999,space,0.310355100000379,None,,,,,,,,,,,,,,,,,,,P117,001,2024-11-20_08h48.48.187,posner_endo_new1,2024.2.4,60.0319730288377,2024-11-20 08h48.55.831346 +0000,
,,,,,,,,,,,,,,,,,,,,,,,,,,,,,,,,1638.6530123999999,1638.6687989999998,,1641.6655878,,,,,,,,,,,,,,,,,,,,,,,,,,,,,,,,,,,P117,001,2024-11-20_08h48.48.187,posner_endo_new1,2024.2.4,60.0319730288377,2024-11-20 08h48.55.831346 +0000,
-0.31,0.005,0,0,0,up,23.21514930000012,None,space,0.36407610000014756,None,,,,,0,0,0,0,,,,,1641.6839913000001,,,,,,,,,,,,,1641.6736718999998,1641.6839913000001,1641.6839913000001,1664.9093528,,,,1664.9096083000002,1664.9251757999998,1664.9251757999998,1664.9251757999998,1665.2249490000002,1665.2921273999998,,,,,up,23.21514930000012,None,space,0.36407610000014756,None,,,,,,,,,,,,P117,001,2024-11-20_08h48.48.187,posner_endo_new1,2024.2.4,60.0319730288377,2024-11-20 08h48.55.831346 +0000,
0.005,0.31,1,1,0,down,7.526711900000009,None,space,0.2997835999999552,None,,,,,0,1,1,1,,,,,1665.3081911000002,,,,,,,,,,,,,1665.2922949000001,1665.3081911000002,1665.3081911000002,1672.851305,,,,1672.8515641000001,1672.8671631999998,1672.8671631999998,1672.8671631999998,1673.1669193999999,1673.1678306000001,,,,,down,7.526711900000009,None,space,0.2997835999999552,None,,,,,,,,,,,,P117,001,2024-11-20_08h48.48.187,posner_endo_new1,2024.2.4,60.0319730288377,2024-11-20 08h48.55.831346 +0000,
0.31,0.005,2,2,0,up,5.011411399999815,None,space,0.375223399999868,None,,,,,0,2,2,2,,,,,1673.1835484,,,,,,,,,,,,,1673.1680036,1673.1835484,1673.1835484,1678.1960198,,,,1678.1962723,1678.2116191000002,1678.2116191000002,1678.2116191000002,1678.5113992,1678.5952445,,,,,up,5.011411399999815,None,space,0.375223399999868,None,,,,,,,,,,,,P117,001,2024-11-20_08h48.48.187,posner_endo_new1,2024.2.4,60.0319730288377,2024-11-20 08h48.55.831346 +0000,
0.31,0.005,3,3,0,down,7.887710900000002,None,space,0.29048939999984214,None,,,,,0,3,3,3,,,,,1678.6114770000001,,,,,,,,,,,,,1678.5954101999998,1678.6114770000001,1678.6114770000001,1686.5043033,,,,1686.5045578000002,1686.5197696000002,1686.5197696000002,1686.5197696000002,1686.8196199000001,1686.820434,,,,,down,7.887710900000002,None,space,0.29048939999984214,None,,,,,,,,,,,,P117,001,2024-11-20_08h48.48.187,posner_endo_new1,2024.2.4,60.0319730288377,2024-11-20 08h48.55.831346 +0000,
-0.31,0.005,4,4,0,up,6.222776799999792,None,space,0.31757210000023406,None,,,,,0,4,4,4,,,,,1686.8360865000002,,,,,,,,,,,,,1686.8205971999998,1686.8360865000002,1686.8360865000002,1693.0640099,,,,1693.0642642999999,1693.0796862,1693.0796862,1693.0796862,1693.3793579,1693.4136368000002,,,,,up,6.222776799999792,None,space,0.31757210000023406,None,,,,,,,,,,,,P117,001,2024-11-20_08h48.48.187,posner_endo_new1,2024.2.4,60.0319730288377,2024-11-20 08h48.55.831346 +0000,
0.005,-0.31,5,5,0,down,8.037795199999891,None,space,0.26712640000005194,None,,,,,0,5,5,5,,,,,1693.4293827,,,,,,,,,,,,,1693.4138036000002,1693.4293827,1693.4293827,1701.4720011000002,,,,1701.4722648,1701.4878231,1701.4878231,1701.4878231,1701.7877842,1701.7717353,,,,,down,8.037795199999891,None,space,0.26712640000005194,None,,,,,,,,,,,,P117,001,2024-11-20_08h48.48.187,posner_endo_new1,2024.2.4,60.0319730288377,2024-11-20 08h48.55.831346 +0000,
0.005,-0.31,6,6,0,up,5.59980459999997,None,space,0.35783489999994345,None,,,,,0,6,6,6,,,,,1701.7877842,,,,,,,,,,,,,1701.7719003999998,1701.7877842,1701.7877842,1707.3993048,,,,1707.3995576,1707.4152603999999,1707.4152603999999,1707.4152603999999,1707.7147692,1707.7819477,,,,,up,5.59980459999997,None,space,0.35783489999994345,None,,,,,,,,,,,,P117,001,2024-11-20_08h48.48.187,posner_endo_new1,2024.2.4,60.0319730288377,2024-11-20 08h48.55.831346 +0000,
10,0.005,7,7,0,down,7.622036299999763,None,None,,,,,,,0,7,7,7,,,,,1707.7975712999998,,,,,,,,,,,,,1707.7821273000002,1707.7975712999998,1707.7975712999998,1715.4244677,,,,1715.4247278999999,1715.4402167,1715.4402167,1715.4402167,1715.7398423000002,1718.4373592,,,,1716.4392236,down,7.622036299999763,None,None,,,,,,,,,,,,,,P117,001,2024-11-20_08h48.48.187,posner_endo_new1,2024.2.4,60.0319730288377,2024-11-20 08h48.55.831346 +0000,
-0.31,0.005,8,8,0,up,3.7574008999999933,None,space,0.3588710999997602,None,,,,,0,8,8,8,,,,,1718.4537005,,,,,,,,,,,,,1718.4375219,1718.4537005,1718.4537005,1722.2175724,,,,1722.2178256,1722.2332903,1722.2332903,1722.2332903,1722.5330313000002,1722.6004352000002,,,,,up,3.7574008999999933,None,space,0.3588710999997602,None,,,,,,,,,,,,P117,001,2024-11-20_08h48.48.187,posner_endo_new1,2024.2.4,60.0319730288377,2024-11-20 08h48.55.831346 +0000,
0.005,0.31,9,9,0,down,7.8995082000001275,None,space,0.2810942999999497,None,,,,,0,9,9,9,,,,,1722.6161576000002,,,,,,,,,,,,,1722.6006012999999,1722.6161576000002,1722.6161576000002,1730.5255218,,,,1730.525789,1730.5413973000002,1730.5413973000002,1730.5413973000002,1730.8410412,1730.8253393000002,,,,,down,7.8995082000001275,None,space,0.2810942999999497,None,,,,,,,,,,,,P117,001,2024-11-20_08h48.48.187,posner_endo_new1,2024.2.4,60.0319730288377,2024-11-20 08h48.55.831346 +0000,
0.005,-0.31,10,10,0,up,4.921878799999831,None,space,0.278306899999734,None,,,,,0,10,10,10,,,,,1730.8410412,,,,,,,,,,,,,1730.8255110000002,1730.8410412,1730.8410412,1735.7700031000002,,,,1735.7702648000002,1735.7859985000002,1735.7859985000002,1735.7859985000002,1736.0858427,1736.0700939,,,,,up,4.921878799999831,None,space,0.278306899999734,None,,,,,,,,,,,,P117,001,2024-11-20_08h48.48.187,posner_endo_new1,2024.2.4,60.0319730288377,2024-11-20 08h48.55.831346 +0000,
0.005,0.31,11,11,0,down,8.301435700000184,None,space,0.2695331999998416,None,,,,,0,11,11,11,,,,,1736.0858427,,,,,,,,,,,,,1736.0702579000001,1736.0858427,1736.0858427,1744.3947233000001,,,,1744.3949796,1744.410596,1744.410596,1744.410596,1744.7104035,1744.6944449,,,,,down,8.301435700000184,None,space,0.2695331999998416,None,,,,,,,,,,,,P117,001,2024-11-20_08h48.48.187,posner_endo_new1,2024.2.4,60.0319730288377,2024-11-20 08h48.55.831346 +0000,
10,0.005,12,12,0,up,3.924869899999976,None,None,,,,,,,0,12,12,12,,,,,1744.7104035,,,,,,,,,,,,,1744.6946113000001,1744.7104035,1744.7104035,1748.6406506,,,,1748.6409041999998,1748.6562634999998,1748.6562634999998,1748.6562634999998,1748.9559286,1751.6532816000001,,,,1749.6719007,up,3.924869899999976,None,None,,,,,,,,,,,,,,P117,001,2024-11-20_08h48.48.187,posner_endo_new1,2024.2.4,60.0319730288377,2024-11-20 08h48.55.831346 +0000,
0.31,0.005,13,13,0,down,5.557811000000129,None,space,0.3347254000000248,None,,,,,0,13,13,13,,,,,1751.6698233999998,,,,,,,,,,,,,1751.6534462000002,1751.6698233999998,1751.6698233999998,1757.2317424,,,,1757.2319956,1757.2473966,1757.2473966,1757.2473966,1757.5471951000002,1757.5979528,,,,,down,5.557811000000129,None,space,0.3347254000000248,None,,,,,,,,,,,,P117,001,2024-11-20_08h48.48.187,posner_endo_new1,2024.2.4,60.0319730288377,2024-11-20 08h48.55.831346 +0000,
10,0.005,14,14,0,up,5.389980999999807,None,None,,,,,,,0,14,14,14,,,,,1757.6136115000002,,,,,,,,,,,,,1757.5981285,1757.6136115000002,1757.6136115000002,1763.0090606,,,,1763.009312,1763.0248619000001,1763.0248619000001,1763.0248619000001,1763.3244917,1766.0220534000002,,,,1764.0405300999998,up,5.389980999999807,None,None,,,,,,,,,,,,,,P117,001,2024-11-20_08h48.48.187,posner_endo_new1,2024.2.4,60.0319730288377,2024-11-20 08h48.55.831346 +0000,
-0.31,0.005,15,15,0,down,4.22905929999979,None,space,0.3495802000002186,None,,,,,0,15,15,15,,,,,1766.0383789,,,,,,,,,,,,,1766.0222151,1766.0383789,1766.0383789,1770.2684201999998,,,,1770.2686695,1770.2840546999998,1770.2840546999998,1770.2840546999998,1770.5838463000002,1770.6351422999999,,,,,down,4.22905929999979,None,space,0.3495802000002186,None,,,,,,,,,,,,P117,001,2024-11-20_08h48.48.187,posner_endo_new1,2024.2.4,60.0319730288377,2024-11-20 08h48.55.831346 +0000,
0.005,-0.31,16,16,0,up,5.032809999999699,None,space,0.28582700000015393,None,,,,,0,16,16,16,,,,,1770.6504467000002,,,,,,,,,,,,,1770.6353069,1770.6504467000002,1770.6504467000002,1775.6960305999999,,,,1775.6962832000002,1775.7118698000002,1775.7118698000002,1775.7118698000002,1776.0116285000001,1776.0124938000001,,,,,up,5.032809999999699,None,space,0.28582700000015393,None,,,,,,,,,,,,P117,001,2024-11-20_08h48.48.187,posner_endo_new1,2024.2.4,60.0319730288377,2024-11-20 08h48.55.831346 +0000,
0.005,0.31,17,17,0,down,7.56721460000017,None,space,0.3555317999998806,None,,,,,0,17,17,17,,,,,1776.0283989000002,,,,,,,,,,,,,1776.0126584000002,1776.0283989000002,1776.0283989000002,1783.6046634000002,,,,1783.6049214000002,1783.6204186000002,1783.6204186000002,1783.6204186000002,1783.9202269999998,1783.9874418000002,,,,,down,7.56721460000017,None,space,0.3555317999998806,None,,,,,,,,,,,,P117,001,2024-11-20_08h48.48.187,posner_endo_new1,2024.2.4,60.0319730288377,2024-11-20 08h48.55.831346 +0000,
-0.31,0.005,18,18,0,up,4.761106800000107,None,space,0.31713500000023487,None,,,,,0,18,18,18,,,,,1784.0033892,,,,,,,,,,,,,1783.9876069,1784.0033892,1784.0033892,1788.766061,,,,1788.7663153,1788.7818107,1788.7818107,1788.7818107,1789.0815986,1789.1157458,,,,,up,4.761106800000107,None,space,0.31713500000023487,None,,,,,,,,,,,,P117,001,2024-11-20_08h48.48.187,posner_endo_new1,2024.2.4,60.0319730288377,2024-11-20 08h48.55.831346 +0000,
10,0.005,19,19,0,down,8.607318100000157,None,None,,,,,,,0,19,19,19,,,,,1789.1318497999998,,,,,,,,,,,,,1789.1159123,1789.1318497999998,1789.1318497999998,1797.7402107,,,,1797.7404629999999,1797.7561063,1797.7561063,1797.7561063,1798.0557390000001,1800.7531768000001,,,,1798.7717202000001,down,8.607318100000157,None,None,,,,,,,,,,,,,,P117,001,2024-11-20_08h48.48.187,posner_endo_new1,2024.2.4,60.0319730288377,2024-11-20 08h48.55.831346 +0000,
0.005,0.31,20,20,0,up,1.5936004999998659,None,space,0.26106110000000626,None,,,,,0,20,20,20,,,,,1800.7696158,,,,,,,,,,,,,1800.7533432000002,1800.7696158,1800.7696158,1802.3687714999999,,,,1802.3690278000001,1802.3845869,1802.3845869,1802.3845869,,1802.6517112,,,,,up,1.5936004999998659,None,space,0.26106110000000626,None,,,,,,,,,,,,P117,001,2024-11-20_08h48.48.187,posner_endo_new1,2024.2.4,60.0319730288377,2024-11-20 08h48.55.831346 +0000,
0.005,-0.31,21,21,0,down,7.351330500000131,None,space,0.3253324999996039,None,,,,,0,21,21,21,,,,,1802.6676994000002,,,,,,,,,,,,,1802.6518847999998,1802.6676994000002,1802.6676994000002,1810.0275791000001,,,,1810.0278332999999,1810.0434335000002,1810.0434335000002,1810.0434335000002,1810.3431996000002,1810.3773902,,,,,down,7.351330500000131,None,space,0.3253324999996039,None,,,,,,,,,,,,P117,001,2024-11-20_08h48.48.187,posner_endo_new1,2024.2.4,60.0319730288377,2024-11-20 08h48.55.831346 +0000,
0.005,0.31,22,22,0,up,5.434040999999979,None,space,0.3323712000001251,None,,,,,0,22,22,22,,,,,1810.3931443,,,,,,,,,,,,,1810.3775586,1810.3931443,1810.3931443,1815.8382299000002,,,,1815.8384976999998,1815.8541711,1815.8541711,1815.8541711,1816.1537691,1816.1882137999999,,,,,up,5.434040999999979,None,space,0.3323712000001251,None,,,,,,,,,,,,P117,001,2024-11-20_08h48.48.187,posner_endo_new1,2024.2.4,60.0319730288377,2024-11-20 08h48.55.831346 +0000,
0.31,0.005,23,23,0,down,8.967089300000225,None,space,0.40325110000003406,None,,,,,0,23,23,23,,,,,1816.2038412,,,,,,,,,,,,,1816.1884120000002,1816.2038412,1816.2038412,1825.1788159999999,,,,1825.1790751,1825.1947940000002,1825.1947940000002,1825.1947940000002,1825.4943353,1825.6116699000002,,,,,down,8.967089300000225,None,space,0.40325110000003406,None,,,,,,,,,,,,P117,001,2024-11-20_08h48.48.187,posner_endo_new1,2024.2.4,60.0319730288377,2024-11-20 08h48.55.831346 +0000,
0.005,0.31,24,24,0,up,6.815889100000277,None,space,0.3343982000001233,None,,,,,0,24,24,24,,,,,1825.6276097000002,,,,,,,,,,,,,1825.6118368999998,1825.6276097000002,1825.6276097000002,1832.4546302,,,,1832.4548926,1832.4706294999999,1832.4706294999999,1832.4706294999999,1832.7702173999999,1832.8209331,,,,,up,6.815889100000277,None,space,0.3343982000001233,None,,,,,,,,,,,,P117,001,2024-11-20_08h48.48.187,posner_endo_new1,2024.2.4,60.0319730288377,2024-11-20 08h48.55.831346 +0000,
0.31,0.005,25,25,0,down,6.886425099999997,None,space,0.275654300000042,None,,,,,0,25,25,25,,,,,1832.8367985000002,,,,,,,,,,,,,1832.8211017,1832.8367985000002,1832.8367985000002,1839.7304387000001,,,,1839.7307010000002,1839.7463447000002,1839.7463447000002,1839.7463447000002,1840.0460921000001,1840.0303253999998,,,,,down,6.886425099999997,None,space,0.275654300000042,None,,,,,,,,,,,,P117,001,2024-11-20_08h48.48.187,posner_endo_new1,2024.2.4,60.0319730288377,2024-11-20 08h48.55.831346 +0000,
10,0.005,26,26,0,up,5.19689389999985,None,None,,,,,,,0,26,26,26,,,,,1840.0460921000001,,,,,,,,,,,,,1840.0304949,1840.0460921000001,1840.0460921000001,1845.2583658,,,,1845.2586196999998,1845.2741177999999,1845.2741177999999,1845.2741177999999,1845.5737597999998,1848.2711193000002,,,,1846.2895807000002,up,5.19689389999985,None,None,,,,,,,,,,,,,,P117,001,2024-11-20_08h48.48.187,posner_endo_new1,2024.2.4,60.0319730288377,2024-11-20 08h48.55.831346 +0000,
10,0.005,27,27,0,down,3.580054300000029,None,None,,,,,,,0,27,27,27,,,,,1848.2876626,,,,,,,,,,,,,1848.2712835,1848.2876626,1848.2876626,1851.8684884000002,,,,1851.8687446000001,1851.8840291,1851.8840291,1851.8840291,1852.1837281,1854.8809267,,,,1852.8829859999998,down,3.580054300000029,None,None,,,,,,,,,,,,,,P117,001,2024-11-20_08h48.48.187,posner_endo_new1,2024.2.4,60.0319730288377,2024-11-20 08h48.55.831346 +0000,
0.005,-0.31,28,28,0,up,2.9373757999996997,None,space,0.3725368000000344,None,,,,,0,28,28,28,,,,,1854.8975326000002,,,,,,,,,,,,,1854.8810945000002,1854.8975326000002,1854.8975326000002,1857.8453701,,,,1857.8456233,1857.8612157999999,1857.8612157999999,1857.8612157999999,1858.1607848,1858.2448271,,,,,up,2.9373757999996997,None,space,0.3725368000000344,None,,,,,,,,,,,,P117,001,2024-11-20_08h48.48.187,posner_endo_new1,2024.2.4,60.0319730288377,2024-11-20 08h48.55.831346 +0000,
0.31,0.005,29,29,0,down,4.495067899999867,None,space,0.4869926999999734,None,,,,,0,29,29,29,,,,,1858.2607123999999,,,,,,,,,,,,,1858.2449992,1858.2607123999999,1858.2607123999999,1862.756929,,,,1862.7571813000002,1862.7728141,1862.7728141,1862.7728141,1863.0724344000002,1863.2728657,,,,,down,4.495067899999867,None,space,0.4869926999999734,None,,,,,,,,,,,,P117,001,2024-11-20_08h48.48.187,posner_endo_new1,2024.2.4,60.0319730288377,2024-11-20 08h48.55.831346 +0000,
10,0.005,30,30,0,up,5.1225868999999875,None,None,,,,,,,0,30,30,30,,,,,1863.2889913000001,,,,,,,,,,,,,1863.273046,1863.2889913000001,1863.2889913000001,1868.4192047,,,,1868.4198819,1868.4336403999998,1868.4336403999998,1868.4336403999998,1868.7332728,1871.4308247000001,,,,1869.4492548,up,5.1225868999999875,None,None,,,,,,,,,,,,,,P117,001,2024-11-20_08h48.48.187,posner_endo_new1,2024.2.4,60.0319730288377,2024-11-20 08h48.55.831346 +0000,
0.31,0.005,31,31,0,down,3.492221999999856,None,space,0.37800560000005134,None,,,,,0,31,31,31,,,,,1871.4471961000002,,,,,,,,,,,,,1871.4312476000002,1871.4471961000002,1871.4471961000002,1874.9458585999998,,,,1874.9465324999999,1874.9603075000002,1874.9603075000002,1874.9603075000002,1875.2599888000002,1875.3453776,,,,,down,3.492221999999856,None,space,0.37800560000005134,None,,,,,,,,,,,,P117,001,2024-11-20_08h48.48.187,posner_endo_new1,2024.2.4,60.0319730288377,2024-11-20 08h48.55.831346 +0000,
0.31,0.005,32,32,0,up,4.555956900000183,None,space,0.2781276999999136,None,,,,,0,32,32,32,,,,,1875.3598349000001,,,,,,,,,,,,,1875.3458226,1875.3598349000001,1875.3598349000001,1879.9239751000002,,,,1879.9245953000002,1879.9385450000002,1879.9385450000002,1879.9385450000002,1880.2382086,1880.2237650999998,,,,,up,4.555956900000183,None,space,0.2781276999999136,None,,,,,,,,,,,,P117,001,2024-11-20_08h48.48.187,posner_endo_new1,2024.2.4,60.0319730288377,2024-11-20 08h48.55.831346 +0000,
10,0.005,33,33,0,down,5.57343660000015,None,None,,,,,,,0,33,33,33,,,,,1880.2382086,,,,,,,,,,,,,1880.2242093000002,1880.2382086,1880.2382086,1885.8177441,,,,1885.8183947,1885.8325241999999,1885.8325241999999,1885.8325241999999,1886.1322306999998,1888.8296739999998,,,,1886.831489,down,5.57343660000015,None,None,,,,,,,,,,,,,,P117,001,2024-11-20_08h48.48.187,posner_endo_new1,2024.2.4,60.0319730288377,2024-11-20 08h48.55.831346 +0000,
0.005,-0.31,34,34,0,up,2.6136561999996957,None,space,0.37371359999997367,None,,,,,0,34,34,34,,,,,1888.8460710000002,,,,,,,,,,,,,1888.8300922,1888.8460710000002,1888.8460710000002,1891.462335,,,,1891.4629926,1891.4767639,1891.4767639,1891.4767639,1891.7764009999999,1891.8616665000002,,,,,up,2.6136561999996957,None,space,0.37371359999997367,None,,,,,,,,,,,,P117,001,2024-11-20_08h48.48.187,posner_endo_new1,2024.2.4,60.0319730288377,2024-11-20 08h48.55.831346 +0000,
-0.31,0.005,35,35,0,down,6.575095500000316,None,space,0.27764180000031047,None,,,,,0,35,35,35,,,,,1891.8763004999998,,,,,,,,,,,,,1891.8621237999998,1891.8763004999998,1891.8763004999998,1898.4551005,,,,1898.4557902,1898.4695172,1898.4695172,1898.4695172,1898.7692644,1898.7547972999998,,,,,down,6.575095500000316,None,space,0.27764180000031047,None,,,,,,,,,,,,P117,001,2024-11-20_08h48.48.187,posner_endo_new1,2024.2.4,60.0319730288377,2024-11-20 08h48.55.831346 +0000,
-0.31,0.005,36,36,0,up,4.929923300000155,None,space,0.33183969999981855,None,,,,,0,36,36,36,,,,,1898.7692644,,,,,,,,,,,,,1898.7553033000002,1898.7692644,1898.7692644,1903.7161288,,,,1903.7167928000001,1903.730816,1903.730816,1903.730816,1904.0305535,1904.066114,,,,,up,4.929923300000155,None,space,0.33183969999981855,None,,,,,,,,,,,,P117,001,2024-11-20_08h48.48.187,posner_endo_new1,2024.2.4,60.0319730288377,2024-11-20 08h48.55.831346 +0000,
10,0.005,37,37,0,down,6.042967099999714,None,None,,,,,,,0,37,37,37,,,,,1904.0805209000002,,,,,,,,,,,,,1904.0665768000001,1904.0805209000002,1904.0805209000002,1910.1265039000002,,,,1910.1271574999998,1910.1409586000002,1910.1409586000002,1910.1409586000002,1910.4406744,1913.1381041000002,,,,1911.1399354000002,down,6.042967099999714,None,None,,,,,,,,,,,,,,P117,001,2024-11-20_08h48.48.187,posner_endo_new1,2024.2.4,60.0319730288377,2024-11-20 08h48.55.831346 +0000,
0.005,0.31,38,38,0,up,3.1210379999997713,None,space,0.3505409999997937,None,,,,,0,38,38,38,,,,,1913.1544952000002,,,,,,,,,,,,,1913.1385183,1913.1544952000002,1913.1544952000002,1916.2865597000002,,,,1916.2872055999999,1916.3012972,1916.3012972,1916.3012972,1916.6010192,1916.6694716999998,,,,,up,3.1210379999997713,None,space,0.3505409999997937,None,,,,,,,,,,,,P117,001,2024-11-20_08h48.48.187,posner_endo_new1,2024.2.4,60.0319730288377,2024-11-20 08h48.55.831346 +0000,
0.005,-0.31,39,39,0,down,7.63156409999965,None,space,0.33869589999994787,None,,,,,0,39,39,39,,,,,1916.6842721,,,,,,,,,,,,,1916.6699224000001,1916.6842721,1916.6842721,1924.3277184,,,,1924.3281281000002,1924.3431100999999,1924.3431100999999,1924.3431100999999,1924.6428319,1924.6940063,,,,,down,7.63156409999965,None,space,0.33869589999994787,None,,,,,,,,,,,,P117,001,2024-11-20_08h48.48.187,posner_endo_new1,2024.2.4,60.0319730288377,2024-11-20 08h48.55.831346 +0000,
0.31,0.005,40,40,0,up,4.742143999999826,None,space,0.3987014999997882,None,,,,,0,40,40,40,,,,,1924.7093981,,,,,,,,,,,,,1924.6942876,1924.7093981,1924.7093981,1929.455905,,,,1929.4562947000002,1929.4712617000002,1929.4712617000002,1929.4712617000002,1929.7709392,1929.8718572999999,,,,,up,4.742143999999826,None,space,0.3987014999997882,None,,,,,,,,,,,,P117,001,2024-11-20_08h48.48.187,posner_endo_new1,2024.2.4,60.0319730288377,2024-11-20 08h48.55.831346 +0000,
-0.31,0.005,41,41,0,down,6.2761749999999665,None,space,0.3787177999997766,None,,,,,0,41,41,41,,,,,1929.8875084,,,,,,,,,,,,,1929.8720578,1929.8875084,1929.8875084,1936.1654569999998,,,,1936.1657627000002,1936.1811243999998,1936.1811243999998,1936.1811243999998,1936.4806698999998,1936.5650339000001,,,,,down,6.2761749999999665,None,space,0.3787177999997766,None,,,,,,,,,,,,P117,001,2024-11-20_08h48.48.187,posner_endo_new1,2024.2.4,60.0319730288377,2024-11-20 08h48.55.831346 +0000,
0.31,0.005,42,42,0,up,3.9600015999999414,None,space,0.3172464999997828,None,,,,,0,42,42,42,,,,,1936.5806814,,,,,,,,,,,,,1936.5652241,1936.5806814,1936.5806814,1940.5444338999998,,,,1940.5447264000002,1940.5599193,1940.5599193,1940.5599193,1940.8597016,1940.8939023,,,,,up,3.9600015999999414,None,space,0.3172464999997828,None,,,,,,,,,,,,P117,001,2024-11-20_08h48.48.187,posner_endo_new1,2024.2.4,60.0319730288377,2024-11-20 08h48.55.831346 +0000,
10,0.005,43,43,0,down,6.295336900000166,None,None,,,,,,,0,43,43,43,,,,,1940.9095120999998,,,,,,,,,,,,,1940.8940893000001,1940.9095120999998,1940.9095120999998,1947.2205606,,,,1947.2208564,1947.2363071000002,1947.2363071000002,1947.2363071000002,1947.5360876000002,1950.2334686000002,,,,1948.2355504999998,down,6.295336900000166,None,None,,,,,,,,,,,,,,P117,001,2024-11-20_08h48.48.187,posner_endo_new1,2024.2.4,60.0319730288377,2024-11-20 08h48.55.831346 +0000,
-0.31,0.005,44,44,0,up,1.0738103999997293,None,space,0.25463410000020303,None,,,,,0,44,44,44,,,,,1950.2500521999998,,,,,,,,,,,,,1950.2336616999999,1950.2500521999998,1950.2500521999998,1951.3332604,,,,1951.333539,1951.3488654,1951.3488654,1951.3488654,,1951.6162648000002,,,,,up,1.0738103999997293,None,space,0.25463410000020303,None,,,,,,,,,,,,P117,001,2024-11-20_08h48.48.187,posner_endo_new1,2024.2.4,60.0319730288377,2024-11-20 08h48.55.831346 +0000,
0.005,0.31,45,45,0,down,5.435464200000297,None,space,0.2970938999997088,None,,,,,0,45,45,45,,,,,1951.6319769,,,,,,,,,,,,,1951.6164615999999,1951.6319769,1951.6319769,1957.0774781000002,,,,1957.0777605,1957.09295,1957.09295,1957.09295,1957.3928125,1957.3938526,,,,,down,5.435464200000297,None,space,0.2970938999997088,None,,,,,,,,,,,,P117,001,2024-11-20_08h48.48.187,posner_endo_new1,2024.2.4,60.0319730288377,2024-11-20 08h48.55.831346 +0000,
0.005,-0.31,46,46,0,up,6.83361160000004,None,space,0.3412287000001015,None,,,,,0,46,46,46,,,,,1957.4093641000002,,,,,,,,,,,,,1957.3940568,1957.4093641000002,1957.4093641000002,1964.2532560000002,,,,1964.2535437,1964.2689668,1964.2689668,1964.2689668,1964.5686533,1964.6194752,,,,,up,6.83361160000004,None,space,0.3412287000001015,None,,,,,,,,,,,,P117,001,2024-11-20_08h48.48.187,posner_endo_new1,2024.2.4,60.0319730288377,2024-11-20 08h48.55.831346 +0000,
-0.31,0.005,47,47,0,down,4.287825899999916,None,space,0.36657599999989543,None,,,,,0,47,47,47,,,,,1964.6355952000001,,,,,,,,,,,,,1964.6196624000002,1964.6355952000001,1964.6355952000001,1968.9315763000002,,,,1968.931856,1968.947446,1968.947446,1968.947446,1969.2472463000001,1969.3151138,,,,,down,4.287825899999916,None,space,0.36657599999989543,None,,,,,,,,,,,,P117,001,2024-11-20_08h48.48.187,posner_endo_new1,2024.2.4,60.0319730288377,2024-11-20 08h48.55.831346 +0000,
0.005,-0.31,48,48,0,up,3.952926999999818,None,space,0.3702536999999211,None,,,,,0,48,48,48,,,,,1969.3304269000002,,,,,,,,,,,,,1969.3152993,1969.3304269000002,1969.3304269000002,1973.2940417000002,,,,1973.2943441,1973.3096770999998,1973.3096770999998,1973.3096770999998,1973.6093317000002,1973.6936228000002,,,,,up,3.952926999999818,None,space,0.3702536999999211,None,,,,,,,,,,,,P117,001,2024-11-20_08h48.48.187,posner_endo_new1,2024.2.4,60.0319730288377,2024-11-20 08h48.55.831346 +0000,
0.005,-0.31,49,49,0,down,5.981769600000007,None,space,0.4292958999999428,None,,,,,0,49,49,49,,,,,1973.7093444999998,,,,,,,,,,,,,1973.6938103,1973.7093444999998,1973.7093444999998,1979.7043754,,,,1979.7046705,1979.7198329,1979.7198329,1979.7198329,1980.0195163,1980.1536711,,,,,down,5.981769600000007,None,space,0.4292958999999428,None,,,,,,,,,,,,P117,001,2024-11-20_08h48.48.187,posner_endo_new1,2024.2.4,60.0319730288377,2024-11-20 08h48.55.831346 +0000,
0.005,0.31,50,50,0,up,6.393725999999788,None,space,0.29930640000020503,None,,,,,0,50,50,50,,,,,1980.1692692,,,,,,,,,,,,,1980.1538597,1980.1692692,1980.1692692,1986.5639709999998,,,,1986.5642549000002,1986.5795934999999,1986.5795934999999,1986.5795934999999,1986.879392,1986.8804057999998,,,,,up,6.393725999999788,None,space,0.29930640000020503,None,,,,,,,,,,,,P117,001,2024-11-20_08h48.48.187,posner_endo_new1,2024.2.4,60.0319730288377,2024-11-20 08h48.55.831346 +0000,
0.31,0.005,51,51,0,down,6.339605399999982,None,space,0.27747180000005756,None,,,,,0,51,51,51,,,,,1986.8959333999999,,,,,,,,,,,,,1986.8805927,1986.8959333999999,1986.8959333999999,1993.2403532,,,,1993.2406573,1993.2559907000002,1993.2559907000002,1993.2559907000002,1993.5556235000001,1993.5401505000002,,,,,down,6.339605399999982,None,space,0.27747180000005756,None,,,,,,,,,,,,P117,001,2024-11-20_08h48.48.187,posner_endo_new1,2024.2.4,60.0319730288377,2024-11-20 08h48.55.831346 +0000,
0.31,0.005,52,52,0,up,5.49560079999992,None,space,0.4179114999997182,None,,,,,0,52,52,52,,,,,1993.5556235000001,,,,,,,,,,,,,1993.5403516,1993.5556235000001,1993.5556235000001,1999.0675362999998,,,,1999.0678215,1999.0833593,1999.0833593,1999.0833593,1999.3829551000001,1999.5171214,,,,,up,5.49560079999992,None,space,0.4179114999997182,None,,,,,,,,,,,,P117,001,2024-11-20_08h48.48.187,posner_endo_new1,2024.2.4,60.0319730288377,2024-11-20 08h48.55.831346 +0000,
0.005,0.31,53,53,0,down,9.406923900000038,None,space,0.3668032000000494,None,,,,,0,53,53,53,,,,,1999.5328922,,,,,,,,,,,,,1999.5173141000002,1999.5328922,1999.5328922,2008.9409631,,,,2008.9412481000002,2008.9565899000002,2008.9565899000002,2008.9565899000002,2009.2563112,2009.3403495,,,,,down,9.406923900000038,None,space,0.3668032000000494,None,,,,,,,,,,,,P117,001,2024-11-20_08h48.48.187,posner_endo_new1,2024.2.4,60.0319730288377,2024-11-20 08h48.55.831346 +0000,
-0.31,0.005,54,54,0,up,3.255273799999941,None,space,0.41989749999993364,None,,,,,0,54,54,54,,,,,2009.3560959,,,,,,,,,,,,,2009.3405423000002,2009.3560959,2009.3560959,2012.6203805000002,,,,2012.6206641,2012.6361746999999,2012.6361746999999,2012.6361746999999,2012.9359526,2013.0699493999998,,,,,up,3.255273799999941,None,space,0.41989749999993364,None,,,,,,,,,,,,P117,001,2024-11-20_08h48.48.187,posner_endo_new1,2024.2.4,60.0319730288377,2024-11-20 08h48.55.831346 +0000,
10,0.005,55,55,0,down,4.125295299999834,None,None,,,,,,,0,55,55,55,,,,,2013.0857130000002,,,,,,,,,,,,,2013.0701508,2013.0857130000002,2013.0857130000002,2017.2157220000001,,,,2017.2160154,2017.2314964999998,2017.2314964999998,2017.2314964999998,2017.5312236000002,2020.2286227000002,,,,2018.2304179,down,4.125295299999834,None,None,,,,,,,,,,,,,,P117,001,2024-11-20_08h48.48.187,posner_endo_new1,2024.2.4,60.0319730288377,2024-11-20 08h48.55.831346 +0000,
0.31,0.005,56,56,0,up,3.407549700000345,None,space,0.4772270000003118,None,,,,,0,56,56,56,,,,,2020.2450145,,,,,,,,,,,,,2020.2288147000002,2020.2450145,2020.2450145,2023.6592394000002,,,,2023.6595276,2023.6748942000002,2023.6748942000002,2023.6748942000002,2023.9747117,2024.1587075999998,,,,,up,3.407549700000345,None,space,0.4772270000003118,None,,,,,,,,,,,,P117,001,2024-11-20_08h48.48.187,posner_endo_new1,2024.2.4,60.0319730288377,2024-11-20 08h48.55.831346 +0000,
0.005,0.31,57,57,0,down,3.7567514999996092,None,space,0.27820189999965805,None,,,,,0,57,57,57,,,,,2024.1745321,,,,,,,,,,,,,2024.1588923000002,2024.1745321,2024.1745321,2027.9381357,,,,2027.9384311000001,2027.9540341999998,2027.9540341999998,2027.9540341999998,2028.2534563000002,2028.2379472,,,,,down,3.7567514999996092,None,space,0.27820189999965805,None,,,,,,,,,,,,P117,001,2024-11-20_08h48.48.187,posner_endo_new1,2024.2.4,60.0319730288377,2024-11-20 08h48.55.831346 +0000,
-0.31,0.005,58,58,0,up,5.006300200000169,None,space,0.38190850000000864,None,,,,,0,58,58,58,,,,,2028.2534563000002,,,,,,,,,,,,,2028.2381368,2028.2534563000002,2028.2534563000002,2033.2660091999999,,,,2033.2662910000001,2033.2817831,2033.2817831,2033.2817831,2033.5813550999999,2033.6656996,,,,,up,5.006300200000169,None,space,0.38190850000000864,None,,,,,,,,,,,,P117,001,2024-11-20_08h48.48.187,posner_endo_new1,2024.2.4,60.0319730288377,2024-11-20 08h48.55.831346 +0000,
-0.31,0.005,59,59,0,down,4.282162299999982,None,space,0.35543150000012247,None,,,,,0,59,59,59,,,,,2033.6814038999999,,,,,,,,,,,,,2033.6658869999999,2033.6814038999999,2033.6814038999999,2037.9778342000002,,,,2037.9781177000002,2037.9937264000002,2037.9937264000002,2037.9937264000002,2038.2932019000002,2038.3608619,,,,,down,4.282162299999982,None,space,0.35543150000012247,None,,,,,,,,,,,,P117,001,2024-11-20_08h48.48.187,posner_endo_new1,2024.2.4,60.0319730288377,2024-11-20 08h48.55.831346 +0000,
,,,,,,,,,,,,,,,,,,,,,,,,,,,,,,,,,,,,,,,,,,,,,,,,,,,,,,,,,,,2038.3609875999998,2038.3765463000002,2038.3765463000002,2098.3493117,None,,,,,,,P117,001,2024-11-20_08h48.48.187,posner_endo_new1,2024.2.4,60.0319730288377,2024-11-20 08h48.55.831346 +0000,
,,,,,,,,,,,,,,,,,,,,,,,,,,,,,,,,2098.3493691000003,2098.3651964,,2101.3621468,,,,,,,,,,,,,,,,,,,,,,,,,,,,,,,,,,,P117,001,2024-11-20_08h48.48.187,posner_endo_new1,2024.2.4,60.0319730288377,2024-11-20 08h48.55.831346 +0000,
0.005,0.31,0,0,0,up,12.97440110000025,None,space,0.3980810000002748,None,,,,,,,,,0,0,0,0,2101.3816503,,,,,,,,,,,,,2101.3731804,2101.3816503,2101.3816503,2114.3660873,,,,2114.3663505000004,2114.3821933,2114.3821933,2114.3821933,2114.681743,2114.7826917,,,,,,,,,,,,,,,,up,12.97440110000025,None,space,0.3980810000002748,None,P117,001,2024-11-20_08h48.48.187,posner_endo_new1,2024.2.4,60.0319730288377,2024-11-20 08h48.55.831346 +0000,
-0.31,0.005,1,1,0,down,5.637421700000232,None,space,0.296971300000223,None,,,,,,,,,0,1,1,1,2114.7983369000003,,,,,,,,,,,,,2114.7828583,2114.7983369000003,2114.7983369000003,2120.4433414000005,,,,2120.4435959,2120.4592485000003,2120.4592485000003,2120.4592485000003,2120.7589565999997,2120.7597815999998,,,,,,,,,,,,,,,,down,5.637421700000232,None,space,0.296971300000223,None,P117,001,2024-11-20_08h48.48.187,posner_endo_new1,2024.2.4,60.0319730288377,2024-11-20 08h48.55.831346 +0000,
0.005,-0.31,2,2,0,up,7.116304000000127,None,space,0.34663480000017444,None,,,,,,,,,0,2,2,2,2120.7753995000003,,,,,,,,,,,,,2120.7599486,2120.7753995000003,2120.7753995000003,2127.9023595999997,,,,2127.9026160000003,2127.9182948999996,2127.9182948999996,2127.9182948999996,2128.2179815,2128.268628,,,,,,,,,,,,,,,,up,7.116304000000127,None,space,0.34663480000017444,None,P117,001,2024-11-20_08h48.48.187,posner_endo_new1,2024.2.4,60.0319730288377,2024-11-20 08h48.55.831346 +0000,
0.31,0.005,3,3,0,down,5.871162700000241,None,space,0.40507870000055846,None,,,,,,,,,0,3,3,3,2128.2846321999996,,,,,,,,,,,,,2128.2687945999996,2128.2846321999996,2128.2846321999996,2134.1627657999998,,,,2134.1630229,2134.1785612000003,2134.1785612000003,2134.1785612000003,2134.4782794000002,2134.5956232,,,,,,,,,,,,,,,,down,5.871162700000241,None,space,0.40507870000055846,None,P117,001,2024-11-20_08h48.48.187,posner_endo_new1,2024.2.4,60.0319730288377,2024-11-20 08h48.55.831346 +0000,
0.005,0.31,4,4,0,up,5.416240300000027,None,space,0.2752485000000888,None,,,,,,,,,0,4,4,4,2134.6114619,,,,,,,,,,,,,2134.5957915,2134.6114619,2134.6114619,2140.0399612,,,,2140.0402169,2140.0557887000004,2140.0557887000004,2140.0557887000004,2140.3554323999997,2140.3397636,,,,,,,,,,,,,,,,up,5.416240300000027,None,space,0.2752485000000888,None,P117,001,2024-11-20_08h48.48.187,posner_endo_new1,2024.2.4,60.0319730288377,2024-11-20 08h48.55.831346 +0000,
0.005,-0.31,5,5,0,down,6.040324200000214,None,space,0.41696370000045135,None,,,,,,,,,0,5,5,5,2140.3554323999997,,,,,,,,,,,,,2140.3399344,2140.3554323999997,2140.3554323999997,2146.4002135,,,,2146.4004696,2146.4160823,2146.4160823,2146.4160823,2146.7155598,2146.8497245999997,,,,,,,,,,,,,,,,down,6.040324200000214,None,space,0.41696370000045135,None,P117,001,2024-11-20_08h48.48.187,posner_endo_new1,2024.2.4,60.0319730288377,2024-11-20 08h48.55.831346 +0000,
-0.31,0.005,6,6,0,up,6.129803099999663,None,space,0.37408659999982774,None,,,,,,,,,0,6,6,6,2146.8655590999997,,,,,,,,,,,,,2146.8498921,2146.8655590999997,2146.8655590999997,2153.0101403999997,,,,2153.0104033999996,2153.0259818000004,2153.0259818000004,2153.0259818000004,2153.3256369,2153.4095293,,,,,,,,,,,,,,,,up,6.129803099999663,None,space,0.37408659999982774,None,P117,001,2024-11-20_08h48.48.187,posner_endo_new1,2024.2.4,60.0319730288377,2024-11-20 08h48.55.831346 +0000,
0.005,0.31,7,7,0,down,7.129733400000077,None,space,0.2824094999996305,None,,,,,,,,,0,7,7,7,2153.4254956000004,,,,,,,,,,,,,2153.409699,2153.4254956000004,2153.4254956000004,2160.5689782,,,,2160.569232,2160.5848439,2160.5848439,2160.5848439,2160.8845570000003,2160.8689422999996,,,,,,,,,,,,,,,,down,7.129733400000077,None,space,0.2824094999996305,None,P117,001,2024-11-20_08h48.48.187,posner_endo_new1,2024.2.4,60.0319730288377,2024-11-20 08h48.55.831346 +0000,
0.31,0.005,8,8,0,up,5.535131499999807,None,space,0.28366319999986445,None,,,,,,,,,0,8,8,8,2160.8845570000003,,,,,,,,,,,,,2160.8691435,2160.8845570000003,2160.8845570000003,2166.4295525999996,,,,2166.4298172,2166.4453199,2166.4453199,2166.4453199,2166.7451919000005,2166.7459498999997,,,,,,,,,,,,,,,,up,5.535131499999807,None,space,0.28366319999986445,None,P117,001,2024-11-20_08h48.48.187,posner_endo_new1,2024.2.4,60.0319730288377,2024-11-20 08h48.55.831346 +0000,
10,0.005,9,9,0,down,7.249209200000223,None,None,,,,,,,,,,,0,9,9,9,2166.7619301000004,,,,,,,,,,,,,2166.7461181999997,2166.7619301000004,2166.7619301000004,2174.0217592999998,,,,2174.0220129,2174.0378140000003,2174.0378140000003,2174.0378140000003,2174.3373697999996,2177.0347982000003,,,,2175.053291,,,,,,,,,,,,down,7.249209200000223,None,None,,,P117,001,2024-11-20_08h48.48.187,posner_endo_new1,2024.2.4,60.0319730288377,2024-11-20 08h48.55.831346 +0000,
0.31,0.005,10,10,0,up,2.5678806999994777,None,space,0.35990510000010545,None,,,,,,,,,0,10,10,10,2177.0512495000003,,,,,,,,,,,,,2177.0349880000003,2177.0512495000003,2177.0512495000003,2179.6328989000003,,,,2179.6331517999997,2179.6487038000005,2179.6487038000005,2179.6487038000005,2179.9484383999998,2180.0155879000004,,,,,,,,,,,,,,,,up,2.5678806999994777,None,space,0.35990510000010545,None,P117,001,2024-11-20_08h48.48.187,posner_endo_new1,2024.2.4,60.0319730288377,2024-11-20 08h48.55.831346 +0000,
0.005,0.31,11,11,0,down,5.604072199999791,None,space,0.38713989999996556,None,,,,,,,,,0,11,11,11,2180.0313997000003,,,,,,,,,,,,,2180.0157572999997,2180.0313997000003,2180.0313997000003,2185.6431888999996,,,,2185.6434412,2185.6591856000005,2185.6591856000005,2185.6591856000005,2185.9587448,2186.0596795,,,,,,,,,,,,,,,,down,5.604072199999791,None,space,0.38713989999996556,None,P117,001,2024-11-20_08h48.48.187,posner_endo_new1,2024.2.4,60.0319730288377,2024-11-20 08h48.55.831346 +0000,
10,0.005,12,12,0,up,6.8883194,None,None,,,,,,,,,,,0,12,12,12,2186.0753015,,,,,,,,,,,,,2186.0598468,2186.0753015,2186.0753015,2192.9692606,,,,2192.9695125999997,2192.9852035000004,2192.9852035000004,2192.9852035000004,2193.2848106,2195.9820648000004,,,,2194.0005899999996,,,,,,,,,,,,up,6.8883194,None,None,,,P117,001,2024-11-20_08h48.48.187,posner_endo_new1,2024.2.4,60.0319730288377,2024-11-20 08h48.55.831346 +0000,
-0.31,0.005,13,13,0,down,2.5656599000003553,None,space,0.33576480000010633,None,,,,,,,,,0,13,13,13,2195.9985718999997,,,,,,,,,,,,,2195.9822307000004,2195.9985718999997,2195.9985718999997,2198.5801217,,,,2198.5803841999996,2198.596018,2198.596018,2198.596018,2198.8954962999996,2198.946449,,,,,,,,,,,,,,,,down,2.5656599000003553,None,space,0.33576480000010633,None,P117,001,2024-11-20_08h48.48.187,posner_endo_new1,2024.2.4,60.0319730288377,2024-11-20 08h48.55.831346 +0000,
0.31,0.005,14,14,0,up,6.864765400000579,None,space,0.2571477999999843,None,,,,,,,,,0,14,14,14,2198.9622054,,,,,,,,,,,,,2198.9466206999996,2198.9622054,2198.9622054,2205.8391971,,,,2205.8394688,2205.855358,2205.855358,2205.855358,,2206.1226004,,,,,,,,,,,,,,,,up,6.864765400000579,None,space,0.2571477999999843,None,P117,001,2024-11-20_08h48.48.187,posner_endo_new1,2024.2.4,60.0319730288377,2024-11-20 08h48.55.831346 +0000,
0.005,-0.31,15,15,0,down,5.753415500000301,None,space,0.36042559999987134,None,,,,,,,,,0,15,15,15,2206.1382983000003,,,,,,,,,,,,,2206.1227793999997,2206.1382983000003,2206.1382983000003,2211.899955,,,,2211.9002105,2211.9156194999996,2211.9156194999996,2211.9156194999996,2212.2152896,2212.2829141,,,,,,,,,,,,,,,,down,5.753415500000301,None,space,0.36042559999987134,None,P117,001,2024-11-20_08h48.48.187,posner_endo_new1,2024.2.4,60.0319730288377,2024-11-20 08h48.55.831346 +0000,
0.31,0.005,16,16,0,up,7.080905600000733,None,space,0.37109289999989414,None,,,,,,,,,0,16,16,16,2212.2985178999998,,,,,,,,,,,,,2212.2830814999998,2212.2985178999998,2212.2985178999998,2219.3923088,,,,2219.3925611000004,2219.4080680999996,2219.4080680999996,2219.4080680999996,2219.7076927,2219.7917322000003,,,,,,,,,,,,,,,,up,7.080905600000733,None,space,0.37109289999989414,None,P117,001,2024-11-20_08h48.48.187,posner_endo_new1,2024.2.4,60.0319730288377,2024-11-20 08h48.55.831346 +0000,
0.31,0.005,17,17,0,down,7.7075920999996015,None,space,0.30109490000086225,None,,,,,,,,,0,17,17,17,2219.8075826000004,,,,,,,,,,,,,2219.7919069,2219.8075826000004,2219.8075826000004,2227.5173428999997,,,,2227.5176066000004,2227.5329782999997,2227.5329782999997,2227.5329782999997,2227.8328469999997,2227.8501333000004,,,,,,,,,,,,,,,,down,7.7075920999996015,None,space,0.30109490000086225,None,P117,001,2024-11-20_08h48.48.187,posner_endo_new1,2024.2.4,60.0319730288377,2024-11-20 08h48.55.831346 +0000,
0.005,-0.31,18,18,0,up,6.273655800000597,None,space,0.33478180000020075,None,,,,,,,,,0,18,18,18,2227.8659717,,,,,,,,,,,,,2227.850308,2227.8659717,2227.8659717,2234.1437419000004,,,,2234.1440033999997,2234.1595751000004,2234.1595751000004,2234.1595751000004,2234.4592736000004,2234.5101812000003,,,,,,,,,,,,,,,,up,6.273655800000597,None,space,0.33478180000020075,None,P117,001,2024-11-20_08h48.48.187,posner_endo_new1,2024.2.4,60.0319730288377,2024-11-20 08h48.55.831346 +0000,
0.005,-0.31,19,19,0,down,7.973697999999786,None,space,0.34164770000006683,None,,,,,,,,,0,19,19,19,2234.5258648,,,,,,,,,,,,,2234.5103488000004,2234.5258648,2234.5258648,2242.5018369,,,,2242.5021039000003,2242.5176596,2242.5176596,2242.5176596,2242.8172834999996,2242.8681125000003,,,,,,,,,,,,,,,,down,7.973697999999786,None,space,0.34164770000006683,None,P117,001,2024-11-20_08h48.48.187,posner_endo_new1,2024.2.4,60.0319730288377,2024-11-20 08h48.55.831346 +0000,
10,0.005,20,20,0,up,5.3995656999995845,None,None,,,,,,,,,,,0,20,20,20,2242.883771,,,,,,,,,,,,,2242.8682791,2242.883771,2242.883771,2248.2959139000004,,,,2248.2961662999996,2248.3116915,2248.3116915,2248.3116915,2248.6114853,2251.3088113000003,,,,2249.3108537,,,,,,,,,,,,up,5.3995656999995845,None,None,,,P117,001,2024-11-20_08h48.48.187,posner_endo_new1,2024.2.4,60.0319730288377,2024-11-20 08h48.55.831346 +0000,
0.005,-0.31,21,21,0,down,4.941745999999512,None,space,0.43779019999965385,None,,,,,,,,,0,21,21,21,2251.3254257,,,,,,,,,,,,,2251.3089779,2251.3254257,2251.3254257,2256.2711950000003,,,,2256.2714545999997,2256.2870789999997,2256.2870789999997,2256.2870789999997,2256.5867034000003,2256.7372095,,,,,,,,,,,,,,,,down,4.941745999999512,None,space,0.43779019999965385,None,P117,001,2024-11-20_08h48.48.187,posner_endo_new1,2024.2.4,60.0319730288377,2024-11-20 08h48.55.831346 +0000,
0.005,0.31,22,22,0,up,5.186619699999937,None,space,0.38378369999918505,None,,,,,,,,,0,22,22,22,2256.7532172,,,,,,,,,,,,,2256.7373754,2256.7532172,2256.7532172,2261.9487544000003,,,,2261.9491994,2261.9639943,2261.9639943,2261.9639943,2262.2637084,2262.3649151,,,,,,,,,,,,,,,,up,5.186619699999937,None,space,0.38378369999918505,None,P117,001,2024-11-20_08h48.48.187,posner_endo_new1,2024.2.4,60.0319730288377,2024-11-20 08h48.55.831346 +0000,
0.31,0.005,23,23,0,down,7.335181200000079,None,space,0.4378711999997904,None,,,,,,,,,0,23,23,23,2262.3802754,,,,,,,,,,,,,2262.3652294000003,2262.3802754,2262.3802754,2269.7242279,,,,2269.7246852,2269.7397117,2269.7397117,2269.7397117,2270.0395557,2270.1903111,,,,,,,,,,,,,,,,down,7.335181200000079,None,space,0.4378711999997904,None,P117,001,2024-11-20_08h48.48.187,posner_endo_new1,2024.2.4,60.0319730288377,2024-11-20 08h48.55.831346 +0000,
-0.31,0.005,24,24,0,up,5.733781800000543,None,space,0.3926669000002221,None,,,,,,,,,0,24,24,24,2270.2061320000003,,,,,,,,,,,,,2270.1905226999997,2270.2061320000003,2270.2061320000003,2275.9508431000004,,,,2275.9511417000003,2275.9667848999998,2275.9667848999998,2275.9667848999998,2276.2665625,2276.3673157000003,,,,,,,,,,,,,,,,up,5.733781800000543,None,space,0.3926669000002221,None,P117,001,2024-11-20_08h48.48.187,posner_endo_new1,2024.2.4,60.0319730288377,2024-11-20 08h48.55.831346 +0000,
10,0.005,25,25,0,down,7.004219100000228,None,None,,,,,,,,,,,0,25,25,25,2276.3830399,,,,,,,,,,,,,2276.3675286,2276.3830399,2276.3830399,2283.3935453000004,,,,2283.3938436,2283.4092078000003,2283.4092078000003,2283.4092078000003,2283.7091127000003,2286.4062255,,,,2284.4247156,,,,,,,,,,,,down,7.004219100000228,None,None,,,P117,001,2024-11-20_08h48.48.187,posner_endo_new1,2024.2.4,60.0319730288377,2024-11-20 08h48.55.831346 +0000,
0.005,0.31,26,26,0,up,2.6608236000001853,None,space,0.33315659999971103,None,,,,,,,,,0,26,26,26,2286.4227174,,,,,,,,,,,,,2286.4064326999996,2286.4227174,2286.4227174,2289.0877851000005,,,,2289.0880835,2289.1033628000005,2289.1033628000005,2289.1033628000005,2289.4030586999997,2289.4376064999997,,,,,,,,,,,,,,,,up,2.6608236000001853,None,space,0.33315659999971103,None,P117,001,2024-11-20_08h48.48.187,posner_endo_new1,2024.2.4,60.0319730288377,2024-11-20 08h48.55.831346 +0000,
0.31,0.005,27,27,0,down,8.166371199999958,None,space,0.41460079999978916,None,,,,,,,,,0,27,27,27,2289.4530510000004,,,,,,,,,,,,,2289.4378067,2289.4530510000004,2289.4530510000004,2297.6288825,,,,2297.6291865000003,2297.6446042999996,2297.6446042999996,2297.6446042999996,2297.9442116,2298.0619171,,,,,,,,,,,,,,,,down,8.166371199999958,None,space,0.41460079999978916,None,P117,001,2024-11-20_08h48.48.187,posner_endo_new1,2024.2.4,60.0319730288377,2024-11-20 08h48.55.831346 +0000,
0.005,0.31,28,28,0,up,5.374060699999973,None,space,0.3674888000005012,None,,,,,,,,,0,28,28,28,2298.0775556,,,,,,,,,,,,,2298.0621199999996,2298.0775556,2298.0775556,2303.4564103000002,,,,2303.4567219,2303.4719993999997,2303.4719993999997,2303.4719993999997,2303.7716587000004,2303.8559558999996,,,,,,,,,,,,,,,,up,5.374060699999973,None,space,0.3674888000005012,None,P117,001,2024-11-20_08h48.48.187,posner_endo_new1,2024.2.4,60.0319730288377,2024-11-20 08h48.55.831346 +0000,
10,0.005,29,29,0,down,7.379974599999514,None,None,,,,,,,,,,,0,29,29,29,2303.8716022999997,,,,,,,,,,,,,2303.8561551000003,2303.8716022999997,2303.8716022999997,2311.2648865,,,,2311.2651887,2311.2808674,2311.2808674,2311.2808674,2311.5804197999996,2314.2775908000003,,,,2312.296185,,,,,,,,,,,,down,7.379974599999514,None,None,,,P117,001,2024-11-20_08h48.48.187,posner_endo_new1,2024.2.4,60.0319730288377,2024-11-20 08h48.55.831346 +0000,
0.005,-0.31,30,30,0,up,1.7569100999999137,None,space,0.420637600000191,None,,,,,,,,,0,30,30,30,2314.2943189,,,,,,,,,,,,,2314.2777875,2314.2943189,2314.2943189,2316.0601260000003,,,,2316.0604402,2316.0757983000003,2316.0757983000003,2316.0757983000003,2316.3753691,2316.5094044999996,,,,,,,,,,,,,,,,up,1.7569100999999137,None,space,0.420637600000191,None,P117,001,2024-11-20_08h48.48.187,posner_endo_new1,2024.2.4,60.0319730288377,2024-11-20 08h48.55.831346 +0000,
0.31,0.005,31,31,0,down,10.503624299999501,None,space,0.45073909999973694,None,,,,,,,,,0,31,31,31,2316.5254130000003,,,,,,,,,,,,,2316.5096065,2316.5254130000003,2316.5254130000003,2327.032161,,,,2327.032478,2327.0479530000002,2327.0479530000002,2327.0479530000002,2327.3476904,2327.515042,,,,,,,,,,,,,,,,down,10.503624299999501,None,space,0.45073909999973694,None,P117,001,2024-11-20_08h48.48.187,posner_endo_new1,2024.2.4,60.0319730288377,2024-11-20 08h48.55.831346 +0000,
10,0.005,32,32,0,up,4.049336199999743,None,None,,,,,,,,,,,0,32,32,32,2327.5306628,,,,,,,,,,,,,2327.5152483,2327.5306628,2327.5306628,2331.5939200000003,,,,2331.5942172000005,2331.6098478000004,2331.6098478000004,2331.6098478000004,2331.9094557,2334.606887,,,,2332.6255848,,,,,,,,,,,,up,4.049336199999743,None,None,,,P117,001,2024-11-20_08h48.48.187,posner_endo_new1,2024.2.4,60.0319730288377,2024-11-20 08h48.55.831346 +0000,
-0.31,0.005,33,33,0,down,5.155910500000573,None,space,0.4515281000003597,None,,,,,,,,,0,33,33,33,2334.6234956999997,,,,,,,,,,,,,2334.6070882000004,2334.6234956999997,2334.6234956999997,2339.7857923,,,,2339.7860971,2339.8014202000004,2339.8014202000004,2339.8014202000004,2340.1012553,2340.2686016,,,,,,,,,,,,,,,,down,5.155910500000573,None,space,0.4515281000003597,None,P117,001,2024-11-20_08h48.48.187,posner_endo_new1,2024.2.4,60.0319730288377,2024-11-20 08h48.55.831346 +0000,
10,0.005,34,34,0,up,3.943892500000402,None,None,,,,,,,,,,,0,34,34,34,2340.284305,,,,,,,,,,,,,2340.2688049,2340.284305,2340.284305,2344.2311417,,,,2344.2314411999996,2344.2474193999997,2344.2474193999997,2344.2474193999997,2344.5466871999997,2347.2440641000003,,,,2345.2625393,,,,,,,,,,,,up,3.943892500000402,None,None,,,P117,001,2024-11-20_08h48.48.187,posner_endo_new1,2024.2.4,60.0319730288377,2024-11-20 08h48.55.831346 +0000,
0.005,-0.31,35,35,0,down,8.711024799999905,None,space,0.3633361000001969,None,,,,,,,,,0,35,35,35,2347.2604191,,,,,,,,,,,,,2347.2442597,2347.2604191,2347.2604191,2355.9859027,,,,2355.9862132999997,2356.0016357000004,2356.0016357000004,2356.0016357000004,2356.3013819999996,2356.3690033000003,,,,,,,,,,,,,,,,down,8.711024799999905,None,space,0.3633361000001969,None,P117,001,2024-11-20_08h48.48.187,posner_endo_new1,2024.2.4,60.0319730288377,2024-11-20 08h48.55.831346 +0000,
0.31,0.005,36,36,0,up,6.723295400000097,None,space,0.35027720000016416,None,,,,,,,,,0,36,36,36,2356.3845985,,,,,,,,,,,,,2356.3692018,2356.3845985,2356.3845985,2363.1121577000004,,,,2363.1124557000003,2363.1276803,2363.1276803,2363.1276803,2363.4272603,2363.4948993,,,,,,,,,,,,,,,,up,6.723295400000097,None,space,0.35027720000016416,None,P117,001,2024-11-20_08h48.48.187,posner_endo_new1,2024.2.4,60.0319730288377,2024-11-20 08h48.55.831346 +0000,
10,0.005,37,37,0,down,5.148985300000277,None,None,,,,,,,,,,,0,37,37,37,2363.5106242,,,,,,,,,,,,,2363.4950989,2363.5106242,2363.5106242,2368.6729621000004,,,,2368.6732586999997,2368.6885810000003,2368.6885810000003,2368.6885810000003,2368.9881889999997,2371.6856078,,,,2369.6876580999997,,,,,,,,,,,,down,5.148985300000277,None,None,,,P117,001,2024-11-20_08h48.48.187,posner_endo_new1,2024.2.4,60.0319730288377,2024-11-20 08h48.55.831346 +0000,
10,0.005,38,38,0,up,1.6374890000006417,None,None,,,,,,,,,,,0,38,38,38,2371.7022466999997,,,,,,,,,,,,,2371.6858025,2371.7022466999997,2371.7022466999997,2373.3515214,,,,2373.3518286999997,2373.3671237999997,2373.3671237999997,2373.3671237999997,2373.6669002999997,2376.3642181000005,,,,2374.3661427999996,,,,,,,,,,,,up,1.6374890000006417,None,None,,,P117,001,2024-11-20_08h48.48.187,posner_endo_new1,2024.2.4,60.0319730288377,2024-11-20 08h48.55.831346 +0000,
-0.31,0.005,39,39,0,down,3.255127899999934,None,space,0.38234340000053635,None,,,,,,,,,0,39,39,39,2376.3808123999997,,,,,,,,,,,,,2376.3644126,2376.3808123999997,2376.3808123999997,2379.6451008000004,,,,2379.6454013000002,2379.6608730999997,2379.6608730999997,2379.6608730999997,2379.9603516999996,2380.0448475000003,,,,,,,,,,,,,,,,down,3.255127899999934,None,space,0.38234340000053635,None,P117,001,2024-11-20_08h48.48.187,posner_endo_new1,2024.2.4,60.0319730288377,2024-11-20 08h48.55.831346 +0000,
0.005,-0.31,40,40,0,up,5.927671699999337,None,space,0.39048079999975016,None,,,,,,,,,0,40,40,40,2380.0604746999998,,,,,,,,,,,,,2380.0450567999997,2380.0604746999998,2380.0604746999998,2386.005112,,,,2386.0054139000003,2386.0209133999997,2386.0209133999997,2386.0209133999997,2386.3206871,2386.4217489000002,,,,,,,,,,,,,,,,up,5.927671699999337,None,space,0.39048079999975016,None,P117,001,2024-11-20_08h48.48.187,posner_endo_new1,2024.2.4,60.0319730288377,2024-11-20 08h48.55.831346 +0000,
0.005,-0.31,41,41,0,down,4.374308399999791,None,space,0.43259430000034627,None,,,,,,,,,0,41,41,41,2386.437205,,,,,,,,,,,,,2386.4219493,2386.437205,2386.437205,2390.8171863999996,,,,2390.8174965999997,2390.8324543,2390.8324543,2390.8324543,2391.1324972,2391.2668372,,,,,,,,,,,,,,,,down,4.374308399999791,None,space,0.43259430000034627,None,P117,001,2024-11-20_08h48.48.187,posner_endo_new1,2024.2.4,60.0319730288377,2024-11-20 08h48.55.831346 +0000,
10,0.005,42,42,0,up,6.345368499999495,None,None,,,,,,,,,,,0,42,42,42,2391.2821798000004,,,,,,,,,,,,,2391.2670451000004,2391.2821798000004,2391.2821798000004,2397.6432737000005,,,,2397.6435815000004,2397.6589374000005,2397.6589374000005,2397.6589374000005,2397.9587131,2400.6561401999998,,,,2398.6579351,,,,,,,,,,,,up,6.345368499999495,None,None,,,P117,001,2024-11-20_08h48.48.187,posner_endo_new1,2024.2.4,60.0319730288377,2024-11-20 08h48.55.831346 +0000,
0.005,-0.31,43,43,0,down,3.8591148999994402,None,space,0.38121489999957703,None,,,,,,,,,0,43,43,43,2400.6725816,,,,,,,,,,,,,2400.6563335,2400.6725816,2400.6725816,2404.5362452,,,,2404.536543,2404.5519468,2404.5519468,2404.5519468,2404.8517007,2404.9359265000003,,,,,,,,,,,,,,,,down,3.8591148999994402,None,space,0.38121489999957703,None,P117,001,2024-11-20_08h48.48.187,posner_endo_new1,2024.2.4,60.0319730288377,2024-11-20 08h48.55.831346 +0000,
-0.31,0.005,44,44,0,up,5.100040100000115,None,space,0.403511399999843,None,,,,,,,,,0,44,44,44,2404.9514492,,,,,,,,,,,,,2404.9361377000005,2404.9514492,2404.9514492,2410.0638452000003,,,,2410.0641447,2410.0797057,2410.0797057,2410.0797057,2410.3793831000003,2410.4968621,,,,,,,,,,,,,,,,up,5.100040100000115,None,space,0.403511399999843,None,P117,001,2024-11-20_08h48.48.187,posner_endo_new1,2024.2.4,60.0319730288377,2024-11-20 08h48.55.831346 +0000,
10,0.005,45,45,0,down,6.154823899999428,None,None,,,,,,,,,,,0,45,45,45,2410.5125091,,,,,,,,,,,,,2410.4970632000004,2410.5125091,2410.5125091,2416.6739657,,,,2416.6742845,2416.6895321,2416.6895321,2416.6895321,2416.9891917000004,2419.6866794,,,,2417.7051677,,,,,,,,,,,,down,6.154823899999428,None,None,,,P117,001,2024-11-20_08h48.48.187,posner_endo_new1,2024.2.4,60.0319730288377,2024-11-20 08h48.55.831346 +0000,
0.005,0.31,46,46,0,up,2.628205299999536,None,space,0.4088494999996328,None,,,,,,,,,0,46,46,46,2419.7031255,,,,,,,,,,,,,2419.6868752,2419.7031255,2419.7031255,2422.3347167,,,,2422.3350140000002,2422.3500219,2422.3500219,2422.3500219,2422.6502843,2422.7676324000004,,,,,,,,,,,,,,,,up,2.628205299999536,None,space,0.4088494999996328,None,P117,001,2024-11-20_08h48.48.187,posner_endo_new1,2024.2.4,60.0319730288377,2024-11-20 08h48.55.831346 +0000,
0.005,-0.31,47,47,0,down,10.428843900000174,None,space,0.4615561999999045,None,,,,,,,,,0,47,47,47,2422.7832910999996,,,,,,,,,,,,,2422.7678438000003,2422.7832910999996,2422.7832910999996,2433.2234608999997,,,,2433.2237586,2433.2391385,2433.2391385,2433.2391385,2433.538933,2433.7066229,,,,,,,,,,,,,,,,down,10.428843900000174,None,space,0.4615561999999045,None,P117,001,2024-11-20_08h48.48.187,posner_endo_new1,2024.2.4,60.0319730288377,2024-11-20 08h48.55.831346 +0000,
0.31,0.005,48,48,0,up,3.825821899999937,None,space,0.4607378000000608,None,,,,,,,,,0,48,48,48,2433.722224,,,,,,,,,,,,,2433.7068351999997,2433.722224,2433.722224,2437.5525245999997,,,,2437.5528182,2437.5680724000003,2437.5680724000003,2437.5680724000003,2437.8678176000003,2438.0354319999997,,,,,,,,,,,,,,,,up,3.825821899999937,None,space,0.4607378000000608,None,P117,001,2024-11-20_08h48.48.187,posner_endo_new1,2024.2.4,60.0319730288377,2024-11-20 08h48.55.831346 +0000,
-0.31,0.005,49,49,0,down,19.192813400000887,None,space,0.4606085000004896,None,,,,,,,,,0,49,49,49,2438.0509703,,,,,,,,,,,,,2438.0356522,2438.0509703,2438.0509703,2457.2490616000005,,,,2457.2493592,2457.2647115,2457.2647115,2457.2647115,2457.5644405000003,2457.7319638999998,,,,,,,,,,,,,,,,down,19.192813400000887,None,space,0.4606085000004896,None,P117,001,2024-11-20_08h48.48.187,posner_endo_new1,2024.2.4,60.0319730288377,2024-11-20 08h48.55.831346 +0000,
0.005,0.31,50,50,0,up,4.00788139999986,None,space,0.3621454000003723,None,,,,,,,,,0,50,50,50,2457.7474835000003,,,,,,,,,,,,,2457.7321647999997,2457.7474835000003,2457.7474835000003,2461.7612391000002,,,,2461.761547,2461.7768514,2461.7768514,2461.7768514,2462.0764894000004,2462.1442286,,,,,,,,,,,,,,,,up,4.00788139999986,None,space,0.3621454000003723,None,P117,001,2024-11-20_08h48.48.187,posner_endo_new1,2024.2.4,60.0319730288377,2024-11-20 08h48.55.831346 +0000,
0.005,0.31,51,51,0,down,6.380047499999819,None,space,0.3242705000002388,None,,,,,,,,,0,51,51,51,2462.1596746000005,,,,,,,,,,,,,2462.1444285,2462.1596746000005,2462.1596746000005,2468.554011,,,,2468.5543049999997,2468.5697695,2468.5697695,2468.5697695,2468.8694735999998,2468.9037645999997,,,,,,,,,,,,,,,,down,6.380047499999819,None,space,0.3242705000002388,None,P117,001,2024-11-20_08h48.48.187,posner_endo_new1,2024.2.4,60.0319730288377,2024-11-20 08h48.55.831346 +0000,
10,0.005,52,52,0,up,6.252247800000077,None,None,,,,,,,,,,,0,52,52,52,2468.9194211000004,,,,,,,,,,,,,2468.9039645000003,2468.9194211000004,2468.9194211000004,2475.1806451,,,,2475.1809405000004,2475.1963955,2475.1963955,2475.1963955,2475.4959903,2478.193477,,,,2476.1953357,,,,,,,,,,,,up,6.252247800000077,None,None,,,P117,001,2024-11-20_08h48.48.187,posner_endo_new1,2024.2.4,60.0319730288377,2024-11-20 08h48.55.831346 +0000,
-0.31,0.005,53,53,0,down,3.6818414999997913,None,space,0.3897600999998758,None,,,,,,,,,0,53,53,53,2478.2099909,,,,,,,,,,,,,2478.1936711,2478.2099909,2478.2099909,2481.9070675000003,,,,2481.9073682999997,2481.9226894000003,2481.9226894000003,2481.9226894000003,2482.2224702000003,2482.3233729000003,,,,,,,,,,,,,,,,down,3.6818414999997913,None,space,0.3897600999998758,None,P117,001,2024-11-20_08h48.48.187,posner_endo_new1,2024.2.4,60.0319730288377,2024-11-20 08h48.55.831346 +0000,
10,0.005,54,54,0,up,5.392119299999649,None,None,,,,,,,,,,,0,54,54,54,2482.3391598999997,,,,,,,,,,,,,2482.3235891000004,2482.3391598999997,2482.3391598999997,2487.7344353999997,,,,2487.7347388,2487.7500907000003,2487.7500907000003,2487.7500907000003,2488.0497487000002,2490.7472068999996,,,,2488.7491577,,,,,,,,,,,,up,5.392119299999649,None,None,,,P117,001,2024-11-20_08h48.48.187,posner_endo_new1,2024.2.4,60.0319730288377,2024-11-20 08h48.55.831346 +0000,
0.005,0.31,55,55,0,down,3.039614799999981,None,space,0.5239833999994516,None,,,,,,,,,0,55,55,55,2490.7637289000004,,,,,,,,,,,,,2490.7474060000004,2490.7637289000004,2490.7637289000004,2493.8113552000004,,,,2493.8116486,2493.8271241,2493.8271241,2493.8271241,2494.1269423000003,2494.3610200000003,,,,,,,,,,,,,,,,down,3.039614799999981,None,space,0.5239833999994516,None,P117,001,2024-11-20_08h48.48.187,posner_endo_new1,2024.2.4,60.0319730288377,2024-11-20 08h48.55.831346 +0000,
0.005,-0.31,56,56,0,up,6.026636499999768,None,space,0.4334409000002779,None,,,,,,,,,0,56,56,56,2494.3768075999997,,,,,,,,,,,,,2494.3612384999997,2494.3768075999997,2494.3768075999997,2500.4049413000002,,,,2500.40524,2500.4206434999996,2500.4206434999996,2500.4206434999996,2500.7201401,2500.870771,,,,,,,,,,,,,,,,up,6.026636499999768,None,space,0.4334409000002779,None,P117,001,2024-11-20_08h48.48.187,posner_endo_new1,2024.2.4,60.0319730288377,2024-11-20 08h48.55.831346 +0000,
0.005,0.31,57,57,0,down,7.301102399999763,None,space,0.47152189999997063,None,,,,,,,,,0,57,57,57,2500.8866211000004,,,,,,,,,,,,,2500.8709771000003,2500.8866211000004,2500.8866211000004,2508.1967098000005,,,,2508.1970068,2508.2125192000003,2508.2125192000003,2508.2125192000003,2508.5122362,2508.6963268,,,,,,,,,,,,,,,,down,7.301102399999763,None,space,0.47152189999997063,None,P117,001,2024-11-20_08h48.48.187,posner_endo_new1,2024.2.4,60.0319730288377,2024-11-20 08h48.55.831346 +0000,
-0.31,0.005,58,58,0,up,3.6355052999997497,None,space,0.3760406999999759,None,,,,,,,,,0,58,58,58,2508.7120358,,,,,,,,,,,,,2508.6965278999996,2508.7120358,2508.7120358,2512.3592019999996,,,,2512.3595091999996,2512.3748937,2512.3748937,2512.3748937,2512.6746598,2512.7588255,,,,,,,,,,,,,,,,up,3.6355052999997497,None,space,0.3760406999999759,None,P117,001,2024-11-20_08h48.48.187,posner_endo_new1,2024.2.4,60.0319730288377,2024-11-20 08h48.55.831346 +0000,
-0.31,0.005,59,59,0,down,7.261152199999742,None,space,0.3017102000003433,None,,,,,,,,,0,59,59,59,2512.7745836000004,,,,,,,,,,,,,2512.7590375,2512.7745836000004,2512.7745836000004,2520.0514141000003,,,,2520.0517401999996,2520.0671124,2520.0671124,2520.0671124,2520.3667531,2520.3844603999996,,,,,,,,,,,,,,,,down,7.261152199999742,None,space,0.3017102000003433,None,P117,001,2024-11-20_08h48.48.187,posner_endo_new1,2024.2.4,60.0319730288377,2024-11-20 08h48.55.831346 +0000,
