target_y,target_x,thisN,thisTrialN,thisRepN,key_control2.keys,key_control2.rt,key_control2.duration,key_resp.keys,key_resp.rt,key_resp.duration,practice.thisRepN,practice.thisTrialN,practice.thisN,practice.thisIndex,session_1.thisRepN,session_1.thisTrialN,session_1.thisN,session_1.thisIndex,session_2.thisRepN,session_2.thisTrialN,session_2.thisN,session_2.thisIndex,thisRow.t,notes,instructions.started,instructions_txt.started,key_control.started,instructions.stopped,key_control.keys,key_control.rt,key_control.duration,ready.started,ready_txt.started,ready.stopped,fix.started,key_control2.started,fixation_cross.started,fix.stopped,practice.key_control2.keys,practice.key_control2.rt,practice.key_control2.duration,target.started,star.started,fixation_cross_target.started,key_resp.started,star.stopped,key_resp.stopped,target.stopped,practice.key_resp.keys,practice.key_resp.rt,practice.key_resp.duration,session_1.key_control2.keys,session_1.key_control2.rt,session_1.key_control2.duration,session_1.key_resp.keys,session_1.key_resp.rt,session_1.key_resp.duration,break_2.started,text.started,key_control3.started,break_2.stopped,key_control3.keys,session_2.key_control2.keys,session_2.key_control2.rt,session_2.key_control2.duration,session_2.key_resp.keys,session_2.key_resp.rt,session_2.key_resp.duration,participant,session,date,expName,psychopyVersion,frameRate,expStart,
,,,,,,,,,,,,,,,,,,,,,,,,,0.007361599999967439,0.021106900000631867,0.021106900000631867,604.3044672000005,up,604.2751607999999,None,,,,,,,,,,,,,,,,,,,,,,,,,,,,,,,,,,,,,,P118,001,2024-11-20_09h55.25.111,posner_endo_new1,2024.2.4,60.16941299928643,2024-11-20 09h55.31.483454 +0000,
,,,,,,,,,,,,,,,,,,,,,,,,,,,,,,,,604.3045218000007,604.3203248,607.3173950999999,,,,,,,,,,,,,,,,,,,,,,,,,,,,,,,,,,,P118,001,2024-11-20_09h55.25.111,posner_endo_new1,2024.2.4,60.16941299928643,2024-11-20 09h55.31.483454 +0000,
10,0.005,0,0,0,up,34.02498360000027,None,None,,,0,0,0,4,,,,,,,,,607.3351014999998,,,,,,,,,,,,607.3241432000004,607.3351014999998,607.3351014999998,641.3664743999998,up,34.02498360000027,None,641.3667397999998,641.3824020000002,641.3824020000002,641.3824020000002,641.6820355999998,642.3978830000005,644.3793323999998,None,,,,,,,,,,,,,,,,,,,,P118,001,2024-11-20_09h55.25.111,posner_endo_new1,2024.2.4,60.16941299928643,2024-11-20 09h55.31.483454 +0000,
0.005,-0.31,1,1,0,down,6.820171300000766,None,space,0.5447512000000643,None,0,1,1,5,,,,,,,,,644.3958563000006,,,,,,,,,,,,644.3794840999999,644.3958563000006,644.3958563000006,651.2232170000007,down,6.820171300000766,None,651.2234533999999,651.2391533,651.2391533,651.2391533,651.5387650000002,,651.7887203999999,space,0.5447512000000643,None,,,,,,,,,,,,,,,,,,P118,001,2024-11-20_09h55.25.111,posner_endo_new1,2024.2.4,60.16941299928643,2024-11-20 09h55.31.483454 +0000,
0.005,0.31,2,2,0,up,4.354715200000101,None,space,0.5163787000001321,None,0,2,2,8,,,,,,,,,651.8051243,,,,,,,,,,,,651.7888834000005,651.8051243,651.8051243,656.1680114999999,up,4.354715200000101,None,656.1682470000005,656.1837715000001,656.1837715000001,656.1837715000001,656.4832059999999,,656.7008866000006,space,0.5163787000001321,None,,,,,,,,,,,,,,,,,,P118,001,2024-11-20_09h55.25.111,posner_endo_new1,2024.2.4,60.16941299928643,2024-11-20 09h55.31.483454 +0000,
0.005,10,3,3,0,down,3.0349474999993618,None,None,,,0,3,3,9,,,,,,,,,656.7167146000002,,,,,,,,,,,,656.7010397000004,656.7167146000002,656.7167146000002,659.7644571000001,down,3.0349474999993618,None,659.7646924999999,659.7802430000002,659.7802430000002,659.7802430000002,660.0795471000001,660.7789268000006,662.777169,None,,,,,,,,,,,,,,,,,,,,P118,001,2024-11-20_09h55.25.111,posner_endo_new1,2024.2.4,60.16941299928643,2024-11-20 09h55.31.483454 +0000,
0.005,0.31,4,4,0,up,1.6944639000003008,None,space,0.3470837000004394,None,0,4,4,6,,,,,,,,,662.7937567999998,,,,,,,,,,,,662.7773194000001,662.7937567999998,662.7937567999998,664.4929093999999,up,1.6944639000003008,None,664.4931464000001,664.5088409,664.5088409,664.5088409,664.8085102000005,,664.8590430000004,space,0.3470837000004394,None,,,,,,,,,,,,,,,,,,P118,001,2024-11-20_09h55.25.111,posner_endo_new1,2024.2.4,60.16941299928643,2024-11-20 09h55.31.483454 +0000,
0.31,0.005,5,5,0,down,3.6210093999998207,None,space,0.43364829999973153,None,0,5,5,3,,,,,,,,,664.8751002999998,,,,,,,,,,,,664.8591975999998,664.8751002999998,664.8751002999998,668.5054432000006,down,3.6210093999998207,None,668.5056775000003,668.5209654999999,668.5209654999999,668.5209654999999,668.8209246000006,,668.9716038000006,space,0.43364829999973153,None,,,,,,,,,,,,,,,,,,P118,001,2024-11-20_09h55.25.111,posner_endo_new1,2024.2.4,60.16941299928643,2024-11-20 09h55.31.483454 +0000,
0.31,0.005,6,6,0,up,3.476375000000189,None,space,0.36165080000046146,None,0,6,6,1,,,,,,,,,668.9874917000006,,,,,,,,,,,,668.9717586000006,668.9874917000006,668.9874917000006,672.4680269999999,up,3.476375000000189,None,672.4682635999998,672.4836013000004,672.4836013000004,672.4836013000004,672.7836035999999,,672.8509616000001,space,0.36165080000046146,None,,,,,,,,,,,,,,,,,,P118,001,2024-11-20_09h55.25.111,posner_endo_new1,2024.2.4,60.16941299928643,2024-11-20 09h55.31.483454 +0000,
-0.31,0.005,7,7,0,down,3.508915600000364,None,space,0.308941500000401,None,0,7,7,0,,,,,,,,,672.8669238000002,,,,,,,,,,,,672.8511243000003,672.8669238000002,672.8669238000002,676.3806622000002,down,3.508915600000364,None,676.3809090000004,676.3965089000003,676.3965089000003,676.3965089000003,676.6963948000002,,676.7138648,space,0.308941500000401,None,,,,,,,,,,,,,,,,,,P118,001,2024-11-20_09h55.25.111,posner_endo_new1,2024.2.4,60.16941299928643,2024-11-20 09h55.31.483454 +0000,
0.005,-0.31,8,8,0,up,3.1257826000000932,None,space,0.5627882999997382,None,0,8,8,7,,,,,,,,,676.7297029000001,,,,,,,,,,,,676.714027,676.7297029000001,676.7297029000001,679.8605787000006,up,3.1257826000000932,None,679.8608148000003,679.8763923000006,679.8763923000006,679.8763923000006,680.1760558000005,,680.4433420000005,space,0.5627882999997382,None,,,,,,,,,,,,,,,,,,P118,001,2024-11-20_09h55.25.111,posner_endo_new1,2024.2.4,60.16941299928643,2024-11-20 09h55.31.483454 +0000,
-0.31,0.005,9,9,0,down,2.72510020000027,None,space,0.47432819999994535,None,0,9,9,2,,,,,,,,,680.4591402000005,,,,,,,,,,,,680.4435014000001,680.4591402000005,680.4591402000005,683.1900936000002,down,2.72510020000027,None,683.1903332000002,683.2063890999998,683.2063890999998,683.2063890999998,683.5055929999999,,683.6899957000005,space,0.47432819999994535,None,,,,,,,,,,,,,,,,,,P118,001,2024-11-20_09h55.25.111,posner_endo_new1,2024.2.4,60.16941299928643,2024-11-20 09h55.31.483454 +0000,
,,,,,,,,,,,,,,,,,,,,,,,,,,,,,,,,683.6900996000004,683.7056984999999,686.7028844000006,,,,,,,,,,,,,,,,,,,,,,,,,,,,,,,,,,,P118,001,2024-11-20_09h55.25.111,posner_endo_new1,2024.2.4,60.16941299928643,2024-11-20 09h55.31.483454 +0000,
-0.31,0.005,0,0,0,up,13.478429299999334,None,space,0.2954005999999936,None,,,,,0,0,0,0,,,,,686.7213811000001,,,,,,,,,,,,686.7108114000002,686.7213811000001,686.7213811000001,700.2067389000003,,,,700.2071264000006,700.2222300000003,700.2222300000003,700.2222300000003,700.5219287999998,,700.5232832000002,,,,up,13.478429299999334,None,space,0.2954005999999936,None,,,,,,,,,,,,P118,001,2024-11-20_09h55.25.111,posner_endo_new1,2024.2.4,60.16941299928643,2024-11-20 09h55.31.483454 +0000,
0.005,0.31,1,1,0,down,2.853324700000485,None,space,0.3927260999998907,None,,,,,0,1,1,1,,,,,700.5386224000003,,,,,,,,,,,,700.5235518,700.5386224000003,700.5386224000003,703.4034526000005,,,,703.4038294000002,703.4189766,703.4189766,703.4189766,703.7187381000003,,703.8197201000003,,,,down,2.853324700000485,None,space,0.3927260999998907,None,,,,,,,,,,,,P118,001,2024-11-20_09h55.25.111,posner_endo_new1,2024.2.4,60.16941299928643,2024-11-20 09h55.31.483454 +0000,
0.31,0.005,2,2,0,up,2.909086099999513,None,space,0.2844955000000482,None,,,,,0,2,2,2,,,,,703.8351618000006,,,,,,,,,,,,703.8199855000003,703.8351618000006,703.8351618000006,706.7500997000006,,,,706.7504753000003,706.7654540000003,706.7654540000003,706.7654540000003,707.0651890999998,,707.0664354,,,,up,2.909086099999513,None,space,0.2844955000000482,None,,,,,,,,,,,,P118,001,2024-11-20_09h55.25.111,posner_endo_new1,2024.2.4,60.16941299928643,2024-11-20 09h55.31.483454 +0000,
0.31,0.005,3,3,0,down,2.790555900000072,None,space,0.2575437999994392,None,,,,,0,3,3,3,,,,,707.0818884,,,,,,,,,,,,707.0666968000005,707.0818884,707.0818884,709.8804870000004,,,,709.8808585000006,709.8956384000003,709.8956384000003,709.8956384000003,,,710.1633621000001,,,,down,2.790555900000072,None,space,0.2575437999994392,None,,,,,,,,,,,,P118,001,2024-11-20_09h55.25.111,posner_endo_new1,2024.2.4,60.16941299928643,2024-11-20 09h55.31.483454 +0000,
-0.31,0.005,4,4,0,up,2.940806800000246,None,space,0.2850340999993932,None,,,,,0,4,4,4,,,,,710.1787150999999,,,,,,,,,,,,710.1636310000004,710.1787150999999,710.1787150999999,713.1268490000002,,,,713.1272243000003,713.1422818000001,713.1422818000001,713.1422818000001,713.4420696000007,,713.4432805000006,,,,up,2.940806800000246,None,space,0.2850340999993932,None,,,,,,,,,,,,P118,001,2024-11-20_09h55.25.111,posner_endo_new1,2024.2.4,60.16941299928643,2024-11-20 09h55.31.483454 +0000,
0.005,-0.31,5,5,0,down,2.333401199999571,None,space,0.2870505000000776,None,,,,,0,5,5,5,,,,,713.4587059000005,,,,,,,,,,,,713.4435418000003,713.4587059000005,713.4587059000005,715.8074676000006,,,,715.8078427,715.8228684000005,715.8228684000005,715.8228684000005,716.1226500000002,,716.1239474000004,,,,down,2.333401199999571,None,space,0.2870505000000776,None,,,,,,,,,,,,P118,001,2024-11-20_09h55.25.111,posner_endo_new1,2024.2.4,60.16941299928643,2024-11-20 09h55.31.483454 +0000,
0.005,-0.31,6,6,0,up,4.484212600000319,None,space,0.3750910999997359,None,,,,,0,6,6,6,,,,,716.1393322000004,,,,,,,,,,,,716.1242093000001,716.1393322000004,716.1393322000004,720.6358920000002,,,,720.6362852000002,720.6513227000005,720.6513227000005,720.6513227000005,720.9510400999998,,721.0354955000003,,,,up,4.484212600000319,None,space,0.3750910999997359,None,,,,,,,,,,,,P118,001,2024-11-20_09h55.25.111,posner_endo_new1,2024.2.4,60.16941299928643,2024-11-20 09h55.31.483454 +0000,
10,0.005,7,7,0,down,5.196799300000748,None,None,,,,,,,0,7,7,7,,,,,721.0509177000004,,,,,,,,,,,,721.0357696000001,721.0509177000004,721.0509177000004,726.2635461,,,,726.2639367000002,726.2789251000004,726.2789251000004,726.2789251000004,726.5786856000004,727.2945048000001,729.2759528000006,,,,down,5.196799300000748,None,None,,,,,,,,,,,,,,P118,001,2024-11-20_09h55.25.111,posner_endo_new1,2024.2.4,60.16941299928643,2024-11-20 09h55.31.483454 +0000,
-0.31,0.005,8,8,0,up,4.260189300000093,None,space,0.6269659999998112,None,,,,,0,8,8,8,,,,,729.2925405000005,,,,,,,,,,,,729.2762085000004,729.2925405000005,729.2925405000005,733.5559456999999,,,,733.5563196000003,733.5713775000004,733.5713775000004,733.5713775000004,733.8710977999999,,734.2052727999999,,,,up,4.260189300000093,None,space,0.6269659999998112,None,,,,,,,,,,,,P118,001,2024-11-20_09h55.25.111,posner_endo_new1,2024.2.4,60.16941299928643,2024-11-20 09h55.31.483454 +0000,
0.005,0.31,9,9,0,down,2.4352153999998336,None,space,0.33491609999964567,None,,,,,0,9,9,9,,,,,734.2207474000006,,,,,,,,,,,,734.2055398000002,734.2207474000006,734.2207474000006,736.6695070000005,,,,736.6698875000002,736.6849477000005,736.6849477000005,736.6849477000005,736.9847049,,737.0357043000004,,,,down,2.4352153999998336,None,space,0.33491609999964567,None,,,,,,,,,,,,P118,001,2024-11-20_09h55.25.111,posner_endo_new1,2024.2.4,60.16941299928643,2024-11-20 09h55.31.483454 +0000,
0.005,-0.31,10,10,0,up,4.076643899999908,None,space,0.3876362999999401,None,,,,,0,10,10,10,,,,,737.0512287000001,,,,,,,,,,,,737.0359766000001,737.0512287000001,737.0512287000001,741.1317276999998,,,,741.1321212000003,741.1470608999998,741.1470608999998,741.1470608999998,741.4467480000003,,741.5478773000004,,,,up,4.076643899999908,None,space,0.3876362999999401,None,,,,,,,,,,,,P118,001,2024-11-20_09h55.25.111,posner_endo_new1,2024.2.4,60.16941299928643,2024-11-20 09h55.31.483454 +0000,
0.005,0.31,11,11,0,down,3.1486180000001696,None,space,0.5062193999992814,None,,,,,0,11,11,11,,,,,741.5633452000002,,,,,,,,,,,,741.5481461999998,741.5633452000002,741.5633452000002,744.7279125000005,,,,744.7282897000005,744.743356,744.743356,744.743356,745.0430052000002,,745.2606153000006,,,,down,3.1486180000001696,None,space,0.5062193999992814,None,,,,,,,,,,,,P118,001,2024-11-20_09h55.25.111,posner_endo_new1,2024.2.4,60.16941299928643,2024-11-20 09h55.31.483454 +0000,
10,0.005,12,12,0,up,3.251502000000073,None,None,,,,,,,0,12,12,12,,,,,745.2762103000005,,,,,,,,,,,,745.2608939000002,745.2762103000005,745.2762103000005,748.5405497000002,,,,748.5409380000001,748.5560504000005,748.5560504000005,748.5560504000005,748.8557808000005,749.5551320000004,751.5531691000006,,,,up,3.251502000000073,None,None,,,,,,,,,,,,,,P118,001,2024-11-20_09h55.25.111,posner_endo_new1,2024.2.4,60.16941299928643,2024-11-20 09h55.31.483454 +0000,
0.31,0.005,13,13,0,down,0.7661324999999124,None,space,0.5402157999997144,None,,,,,0,13,13,13,,,,,751.5696431000006,,,,,,,,,,,,751.5534257999998,751.5696431000006,751.5696431000006,752.3369539000005,,,,752.3373349000003,752.3522355000005,752.3522355000005,752.3522355000005,752.6518937000001,,752.9029289999999,,,,down,0.7661324999999124,None,space,0.5402157999997144,None,,,,,,,,,,,,P118,001,2024-11-20_09h55.25.111,posner_endo_new1,2024.2.4,60.16941299928643,2024-11-20 09h55.31.483454 +0000,
10,0.005,14,14,0,up,4.569596100000126,None,None,,,,,,,0,14,14,14,,,,,752.9183621000002,,,,,,,,,,,,752.9031986999998,752.9183621000002,752.9183621000002,757.4981201,,,,757.4985029999998,757.5136022000006,757.5136022000006,757.5136022000006,757.8132596000005,758.5126286000004,760.5107090000001,,,,up,4.569596100000126,None,None,,,,,,,,,,,,,,P118,001,2024-11-20_09h55.25.111,posner_endo_new1,2024.2.4,60.16941299928643,2024-11-20 09h55.31.483454 +0000,
-0.31,0.005,15,15,0,down,1.9602861000003031,None,space,0.37446509999972477,None,,,,,0,15,15,15,,,,,760.5271080000002,,,,,,,,,,,,760.5109683000001,760.5271080000002,760.5271080000002,762.4931830000005,,,,762.4935734999999,762.5085071000003,762.5085071000003,762.5085071000003,762.8082757000002,,762.8926584999999,,,,down,1.9602861000003031,None,space,0.37446509999972477,None,,,,,,,,,,,,P118,001,2024-11-20_09h55.25.111,posner_endo_new1,2024.2.4,60.16941299928643,2024-11-20 09h55.31.483454 +0000,
0.005,-0.31,16,16,0,up,3.2439492000003156,None,space,0.33443459999944025,None,,,,,0,16,16,16,,,,,762.9082039000004,,,,,,,,,,,,762.8929316000003,762.9082039000004,762.9082039000004,766.1562517000002,,,,766.1566266999998,766.1714590000001,766.1714590000001,766.1714590000001,766.4711788000004,,766.5224482000003,,,,up,3.2439492000003156,None,space,0.33443459999944025,None,,,,,,,,,,,,P118,001,2024-11-20_09h55.25.111,posner_endo_new1,2024.2.4,60.16941299928643,2024-11-20 09h55.31.483454 +0000,
0.005,0.31,17,17,0,down,2.9898710999996183,None,space,0.4047969000002922,None,,,,,0,17,17,17,,,,,766.5377042999999,,,,,,,,,,,,766.5227148000004,766.5377042999999,766.5377042999999,769.5353193000001,,,,769.5355949000004,769.5509876000006,769.5509876000006,769.5509876000006,769.8509132999998,,769.9684117000006,,,,down,2.9898710999996183,None,space,0.4047969000002922,None,,,,,,,,,,,,P118,001,2024-11-20_09h55.25.111,posner_endo_new1,2024.2.4,60.16941299928643,2024-11-20 09h55.31.483454 +0000,
-0.31,0.005,18,18,0,up,3.5917913000002955,None,space,0.31433930000002874,None,,,,,0,18,18,18,,,,,769.9840153000005,,,,,,,,,,,,769.9685958,769.9840153000005,769.9840153000005,773.5813459999999,,,,773.5816124000003,773.5971895000002,773.5971895000002,773.5971895000002,773.8968911000002,,773.9143088000001,,,,up,3.5917913000002955,None,space,0.31433930000002874,None,,,,,,,,,,,,P118,001,2024-11-20_09h55.25.111,posner_endo_new1,2024.2.4,60.16941299928643,2024-11-20 09h55.31.483454 +0000,
10,0.005,19,19,0,down,3.285923299999922,None,None,,,,,,,0,19,19,19,,,,,773.9300057999999,,,,,,,,,,,,773.9145003000003,773.9300057999999,773.9300057999999,777.2274975999999,,,,777.2277605999998,777.2433734000006,777.2433734000006,777.2433734000006,777.5429720000002,778.2589701000006,780.2403756000003,,,,down,3.285923299999922,None,None,,,,,,,,,,,,,,P118,001,2024-11-20_09h55.25.111,posner_endo_new1,2024.2.4,60.16941299928643,2024-11-20 09h55.31.483454 +0000,
0.005,0.31,20,20,0,up,0.49452149999979156,None,space,0.3759641999995438,None,,,,,0,20,20,20,,,,,780.2567743999998,,,,,,,,,,,,780.2405507000003,780.2567743999998,780.2567743999998,780.7573116000003,,,,780.7575764000003,780.7730068999999,780.7730068999999,780.7730068999999,781.0729520000004,,781.1567983000004,,,,up,0.49452149999979156,None,space,0.3759641999995438,None,,,,,,,,,,,,P118,001,2024-11-20_09h55.25.111,posner_endo_new1,2024.2.4,60.16941299928643,2024-11-20 09h55.31.483454 +0000,
0.005,-0.31,21,21,0,down,3.3078056000003926,None,space,0.49900030000026163,None,,,,,0,21,21,21,,,,,781.1723755000003,,,,,,,,,,,,781.1569848999998,781.1723755000003,781.1723755000003,784.4866935999999,,,,784.4869587000003,784.5026757000005,784.5026757000005,784.5026757000005,784.8022828000003,,785.0031942000005,,,,down,3.3078056000003926,None,space,0.49900030000026163,None,,,,,,,,,,,,P118,001,2024-11-20_09h55.25.111,posner_endo_new1,2024.2.4,60.16941299928643,2024-11-20 09h55.31.483454 +0000,
0.005,0.31,22,22,0,up,3.125725099999727,None,space,0.49968749999970896,None,,,,,0,22,22,22,,,,,785.0185867,,,,,,,,,,,,785.0033764,785.0185867,785.0185867,788.1497757000006,,,,788.1500434,788.1655097000003,788.1655097000003,788.1655097000003,788.4653272000005,,788.6659961000005,,,,up,3.125725099999727,None,space,0.49968749999970896,None,,,,,,,,,,,,P118,001,2024-11-20_09h55.25.111,posner_endo_new1,2024.2.4,60.16941299928643,2024-11-20 09h55.31.483454 +0000,
0.31,0.005,23,23,0,down,2.9423172999995586,None,space,0.325210099999822,None,,,,,0,23,23,23,,,,,788.6817986000005,,,,,,,,,,,,788.6661813000001,788.6817986000005,788.6817986000005,791.6295796000004,,,,791.6298513000002,791.6451215000006,791.6451215000006,791.6451215000006,791.9450845000001,,791.9795429000005,,,,down,2.9423172999995586,None,space,0.325210099999822,None,,,,,,,,,,,,P118,001,2024-11-20_09h55.25.111,posner_endo_new1,2024.2.4,60.16941299928643,2024-11-20 09h55.31.483454 +0000,
0.005,0.31,24,24,0,up,3.4053874000001088,None,space,0.36188029999993887,None,,,,,0,24,24,24,,,,,791.9949168000003,,,,,,,,,,,,791.9797260000005,791.9949168000003,791.9949168000003,795.4089837000001,,,,795.4092583000001,795.4247071999998,795.4247071999998,795.4247071999998,795.7245638000004,,795.7915583000004,,,,up,3.4053874000001088,None,space,0.36188029999993887,None,,,,,,,,,,,,P118,001,2024-11-20_09h55.25.111,posner_endo_new1,2024.2.4,60.16941299928643,2024-11-20 09h55.31.483454 +0000,
0.31,0.005,25,25,0,down,2.9200558000002275,None,space,0.2915276999992784,None,,,,,0,25,25,25,,,,,795.8076920000003,,,,,,,,,,,,795.7917408000003,795.8076920000003,795.8076920000003,798.7390106000003,,,,798.7392749,798.7543578000004,798.7543578000004,798.7543578000004,799.0543232,,799.0551970000006,,,,down,2.9200558000002275,None,space,0.2915276999992784,None,,,,,,,,,,,,P118,001,2024-11-20_09h55.25.111,posner_endo_new1,2024.2.4,60.16941299928643,2024-11-20 09h55.31.483454 +0000,
10,0.005,26,26,0,up,4.544435499999963,None,None,,,,,,,0,26,26,26,,,,,799.0710519000004,,,,,,,,,,,,799.0553711000002,799.0710519000004,799.0710519000004,803.6172276000007,,,,803.6175027999998,803.6330689000006,803.6330689000006,803.6330689000006,803.9327231000007,804.6320603000004,806.6303880000005,,,,up,4.544435499999963,None,None,,,,,,,,,,,,,,P118,001,2024-11-20_09h55.25.111,posner_endo_new1,2024.2.4,60.16941299928643,2024-11-20 09h55.31.483454 +0000,
10,0.005,27,27,0,up,1.8016665999994075,None,None,,,,,,,0,27,27,27,,,,,806.6466973000006,,,,,,,,,,,,806.6305624000006,806.6466973000006,806.6466973000006,808.4621642000002,,,,808.4624346999999,808.4780146000003,808.4780146000003,808.4780146000003,808.7775866000002,809.4770464000003,811.4752398999999,,,,up,1.8016665999994075,None,None,,,,,,,,,,,,,,P118,001,2024-11-20_09h55.25.111,posner_endo_new1,2024.2.4,60.16941299928643,2024-11-20 09h55.31.483454 +0000,
0.005,-0.31,28,28,0,down,0.7407294000004185,None,space,0.41066480000063166,None,,,,,0,28,28,28,,,,,811.4916290000001,,,,,,,,,,,,811.4754289000002,811.4916290000001,811.4916290000001,812.2417142000004,,,,812.2419798000001,812.2575545999998,812.2575545999998,812.2575545999998,812.5572296,,812.6745526000004,,,,down,0.7407294000004185,None,space,0.41066480000063166,None,,,,,,,,,,,,P118,001,2024-11-20_09h55.25.111,posner_endo_new1,2024.2.4,60.16941299928643,2024-11-20 09h55.31.483454 +0000,
0.31,0.005,29,29,0,up,3.2210171000006085,None,space,0.35780029999932594,None,,,,,0,29,29,29,,,,,812.6906339000006,,,,,,,,,,,,812.6747360999998,812.6906339000006,812.6906339000006,815.9213313999999,,,,815.9215998999998,815.9372078000006,815.9372078000006,815.9372078000006,816.2367808999998,,816.3043193000003,,,,up,3.2210171000006085,None,space,0.35780029999932594,None,,,,,,,,,,,,P118,001,2024-11-20_09h55.25.111,posner_endo_new1,2024.2.4,60.16941299928643,2024-11-20 09h55.31.483454 +0000,
10,0.005,30,30,0,down,3.8960504999995464,None,None,,,,,,,0,30,30,30,,,,,816.3200157000001,,,,,,,,,,,,816.3044997000006,816.3200157000001,816.3200157000001,820.2171115000001,,,,820.2173764999998,820.2329086999998,820.2329086999998,820.2329086999998,820.5323521,821.2483877000004,823.2298934,,,,down,3.8960504999995464,None,None,,,,,,,,,,,,,,P118,001,2024-11-20_09h55.25.111,posner_endo_new1,2024.2.4,60.16941299928643,2024-11-20 09h55.31.483454 +0000,
0.31,0.005,31,31,0,up,0.9212320999995427,None,space,0.3566712000001644,None,,,,,0,31,31,31,,,,,823.2465722000006,,,,,,,,,,,,823.2300690000002,823.2465722000006,823.2465722000006,824.1795229999998,,,,824.1797935000004,824.1953073000004,824.1953073000004,824.1953073000004,824.4950061,,824.5625268000003,,,,up,0.9212320999995427,None,space,0.3566712000001644,None,,,,,,,,,,,,P118,001,2024-11-20_09h55.25.111,posner_endo_new1,2024.2.4,60.16941299928643,2024-11-20 09h55.31.483454 +0000,
0.31,0.005,32,32,0,down,3.293888700000025,None,space,0.3660769000007349,None,,,,,0,32,32,32,,,,,824.5780331000005,,,,,,,,,,,,824.5627106000002,824.5780331000005,824.5780331000005,827.8757923000003,,,,827.8760602000002,827.8912160999998,827.8912160999998,827.8912160999998,828.1912786000003,,828.2588384999999,,,,down,3.293888700000025,None,space,0.3660769000007349,None,,,,,,,,,,,,P118,001,2024-11-20_09h55.25.111,posner_endo_new1,2024.2.4,60.16941299928643,2024-11-20 09h55.31.483454 +0000,
10,0.005,33,33,0,up,3.6135246000003463,None,None,,,,,,,0,33,33,33,,,,,828.2744561,,,,,,,,,,,,828.2590188000004,828.2744561,828.2744561,831.9046072000001,,,,831.9048755000003,831.9208583,831.9208583,831.9208583,832.2203705000002,832.9363650000005,834.9178399000002,,,,up,3.6135246000003463,None,None,,,,,,,,,,,,,,P118,001,2024-11-20_09h55.25.111,posner_endo_new1,2024.2.4,60.16941299928643,2024-11-20 09h55.31.483454 +0000,
0.005,-0.31,34,34,0,down,1.289694099999906,None,space,0.3737007999998241,None,,,,,0,34,34,34,,,,,834.9342925999999,,,,,,,,,,,,834.9180213999998,834.9342925999999,834.9342925999999,836.2337293999999,,,,836.2340032000002,836.2498252000005,836.2498252000005,836.2498252000005,836.5492174999999,,836.6334711999998,,,,down,1.289694099999906,None,space,0.3737007999998241,None,,,,,,,,,,,,P118,001,2024-11-20_09h55.25.111,posner_endo_new1,2024.2.4,60.16941299928643,2024-11-20 09h55.31.483454 +0000,
-0.31,0.005,35,35,0,up,3.854756499999894,None,space,0.43132210000021587,None,,,,,0,35,35,35,,,,,836.6491233000006,,,,,,,,,,,,836.6336695999998,836.6491233000006,836.6491233000006,840.5126473,,,,840.5129172000006,840.5287856000004,840.5287856000004,840.5287856000004,840.8283067000002,,840.9623465000004,,,,up,3.854756499999894,None,space,0.43132210000021587,None,,,,,,,,,,,,P118,001,2024-11-20_09h55.25.111,posner_endo_new1,2024.2.4,60.16941299928643,2024-11-20 09h55.31.483454 +0000,
-0.31,0.005,36,36,0,down,3.0053233999997246,None,space,0.5721315000000686,None,,,,,0,36,36,36,,,,,840.9784184,,,,,,,,,,,,840.9625282000006,840.9784184,840.9784184,843.9924265999998,,,,843.9926939000006,844.0084563999999,844.0084563999999,844.0084563999999,844.3080871000002,,844.5920362000006,,,,down,3.0053233999997246,None,space,0.5721315000000686,None,,,,,,,,,,,,P118,001,2024-11-20_09h55.25.111,posner_endo_new1,2024.2.4,60.16941299928643,2024-11-20 09h55.31.483454 +0000,
10,0.005,37,37,0,up,3.4160435000003417,None,None,,,,,,,0,37,37,37,,,,,844.6077961999999,,,,,,,,,,,,844.5922172999999,844.6077961999999,844.6077961999999,848.0385702000003,,,,848.0388356000003,848.0539221999998,848.0539221999998,848.0539221999998,848.3539562000005,849.0532297999998,851.0512138000004,,,,up,3.4160435000003417,None,None,,,,,,,,,,,,,,P118,001,2024-11-20_09h55.25.111,posner_endo_new1,2024.2.4,60.16941299928643,2024-11-20 09h55.31.483454 +0000,
0.005,0.31,38,38,0,down,2.2120058000000427,None,space,0.36538949999976467,None,,,,,0,38,38,38,,,,,851.0678505000005,,,,,,,,,,,,851.0513885,851.0678505000005,851.0678505000005,853.2829726,,,,853.2832470000003,853.2987752999998,853.2987752999998,853.2987752999998,853.5987087000003,,853.6660800999998,,,,down,2.2120058000000427,None,space,0.36538949999976467,None,,,,,,,,,,,,P118,001,2024-11-20_09h55.25.111,posner_endo_new1,2024.2.4,60.16941299928643,2024-11-20 09h55.31.483454 +0000,
0.005,-0.31,39,39,0,up,3.094339000000218,None,space,0.5296921999997721,None,,,,,0,39,39,39,,,,,853.6819274999998,,,,,,,,,,,,853.6662661999999,853.6819274999998,853.6819274999998,856.7793337000003,,,,856.7796021000004,856.7952672000001,856.7952672000001,856.7952672000001,857.0949224000005,,857.3291381999998,,,,up,3.094339000000218,None,space,0.5296921999997721,None,,,,,,,,,,,,P118,001,2024-11-20_09h55.25.111,posner_endo_new1,2024.2.4,60.16941299928643,2024-11-20 09h55.31.483454 +0000,
0.31,0.005,40,40,0,down,2.6954533999996784,None,space,0.5693152000003465,None,,,,,0,40,40,40,,,,,857.3447852999998,,,,,,,,,,,,857.3293233000004,857.3447852999998,857.3447852999998,860.0429539000006,,,,860.0432250000003,860.0586626000004,860.0586626000004,860.0586626000004,860.3583776000005,,860.6421526000004,,,,down,2.6954533999996784,None,space,0.5693152000003465,None,,,,,,,,,,,,P118,001,2024-11-20_09h55.25.111,posner_endo_new1,2024.2.4,60.16941299928643,2024-11-20 09h55.31.483454 +0000,
-0.31,0.005,41,41,0,up,3.1019986000001154,None,space,0.2989645000006931,None,,,,,0,41,41,41,,,,,860.6581672000002,,,,,,,,,,,,860.6423338000004,860.6581672000002,860.6581672000002,863.7724195000001,,,,863.7726854000002,863.7880615000004,863.7880615000004,863.7880615000004,864.0879617,,864.0890176000003,,,,up,3.1019986000001154,None,space,0.2989645000006931,None,,,,,,,,,,,,P118,001,2024-11-20_09h55.25.111,posner_endo_new1,2024.2.4,60.16941299928643,2024-11-20 09h55.31.483454 +0000,
0.31,0.005,42,42,0,down,2.53566950000004,None,space,0.3901104000005944,None,,,,,0,42,42,42,,,,,864.1045000000004,,,,,,,,,,,,864.0892001000002,864.1045000000004,864.1045000000004,866.6528033000004,,,,866.6530726999999,866.6685597000005,866.6685597000005,866.6685597000005,866.9681802000005,,867.0688968000004,,,,down,2.53566950000004,None,space,0.3901104000005944,None,,,,,,,,,,,,P118,001,2024-11-20_09h55.25.111,posner_endo_new1,2024.2.4,60.16941299928643,2024-11-20 09h55.31.483454 +0000,
10,0.005,43,43,0,up,1.6033004000000801,None,None,,,,,,,0,43,43,43,,,,,867.0846456999998,,,,,,,,,,,,867.0690785000006,867.0846456999998,867.0846456999998,868.7006705000003,,,,868.7009373000001,868.7164104000003,868.7164104000003,868.7164104000003,869.0161862000004,869.7321661000005,871.7134713000005,,,,up,1.6033004000000801,None,None,,,,,,,,,,,,,,P118,001,2024-11-20_09h55.25.111,posner_endo_new1,2024.2.4,60.16941299928643,2024-11-20 09h55.31.483454 +0000,
-0.31,0.005,44,44,0,down,0.7742730999998457,None,space,0.45097489999989193,None,,,,,0,44,44,44,,,,,871.7300427999999,,,,,,,,,,,,871.7136545000003,871.7300427999999,871.7300427999999,872.5135458000004,,,,872.5138111000006,872.5291627000006,872.5291627000006,872.5291627000006,872.8289825000002,,872.9960614000001,,,,down,0.7742730999998457,None,space,0.45097489999989193,None,,,,,,,,,,,,P118,001,2024-11-20_09h55.25.111,posner_endo_new1,2024.2.4,60.16941299928643,2024-11-20 09h55.31.483454 +0000,
0.005,0.31,45,45,0,up,3.435737299999346,None,space,0.29642410000087693,None,,,,,0,45,45,45,,,,,873.0120268000001,,,,,,,,,,,,872.9962466000006,873.0120268000001,873.0120268000001,876.4594189999998,,,,876.4596828000003,876.4752405999998,876.4752405999998,876.4752405999998,876.7749356000004,,876.7760039000004,,,,up,3.435737299999346,None,space,0.29642410000087693,None,,,,,,,,,,,,P118,001,2024-11-20_09h55.25.111,posner_endo_new1,2024.2.4,60.16941299928643,2024-11-20 09h55.31.483454 +0000,
0.005,-0.31,46,46,0,down,2.800926399999298,None,space,0.4610270000002856,None,,,,,0,46,46,46,,,,,876.7914740000006,,,,,,,,,,,,876.7761808000005,876.7914740000006,876.7914740000006,879.6062247,,,,879.6064921000007,879.6219061000002,879.6219061000002,879.6219061000002,879.9214559000002,,880.0890355000001,,,,down,2.800926399999298,None,space,0.4610270000002856,None,,,,,,,,,,,,P118,001,2024-11-20_09h55.25.111,posner_endo_new1,2024.2.4,60.16941299928643,2024-11-20 09h55.31.483454 +0000,
-0.31,0.005,47,47,0,up,1.9517556000000695,None,space,0.548621699999785,None,,,,,0,47,47,47,,,,,880.1046747999999,,,,,,,,,,,,880.0892155000001,880.1046747999999,880.1046747999999,882.0702480999998,,,,882.0705119000004,882.0860300000004,882.0860300000004,882.0860300000004,882.3858090000003,,882.6363765000006,,,,up,1.9517556000000695,None,space,0.548621699999785,None,,,,,,,,,,,,P118,001,2024-11-20_09h55.25.111,posner_endo_new1,2024.2.4,60.16941299928643,2024-11-20 09h55.31.483454 +0000,
0.005,-0.31,48,48,0,down,2.851787000000513,None,space,0.5242552999998225,None,,,,,0,48,48,48,,,,,882.6518273000001,,,,,,,,,,,,882.6365591000003,882.6518273000001,882.6518273000001,885.5164854000004,,,,885.5167540000002,885.5324449999998,885.5324449999998,885.5324449999998,885.8323199000006,,886.0660544000002,,,,down,2.851787000000513,None,space,0.5242552999998225,None,,,,,,,,,,,,P118,001,2024-11-20_09h55.25.111,posner_endo_new1,2024.2.4,60.16941299928643,2024-11-20 09h55.31.483454 +0000,
0.005,-0.31,49,49,0,up,2.399159399999917,None,space,0.37530880000031175,None,,,,,0,49,49,49,,,,,886.0819576000004,,,,,,,,,,,,886.0662344000002,886.0819576000004,886.0819576000004,888.496991,,,,888.4972643000001,888.5125368999998,888.5125368999998,888.5125368999998,888.8127500999999,,888.8964149000003,,,,up,2.399159399999917,None,space,0.37530880000031175,None,,,,,,,,,,,,P118,001,2024-11-20_09h55.25.111,posner_endo_new1,2024.2.4,60.16941299928643,2024-11-20 09h55.31.483454 +0000,
0.005,0.31,50,50,0,down,2.567712699999902,None,space,0.36956280000049446,None,,,,,0,50,50,50,,,,,888.9123971999998,,,,,,,,,,,,888.8965950000002,888.9123971999998,888.9123971999998,891.4939886000002,,,,891.4942553999999,891.5097212999999,891.5097212999999,891.5097212999999,891.8095121000006,,891.8934905000006,,,,down,2.567712699999902,None,space,0.36956280000049446,None,,,,,,,,,,,,P118,001,2024-11-20_09h55.25.111,posner_endo_new1,2024.2.4,60.16941299928643,2024-11-20 09h55.31.483454 +0000,
0.31,0.005,51,51,0,up,2.8028660999998465,None,space,0.3972272000000885,None,,,,,0,51,51,51,,,,,891.9092338999999,,,,,,,,,,,,891.8936678,891.9092338999999,891.9092338999999,894.7239497999999,,,,894.7242224000001,894.7398205999998,894.7398205999998,894.7398205999998,895.0395313999998,,895.1402644999998,,,,up,2.8028660999998465,None,space,0.3972272000000885,None,,,,,,,,,,,,P118,001,2024-11-20_09h55.25.111,posner_endo_new1,2024.2.4,60.16941299928643,2024-11-20 09h55.31.483454 +0000,
0.31,0.005,52,52,0,down,2.1638674000005267,None,space,0.360139700000218,None,,,,,0,52,52,52,,,,,895.1560485999998,,,,,,,,,,,,895.1404464000007,895.1560485999998,895.1560485999998,897.3215838000006,,,,897.3218514,897.3369682000002,897.3369682000002,897.3369682000002,897.6369315000002,,897.7041927,,,,down,2.1638674000005267,None,space,0.360139700000218,None,,,,,,,,,,,,P118,001,2024-11-20_09h55.25.111,posner_endo_new1,2024.2.4,60.16941299928643,2024-11-20 09h55.31.483454 +0000,
0.005,0.31,53,53,0,up,3.399248799999441,None,space,0.32977610000034474,None,,,,,0,53,53,53,,,,,897.7201322999999,,,,,,,,,,,,897.7043788000001,897.7201322999999,897.7201322999999,901.1341091000004,,,,901.1343753000001,901.1498871000003,901.1498871000003,901.1498871000003,901.4495667000001,,901.4838146000002,,,,up,3.399248799999441,None,space,0.32977610000034474,None,,,,,,,,,,,,P118,001,2024-11-20_09h55.25.111,posner_endo_new1,2024.2.4,60.16941299928643,2024-11-20 09h55.31.483454 +0000,
-0.31,0.005,54,54,0,down,2.956469000000652,None,space,0.28475669999988895,None,,,,,0,54,54,54,,,,,901.4995637000002,,,,,,,,,,,,901.4839934000001,901.4995637000002,901.4995637000002,904.4641353000006,,,,904.4643983000005,904.4800918999999,904.4800918999999,904.4800918999999,904.7796139000002,,904.7805260000005,,,,down,2.956469000000652,None,space,0.28475669999988895,None,,,,,,,,,,,,P118,001,2024-11-20_09h55.25.111,posner_endo_new1,2024.2.4,60.16941299928643,2024-11-20 09h55.31.483454 +0000,
10,0.005,55,55,0,up,3.403747100000146,None,None,,,,,,,0,55,55,55,,,,,904.7964486999999,,,,,,,,,,,,904.7807088999998,904.7964486999999,904.7964486999999,908.2101902000004,,,,908.2104547999998,908.2260717999998,908.2260717999998,908.2260717999998,908.5256991000006,909.2417083,911.2230564000001,,,,up,3.403747100000146,None,None,,,,,,,,,,,,,,P118,001,2024-11-20_09h55.25.111,posner_endo_new1,2024.2.4,60.16941299928643,2024-11-20 09h55.31.483454 +0000,
0.31,0.005,56,56,0,up,5.536310200000116,None,space,0.4097293000004356,None,,,,,0,56,56,56,,,,,911.2395553000006,,,,,,,,,,,,911.2232291999999,911.2395553000006,911.2395553000006,916.7847361000004,,,,916.7850024999998,916.8007027000003,916.8007027000003,916.8007027000003,917.1003122000002,,917.2176924000005,,,,up,5.536310200000116,None,space,0.4097293000004356,None,,,,,,,,,,,,P118,001,2024-11-20_09h55.25.111,posner_endo_new1,2024.2.4,60.16941299928643,2024-11-20 09h55.31.483454 +0000,
0.005,0.31,57,57,0,down,3.57400940000025,None,space,0.46495950000007724,None,,,,,0,57,57,57,,,,,917.2334274000004,,,,,,,,,,,,917.2178725000003,917.2334274000004,917.2334274000004,920.8139762000001,,,,920.8142397000001,920.8298531999999,920.8298531999999,920.8298531999999,921.1295188000004,,921.2970209000005,,,,down,3.57400940000025,None,space,0.46495950000007724,None,,,,,,,,,,,,P118,001,2024-11-20_09h55.25.111,posner_endo_new1,2024.2.4,60.16941299928643,2024-11-20 09h55.31.483454 +0000,
-0.31,0.005,58,58,0,up,3.1748921999997037,None,space,0.5397036999993361,None,,,,,0,58,58,58,,,,,921.3126391000005,,,,,,,,,,,,921.2972006,921.3126391000005,921.3126391000005,924.4933833000005,,,,924.4936508999999,924.5093741000001,924.5093741000001,924.5093741000001,924.8088296000005,,925.0598282999999,,,,up,3.1748921999997037,None,space,0.5397036999993361,None,,,,,,,,,,,,P118,001,2024-11-20_09h55.25.111,posner_endo_new1,2024.2.4,60.16941299928643,2024-11-20 09h55.31.483454 +0000,
-0.31,0.005,59,59,0,down,2.7164447000004657,None,space,0.4221145000001343,None,,,,,0,59,59,59,,,,,925.0754760999998,,,,,,,,,,,,925.0600091000006,925.0754760999998,925.0754760999998,927.8067989000001,,,,927.8070321000005,927.8226412000004,927.8226412000004,927.8226412000004,928.1224591,,928.2564321999998,,,,down,2.7164447000004657,None,space,0.4221145000001343,None,,,,,,,,,,,,P118,001,2024-11-20_09h55.25.111,posner_endo_new1,2024.2.4,60.16941299928643,2024-11-20 09h55.31.483454 +0000,
,,,,,,,,,,,,,,,,,,,,,,,,,,,,,,,,,,,,,,,,,,,,,,,,,,,,,,,,,,928.2565376000002,928.2723473000005,928.2723473000005,988.2448515000006,None,,,,,,,P118,001,2024-11-20_09h55.25.111,posner_endo_new1,2024.2.4,60.16941299928643,2024-11-20 09h55.31.483454 +0000,
,,,,,,,,,,,,,,,,,,,,,,,,,,,,,,,,988.2449372000001,988.2604283999999,991.2579776000002,,,,,,,,,,,,,,,,,,,,,,,,,,,,,,,,,,,P118,001,2024-11-20_09h55.25.111,posner_endo_new1,2024.2.4,60.16941299928643,2024-11-20 09h55.31.483454 +0000,
0.005,0.31,0,0,0,up,13.857000200000584,None,space,0.40651340000022174,None,,,,,,,,,0,0,0,0,991.2788711000003,,,,,,,,,,,,991.2703740000006,991.2788711000003,991.2788711000003,1005.1446026000003,,,,1005.1449237000006,1005.1602222000001,1005.1602222000001,1005.1602222000001,1005.4598948000003,,1005.5774818999998,,,,,,,,,,,,,,,up,13.857000200000584,None,space,0.40651340000022174,None,P118,001,2024-11-20_09h55.25.111,posner_endo_new1,2024.2.4,60.16941299928643,2024-11-20 09h55.31.483454 +0000,
-0.31,0.005,1,1,0,down,3.4074954999996407,None,space,0.31342010000025766,None,,,,,,,,,0,1,1,1,1005.5930904000006,,,,,,,,,,,,1005.5776984000004,1005.5930904000006,1005.5930904000006,1009.0073959000001,,,,1009.0076946999998,1009.0229762999998,1009.0229762999998,1009.0229762999998,1009.3226814,,1009.3404064000006,,,,,,,,,,,,,,,down,3.4074954999996407,None,space,0.31342010000025766,None,P118,001,2024-11-20_09h55.25.111,posner_endo_new1,2024.2.4,60.16941299928643,2024-11-20 09h55.31.483454 +0000,
0.005,-0.31,2,2,0,up,3.052212700000382,None,space,0.4202132000000347,None,,,,,,,,,0,2,2,2,1009.3559565000005,,,,,,,,,,,,1009.3406162000001,1009.3559565000005,1009.3559565000005,1012.4204435000001,,,,1012.4207399000006,1012.4360591000004,1012.4360591000004,1012.4360591000004,1012.7358195000006,,1012.8699045000003,,,,,,,,,,,,,,,up,3.052212700000382,None,space,0.4202132000000347,None,P118,001,2024-11-20_09h55.25.111,posner_endo_new1,2024.2.4,60.16941299928643,2024-11-20 09h55.31.483454 +0000,
0.31,0.005,3,3,0,down,2.2994024999998146,None,space,0.3475590000007287,None,,,,,,,,,0,3,3,3,1012.8855977000003,,,,,,,,,,,,1012.8701142999998,1012.8855977000003,1012.8855977000003,1015.2009417999998,,,,1015.2012407000002,1015.2166701000006,1015.2166701000006,1015.2166701000006,1015.5163013000001,,1015.5672426000001,,,,,,,,,,,,,,,down,2.2994024999998146,None,space,0.3475590000007287,None,P118,001,2024-11-20_09h55.25.111,posner_endo_new1,2024.2.4,60.16941299928643,2024-11-20 09h55.31.483454 +0000,
0.005,0.31,4,4,0,up,3.2892070999996577,None,space,0.3767580000003363,None,,,,,,,,,0,4,4,4,1015.5829475,,,,,,,,,,,,1015.5674521999999,1015.5829475,1015.5829475,1018.8804164000003,,,,1018.8807234000005,1018.8961448999999,1018.8961448999999,1018.8961448999999,1019.1959469000003,,1019.2800704000001,,,,,,,,,,,,,,,up,3.2892070999996577,None,space,0.3767580000003363,None,P118,001,2024-11-20_09h55.25.111,posner_endo_new1,2024.2.4,60.16941299928643,2024-11-20 09h55.31.483454 +0000,
0.005,-0.31,5,5,0,down,2.8076321999997162,None,space,0.29220190000069124,None,,,,,,,,,0,5,5,5,1019.2957621000005,,,,,,,,,,,,1019.2802806,1019.2957621000005,1019.2957621000005,1022.1103745,,,,1022.1106728000004,1022.1262063000004,1022.1262063000004,1022.1262063000004,1022.4259118,,1022.4269832999998,,,,,,,,,,,,,,,down,2.8076321999997162,None,space,0.29220190000069124,None,P118,001,2024-11-20_09h55.25.111,posner_endo_new1,2024.2.4,60.16941299928643,2024-11-20 09h55.31.483454 +0000,
-0.31,0.005,6,6,0,up,3.294236499999897,None,space,0.513436800000818,None,,,,,,,,,0,6,6,6,1022.4425507000005,,,,,,,,,,,,1022.4271871999999,1022.4425507000005,1022.4425507000005,1025.7400248000004,,,,1025.7403208000005,1025.7558514000002,1025.7558514000002,1025.7558514000002,1026.0554943000006,,1026.2730972999998,,,,,,,,,,,,,,,up,3.294236499999897,None,space,0.513436800000818,None,P118,001,2024-11-20_09h55.25.111,posner_endo_new1,2024.2.4,60.16941299928643,2024-11-20 09h55.31.483454 +0000,
0.005,0.31,7,7,0,down,2.6636007999995854,None,space,0.4438250999992306,None,,,,,,,,,0,7,7,7,1026.2885944,,,,,,,,,,,,1026.2733107000004,1026.2885944,1026.2885944,1028.9534779000005,,,,1028.9537793999998,1028.9691915000003,1028.9691915000003,1028.9691915000003,1029.2688896,,1029.4197706000004,,,,,,,,,,,,,,,down,2.6636007999995854,None,space,0.4438250999992306,None,P118,001,2024-11-20_09h55.25.111,posner_endo_new1,2024.2.4,60.16941299928643,2024-11-20 09h55.31.483454 +0000,
0.31,0.005,8,8,0,up,3.3248194999996485,None,space,0.4610568999996758,None,,,,,,,,,0,8,8,8,1029.4353689,,,,,,,,,,,,1029.4199887000004,1029.4353689,1029.4353689,1032.7661687999998,,,,1032.7664666,1032.7819758000005,1032.7819758000005,1032.7819758000005,1033.0816853000006,,1033.2491335000004,,,,,,,,,,,,,,,up,3.3248194999996485,None,space,0.4610568999996758,None,P118,001,2024-11-20_09h55.25.111,posner_endo_new1,2024.2.4,60.16941299928643,2024-11-20 09h55.31.483454 +0000,
10,0.005,9,9,0,down,2.743266099999346,None,None,,,,,,,,,,,0,9,9,9,1033.2648055999998,,,,,,,,,,,,1033.2493414,1033.2648055999998,1033.2648055999998,1036.0130199000005,,,,1036.0133168000002,1036.0287386999998,1036.0287386999998,1036.0287386999998,1036.3283772000004,1037.0442794,1039.0257730000003,,,,,,,,,,,,,,,down,2.743266099999346,None,None,,,P118,001,2024-11-20_09h55.25.111,posner_endo_new1,2024.2.4,60.16941299928643,2024-11-20 09h55.31.483454 +0000,
0.31,0.005,10,10,0,up,1.958369599999969,None,space,0.3451914000006582,None,,,,,,,,,0,10,10,10,1039.0422964,,,,,,,,,,,,1039.0259869000001,1039.0422964,1039.0422964,1041.0078408999998,,,,1041.0081372000004,1041.0235346,1041.0235346,1041.0235346,1041.3232611000003,,1041.3743304999998,,,,,,,,,,,,,,,up,1.958369599999969,None,space,0.3451914000006582,None,P118,001,2024-11-20_09h55.25.111,posner_endo_new1,2024.2.4,60.16941299928643,2024-11-20 09h55.31.483454 +0000,
0.005,0.31,11,11,0,down,3.1620591000000786,None,space,0.323856899999555,None,,,,,,,,,0,11,11,11,1041.3898294,,,,,,,,,,,,1041.3745389000005,1041.3898294,1041.3898294,1044.5542030000006,,,,1044.5544968000004,1044.5700123000006,1044.5700123000006,1044.5700123000006,1044.8697000000002,,1044.9036362000006,,,,,,,,,,,,,,,down,3.1620591000000786,None,space,0.323856899999555,None,P118,001,2024-11-20_09h55.25.111,posner_endo_new1,2024.2.4,60.16941299928643,2024-11-20 09h55.31.483454 +0000,
10,0.005,12,12,0,up,3.7439469999999346,None,None,,,,,,,,,,,0,12,12,12,1044.9196198999998,,,,,,,,,,,,1044.9038465000003,1044.9196198999998,1044.9196198999998,1048.6665892,,,,1048.6668874000006,1048.6824361999998,1048.6824361999998,1048.6824361999998,1048.9823711999998,1049.6813505999999,1051.6794377000006,,,,,,,,,,,,,,,up,3.7439469999999346,None,None,,,P118,001,2024-11-20_09h55.25.111,posner_endo_new1,2024.2.4,60.16941299928643,2024-11-20 09h55.31.483454 +0000,
-0.31,0.005,13,13,0,up,3.8162625999993907,None,space,0.44723809999959485,None,,,,,,,,,0,13,13,13,1051.6959928000006,,,,,,,,,,,,1051.6796392000006,1051.6959928000006,1051.6959928000006,1055.5262616,,,,1055.5265777000004,1055.5421596000006,1055.5421596000006,1055.5421596000006,1055.8416811000006,,1055.9924534000002,,,,,,,,,,,,,,,up,3.8162625999993907,None,space,0.44723809999959485,None,P118,001,2024-11-20_09h55.25.111,posner_endo_new1,2024.2.4,60.16941299928643,2024-11-20 09h55.31.483454 +0000,
0.31,0.005,14,14,0,down,2.743495800000346,None,space,0.48855660000026546,None,,,,,,,,,0,14,14,14,1056.0082002,,,,,,,,,,,,1055.9926624999998,1056.0082002,1056.0082002,1058.7563950000003,,,,1058.7566967000002,1058.7720886000006,1058.7720886000006,1058.7720886000006,1059.0716811000002,,1059.2724824000006,,,,,,,,,,,,,,,down,2.743495800000346,None,space,0.48855660000026546,None,P118,001,2024-11-20_09h55.25.111,posner_endo_new1,2024.2.4,60.16941299928643,2024-11-20 09h55.31.483454 +0000,
0.005,-0.31,15,15,0,up,3.4717259999997623,None,space,0.48899380000057135,None,,,,,,,,,0,15,15,15,1059.2881917000004,,,,,,,,,,,,1059.2726942999998,1059.2881917000004,1059.2881917000004,1062.7688259000006,,,,1062.7691221000005,1062.7846665000006,1062.7846665000006,1062.7846665000006,1063.0843404000007,,1063.2849763000004,,,,,,,,,,,,,,,up,3.4717259999997623,None,space,0.48899380000057135,None,P118,001,2024-11-20_09h55.25.111,posner_endo_new1,2024.2.4,60.16941299928643,2024-11-20 09h55.31.483454 +0000,
0.31,0.005,16,16,0,down,3.0349770000002536,None,space,0.381313400000181,None,,,,,,,,,0,16,16,16,1063.3007161000005,,,,,,,,,,,,1063.2851826000006,1063.3007161000005,1063.3007161000005,1066.3485257000002,,,,1066.3488257,1066.3643792000003,1066.3643792000003,1066.3643792000003,1066.6639694000005,,1066.7481973000004,,,,,,,,,,,,,,,down,3.0349770000002536,None,space,0.381313400000181,None,P118,001,2024-11-20_09h55.25.111,posner_endo_new1,2024.2.4,60.16941299928643,2024-11-20 09h55.31.483454 +0000,
0.31,0.005,17,17,0,up,3.260096400000293,None,space,0.4749197000001004,None,,,,,,,,,0,17,17,17,1066.7639506000005,,,,,,,,,,,,1066.7484138999998,1066.7639506000005,1066.7639506000005,1070.0282806000005,,,,1070.0285826,1070.0439218000001,1070.0439218000001,1070.0439218000001,1070.3435940999998,,1070.5277354,,,,,,,,,,,,,,,up,3.260096400000293,None,space,0.4749197000001004,None,P118,001,2024-11-20_09h55.25.111,posner_endo_new1,2024.2.4,60.16941299928643,2024-11-20 09h55.31.483454 +0000,
0.005,-0.31,18,18,0,down,3.064314299999751,None,space,0.36244879999958357,None,,,,,,,,,0,18,18,18,1070.5432950000004,,,,,,,,,,,,1070.5279502000003,1070.5432950000004,1070.5432950000004,1073.6243510000004,,,,1073.6246525000006,1073.6402097999999,1073.6402097999999,1073.6402097999999,1073.9399088999999,,1074.0075488000002,,,,,,,,,,,,,,,down,3.064314299999751,None,space,0.36244879999958357,None,P118,001,2024-11-20_09h55.25.111,posner_endo_new1,2024.2.4,60.16941299928643,2024-11-20 09h55.31.483454 +0000,
0.005,-0.31,19,19,0,up,3.9290469999996276,None,space,0.35774230000060925,None,,,,,,,,,0,19,19,19,1074.0231404000006,,,,,,,,,,,,1074.0077703000006,1074.0231404000006,1074.0231404000006,1077.9535013000004,,,,1077.9537971999998,1077.9691867000001,1077.9691867000001,1077.9691867000001,1078.2687753999999,,1078.3362263999998,,,,,,,,,,,,,,,up,3.9290469999996276,None,space,0.35774230000060925,None,P118,001,2024-11-20_09h55.25.111,posner_endo_new1,2024.2.4,60.16941299928643,2024-11-20 09h55.31.483454 +0000,
10,0.005,20,20,0,down,2.8883943000000727,None,None,,,,,,,,,,,0,20,20,20,1078.3519815999998,,,,,,,,,,,,1078.3364347000006,1078.3519815999998,1078.3519815999998,1081.2501012000002,,,,1081.2504006999998,1081.2657668000002,1081.2657668000002,1081.2657668000002,1081.5653567999998,1082.2814008000005,1084.2627588000005,,,,,,,,,,,,,,,down,2.8883943000000727,None,None,,,P118,001,2024-11-20_09h55.25.111,posner_endo_new1,2024.2.4,60.16941299928643,2024-11-20 09h55.31.483454 +0000,
0.005,-0.31,21,21,0,up,0.9128692999993291,None,space,0.53124360000038,None,,,,,,,,,0,21,21,21,1084.2792958,,,,,,,,,,,,1084.2629603000005,1084.2792958,1084.2792958,1085.1960337,,,,1085.1963381000005,1085.2117702000005,1085.2117702000005,1085.2117702000005,1085.511461,,1085.7454594,,,,,,,,,,,,,,,up,0.9128692999993291,None,space,0.53124360000038,None,P118,001,2024-11-20_09h55.25.111,posner_endo_new1,2024.2.4,60.16941299928643,2024-11-20 09h55.31.483454 +0000,
0.005,0.31,22,22,0,down,2.8389264999996158,None,space,0.44709030000012717,None,,,,,,,,,0,22,22,22,1085.7610405000005,,,,,,,,,,,,1085.7456695,1085.7610405000005,1085.7610405000005,1088.6091188,,,,1088.6094183000005,1088.6249062000006,1088.6249062000006,1088.6249062000006,1088.9246113999998,,1089.0752515000004,,,,,,,,,,,,,,,down,2.8389264999996158,None,space,0.44709030000012717,None,P118,001,2024-11-20_09h55.25.111,posner_endo_new1,2024.2.4,60.16941299928643,2024-11-20 09h55.31.483454 +0000,
0.31,0.005,23,23,0,up,3.4124805999999808,None,space,0.4133726000000024,None,,,,,,,,,0,23,23,23,1089.0909933000003,,,,,,,,,,,,1089.0754596000006,1089.0909933000003,1089.0909933000003,1092.5052225999998,,,,1092.5055295000002,1092.5209464,1092.5209464,1092.5209464,1092.8205371000004,,1092.9382178000005,,,,,,,,,,,,,,,up,3.4124805999999808,None,space,0.4133726000000024,None,P118,001,2024-11-20_09h55.25.111,posner_endo_new1,2024.2.4,60.16941299928643,2024-11-20 09h55.31.483454 +0000,
-0.31,0.005,24,24,0,down,2.7097895000006247,None,space,0.38900029999967956,None,,,,,,,,,0,24,24,24,1092.9538203000002,,,,,,,,,,,,1092.9384311000003,1092.9538203000002,1092.9538203000002,1095.6686282,,,,1095.6689314000005,1095.6843423,1095.6843423,1095.6843423,1095.983867,,1096.0848320000005,,,,,,,,,,,,,,,down,2.7097895000006247,None,space,0.38900029999967956,None,P118,001,2024-11-20_09h55.25.111,posner_endo_new1,2024.2.4,60.16941299928643,2024-11-20 09h55.31.483454 +0000,
10,0.005,25,25,0,up,3.395712999999887,None,None,,,,,,,,,,,0,25,25,25,1096.1006029999999,,,,,,,,,,,,1096.0850392000002,1096.1006029999999,1096.1006029999999,1099.4981002000004,,,,1099.4984005000006,1099.5136484000004,1099.5136484000004,1099.5136484000004,1099.8134605000005,1100.5126512000006,1102.5108027000006,,,,,,,,,,,,,,,up,3.395712999999887,None,None,,,P118,001,2024-11-20_09h55.25.111,posner_endo_new1,2024.2.4,60.16941299928643,2024-11-20 09h55.31.483454 +0000,
0.005,0.31,26,26,0,down,0.14467549999972107,None,space,0.3692962000004627,None,,,,,,,,,0,26,26,26,1102.5273080000006,,,,,,,,,,,,1102.5110371,1102.5273080000006,1102.5273080000006,1102.6779547000006,,,,1102.6782561999999,1102.6938105,1102.6938105,1102.6938105,1102.9936119000004,,1103.0777588,,,,,,,,,,,,,,,down,0.14467549999972107,None,space,0.3692962000004627,None,P118,001,2024-11-20_09h55.25.111,posner_endo_new1,2024.2.4,60.16941299928643,2024-11-20 09h55.31.483454 +0000,
0.31,0.005,27,27,0,up,3.0185243000005357,None,space,0.4203449999995428,None,,,,,,,,,0,27,27,27,1103.0933980999998,,,,,,,,,,,,1103.0779668000005,1103.0933980999998,1103.0933980999998,1106.1246343000003,,,,1106.1249364000005,1106.1403133000003,1106.1403133000003,1106.1403133000003,1106.4397623000004,,1106.5740962,,,,,,,,,,,,,,,up,3.0185243000005357,None,space,0.4203449999995428,None,P118,001,2024-11-20_09h55.25.111,posner_endo_new1,2024.2.4,60.16941299928643,2024-11-20 09h55.31.483454 +0000,
0.005,0.31,28,28,0,down,2.161858800000118,None,space,0.35201390000020183,None,,,,,,,,,0,28,28,28,1106.5898070000003,,,,,,,,,,,,1106.5743131,1106.5898070000003,1106.5898070000003,1108.7553637,,,,1108.7556630999998,1108.7709376000003,1108.7709376000003,1108.7709376000003,1109.0705982999998,,1109.1380569000003,,,,,,,,,,,,,,,down,2.161858800000118,None,space,0.35201390000020183,None,P118,001,2024-11-20_09h55.25.111,posner_endo_new1,2024.2.4,60.16941299928643,2024-11-20 09h55.31.483454 +0000,
10,0.005,29,29,0,up,3.78158699999949,None,None,,,,,,,,,,,0,29,29,29,1109.1538504999999,,,,,,,,,,,,1109.1382653,1109.1538504999999,1109.1538504999999,1112.9509592000004,,,,1112.9512599,1112.9666293999999,1112.9666293999999,1112.9666293999999,1113.2663155,1113.9825738,1115.9636341000005,,,,,,,,,,,,,,,up,3.78158699999949,None,None,,,P118,001,2024-11-20_09h55.25.111,posner_endo_new1,2024.2.4,60.16941299928643,2024-11-20 09h55.31.483454 +0000,
0.005,-0.31,30,30,0,down,0.5074576000006346,None,space,0.41397460000007413,None,,,,,,,,,0,30,30,30,1115.9805056000005,,,,,,,,,,,,1115.9638346000002,1115.9805056000005,1115.9805056000005,1116.4972351000006,,,,1116.4975319000005,1116.5129906000002,1116.5129906000002,1116.5129906000002,1116.8127377,,1116.9302751000005,,,,,,,,,,,,,,,down,0.5074576000006346,None,space,0.41397460000007413,None,P118,001,2024-11-20_09h55.25.111,posner_endo_new1,2024.2.4,60.16941299928643,2024-11-20 09h55.31.483454 +0000,
0.31,0.005,31,31,0,up,3.5026169000002483,None,space,0.4705551999995805,None,,,,,,,,,0,31,31,31,1116.9458393000004,,,,,,,,,,,,1116.9304843999998,1116.9458393000004,1116.9458393000004,1120.4598523000004,,,,1120.4601563000006,1120.4756085999998,1120.4756085999998,1120.4756085999998,1120.7752756999998,,1120.9594432000004,,,,,,,,,,,,,,,up,3.5026169000002483,None,space,0.4705551999995805,None,P118,001,2024-11-20_09h55.25.111,posner_endo_new1,2024.2.4,60.16941299928643,2024-11-20 09h55.31.483454 +0000,
10,0.005,32,32,0,down,3.0579115999998976,None,None,,,,,,,,,,,0,32,32,32,1120.9750973999999,,,,,,,,,,,,1120.9596520000005,1120.9750973999999,1120.9750973999999,1124.0396411000002,,,,1124.0399409000001,1124.0552678000004,1124.0552678000004,1124.0552678000004,1124.3549391000006,1125.0543137000004,1127.0523417000004,,,,,,,,,,,,,,,down,3.0579115999998976,None,None,,,P118,001,2024-11-20_09h55.25.111,posner_endo_new1,2024.2.4,60.16941299928643,2024-11-20 09h55.31.483454 +0000,
-0.31,0.005,33,33,0,up,1.4763941999999588,None,space,0.4577997999995205,None,,,,,,,,,0,33,33,33,1127.0688584,,,,,,,,,,,,1127.052546,1127.0688584,1127.0688584,1128.5516805000007,,,,1128.5519765999998,1128.5672891000004,1128.5672891000004,1128.5672891000004,1128.8670438999998,,1129.034471,,,,,,,,,,,,,,,up,1.4763941999999588,None,space,0.4577997999995205,None,P118,001,2024-11-20_09h55.25.111,posner_endo_new1,2024.2.4,60.16941299928643,2024-11-20 09h55.31.483454 +0000,
10,0.005,34,34,0,down,3.646065599999929,None,None,,,,,,,,,,,0,34,34,34,1129.0501267999998,,,,,,,,,,,,1129.0346819000006,1129.0501267999998,1129.0501267999998,1132.6974986000005,,,,1132.6977943000002,1132.7131194000003,1132.7131194000003,1132.7131194000003,1133.0128019000003,1133.7121161000005,1135.7101164000005,,,,,,,,,,,,,,,down,3.646065599999929,None,None,,,P118,001,2024-11-20_09h55.25.111,posner_endo_new1,2024.2.4,60.16941299928643,2024-11-20 09h55.31.483454 +0000,
0.005,-0.31,35,35,0,up,0.4568380000000616,None,space,0.4359420000000682,None,,,,,,,,,0,35,35,35,1135.7266976,,,,,,,,,,,,1135.7103142000005,1135.7266976,1135.7266976,1136.1938141,,,,1136.1941109,1136.2095638,1136.2095638,1136.2095638,1136.5091925000006,,1136.6599683000004,,,,,,,,,,,,,,,up,0.4568380000000616,None,space,0.4359420000000682,None,P118,001,2024-11-20_09h55.25.111,posner_endo_new1,2024.2.4,60.16941299928643,2024-11-20 09h55.31.483454 +0000,
0.31,0.005,36,36,0,down,2.5078081999999995,None,space,0.4063806000003751,None,,,,,,,,,0,36,36,36,1136.6758497,,,,,,,,,,,,1136.6601772000004,1136.6758497,1136.6758497,1139.1906533000001,,,,1139.1909489,1139.2064695,1139.2064695,1139.2064695,1139.5061998,,1139.6237296,,,,,,,,,,,,,,,down,2.5078081999999995,None,space,0.4063806000003751,None,P118,001,2024-11-20_09h55.25.111,posner_endo_new1,2024.2.4,60.16941299928643,2024-11-20 09h55.31.483454 +0000,
10,0.005,37,37,0,up,3.8965391000001546,None,None,,,,,,,,,,,0,37,37,37,1139.6393339000006,,,,,,,,,,,,1139.6239394000004,1139.6393339000006,1139.6393339000006,1143.5528838,,,,1143.5531820000006,1143.5686322000001,1143.5686322000001,1143.5686322000001,1143.8684262000006,1144.5676225000007,1146.5657245000002,,,,,,,,,,,,,,,up,3.8965391000001546,None,None,,,P118,001,2024-11-20_09h55.25.111,posner_endo_new1,2024.2.4,60.16941299928643,2024-11-20 09h55.31.483454 +0000,
10,0.005,38,38,0,down,0.3538189999999304,None,None,,,,,,,,,,,0,38,38,38,1146.5822309000005,,,,,,,,,,,,1146.5659231,1146.5822309000005,1146.5822309000005,1146.9494534000005,,,,1146.9497551000004,1146.9652588,1146.9652588,1146.9652588,1147.2648274000003,1147.9811408000005,1149.9623190000002,,,,,,,,,,,,,,,down,0.3538189999999304,None,None,,,P118,001,2024-11-20_09h55.25.111,posner_endo_new1,2024.2.4,60.16941299928643,2024-11-20 09h55.31.483454 +0000,
-0.31,0.005,39,39,0,up,3.1410645999994813,None,space,0.42015379999975266,None,,,,,,,,,0,39,39,39,1149.9791124000003,,,,,,,,,,,,1149.9625185000004,1149.9791124000003,1149.9791124000003,1153.1265213000006,,,,1153.1268170000003,1153.1421693000002,1153.1421693000002,1153.1421693000002,1153.4418720000003,,1153.5760381999999,,,,,,,,,,,,,,,up,3.1410645999994813,None,space,0.42015379999975266,None,P118,001,2024-11-20_09h55.25.111,posner_endo_new1,2024.2.4,60.16941299928643,2024-11-20 09h55.31.483454 +0000,
0.005,-0.31,40,40,0,down,3.192559899999651,None,space,0.49397030000000086,None,,,,,,,,,0,40,40,40,1153.5917268000003,,,,,,,,,,,,1153.5762597000003,1153.5917268000003,1153.5917268000003,1156.7893795999998,,,,1156.7896756999999,1156.8050946000003,1156.8050946000003,1156.8050946000003,1157.1048246,,1157.3056692,,,,,,,,,,,,,,,down,3.192559899999651,None,space,0.49397030000000086,None,P118,001,2024-11-20_09h55.25.111,posner_endo_new1,2024.2.4,60.16941299928643,2024-11-20 09h55.31.483454 +0000,
0.005,-0.31,41,41,0,up,2.3588213000002725,None,space,0.40988039999956527,None,,,,,,,,,0,41,41,41,1157.3212721999998,,,,,,,,,,,,1157.3058780000001,1157.3212721999998,1157.3212721999998,1159.6863735000006,,,,1159.6866719,1159.7021135000005,1159.7021135000005,1159.7021135000005,1160.0018187000005,,1160.1192558000002,,,,,,,,,,,,,,,up,2.3588213000002725,None,space,0.40988039999956527,None,P118,001,2024-11-20_09h55.25.111,posner_endo_new1,2024.2.4,60.16941299928643,2024-11-20 09h55.31.483454 +0000,
10,0.005,42,42,0,down,2.585280100000091,None,None,,,,,,,,,,,0,42,42,42,1160.1349948000006,,,,,,,,,,,,1160.1194635000002,1160.1349948000006,1160.1349948000006,1162.7332505000004,,,,1162.7335543,1162.7490398999998,1162.7490398999998,1162.7490398999998,1163.0487952000003,1163.7480409,1165.7461246000003,,,,,,,,,,,,,,,down,2.585280100000091,None,None,,,P118,001,2024-11-20_09h55.25.111,posner_endo_new1,2024.2.4,60.16941299928643,2024-11-20 09h55.31.483454 +0000,
0.005,-0.31,43,43,0,up,1.9416451999995843,None,space,0.5408806000004915,None,,,,,,,,,0,43,43,43,1165.7626396000005,,,,,,,,,,,,1165.7463232,1165.7626396000005,1165.7626396000005,1167.7115639000003,,,,1167.7118631000003,1167.7272781000001,1167.7272781000001,1167.7272781000001,1168.0269900000003,,1168.2776771,,,,,,,,,,,,,,,up,1.9416451999995843,None,space,0.5408806000004915,None,P118,001,2024-11-20_09h55.25.111,posner_endo_new1,2024.2.4,60.16941299928643,2024-11-20 09h55.31.483454 +0000,
-0.31,0.005,44,44,0,down,2.4747481999993397,None,space,0.5221897999999783,None,,,,,,,,,0,44,44,44,1168.2934068000004,,,,,,,,,,,,1168.2778881000004,1168.2934068000004,1168.2934068000004,1170.7750397,,,,1170.7753420999998,1170.7908686,1170.7908686,1170.7908686,1171.0905209000002,,1171.3245711,,,,,,,,,,,,,,,down,2.4747481999993397,None,space,0.5221897999999783,None,P118,001,2024-11-20_09h55.25.111,posner_endo_new1,2024.2.4,60.16941299928643,2024-11-20 09h55.31.483454 +0000,
10,0.005,45,45,0,up,3.1876009999996313,None,None,,,,,,,,,,,0,45,45,45,1171.3402579000003,,,,,,,,,,,,1171.3247845000005,1171.3402579000003,1171.3402579000003,1174.5381495000001,,,,1174.5384541000003,1174.5536350000002,1174.5536350000002,1174.5536350000002,1174.8532992,1175.569176,1177.5507297000004,,,,,,,,,,,,,,,up,3.1876009999996313,None,None,,,P118,001,2024-11-20_09h55.25.111,posner_endo_new1,2024.2.4,60.16941299928643,2024-11-20 09h55.31.483454 +0000,
0.005,0.31,46,46,0,down,0.024853500000062922,None,space,0.44494620000023133,None,,,,,,,,,0,46,46,46,1177.5671581000006,,,,,,,,,,,,1177.5509255000006,1177.5671581000006,1177.5671581000006,1177.6014261,,,,1177.6017229999998,1177.6171175,1177.6171175,1177.6171175,1177.9168131000006,,1178.0677428999998,,,,,,,,,,,,,,,down,0.024853500000062922,None,space,0.44494620000023133,None,P118,001,2024-11-20_09h55.25.111,posner_endo_new1,2024.2.4,60.16941299928643,2024-11-20 09h55.31.483454 +0000,
0.005,-0.31,47,47,0,up,4.076670999999806,None,space,0.4354918999997608,None,,,,,,,,,0,47,47,47,1178.0833068000002,,,,,,,,,,,,1178.0679610000007,1178.0833068000002,1178.0833068000002,1182.1635451000002,,,,1182.163842,1182.1792196000006,1182.1792196000006,1182.1792196000006,1182.4789775999998,,1182.6296471000005,,,,,,,,,,,,,,,up,4.076670999999806,None,space,0.4354918999997608,None,P118,001,2024-11-20_09h55.25.111,posner_endo_new1,2024.2.4,60.16941299928643,2024-11-20 09h55.31.483454 +0000,
0.31,0.005,48,48,0,down,3.402440700000625,None,space,0.6565611000005447,None,,,,,,,,,0,48,48,48,1182.6453970000002,,,,,,,,,,,,1182.6298557,1182.6453970000002,1182.6453970000002,1186.0595002999999,,,,1186.0597999000001,1186.0751544000004,1186.0751544000004,1186.0751544000004,1186.3747871000005,,1186.7419067,,,,,,,,,,,,,,,down,3.402440700000625,None,space,0.6565611000005447,None,P118,001,2024-11-20_09h55.25.111,posner_endo_new1,2024.2.4,60.16941299928643,2024-11-20 09h55.31.483454 +0000,
-0.31,0.005,49,49,0,up,11.53083129999959,None,space,0.39774130000023433,None,,,,,,,,,0,49,49,49,1186.7577361000003,,,,,,,,,,,,1186.7421241000002,1186.7577361000003,1186.7577361000003,1198.2969512999998,,,,1198.2972533000002,1198.3125924000005,1198.3125924000005,1198.3125924000005,1198.6123318,,1198.7132714,,,,,,,,,,,,,,,up,11.53083129999959,None,space,0.39774130000023433,None,P118,001,2024-11-20_09h55.25.111,posner_endo_new1,2024.2.4,60.16941299928643,2024-11-20 09h55.31.483454 +0000,
0.005,0.31,50,50,0,down,3.039082299999791,None,space,0.44373819999964326,None,,,,,,,,,0,50,50,50,1198.7289722000005,,,,,,,,,,,,1198.7134798000006,1198.7289722000005,1198.7289722000005,1201.7768253000004,,,,1201.7771294000004,1201.7923666000006,1201.7923666000006,1201.7923666000006,1202.0921618000002,,1202.2429122000003,,,,,,,,,,,,,,,down,3.039082299999791,None,space,0.44373819999964326,None,P118,001,2024-11-20_09h55.25.111,posner_endo_new1,2024.2.4,60.16941299928643,2024-11-20 09h55.31.483454 +0000,
0.005,0.31,51,51,0,up,4.629581199999848,None,space,0.4407600000004095,None,,,,,,,,,0,51,51,51,1202.2586255000006,,,,,,,,,,,,1202.2431235000004,1202.2586255000006,1202.2586255000006,1206.9048678,,,,1206.9051687,1206.9205139000005,1206.9205139000005,1206.9205139000005,1207.2202629000003,,1207.3710197,,,,,,,,,,,,,,,up,4.629581199999848,None,space,0.4407600000004095,None,P118,001,2024-11-20_09h55.25.111,posner_endo_new1,2024.2.4,60.16941299928643,2024-11-20 09h55.31.483454 +0000,
10,0.005,52,52,0,down,3.077096199999687,None,None,,,,,,,,,,,0,52,52,52,1207.3866767999998,,,,,,,,,,,,1207.3712295000005,1207.3866767999998,1207.3866767999998,1210.4677903000002,,,,1210.4680859,1210.4836134000006,1210.4836134000006,1210.4836134000006,1210.7832896999998,1211.4992317000006,1213.4809095,,,,,,,,,,,,,,,down,3.077096199999687,None,None,,,P118,001,2024-11-20_09h55.25.111,posner_endo_new1,2024.2.4,60.16941299928643,2024-11-20 09h55.31.483454 +0000,
-0.31,0.005,53,53,0,up,1.67132649999985,None,space,0.5053140999998504,None,,,,,,,,,0,53,53,53,1213.4971629000001,,,,,,,,,,,,1213.4811134000001,1213.4971629000001,1213.4971629000001,1215.1796812000002,,,,1215.1799791000003,1215.1954882999999,1215.1954882999999,1215.1954882999999,1215.495003,,1215.7125061000006,,,,,,,,,,,,,,,up,1.67132649999985,None,space,0.5053140999998504,None,P118,001,2024-11-20_09h55.25.111,posner_endo_new1,2024.2.4,60.16941299928643,2024-11-20 09h55.31.483454 +0000,
10,0.005,54,54,0,down,3.4317756000000372,None,None,,,,,,,,,,,0,54,54,54,1215.7281391000006,,,,,,,,,,,,1215.7127207000003,1215.7281391000006,1215.7281391000006,1219.1755555,,,,1219.1758533000002,1219.1912468,1219.1912468,1219.1912468,1219.4909740000003,1220.1902971,1222.1883099000006,,,,,,,,,,,,,,,down,3.4317756000000372,None,None,,,P118,001,2024-11-20_09h55.25.111,posner_endo_new1,2024.2.4,60.16941299928643,2024-11-20 09h55.31.483454 +0000,
0.005,0.31,55,55,0,up,1.4593316999998933,None,space,0.3437919999996666,None,,,,,,,,,0,55,55,55,1222.2048593999998,,,,,,,,,,,,1222.1885075,1222.2048593999998,1222.2048593999998,1223.6710438999999,,,,1223.6713441000002,1223.6866932000003,1223.6866932000003,1223.6866932000003,1223.9862219000006,,1224.0374350000002,,,,,,,,,,,,,,,up,1.4593316999998933,None,space,0.3437919999996666,None,P118,001,2024-11-20_09h55.25.111,posner_endo_new1,2024.2.4,60.16941299928643,2024-11-20 09h55.31.483454 +0000,
0.005,-0.31,56,56,0,down,3.323879200000192,None,space,0.470470899999782,None,,,,,,,,,0,56,56,56,1224.0530058000004,,,,,,,,,,,,1224.0376510000006,1224.0530058000004,1224.0530058000004,1227.3837346999999,,,,1227.3839736999998,1227.3993007,1227.3993007,1227.3993007,1227.6994206999998,,1227.8832137999998,,,,,,,,,,,,,,,down,3.323879200000192,None,space,0.470470899999782,None,P118,001,2024-11-20_09h55.25.111,posner_endo_new1,2024.2.4,60.16941299928643,2024-11-20 09h55.31.483454 +0000,
0.005,0.31,57,57,0,up,3.349627900000087,None,space,0.40017810000063037,None,,,,,,,,,0,57,57,57,1227.8990113,,,,,,,,,,,,1227.8833753,1227.8990113,1227.8990113,1231.2629661,,,,1231.2632009999998,1231.2789958000003,1231.2789958000003,1231.2789958000003,1231.5782994,,1231.69596,,,,,,,,,,,,,,,up,3.349627900000087,None,space,0.40017810000063037,None,P118,001,2024-11-20_09h55.25.111,posner_endo_new1,2024.2.4,60.16941299928643,2024-11-20 09h55.31.483454 +0000,
-0.31,0.005,58,58,0,down,3.5847893000000113,None,space,0.3699784999998883,None,,,,,,,,,0,58,58,58,1231.7116568000001,,,,,,,,,,,,1231.6961221000001,1231.7116568000001,1231.7116568000001,1235.3089148,,,,1235.3091507,1235.3249821,1235.3249821,1235.3249821,1235.6243745000002,,1235.7084705000007,,,,,,,,,,,,,,,down,3.5847893000000113,None,space,0.3699784999998883,None,P118,001,2024-11-20_09h55.25.111,posner_endo_new1,2024.2.4,60.16941299928643,2024-11-20 09h55.31.483454 +0000,
-0.31,0.005,59,59,0,up,3.1792931999998473,None,space,0.3574450000005527,None,,,,,,,,,0,59,59,59,1235.7243722000003,,,,,,,,,,,,1235.7086359000004,1235.7243722000003,1235.7243722000003,1238.9052139000005,,,,1238.9054575,1238.9212754,1238.9212754,1238.9212754,1239.2208551000003,,1239.2881711999999,,,,,,,,,,,,,,,up,3.1792931999998473,None,space,0.3574450000005527,None,P118,001,2024-11-20_09h55.25.111,posner_endo_new1,2024.2.4,60.16941299928643,2024-11-20 09h55.31.483454 +0000,
