target_y,target_x,thisN,thisTrialN,thisRepN,key_control2.keys,key_control2.rt,key_control2.duration,key_resp.keys,key_resp.rt,key_resp.duration,practice.thisRepN,practice.thisTrialN,practice.thisN,practice.thisIndex,session_1.thisRepN,session_1.thisTrialN,session_1.thisN,session_1.thisIndex,session_2.thisRepN,session_2.thisTrialN,session_2.thisN,session_2.thisIndex,thisRow.t,notes,instructions.started,instructions_txt.started,key_control.started,instructions.stopped,key_control.keys,key_control.rt,key_control.duration,ready.started,ready_txt.started,ready.stopped,fix.started,key_control2.started,fixation_cross.started,fix.stopped,practice.key_control2.keys,practice.key_control2.rt,practice.key_control2.duration,target.started,star.started,fixation_cross_target.started,key_resp.started,star.stopped,target.stopped,practice.key_resp.keys,practice.key_resp.rt,practice.key_resp.duration,key_resp.stopped,session_1.key_control2.keys,session_1.key_control2.rt,session_1.key_control2.duration,session_1.key_resp.keys,session_1.key_resp.rt,session_1.key_resp.duration,break_2.started,text.started,key_control3.started,break_2.stopped,key_control3.keys,session_2.key_control2.keys,session_2.key_control2.rt,session_2.key_control2.duration,session_2.key_resp.keys,session_2.key_resp.rt,session_2.key_resp.duration,participant,session,date,expName,psychopyVersion,frameRate,expStart,
,,,,,,,,,,,,,,,,,,,,,,,,,0.008212900000216905,0.028826600000684266,0.028826600000684266,467.640979400001,up,467.60243400000036,None,,,,,,,,,,,,,,,,,,,,,,,,,,,,,,,,,,,,,,P119,001,2024-11-20_11h02.28.842,posner_endo_new1,2024.2.4,60.044084366681226,2024-11-20 11h02.35.758416 +0000,
,,,,,,,,,,,,,,,,,,,,,,,,,,,,,,,,467.6410477999998,467.6529085000002,470.6496609000005,,,,,,,,,,,,,,,,,,,,,,,,,,,,,,,,,,,P119,001,2024-11-20_11h02.28.842,posner_endo_new1,2024.2.4,60.044084366681226,2024-11-20 11h02.35.758416 +0000,
0.005,0.31,0,0,0,up,9.0731923000003,None,space,0.580194099999062,None,0,0,0,6,,,,,,,,,470.66945959999975,,,,,,,,,,,,470.65994350000074,470.66945959999975,470.66945959999975,479.7579089999999,up,9.0731923000003,None,479.75825760000043,479.77346860000034,479.77346860000034,479.77346860000034,480.0731312000007,480.3573862000012,space,0.580194099999062,None,,,,,,,,,,,,,,,,,,,P119,001,2024-11-20_11h02.28.842,posner_endo_new1,2024.2.4,60.044084366681226,2024-11-20 11h02.35.758416 +0000,
0.005,-0.31,1,1,0,down,2.586078299998917,None,space,0.38233170000057726,None,0,1,1,7,,,,,,,,,480.37263019999955,,,,,,,,,,,,480.3576028000007,480.37263019999955,480.37263019999955,482.97117790000084,down,2.586078299998917,None,482.9714882999997,482.9868961000011,482.9868961000011,482.9868961000011,483.28657340000063,483.3710604000007,space,0.38233170000057726,None,,,,,,,,,,,,,,,,,,,P119,001,2024-11-20_11h02.28.842,posner_endo_new1,2024.2.4,60.044084366681226,2024-11-20 11h02.35.758416 +0000,
-0.31,0.005,2,2,0,up,2.9728460000005725,None,space,0.3768165000001318,None,0,2,2,2,,,,,,,,,483.3865033000002,,,,,,,,,,,,483.371274000001,483.3865033000002,483.3865033000002,486.3676507,up,2.9728460000005725,None,486.3679609999999,486.3836568000006,486.3836568000006,486.3836568000006,486.68314590000045,486.7673917000011,space,0.3768165000001318,None,,,,,,,,,,,,,,,,,,,P119,001,2024-11-20_11h02.28.842,posner_endo_new1,2024.2.4,60.044084366681226,2024-11-20 11h02.35.758416 +0000,
0.31,0.005,3,3,0,down,2.3116862999995647,None,space,0.5939796000002389,None,0,3,3,3,,,,,,,,,486.7829679999995,,,,,,,,,,,,486.7676035000004,486.7829679999995,486.7829679999995,489.0984669999998,down,2.3116862999995647,None,489.0987918999999,489.11398910000025,489.11398910000025,489.11398910000025,489.41363079999974,489.71438040000066,space,0.5939796000002389,None,,,,,,,,,,,,,,,,,,,P119,001,2024-11-20_11h02.28.842,posner_endo_new1,2024.2.4,60.044084366681226,2024-11-20 11h02.35.758416 +0000,
0.005,10,4,4,0,up,4.092629199998555,None,None,,,0,4,4,9,,,,,,,,,489.73015040000064,,,,,,,,,,,,489.71459010000035,489.73015040000064,489.73015040000064,493.82715129999997,up,4.092629199998555,None,493.8274627999999,493.8424487000011,493.8424487000011,493.8424487000011,494.14200660000097,496.83960540000044,None,,,494.8580726,,,,,,,,,,,,,,,,,,P119,001,2024-11-20_11h02.28.842,posner_endo_new1,2024.2.4,60.044084366681226,2024-11-20 11h02.35.758416 +0000,
-0.31,0.005,5,5,0,down,0.1183141000001342,None,space,0.4698518999994121,None,0,5,5,0,,,,,,,,,496.85602480000125,,,,,,,,,,,,496.8397992000009,496.85602480000125,496.85602480000125,496.9902720000009,down,0.1183141000001342,None,496.9905854000008,497.005946700001,497.005946700001,497.005946700001,497.3058207000013,497.48975790000077,space,0.4698518999994121,None,,,,,,,,,,,,,,,,,,,P119,001,2024-11-20_11h02.28.842,posner_endo_new1,2024.2.4,60.044084366681226,2024-11-20 11h02.35.758416 +0000,
10,0.005,6,6,0,up,3.381484100000307,None,None,,,0,6,6,4,,,,,,,,,497.5054056000008,,,,,,,,,,,,497.48996160000024,497.5054056000008,497.5054056000008,500.90303380000114,up,3.381484100000307,None,500.9033528,500.9185139000001,500.9185139000001,500.9185139000001,501.21834239999953,503.91570310000134,None,,,501.91743250000036,,,,,,,,,,,,,,,,,,P119,001,2024-11-20_11h02.28.842,posner_endo_new1,2024.2.4,60.044084366681226,2024-11-20 11h02.35.758416 +0000,
0.005,-0.31,7,7,0,down,0.6191174999985378,None,space,0.30715740000050573,None,0,7,7,5,,,,,,,,,503.93221620000077,,,,,,,,,,,,503.9158602000007,503.93221620000077,503.93221620000077,504.5658209000012,down,0.6191174999985378,None,504.56607319999966,504.58162269999957,504.58162269999957,504.58162269999957,504.88098530000025,504.8986120999998,space,0.30715740000050573,None,,,,,,,,,,,,,,,,,,,P119,001,2024-11-20_11h02.28.842,posner_endo_new1,2024.2.4,60.044084366681226,2024-11-20 11h02.35.758416 +0000,
0.31,0.005,8,8,0,up,4.516680799999449,None,space,0.39194379999935336,None,0,8,8,1,,,,,,,,,504.91448310000123,,,,,,,,,,,,504.89876970000114,504.91448310000123,504.91448310000123,509.44395840000107,up,4.516680799999449,None,509.44420809999974,509.45979960000113,509.45979960000113,509.45979960000113,509.7594165999999,509.859986200001,space,0.39194379999935336,None,,,,,,,,,,,,,,,,,,,P119,001,2024-11-20_11h02.28.842,posner_endo_new1,2024.2.4,60.044084366681226,2024-11-20 11h02.35.758416 +0000,
0.005,0.31,9,9,0,down,2.378914999999324,None,space,0.36147239999991143,None,0,9,9,8,,,,,,,,,509.8761097000006,,,,,,,,,,,,509.86015190000035,509.8761097000006,509.8761097000006,512.2577051999997,down,2.378914999999324,None,512.257963600001,512.2736511000003,512.2736511000003,512.2736511000003,512.5732091999998,512.6408072000013,space,0.36147239999991143,None,,,,,,,,,,,,,,,,,,,P119,001,2024-11-20_11h02.28.842,posner_endo_new1,2024.2.4,60.044084366681226,2024-11-20 11h02.35.758416 +0000,
,,,,,,,,,,,,,,,,,,,,,,,,,,,,,,,,512.6409168000009,512.6566784000006,515.6536339000013,,,,,,,,,,,,,,,,,,,,,,,,,,,,,,,,,,,P119,001,2024-11-20_11h02.28.842,posner_endo_new1,2024.2.4,60.044084366681226,2024-11-20 11h02.35.758416 +0000,
-0.31,0.005,0,0,0,up,15.302748399999473,None,space,0.3900472000004811,None,,,,,0,0,0,0,,,,,515.6722515000001,,,,,,,,,,,,515.6618068000007,515.6722515000001,515.6722515000001,530.9885086000013,,,,530.9887684000005,531.0044655000002,531.0044655000002,531.0044655000002,531.3040328999996,531.4047152000003,,,,,up,15.302748399999473,None,space,0.3900472000004811,None,,,,,,,,,,,,P119,001,2024-11-20_11h02.28.842,posner_endo_new1,2024.2.4,60.044084366681226,2024-11-20 11h02.35.758416 +0000,
0.005,0.31,1,1,0,down,2.842677199998434,None,space,0.4399309999989782,None,,,,,0,1,1,1,,,,,531.4206885000003,,,,,,,,,,,,531.4048816000013,531.4206885000003,531.4206885000003,534.2685368000002,,,,534.2687893000002,534.2844337999995,534.2844337999995,534.2844337999995,534.5841512999996,534.7346576,,,,,down,2.842677199998434,None,space,0.4399309999989782,None,,,,,,,,,,,,P119,001,2024-11-20_11h02.28.842,posner_endo_new1,2024.2.4,60.044084366681226,2024-11-20 11h02.35.758416 +0000,
0.31,0.005,2,2,0,up,3.752287499999511,None,space,0.38449910000053933,None,,,,,0,2,2,2,,,,,534.7507234000004,,,,,,,,,,,,534.7348235000009,534.7507234000004,534.7507234000004,538.5142597000013,,,,538.5145129000011,538.5301369000008,538.5301369000008,538.5301369000008,538.8297576000004,538.9305339000002,,,,,up,3.752287499999511,None,space,0.38449910000053933,None,,,,,,,,,,,,P119,001,2024-11-20_11h02.28.842,posner_endo_new1,2024.2.4,60.044084366681226,2024-11-20 11h02.35.758416 +0000,
0.31,0.005,3,3,0,down,2.9007209000010334,None,space,0.3232047999990755,None,,,,,0,3,3,3,,,,,538.9463930000002,,,,,,,,,,,,538.9306988999997,538.9463930000002,538.9463930000002,541.8607134000013,,,,541.8609673999999,541.876652500001,541.876652500001,541.876652500001,542.1764789000008,542.2104027000005,,,,,down,2.9007209000010334,None,space,0.3232047999990755,None,,,,,,,,,,,,P119,001,2024-11-20_11h02.28.842,posner_endo_new1,2024.2.4,60.044084366681226,2024-11-20 11h02.35.758416 +0000,
-0.31,0.005,4,4,0,up,3.212405199999921,None,space,0.8195249000000331,None,,,,,0,4,4,4,,,,,542.2265815999999,,,,,,,,,,,,542.2105690000008,542.2265815999999,542.2265815999999,545.4416383000007,,,,545.4422331000005,545.456102600001,545.456102600001,545.456102600001,545.7558255000004,546.2904347000003,,,,,up,3.212405199999921,None,space,0.8195249000000331,None,,,,,,,,,,,,P119,001,2024-11-20_11h02.28.842,posner_endo_new1,2024.2.4,60.044084366681226,2024-11-20 11h02.35.758416 +0000,
0.005,-0.31,5,5,0,down,1.9893457999987731,None,space,0.3425007999994705,None,,,,,0,5,5,5,,,,,546.3052243000002,,,,,,,,,,,,546.2908619999998,546.3052243000002,546.3052243000002,548.3045093000001,,,,548.3049043999999,548.3200307000006,548.3200307000006,548.3200307000006,548.6196818000008,548.6709561999996,,,,,down,1.9893457999987731,None,space,0.3425007999994705,None,,,,,,,,,,,,P119,001,2024-11-20_11h02.28.842,posner_endo_new1,2024.2.4,60.044084366681226,2024-11-20 11h02.35.758416 +0000,
0.005,-0.31,6,6,0,up,2.9769609999984823,None,space,0.36086450000038894,None,,,,,0,6,6,6,,,,,548.6863221000003,,,,,,,,,,,,548.6712275000009,548.6863221000003,548.6863221000003,551.6678499000009,,,,551.6682633,551.6832492000012,551.6832492000012,551.6832492000012,551.9829284000007,552.0508102000003,,,,,up,2.9769609999984823,None,space,0.36086450000038894,None,,,,,,,,,,,,P119,001,2024-11-20_11h02.28.842,posner_endo_new1,2024.2.4,60.044084366681226,2024-11-20 11h02.35.758416 +0000,
10,0.005,7,7,0,down,2.285062500001004,None,None,,,,,,,0,7,7,7,,,,,552.0662436000002,,,,,,,,,,,,552.0511016,552.0662436000002,552.0662436000002,554.3651499999996,,,,554.3655577000009,554.3805408999997,554.3805408999997,554.3805408999997,554.6801087000003,557.3774740999997,,,,555.3960418999995,down,2.285062500001004,None,None,,,,,,,,,,,,,,P119,001,2024-11-20_11h02.28.842,posner_endo_new1,2024.2.4,60.044084366681226,2024-11-20 11h02.35.758416 +0000,
-0.31,0.005,8,8,0,up,0.9006195000001753,None,space,0.27610939999976836,None,,,,,0,8,8,8,,,,,557.3941051000002,,,,,,,,,,,,557.3777323000013,557.3941051000002,557.3941051000002,558.3110226999997,,,,558.3114148000004,558.3264206000003,558.3264206000003,558.3264206000003,558.6261644000006,558.6107193999997,,,,,up,0.9006195000001753,None,space,0.27610939999976836,None,,,,,,,,,,,,P119,001,2024-11-20_11h02.28.842,posner_endo_new1,2024.2.4,60.044084366681226,2024-11-20 11h02.35.758416 +0000,
0.005,0.31,9,9,0,down,2.4285301999989315,None,space,0.33475470000121277,None,,,,,0,9,9,9,,,,,558.6261644000006,,,,,,,,,,,,558.6109940000006,558.6261644000006,558.6261644000006,561.0581914000013,,,,561.0586080000012,561.0737468000007,561.0737468000007,561.0737468000007,561.3733864000005,561.4241918999996,,,,,down,2.4285301999989315,None,space,0.33475470000121277,None,,,,,,,,,,,,P119,001,2024-11-20_11h02.28.842,posner_endo_new1,2024.2.4,60.044084366681226,2024-11-20 11h02.35.758416 +0000,
0.005,-0.31,10,10,0,up,3.0706430000009277,None,space,0.31604329999936454,None,,,,,0,10,10,10,,,,,561.440036,,,,,,,,,,,,561.4243755000007,561.440036,561.440036,564.5209489000008,,,,564.5212312000003,564.536922700001,564.536922700001,564.536922700001,564.836600300001,564.8540766000006,,,,,up,3.0706430000009277,None,space,0.31604329999936454,None,,,,,,,,,,,,P119,001,2024-11-20_11h02.28.842,posner_endo_new1,2024.2.4,60.044084366681226,2024-11-20 11h02.35.758416 +0000,
0.005,0.31,11,11,0,down,2.3224215999998705,None,space,0.2797105999998166,None,,,,,0,11,11,11,,,,,564.8697969000004,,,,,,,,,,,,564.8542611000012,564.8697969000004,564.8697969000004,567.2016044000011,,,,567.2018859,567.2174814000009,567.2174814000009,567.2174814000009,567.5170180000005,567.5015136000002,,,,,down,2.3224215999998705,None,space,0.2797105999998166,None,,,,,,,,,,,,P119,001,2024-11-20_11h02.28.842,posner_endo_new1,2024.2.4,60.044084366681226,2024-11-20 11h02.35.758416 +0000,
10,0.005,12,12,0,up,3.105570699999589,None,None,,,,,,,0,12,12,12,,,,,567.5170180000005,,,,,,,,,,,,567.5017067000008,567.5170180000005,567.5170180000005,570.6313109000002,,,,570.6316041000009,570.6471302999998,570.6471302999998,570.6471302999998,570.9468887000003,573.644162300001,,,,571.6626278000003,up,3.105570699999589,None,None,,,,,,,,,,,,,,P119,001,2024-11-20_11h02.28.842,posner_endo_new1,2024.2.4,60.044084366681226,2024-11-20 11h02.35.758416 +0000,
0.31,0.005,13,13,0,down,0.5385306000007404,None,space,0.33194990000083635,None,,,,,0,13,13,13,,,,,573.6607330999996,,,,,,,,,,,,573.6443442,573.6607330999996,573.6607330999996,574.2108332000007,,,,574.2111139000008,574.2268440000007,574.2268440000007,574.2268440000007,574.5266475999997,574.5609338000013,,,,,down,0.5385306000007404,None,space,0.33194990000083635,None,,,,,,,,,,,,P119,001,2024-11-20_11h02.28.842,posner_endo_new1,2024.2.4,60.044084366681226,2024-11-20 11h02.35.758416 +0000,
10,0.005,14,14,0,up,2.949945700000171,None,None,,,,,,,0,14,14,14,,,,,574.5765693000012,,,,,,,,,,,,574.5611246999997,574.5765693000012,574.5765693000012,577.5410664999999,,,,577.541347800001,577.5569651000005,577.5569651000005,577.5569651000005,577.8565104000008,580.5538694000006,,,,578.5724879999998,up,2.949945700000171,None,None,,,,,,,,,,,,,,P119,001,2024-11-20_11h02.28.842,posner_endo_new1,2024.2.4,60.044084366681226,2024-11-20 11h02.35.758416 +0000,
-0.31,0.005,15,15,0,up,3.3240635999991355,None,space,0.35892410000087693,None,,,,,0,15,15,15,,,,,580.5703393000003,,,,,,,,,,,,580.5540615000009,580.5703393000003,580.5703393000003,583.9011052000005,,,,583.9013986999998,583.9169294000003,583.9169294000003,583.9169294000003,584.2165287999997,584.284222100001,,,,,up,3.3240635999991355,None,space,0.35892410000087693,None,,,,,,,,,,,,P119,001,2024-11-20_11h02.28.842,posner_endo_new1,2024.2.4,60.044084366681226,2024-11-20 11h02.35.758416 +0000,
0.005,-0.31,16,16,0,down,2.3066678999985015,None,space,0.3371981999989657,None,,,,,0,16,16,16,,,,,584.2998841000008,,,,,,,,,,,,584.2844079999995,584.2998841000008,584.2998841000008,586.615211100001,,,,586.6155225000002,586.6308072000011,586.6308072000011,586.6308072000011,586.9307227999998,586.9813740999998,,,,,down,2.3066678999985015,None,space,0.3371981999989657,None,,,,,,,,,,,,P119,001,2024-11-20_11h02.28.842,posner_endo_new1,2024.2.4,60.044084366681226,2024-11-20 11h02.35.758416 +0000,
0.005,0.31,17,17,0,up,4.089858399998775,None,space,0.3164376999993692,None,,,,,0,17,17,17,,,,,586.9970795000008,,,,,,,,,,,,586.9815646999996,586.9970795000008,586.9970795000008,591.0937843000011,,,,591.0940807999996,591.1096539000009,591.1096539000009,591.1096539000009,591.4093021000008,591.4270340000003,,,,,up,4.089858399998775,None,space,0.3164376999993692,None,,,,,,,,,,,,P119,001,2024-11-20_11h02.28.842,posner_endo_new1,2024.2.4,60.044084366681226,2024-11-20 11h02.35.758416 +0000,
-0.31,0.005,18,18,0,down,2.1240835999997216,None,space,0.3255631000010908,None,,,,,0,18,18,18,,,,,591.4424536000006,,,,,,,,,,,,591.4272275000003,591.4424536000006,591.4424536000006,593.5748636000008,,,,593.575144800001,593.5904036000011,593.5904036000011,593.5904036000011,593.8901372,593.9242473000013,,,,,down,2.1240835999997216,None,space,0.3255631000010908,None,,,,,,,,,,,,P119,001,2024-11-20_11h02.28.842,posner_endo_new1,2024.2.4,60.044084366681226,2024-11-20 11h02.35.758416 +0000,
10,0.005,19,19,0,up,3.4749593999986246,None,None,,,,,,,0,19,19,19,,,,,593.9399627000003,,,,,,,,,,,,593.9244362999998,593.9399627000003,593.9399627000003,597.4208811000008,,,,597.4211630999998,597.4363481,597.4363481,597.4363481,597.7361803000003,600.4335833000005,,,,598.4353955999995,up,3.4749593999986246,None,None,,,,,,,,,,,,,,P119,001,2024-11-20_11h02.28.842,posner_endo_new1,2024.2.4,60.044084366681226,2024-11-20 11h02.35.758416 +0000,
0.005,0.31,20,20,0,up,5.036448000000746,None,space,0.36743229999956384,None,,,,,0,20,20,20,,,,,600.4500230000012,,,,,,,,,,,,600.4337788000012,600.4500230000012,600.4500230000012,605.495810800001,,,,605.496093400001,605.5115383000011,605.5115383000011,605.5115383000011,605.8110608999996,605.8953012000002,,,,,up,5.036448000000746,None,space,0.36743229999956384,None,,,,,,,,,,,,P119,001,2024-11-20_11h02.28.842,posner_endo_new1,2024.2.4,60.044084366681226,2024-11-20 11h02.35.758416 +0000,
0.005,-0.31,21,21,0,down,2.2791484000008495,None,space,0.3663192000003619,None,,,,,0,21,21,21,,,,,605.9112359999999,,,,,,,,,,,,605.8954964000004,605.9112359999999,605.9112359999999,608.1930984999999,,,,608.1933824000007,608.208980200001,608.208980200001,608.208980200001,608.5085990000007,608.5761828000013,,,,,down,2.2791484000008495,None,space,0.3663192000003619,None,,,,,,,,,,,,P119,001,2024-11-20_11h02.28.842,posner_endo_new1,2024.2.4,60.044084366681226,2024-11-20 11h02.35.758416 +0000,
0.005,0.31,22,22,0,up,3.3995281999996223,None,space,0.3457819000013842,None,,,,,0,22,22,22,,,,,608.5917706,,,,,,,,,,,,608.5763774000006,608.5917706,608.5917706,612.0056746000009,,,,612.0059548999998,612.0216397000004,612.0216397000004,612.0216397000004,612.3212308000002,612.372376700001,,,,,up,3.3995281999996223,None,space,0.3457819000013842,None,,,,,,,,,,,,P119,001,2024-11-20_11h02.28.842,posner_endo_new1,2024.2.4,60.044084366681226,2024-11-20 11h02.35.758416 +0000,
0.31,0.005,23,23,0,down,2.0760866000000533,None,space,0.3798787000014272,None,,,,,0,23,23,23,,,,,612.3878624000008,,,,,,,,,,,,612.3725814999998,612.3878624000008,612.3878624000008,614.4699379000012,,,,614.4702333000005,614.4857196000012,614.4857196000012,614.4857196000012,614.7854822000008,614.8697193999997,,,,,down,2.0760866000000533,None,space,0.3798787000014272,None,,,,,,,,,,,,P119,001,2024-11-20_11h02.28.842,posner_endo_new1,2024.2.4,60.044084366681226,2024-11-20 11h02.35.758416 +0000,
0.005,0.31,24,24,0,up,3.417860400000791,None,space,0.29305399999975634,None,,,,,0,24,24,24,,,,,614.8852868000013,,,,,,,,,,,,614.8699049999996,614.8852868000013,614.8852868000013,618.3161147999999,,,,618.3164099000005,618.3317786999996,618.3317786999996,618.3317786999996,618.6313343000002,618.6322600000003,,,,,up,3.417860400000791,None,space,0.29305399999975634,None,,,,,,,,,,,,P119,001,2024-11-20_11h02.28.842,posner_endo_new1,2024.2.4,60.044084366681226,2024-11-20 11h02.35.758416 +0000,
0.31,0.005,25,25,0,down,1.8944857000005868,None,space,0.32669239999995625,None,,,,,0,25,25,25,,,,,618.6482519000001,,,,,,,,,,,,618.6324442000005,618.6482519000001,618.6482519000001,620.5470342000008,,,,620.5473155,620.5628324999998,620.5628324999998,620.5628324999998,620.8624583000001,620.8968645000004,,,,,down,1.8944857000005868,None,space,0.32669239999995625,None,,,,,,,,,,,,P119,001,2024-11-20_11h02.28.842,posner_endo_new1,2024.2.4,60.044084366681226,2024-11-20 11h02.35.758416 +0000,
10,0.005,26,26,0,up,2.991197400000601,None,None,,,,,,,0,26,26,26,,,,,620.9124979999997,,,,,,,,,,,,620.8970526000012,620.9124979999997,620.9124979999997,623.9104478999998,,,,623.9107545999996,623.9259810000003,623.9259810000003,623.9259810000003,624.2259135000004,626.9231243000013,,,,624.9252229000012,up,2.991197400000601,None,None,,,,,,,,,,,,,,P119,001,2024-11-20_11h02.28.842,posner_endo_new1,2024.2.4,60.044084366681226,2024-11-20 11h02.35.758416 +0000,
10,0.005,27,27,0,down,0.07515130000138015,None,None,,,,,,,0,27,27,27,,,,,626.9396508000009,,,,,,,,,,,,626.9233203000003,626.9396508000009,626.9396508000009,627.0239691999996,,,,627.0242595,627.0394782000003,627.0394782000003,627.0394782000003,627.3391685999995,630.0366403999997,,,,628.0553538000004,down,0.07515130000138015,None,None,,,,,,,,,,,,,,P119,001,2024-11-20_11h02.28.842,posner_endo_new1,2024.2.4,60.044084366681226,2024-11-20 11h02.35.758416 +0000,
0.005,-0.31,28,28,0,up,1.9053777999997692,None,space,0.36989730000095733,None,,,,,0,28,28,28,,,,,630.0531219000004,,,,,,,,,,,,630.0368291000013,630.0531219000004,630.0531219000004,631.9687923000001,,,,631.9690701,631.9845518000002,631.9845518000002,631.9845518000002,632.2841361999999,632.3682929000006,,,,,up,1.9053777999997692,None,space,0.36989730000095733,None,,,,,,,,,,,,P119,001,2024-11-20_11h02.28.842,posner_endo_new1,2024.2.4,60.044084366681226,2024-11-20 11h02.35.758416 +0000,
0.31,0.005,29,29,0,down,2.086242900000798,None,space,0.566133100001025,None,,,,,0,29,29,29,,,,,632.3841873000001,,,,,,,,,,,,632.3684879000011,632.3841873000001,632.3841873000001,634.4826830000002,,,,634.4829637000003,634.4984605999998,634.4984605999998,634.4984605999998,634.7982764000008,635.0657862999997,,,,,down,2.086242900000798,None,space,0.566133100001025,None,,,,,,,,,,,,P119,001,2024-11-20_11h02.28.842,posner_endo_new1,2024.2.4,60.044084366681226,2024-11-20 11h02.35.758416 +0000,
10,0.005,30,30,0,up,2.4939197000003333,None,None,,,,,,,0,30,30,30,,,,,635.0813337,,,,,,,,,,,,635.0659813000002,635.0813337,635.0813337,637.5796170000012,,,,637.5799079999997,637.5953105000008,637.5953105000008,637.5953105000008,637.8951495000001,640.5923210000001,,,,638.5945889000013,up,2.4939197000003333,None,None,,,,,,,,,,,,,,P119,001,2024-11-20_11h02.28.842,posner_endo_new1,2024.2.4,60.044084366681226,2024-11-20 11h02.35.758416 +0000,
0.31,0.005,31,31,0,down,0.22191259999999602,None,space,0.5580781999997271,None,,,,,0,31,31,31,,,,,640.6088016000012,,,,,,,,,,,,640.5927157000006,640.6088016000012,640.6088016000012,640.8436856000008,,,,640.8442543000001,640.8585308000002,640.8585308000002,640.8585308000002,641.1582235000005,641.4265644000006,,,,,down,0.22191259999999602,None,space,0.5580781999997271,None,,,,,,,,,,,,P119,001,2024-11-20_11h02.28.842,posner_endo_new1,2024.2.4,60.044084366681226,2024-11-20 11h02.35.758416 +0000,
0.31,0.005,32,32,0,up,2.5092925999997533,None,space,0.303298700000596,None,,,,,0,32,32,32,,,,,641.4412284999999,,,,,,,,,,,,641.4269703000009,641.4412284999999,641.4412284999999,643.9569131000007,,,,643.957296300001,643.9721953000007,643.9721953000007,643.9721953000007,644.2719772,644.2898455000013,,,,,up,2.5092925999997533,None,space,0.303298700000596,None,,,,,,,,,,,,P119,001,2024-11-20_11h02.28.842,posner_endo_new1,2024.2.4,60.044084366681226,2024-11-20 11h02.35.758416 +0000,
10,0.005,33,33,0,down,2.2859367999990354,None,None,,,,,,,0,33,33,33,,,,,644.305149400001,,,,,,,,,,,,644.2901056999999,644.305149400001,644.305149400001,646.6039774000001,,,,646.6043682,646.6195392999998,646.6195392999998,646.6195392999998,646.9193482999999,649.6166317999996,,,,647.6349972000007,down,2.2859367999990354,None,None,,,,,,,,,,,,,,P119,001,2024-11-20_11h02.28.842,posner_endo_new1,2024.2.4,60.044084366681226,2024-11-20 11h02.35.758416 +0000,
0.005,-0.31,34,34,0,up,0.9418780999985756,None,space,0.341584600000715,None,,,,,0,34,34,34,,,,,649.6330498999996,,,,,,,,,,,,649.6168782000004,649.6330498999996,649.6330498999996,650.5835066,,,,650.5838820999998,650.598750000001,650.598750000001,650.598750000001,650.8986000000004,650.9497580999996,,,,,up,0.9418780999985756,None,space,0.341584600000715,None,,,,,,,,,,,,P119,001,2024-11-20_11h02.28.842,posner_endo_new1,2024.2.4,60.044084366681226,2024-11-20 11h02.35.758416 +0000,
-0.31,0.005,35,35,0,down,1.8977401000011014,None,space,0.34903139999914856,None,,,,,0,35,35,35,,,,,650.9650634000009,,,,,,,,,,,,650.9500169000003,650.9650634000009,650.9650634000009,652.8644753999997,,,,652.8648678999998,652.8797016000008,652.8797016000008,652.8797016000008,653.1794305000003,653.23099,,,,,down,1.8977401000011014,None,space,0.34903139999914856,None,,,,,,,,,,,,P119,001,2024-11-20_11h02.28.842,posner_endo_new1,2024.2.4,60.044084366681226,2024-11-20 11h02.35.758416 +0000,
-0.31,0.005,36,36,0,up,3.512572600000567,None,space,0.3195785000007163,None,,,,,0,36,36,36,,,,,653.2459825000005,,,,,,,,,,,,653.2312488000007,653.2459825000005,653.2459825000005,656.7606746000001,,,,656.7610495999998,656.7758683000011,656.7758683000011,656.7758683000011,657.0754323000001,657.1100426000012,,,,,up,3.512572600000567,None,space,0.3195785000007163,None,,,,,,,,,,,,P119,001,2024-11-20_11h02.28.842,posner_endo_new1,2024.2.4,60.044084366681226,2024-11-20 11h02.35.758416 +0000,
10,0.005,37,37,0,down,2.5697509000001446,None,None,,,,,,,0,37,37,37,,,,,657.1253756000006,,,,,,,,,,,,657.1103104000013,657.1253756000006,657.1253756000006,659.7076586000003,,,,659.7080578000005,659.7228403000008,659.7228403000008,659.7228403000008,660.0224390000003,662.7199651999999,,,,660.7216815000011,down,2.5697509000001446,None,None,,,,,,,,,,,,,,P119,001,2024-11-20_11h02.28.842,posner_endo_new1,2024.2.4,60.044084366681226,2024-11-20 11h02.35.758416 +0000,
0.005,0.31,38,38,0,up,0.9507624999987456,None,space,0.3372589999999036,None,,,,,0,38,38,38,,,,,662.7363428999997,,,,,,,,,,,,662.7202182000001,662.7363428999997,662.7363428999997,663.7031643999999,,,,663.7035422000008,663.7187215000013,663.7187215000013,663.7187215000013,664.0184373000011,664.0695022,,,,,up,0.9507624999987456,None,space,0.3372589999999036,None,,,,,,,,,,,,P119,001,2024-11-20_11h02.28.842,posner_endo_new1,2024.2.4,60.044084366681226,2024-11-20 11h02.35.758416 +0000,
0.005,-0.31,39,39,0,down,2.3376797000000806,None,space,0.7635437999997521,None,,,,,0,39,39,39,,,,,664.0849175000003,,,,,,,,,,,,664.0697636000004,664.0849175000003,664.0849175000003,666.4337097999996,,,,666.4340849,666.4492258999999,666.4492258999999,666.4492258999999,666.7488966000001,667.2164413999999,,,,,down,2.3376797000000806,None,space,0.7635437999997521,None,,,,,,,,,,,,P119,001,2024-11-20_11h02.28.842,posner_endo_new1,2024.2.4,60.044084366681226,2024-11-20 11h02.35.758416 +0000,
0.31,0.005,40,40,0,up,2.255291000001307,None,space,0.37700020000011136,None,,,,,0,40,40,40,,,,,667.2317069000001,,,,,,,,,,,,667.2167179000007,667.2317069000001,667.2317069000001,669.4974038,,,,669.497779700001,669.5128826,669.5128826,669.5128826,669.8124482000003,669.8969708000004,,,,,up,2.255291000001307,None,space,0.37700020000011136,None,,,,,,,,,,,,P119,001,2024-11-20_11h02.28.842,posner_endo_new1,2024.2.4,60.044084366681226,2024-11-20 11h02.35.758416 +0000,
-0.31,0.005,41,41,0,down,2.831545200000619,None,space,0.5985990999997739,None,,,,,0,41,41,41,,,,,669.9122325000008,,,,,,,,,,,,669.8972309000001,669.9122325000008,669.9122325000008,672.7607151000011,,,,672.7610903000004,672.7761392000011,672.7761392000011,672.7761392000011,673.0756970000002,673.3768117,,,,,down,2.831545200000619,None,space,0.5985990999997739,None,,,,,,,,,,,,P119,001,2024-11-20_11h02.28.842,posner_endo_new1,2024.2.4,60.044084366681226,2024-11-20 11h02.35.758416 +0000,
0.31,0.005,42,42,0,up,2.2062254999982542,None,space,0.3180685999996058,None,,,,,0,42,42,42,,,,,673.392128200001,,,,,,,,,,,,673.377069600001,673.392128200001,673.392128200001,675.6077514000008,,,,675.6081322000009,675.6232755000001,675.6232755000001,675.6232755000001,675.9228758999998,675.9572869000003,,,,,up,2.2062254999982542,None,space,0.3180685999996058,None,,,,,,,,,,,,P119,001,2024-11-20_11h02.28.842,posner_endo_new1,2024.2.4,60.044084366681226,2024-11-20 11h02.35.758416 +0000,
10,0.005,43,43,0,down,2.497668400001203,None,None,,,,,,,0,43,43,43,,,,,675.9729568000002,,,,,,,,,,,,675.9575452000008,675.9729568000002,675.9729568000002,678.4717799000009,,,,678.4721577,678.4869667000003,678.4869667000003,678.4869667000003,678.7865280000005,681.4840129000004,,,,679.5023970000002,down,2.497668400001203,None,None,,,,,,,,,,,,,,P119,001,2024-11-20_11h02.28.842,posner_endo_new1,2024.2.4,60.044084366681226,2024-11-20 11h02.35.758416 +0000,
-0.31,0.005,44,44,0,up,0.4668445999996038,None,space,0.3393068999994284,None,,,,,0,44,44,44,,,,,681.5004435999999,,,,,,,,,,,,681.4842654000004,681.5004435999999,681.5004435999999,681.9847163000013,,,,681.9850918000011,681.9999495000011,681.9999495000011,681.9999495000011,682.2996739000009,682.3508560000009,,,,,up,0.4668445999996038,None,space,0.3393068999994284,None,,,,,,,,,,,,P119,001,2024-11-20_11h02.28.842,posner_endo_new1,2024.2.4,60.044084366681226,2024-11-20 11h02.35.758416 +0000,
0.005,0.31,45,45,0,down,2.585108199999013,None,space,0.43395570000029693,None,,,,,0,45,45,45,,,,,682.3661732,,,,,,,,,,,,682.3511162000013,682.3661732,682.3661732,684.9647435999996,,,,684.9651227000013,684.9802626000001,684.9802626000001,684.9802626000001,685.2799699999996,685.4311438000004,,,,,down,2.585108199999013,None,space,0.43395570000029693,None,,,,,,,,,,,,P119,001,2024-11-20_11h02.28.842,posner_endo_new1,2024.2.4,60.044084366681226,2024-11-20 11h02.35.758416 +0000,
0.005,-0.31,46,46,0,up,2.9840949999997974,None,space,0.376673299999311,None,,,,,0,46,46,46,,,,,685.4465888000013,,,,,,,,,,,,685.4314240000003,685.4465888000013,685.4465888000013,688.4445372999999,,,,688.444924200001,688.4599502000001,688.4599502000001,688.4599502000001,688.7598479999997,688.8440146000012,,,,,up,2.9840949999997974,None,space,0.376673299999311,None,,,,,,,,,,,,P119,001,2024-11-20_11h02.28.842,posner_endo_new1,2024.2.4,60.044084366681226,2024-11-20 11h02.35.758416 +0000,
-0.31,0.005,47,47,0,down,2.4349369000010483,None,space,0.48858669999935955,None,,,,,0,47,47,47,,,,,688.8595638000006,,,,,,,,,,,,688.8442704999998,688.8595638000006,688.8595638000006,691.3083193000002,,,,691.3086947000011,691.323710300001,691.323710300001,691.323710300001,691.6235131000012,691.8244578000013,,,,,down,2.4349369000010483,None,space,0.48858669999935955,None,,,,,,,,,,,,P119,001,2024-11-20_11h02.28.842,posner_endo_new1,2024.2.4,60.044084366681226,2024-11-20 11h02.35.758416 +0000,
0.005,-0.31,48,48,0,up,2.1349405000000843,None,space,0.36217200000101,None,,,,,0,48,48,48,,,,,691.8399539000002,,,,,,,,,,,,691.824714800001,691.8399539000002,691.8399539000002,693.9888792000002,,,,693.9892603999997,694.0044761000008,694.0044761000008,694.0044761000008,694.303989,694.3720171000004,,,,,up,2.1349405000000843,None,space,0.36217200000101,None,,,,,,,,,,,,P119,001,2024-11-20_11h02.28.842,posner_endo_new1,2024.2.4,60.044084366681226,2024-11-20 11h02.35.758416 +0000,
0.005,-0.31,49,49,0,down,2.315261300000202,None,space,0.5505204000000958,None,,,,,0,49,49,49,,,,,694.3872761000002,,,,,,,,,,,,694.3722699000009,694.3872761000002,694.3872761000002,696.7193514999999,,,,696.7197403000009,696.7349137000001,696.7349137000001,696.7349137000001,697.0346473000009,697.3023575000007,,,,,down,2.315261300000202,None,space,0.5505204000000958,None,,,,,,,,,,,,P119,001,2024-11-20_11h02.28.842,posner_endo_new1,2024.2.4,60.044084366681226,2024-11-20 11h02.35.758416 +0000,
0.005,0.31,50,50,0,up,2.130038400000558,None,space,0.4941902000009577,None,,,,,0,50,50,50,,,,,697.3176827000007,,,,,,,,,,,,697.3026296999997,697.3176827000007,697.3176827000007,699.4501618000013,,,,699.4505421000013,699.4654162999996,699.4654162999996,699.4654162999996,699.7651420000002,699.9660887000009,,,,,up,2.130038400000558,None,space,0.4941902000009577,None,,,,,,,,,,,,P119,001,2024-11-20_11h02.28.842,posner_endo_new1,2024.2.4,60.044084366681226,2024-11-20 11h02.35.758416 +0000,
0.31,0.005,51,51,0,down,1.8824819000001298,None,space,0.3476855000008072,None,,,,,0,51,51,51,,,,,699.9816188000004,,,,,,,,,,,,699.9663512000006,699.9816188000004,699.9816188000004,701.8807293999998,,,,701.8811256999998,701.8963764,701.8963764,701.8963764,702.1958859000006,702.2472470000012,,,,,down,1.8824819000001298,None,space,0.3476855000008072,None,,,,,,,,,,,,P119,001,2024-11-20_11h02.28.842,posner_endo_new1,2024.2.4,60.044084366681226,2024-11-20 11h02.35.758416 +0000,
0.31,0.005,52,52,0,up,1.8721968999998353,None,space,0.31611789999988105,None,,,,,0,52,52,52,,,,,702.2626243000013,,,,,,,,,,,,702.2475056000003,702.2626243000013,702.2626243000013,704.1452884999999,,,,704.1456663999998,704.1607915000004,704.1607915000004,704.1607915000004,704.4603258999996,704.4783105999995,,,,,up,1.8721968999998353,None,space,0.31611789999988105,None,,,,,,,,,,,,P119,001,2024-11-20_11h02.28.842,posner_endo_new1,2024.2.4,60.044084366681226,2024-11-20 11h02.35.758416 +0000,
0.005,0.31,53,53,0,down,2.977696300000389,None,space,0.33758140000099957,None,,,,,0,53,53,53,,,,,704.4936630000011,,,,,,,,,,,,704.4785744000001,704.4936630000011,704.4936630000011,707.4751434000009,,,,707.4755335999998,707.4906241000008,707.4906241000008,707.4906241000008,707.7902298000008,707.8414706000003,,,,,down,2.977696300000389,None,space,0.33758140000099957,None,,,,,,,,,,,,P119,001,2024-11-20_11h02.28.842,posner_endo_new1,2024.2.4,60.044084366681226,2024-11-20 11h02.35.758416 +0000,
-0.31,0.005,54,54,0,up,2.30960849999974,None,space,0.3496919999997772,None,,,,,0,54,54,54,,,,,707.8568346000011,,,,,,,,,,,,707.8417277999997,707.8568346000011,707.8568346000011,710.1723582000013,,,,710.1727465000004,710.1877927000005,710.1877927000005,710.1877927000005,710.4875771999996,710.5389587999998,,,,,up,2.30960849999974,None,space,0.3496919999997772,None,,,,,,,,,,,,P119,001,2024-11-20_11h02.28.842,posner_endo_new1,2024.2.4,60.044084366681226,2024-11-20 11h02.35.758416 +0000,
10,0.005,55,55,0,down,2.0523492000011174,None,None,,,,,,,0,55,55,55,,,,,710.5541145999996,,,,,,,,,,,,710.5392196000012,710.5541145999996,710.5541145999996,712.6198758999999,,,,712.6202493000001,712.6352501000001,712.6352501000001,712.6352501000001,712.9349703000007,715.6323142000001,,,,713.6344101000013,down,2.0523492000011174,None,None,,,,,,,,,,,,,,P119,001,2024-11-20_11h02.28.842,posner_endo_new1,2024.2.4,60.044084366681226,2024-11-20 11h02.35.758416 +0000,
0.31,0.005,56,56,0,up,1.0543367999998736,None,space,0.3179896000001463,None,,,,,0,56,56,56,,,,,715.6488021000005,,,,,,,,,,,,715.6325582999998,715.6488021000005,715.6488021000005,716.7156439000009,,,,716.7160194999997,716.731115300001,716.731115300001,716.731115300001,717.0308194999998,717.0652279000005,,,,,up,1.0543367999998736,None,space,0.3179896000001463,None,,,,,,,,,,,,P119,001,2024-11-20_11h02.28.842,posner_endo_new1,2024.2.4,60.044084366681226,2024-11-20 11h02.35.758416 +0000,
0.005,0.31,57,57,0,down,2.102437399998962,None,space,0.5711964999991324,None,,,,,0,57,57,57,,,,,717.0807947000012,,,,,,,,,,,,717.0654845999998,717.0807947000012,717.0807947000012,719.1964764000004,,,,719.1968484999998,719.2119910000001,719.2119910000001,719.2119910000001,719.5115567000012,719.7958228999996,,,,,down,2.102437399998962,None,space,0.5711964999991324,None,,,,,,,,,,,,P119,001,2024-11-20_11h02.28.842,posner_endo_new1,2024.2.4,60.044084366681226,2024-11-20 11h02.35.758416 +0000,
-0.31,0.005,58,58,0,up,2.6037804999996297,None,space,0.30962969999927736,None,,,,,0,58,58,58,,,,,719.8115369999996,,,,,,,,,,,,719.7960782000009,719.8115369999996,719.8115369999996,722.4265214000006,,,,722.426899,722.4419302000006,722.4419302000006,722.4419302000006,722.7416857999997,722.7594158000011,,,,,up,2.6037804999996297,None,space,0.30962969999927736,None,,,,,,,,,,,,P119,001,2024-11-20_11h02.28.842,posner_endo_new1,2024.2.4,60.044084366681226,2024-11-20 11h02.35.758416 +0000,
-0.31,0.005,59,59,0,down,2.4153795999991416,None,space,0.3430335999983072,None,,,,,0,59,59,59,,,,,722.7749354999996,,,,,,,,,,,,722.7596848000012,722.7749354999996,722.7749354999996,725.2069552000012,,,,725.2073469000006,725.2224604000003,725.2224604000003,725.2224604000003,725.5220504000008,725.5734392000013,,,,,down,2.4153795999991416,None,space,0.3430335999983072,None,,,,,,,,,,,,P119,001,2024-11-20_11h02.28.842,posner_endo_new1,2024.2.4,60.044084366681226,2024-11-20 11h02.35.758416 +0000,
,,,,,,,,,,,,,,,,,,,,,,,,,,,,,,,,,,,,,,,,,,,,,,,,,,,,,,,,,,725.5736120000001,725.588812,725.588812,785.5617720000009,None,,,,,,,P119,001,2024-11-20_11h02.28.842,posner_endo_new1,2024.2.4,60.044084366681226,2024-11-20 11h02.35.758416 +0000,
,,,,,,,,,,,,,,,,,,,,,,,,,,,,,,,,785.5618484999995,785.5774528000002,788.5742735000003,,,,,,,,,,,,,,,,,,,,,,,,,,,,,,,,,,,P119,001,2024-11-20_11h02.28.842,posner_endo_new1,2024.2.4,60.044084366681226,2024-11-20 11h02.35.758416 +0000,
0.005,0.31,0,0,0,up,11.36362569999983,None,space,0.40502379999998084,None,,,,,,,,,0,0,0,0,788.5950783000008,,,,,,,,,,,,788.5867799000007,788.5950783000008,788.5950783000008,799.9635515000009,,,,799.9638262999997,799.9792290000005,799.9792290000005,799.9792290000005,800.2790112000002,800.3962800999998,,,,,,,,,,,,,,,,up,11.36362569999983,None,space,0.40502379999998084,None,P119,001,2024-11-20_11h02.28.842,posner_endo_new1,2024.2.4,60.044084366681226,2024-11-20 11h02.35.758416 +0000,
-0.31,0.005,1,1,0,down,1.4829733000005945,None,space,0.3915051999993011,None,,,,,,,,,0,1,1,1,800.4121574000001,,,,,,,,,,,,800.3964527999997,800.4121574000001,800.4121574000001,801.911508000001,,,,801.9117597000004,801.9272342000004,801.9272342000004,801.9272342000004,802.2269472000007,802.327592900001,,,,,,,,,,,,,,,,down,1.4829733000005945,None,space,0.3915051999993011,None,P119,001,2024-11-20_11h02.28.842,posner_endo_new1,2024.2.4,60.044084366681226,2024-11-20 11h02.35.758416 +0000,
0.005,-0.31,2,2,0,up,2.6474787999995897,None,space,0.32762089999960153,None,,,,,,,,,0,2,2,2,802.3433893000001,,,,,,,,,,,,802.327768000001,802.3433893000001,802.3433893000001,804.9917478000007,,,,804.9920092000011,805.0075199000003,805.0075199000003,805.0075199000003,805.3070989000007,805.3412872000008,,,,,,,,,,,,,,,,up,2.6474787999995897,None,space,0.32762089999960153,None,P119,001,2024-11-20_11h02.28.842,posner_endo_new1,2024.2.4,60.044084366681226,2024-11-20 11h02.35.758416 +0000,
0.31,0.005,3,3,0,down,2.4015494999985094,None,space,0.47895920000155456,None,,,,,,,,,0,3,3,3,805.3571588000013,,,,,,,,,,,,805.3414542999999,805.3571588000013,805.3571588000013,807.7719522999996,,,,807.7722064000009,807.7879701000002,807.7879701000002,807.7879701000002,808.0878400000001,808.2716837999997,,,,,,,,,,,,,,,,down,2.4015494999985094,None,space,0.47895920000155456,None,P119,001,2024-11-20_11h02.28.842,posner_endo_new1,2024.2.4,60.044084366681226,2024-11-20 11h02.35.758416 +0000,
0.005,0.31,4,4,0,up,2.3118556999997963,None,space,0.4534065999996528,None,,,,,,,,,0,4,4,4,808.2874681000012,,,,,,,,,,,,808.2718504000004,808.2874681000012,808.2874681000012,810.6024109000009,,,,810.6026636000006,810.6183951000003,810.6183951000003,810.6183951000003,810.9180944,811.0854503999999,,,,,,,,,,,,,,,,up,2.3118556999997963,None,space,0.4534065999996528,None,P119,001,2024-11-20_11h02.28.842,posner_endo_new1,2024.2.4,60.044084366681226,2024-11-20 11h02.35.758416 +0000,
0.005,-0.31,5,5,0,down,2.2657098999989103,None,space,0.26438169999892125,None,,,,,,,,,0,5,5,5,811.1012544000005,,,,,,,,,,,,811.0856180999999,811.1012544000005,811.1012544000005,813.383148500001,,,,813.3834043000006,813.3987004999999,813.3987004999999,813.3987004999999,,813.6660972999998,,,,,,,,,,,,,,,,down,2.2657098999989103,None,space,0.26438169999892125,None,P119,001,2024-11-20_11h02.28.842,posner_endo_new1,2024.2.4,60.044084366681226,2024-11-20 11h02.35.758416 +0000,
-0.31,0.005,6,6,0,up,2.516495699999723,None,space,0.27567200000157754,None,,,,,,,,,0,6,6,6,813.6820072999999,,,,,,,,,,,,813.6662660000002,813.6820072999999,813.6820072999999,816.2134556000001,,,,816.2137088,816.2293413000007,816.2293413000007,816.2293413000007,816.5290421999998,816.5132611999998,,,,,,,,,,,,,,,,up,2.516495699999723,None,space,0.27567200000157754,None,P119,001,2024-11-20_11h02.28.842,posner_endo_new1,2024.2.4,60.044084366681226,2024-11-20 11h02.35.758416 +0000,
0.005,0.31,7,7,0,down,1.8376602000007551,None,space,0.31675019999966025,None,,,,,,,,,0,7,7,7,816.5290421999998,,,,,,,,,,,,816.5134281999999,816.5290421999998,816.5290421999998,818.3777817000009,,,,818.3780403000001,818.3938225000002,818.3938225000002,818.3938225000002,818.6933795000004,818.7274529000006,,,,,,,,,,,,,,,,down,1.8376602000007551,None,space,0.31675019999966025,None,P119,001,2024-11-20_11h02.28.842,posner_endo_new1,2024.2.4,60.044084366681226,2024-11-20 11h02.35.758416 +0000,
0.31,0.005,8,8,0,up,2.4071628999990935,None,space,0.26773449999927834,None,,,,,,,,,0,8,8,8,818.7433187999995,,,,,,,,,,,,818.7276204000009,818.7433187999995,818.7433187999995,821.1584328999998,,,,821.1586884999997,821.1741554,821.1741554,821.1741554,821.4740070000007,821.4580490000008,,,,,,,,,,,,,,,,up,2.4071628999990935,None,space,0.26773449999927834,None,P119,001,2024-11-20_11h02.28.842,posner_endo_new1,2024.2.4,60.044084366681226,2024-11-20 11h02.35.758416 +0000,
10,0.005,9,9,0,down,1.772618599999987,None,None,,,,,,,,,,,0,9,9,9,821.4740070000007,,,,,,,,,,,,821.4582203999998,821.4740070000007,821.4740070000007,823.2562447,,,,823.2564997000009,823.2722565000004,823.2722565000004,823.2722565000004,823.5718021000012,826.2692306999998,,,,824.2877907000002,,,,,,,,,,,,down,1.772618599999987,None,None,,,P119,001,2024-11-20_11h02.28.842,posner_endo_new1,2024.2.4,60.044084366681226,2024-11-20 11h02.35.758416 +0000,
0.31,0.005,10,10,0,up,0.5457177000007505,None,space,0.31402349999916623,None,,,,,,,,,0,10,10,10,826.2855348000012,,,,,,,,,,,,826.2694018000002,826.2855348000012,826.2855348000012,826.8360874000009,,,,826.8363418999998,826.8518127999996,826.8518127999996,826.8518127999996,827.1517390999998,827.1688898000011,,,,,,,,,,,,,,,,up,0.5457177000007505,None,space,0.31402349999916623,None,P119,001,2024-11-20_11h02.28.842,posner_endo_new1,2024.2.4,60.044084366681226,2024-11-20 11h02.35.758416 +0000,
0.005,0.31,11,11,0,down,2.6864416000007623,None,space,0.4239864999999554,None,,,,,,,,,0,11,11,11,827.1847802000011,,,,,,,,,,,,827.1690520000011,827.1847802000011,827.1847802000011,829.8829033000002,,,,829.8831556000005,829.8987764000012,829.8987764000012,829.8987764000012,830.1983735000013,830.3324420999998,,,,,,,,,,,,,,,,down,2.6864416000007623,None,space,0.4239864999999554,None,P119,001,2024-11-20_11h02.28.842,posner_endo_new1,2024.2.4,60.044084366681226,2024-11-20 11h02.35.758416 +0000,
10,0.005,12,12,0,up,1.9552718000013556,None,None,,,,,,,,,,,0,12,12,12,830.3481788999998,,,,,,,,,,,,830.3326061000007,830.3481788999998,830.3481788999998,832.3135975000005,,,,832.3138489000012,832.3295806000006,832.3295806000006,832.3295806000006,832.6291873000009,835.3265017000012,,,,833.3451366999998,,,,,,,,,,,,up,1.9552718000013556,None,None,,,P119,001,2024-11-20_11h02.28.842,posner_endo_new1,2024.2.4,60.044084366681226,2024-11-20 11h02.35.758416 +0000,
-0.31,0.005,13,13,0,up,3.063494300000457,None,space,0.419478199999503,None,,,,,,,,,0,13,13,13,835.3430829000008,,,,,,,,,,,,835.3266671000001,835.3430829000008,835.3430829000008,838.4075699000005,,,,838.4078234999997,838.4232350000002,838.4232350000002,838.4232350000002,838.7229521000008,838.8569688000007,,,,,,,,,,,,,,,,up,3.063494300000457,None,space,0.419478199999503,None,P119,001,2024-11-20_11h02.28.842,posner_endo_new1,2024.2.4,60.044084366681226,2024-11-20 11h02.35.758416 +0000,
0.31,0.005,14,14,0,down,1.365837499999543,None,space,0.3376051999985066,None,,,,,,,,,0,14,14,14,838.8727868000005,,,,,,,,,,,,838.8571333,838.8727868000005,838.8727868000005,840.2554409000004,,,,840.2556982000006,840.2714070000002,840.2714070000002,840.2714070000002,840.571051500001,840.6217214000008,,,,,,,,,,,,,,,,down,1.365837499999543,None,space,0.3376051999985066,None,P119,001,2024-11-20_11h02.28.842,posner_endo_new1,2024.2.4,60.044084366681226,2024-11-20 11h02.35.758416 +0000,
0.005,-0.31,15,15,0,up,1.5611778999991657,None,space,0.37708109999948647,None,,,,,,,,,0,15,15,15,840.6377087000001,,,,,,,,,,,,840.6218843000006,840.6377087000001,840.6377087000001,842.2035806000004,,,,842.2038407,842.219452700001,842.219452700001,842.219452700001,842.5190112,842.6032570999996,,,,,,,,,,,,,,,,up,1.5611778999991657,None,space,0.37708109999948647,None,P119,001,2024-11-20_11h02.28.842,posner_endo_new1,2024.2.4,60.044084366681226,2024-11-20 11h02.35.758416 +0000,
0.31,0.005,16,16,0,down,1.8685198000002856,None,space,0.3932734000009077,None,,,,,,,,,0,16,16,16,842.6189474000003,,,,,,,,,,,,842.6034218000004,842.6189474000003,842.6189474000003,844.5011039000001,,,,844.5013637000011,844.5169108000009,844.5169108000009,844.5169108000009,844.8167063000001,844.9172957999999,,,,,,,,,,,,,,,,down,1.8685198000002856,None,space,0.3932734000009077,None,P119,001,2024-11-20_11h02.28.842,posner_endo_new1,2024.2.4,60.044084366681226,2024-11-20 11h02.35.758416 +0000,
0.31,0.005,17,17,0,up,1.6897924999993847,None,space,0.5195194999996602,None,,,,,,,,,0,17,17,17,844.9333709000002,,,,,,,,,,,,844.9174595000004,844.9333709000002,844.9333709000002,846.6322003000005,,,,846.6326064000004,846.6482273000001,846.6482273000001,846.6482273000001,846.9479439000006,847.1817401000008,,,,,,,,,,,,,,,,up,1.6897924999993847,None,space,0.5195194999996602,None,P119,001,2024-11-20_11h02.28.842,posner_endo_new1,2024.2.4,60.044084366681226,2024-11-20 11h02.35.758416 +0000,
0.005,-0.31,18,18,0,down,1.6255041000003985,None,space,0.29745399999956135,None,,,,,,,,,0,18,18,18,847.1976398000006,,,,,,,,,,,,847.1819093000013,847.1976398000006,847.1976398000006,848.8300214999999,,,,848.8302760999995,848.8458998000006,848.8458998000006,848.8458998000006,849.1456033000013,849.1464336000008,,,,,,,,,,,,,,,,down,1.6255041000003985,None,space,0.29745399999956135,None,P119,001,2024-11-20_11h02.28.842,posner_endo_new1,2024.2.4,60.044084366681226,2024-11-20 11h02.35.758416 +0000,
0.005,-0.31,19,19,0,up,1.7970481000011205,None,space,0.3733098000011523,None,,,,,,,,,0,19,19,19,849.1623428000003,,,,,,,,,,,,849.1466044000008,849.1623428000003,849.1623428000003,850.9612536000004,,,,850.9615093000011,850.9770747000002,850.9770747000002,850.9770747000002,851.2768617000002,851.3606084000003,,,,,,,,,,,,,,,,up,1.7970481000011205,None,space,0.3733098000011523,None,P119,001,2024-11-20_11h02.28.842,posner_endo_new1,2024.2.4,60.044084366681226,2024-11-20 11h02.35.758416 +0000,
10,0.005,20,20,0,down,1.9501674000002822,None,None,,,,,,,,,,,0,20,20,20,851.3767972000005,,,,,,,,,,,,851.3607708,851.3767972000005,851.3767972000005,853.3419630999997,,,,853.3422198999997,853.358114300001,853.358114300001,853.358114300001,853.6577178999996,856.3551062999995,,,,854.3736139000011,,,,,,,,,,,,down,1.9501674000002822,None,None,,,P119,001,2024-11-20_11h02.28.842,posner_endo_new1,2024.2.4,60.044084366681226,2024-11-20 11h02.35.758416 +0000,
0.005,-0.31,21,21,0,down,1.9793676999997842,None,space,0.28601739999976417,None,,,,,,,,,0,21,21,21,856.3715688000011,,,,,,,,,,,,856.3552706999999,856.3715688000011,856.3715688000011,858.3537708000003,,,,858.3540291000008,858.369490000001,858.369490000001,858.369490000001,858.6690986000012,858.6699347000012,,,,,,,,,,,,,,,,down,1.9793676999997842,None,space,0.28601739999976417,None,P119,001,2024-11-20_11h02.28.842,posner_endo_new1,2024.2.4,60.044084366681226,2024-11-20 11h02.35.758416 +0000,
0.005,0.31,22,22,0,up,2.585188400000334,None,space,0.3891156999998202,None,,,,,,,,,0,22,22,22,858.6858439999996,,,,,,,,,,,,858.6700983999999,858.6858439999996,858.6858439999996,861.2840152000008,,,,861.2842698000004,861.2999470000013,861.2999470000013,861.2999470000013,861.5997286000002,861.7002749000003,,,,,,,,,,,,,,,,up,2.585188400000334,None,space,0.3891156999998202,None,P119,001,2024-11-20_11h02.28.842,posner_endo_new1,2024.2.4,60.044084366681226,2024-11-20 11h02.35.758416 +0000,
0.31,0.005,23,23,0,down,1.6908050000001822,None,space,0.6404407000009087,None,,,,,,,,,0,23,23,23,861.7161317000009,,,,,,,,,,,,861.7004389000012,861.7161317000009,861.7161317000009,863.4153416000008,,,,863.4155948999996,863.4310943,863.4310943,863.4310943,863.7308067000013,864.0813109999999,,,,,,,,,,,,,,,,down,1.6908050000001822,None,space,0.6404407000009087,None,P119,001,2024-11-20_11h02.28.842,posner_endo_new1,2024.2.4,60.044084366681226,2024-11-20 11h02.35.758416 +0000,
-0.31,0.005,24,24,0,up,1.8459225000005972,None,space,0.3756253999999899,None,,,,,,,,,0,24,24,24,864.0970412999995,,,,,,,,,,,,864.0814733000007,864.0970412999995,864.0970412999995,865.9457180000009,,,,865.9459719000006,865.961832500001,865.961832500001,865.961832500001,866.2614864999996,866.3454806999998,,,,,,,,,,,,,,,,up,1.8459225000005972,None,space,0.3756253999999899,None,P119,001,2024-11-20_11h02.28.842,posner_endo_new1,2024.2.4,60.044084366681226,2024-11-20 11h02.35.758416 +0000,
10,0.005,25,25,0,down,2.2851135000000795,None,None,,,,,,,,,,,0,25,25,25,866.3615459000011,,,,,,,,,,,,866.3456469000012,866.3615459000011,866.3615459000011,868.6599212000001,,,,868.6601733000007,868.6758616999996,868.6758616999996,868.6758616999996,868.9753610000007,871.672770000001,,,,869.6912891000011,,,,,,,,,,,,down,2.2851135000000795,None,None,,,P119,001,2024-11-20_11h02.28.842,posner_endo_new1,2024.2.4,60.044084366681226,2024-11-20 11h02.35.758416 +0000,
0.005,0.31,26,26,0,down,2.7418343999997887,None,space,0.2978371999997762,None,,,,,,,,,0,26,26,26,871.6889475999997,,,,,,,,,,,,871.6729395000002,871.6889475999997,871.6889475999997,874.4370593000003,,,,874.4373099000004,874.4530998999999,874.4530998999999,874.4530998999999,874.7527268000013,874.7536381000009,,,,,,,,,,,,,,,,down,2.7418343999997887,None,space,0.2978371999997762,None,P119,001,2024-11-20_11h02.28.842,posner_endo_new1,2024.2.4,60.044084366681226,2024-11-20 11h02.35.758416 +0000,
0.31,0.005,27,27,0,up,3.1491729999997915,None,space,0.33495289999882516,None,,,,,,,,,0,27,27,27,874.769290100001,,,,,,,,,,,,874.7538017000006,874.769290100001,874.769290100001,877.9336474000011,,,,877.9338974000002,877.9495820000011,877.9495820000011,877.9495820000011,878.2490276999997,878.2997854000005,,,,,,,,,,,,,,,,up,3.1491729999997915,None,space,0.33495289999882516,None,P119,001,2024-11-20_11h02.28.842,posner_endo_new1,2024.2.4,60.044084366681226,2024-11-20 11h02.35.758416 +0000,
0.005,0.31,28,28,0,down,1.7317459999994753,None,space,0.3442989999985002,None,,,,,,,,,0,28,28,28,878.3157664000009,,,,,,,,,,,,878.2999598000006,878.3157664000009,878.3157664000009,880.0482952000002,,,,880.0485575000002,880.0639987000013,880.0639987000013,880.0639987000013,880.3636702000003,880.4145614000008,,,,,,,,,,,,,,,,down,1.7317459999994753,None,space,0.3442989999985002,None,P119,001,2024-11-20_11h02.28.842,posner_endo_new1,2024.2.4,60.044084366681226,2024-11-20 11h02.35.758416 +0000,
10,0.005,29,29,0,up,2.2975198999993154,None,None,,,,,,,,,,,0,29,29,29,880.4302442000007,,,,,,,,,,,,880.4147279999997,880.4302442000007,880.4302442000007,882.7288747000002,,,,882.7291261000009,882.7446524999996,882.7446524999996,882.7446524999996,883.0443011999996,885.7415942999996,,,,883.7600911000009,,,,,,,,,,,,up,2.2975198999993154,None,None,,,P119,001,2024-11-20_11h02.28.842,posner_endo_new1,2024.2.4,60.044084366681226,2024-11-20 11h02.35.758416 +0000,
0.005,-0.31,30,30,0,down,0.033112099999925704,None,space,0.4132580000004964,None,,,,,,,,,0,30,30,30,885.7581277000008,,,,,,,,,,,,885.7417542000003,885.7581277000008,885.7581277000008,885.7923472000002,,,,885.7926058000012,885.8081922000001,885.8081922000001,885.8081922000001,886.1078777000002,886.2252497999998,,,,,,,,,,,,,,,,down,0.033112099999925704,None,space,0.4132580000004964,None,P119,001,2024-11-20_11h02.28.842,posner_endo_new1,2024.2.4,60.044084366681226,2024-11-20 11h02.35.758416 +0000,
0.31,0.005,31,31,0,up,2.5498310000002675,None,space,0.37832779999916966,None,,,,,,,,,0,31,31,31,886.2411243999995,,,,,,,,,,,,886.2254122000013,886.2411243999995,886.2411243999995,888.805855300001,,,,888.8061083000011,888.8218405999996,888.8218405999996,888.8218405999996,889.1215587999995,889.2057947000012,,,,,,,,,,,,,,,,up,2.5498310000002675,None,space,0.37832779999916966,None,P119,001,2024-11-20_11h02.28.842,posner_endo_new1,2024.2.4,60.044084366681226,2024-11-20 11h02.35.758416 +0000,
10,0.005,32,32,0,down,1.76096409999991,None,None,,,,,,,,,,,0,32,32,32,889.2214913999996,,,,,,,,,,,,889.2059582000002,889.2214913999996,889.2214913999996,890.9870287000012,,,,890.9872802000009,891.0028808999996,891.0028808999996,891.0028808999996,891.3024888,894.0000268000003,,,,892.0185515000012,,,,,,,,,,,,down,1.76096409999991,None,None,,,P119,001,2024-11-20_11h02.28.842,posner_endo_new1,2024.2.4,60.044084366681226,2024-11-20 11h02.35.758416 +0000,
-0.31,0.005,33,33,0,up,0.6219987000004039,None,space,0.36129239999900165,None,,,,,,,,,0,33,33,33,894.0164526999997,,,,,,,,,,,,894.0001884000012,894.0164526999997,894.0164526999997,894.6498048000012,,,,894.6500598000002,894.6657484999996,894.6657484999996,894.6657484999996,894.9653154000007,895.032903700001,,,,,,,,,,,,,,,,up,0.6219987000004039,None,space,0.36129239999900165,None,P119,001,2024-11-20_11h02.28.842,posner_endo_new1,2024.2.4,60.044084366681226,2024-11-20 11h02.35.758416 +0000,
10,0.005,34,34,0,down,1.9995687000009639,None,None,,,,,,,,,,,0,34,34,34,895.0487040000007,,,,,,,,,,,,895.0330761000005,895.0487040000007,895.0487040000007,897.0640646000011,,,,897.0643183000011,897.0800149000006,897.0800149000006,897.0800149000006,897.3796997999998,900.0770690000008,,,,898.0955938999996,,,,,,,,,,,,down,1.9995687000009639,None,None,,,P119,001,2024-11-20_11h02.28.842,posner_endo_new1,2024.2.4,60.044084366681226,2024-11-20 11h02.35.758416 +0000,
0.005,-0.31,35,35,0,down,2.3528876999989734,None,space,0.27920950000043376,None,,,,,,,,,0,35,35,35,900.0936271999999,,,,,,,,,,,,900.0772386999997,900.0936271999999,900.0936271999999,902.4585110999997,,,,902.4587750999999,902.4743605000003,902.4743605000003,902.4743605000003,902.7742147999998,902.7584911000013,,,,,,,,,,,,,,,,down,2.3528876999989734,None,space,0.27920950000043376,None,P119,001,2024-11-20_11h02.28.842,posner_endo_new1,2024.2.4,60.044084366681226,2024-11-20 11h02.35.758416 +0000,
0.31,0.005,36,36,0,up,2.544907900000908,None,space,0.2858789000001707,None,,,,,,,,,0,36,36,36,902.7742147999998,,,,,,,,,,,,902.7586628000008,902.7742147999998,902.7742147999998,905.3222696000012,,,,905.3225206999996,905.3381477000003,905.3381477000003,905.3381477000003,905.6378648999998,905.6387035999996,,,,,,,,,,,,,,,,up,2.544907900000908,None,space,0.2858789000001707,None,P119,001,2024-11-20_11h02.28.842,posner_endo_new1,2024.2.4,60.044084366681226,2024-11-20 11h02.35.758416 +0000,
10,0.005,37,37,0,down,2.2479122999993706,None,None,,,,,,,,,,,0,37,37,37,905.6545108999999,,,,,,,,,,,,905.6388660000011,905.6545108999999,905.6545108999999,907.9032143000004,,,,907.903470700001,907.9187949999996,907.9187949999996,907.9187949999996,908.2185989000009,910.9160668000004,,,,908.9178709999996,,,,,,,,,,,,down,2.2479122999993706,None,None,,,P119,001,2024-11-20_11h02.28.842,posner_endo_new1,2024.2.4,60.044084366681226,2024-11-20 11h02.35.758416 +0000,
10,0.005,38,38,0,up,0.8271119000000908,None,None,,,,,,,,,,,0,38,38,38,910.9324407000004,,,,,,,,,,,,910.9162278000003,910.9324407000004,910.9324407000004,911.7658294000012,,,,911.7660892000004,911.7815881999995,911.7815881999995,911.7815881999995,912.0812702000003,914.7786355000007,,,,912.7803932999996,,,,,,,,,,,,up,0.8271119000000908,None,None,,,P119,001,2024-11-20_11h02.28.842,posner_endo_new1,2024.2.4,60.044084366681226,2024-11-20 11h02.35.758416 +0000,
-0.31,0.005,39,39,0,up,9.125119600001199,None,space,0.35194810000029975,None,,,,,,,,,0,39,39,39,914.7952198000003,,,,,,,,,,,,914.7787973000013,914.7952198000003,914.7952198000003,923.9365321000005,,,,923.9368043000013,923.9524087000009,923.9524087000009,923.9524087000009,924.2525335999999,924.3194409000007,,,,,,,,,,,,,,,,up,9.125119600001199,None,space,0.35194810000029975,None,P119,001,2024-11-20_11h02.28.842,posner_endo_new1,2024.2.4,60.044084366681226,2024-11-20 11h02.35.758416 +0000,
0.005,-0.31,40,40,0,down,2.759756400000697,None,space,0.38157349999892176,None,,,,,,,,,0,40,40,40,924.3354794000006,,,,,,,,,,,,924.3196105000006,924.3354794000006,924.3354794000006,927.100185700001,,,,927.1004401000009,927.1159172999996,927.1159172999996,927.1159172999996,927.4155564000012,927.4995090000011,,,,,,,,,,,,,,,,down,2.759756400000697,None,space,0.38157349999892176,None,P119,001,2024-11-20_11h02.28.842,posner_endo_new1,2024.2.4,60.044084366681226,2024-11-20 11h02.35.758416 +0000,
0.005,-0.31,41,41,0,up,2.915132600001016,None,space,0.3423106000009284,None,,,,,,,,,0,41,41,41,927.5154851999996,,,,,,,,,,,,927.4996740000006,927.5154851999996,927.5154851999996,930.4465670999998,,,,930.4468207000009,930.4625145000009,930.4625145000009,930.4625145000009,930.7621610000006,930.8131807000009,,,,,,,,,,,,,,,,up,2.915132600001016,None,space,0.3423106000009284,None,P119,001,2024-11-20_11h02.28.842,posner_endo_new1,2024.2.4,60.044084366681226,2024-11-20 11h02.35.758416 +0000,
10,0.005,42,42,0,down,2.137881299999208,None,None,,,,,,,,,,,0,42,42,42,930.8287902000011,,,,,,,,,,,,930.8133486999996,930.8287902000011,930.8287902000011,932.977455100001,,,,932.9777055000013,932.9931821999999,932.9931821999999,932.9931821999999,933.2930936000012,935.9903214000005,,,,933.9922579000013,,,,,,,,,,,,down,2.137881299999208,None,None,,,P119,001,2024-11-20_11h02.28.842,posner_endo_new1,2024.2.4,60.044084366681226,2024-11-20 11h02.35.758416 +0000,
0.005,-0.31,43,43,0,up,1.0401945000012347,None,space,0.3324669999983598,None,,,,,,,,,0,43,43,43,936.0067950000011,,,,,,,,,,,,935.9904929000004,936.0067950000011,936.0067950000011,937.0565637,,,,937.0568153000004,937.0722825000012,937.0722825000012,937.0722825000012,937.3720384000007,937.4063333000013,,,,,,,,,,,,,,,,up,1.0401945000012347,None,space,0.3324669999983598,None,P119,001,2024-11-20_11h02.28.842,posner_endo_new1,2024.2.4,60.044084366681226,2024-11-20 11h02.35.758416 +0000,
-0.31,0.005,44,44,0,down,1.6648925999998028,None,space,0.3762865000007878,None,,,,,,,,,0,44,44,44,937.4219509000013,,,,,,,,,,,,937.4064971000007,937.4219509000013,937.4219509000013,939.0879975999997,,,,939.0882543000007,939.1037445000002,939.1037445000002,939.1037445000002,939.4033041000002,939.4873822999998,,,,,,,,,,,,,,,,down,1.6648925999998028,None,space,0.3762865000007878,None,P119,001,2024-11-20_11h02.28.842,posner_endo_new1,2024.2.4,60.044084366681226,2024-11-20 11h02.35.758416 +0000,
10,0.005,45,45,0,up,2.5115836000004492,None,None,,,,,,,,,,,0,45,45,45,939.5033144000008,,,,,,,,,,,,939.4875463000008,939.5033144000008,939.5033144000008,942.0180023000012,,,,942.0182559000004,942.0341062000007,942.0341062000007,942.0341062000007,942.3336252999998,945.0310659000006,,,,943.0496956999996,,,,,,,,,,,,up,2.5115836000004492,None,None,,,P119,001,2024-11-20_11h02.28.842,posner_endo_new1,2024.2.4,60.044084366681226,2024-11-20 11h02.35.758416 +0000,
0.005,0.31,46,46,0,up,2.3276760000007926,None,space,0.41444050000063726,None,,,,,,,,,0,46,46,46,945.0476500000004,,,,,,,,,,,,945.0312274000007,945.0476500000004,945.0476500000004,947.3791619000003,,,,947.3794127000001,947.3951889,947.3951889,947.3951889,947.6948818000001,947.8122922000002,,,,,,,,,,,,,,,,up,2.3276760000007926,None,space,0.41444050000063726,None,P119,001,2024-11-20_11h02.28.842,posner_endo_new1,2024.2.4,60.044084366681226,2024-11-20 11h02.35.758416 +0000,
0.005,-0.31,47,47,0,down,2.8512690999996266,None,space,0.4787264000005962,None,,,,,,,,,0,47,47,47,947.8279562999996,,,,,,,,,,,,947.8124578000006,947.8279562999996,947.8279562999996,950.6926287000006,,,,950.6928862000004,950.7086165000001,950.7086165000001,950.7086165000001,951.0081076999995,951.1922183999995,,,,,,,,,,,,,,,,down,2.8512690999996266,None,space,0.4787264000005962,None,P119,001,2024-11-20_11h02.28.842,posner_endo_new1,2024.2.4,60.044084366681226,2024-11-20 11h02.35.758416 +0000,
0.31,0.005,48,48,0,up,2.3345585000006395,None,space,0.306049200000416,None,,,,,,,,,0,48,48,48,951.2083235000009,,,,,,,,,,,,951.1923948000003,951.2083235000009,951.2083235000009,953.5562865000011,,,,953.556542100001,953.5721955000008,953.5721955000008,953.5721955000008,953.8717878999996,953.8893790000002,,,,,,,,,,,,,,,,up,2.3345585000006395,None,space,0.306049200000416,None,P119,001,2024-11-20_11h02.28.842,posner_endo_new1,2024.2.4,60.044084366681226,2024-11-20 11h02.35.758416 +0000,
-0.31,0.005,49,49,0,down,2.2539238999997906,None,space,0.3184782999996969,None,,,,,,,,,0,49,49,49,953.9051139000003,,,,,,,,,,,,953.8895432000008,953.9051139000003,953.9051139000003,956.1702473000005,,,,956.1704988000001,956.1861934000008,956.1861934000008,956.1861934000008,956.4857480999999,956.5197900000003,,,,,,,,,,,,,,,,down,2.2539238999997906,None,space,0.3184782999996969,None,P119,001,2024-11-20_11h02.28.842,posner_endo_new1,2024.2.4,60.044084366681226,2024-11-20 11h02.35.758416 +0000,
0.005,0.31,50,50,0,up,2.6795880000008765,None,space,0.37860120000004827,None,,,,,,,,,0,50,50,50,956.5358505000004,,,,,,,,,,,,956.5199731000012,956.5358505000004,956.5358505000004,959.2173315,,,,959.2175891999996,959.2329682,959.2329682,959.2329682,959.5326855000003,959.617057200001,,,,,,,,,,,,,,,,up,2.6795880000008765,None,space,0.37860120000004827,None,P119,001,2024-11-20_11h02.28.842,posner_endo_new1,2024.2.4,60.044084366681226,2024-11-20 11h02.35.758416 +0000,
0.005,0.31,51,51,0,down,1.8858901000003243,None,space,0.35027420000005804,None,,,,,,,,,0,51,51,51,959.6326299000011,,,,,,,,,,,,959.6172290000013,959.6326299000011,959.6326299000011,961.5314947000006,,,,961.5317508000007,961.5473634999998,961.5473634999998,961.5473634999998,961.8470071000011,961.9144995000006,,,,,,,,,,,,,,,,down,1.8858901000003243,None,space,0.35027420000005804,None,P119,001,2024-11-20_11h02.28.842,posner_endo_new1,2024.2.4,60.044084366681226,2024-11-20 11h02.35.758416 +0000,
10,0.005,52,52,0,up,2.844807400000718,None,None,,,,,,,,,,,0,52,52,52,961.9305227000004,,,,,,,,,,,,961.9146609,961.9305227000004,961.9305227000004,964.7781507,,,,964.7784122000012,964.7939497999996,964.7939497999996,964.7939497999996,965.0936443999999,967.7911242999999,,,,965.7932180999996,,,,,,,,,,,,up,2.844807400000718,None,None,,,P119,001,2024-11-20_11h02.28.842,posner_endo_new1,2024.2.4,60.044084366681226,2024-11-20 11h02.35.758416 +0000,
-0.31,0.005,53,53,0,up,1.383461299999908,None,space,0.3021923999986029,None,,,,,,,,,0,53,53,53,967.8074782000003,,,,,,,,,,,,967.7913007999996,967.8074782000003,967.8074782000003,969.2070905,,,,969.2073450999997,969.2229513000002,969.2229513000002,969.2229513000002,969.522660300001,969.5400467,,,,,,,,,,,,,,,,up,1.383461299999908,None,space,0.3021923999986029,None,P119,001,2024-11-20_11h02.28.842,posner_endo_new1,2024.2.4,60.044084366681226,2024-11-20 11h02.35.758416 +0000,
10,0.005,54,54,0,down,2.2348966999998083,None,None,,,,,,,,,,,0,54,54,54,969.5557742000001,,,,,,,,,,,,969.5402105000012,969.5557742000001,969.5557742000001,971.8043319000008,,,,971.8045897000011,971.8202149999997,971.8202149999997,971.8202149999997,972.1198303000001,974.8172133999997,,,,972.8192319999998,,,,,,,,,,,,down,2.2348966999998083,None,None,,,P119,001,2024-11-20_11h02.28.842,posner_endo_new1,2024.2.4,60.044084366681226,2024-11-20 11h02.35.758416 +0000,
0.005,0.31,55,55,0,up,0.7652890999997908,None,space,0.312534599999708,None,,,,,,,,,0,55,55,55,974.8336900000013,,,,,,,,,,,,974.8173774999996,974.8336900000013,974.8336900000013,975.6005739000011,,,,975.6008457000007,975.6164119000005,975.6164119000005,975.6164119000005,975.9158509000008,975.9336586999998,,,,,,,,,,,,,,,,up,0.7652890999997908,None,space,0.312534599999708,None,P119,001,2024-11-20_11h02.28.842,posner_endo_new1,2024.2.4,60.044084366681226,2024-11-20 11h02.35.758416 +0000,
0.005,-0.31,56,56,0,down,1.9052054000003409,None,space,0.4470961000006355,None,,,,,,,,,0,56,56,56,975.9491851000002,,,,,,,,,,,,975.9338232999999,975.9491851000002,975.9491851000002,977.8647488000006,,,,977.8650017,977.8806304999998,977.8806304999998,977.8806304999998,978.1803144000005,978.3309024999999,,,,,,,,,,,,,,,,down,1.9052054000003409,None,space,0.4470961000006355,None,P119,001,2024-11-20_11h02.28.842,posner_endo_new1,2024.2.4,60.044084366681226,2024-11-20 11h02.35.758416 +0000,
0.005,0.31,57,57,0,up,2.388396800000919,None,space,0.27613779999956023,None,,,,,,,,,0,57,57,57,978.346798300001,,,,,,,,,,,,978.3310676000001,978.346798300001,978.346798300001,980.7451168000007,,,,980.7453669999995,980.7609670000002,980.7609670000002,980.7609670000002,981.0607287000003,981.0447939000005,,,,,,,,,,,,,,,,up,2.388396800000919,None,space,0.27613779999956023,None,P119,001,2024-11-20_11h02.28.842,posner_endo_new1,2024.2.4,60.044084366681226,2024-11-20 11h02.35.758416 +0000,
-0.31,0.005,58,58,0,down,1.8503089000005275,None,space,0.43183610000050976,None,,,,,,,,,0,58,58,58,981.0607287000003,,,,,,,,,,,,981.0449652999996,981.0607287000003,981.0607287000003,982.9262470000012,,,,982.9265056000004,982.9422451999999,982.9422451999999,982.9422451999999,983.2418876000011,983.3758665000005,,,,,,,,,,,,,,,,down,1.8503089000005275,None,space,0.43183610000050976,None,P119,001,2024-11-20_11h02.28.842,posner_endo_new1,2024.2.4,60.044084366681226,2024-11-20 11h02.35.758416 +0000,
-0.31,0.005,59,59,0,up,1.9427998999999545,None,space,0.40342229999987467,None,,,,,,,,,0,59,59,59,983.3917148,,,,,,,,,,,,983.3760440000005,983.3917148,983.3917148,985.3406109999996,,,,985.3408642000013,985.3562918000007,985.3562918000007,985.3562918000007,985.6558473000005,985.7732691000001,,,,,,,,,,,,,,,,up,1.9427998999999545,None,space,0.40342229999987467,None,P119,001,2024-11-20_11h02.28.842,posner_endo_new1,2024.2.4,60.044084366681226,2024-11-20 11h02.35.758416 +0000,
