target_y,target_x,thisN,thisTrialN,thisRepN,key_control2.keys,key_control2.rt,key_control2.duration,key_resp.keys,key_resp.rt,key_resp.duration,practice.thisRepN,practice.thisTrialN,practice.thisN,practice.thisIndex,session_1.thisRepN,session_1.thisTrialN,session_1.thisN,session_1.thisIndex,session_2.thisRepN,session_2.thisTrialN,session_2.thisN,session_2.thisIndex,thisRow.t,notes,instructions.started,instructions_txt.started,key_control.started,instructions.stopped,key_control.keys,key_control.rt,key_control.duration,ready.started,ready_txt.started,ready.stopped,fix.started,key_control2.started,fixation_cross.started,fix.stopped,practice.key_control2.keys,practice.key_control2.rt,practice.key_control2.duration,target.started,star.started,fixation_cross_target.started,key_resp.started,star.stopped,target.stopped,practice.key_resp.keys,practice.key_resp.rt,practice.key_resp.duration,key_resp.stopped,session_1.key_control2.keys,session_1.key_control2.rt,session_1.key_control2.duration,session_1.key_resp.keys,session_1.key_resp.rt,session_1.key_resp.duration,break_2.started,text.started,key_control3.started,break_2.stopped,key_control3.keys,session_2.key_control2.keys,session_2.key_control2.rt,session_2.key_control2.duration,session_2.key_resp.keys,session_2.key_resp.rt,session_2.key_resp.duration,participant,session,date,expName,psychopyVersion,frameRate,expStart,
,,,,,,,,,,,,,,,,,,,,,,,,,0.007562200000393204,0.025597500000003492,0.025597500000003492,457.7116373000008,up,457.6715163000008,None,,,,,,,,,,,,,,,,,,,,,,,,,,,,,,,,,,,,,,P120,001,2024-11-20_12h56.38.377,posner_endo_new1,2024.2.4,60.08763180233264,2024-11-20 12h56.46.021527 +0000,
,,,,,,,,,,,,,,,,,,,,,,,,,,,,,,,,457.71168899999975,457.7247941000005,460.7216053000011,,,,,,,,,,,,,,,,,,,,,,,,,,,,,,,,,,,P120,001,2024-11-20_12h56.38.377,posner_endo_new1,2024.2.4,60.08763180233264,2024-11-20 12h56.46.021527 +0000,
-0.31,0.005,0,0,0,down,5.8863559999990684,None,space,0.5113070999996125,None,0,0,0,2,,,,,,,,,460.73967360000097,,,,,,,,,,,,460.72858330000054,460.73967360000097,460.73967360000097,466.63294850000057,down,5.8863559999990684,None,466.6332309999998,466.6488807000005,466.6488807000005,466.6488807000005,466.9485994000006,467.1658430000007,space,0.5113070999996125,None,,,,,,,,,,,,,,,,,,,P120,001,2024-11-20_12h56.38.377,posner_endo_new1,2024.2.4,60.08763180233264,2024-11-20 12h56.46.021527 +0000,
-0.31,0.005,1,1,0,up,4.50751720000153,None,space,0.5588088999993488,None,0,1,1,0,,,,,,,,,467.1816379000011,,,,,,,,,,,,467.16600280000057,467.1816379000011,467.1816379000011,471.6946344000007,up,4.50751720000153,None,471.6948816000004,471.7102372999998,471.7102372999998,471.7102372999998,472.01000639999984,472.27712170000086,space,0.5588088999993488,None,,,,,,,,,,,,,,,,,,,P120,001,2024-11-20_12h56.38.377,posner_endo_new1,2024.2.4,60.08763180233264,2024-11-20 12h56.46.021527 +0000,
0.005,0.31,2,2,0,down,3.0283570000010513,None,space,0.413787700001194,None,0,2,2,6,,,,,,,,,472.29317470000024,,,,,,,,,,,,472.2772793000004,472.29317470000024,472.29317470000024,475.32415200000105,down,3.0283570000010513,None,475.3243973999997,475.3400767000003,475.3400767000003,475.3400767000003,475.6396029000007,475.7569488000008,space,0.413787700001194,None,,,,,,,,,,,,,,,,,,,P120,001,2024-11-20_12h56.38.377,posner_endo_new1,2024.2.4,60.08763180233264,2024-11-20 12h56.46.021527 +0000,
0.31,0.005,3,3,0,up,3.2124444999990374,None,space,0.4958590999995067,None,0,3,3,1,,,,,,,,,475.77297069999986,,,,,,,,,,,,475.7571078000001,475.77297069999986,475.77297069999986,478.98707900000045,up,3.2124444999990374,None,478.9873305000001,479.00296290000006,479.00296290000006,479.00296290000006,479.30272630000036,479.5035372000002,space,0.4958590999995067,None,,,,,,,,,,,,,,,,,,,P120,001,2024-11-20_12h56.38.377,posner_endo_new1,2024.2.4,60.08763180233264,2024-11-20 12h56.46.021527 +0000,
0.31,0.005,4,4,0,down,4.562114199999996,None,space,0.5178414999991219,None,0,4,4,3,,,,,,,,,479.5189860999999,,,,,,,,,,,,479.5036885999998,479.5189860999999,479.5189860999999,484.08196940000016,down,4.562114199999996,None,484.08221950000006,484.09739679999984,484.09739679999984,484.09739679999984,484.39754130000074,484.6312854000007,space,0.5178414999991219,None,,,,,,,,,,,,,,,,,,,P120,001,2024-11-20_12h56.38.377,posner_endo_new1,2024.2.4,60.08763180233264,2024-11-20 12h56.46.021527 +0000,
0.005,10,5,5,0,down,9.593545600000652,None,None,,,0,5,5,9,,,,,,,,,484.64704619999975,,,,,,,,,,,,484.63144360000115,484.64704619999975,484.64704619999975,494.25471130000005,down,9.593545600000652,None,494.2549584999997,494.27061070000127,494.27061070000127,494.27061070000127,494.57042980000006,497.26755570000023,None,,,495.2862005999996,,,,,,,,,,,,,,,,,,P120,001,2024-11-20_12h56.38.377,posner_endo_new1,2024.2.4,60.08763180233264,2024-11-20 12h56.46.021527 +0000,
10,0.005,6,6,0,up,1.9242907000007108,None,None,,,0,6,6,4,,,,,,,,,497.2842662000003,,,,,,,,,,,,497.2677137999999,497.2842662000003,497.2842662000003,499.2163674000003,up,1.9242907000007108,None,499.2166106000004,499.2322344000004,499.2322344000004,499.2322344000004,499.53192500000114,502.22928580000007,None,,,500.2479082000009,,,,,,,,,,,,,,,,,,P120,001,2024-11-20_12h56.38.377,posner_endo_new1,2024.2.4,60.08763180233264,2024-11-20 12h56.46.021527 +0000,
0.005,-0.31,7,7,0,down,2.13934479999989,None,space,0.44341089999943506,None,0,7,7,5,,,,,,,,,502.2458349999997,,,,,,,,,,,,502.2294416000004,502.2458349999997,502.2458349999997,504.39440339999965,down,2.13934479999989,None,504.394647000001,504.4102874,504.4102874,504.4102874,504.70989630000076,504.86044349999975,space,0.44341089999943506,None,,,,,,,,,,,,,,,,,,,P120,001,2024-11-20_12h56.38.377,posner_endo_new1,2024.2.4,60.08763180233264,2024-11-20 12h56.46.021527 +0000,
0.005,-0.31,8,8,0,up,5.4042998000004445,None,space,0.4576758000002883,None,0,8,8,7,,,,,,,,,504.87636720000046,,,,,,,,,,,,504.86060160000125,504.87636720000046,504.87636720000046,510.2883562999996,up,5.4042998000004445,None,510.28860520000126,510.30425149999974,510.30425149999974,510.30425149999974,510.60403100000076,510.77128690000063,space,0.4576758000002883,None,,,,,,,,,,,,,,,,,,,P120,001,2024-11-20_12h56.38.377,posner_endo_new1,2024.2.4,60.08763180233264,2024-11-20 12h56.46.021527 +0000,
0.005,0.31,9,9,0,down,3.5981345000000147,None,space,0.5842413999998826,None,0,9,9,8,,,,,,,,,510.7871290000003,,,,,,,,,,,,510.77145050000036,510.7871290000003,510.7871290000003,514.4009052000001,down,3.5981345000000147,None,514.4011518999996,514.4166284000003,514.4166284000003,514.4166284000003,514.7163484000012,515.0167861999998,space,0.5842413999998826,None,,,,,,,,,,,,,,,,,,,P120,001,2024-11-20_12h56.38.377,posner_endo_new1,2024.2.4,60.08763180233264,2024-11-20 12h56.46.021527 +0000,
,,,,,,,,,,,,,,,,,,,,,,,,,,,,,,,,515.0168912000008,515.0326634000012,518.0298500000008,,,,,,,,,,,,,,,,,,,,,,,,,,,,,,,,,,,P120,001,2024-11-20_12h56.38.377,posner_endo_new1,2024.2.4,60.08763180233264,2024-11-20 12h56.46.021527 +0000,
-0.31,0.005,0,0,0,down,20.21671740000056,None,space,0.45255160000124306,None,,,,,0,0,0,0,,,,,518.0485256000011,,,,,,,,,,,,518.0379787000002,518.0485256000011,518.0485256000011,538.2762459000005,,,,538.2765103000002,538.2921643000009,538.2921643000009,538.2921643000009,538.591996000001,538.7591474000001,,,,,down,20.21671740000056,None,space,0.45255160000124306,None,,,,,,,,,,,,P120,001,2024-11-20_12h56.38.377,posner_endo_new1,2024.2.4,60.08763180233264,2024-11-20 12h56.46.021527 +0000,
0.005,0.31,1,1,0,up,2.5696809999990364,None,space,0.49044790000152716,None,,,,,0,1,1,1,,,,,538.7750028999999,,,,,,,,,,,,538.7593123000006,538.7750028999999,538.7750028999999,541.3565705000001,,,,541.3568272000011,541.3723655000013,541.3723655000013,541.3723655000013,541.6722055000009,541.872633500001,,,,,up,2.5696809999990364,None,space,0.49044790000152716,None,,,,,,,,,,,,P120,001,2024-11-20_12h56.38.377,posner_endo_new1,2024.2.4,60.08763180233264,2024-11-20 12h56.46.021527 +0000,
0.31,0.005,2,2,0,down,3.183946500001184,None,space,0.5912605000012263,None,,,,,0,2,2,2,,,,,541.8886165000004,,,,,,,,,,,,541.8727999000002,541.8886165000004,541.8886165000004,545.0861185000012,,,,545.0863664000008,545.1018001000011,545.1018001000011,545.1018001000011,545.4017006000013,545.7019794999997,,,,,down,3.183946500001184,None,space,0.5912605000012263,None,,,,,,,,,,,,P120,001,2024-11-20_12h56.38.377,posner_endo_new1,2024.2.4,60.08763180233264,2024-11-20 12h56.46.021527 +0000,
0.31,0.005,3,3,0,up,4.067495899998903,None,space,0.6238565000003291,None,,,,,0,3,3,3,,,,,545.7180031000007,,,,,,,,,,,,545.7021511000003,545.7180031000007,545.7180031000007,549.7980029000009,,,,549.7982534000002,549.8136909000004,549.8136909000004,549.8136909000004,550.1134081,550.447261700001,,,,,up,4.067495899998903,None,space,0.6238565000003291,None,,,,,,,,,,,,P120,001,2024-11-20_12h56.38.377,posner_endo_new1,2024.2.4,60.08763180233264,2024-11-20 12h56.46.021527 +0000,
-0.31,0.005,4,4,0,down,3.5137972999982594,None,space,0.39648459999989427,None,,,,,0,4,4,4,,,,,550.4631188000003,,,,,,,,,,,,550.4474268000013,550.4631188000003,550.4631188000003,553.9936787999995,,,,553.9939355000006,554.0095572999999,554.0095572999999,554.0095572999999,554.3091132999998,554.4097605000006,,,,,down,3.5137972999982594,None,space,0.39648459999989427,None,,,,,,,,,,,,P120,001,2024-11-20_12h56.38.377,posner_endo_new1,2024.2.4,60.08763180233264,2024-11-20 12h56.46.021527 +0000,
0.005,-0.31,5,5,0,up,5.871092600000338,None,space,0.38939510000091104,None,,,,,0,5,5,5,,,,,554.4257126000011,,,,,,,,,,,,554.4099244000008,554.4257126000011,554.4257126000011,560.3037764000001,,,,560.3040285999996,560.3197328999995,560.3197328999995,560.3197328999995,560.6193789000008,560.7200503000004,,,,,up,5.871092600000338,None,space,0.38939510000091104,None,,,,,,,,,,,,P120,001,2024-11-20_12h56.38.377,posner_endo_new1,2024.2.4,60.08763180233264,2024-11-20 12h56.46.021527 +0000,
0.005,-0.31,6,6,0,down,3.7530975000008766,None,space,0.4693236999992223,None,,,,,0,6,6,6,,,,,560.7359869000011,,,,,,,,,,,,560.7202169000011,560.7359869000011,560.7359869000011,564.4994889000009,,,,564.4997383999998,564.5153731000009,564.5153731000009,564.5153731000009,564.8150826000001,564.9991127000012,,,,,down,3.7530975000008766,None,space,0.4693236999992223,None,,,,,,,,,,,,P120,001,2024-11-20_12h56.38.377,posner_endo_new1,2024.2.4,60.08763180233264,2024-11-20 12h56.46.021527 +0000,
10,0.005,7,7,0,up,3.434368499998527,None,None,,,,,,,0,7,7,7,,,,,565.0149115000004,,,,,,,,,,,,564.9992768000011,565.0149115000004,565.0149115000004,568.4621256999999,,,,568.4623728000006,568.4780128000002,568.4780128000002,568.4780128000002,568.7776570000005,571.4750096999996,,,,569.4937676000009,up,3.434368499998527,None,None,,,,,,,,,,,,,,P120,001,2024-11-20_12h56.38.377,posner_endo_new1,2024.2.4,60.08763180233264,2024-11-20 12h56.46.021527 +0000,
-0.31,0.005,8,8,0,down,1.7732981000008294,None,space,0.4749781999998959,None,,,,,0,8,8,8,,,,,571.491641300001,,,,,,,,,,,,571.4751749999996,571.491641300001,571.491641300001,573.2739421000006,,,,573.2741911000012,573.2899689000005,573.2899689000005,573.2899689000005,573.5894554000006,573.7734338999999,,,,,down,1.7732981000008294,None,space,0.4749781999998959,None,,,,,,,,,,,,P120,001,2024-11-20_12h56.38.377,posner_endo_new1,2024.2.4,60.08763180233264,2024-11-20 12h56.46.021527 +0000,
0.005,0.31,9,9,0,up,3.955153099999734,None,space,0.4786387999993167,None,,,,,0,9,9,9,,,,,573.78946,,,,,,,,,,,,573.7736022999998,573.78946,573.78946,577.7526479999997,,,,577.7528987000005,577.7685406,577.7685406,577.7685406,578.0682450000004,578.2521163000001,,,,,up,3.955153099999734,None,space,0.4786387999993167,None,,,,,,,,,,,,P120,001,2024-11-20_12h56.38.377,posner_endo_new1,2024.2.4,60.08763180233264,2024-11-20 12h56.46.021527 +0000,
0.005,-0.31,10,10,0,down,2.7814636999992217,None,space,0.4539251999995031,None,,,,,0,10,10,10,,,,,578.2678604000012,,,,,,,,,,,,578.2522843999996,578.2678604000012,578.2678604000012,581.0660547000007,,,,581.0663117000004,581.0818266999995,581.0818266999995,581.0818266999995,581.381540800001,581.548765900001,,,,,down,2.7814636999992217,None,space,0.4539251999995031,None,,,,,,,,,,,,P120,001,2024-11-20_12h56.38.377,posner_endo_new1,2024.2.4,60.08763180233264,2024-11-20 12h56.46.021527 +0000,
0.005,0.31,11,11,0,up,3.9651024999984656,None,space,0.5578791999996611,None,,,,,0,11,11,11,,,,,581.5646666000011,,,,,,,,,,,,581.5489318,581.5646666000011,581.5646666000011,585.5446272999998,,,,585.5448759999999,585.5604792000013,585.5604792000013,585.5604792000013,585.8599135000004,586.1273184000001,,,,,up,3.9651024999984656,None,space,0.5578791999996611,None,,,,,,,,,,,,P120,001,2024-11-20_12h56.38.377,posner_endo_new1,2024.2.4,60.08763180233264,2024-11-20 12h56.46.021527 +0000,
10,0.005,12,12,0,down,3.3454311000004964,None,None,,,,,,,0,12,12,12,,,,,586.1433381999996,,,,,,,,,,,,586.1275045000002,586.1433381999996,586.1433381999996,589.4909258999996,,,,589.4911745000009,589.506603400001,589.506603400001,589.506603400001,589.806344300001,592.503495500001,,,,590.5222664000012,down,3.3454311000004964,None,None,,,,,,,,,,,,,,P120,001,2024-11-20_12h56.38.377,posner_endo_new1,2024.2.4,60.08763180233264,2024-11-20 12h56.46.021527 +0000,
0.31,0.005,13,13,0,up,1.0814692999992985,None,space,0.6077817999994295,None,,,,,0,13,13,13,,,,,592.5201335000002,,,,,,,,,,,,592.5036586000006,592.5201335000002,592.5201335000002,593.6032534000005,,,,593.6035097000004,593.6189049000004,593.6189049000004,593.6189049000004,593.9186878,594.2358182999997,,,,,up,1.0814692999992985,None,space,0.6077817999994295,None,,,,,,,,,,,,P120,001,2024-11-20_12h56.38.377,posner_endo_new1,2024.2.4,60.08763180233264,2024-11-20 12h56.46.021527 +0000,
10,0.005,14,14,0,down,3.1893301000000065,None,None,,,,,,,0,14,14,14,,,,,594.2517442999997,,,,,,,,,,,,594.2359827,594.2517442999997,594.2517442999997,597.4489635000009,,,,597.4492138000005,597.4651130000002,597.4651130000002,597.4651130000002,597.7647154999995,600.4621571000007,,,,598.464047200001,down,3.1893301000000065,None,None,,,,,,,,,,,,,,P120,001,2024-11-20_12h56.38.377,posner_endo_new1,2024.2.4,60.08763180233264,2024-11-20 12h56.46.021527 +0000,
-0.31,0.005,15,15,0,up,1.3627663000006578,None,space,0.8071766000011849,None,,,,,0,15,15,15,,,,,600.4785826999996,,,,,,,,,,,,600.4623217000008,600.4785826999996,600.4785826999996,601.8446101999998,,,,601.8448606000002,601.8604532000008,601.8604532000008,601.8604532000008,602.1601877000012,602.6772990000009,,,,,up,1.3627663000006578,None,space,0.8071766000011849,None,,,,,,,,,,,,P120,001,2024-11-20_12h56.38.377,posner_endo_new1,2024.2.4,60.08763180233264,2024-11-20 12h56.46.021527 +0000,
0.005,-0.31,16,16,0,down,3.2284980999993422,None,space,0.40002280000044266,None,,,,,0,16,16,16,,,,,602.6929184,,,,,,,,,,,,602.6774633000005,602.6929184,602.6929184,605.9240843000007,,,,605.9243372000001,605.9402384000005,605.9402384000005,605.9402384000005,606.2393909000002,606.3567671000001,,,,,down,3.2284980999993422,None,space,0.40002280000044266,None,,,,,,,,,,,,P120,001,2024-11-20_12h56.38.377,posner_endo_new1,2024.2.4,60.08763180233264,2024-11-20 12h56.46.021527 +0000,
0.005,0.31,17,17,0,up,3.3730109999996785,None,space,0.387521900000138,None,,,,,0,17,17,17,,,,,606.3725759999998,,,,,,,,,,,,606.3569324,606.3725759999998,606.3725759999998,609.7531200000012,,,,609.7533695000002,609.7691395000002,609.7691395000002,609.7691395000002,610.0687995999997,610.1695006000009,,,,,up,3.3730109999996785,None,space,0.387521900000138,None,,,,,,,,,,,,P120,001,2024-11-20_12h56.38.377,posner_endo_new1,2024.2.4,60.08763180233264,2024-11-20 12h56.46.021527 +0000,
-0.31,0.005,18,18,0,down,3.111342900001546,None,space,0.43673839999974007,None,,,,,0,18,18,18,,,,,610.1853724000011,,,,,,,,,,,,610.1696661000005,610.1853724000011,610.1853724000011,613.2995761000002,,,,613.2998258000007,613.3155392000008,613.3155392000008,613.3155392000008,613.6152765999996,613.7657250000011,,,,,down,3.111342900001546,None,space,0.43673839999974007,None,,,,,,,,,,,,P120,001,2024-11-20_12h56.38.377,posner_endo_new1,2024.2.4,60.08763180233264,2024-11-20 12h56.46.021527 +0000,
10,0.005,19,19,0,up,4.218937800000276,None,None,,,,,,,0,19,19,19,,,,,613.7816158000005,,,,,,,,,,,,613.7658955999996,613.7816158000005,613.7816158000005,618.0113367000013,,,,618.0115936000002,618.0273557,618.0273557,618.0273557,618.3271395000011,621.0241886000003,,,,619.0430809999998,up,4.218937800000276,None,None,,,,,,,,,,,,,,P120,001,2024-11-20_12h56.38.377,posner_endo_new1,2024.2.4,60.08763180233264,2024-11-20 12h56.46.021527 +0000,
0.005,0.31,20,20,0,down,0.8559401000002254,None,space,0.380137600001035,None,,,,,0,20,20,20,,,,,621.0409061000009,,,,,,,,,,,,621.0243513000005,621.0409061000009,621.0409061000009,621.907522200001,,,,621.9077679000002,621.9234342,621.9234342,621.9234342,622.2231444999998,622.3072582000004,,,,,down,0.8559401000002254,None,space,0.380137600001035,None,,,,,,,,,,,,P120,001,2024-11-20_12h56.38.377,posner_endo_new1,2024.2.4,60.08763180233264,2024-11-20 12h56.46.021527 +0000,
0.005,-0.31,21,21,0,up,3.750793299999714,None,space,0.7250803000006272,None,,,,,0,21,21,21,,,,,622.3230565000013,,,,,,,,,,,,622.307423100001,622.3230565000013,622.3230565000013,626.0866585000003,,,,626.0869051999998,626.1023689000012,626.1023689000012,626.1023689000012,626.4021809000005,626.8359825000007,,,,,up,3.750793299999714,None,space,0.7250803000006272,None,,,,,,,,,,,,P120,001,2024-11-20_12h56.38.377,posner_endo_new1,2024.2.4,60.08763180233264,2024-11-20 12h56.46.021527 +0000,
0.005,0.31,22,22,0,down,3.3340121999990515,None,space,0.3013224000005721,None,,,,,0,22,22,22,,,,,626.8517181000007,,,,,,,,,,,,626.8361492000004,626.8517181000007,626.8517181000007,630.1990105000004,,,,630.1992568000005,630.2149941000007,630.2149941000007,630.2149941000007,630.5145393000003,630.5320792000002,,,,,down,3.3340121999990515,None,space,0.3013224000005721,None,,,,,,,,,,,,P120,001,2024-11-20_12h56.38.377,posner_endo_new1,2024.2.4,60.08763180233264,2024-11-20 12h56.46.021527 +0000,
0.31,0.005,23,23,0,up,2.804947300001004,None,space,0.28479689999949187,None,,,,,0,23,23,23,,,,,630.5478192999999,,,,,,,,,,,,630.5322451000011,630.5478192999999,630.5478192999999,633.3624252000009,,,,633.3626784999997,633.378307500001,633.378307500001,633.378307500001,633.6779772999998,633.6788068000005,,,,,up,2.804947300001004,None,space,0.28479689999949187,None,,,,,,,,,,,,P120,001,2024-11-20_12h56.38.377,posner_endo_new1,2024.2.4,60.08763180233264,2024-11-20 12h56.46.021527 +0000,
0.005,0.31,24,24,0,down,3.186026100000163,None,space,0.2866128999994544,None,,,,,0,24,24,24,,,,,633.6946403000002,,,,,,,,,,,,633.6789700000008,633.6946403000002,633.6946403000002,636.892122700001,,,,636.8923814000009,636.9079930999997,636.9079930999997,636.9079930999997,637.2076230000002,637.2084504000013,,,,,down,3.186026100000163,None,space,0.2866128999994544,None,,,,,,,,,,,,P120,001,2024-11-20_12h56.38.377,posner_endo_new1,2024.2.4,60.08763180233264,2024-11-20 12h56.46.021527 +0000,
0.31,0.005,25,25,0,up,3.12852600000042,None,space,0.34936150000066846,None,,,,,0,25,25,25,,,,,637.2243548999995,,,,,,,,,,,,637.2086149000006,637.2243548999995,637.2243548999995,640.3554631000006,,,,640.3557130000008,640.3711627000012,640.3711627000012,640.3711627000012,640.6708517999996,640.7219332000004,,,,,up,3.12852600000042,None,space,0.34936150000066846,None,,,,,,,,,,,,P120,001,2024-11-20_12h56.38.377,posner_endo_new1,2024.2.4,60.08763180233264,2024-11-20 12h56.46.021527 +0000,
10,0.005,26,26,0,down,3.696009100000083,None,None,,,,,,,0,26,26,26,,,,,640.7375759999995,,,,,,,,,,,,640.7220949000002,640.7375759999995,640.7375759999995,644.4345709999998,,,,644.4348250000003,644.4503586999999,644.4503586999999,644.4503586999999,644.750109300001,647.4472605999999,,,,645.4658624000003,down,3.696009100000083,None,None,,,,,,,,,,,,,,P120,001,2024-11-20_12h56.38.377,posner_endo_new1,2024.2.4,60.08763180233264,2024-11-20 12h56.46.021527 +0000,
10,0.005,27,27,0,up,2.3216372999995656,None,None,,,,,,,0,27,27,27,,,,,647.4636577000001,,,,,,,,,,,,647.4474258999999,647.4636577000001,647.4636577000001,649.7956365999999,,,,649.7958835000009,649.811636800001,649.811636800001,649.811636800001,650.1113292999999,652.8085762999999,,,,650.8269175000005,up,2.3216372999995656,None,None,,,,,,,,,,,,,,P120,001,2024-11-20_12h56.38.377,posner_endo_new1,2024.2.4,60.08763180233264,2024-11-20 12h56.46.021527 +0000,
0.005,-0.31,28,28,0,down,1.920051199998852,None,space,0.5103397999992012,None,,,,,0,28,28,28,,,,,652.8250879000007,,,,,,,,,,,,652.8087482999999,652.8250879000007,652.8250879000007,654.7571908000009,,,,654.7574552000005,654.7730362000002,654.7730362000002,654.7730362000002,655.0727377000003,655.2899981999999,,,,,down,1.920051199998852,None,space,0.5103397999992012,None,,,,,,,,,,,,P120,001,2024-11-20_12h56.38.377,posner_endo_new1,2024.2.4,60.08763180233264,2024-11-20 12h56.46.021527 +0000,
0.31,0.005,29,29,0,up,3.087128600000142,None,space,0.4383751999994274,None,,,,,0,29,29,29,,,,,655.3059064999998,,,,,,,,,,,,655.2901634999998,655.3059064999998,655.3059064999998,658.4035980999997,,,,658.4038481000007,658.4192753000007,658.4192753000007,658.4192753000007,658.7190607000011,658.8697281000004,,,,,up,3.087128600000142,None,space,0.4383751999994274,None,,,,,,,,,,,,P120,001,2024-11-20_12h56.38.377,posner_endo_new1,2024.2.4,60.08763180233264,2024-11-20 12h56.46.021527 +0000,
10,0.005,30,30,0,down,3.7641705999994883,None,None,,,,,,,0,30,30,30,,,,,658.8855885000012,,,,,,,,,,,,658.8698936000001,658.8855885000012,658.8855885000012,662.6657202999995,,,,662.6659765000004,662.6816956000002,662.6816956000002,662.6816956000002,662.9814320000005,665.6786881000007,,,,663.6805669000005,down,3.7641705999994883,None,None,,,,,,,,,,,,,,P120,001,2024-11-20_12h56.38.377,posner_endo_new1,2024.2.4,60.08763180233264,2024-11-20 12h56.46.021527 +0000,
0.31,0.005,31,31,0,up,0.6896701999994548,None,space,0.4338883000000351,None,,,,,0,31,31,31,,,,,665.6953469,,,,,,,,,,,,665.6788527000008,665.6953469,665.6953469,666.3952902000001,,,,666.3955391,666.4112280999998,666.4112280999998,666.4112280999998,666.7108839000011,666.8614569000001,,,,,up,0.6896701999994548,None,space,0.4338883000000351,None,,,,,,,,,,,,P120,001,2024-11-20_12h56.38.377,posner_endo_new1,2024.2.4,60.08763180233264,2024-11-20 12h56.46.021527 +0000,
0.31,0.005,32,32,0,down,3.5235722999987047,None,space,0.348539399999936,None,,,,,0,32,32,32,,,,,666.8774408000008,,,,,,,,,,,,666.8616204999998,666.8774408000008,666.8774408000008,670.4078902000001,,,,670.4081475000003,670.4237290000001,670.4237290000001,670.4237290000001,670.7234097,670.7744399000003,,,,,down,3.5235722999987047,None,space,0.348539399999936,None,,,,,,,,,,,,P120,001,2024-11-20_12h56.38.377,posner_endo_new1,2024.2.4,60.08763180233264,2024-11-20 12h56.46.021527 +0000,
10,0.005,33,33,0,up,3.0116920999989816,None,None,,,,,,,0,33,33,33,,,,,670.7900604000006,,,,,,,,,,,,670.7746050000005,670.7900604000006,670.7900604000006,673.8044803000012,,,,673.8047397000009,673.8201895000002,673.8201895000002,673.8201895000002,674.1198247000011,676.8173556000002,,,,674.8188917000007,up,3.0116920999989816,None,None,,,,,,,,,,,,,,P120,001,2024-11-20_12h56.38.377,posner_endo_new1,2024.2.4,60.08763180233264,2024-11-20 12h56.46.021527 +0000,
0.005,-0.31,34,34,0,down,0.26363120000132767,None,space,0.3994486000010511,None,,,,,0,34,34,34,,,,,676.8338843000001,,,,,,,,,,,,676.8175189000012,676.8338843000001,676.8338843000001,677.1009652000012,,,,677.1012135000001,677.1169210000007,677.1169210000007,677.1169210000007,677.4165929999999,677.5174102000001,,,,,down,0.26363120000132767,None,space,0.3994486000010511,None,,,,,,,,,,,,P120,001,2024-11-20_12h56.38.377,posner_endo_new1,2024.2.4,60.08763180233264,2024-11-20 12h56.46.021527 +0000,
-0.31,0.005,35,35,0,up,3.948269900000014,None,space,0.5003923000003851,None,,,,,0,35,35,35,,,,,677.5332156000004,,,,,,,,,,,,677.5175837999996,677.5332156000004,677.5332156000004,681.4964686000003,,,,681.4967201,681.5123702000001,681.5123702000001,681.5123702000001,681.8120154999997,682.0294231999997,,,,,up,3.948269900000014,None,space,0.5003923000003851,None,,,,,,,,,,,,P120,001,2024-11-20_12h56.38.377,posner_endo_new1,2024.2.4,60.08763180233264,2024-11-20 12h56.46.021527 +0000,
-0.31,0.005,36,36,0,down,3.5239870000004885,None,space,0.4179165000005014,None,,,,,0,36,36,36,,,,,682.045303500001,,,,,,,,,,,,682.0295899000012,682.045303500001,682.045303500001,685.5757157999997,,,,685.575964900001,685.5915088000002,685.5915088000002,685.5915088000002,685.8911461999996,686.0252820000005,,,,,down,3.5239870000004885,None,space,0.4179165000005014,None,,,,,,,,,,,,P120,001,2024-11-20_12h56.38.377,posner_endo_new1,2024.2.4,60.08763180233264,2024-11-20 12h56.46.021527 +0000,
10,0.005,37,37,0,up,3.256483900000603,None,None,,,,,,,0,37,37,37,,,,,686.0409966999996,,,,,,,,,,,,686.0254485000005,686.0409966999996,686.0409966999996,689.3053474999997,,,,689.305597300001,689.3209600000009,689.3209600000009,689.3209600000009,689.6208938,692.3182436000006,,,,690.3199715999999,up,3.256483900000603,None,None,,,,,,,,,,,,,,P120,001,2024-11-20_12h56.38.377,posner_endo_new1,2024.2.4,60.08763180233264,2024-11-20 12h56.46.021527 +0000,
0.005,0.31,38,38,0,down,0.26629460000003746,None,space,0.3396815999985847,None,,,,,0,38,38,38,,,,,692.3346312000012,,,,,,,,,,,,692.3184099000009,692.3346312000012,692.3346312000012,692.6019452,,,,692.6022024000013,692.6177220000009,692.6177220000009,692.6177220000009,692.9174776,692.9681851000005,,,,,down,0.26629460000003746,None,space,0.3396815999985847,None,,,,,,,,,,,,P120,001,2024-11-20_12h56.38.377,posner_endo_new1,2024.2.4,60.08763180233264,2024-11-20 12h56.46.021527 +0000,
0.005,-0.31,39,39,0,up,3.872570800000176,None,space,0.4457220000003872,None,,,,,0,39,39,39,,,,,692.9840617000009,,,,,,,,,,,,692.9683519999999,692.9840617000009,692.9840617000009,696.8640871000007,,,,696.8643355000004,696.8799455000008,696.8799455000008,696.8799455000008,697.1797349000008,697.3303274999998,,,,,up,3.872570800000176,None,space,0.4457220000003872,None,,,,,,,,,,,,P120,001,2024-11-20_12h56.38.377,posner_endo_new1,2024.2.4,60.08763180233264,2024-11-20 12h56.46.021527 +0000,
0.31,0.005,40,40,0,down,3.599497400000473,None,space,0.4818779999986873,None,,,,,0,40,40,40,,,,,697.3461077000011,,,,,,,,,,,,697.3304970000008,697.3461077000011,697.3461077000011,700.9599525000012,,,,700.9602008000002,700.9758923000009,700.9758923000009,700.9758923000009,701.275536000001,701.4595974000003,,,,,down,3.599497400000473,None,space,0.4818779999986873,None,,,,,,,,,,,,P120,001,2024-11-20_12h56.38.377,posner_endo_new1,2024.2.4,60.08763180233264,2024-11-20 12h56.46.021527 +0000,
-0.31,0.005,41,41,0,up,3.965389499999219,None,space,0.31406069999866304,None,,,,,0,41,41,41,,,,,701.475378000001,,,,,,,,,,,,701.4597676000012,701.475378000001,701.475378000001,705.4552209000012,,,,705.4554700999997,705.4711688000007,705.4711688000007,705.4711688000007,705.7709491000005,705.7884133999996,,,,,up,3.965389499999219,None,space,0.31406069999866304,None,,,,,,,,,,,,P120,001,2024-11-20_12h56.38.377,posner_endo_new1,2024.2.4,60.08763180233264,2024-11-20 12h56.46.021527 +0000,
0.31,0.005,42,42,0,down,3.8687448000000586,None,space,0.5037403000005725,None,,,,,0,42,42,42,,,,,705.8042839999998,,,,,,,,,,,,705.7885770000012,705.8042839999998,705.8042839999998,709.6843948000005,,,,709.6846404000007,709.7002607000013,709.7002607000013,709.7002607000013,709.9999031999996,710.2170901999998,,,,,down,3.8687448000000586,None,space,0.5037403000005725,None,,,,,,,,,,,,P120,001,2024-11-20_12h56.38.377,posner_endo_new1,2024.2.4,60.08763180233264,2024-11-20 12h56.46.021527 +0000,
10,0.005,43,43,0,up,3.1776087999987794,None,None,,,,,,,0,43,43,43,,,,,710.2329988000001,,,,,,,,,,,,710.2172580999995,710.2329988000001,710.2329988000001,713.413966600001,,,,713.4142167000009,713.4298737999998,713.4298737999998,713.4298737999998,713.7294588000004,716.4268978,,,,714.4450883000009,up,3.1776087999987794,None,None,,,,,,,,,,,,,,P120,001,2024-11-20_12h56.38.377,posner_endo_new1,2024.2.4,60.08763180233264,2024-11-20 12h56.46.021527 +0000,
-0.31,0.005,44,44,0,down,0.10124600000017381,None,space,0.2978844000008394,None,,,,,0,44,44,44,,,,,716.4436103000007,,,,,,,,,,,,716.4270639000006,716.4436103000007,716.4436103000007,716.5606635000004,,,,716.5609115000007,716.5764894000004,716.5764894000004,716.5764894000004,716.8759925000013,716.8768947000008,,,,,down,0.10124600000017381,None,space,0.2978844000008394,None,,,,,,,,,,,,P120,001,2024-11-20_12h56.38.377,posner_endo_new1,2024.2.4,60.08763180233264,2024-11-20 12h56.46.021527 +0000,
0.005,0.31,45,45,0,up,4.2527884999999515,None,space,0.36820650000117894,None,,,,,0,45,45,45,,,,,716.8929289000007,,,,,,,,,,,,716.8770574999999,716.8929289000007,716.8929289000007,721.1556930000006,,,,721.1559592000012,721.1719379000006,721.1719379000006,721.1719379000006,721.4715001000004,721.5554888999995,,,,,up,4.2527884999999515,None,space,0.36820650000117894,None,,,,,,,,,,,,P120,001,2024-11-20_12h56.38.377,posner_endo_new1,2024.2.4,60.08763180233264,2024-11-20 12h56.46.021527 +0000,
0.005,-0.31,46,46,0,down,3.3972464999988006,None,space,0.5578236000001198,None,,,,,0,46,46,46,,,,,721.5713726000013,,,,,,,,,,,,721.5556553999995,721.5713726000013,721.5713726000013,724.9853363000002,,,,724.9855846999999,725.001173300001,725.001173300001,725.001173300001,725.3009390999996,725.5682102999999,,,,,down,3.3972464999988006,None,space,0.5578236000001198,None,,,,,,,,,,,,P120,001,2024-11-20_12h56.38.377,posner_endo_new1,2024.2.4,60.08763180233264,2024-11-20 12h56.46.021527 +0000,
-0.31,0.005,47,47,0,up,2.9935851999998704,None,space,0.5743280000006052,None,,,,,0,47,47,47,,,,,725.5839742000007,,,,,,,,,,,,725.5683719999997,725.5839742000007,725.5839742000007,728.5815696000009,,,,728.5818185000007,728.5976401999997,728.5976401999997,728.5976401999997,728.8972668000006,729.1812191000008,,,,,up,2.9935851999998704,None,space,0.5743280000006052,None,,,,,,,,,,,,P120,001,2024-11-20_12h56.38.377,posner_endo_new1,2024.2.4,60.08763180233264,2024-11-20 12h56.46.021527 +0000,
0.005,-0.31,48,48,0,down,2.716650299998946,None,space,0.3976493999998638,None,,,,,0,48,48,48,,,,,729.1968821999999,,,,,,,,,,,,729.1813825000008,729.1968821999999,729.1968821999999,731.9282624999996,,,,731.9285106000007,731.9438831000007,731.9438831000007,731.9438831000007,732.2436709000012,732.3444915,,,,,down,2.716650299998946,None,space,0.3976493999998638,None,,,,,,,,,,,,P120,001,2024-11-20_12h56.38.377,posner_endo_new1,2024.2.4,60.08763180233264,2024-11-20 12h56.46.021527 +0000,
0.005,-0.31,49,49,0,up,3.264403499999389,None,space,0.2653886000007333,None,,,,,0,49,49,49,,,,,732.3605602000007,,,,,,,,,,,,732.344661000001,732.3605602000007,732.3605602000007,735.6412109000012,,,,735.6414619999996,735.6570647000008,735.6570647000008,735.6570647000008,,735.9243328000011,,,,,up,3.264403499999389,None,space,0.2653886000007333,None,,,,,,,,,,,,P120,001,2024-11-20_12h56.38.377,posner_endo_new1,2024.2.4,60.08763180233264,2024-11-20 12h56.46.021527 +0000,
0.005,0.31,50,50,0,down,3.429385600000387,None,space,0.3981495999996696,None,,,,,0,50,50,50,,,,,735.9403223000008,,,,,,,,,,,,735.924503100001,735.9403223000008,735.9403223000008,739.3707235000002,,,,739.3709751999995,739.3864271000002,739.3864271000002,739.3864271000002,739.6863274000007,739.7870550999996,,,,,down,3.429385600000387,None,space,0.3981495999996696,None,,,,,,,,,,,,P120,001,2024-11-20_12h56.38.377,posner_endo_new1,2024.2.4,60.08763180233264,2024-11-20 12h56.46.021527 +0000,
0.31,0.005,51,51,0,up,2.365897399999085,None,space,0.3595852999987983,None,,,,,0,51,51,51,,,,,739.8027832000007,,,,,,,,,,,,739.7872292000011,739.8027832000007,739.8027832000007,742.1844602000001,,,,742.1847173999995,742.2002615000001,742.2002615000001,742.2002615000001,742.4999277999996,742.5676572000011,,,,,up,2.365897399999085,None,space,0.3595852999987983,None,,,,,,,,,,,,P120,001,2024-11-20_12h56.38.377,posner_endo_new1,2024.2.4,60.08763180233264,2024-11-20 12h56.46.021527 +0000,
0.31,0.005,52,52,0,down,3.738191899999947,None,space,0.3430617000012717,None,,,,,0,52,52,52,,,,,742.5832592999996,,,,,,,,,,,,742.5678198000005,742.5832592999996,742.5832592999996,746.3302270000004,,,,746.3304812000006,746.3460539000007,746.3460539000007,746.3460539000007,746.6458497000003,746.6964251999998,,,,,down,3.738191899999947,None,space,0.3430617000012717,None,,,,,,,,,,,,P120,001,2024-11-20_12h56.38.377,posner_endo_new1,2024.2.4,60.08763180233264,2024-11-20 12h56.46.021527 +0000,
0.005,0.31,53,53,0,up,4.14580560000104,None,space,0.2980033000003459,None,,,,,0,53,53,53,,,,,746.7124082999999,,,,,,,,,,,,746.6965954999996,746.7124082999999,746.7124082999999,750.8590127000007,,,,750.8592683999996,750.8748456000012,750.8748456000012,750.8748456000012,751.1742391999996,751.1751392000006,,,,,up,4.14580560000104,None,space,0.2980033000003459,None,,,,,,,,,,,,P120,001,2024-11-20_12h56.38.377,posner_endo_new1,2024.2.4,60.08763180233264,2024-11-20 12h56.46.021527 +0000,
-0.31,0.005,54,54,0,down,4.169542699999511,None,space,0.3871827000002668,None,,,,,0,54,54,54,,,,,751.1910423000008,,,,,,,,,,,,751.1753010000011,751.1910423000008,751.1910423000008,755.3709503999999,,,,755.3712071999998,755.3869327000011,755.3869327000011,755.3869327000011,755.6865331999998,755.7871845000009,,,,,down,4.169542699999511,None,space,0.3871827000002668,None,,,,,,,,,,,,P120,001,2024-11-20_12h56.38.377,posner_endo_new1,2024.2.4,60.08763180233264,2024-11-20 12h56.46.021527 +0000,
10,0.005,55,55,0,up,2.8541226999986975,None,None,,,,,,,0,55,55,55,,,,,755.8031518000007,,,,,,,,,,,,755.7873517999997,755.8031518000007,755.8031518000007,758.667730000001,,,,758.6679783,758.683525800001,758.683525800001,758.683525800001,758.9830903000002,761.6804819000008,,,,759.6991639999997,up,2.8541226999986975,None,None,,,,,,,,,,,,,,P120,001,2024-11-20_12h56.38.377,posner_endo_new1,2024.2.4,60.08763180233264,2024-11-20 12h56.46.021527 +0000,
0.31,0.005,56,56,0,down,2.2638975999998365,None,space,0.3651171000001341,None,,,,,0,56,56,56,,,,,761.6970529000009,,,,,,,,,,,,761.6806413000013,761.6970529000009,761.6970529000009,763.9621463000003,,,,763.9623959,763.9780781000009,763.9780781000009,763.9780781000009,764.2777738000004,764.3452410999998,,,,,down,2.2638975999998365,None,space,0.3651171000001341,None,,,,,,,,,,,,P120,001,2024-11-20_12h56.38.377,posner_endo_new1,2024.2.4,60.08763180233264,2024-11-20 12h56.46.021527 +0000,
0.005,0.31,57,57,0,up,3.6318350000001374,None,space,0.4508525999990525,None,,,,,0,57,57,57,,,,,764.3609329999999,,,,,,,,,,,,764.345402500001,764.3609329999999,764.3609329999999,768.0079634000012,,,,768.0082143,768.024014300001,768.024014300001,768.024014300001,768.3234881000008,768.4909700999997,,,,,up,3.6318350000001374,None,space,0.4508525999990525,None,,,,,,,,,,,,P120,001,2024-11-20_12h56.38.377,posner_endo_new1,2024.2.4,60.08763180233264,2024-11-20 12h56.46.021527 +0000,
-0.31,0.005,58,58,0,down,4.166324699999677,None,space,0.3137055999995937,None,,,,,0,58,58,58,,,,,768.506665500001,,,,,,,,,,,,768.4911432999997,768.506665500001,768.506665500001,772.6867235999998,,,,772.6869705000008,772.7025763000001,772.7025763000001,772.7025763000001,773.0019751,773.0196467000005,,,,,down,4.166324699999677,None,space,0.3137055999995937,None,,,,,,,,,,,,P120,001,2024-11-20_12h56.38.377,posner_endo_new1,2024.2.4,60.08763180233264,2024-11-20 12h56.46.021527 +0000,
-0.31,0.005,59,59,0,up,3.837081199999375,None,space,0.4056164000012359,None,,,,,0,59,59,59,,,,,773.0355147000009,,,,,,,,,,,,773.0198099999998,773.0355147000009,773.0355147000009,776.8823006000002,,,,776.8825467000006,776.8979032000007,776.8979032000007,776.8979032000007,777.1979035000004,777.3152050000008,,,,,up,3.837081199999375,None,space,0.4056164000012359,None,,,,,,,,,,,,P120,001,2024-11-20_12h56.38.377,posner_endo_new1,2024.2.4,60.08763180233264,2024-11-20 12h56.46.021527 +0000,
,,,,,,,,,,,,,,,,,,,,,,,,,,,,,,,,,,,,,,,,,,,,,,,,,,,,,,,,,,777.3153198,777.3310046999995,777.3310046999995,837.3036341999996,None,,,,,,,P120,001,2024-11-20_12h56.38.377,posner_endo_new1,2024.2.4,60.08763180233264,2024-11-20 12h56.46.021527 +0000,
,,,,,,,,,,,,,,,,,,,,,,,,,,,,,,,,837.3036838000007,837.3197147999999,840.3167589000004,,,,,,,,,,,,,,,,,,,,,,,,,,,,,,,,,,,P120,001,2024-11-20_12h56.38.377,posner_endo_new1,2024.2.4,60.08763180233264,2024-11-20 12h56.46.021527 +0000,
0.005,0.31,0,0,0,down,22.617822700000033,None,space,0.37607930000012857,None,,,,,,,,,0,0,0,0,840.3357343999996,,,,,,,,,,,,840.3251515000011,840.3357343999996,840.3357343999996,862.9607887000002,,,,862.961046800001,862.9768529000012,862.9768529000012,862.9768529000012,863.2764469000012,863.3608347999998,,,,,,,,,,,,,,,,down,22.617822700000033,None,space,0.37607930000012857,None,P120,001,2024-11-20_12h56.38.377,posner_endo_new1,2024.2.4,60.08763180233264,2024-11-20 12h56.46.021527 +0000,
-0.31,0.005,1,1,0,up,3.4981033000003663,None,space,0.4312329000003956,None,,,,,,,,,0,1,1,1,863.3763811999997,,,,,,,,,,,,863.3610040000003,863.3763811999997,863.3763811999997,866.890319600001,,,,866.8905687000006,866.9061304999996,866.9061304999996,866.9061304999996,867.2060574999996,867.3398551999999,,,,,,,,,,,,,,,,up,3.4981033000003663,None,space,0.4312329000003956,None,P120,001,2024-11-20_12h56.38.377,posner_endo_new1,2024.2.4,60.08763180233264,2024-11-20 12h56.46.021527 +0000,
0.005,-0.31,2,2,0,down,3.357286100001147,None,space,0.342610000001514,None,,,,,,,,,0,2,2,2,867.3555735999998,,,,,,,,,,,,867.3400230999996,867.3555735999998,867.3555735999998,870.7196371999999,,,,870.7198876000002,870.7354625999997,870.7354625999997,870.7354625999997,871.0352882999996,871.0859209000009,,,,,,,,,,,,,,,,down,3.357286100001147,None,space,0.342610000001514,None,P120,001,2024-11-20_12h56.38.377,posner_endo_new1,2024.2.4,60.08763180233264,2024-11-20 12h56.46.021527 +0000,
0.31,0.005,3,3,0,up,2.915240600001198,None,space,0.2767035000015312,None,,,,,,,,,0,3,3,3,871.1017052999996,,,,,,,,,,,,871.0860842000002,871.1017052999996,871.1017052999996,874.0327643,,,,874.033023,874.0487673999996,874.0487673999996,874.0487673999996,874.3485111999998,874.3325083,,,,,,,,,,,,,,,,up,2.915240600001198,None,space,0.2767035000015312,None,P120,001,2024-11-20_12h56.38.377,posner_endo_new1,2024.2.4,60.08763180233264,2024-11-20 12h56.46.021527 +0000,
0.005,0.31,4,4,0,down,2.901006000000052,None,space,0.34632069999861415,None,,,,,,,,,0,4,4,4,874.3485111999998,,,,,,,,,,,,874.332679000001,874.3485111999998,874.3485111999998,877.2629156000003,,,,877.2631658000009,877.2788847000011,877.2788847000011,877.2788847000011,877.5785407000003,877.6293533999997,,,,,,,,,,,,,,,,down,2.901006000000052,None,space,0.34632069999861415,None,P120,001,2024-11-20_12h56.38.377,posner_endo_new1,2024.2.4,60.08763180233264,2024-11-20 12h56.46.021527 +0000,
0.005,-0.31,5,5,0,up,3.8124513999991905,None,space,0.395757299998877,None,,,,,,,,,0,5,5,5,877.645174700001,,,,,,,,,,,,877.6295189000011,877.645174700001,877.645174700001,881.4587451000007,,,,881.4589945000007,881.4745428000006,881.4745428000006,881.4745428000006,881.7743071000004,881.8751897000002,,,,,,,,,,,,,,,,up,3.8124513999991905,None,space,0.395757299998877,None,P120,001,2024-11-20_12h56.38.377,posner_endo_new1,2024.2.4,60.08763180233264,2024-11-20 12h56.46.021527 +0000,
-0.31,0.005,6,6,0,down,3.358118399999512,None,space,0.5095075999997789,None,,,,,,,,,0,6,6,6,881.8908748000013,,,,,,,,,,,,881.8753575999999,881.8908748000013,881.8908748000013,885.2548812000005,,,,885.2551483000007,885.2707148999998,885.2707148999998,885.2707148999998,885.5703737000003,885.7875267,,,,,,,,,,,,,,,,down,3.358118399999512,None,space,0.5095075999997789,None,P120,001,2024-11-20_12h56.38.377,posner_endo_new1,2024.2.4,60.08763180233264,2024-11-20 12h56.46.021527 +0000,
0.005,0.31,7,7,0,up,3.078773100000035,None,space,0.3232481999984884,None,,,,,,,,,0,7,7,7,885.8034742,,,,,,,,,,,,885.7876919999999,885.8034742,885.8034742,888.8845398000012,,,,888.8847968999999,888.9004048999996,888.9004048999996,888.9004048999996,889.2000133000001,889.2339296999999,,,,,,,,,,,,,,,,up,3.078773100000035,None,space,0.3232481999984884,None,P120,001,2024-11-20_12h56.38.377,posner_endo_new1,2024.2.4,60.08763180233264,2024-11-20 12h56.46.021527 +0000,
0.31,0.005,8,8,0,down,3.415020899999945,None,space,0.33397820000027423,None,,,,,,,,,0,8,8,8,889.2498157999999,,,,,,,,,,,,889.2340985999999,889.2498157999999,889.2498157999999,892.6806041,,,,892.6808517000009,892.6963781000013,892.6963781000013,892.6963781000013,892.9958394000005,893.0467583999998,,,,,,,,,,,,,,,,down,3.415020899999945,None,space,0.33397820000027423,None,P120,001,2024-11-20_12h56.38.377,posner_endo_new1,2024.2.4,60.08763180233264,2024-11-20 12h56.46.021527 +0000,
10,0.005,9,9,0,up,3.306614699999045,None,None,,,,,,,,,,,0,9,9,9,893.0627163999998,,,,,,,,,,,,893.0469245000004,893.0627163999998,893.0627163999998,896.376900700001,,,,896.3771475000012,896.3926744,896.3926744,896.3926744,896.6921885000011,899.389667200001,,,,897.4083585999997,,,,,,,,,,,,up,3.306614699999045,None,None,,,P120,001,2024-11-20_12h56.38.377,posner_endo_new1,2024.2.4,60.08763180233264,2024-11-20 12h56.46.021527 +0000,
0.31,0.005,10,10,0,down,1.4029076999995596,None,space,0.31530000000020664,None,,,,,,,,,0,10,10,10,899.4063008000012,,,,,,,,,,,,899.3898303000005,899.4063008000012,899.4063008000012,900.8221616999999,,,,900.8224255000005,900.8381743999998,900.8381743999998,900.8381743999998,901.1378346000001,901.1553392000005,,,,,,,,,,,,,,,,down,1.4029076999995596,None,space,0.31530000000020664,None,P120,001,2024-11-20_12h56.38.377,posner_endo_new1,2024.2.4,60.08763180233264,2024-11-20 12h56.46.021527 +0000,
0.005,0.31,11,11,0,up,3.6138717999983783,None,space,0.413265399998636,None,,,,,,,,,0,11,11,11,901.1711054999996,,,,,,,,,,,,901.1555226,901.1711054999996,901.1711054999996,904.8014906999997,,,,904.8017412000008,904.8173449000005,904.8173449000005,904.8173449000005,905.1169870000012,905.2344293000006,,,,,,,,,,,,,,,,up,3.6138717999983783,None,space,0.413265399998636,None,P120,001,2024-11-20_12h56.38.377,posner_endo_new1,2024.2.4,60.08763180233264,2024-11-20 12h56.46.021527 +0000,
10,0.005,12,12,0,down,3.127181500000006,None,None,,,,,,,,,,,0,12,12,12,905.2503317999999,,,,,,,,,,,,905.2346033000013,905.2503317999999,905.2503317999999,908.3813730000002,,,,908.3816263999997,908.3970623000005,908.3970623000005,908.3970623000005,908.6965973000006,911.3938704000011,,,,909.4126202000007,,,,,,,,,,,,down,3.127181500000006,None,None,,,P120,001,2024-11-20_12h56.38.377,posner_endo_new1,2024.2.4,60.08763180233264,2024-11-20 12h56.46.021527 +0000,
-0.31,0.005,13,13,0,up,1.2864532999992662,None,space,0.4863367999987531,None,,,,,,,,,0,13,13,13,911.4105010000003,,,,,,,,,,,,911.3940361000004,911.4105010000003,911.4105010000003,912.7099503999998,,,,912.7102009000009,912.7260201999998,912.7260201999998,912.7260201999998,913.0255948000013,913.2262069000008,,,,,,,,,,,,,,,,up,1.2864532999992662,None,space,0.4863367999987531,None,P120,001,2024-11-20_12h56.38.377,posner_endo_new1,2024.2.4,60.08763180233264,2024-11-20 12h56.46.021527 +0000,
0.31,0.005,14,14,0,down,3.1435599999986152,None,space,0.4376926999993884,None,,,,,,,,,0,14,14,14,913.2420280999995,,,,,,,,,,,,913.2263715999998,913.2420280999995,913.2420280999995,916.3895530999998,,,,916.3898012999998,916.4055015000013,916.4055015000013,916.4055015000013,916.7053205000011,916.8558874999999,,,,,,,,,,,,,,,,down,3.1435599999986152,None,space,0.4376926999993884,None,P120,001,2024-11-20_12h56.38.377,posner_endo_new1,2024.2.4,60.08763180233264,2024-11-20 12h56.46.021527 +0000,
0.005,-0.31,15,15,0,up,4.017178199999762,None,space,0.4578247999997984,None,,,,,,,,,0,15,15,15,916.8716115000007,,,,,,,,,,,,916.8560577999997,916.8716115000007,916.8716115000007,920.9015672000005,,,,920.9018225,920.9174198000001,920.9174198000001,920.9174198000001,921.2172449000009,921.3845705000003,,,,,,,,,,,,,,,,up,4.017178199999762,None,space,0.4578247999997984,None,P120,001,2024-11-20_12h56.38.377,posner_endo_new1,2024.2.4,60.08763180233264,2024-11-20 12h56.46.021527 +0000,
0.31,0.005,16,16,0,down,4.31324499999937,None,space,0.7088604000000487,None,,,,,,,,,0,16,16,16,921.4003536,,,,,,,,,,,,921.3847356999995,921.4003536,921.4003536,925.730042000001,,,,925.7302896000001,925.7459482000013,925.7459482000013,925.7459482000013,926.0456961,926.4626441,,,,,,,,,,,,,,,,down,4.31324499999937,None,space,0.7088604000000487,None,P120,001,2024-11-20_12h56.38.377,posner_endo_new1,2024.2.4,60.08763180233264,2024-11-20 12h56.46.021527 +0000,
0.31,0.005,17,17,0,up,3.298157399998672,None,space,0.2638070000011794,None,,,,,,,,,0,17,17,17,926.4786170000007,,,,,,,,,,,,926.4628145999995,926.4786170000007,926.4786170000007,929.7925508999997,,,,929.7927973000005,929.8083617000011,929.8083617000011,929.8083617000011,,930.0756545000004,,,,,,,,,,,,,,,,up,3.298157399998672,None,space,0.2638070000011794,None,P120,001,2024-11-20_12h56.38.377,posner_endo_new1,2024.2.4,60.08763180233264,2024-11-20 12h56.46.021527 +0000,
0.005,-0.31,18,18,0,down,3.2373358000004373,None,space,0.5014083000005485,None,,,,,,,,,0,18,18,18,930.0914248000008,,,,,,,,,,,,930.075821800001,930.0914248000008,930.0914248000008,933.3388054000006,,,,933.3390694999998,933.3548091000011,933.3548091000011,933.3548091000011,933.6543517999999,933.8717837000004,,,,,,,,,,,,,,,,down,3.2373358000004373,None,space,0.5014083000005485,None,P120,001,2024-11-20_12h56.38.377,posner_endo_new1,2024.2.4,60.08763180233264,2024-11-20 12h56.46.021527 +0000,
0.005,-0.31,19,19,0,up,3.5058014999995066,None,space,0.4058039000010467,None,,,,,,,,,0,19,19,19,933.8876063000007,,,,,,,,,,,,933.8719469999996,933.8876063000007,933.8876063000007,937.4013272000011,,,,937.4015835000009,937.4173208000011,937.4173208000011,937.4173208000011,937.7170363000005,937.8343664000004,,,,,,,,,,,,,,,,up,3.5058014999995066,None,space,0.4058039000010467,None,P120,001,2024-11-20_12h56.38.377,posner_endo_new1,2024.2.4,60.08763180233264,2024-11-20 12h56.46.021527 +0000,
10,0.005,20,20,0,down,4.27045200000066,None,None,,,,,,,,,,,0,20,20,20,937.8502626000009,,,,,,,,,,,,937.8345305000003,937.8502626000009,937.8502626000009,942.1299483000003,,,,942.130196600001,942.1458590000002,942.1458590000002,942.1458590000002,942.4454502999997,945.1428214000007,,,,943.1614277000008,,,,,,,,,,,,down,4.27045200000066,None,None,,,P120,001,2024-11-20_12h56.38.377,posner_endo_new1,2024.2.4,60.08763180233264,2024-11-20 12h56.46.021527 +0000,
0.005,-0.31,21,21,0,up,1.9455930000003718,None,space,0.43341309999959776,None,,,,,,,,,0,21,21,21,945.1591433000012,,,,,,,,,,,,945.142985800001,945.1591433000012,945.1591433000012,947.1081891000013,,,,947.1084365000006,947.1241318000011,947.1241318000011,947.1241318000011,947.4238045000002,947.5744654999999,,,,,,,,,,,,,,,,up,1.9455930000003718,None,space,0.43341309999959776,None,P120,001,2024-11-20_12h56.38.377,posner_endo_new1,2024.2.4,60.08763180233264,2024-11-20 12h56.46.021527 +0000,
0.005,0.31,22,22,0,down,3.4430110000012064,None,space,0.377176199999667,None,,,,,,,,,0,22,22,22,947.5901031000012,,,,,,,,,,,,947.5746331999999,947.5901031000012,947.5901031000012,951.0375994000005,,,,951.0378455999999,951.0533386999996,951.0533386999996,951.0533386999996,951.3531230000008,951.4371740000006,,,,,,,,,,,,,,,,down,3.4430110000012064,None,space,0.377176199999667,None,P120,001,2024-11-20_12h56.38.377,posner_endo_new1,2024.2.4,60.08763180233264,2024-11-20 12h56.46.021527 +0000,
0.31,0.005,23,23,0,up,12.987895800000842,None,space,0.3402507999999216,None,,,,,,,,,0,23,23,23,951.4529512000008,,,,,,,,,,,,951.4373417999996,951.4529512000008,951.4529512000008,964.4572086999997,,,,964.4574730000004,964.473064400001,964.473064400001,964.473064400001,964.7724471000001,964.8234181000007,,,,,,,,,,,,,,,,up,12.987895800000842,None,space,0.3402507999999216,None,P120,001,2024-11-20_12h56.38.377,posner_endo_new1,2024.2.4,60.08763180233264,2024-11-20 12h56.46.021527 +0000,
-0.31,0.005,24,24,0,down,4.490383099999235,None,space,0.3279646999999386,None,,,,,,,,,0,24,24,24,964.8392096000007,,,,,,,,,,,,964.8235939999995,964.8392096000007,964.8392096000007,969.3354059000012,,,,969.3356617999998,969.3513351000001,969.3513351000001,969.3513351000001,969.6508587999997,969.6849877000004,,,,,,,,,,,,,,,,down,4.490383099999235,None,space,0.3279646999999386,None,P120,001,2024-11-20_12h56.38.377,posner_endo_new1,2024.2.4,60.08763180233264,2024-11-20 12h56.46.021527 +0000,
10,0.005,25,25,0,up,3.4445009999999456,None,None,,,,,,,,,,,0,25,25,25,969.7009216000006,,,,,,,,,,,,969.6851521000008,969.7009216000006,969.7009216000006,973.1482107000011,,,,973.1484651999999,973.1640597000005,973.1640597000005,973.1640597000005,973.4638353999999,976.1611176000006,,,,974.1796976000005,,,,,,,,,,,,up,3.4445009999999456,None,None,,,P120,001,2024-11-20_12h56.38.377,posner_endo_new1,2024.2.4,60.08763180233264,2024-11-20 12h56.46.021527 +0000,
0.005,0.31,26,26,0,down,2.06390200000169,None,space,0.3855562999997346,None,,,,,,,,,0,26,26,26,976.177659500001,,,,,,,,,,,,976.1612834000007,976.177659500001,976.177659500001,978.2432203000008,,,,978.2434732000002,978.2588649999998,978.2588649999998,978.2588649999998,978.5585819999997,978.6592959999998,,,,,,,,,,,,,,,,down,2.06390200000169,None,space,0.3855562999997346,None,P120,001,2024-11-20_12h56.38.377,posner_endo_new1,2024.2.4,60.08763180233264,2024-11-20 12h56.46.021527 +0000,
0.31,0.005,27,27,0,up,3.6294990999995207,None,space,0.39840929999991204,None,,,,,,,,,0,27,27,27,978.6753019000007,,,,,,,,,,,,978.6594597000003,978.6753019000007,978.6753019000007,982.3055853000005,,,,982.305852200001,982.3211788000008,982.3211788000008,982.3211788000008,982.6209892999996,982.7216578000007,,,,,,,,,,,,,,,,up,3.6294990999995207,None,space,0.39840929999991204,None,P120,001,2024-11-20_12h56.38.377,posner_endo_new1,2024.2.4,60.08763180233264,2024-11-20 12h56.46.021527 +0000,
0.005,0.31,28,28,0,down,3.1280989999995654,None,space,0.4707928999996511,None,,,,,,,,,0,28,28,28,982.7376012000004,,,,,,,,,,,,982.721824100001,982.7376012000004,982.7376012000004,985.8684752000008,,,,985.8687272999996,985.8844150000004,985.8844150000004,985.8844150000004,986.1839622999996,986.3681207999998,,,,,,,,,,,,,,,,down,3.1280989999995654,None,space,0.4707928999996511,None,P120,001,2024-11-20_12h56.38.377,posner_endo_new1,2024.2.4,60.08763180233264,2024-11-20 12h56.46.021527 +0000,
10,0.005,29,29,0,up,2.4011286000004475,None,None,,,,,,,,,,,0,29,29,29,986.384036200001,,,,,,,,,,,,986.3682860000008,986.384036200001,986.384036200001,988.7988480000004,,,,988.7991022000006,988.8146250000009,988.8146250000009,988.8146250000009,989.1143677,991.8117726,,,,989.8136341999998,,,,,,,,,,,,up,2.4011286000004475,None,None,,,P120,001,2024-11-20_12h56.38.377,posner_endo_new1,2024.2.4,60.08763180233264,2024-11-20 12h56.46.021527 +0000,
0.005,-0.31,30,30,0,down,2.3572860000003857,None,space,0.4797732000006363,None,,,,,,,,,0,30,30,30,991.8283350000002,,,,,,,,,,,,991.8119383000012,991.8283350000002,991.8283350000002,994.1932207999998,,,,994.1934700000002,994.2090681000009,994.2090681000009,994.2090681000009,994.5089457000013,994.6926359000008,,,,,,,,,,,,,,,,down,2.3572860000003857,None,space,0.4797732000006363,None,P120,001,2024-11-20_12h56.38.377,posner_endo_new1,2024.2.4,60.08763180233264,2024-11-20 12h56.46.021527 +0000,
0.31,0.005,31,31,0,up,5.1328708000000915,None,space,0.3732003999994049,None,,,,,,,,,0,31,31,31,994.7087279000007,,,,,,,,,,,,994.692812700001,994.7087279000007,994.7087279000007,999.8542096000001,,,,999.8544753999995,999.8700105000007,999.8700105000007,999.8700105000007,1000.1696778000005,1000.2537921000003,,,,,,,,,,,,,,,,up,5.1328708000000915,None,space,0.3732003999994049,None,P120,001,2024-11-20_12h56.38.377,posner_endo_new1,2024.2.4,60.08763180233264,2024-11-20 12h56.46.021527 +0000,
10,0.005,32,32,0,down,5.19594909999978,None,None,,,,,,,,,,,0,32,32,32,1000.2696785000007,,,,,,,,,,,,1000.2539574000002,1000.2696785000007,1000.2696785000007,1005.4818417000006,,,,1005.4820899000006,1005.4977525000013,1005.4977525000013,1005.4977525000013,1005.7973696000008,1008.4947487999998,,,,1006.5133851999999,,,,,,,,,,,,down,5.19594909999978,None,None,,,P120,001,2024-11-20_12h56.38.377,posner_endo_new1,2024.2.4,60.08763180233264,2024-11-20 12h56.46.021527 +0000,
-0.31,0.005,33,33,0,up,1.6500915999986319,None,space,0.39059399999860034,None,,,,,,,,,0,33,33,33,1008.5112589,,,,,,,,,,,,1008.4949135000006,1008.5112589,1008.5112589,1010.1770800000013,,,,1010.1773406000011,1010.1927644999996,1010.1927644999996,1010.1927644999996,1010.4925436000012,1010.5932129000012,,,,,,,,,,,,,,,,up,1.6500915999986319,None,space,0.39059399999860034,None,P120,001,2024-11-20_12h56.38.377,posner_endo_new1,2024.2.4,60.08763180233264,2024-11-20 12h56.46.021527 +0000,
10,0.005,34,34,0,down,3.9758701999999175,None,None,,,,,,,,,,,0,34,34,34,1010.6089726000009,,,,,,,,,,,,1010.5933870999997,1010.6089726000009,1010.6089726000009,1014.5891651000002,,,,1014.5894103999999,1014.6049724000004,1014.6049724000004,1014.6049724000004,1014.9047621999998,1017.6020884000009,,,,1015.6039469999996,,,,,,,,,,,,down,3.9758701999999175,None,None,,,P120,001,2024-11-20_12h56.38.377,posner_endo_new1,2024.2.4,60.08763180233264,2024-11-20 12h56.46.021527 +0000,
0.005,-0.31,35,35,0,up,1.398492599999372,None,space,0.49272539999947185,None,,,,,,,,,0,35,35,35,1017.6186670000006,,,,,,,,,,,,1017.6022525999997,1017.6186670000006,1017.6186670000006,1019.0180471000003,,,,1019.0182972000002,1019.0337414000005,1019.0337414000005,1019.0337414000005,1019.3334348999997,1019.5343114000007,,,,,,,,,,,,,,,,up,1.398492599999372,None,space,0.49272539999947185,None,P120,001,2024-11-20_12h56.38.377,posner_endo_new1,2024.2.4,60.08763180233264,2024-11-20 12h56.46.021527 +0000,
0.31,0.005,36,36,0,down,3.883292700000311,None,space,0.45108739999886893,None,,,,,,,,,0,36,36,36,1019.5499091000001,,,,,,,,,,,,1019.5344755999995,1019.5499091000001,1019.5499091000001,1023.4464091000009,,,,1023.4466587999996,1023.4626417,1023.4626417,1023.4626417,1023.7623629999998,1023.9296417000005,,,,,,,,,,,,,,,,down,3.883292700000311,None,space,0.45108739999886893,None,P120,001,2024-11-20_12h56.38.377,posner_endo_new1,2024.2.4,60.08763180233264,2024-11-20 12h56.46.021527 +0000,
10,0.005,37,37,0,up,4.816243200000827,None,None,,,,,,,,,,,0,37,37,37,1023.9452175000006,,,,,,,,,,,,1023.9298071000012,1023.9452175000006,1023.9452175000006,1028.7743795000006,,,,1028.7746325999997,1028.7904927,1028.7904927,1028.7904927,1029.0899860000009,1031.7875838,,,,1029.7894067999987,,,,,,,,,,,,up,4.816243200000827,None,None,,,P120,001,2024-11-20_12h56.38.377,posner_endo_new1,2024.2.4,60.08763180233264,2024-11-20 12h56.46.021527 +0000,
10,0.005,38,38,0,down,1.4846827000001213,None,None,,,,,,,,,,,0,38,38,38,1031.8040871000012,,,,,,,,,,,,1031.7877536000015,1031.8040871000012,1031.8040871000012,1033.3033231000009,,,,1033.3035701000008,1033.3191458000001,1033.3191458000001,1033.3191458000001,1033.618843100001,1036.316357300002,,,,1034.3178914000018,,,,,,,,,,,,down,1.4846827000001213,None,None,,,P120,001,2024-11-20_12h56.38.377,posner_endo_new1,2024.2.4,60.08763180233264,2024-11-20 12h56.46.021527 +0000,
-0.31,0.005,39,39,0,up,1.5162530999987212,None,space,0.4151119000016479,None,,,,,,,,,0,39,39,39,1036.3327572000017,,,,,,,,,,,,1036.3165216000016,1036.3327572000017,1036.3327572000017,1037.8652337000021,,,,1037.8654798999996,1037.8812455000007,1037.8812455000007,1037.8812455000007,1038.1808992000006,1038.298142800002,,,,,,,,,,,,,,,,up,1.5162530999987212,None,space,0.4151119000016479,None,P120,001,2024-11-20_12h56.38.377,posner_endo_new1,2024.2.4,60.08763180233264,2024-11-20 12h56.46.021527 +0000,
0.005,-0.31,40,40,0,down,3.095017800002097,None,space,0.41313889999946696,None,,,,,,,,,0,40,40,40,1038.314021000002,,,,,,,,,,,,1038.2983169,1038.314021000002,1038.314021000002,1041.411670100002,,,,1041.4119245000002,1041.427555000002,1041.427555000002,1041.427555000002,1041.7272623999997,1041.844708200002,,,,,,,,,,,,,,,,down,3.095017800002097,None,space,0.41313889999946696,None,P120,001,2024-11-20_12h56.38.377,posner_endo_new1,2024.2.4,60.08763180233264,2024-11-20 12h56.46.021527 +0000,
0.005,-0.31,41,41,0,up,3.780752200000279,None,space,0.4102342999976827,None,,,,,,,,,0,41,41,41,1041.8605562000012,,,,,,,,,,,,1041.8448777000012,1041.8605562000012,1041.8605562000012,1045.6573282999998,,,,1045.6575780999992,1045.6730461000006,1045.6730461000006,1045.6730461000006,1045.9729339000005,1046.0901105000012,,,,,,,,,,,,,,,,up,3.780752200000279,None,space,0.4102342999976827,None,P120,001,2024-11-20_12h56.38.377,posner_endo_new1,2024.2.4,60.08763180233264,2024-11-20 12h56.46.021527 +0000,
10,0.005,42,42,0,down,4.462613899999269,None,None,,,,,,,,,,,0,42,42,42,1046.1060748000018,,,,,,,,,,,,1046.090275999999,1046.1060748000018,1046.1060748000018,1050.5855660000016,,,,1050.5858165999998,1050.6015597000005,1050.6015597000005,1050.6015597000005,1050.9011498,1053.5986224000007,,,,1051.6171437000012,,,,,,,,,,,,down,4.462613899999269,None,None,,,P120,001,2024-11-20_12h56.38.377,posner_endo_new1,2024.2.4,60.08763180233264,2024-11-20 12h56.46.021527 +0000,
0.005,-0.31,43,43,0,up,1.6113676999993913,None,space,0.3416742000008526,None,,,,,,,,,0,43,43,43,1053.615067300001,,,,,,,,,,,,1053.5987854000014,1053.615067300001,1053.615067300001,1055.2309320999993,,,,1055.2311812000007,1055.2467264000006,1055.2467264000006,1055.2467264000006,1055.5465422999987,1055.5970382000014,,,,,,,,,,,,,,,,up,1.6113676999993913,None,space,0.3416742000008526,None,P120,001,2024-11-20_12h56.38.377,posner_endo_new1,2024.2.4,60.08763180233264,2024-11-20 12h56.46.021527 +0000,
-0.31,0.005,44,44,0,down,4.173267100002704,None,space,0.38291320000280393,None,,,,,,,,,0,44,44,44,1055.6130088999998,,,,,,,,,,,,1055.5972043000002,1055.6130088999998,1055.6130088999998,1059.7929826,,,,1059.7932311000004,1059.8086728999988,1059.8086728999988,1059.8086728999988,1060.108650099999,1060.1926525999988,,,,,,,,,,,,,,,,down,4.173267100002704,None,space,0.38291320000280393,None,P120,001,2024-11-20_12h56.38.377,posner_endo_new1,2024.2.4,60.08763180233264,2024-11-20 12h56.46.021527 +0000,
10,0.005,45,45,0,up,3.080619600001228,None,None,,,,,,,,,,,0,45,45,45,1060.2085444000004,,,,,,,,,,,,1060.1928248000004,1060.2085444000004,1060.2085444000004,1063.3060388000013,,,,1063.3062916999988,1063.3217738000021,1063.3217738000021,1063.3217738000021,1063.6215503999993,1066.3188732000017,,,,1064.3207963999994,,,,,,,,,,,,up,3.080619600001228,None,None,,,P120,001,2024-11-20_12h56.38.377,posner_endo_new1,2024.2.4,60.08763180233264,2024-11-20 12h56.46.021527 +0000,
0.005,0.31,46,46,0,down,1.2976896000000124,None,space,0.3738832999988517,None,,,,,,,,,0,46,46,46,1066.3353413000004,,,,,,,,,,,,1066.3190361000015,1066.3353413000004,1066.3353413000004,1067.634956599999,,,,1067.6352045999993,1067.650737,1067.650737,1067.650737,1067.9504183999998,1068.0344733999991,,,,,,,,,,,,,,,,down,1.2976896000000124,None,space,0.3738832999988517,None,P120,001,2024-11-20_12h56.38.377,posner_endo_new1,2024.2.4,60.08763180233264,2024-11-20 12h56.46.021527 +0000,
0.005,-0.31,47,47,0,up,3.9347511000014492,None,space,0.3916682999988552,None,,,,,,,,,0,47,47,47,1068.0502495,,,,,,,,,,,,1068.0346381000018,1068.0502495,1068.0502495,1071.9967891000015,,,,1071.9970436000003,1072.0129482000011,1072.0129482000011,1072.0129482000011,1072.3127332000004,1072.4134223,,,,,,,,,,,,,,,,up,3.9347511000014492,None,space,0.3916682999988552,None,P120,001,2024-11-20_12h56.38.377,posner_endo_new1,2024.2.4,60.08763180233264,2024-11-20 12h56.46.021527 +0000,
0.31,0.005,48,48,0,down,3.227745899999718,None,space,0.4908447999987402,None,,,,,,,,,0,48,48,48,1072.4291316000017,,,,,,,,,,,,1072.4135883999988,1072.4291316000017,1072.4291316000017,1075.6599913999999,,,,1075.6602447000005,1075.675916600001,1075.675916600001,1075.675916600001,1075.9756932000018,1076.1761637000018,,,,,,,,,,,,,,,,down,3.227745899999718,None,space,0.4908447999987402,None,P120,001,2024-11-20_12h56.38.377,posner_endo_new1,2024.2.4,60.08763180233264,2024-11-20 12h56.46.021527 +0000,
-0.31,0.005,49,49,0,up,3.1688519999988785,None,space,0.3454645999991044,None,,,,,,,,,0,49,49,49,1076.1921320000001,,,,,,,,,,,,1076.1763342000013,1076.1921320000001,1076.1921320000001,1079.372923400002,,,,1079.3731756999987,1079.3886722999996,1079.3886722999996,1079.3886722999996,1079.688554700002,1079.7393499999998,,,,,,,,,,,,,,,,up,3.1688519999988785,None,space,0.3454645999991044,None,P120,001,2024-11-20_12h56.38.377,posner_endo_new1,2024.2.4,60.08763180233264,2024-11-20 12h56.46.021527 +0000,
0.005,0.31,50,50,0,down,3.5425522999976238,None,space,0.4627032999997027,None,,,,,,,,,0,50,50,50,1079.7548964000016,,,,,,,,,,,,1079.7395142999994,1079.7548964000016,1079.7548964000016,1083.302264599999,,,,1083.3025249999992,1083.3178808000011,1083.3178808000011,1083.3178808000011,1083.6179309,1083.7851679000014,,,,,,,,,,,,,,,,down,3.5425522999976238,None,space,0.4627032999997027,None,P120,001,2024-11-20_12h56.38.377,posner_endo_new1,2024.2.4,60.08763180233264,2024-11-20 12h56.46.021527 +0000,
0.005,0.31,51,51,0,up,3.4885430999966047,None,space,0.43406619999950635,None,,,,,,,,,0,51,51,51,1083.8009244999994,,,,,,,,,,,,1083.785332800002,1083.8009244999994,1083.8009244999994,1087.2981212000013,,,,1087.2983692999987,1087.3139871000021,1087.3139871000021,1087.3139871000021,1087.613627900002,1087.7643597999995,,,,,,,,,,,,,,,,up,3.4885430999966047,None,space,0.43406619999950635,None,P120,001,2024-11-20_12h56.38.377,posner_endo_new1,2024.2.4,60.08763180233264,2024-11-20 12h56.46.021527 +0000,
10,0.005,52,52,0,down,4.124777200002427,None,None,,,,,,,,,,,0,52,52,52,1087.7800868000013,,,,,,,,,,,,1087.764523599999,1087.7800868000013,1087.7800868000013,1091.9100994,,,,1091.9103476000018,1091.9259576000004,1091.9259576000004,1091.9259576000004,1092.2256409000001,1094.923007100002,,,,1092.924911099999,,,,,,,,,,,,down,4.124777200002427,None,None,,,P120,001,2024-11-20_12h56.38.377,posner_endo_new1,2024.2.4,60.08763180233264,2024-11-20 12h56.46.021527 +0000,
-0.31,0.005,53,53,0,up,0.43009929999971064,None,space,0.4068154999986291,None,,,,,,,,,0,53,53,53,1094.9395914999986,,,,,,,,,,,,1094.9231757999987,1094.9395914999986,1094.9395914999986,1095.373302,,,,1095.3735492000014,1095.3891172000003,1095.3891172000003,1095.3891172000003,1095.6888962000012,1095.8058468000017,,,,,,,,,,,,,,,,up,0.43009929999971064,None,space,0.4068154999986291,None,P120,001,2024-11-20_12h56.38.377,posner_endo_new1,2024.2.4,60.08763180233264,2024-11-20 12h56.46.021527 +0000,
10,0.005,54,54,0,down,3.154830800001946,None,None,,,,,,,,,,,0,54,54,54,1095.8219916999988,,,,,,,,,,,,1095.8060157,1095.8219916999988,1095.8219916999988,1098.9860947000016,,,,1098.9863459000007,1099.0020593000008,1099.0020593000008,1099.0020593000008,1099.301794400002,1101.9990180999994,,,,1100.0010814000016,,,,,,,,,,,,down,3.154830800001946,None,None,,,P120,001,2024-11-20_12h56.38.377,posner_endo_new1,2024.2.4,60.08763180233264,2024-11-20 12h56.46.021527 +0000,
0.005,0.31,55,55,0,up,1.9381916999991518,None,space,0.4007140999965486,None,,,,,,,,,0,55,55,55,1102.0155220999986,,,,,,,,,,,,1101.9991803000012,1102.0155220999986,1102.0155220999986,1103.9644024000008,,,,1103.9646512,1103.9801713000015,1103.9801713000015,1103.9801713000015,1104.2798838999988,1104.3973116000016,,,,,,,,,,,,,,,,up,1.9381916999991518,None,space,0.4007140999965486,None,P120,001,2024-11-20_12h56.38.377,posner_endo_new1,2024.2.4,60.08763180233264,2024-11-20 12h56.46.021527 +0000,
0.005,-0.31,56,56,0,down,3.259560300000885,None,space,0.44560359999741195,None,,,,,,,,,0,56,56,56,1104.413231999999,,,,,,,,,,,,1104.3974767,1104.413231999999,1104.413231999999,1107.677285400001,,,,1107.6775301999987,1107.6930696000018,1107.6930696000018,1107.6930696000018,1107.992767300002,1108.1435609,,,,,,,,,,,,,,,,down,3.259560300000885,None,space,0.44560359999741195,None,P120,001,2024-11-20_12h56.38.377,posner_endo_new1,2024.2.4,60.08763180233264,2024-11-20 12h56.46.021527 +0000,
0.005,0.31,57,57,0,up,3.6260959999999614,None,space,0.4193621999984316,None,,,,,,,,,0,57,57,57,1108.1593983999992,,,,,,,,,,,,1108.1437269000016,1108.1593983999992,1108.1593983999992,1111.789826799999,,,,1111.7900732999988,1111.805597999999,1111.805597999999,1111.805597999999,1112.1052305000012,1112.2392203000018,,,,,,,,,,,,,,,,up,3.6260959999999614,None,space,0.4193621999984316,None,P120,001,2024-11-20_12h56.38.377,posner_endo_new1,2024.2.4,60.08763180233264,2024-11-20 12h56.46.021527 +0000,
-0.31,0.005,58,58,0,down,3.6502886999987822,None,space,0.41616830000202754,None,,,,,,,,,0,58,58,58,1112.2551668999986,,,,,,,,,,,,1112.2393835000003,1112.2551668999986,1112.2551668999986,1115.9188366000017,,,,1115.9190811000008,1115.9346602000005,1115.9346602000005,1115.9346602000005,1116.2344472000004,1116.3519030999996,,,,,,,,,,,,,,,,down,3.6502886999987822,None,space,0.41616830000202754,None,P120,001,2024-11-20_12h56.38.377,posner_endo_new1,2024.2.4,60.08763180233264,2024-11-20 12h56.46.021527 +0000,
-0.31,0.005,59,59,0,up,3.994116699999722,None,space,0.3874226000007184,None,,,,,,,,,0,59,59,59,1116.3675341999988,,,,,,,,,,,,1116.352066800002,1116.3675341999988,1116.3675341999988,1120.3643346999997,,,,1120.3645878999996,1120.3800703999987,1120.3800703999987,1120.3800703999987,1120.6798598999994,1120.7804852000008,,,,,,,,,,,,,,,,up,3.994116699999722,None,space,0.3874226000007184,None,P120,001,2024-11-20_12h56.38.377,posner_endo_new1,2024.2.4,60.08763180233264,2024-11-20 12h56.46.021527 +0000,
