target_y,target_x,thisN,thisTrialN,thisRepN,key_control2.keys,key_control2.rt,key_control2.duration,key_resp.keys,key_resp.rt,key_resp.duration,practice.thisRepN,practice.thisTrialN,practice.thisN,practice.thisIndex,session_1.thisRepN,session_1.thisTrialN,session_1.thisN,session_1.thisIndex,session_2.thisRepN,session_2.thisTrialN,session_2.thisN,session_2.thisIndex,thisRow.t,notes,instructions.started,instructions_txt.started,key_control.started,instructions.stopped,key_control.keys,key_control.rt,key_control.duration,ready.started,ready_txt.started,ready.stopped,fix.started,key_control2.started,fixation_cross.started,fix.stopped,practice.key_control2.keys,practice.key_control2.rt,practice.key_control2.duration,target.started,star.started,fixation_cross_target.started,key_resp.started,star.stopped,key_resp.stopped,target.stopped,practice.key_resp.keys,practice.key_resp.rt,practice.key_resp.duration,session_1.key_control2.keys,session_1.key_control2.rt,session_1.key_control2.duration,session_1.key_resp.keys,session_1.key_resp.rt,session_1.key_resp.duration,break_2.started,text.started,key_control3.started,break_2.stopped,key_control3.keys,session_2.key_control2.keys,session_2.key_control2.rt,session_2.key_control2.duration,session_2.key_resp.keys,session_2.key_resp.rt,session_2.key_resp.duration,participant,session,date,expName,psychopyVersion,frameRate,expStart,
,,,,,,,,,,,,,,,,,,,,,,,,,0.007446300001902273,0.0195056000011391,0.0195056000011391,940.2615050999993,up,940.2248545999973,None,,,,,,,,,,,,,,,,,,,,,,,,,,,,,,,,,,,,,,P123,001,2024-11-20_15h48.45.032,posner_endo_new1,2024.2.4,60.060889729995196,2024-11-20 15h48.53.149324 +0000,
,,,,,,,,,,,,,,,,,,,,,,,,,,,,,,,,940.2615852999988,940.2735324999994,943.2697909999988,,,,,,,,,,,,,,,,,,,,,,,,,,,,,,,,,,,P123,001,2024-11-20_15h48.45.032,posner_endo_new1,2024.2.4,60.060889729995196,2024-11-20 15h48.53.149324 +0000,
0.005,10,0,0,0,down,13.095562200000131,None,None,,,0,0,0,9,,,,,,,,,943.3017275999991,,,,,,,,,,,,943.2922842000007,943.3017275999991,943.3017275999991,956.4086590000006,down,13.095562200000131,None,956.4094951000006,956.4273852000006,956.4273852000006,956.4273852000006,956.7385658000021,957.437840300001,959.4193673000009,None,,,,,,,,,,,,,,,,,,,,P123,001,2024-11-20_15h48.45.032,posner_endo_new1,2024.2.4,60.060889729995196,2024-11-20 15h48.53.149324 +0000,
0.005,-0.31,1,1,0,down,2.9526776999991853,None,space,0.3471347999984573,None,0,1,1,7,,,,,,,,,959.4358164000005,,,,,,,,,,,,959.4196856999988,959.4358164000005,959.4358164000005,962.4009824999994,down,2.9526776999991853,None,962.4014833000001,962.4160979000008,962.4160979000008,962.4160979000008,962.7162843000006,,962.767487000001,space,0.3471347999984573,None,,,,,,,,,,,,,,,,,,P123,001,2024-11-20_15h48.45.032,posner_endo_new1,2024.2.4,60.060889729995196,2024-11-20 15h48.53.149324 +0000,
0.31,0.005,2,2,0,up,2.6302830999993603,None,space,0.4120612999977311,None,0,2,2,3,,,,,,,,,962.7828042000001,,,,,,,,,,,,962.7677237999997,962.7828042000001,962.7828042000001,965.4145042000018,up,2.6302830999993603,None,965.4148296999992,965.4300799000011,965.4300799000011,965.4300799000011,965.7299036000004,,965.8473239000014,space,0.4120612999977311,None,,,,,,,,,,,,,,,,,,P123,001,2024-11-20_15h48.45.032,posner_endo_new1,2024.2.4,60.060889729995196,2024-11-20 15h48.53.149324 +0000,
-0.31,0.005,3,3,0,down,2.197368200002529,None,space,0.3257981999995536,None,0,3,3,2,,,,,,,,,965.8630852999995,,,,,,,,,,,,965.8475474000006,965.8630852999995,965.8630852999995,968.0619401000004,down,2.197368200002529,None,968.062269099999,968.0774721000016,968.0774721000016,968.0774721000016,968.3772572000016,,968.411680600002,space,0.3257981999995536,None,,,,,,,,,,,,,,,,,,P123,001,2024-11-20_15h48.45.032,posner_endo_new1,2024.2.4,60.060889729995196,2024-11-20 15h48.53.149324 +0000,
0.005,-0.31,4,4,0,up,5.065676199999871,None,space,0.32084910000048694,None,0,4,4,5,,,,,,,,,968.427185200002,,,,,,,,,,,,968.4119028999994,968.427185200002,968.427185200002,973.5062901999991,up,5.065676199999871,None,973.5066240000015,973.5219108000019,973.5219108000019,973.5219108000019,973.8217015000009,,973.8559396000019,space,0.32084910000048694,None,,,,,,,,,,,,,,,,,,P123,001,2024-11-20_15h48.45.032,posner_endo_new1,2024.2.4,60.060889729995196,2024-11-20 15h48.53.149324 +0000,
-0.31,0.005,5,5,0,down,2.6453271999998833,None,space,0.34411850000105915,None,0,5,5,0,,,,,,,,,973.8715145999995,,,,,,,,,,,,973.8561609999997,973.8715145999995,973.8715145999995,976.5199314999991,down,2.6453271999998833,None,976.5202591000016,976.5354856000013,976.5354856000013,976.5354856000013,976.8351729999995,,976.8861146000017,space,0.34411850000105915,None,,,,,,,,,,,,,,,,,,P123,001,2024-11-20_15h48.45.032,posner_endo_new1,2024.2.4,60.060889729995196,2024-11-20 15h48.53.149324 +0000,
0.31,0.005,6,6,0,up,3.214552500001446,None,space,0.36572829999931855,None,0,6,6,1,,,,,,,,,976.9018625999997,,,,,,,,,,,,976.8863358000017,976.9018625999997,976.9018625999997,980.1328257999994,up,3.214552500001446,None,980.133152800001,980.1484773000011,980.1484773000011,980.1484773000011,980.4482052999992,,980.515830100001,space,0.36572829999931855,None,,,,,,,,,,,,,,,,,,P123,001,2024-11-20_15h48.45.032,posner_endo_new1,2024.2.4,60.060889729995196,2024-11-20 15h48.53.149324 +0000,
10,0.005,7,7,0,down,2.488826599997992,None,None,,,0,7,7,4,,,,,,,,,980.5314896999989,,,,,,,,,,,,980.5160501999999,980.5314896999989,980.5314896999989,983.0298250000014,down,2.488826599997992,None,983.0301510999998,983.0453123000007,983.0453123000007,983.0453123000007,983.3452364000004,984.0444724000008,986.0426633999996,None,,,,,,,,,,,,,,,,,,,,P123,001,2024-11-20_15h48.45.032,posner_endo_new1,2024.2.4,60.060889729995196,2024-11-20 15h48.53.149324 +0000,
0.005,0.31,8,8,0,up,0.08978720000231988,None,space,0.40906810000160476,None,0,8,8,6,,,,,,,,,986.0591836999993,,,,,,,,,,,,986.0428869999996,986.0591836999993,986.0591836999993,986.160014000001,up,0.08978720000231988,None,986.1603538999989,986.1756892000012,986.1756892000012,986.1756892000012,986.4753263999992,,986.5931178999999,space,0.40906810000160476,None,,,,,,,,,,,,,,,,,,P123,001,2024-11-20_15h48.45.032,posner_endo_new1,2024.2.4,60.060889729995196,2024-11-20 15h48.53.149324 +0000,
0.005,0.31,9,9,0,down,2.004633600001398,None,space,0.43402149999747053,None,0,9,9,8,,,,,,,,,986.6084388000017,,,,,,,,,,,,986.5933513999989,986.6084388000017,986.6084388000017,988.6241764000006,down,2.004633600001398,None,988.6245013000007,988.6397690000013,988.6397690000013,988.6397690000013,988.9394825000018,,989.0903203000016,space,0.43402149999747053,None,,,,,,,,,,,,,,,,,,P123,001,2024-11-20_15h48.45.032,posner_endo_new1,2024.2.4,60.060889729995196,2024-11-20 15h48.53.149324 +0000,
,,,,,,,,,,,,,,,,,,,,,,,,,,,,,,,,989.0904687000002,989.1058555000018,992.103073000002,,,,,,,,,,,,,,,,,,,,,,,,,,,,,,,,,,,P123,001,2024-11-20_15h48.45.032,posner_endo_new1,2024.2.4,60.060889729995196,2024-11-20 15h48.53.149324 +0000,
-0.31,0.005,0,0,0,down,15.68779110000105,None,space,0.42224459999852115,None,,,,,0,0,0,0,,,,,992.125173299999,,,,,,,,,,,,992.1165299999993,992.125173299999,992.125173299999,1007.8212703999998,,,,1007.8216049000002,1007.836805400002,1007.836805400002,1007.836805400002,1008.1365198000021,,1008.2707575999993,,,,down,15.68779110000105,None,space,0.42224459999852115,None,,,,,,,,,,,,P123,001,2024-11-20_15h48.45.032,posner_endo_new1,2024.2.4,60.060889729995196,2024-11-20 15h48.53.149324 +0000,
0.005,0.31,1,1,0,up,2.454293399998278,None,space,0.2544213999972271,None,,,,,0,1,1,1,,,,,1008.2864364000015,,,,,,,,,,,,1008.2709930000019,1008.2864364000015,1008.2864364000015,1010.7514980000014,,,,1010.7518326999998,1010.7671403000022,1010.7671403000022,1010.7671403000022,,,1011.0345717000018,,,,up,2.454293399998278,None,space,0.2544213999972271,None,,,,,,,,,,,,P123,001,2024-11-20_15h48.45.032,posner_endo_new1,2024.2.4,60.060889729995196,2024-11-20 15h48.53.149324 +0000,
0.31,0.005,2,2,0,down,2.1304405000009865,None,space,0.39453320000029635,None,,,,,0,2,2,2,,,,,1011.050194899999,,,,,,,,,,,,1011.0348044999992,1011.050194899999,1011.050194899999,1013.1825430999997,,,,1013.1828769000022,1013.1980139000007,1013.1980139000007,1013.1980139000007,1013.4975980999989,,1013.5986470999997,,,,down,2.1304405000009865,None,space,0.39453320000029635,None,,,,,,,,,,,,P123,001,2024-11-20_15h48.45.032,posner_endo_new1,2024.2.4,60.060889729995196,2024-11-20 15h48.53.149324 +0000,
0.31,0.005,3,3,0,up,2.238001699999586,None,space,0.27399110000260407,None,,,,,0,3,3,3,,,,,1013.6142538000022,,,,,,,,,,,,1013.598877700002,1013.6142538000022,1013.6142538000022,1015.8628721000023,,,,1015.8632013999995,1015.8785147999988,1015.8785147999988,1015.8785147999988,1016.178226,,1016.1627860000008,,,,up,2.238001699999586,None,space,0.27399110000260407,None,,,,,,,,,,,,P123,001,2024-11-20_15h48.45.032,posner_endo_new1,2024.2.4,60.060889729995196,2024-11-20 15h48.53.149324 +0000,
-0.31,0.005,4,4,0,down,2.106171899999026,None,space,0.2650675000004412,None,,,,,0,4,4,4,,,,,1016.178226,,,,,,,,,,,,1016.1630140999987,1016.178226,1016.178226,1018.2937779999993,,,,1018.2941099999989,1018.3094357000009,1018.3094357000009,1018.3094357000009,,,1018.5768523000006,,,,down,2.106171899999026,None,space,0.2650675000004412,None,,,,,,,,,,,,P123,001,2024-11-20_15h48.45.032,posner_endo_new1,2024.2.4,60.060889729995196,2024-11-20 15h48.53.149324 +0000,
0.005,-0.31,5,5,0,up,2.2277806000020064,None,space,0.253023099998245,None,,,,,0,5,5,5,,,,,1018.5924952999994,,,,,,,,,,,,1018.5770851999987,1018.5924952999994,1018.5924952999994,1020.8246388000007,,,,1020.8249643000017,1020.8402029999997,1020.8402029999997,1020.8402029999997,,,1021.1077103999996,,,,up,2.2277806000020064,None,space,0.253023099998245,None,,,,,,,,,,,,P123,001,2024-11-20_15h48.45.032,posner_endo_new1,2024.2.4,60.060889729995196,2024-11-20 15h48.53.149324 +0000,
0.005,-0.31,6,6,0,down,2.3531637999985833,None,space,0.32405179999841494,None,,,,,0,6,6,6,,,,,1021.1232345999997,,,,,,,,,,,,1021.1079437000008,1021.1232345999997,1021.1232345999997,1023.4886364000013,,,,1023.488966500001,1023.5040933000018,1023.5040933000018,1023.5040933000018,1023.8038089000001,,1023.8381990999987,,,,down,2.3531637999985833,None,space,0.32405179999841494,None,,,,,,,,,,,,P123,001,2024-11-20_15h48.45.032,posner_endo_new1,2024.2.4,60.060889729995196,2024-11-20 15h48.53.149324 +0000,
10,0.005,7,7,0,up,5.398850999998103,None,None,,,,,,,0,7,7,7,,,,,1023.8537275999988,,,,,,,,,,,,1023.8384284999993,1023.8537275999988,1023.8537275999988,1029.2673254000001,,,,1029.2680480999989,1029.2818780999987,1029.2818780999987,1029.2818780999987,1029.5812313999995,1030.2971644999998,1032.278788399999,,,,up,5.398850999998103,None,None,,,,,,,,,,,,,,P123,001,2024-11-20_15h48.45.032,posner_endo_new1,2024.2.4,60.060889729995196,2024-11-20 15h48.53.149324 +0000,
-0.31,0.005,8,8,0,down,1.3012501999983215,None,space,0.3673226999999315,None,,,,,0,8,8,8,,,,,1032.2951175999988,,,,,,,,,,,,1032.2793007,1032.2951175999988,1032.2951175999988,1033.612711400001,,,,1033.6134445999996,1033.6271020000022,1033.6271020000022,1033.6271020000022,1033.9268085000003,,1034.012135500001,,,,down,1.3012501999983215,None,space,0.3673226999999315,None,,,,,,,,,,,,P123,001,2024-11-20_15h48.45.032,posner_endo_new1,2024.2.4,60.060889729995196,2024-11-20 15h48.53.149324 +0000,
0.005,0.31,9,9,0,up,2.537951800000883,None,space,0.3515000000006694,None,,,,,0,9,9,9,,,,,1034.0267153000023,,,,,,,,,,,,1034.01267,1034.0267153000023,1034.0267153000023,1036.5764122,,,,1036.5771520999988,1036.5910388000011,1036.5910388000011,1036.5910388000011,1036.8904164000014,,1036.9595138000004,,,,up,2.537951800000883,None,space,0.3515000000006694,None,,,,,,,,,,,,P123,001,2024-11-20_15h48.45.032,posner_endo_new1,2024.2.4,60.060889729995196,2024-11-20 15h48.53.149324 +0000,
0.005,-0.31,10,10,0,down,2.711552299999312,None,space,0.30842540000230656,None,,,,,0,10,10,10,,,,,1036.973689999999,,,,,,,,,,,,1036.9600609000008,1036.973689999999,1036.973689999999,1039.690099800002,,,,1039.6908614999993,1039.7045863999992,1039.7045863999992,1039.7045863999992,1040.0039120000001,,1040.023037400002,,,,down,2.711552299999312,None,space,0.30842540000230656,None,,,,,,,,,,,,P123,001,2024-11-20_15h48.45.032,posner_endo_new1,2024.2.4,60.060889729995196,2024-11-20 15h48.53.149324 +0000,
0.005,0.31,11,11,0,up,2.2315436999997473,None,space,0.3161553999998432,None,,,,,0,11,11,11,,,,,1040.0372050000005,,,,,,,,,,,,1040.0235715000017,1040.0372050000005,1040.0372050000005,1042.2710866000016,,,,1042.2718458000018,1042.285382500002,1042.285382500002,1042.285382500002,1042.5846060000003,,1042.6040135000003,,,,up,2.2315436999997473,None,space,0.3161553999998432,None,,,,,,,,,,,,P123,001,2024-11-20_15h48.45.032,posner_endo_new1,2024.2.4,60.060889729995196,2024-11-20 15h48.53.149324 +0000,
10,0.005,12,12,0,down,2.979138700000476,None,None,,,,,,,0,12,12,12,,,,,1042.6179306000013,,,,,,,,,,,,1042.604579400002,1042.6179306000013,1042.6179306000013,1045.6008131000017,,,,1045.601548999999,1045.6152555000008,1045.6152555000008,1045.6152555000008,1045.914538500001,1046.6304535000017,1048.6121439999988,,,,down,2.979138700000476,None,None,,,,,,,,,,,,,,P123,001,2024-11-20_15h48.45.032,posner_endo_new1,2024.2.4,60.060889729995196,2024-11-20 15h48.53.149324 +0000,
0.31,0.005,13,13,0,up,0.049177400000189664,None,space,0.2728997000012896,None,,,,,0,13,13,13,,,,,1048.6284081000013,,,,,,,,,,,,1048.6126717000006,1048.6284081000013,1048.6284081000013,1048.6809623000008,,,,1048.6817167000008,1048.6954566999993,1048.6954566999993,1048.6954566999993,1048.9947280000015,,1048.9805643,,,,up,0.049177400000189664,None,space,0.2728997000012896,None,,,,,,,,,,,,P123,001,2024-11-20_15h48.45.032,posner_endo_new1,2024.2.4,60.060889729995196,2024-11-20 15h48.53.149324 +0000,
10,0.005,14,14,0,down,2.3375229999983276,None,None,,,,,,,0,14,14,14,,,,,1048.9947280000015,,,,,,,,,,,,1048.9811009000005,1048.9947280000015,1048.9947280000015,1051.344568299999,,,,1051.3453197000017,1051.3592151000012,1051.3592151000012,1051.3592151000012,1051.6586701000015,1052.3746281000022,1054.3562133000014,,,,down,2.3375229999983276,None,None,,,,,,,,,,,,,,P123,001,2024-11-20_15h48.45.032,posner_endo_new1,2024.2.4,60.060889729995196,2024-11-20 15h48.53.149324 +0000,
-0.31,0.005,15,15,0,down,2.8317792999987432,None,space,0.36983279999913066,None,,,,,0,15,15,15,,,,,1054.3725750000012,,,,,,,,,,,,1054.3567122999993,1054.3725750000012,1054.3725750000012,1057.2217249999994,,,,1057.2224578999994,1057.2362691000017,1057.2362691000017,1057.2362691000017,1057.5359506000023,,1057.6215087000019,,,,down,2.8317792999987432,None,space,0.36983279999913066,None,,,,,,,,,,,,P123,001,2024-11-20_15h48.45.032,posner_endo_new1,2024.2.4,60.060889729995196,2024-11-20 15h48.53.149324 +0000,
0.005,-0.31,16,16,0,up,2.6487632999997004,None,space,0.507789799998136,None,,,,,0,16,16,16,,,,,1057.6358105,,,,,,,,,,,,1057.6220489000007,1057.6358105,1057.6358105,1060.3018990000019,,,,1060.3026326,1060.3164682999995,1060.3164682999995,1060.3164682999995,1060.616141999999,,1060.8350324999992,,,,up,2.6487632999997004,None,space,0.507789799998136,None,,,,,,,,,,,,P123,001,2024-11-20_15h48.45.032,posner_endo_new1,2024.2.4,60.060889729995196,2024-11-20 15h48.53.149324 +0000,
0.005,0.31,17,17,0,down,1.9792065999972692,None,space,0.4077760000000126,None,,,,,0,17,17,17,,,,,1060.8492484999988,,,,,,,,,,,,1060.8355742999993,1060.8492484999988,1060.8492484999988,1062.8329269999995,,,,1062.8336853,1062.8475341000012,1062.8475341000012,1062.8475341000012,1063.146850000001,,1063.2657934000017,,,,down,1.9792065999972692,None,space,0.4077760000000126,None,,,,,,,,,,,,P123,001,2024-11-20_15h48.45.032,posner_endo_new1,2024.2.4,60.060889729995196,2024-11-20 15h48.53.149324 +0000,
-0.31,0.005,18,18,0,up,2.3568683000012243,None,space,0.3124158999999054,None,,,,,0,18,18,18,,,,,1063.2800929000005,,,,,,,,,,,,1063.2663371999988,1063.2800929000005,1063.2800929000005,1065.6468458999989,,,,1065.6476036999993,1065.6613657999987,1065.6613657999987,1065.6613657999987,1065.9606569999996,,1065.9800190999995,,,,up,2.3568683000012243,None,space,0.3124158999999054,None,,,,,,,,,,,,P123,001,2024-11-20_15h48.45.032,posner_endo_new1,2024.2.4,60.060889729995196,2024-11-20 15h48.53.149324 +0000,
10,0.005,19,19,0,down,2.4344927000020107,None,None,,,,,,,0,19,19,19,,,,,1065.9941135000008,,,,,,,,,,,,1065.9805653000003,1065.9941135000008,1065.9941135000008,1068.4438042000002,,,,1068.444561799999,1068.458481400001,1068.458481400001,1068.458481400001,1068.7578066999995,1069.4737745999992,1071.4553995999995,,,,down,2.4344927000020107,None,None,,,,,,,,,,,,,,P123,001,2024-11-20_15h48.45.032,posner_endo_new1,2024.2.4,60.060889729995196,2024-11-20 15h48.53.149324 +0000,
0.005,0.31,20,20,0,down,4.117189100001269,None,space,0.35808520000136923,None,,,,,0,20,20,20,,,,,1071.4717349999992,,,,,,,,,,,,1071.455909799999,1071.4717349999992,1071.4717349999992,1075.6030687999992,,,,1075.6038018,1075.617806000002,1075.617806000002,1075.617806000002,1075.9171293,,1075.986291000001,,,,down,4.117189100001269,None,space,0.35808520000136923,None,,,,,,,,,,,,P123,001,2024-11-20_15h48.45.032,posner_endo_new1,2024.2.4,60.060889729995196,2024-11-20 15h48.53.149324 +0000,
0.005,-0.31,21,21,0,up,2.564592000002449,None,space,0.2801193000013882,None,,,,,0,21,21,21,,,,,1076.000374700001,,,,,,,,,,,,1075.9868379,1076.000374700001,1076.000374700001,1078.5672601000006,,,,1078.567994699999,1078.5815441000013,1078.5815441000013,1078.5815441000013,1078.8808683999996,,1078.8670483999995,,,,up,2.564592000002449,None,space,0.2801193000013882,None,,,,,,,,,,,,P123,001,2024-11-20_15h48.45.032,posner_endo_new1,2024.2.4,60.060889729995196,2024-11-20 15h48.53.149324 +0000,
0.005,0.31,22,22,0,down,2.7474757000018144,None,space,0.7107584000004863,None,,,,,0,22,22,22,,,,,1078.8808683999996,,,,,,,,,,,,1078.867597200002,1078.8808683999996,1078.8808683999996,1081.6306814000018,,,,1081.6314366000006,1081.6450818000012,1081.6450818000012,1081.6450818000012,1081.9443496999993,,1082.3631305000017,,,,down,2.7474757000018144,None,space,0.7107584000004863,None,,,,,,,,,,,,P123,001,2024-11-20_15h48.45.032,posner_endo_new1,2024.2.4,60.060889729995196,2024-11-20 15h48.53.149324 +0000,
0.31,0.005,23,23,0,up,2.275462499997957,None,space,0.3004122999991523,None,,,,,0,23,23,23,,,,,1082.3772243000021,,,,,,,,,,,,1082.3636757000022,1082.3772243000021,1082.3772243000021,1084.6606796000015,,,,1084.661398799999,1084.6752387000015,1084.6752387000015,1084.6752387000015,1084.9745335000007,,1084.993348600001,,,,up,2.275462499997957,None,space,0.3004122999991523,None,,,,,,,,,,,,P123,001,2024-11-20_15h48.45.032,posner_endo_new1,2024.2.4,60.060889729995196,2024-11-20 15h48.53.149324 +0000,
0.005,0.31,24,24,0,down,2.7329515000019455,None,space,0.383578299999499,None,,,,,0,24,24,24,,,,,1085.0078746,,,,,,,,,,,,1084.993894700001,1085.0078746,1085.0078746,1087.756150000001,,,,1087.7566329,1087.7712318000013,1087.7712318000013,1087.7712318000013,1088.0708931000008,,1088.1722300000001,,,,down,2.7329515000019455,None,space,0.383578299999499,None,,,,,,,,,,,,P123,001,2024-11-20_15h48.45.032,posner_endo_new1,2024.2.4,60.060889729995196,2024-11-20 15h48.53.149324 +0000,
0.31,0.005,25,25,0,up,2.7129695000003267,None,space,0.2881755999987945,None,,,,,0,25,25,25,,,,,1088.1874145000002,,,,,,,,,,,,1088.1725767999997,1088.1874145000002,1088.1874145000002,1090.9028460000009,,,,1090.9033254999995,1090.918016399999,1090.918016399999,1090.918016399999,1091.2176669,,1091.2192386999996,,,,up,2.7129695000003267,None,space,0.2881755999987945,None,,,,,,,,,,,,P123,001,2024-11-20_15h48.45.032,posner_endo_new1,2024.2.4,60.060889729995196,2024-11-20 15h48.53.149324 +0000,
10,0.005,26,26,0,down,2.642745900000591,None,None,,,,,,,0,26,26,26,,,,,1091.2343060999992,,,,,,,,,,,,1091.2195726999998,1091.2343060999992,1091.2343060999992,1093.8831823,,,,1093.8835134,1093.8987229000013,1093.8987229000013,1093.8987229000013,1094.1984826000007,1094.8977553000004,1096.8957759000004,,,,down,2.642745900000591,None,None,,,,,,,,,,,,,,P123,001,2024-11-20_15h48.45.032,posner_endo_new1,2024.2.4,60.060889729995196,2024-11-20 15h48.53.149324 +0000,
10,0.005,27,27,0,down,3.0843696000010823,None,None,,,,,,,0,27,27,27,,,,,1096.9123405999999,,,,,,,,,,,,1096.896011500001,1096.9123405999999,1096.9123405999999,1100.0101316,,,,1100.0104606999994,1100.0258261999988,1100.0258261999988,1100.0258261999988,1100.3255915000009,1101.041486000002,1103.022957600002,,,,down,3.0843696000010823,None,None,,,,,,,,,,,,,,P123,001,2024-11-20_15h48.45.032,posner_endo_new1,2024.2.4,60.060889729995196,2024-11-20 15h48.53.149324 +0000,
0.005,-0.31,28,28,0,up,0.41403949999948964,None,space,0.3168699000016204,None,,,,,0,28,28,28,,,,,1103.0392012000011,,,,,,,,,,,,1103.0231931999988,1103.0392012000011,1103.0392012000011,1103.4565791999994,,,,1103.456922100002,1103.472280500002,1103.472280500002,1103.472280500002,1103.7720135000018,,1103.8064157000008,,,,up,0.41403949999948964,None,space,0.3168699000016204,None,,,,,,,,,,,,P123,001,2024-11-20_15h48.45.032,posner_endo_new1,2024.2.4,60.060889729995196,2024-11-20 15h48.53.149324 +0000,
0.31,0.005,29,29,0,down,2.055272399997193,None,space,0.27897800000209827,None,,,,,0,29,29,29,,,,,1103.8220013999999,,,,,,,,,,,,1103.8066483000002,1103.8220013999999,1103.8220013999999,1105.8875552999998,,,,1105.8878848000022,1105.9031437000012,1105.9031437000012,1105.9031437000012,1106.2027515000009,,1106.1874945000018,,,,down,2.055272399997193,None,space,0.27897800000209827,None,,,,,,,,,,,,P123,001,2024-11-20_15h48.45.032,posner_endo_new1,2024.2.4,60.060889729995196,2024-11-20 15h48.53.149324 +0000,
10,0.005,30,30,0,up,3.7072174999993877,None,None,,,,,,,0,30,30,30,,,,,1106.2027515000009,,,,,,,,,,,,1106.1877258000022,1106.2027515000009,1106.2027515000009,1109.916819500002,,,,1109.9171687000016,1109.9323686999996,1109.9323686999996,1109.9323686999996,1110.232085800002,1110.9480002000018,1112.9294201000012,,,,up,3.7072174999993877,None,None,,,,,,,,,,,,,,P123,001,2024-11-20_15h48.45.032,posner_endo_new1,2024.2.4,60.060889729995196,2024-11-20 15h48.53.149324 +0000,
0.31,0.005,31,31,0,down,0.02673240000149235,None,space,0.3315361999993911,None,,,,,0,31,31,31,,,,,1112.9460612000003,,,,,,,,,,,,1112.9296498000003,1112.9460612000003,1112.9460612000003,1112.980153200002,,,,1112.980496100001,1112.9960267999995,1112.9960267999995,1112.9960267999995,1113.2955910000019,,1113.3298407000002,,,,down,0.02673240000149235,None,space,0.3315361999993911,None,,,,,,,,,,,,P123,001,2024-11-20_15h48.45.032,posner_endo_new1,2024.2.4,60.060889729995196,2024-11-20 15h48.53.149324 +0000,
0.31,0.005,32,32,0,up,2.611204600001656,None,space,0.24955109999791603,None,,,,,0,32,32,32,,,,,1113.3455692999996,,,,,,,,,,,,1113.330071700002,1113.3455692999996,1113.3455692999996,1115.9606314000011,,,,1115.9609612999993,1115.976180900001,1115.976180900001,1115.976180900001,,,1116.2270497999998,,,,up,2.611204600001656,None,space,0.24955109999791603,None,,,,,,,,,,,,P123,001,2024-11-20_15h48.45.032,posner_endo_new1,2024.2.4,60.060889729995196,2024-11-20 15h48.53.149324 +0000,
10,0.005,33,33,0,down,2.306239800000185,None,None,,,,,,,0,33,33,33,,,,,1116.2424876000005,,,,,,,,,,,,1116.227281899999,1116.2424876000005,1116.2424876000005,1118.5579911000023,,,,1118.558323000001,1118.5734448000003,1118.5734448000003,1118.5734448000003,1118.8732019999989,1119.5892413000001,1121.5704374000015,,,,down,2.306239800000185,None,None,,,,,,,,,,,,,,P123,001,2024-11-20_15h48.45.032,posner_endo_new1,2024.2.4,60.060889729995196,2024-11-20 15h48.53.149324 +0000,
0.005,-0.31,34,34,0,up,0.00922569999966072,None,space,0.3617348999978276,None,,,,,0,34,34,34,,,,,1121.5869883000014,,,,,,,,,,,,1121.5706781000008,1121.5869883000014,1121.5869883000014,1121.604632999999,,,,1121.6049776,1121.6202740000008,1121.6202740000008,1121.6202740000008,1121.9201240000002,,1121.9877928999995,,,,up,0.00922569999966072,None,space,0.3617348999978276,None,,,,,,,,,,,,P123,001,2024-11-20_15h48.45.032,posner_endo_new1,2024.2.4,60.060889729995196,2024-11-20 15h48.53.149324 +0000,
-0.31,0.005,35,35,0,down,2.2494108000028064,None,space,0.41543799999999464,None,,,,,0,35,35,35,,,,,1122.003386100001,,,,,,,,,,,,1121.9880460000022,1122.003386100001,1122.003386100001,1124.268766600002,,,,1124.2690968999996,1124.284208699999,1124.284208699999,1124.284208699999,1124.5840977000007,,1124.7017534000006,,,,down,2.2494108000028064,None,space,0.41543799999999464,None,,,,,,,,,,,,P123,001,2024-11-20_15h48.45.032,posner_endo_new1,2024.2.4,60.060889729995196,2024-11-20 15h48.53.149324 +0000,
-0.31,0.005,36,36,0,up,2.2392658999997366,None,space,0.34484470000097645,None,,,,,0,36,36,36,,,,,1124.7173040999987,,,,,,,,,,,,1124.7019852000012,1124.7173040999987,1124.7173040999987,1126.9660774000004,,,,1126.9664209000002,1126.9816213000013,1126.9816213000013,1126.9816213000013,1127.281245099999,,1127.3323530999987,,,,up,2.2392658999997366,None,space,0.34484470000097645,None,,,,,,,,,,,,P123,001,2024-11-20_15h48.45.032,posner_endo_new1,2024.2.4,60.060889729995196,2024-11-20 15h48.53.149324 +0000,
10,0.005,37,37,0,down,1.8887500000018917,None,None,,,,,,,0,37,37,37,,,,,1127.347910700002,,,,,,,,,,,,1127.3325982999995,1127.347910700002,1127.347910700002,1129.2470662000014,,,,1129.2474005000004,1129.2626492999989,1129.2626492999989,1129.2626492999989,1129.5622675000013,1130.278213900001,1132.2596904999991,,,,down,1.8887500000018917,None,None,,,,,,,,,,,,,,P123,001,2024-11-20_15h48.45.032,posner_endo_new1,2024.2.4,60.060889729995196,2024-11-20 15h48.53.149324 +0000,
0.005,0.31,38,38,0,down,2.961031800001365,None,space,0.2775556000015058,None,,,,,0,38,38,38,,,,,1132.2762126000016,,,,,,,,,,,,1132.2599212000023,1132.2762126000016,1132.2762126000016,1135.2408744999993,,,,1135.2412188000017,1135.2564927000021,1135.2564927000021,1135.2564927000021,1135.556106600001,,1135.5404329000012,,,,down,2.961031800001365,None,space,0.2775556000015058,None,,,,,,,,,,,,P123,001,2024-11-20_15h48.45.032,posner_endo_new1,2024.2.4,60.060889729995196,2024-11-20 15h48.53.149324 +0000,
0.005,-0.31,39,39,0,up,2.856619899997895,None,space,0.4002894000004744,None,,,,,0,39,39,39,,,,,1135.556106600001,,,,,,,,,,,,1135.5406628000019,1135.556106600001,1135.556106600001,1138.4210015999997,,,,1138.4213337,1138.4362830999999,1138.4362830999999,1138.4362830999999,1138.7361548000008,,1138.8535974000006,,,,up,2.856619899997895,None,space,0.4002894000004744,None,,,,,,,,,,,,P123,001,2024-11-20_15h48.45.032,posner_endo_new1,2024.2.4,60.060889729995196,2024-11-20 15h48.53.149324 +0000,
0.31,0.005,40,40,0,down,2.183278300002712,None,space,0.2857067000004463,None,,,,,0,40,40,40,,,,,1138.8692819999997,,,,,,,,,,,,1138.8538312000019,1138.8692819999997,1138.8692819999997,1141.0681151999997,,,,1141.0684624999994,1141.0838933000014,1141.0838933000014,1141.0838933000014,1141.3835648999993,,1141.384694700002,,,,down,2.183278300002712,None,space,0.2857067000004463,None,,,,,,,,,,,,P123,001,2024-11-20_15h48.45.032,posner_endo_new1,2024.2.4,60.060889729995196,2024-11-20 15h48.53.149324 +0000,
-0.31,0.005,41,41,0,up,2.380586300001596,None,space,0.29296590000012657,None,,,,,0,41,41,41,,,,,1141.4001678000022,,,,,,,,,,,,1141.3849365999995,1141.4001678000022,1141.4001678000022,1143.7821661999988,,,,1143.782497600001,1143.7977781000009,1143.7977781000009,1143.7977781000009,1144.0973068000021,,1144.0985137999996,,,,up,2.380586300001596,None,space,0.29296590000012657,None,,,,,,,,,,,,P123,001,2024-11-20_15h48.45.032,posner_endo_new1,2024.2.4,60.060889729995196,2024-11-20 15h48.53.149324 +0000,
0.31,0.005,42,42,0,down,2.010992499999702,None,space,0.31061500000214437,None,,,,,0,42,42,42,,,,,1144.1140350999995,,,,,,,,,,,,1144.0987464999998,1144.1140350999995,1144.1140350999995,1146.129719200002,,,,1146.1300536999988,1146.145420500001,1146.145420500001,1146.145420500001,1146.4450615999995,,1146.462662599999,,,,down,2.010992499999702,None,space,0.31061500000214437,None,,,,,,,,,,,,P123,001,2024-11-20_15h48.45.032,posner_endo_new1,2024.2.4,60.060889729995196,2024-11-20 15h48.53.149324 +0000,
10,0.005,43,43,0,up,2.4942795999995724,None,None,,,,,,,0,43,43,43,,,,,1146.4783878000017,,,,,,,,,,,,1146.462894100001,1146.4783878000017,1146.4783878000017,1148.9768129000004,,,,1148.9771423999991,1148.9924668000021,1148.9924668000021,1148.9924668000021,1149.2921014000021,1150.0080644000009,1151.9896700999998,,,,up,2.4942795999995724,None,None,,,,,,,,,,,,,,P123,001,2024-11-20_15h48.45.032,posner_endo_new1,2024.2.4,60.060889729995196,2024-11-20 15h48.53.149324 +0000,
-0.31,0.005,44,44,0,up,5.822606599998835,None,space,0.3799663999998302,None,,,,,0,44,44,44,,,,,1152.0060245000022,,,,,,,,,,,,1151.9901871000002,1152.0060245000022,1152.0060245000022,1157.8359318000003,,,,1157.8366693999997,1157.8504255000007,1157.8504255000007,1157.8504255000007,1158.149743599999,,1158.2358243999988,,,,up,5.822606599998835,None,space,0.3799663999998302,None,,,,,,,,,,,,P123,001,2024-11-20_15h48.45.032,posner_endo_new1,2024.2.4,60.060889729995196,2024-11-20 15h48.53.149324 +0000,
0.005,0.31,45,45,0,down,2.6509934999994584,None,space,0.3791345000026922,None,,,,,0,45,45,45,,,,,1158.2498994999987,,,,,,,,,,,,1158.236378900001,1158.2498994999987,1158.2498994999987,1160.9157812000012,,,,1160.9165021000008,1160.9305175000009,1160.9305175000009,1160.9305175000009,1161.2299125999998,,1161.315652199999,,,,down,2.6509934999994584,None,space,0.3791345000026922,None,,,,,,,,,,,,P123,001,2024-11-20_15h48.45.032,posner_endo_new1,2024.2.4,60.060889729995196,2024-11-20 15h48.53.149324 +0000,
0.005,-0.31,46,46,0,up,2.5954023000012967,None,space,0.370729799997207,None,,,,,0,46,46,46,,,,,1161.3297777000007,,,,,,,,,,,,1161.3161934000018,1161.3297777000007,1161.3297777000007,1163.9296532000008,,,,1163.930387700002,1163.9441908000008,1163.9441908000008,1163.9441908000008,1164.243489200002,,1164.3292059000014,,,,up,2.5954023000012967,None,space,0.370729799997207,None,,,,,,,,,,,,P123,001,2024-11-20_15h48.45.032,posner_endo_new1,2024.2.4,60.060889729995196,2024-11-20 15h48.53.149324 +0000,
-0.31,0.005,47,47,0,down,2.0294548999991093,None,space,0.3738757999999507,None,,,,,0,47,47,47,,,,,1164.3434213,,,,,,,,,,,,1164.3297339000019,1164.3434213,1164.3434213,1166.3773499000017,,,,1166.3780822000008,1166.391728900002,1166.391728900002,1166.391728900002,1166.6909718999996,,1166.7767108000007,,,,down,2.0294548999991093,None,space,0.3738757999999507,None,,,,,,,,,,,,P123,001,2024-11-20_15h48.45.032,posner_endo_new1,2024.2.4,60.060889729995196,2024-11-20 15h48.53.149324 +0000,
0.005,-0.31,48,48,0,up,2.5416253000003053,None,space,0.42692710000119405,None,,,,,0,48,48,48,,,,,1166.7908806000014,,,,,,,,,,,,1166.7772493000011,1166.7908806000014,1166.7908806000014,1169.3407599999991,,,,1169.3414991999998,1169.3552253999987,1169.3552253999987,1169.3552253999987,1169.654564200002,,1169.7905926999993,,,,up,2.5416253000003053,None,space,0.42692710000119405,None,,,,,,,,,,,,P123,001,2024-11-20_15h48.45.032,posner_endo_new1,2024.2.4,60.060889729995196,2024-11-20 15h48.53.149324 +0000,
0.005,-0.31,49,49,0,down,2.7684654999975464,None,space,0.2508858000001055,None,,,,,0,49,49,49,,,,,1169.8044741000012,,,,,,,,,,,,1169.791142099999,1169.8044741000012,1169.8044741000012,1172.5872283999997,,,,1172.5879638000006,1172.6018599999989,1172.6018599999989,1172.6018599999989,,,1172.8702329000007,,,,down,2.7684654999975464,None,space,0.2508858000001055,None,,,,,,,,,,,,P123,001,2024-11-20_15h48.45.032,posner_endo_new1,2024.2.4,60.060889729995196,2024-11-20 15h48.53.149324 +0000,
0.005,0.31,50,50,0,up,7.711930199999188,None,space,0.33929669999997714,None,,,,,0,50,50,50,,,,,1172.8846464000017,,,,,,,,,,,,1172.8707882999988,1172.8846464000017,1172.8846464000017,1180.6124726999988,,,,1180.6131993999988,1180.6270578000003,1180.6270578000003,1180.6270578000003,1180.926421799999,,1180.9788554000006,,,,up,7.711930199999188,None,space,0.33929669999997714,None,,,,,,,,,,,,P123,001,2024-11-20_15h48.45.032,posner_endo_new1,2024.2.4,60.060889729995196,2024-11-20 15h48.53.149324 +0000,
0.31,0.005,51,51,0,down,2.66822669999965,None,space,0.303465299999516,None,,,,,0,51,51,51,,,,,1180.9929596000002,,,,,,,,,,,,1180.9794102000014,1180.9929596000002,1180.9929596000002,1183.6760993999997,,,,1183.6768424000002,1183.6906276000009,1183.6906276000009,1183.6906276000009,1183.989944699999,,1184.0090320000018,,,,down,2.66822669999965,None,space,0.303465299999516,None,,,,,,,,,,,,P123,001,2024-11-20_15h48.45.032,posner_endo_new1,2024.2.4,60.060889729995196,2024-11-20 15h48.53.149324 +0000,
0.31,0.005,52,52,0,up,3.4131126000029326,None,space,0.4426692999986699,None,,,,,0,52,52,52,,,,,1184.0232515999996,,,,,,,,,,,,1184.0095628999989,1184.0232515999996,1184.0232515999996,1187.4391443999993,,,,1187.4398906999995,1187.4535149000003,1187.4535149000003,1187.4535149000003,1187.752763700002,,1187.9055888000003,,,,up,3.4131126000029326,None,space,0.4426692999986699,None,,,,,,,,,,,,P123,001,2024-11-20_15h48.45.032,posner_endo_new1,2024.2.4,60.060889729995196,2024-11-20 15h48.53.149324 +0000,
0.005,0.31,53,53,0,down,2.4056825999978173,None,space,0.3336621999987983,None,,,,,0,53,53,53,,,,,1187.9193650000016,,,,,,,,,,,,1187.906146100002,1187.9193650000016,1187.9193650000016,1190.3359210999988,,,,1190.3366663000015,1190.3505031000022,1190.3505031000022,1190.3505031000022,1190.6498204000018,,1190.7019355000011,,,,down,2.4056825999978173,None,space,0.3336621999987983,None,,,,,,,,,,,,P123,001,2024-11-20_15h48.45.032,posner_endo_new1,2024.2.4,60.060889729995196,2024-11-20 15h48.53.149324 +0000,
-0.31,0.005,54,54,0,up,2.75289039999916,None,space,0.5477408999977342,None,,,,,0,54,54,54,,,,,1190.716371300001,,,,,,,,,,,,1190.7024672000007,1190.716371300001,1190.716371300001,1193.4825106999997,,,,1193.483239600002,1193.4971757999992,1193.4971757999992,1193.4971757999992,1193.7965881000018,,1194.0490095000023,,,,up,2.75289039999916,None,space,0.5477408999977342,None,,,,,,,,,,,,P123,001,2024-11-20_15h48.45.032,posner_endo_new1,2024.2.4,60.060889729995196,2024-11-20 15h48.53.149324 +0000,
10,0.005,55,55,0,down,1.9979311999995844,None,None,,,,,,,0,55,55,55,,,,,1194.0629702000006,,,,,,,,,,,,1194.0495465000022,1194.0629702000006,1194.0629702000006,1196.0633759000011,,,,1196.0641082000002,1196.077927800001,1196.077927800001,1196.077927800001,1196.3772266000014,1197.0932193000008,1199.0748190000013,,,,down,1.9979311999995844,None,None,,,,,,,,,,,,,,P123,001,2024-11-20_15h48.45.032,posner_endo_new1,2024.2.4,60.060889729995196,2024-11-20 15h48.53.149324 +0000,
0.31,0.005,56,56,0,up,1.0493663999986893,None,space,0.3060771999989811,None,,,,,0,56,56,56,,,,,1199.0911336999998,,,,,,,,,,,,1199.0753218999998,1199.0911336999998,1199.0911336999998,1200.1429659000023,,,,1200.1436973000018,1200.1572357000005,1200.1572357000005,1200.1572357000005,1200.4564071000023,,1200.4754605000016,,,,up,1.0493663999986893,None,space,0.3060771999989811,None,,,,,,,,,,,,P123,001,2024-11-20_15h48.45.032,posner_endo_new1,2024.2.4,60.060889729995196,2024-11-20 15h48.53.149324 +0000,
0.005,0.31,57,57,0,down,2.7549925000021176,None,space,0.3279569999976957,None,,,,,0,57,57,57,,,,,1200.4897533000003,,,,,,,,,,,,1200.4759935000002,1200.4897533000003,1200.4897533000003,1203.2558900000004,,,,1203.2566423999997,1203.2705547000005,1203.2705547000005,1203.2705547000005,1203.5699292999998,,1203.6057784000004,,,,down,2.7549925000021176,None,space,0.3279569999976957,None,,,,,,,,,,,,P123,001,2024-11-20_15h48.45.032,posner_endo_new1,2024.2.4,60.060889729995196,2024-11-20 15h48.53.149324 +0000,
-0.31,0.005,58,58,0,up,3.0650281999987783,None,space,0.31390169999940554,None,,,,,0,58,58,58,,,,,1203.6198556000018,,,,,,,,,,,,1203.6063065000017,1203.6198556000018,1203.6198556000018,1206.7021534000014,,,,1206.7029211000008,1206.716685200001,1206.716685200001,1206.716685200001,1207.015862799999,,1207.0342505000008,,,,up,3.0650281999987783,None,space,0.31390169999940554,None,,,,,,,,,,,,P123,001,2024-11-20_15h48.45.032,posner_endo_new1,2024.2.4,60.060889729995196,2024-11-20 15h48.53.149324 +0000,
-0.31,0.005,59,59,0,down,2.371203399998194,None,space,0.39757409999947413,None,,,,,0,59,59,59,,,,,1207.049186100001,,,,,,,,,,,,1207.0345992000002,1207.049186100001,1207.049186100001,1209.4316400999996,,,,1209.4321170000003,1209.4467337999995,1209.4467337999995,1209.4467337999995,1209.7463930000013,,1209.8479742000018,,,,down,2.371203399998194,None,space,0.39757409999947413,None,,,,,,,,,,,,P123,001,2024-11-20_15h48.45.032,posner_endo_new1,2024.2.4,60.060889729995196,2024-11-20 15h48.53.149324 +0000,
,,,,,,,,,,,,,,,,,,,,,,,,,,,,,,,,,,,,,,,,,,,,,,,,,,,,,,,,,,1209.8481931999995,1209.8629647000016,1209.8629647000016,1269.8372769999987,None,,,,,,,P123,001,2024-11-20_15h48.45.032,posner_endo_new1,2024.2.4,60.060889729995196,2024-11-20 15h48.53.149324 +0000,
,,,,,,,,,,,,,,,,,,,,,,,,,,,,,,,,1269.8374891999993,1269.8521075999997,1272.8492970000007,,,,,,,,,,,,,,,,,,,,,,,,,,,,,,,,,,,P123,001,2024-11-20_15h48.45.032,posner_endo_new1,2024.2.4,60.060889729995196,2024-11-20 15h48.53.149324 +0000,
0.005,0.31,0,0,0,down,10.15866029999961,None,space,0.5642101999983424,None,,,,,,,,,0,0,0,0,1272.8862043000008,,,,,,,,,,,,1272.8775905000002,1272.8862043000008,1272.8862043000008,1283.0575849000015,,,,1283.0583912000002,1283.0722602999995,1283.0722602999995,1283.0722602999995,1283.3716377000019,,1283.6406026000004,,,,,,,,,,,,,,,down,10.15866029999961,None,space,0.5642101999983424,None,P123,001,2024-11-20_15h48.45.032,posner_endo_new1,2024.2.4,60.060889729995196,2024-11-20 15h48.53.149324 +0000,
-0.31,0.005,1,1,0,up,2.4147966999989876,None,space,0.3041512999989209,None,,,,,,,,,0,1,1,1,1283.654653900001,,,,,,,,,,,,1283.6411445000012,1283.654653900001,1283.654653900001,1286.071736599999,,,,1286.0724744,1286.0859827000022,1286.0859827000022,1286.0859827000022,1286.385156700002,,1286.4042453000002,,,,,,,,,,,,,,,up,2.4147966999989876,None,space,0.3041512999989209,None,P123,001,2024-11-20_15h48.45.032,posner_endo_new1,2024.2.4,60.060889729995196,2024-11-20 15h48.53.149324 +0000,
0.005,-0.31,2,2,0,down,1.9301285999972606,None,space,0.44008129999929224,None,,,,,,,,,0,2,2,2,1286.418501799999,,,,,,,,,,,,1286.4047917999997,1286.418501799999,1286.418501799999,1288.3523634000012,,,,1288.3530907999993,1288.3668868999994,1288.3668868999994,1288.3668868999994,1288.6661984999992,,1288.8184562999995,,,,,,,,,,,,,,,down,1.9301285999972606,None,space,0.44008129999929224,None,P123,001,2024-11-20_15h48.45.032,posner_endo_new1,2024.2.4,60.060889729995196,2024-11-20 15h48.53.149324 +0000,
0.31,0.005,3,3,0,up,2.204356899997947,None,space,0.308827900000324,None,,,,,,,,,0,3,3,3,1288.8327006,,,,,,,,,,,,1288.8190194999988,1288.8327006,1288.8327006,1291.0493333000013,,,,1291.0500721999997,1291.0640272000019,1291.0640272000019,1291.0640272000019,1291.3634630000015,,1291.382730600002,,,,,,,,,,,,,,,up,2.204356899997947,None,space,0.308827900000324,None,P123,001,2024-11-20_15h48.45.032,posner_endo_new1,2024.2.4,60.060889729995196,2024-11-20 15h48.53.149324 +0000,
0.005,0.31,4,4,0,down,1.600299300000188,None,space,0.2954043999998248,None,,,,,,,,,0,4,4,4,1291.3967701000001,,,,,,,,,,,,1291.3832877999994,1291.3967701000001,1291.3967701000001,1293.014009800001,,,,1293.014757500001,1293.0284787000019,1293.0284787000019,1293.0284787000019,1293.3281410000018,,1293.3307898999992,,,,,,,,,,,,,,,down,1.600299300000188,None,space,0.2954043999998248,None,P123,001,2024-11-20_15h48.45.032,posner_endo_new1,2024.2.4,60.060889729995196,2024-11-20 15h48.53.149324 +0000,
0.005,-0.31,5,5,0,up,2.500000200001523,None,space,0.34399409999969066,None,,,,,,,,,0,5,5,5,1293.3447754000008,,,,,,,,,,,,1293.3313297000022,1293.3447754000008,1293.3447754000008,1295.8611144999995,,,,1295.8618521999997,1295.8755392999992,1295.8755392999992,1295.8755392999992,1296.1752311000018,,1296.2279521000019,,,,,,,,,,,,,,,up,2.500000200001523,None,space,0.34399409999969066,None,P123,001,2024-11-20_15h48.45.032,posner_endo_new1,2024.2.4,60.060889729995196,2024-11-20 15h48.53.149324 +0000,
-0.31,0.005,6,6,0,down,1.7708992000007129,None,space,0.28647519999867654,None,,,,,,,,,0,6,6,6,1296.2417712999995,,,,,,,,,,,,1296.2285123000001,1296.2417712999995,1296.2417712999995,1298.0255700000016,,,,1298.026300900001,1298.0402231000007,1298.0402231000007,1298.0402231000007,1298.3396410000023,,1298.3421414000004,,,,,,,,,,,,,,,down,1.7708992000007129,None,space,0.28647519999867654,None,P123,001,2024-11-20_15h48.45.032,posner_endo_new1,2024.2.4,60.060889729995196,2024-11-20 15h48.53.149324 +0000,
0.005,0.31,7,7,0,up,2.504064799999469,None,space,0.4257178000007116,None,,,,,,,,,0,7,7,7,1298.356313700002,,,,,,,,,,,,1298.342685800002,1298.356313700002,1298.356313700002,1300.8726984999994,,,,1300.8734544,1300.8873860000022,1300.8873860000022,1300.8873860000022,1301.1867433000007,,1301.322347100002,,,,,,,,,,,,,,,up,2.504064799999469,None,space,0.4257178000007116,None,P123,001,2024-11-20_15h48.45.032,posner_endo_new1,2024.2.4,60.060889729995196,2024-11-20 15h48.53.149324 +0000,
0.31,0.005,8,8,0,down,1.652618899999652,None,space,0.5613095000007888,None,,,,,,,,,0,8,8,8,1301.3365715,,,,,,,,,,,,1301.3228999999992,1301.3365715,1301.3365715,1303.0038875999999,,,,1303.0046215000002,1303.0185214000012,1303.0185214000012,1303.0185214000012,1303.3179595000001,,1303.5870851,,,,,,,,,,,,,,,down,1.652618899999652,None,space,0.5613095000007888,None,P123,001,2024-11-20_15h48.45.032,posner_endo_new1,2024.2.4,60.060889729995196,2024-11-20 15h48.53.149324 +0000,
10,0.005,9,9,0,up,1.7238715999992564,None,None,,,,,,,,,,,0,9,9,9,1303.6009658000003,,,,,,,,,,,,1303.5876353999993,1303.6009658000003,1303.6009658000003,1305.3349297999994,,,,1305.3356578999992,1305.3494345,1305.3494345,1305.3494345,1305.6488242000014,1306.3647633,1308.3463530000008,,,,,,,,,,,,,,,up,1.7238715999992564,None,None,,,P123,001,2024-11-20_15h48.45.032,posner_endo_new1,2024.2.4,60.060889729995196,2024-11-20 15h48.53.149324 +0000,
0.31,0.005,10,10,0,down,0.010489600001164945,None,space,0.27039850000073784,None,,,,,,,,,0,10,10,10,1308.3627282000016,,,,,,,,,,,,1308.3468539000023,1308.3627282000016,1308.3627282000016,1308.3821844000013,,,,1308.3829256999998,1308.3965224000021,1308.3965224000021,1308.3965224000021,1308.6957139000006,,1308.6816997999995,,,,,,,,,,,,,,,down,0.010489600001164945,None,space,0.27039850000073784,None,P123,001,2024-11-20_15h48.45.032,posner_endo_new1,2024.2.4,60.060889729995196,2024-11-20 15h48.53.149324 +0000,
0.005,0.31,11,11,0,up,2.7485816000007617,None,space,0.3858682999998564,None,,,,,,,,,0,11,11,11,1308.6957139000006,,,,,,,,,,,,1308.6822567999989,1308.6957139000006,1308.6957139000006,1311.461542500001,,,,1311.4622873000008,1311.4762058000015,1311.4762058000015,1311.4762058000015,1311.7759308999994,,1311.8781420000014,,,,,,,,,,,,,,,up,2.7485816000007617,None,space,0.3858682999998564,None,P123,001,2024-11-20_15h48.45.032,posner_endo_new1,2024.2.4,60.060889729995196,2024-11-20 15h48.53.149324 +0000,
10,0.005,12,12,0,down,1.8325665999982448,None,None,,,,,,,,,,,0,12,12,12,1311.8924396000002,,,,,,,,,,,,1311.878685399999,1311.8924396000002,1311.8924396000002,1313.7427504000007,,,,1313.743501500001,1313.757253300002,1313.757253300002,1313.757253300002,1314.0569056000022,1314.7728430999996,1316.7544481000004,,,,,,,,,,,,,,,down,1.8325665999982448,None,None,,,P123,001,2024-11-20_15h48.45.032,posner_endo_new1,2024.2.4,60.060889729995196,2024-11-20 15h48.53.149324 +0000,
-0.31,0.005,13,13,0,down,2.434441000001243,None,space,0.28483499999856576,None,,,,,,,,,0,13,13,13,1316.7707742999992,,,,,,,,,,,,1316.7549598000005,1316.7707742999992,1316.7707742999992,1319.2205508000006,,,,1319.2212870000003,1319.2351894000021,1319.2351894000021,1319.2351894000021,1319.5346242000014,,1319.5371003,,,,,,,,,,,,,,,down,2.434441000001243,None,space,0.28483499999856576,None,P123,001,2024-11-20_15h48.45.032,posner_endo_new1,2024.2.4,60.060889729995196,2024-11-20 15h48.53.149324 +0000,
0.31,0.005,14,14,0,up,3.645618700000341,None,space,0.3551332999995793,None,,,,,,,,,0,14,14,14,1319.5512817000017,,,,,,,,,,,,1319.537633,1319.5512817000017,1319.5512817000017,1323.1986137999993,,,,1323.1990934999994,1323.2136721999996,1323.2136721999996,1323.2136721999996,1323.5133685,,1323.5815602000002,,,,,,,,,,,,,,,up,3.645618700000341,None,space,0.3551332999995793,None,P123,001,2024-11-20_15h48.45.032,posner_endo_new1,2024.2.4,60.060889729995196,2024-11-20 15h48.53.149324 +0000,
0.005,-0.31,15,15,0,down,2.5442199999997683,None,space,0.288943499999732,None,,,,,,,,,0,15,15,15,1323.596600500001,,,,,,,,,,,,1323.5819120000015,1323.596600500001,1323.596600500001,1326.1455970999996,,,,1326.1460764000003,1326.1606691000015,1326.1606691000015,1326.1606691000015,1326.4603252000015,,1326.4618975000012,,,,,,,,,,,,,,,down,2.5442199999997683,None,space,0.288943499999732,None,P123,001,2024-11-20_15h48.45.032,posner_endo_new1,2024.2.4,60.060889729995196,2024-11-20 15h48.53.149324 +0000,
0.31,0.005,16,16,0,up,3.1356524000002537,None,space,0.35962889999791514,None,,,,,,,,,0,16,16,16,1326.4770114999992,,,,,,,,,,,,1326.4622337,1326.4770114999992,1326.4770114999992,1329.6252435999995,,,,1329.6255506000016,1329.6407409000021,1329.6407409000021,1329.6407409000021,1329.9405769000005,,1330.008076099999,,,,,,,,,,,,,,,up,3.1356524000002537,None,space,0.35962889999791514,None,P123,001,2024-11-20_15h48.45.032,posner_endo_new1,2024.2.4,60.060889729995196,2024-11-20 15h48.53.149324 +0000,
0.31,0.005,17,17,0,down,2.109254700000747,None,space,0.29111720000219066,None,,,,,,,,,0,17,17,17,1330.0237560000023,,,,,,,,,,,,1330.0083023000007,1330.0237560000023,1330.0237560000023,1332.1393878999988,,,,1332.139694100002,1332.1549732999993,1332.1549732999993,1332.1549732999993,1332.4547180000009,,1332.4557118000012,,,,,,,,,,,,,,,down,2.109254700000747,None,space,0.29111720000219066,None,P123,001,2024-11-20_15h48.45.032,posner_endo_new1,2024.2.4,60.060889729995196,2024-11-20 15h48.53.149324 +0000,
0.005,-0.31,18,18,0,up,3.6948687999974936,None,space,0.3495944000023883,None,,,,,,,,,0,18,18,18,1332.4714132000008,,,,,,,,,,,,1332.4559254000014,1332.4714132000008,1332.4714132000008,1336.168534700002,,,,1336.1688490000015,1336.1842214999997,1336.1842214999997,1336.1842214999997,1336.483753200002,,1336.534868300001,,,,,,,,,,,,,,,up,3.6948687999974936,None,space,0.3495944000023883,None,P123,001,2024-11-20_15h48.45.032,posner_endo_new1,2024.2.4,60.060889729995196,2024-11-20 15h48.53.149324 +0000,
0.005,-0.31,19,19,0,down,2.325942600000417,None,space,0.58607259999917,None,,,,,,,,,0,19,19,19,1336.5504763999998,,,,,,,,,,,,1336.535092099999,1336.5504763999998,1336.5504763999998,1338.8826919999992,,,,1338.883000400001,1338.8981110000022,1338.8981110000022,1338.8981110000022,1339.1977312999988,,1339.4984465999987,,,,,,,,,,,,,,,down,2.325942600000417,None,space,0.58607259999917,None,P123,001,2024-11-20_15h48.45.032,posner_endo_new1,2024.2.4,60.060889729995196,2024-11-20 15h48.53.149324 +0000,
10,0.005,20,20,0,up,2.5786134999980277,None,None,,,,,,,,,,,0,20,20,20,1339.5141532000016,,,,,,,,,,,,1339.4986614000009,1339.5141532000016,1339.5141532000016,1342.0958047999993,,,,1342.096113800002,1342.111454400001,1342.111454400001,1342.111454400001,1342.4111938999995,1343.1271148000014,1345.1085973000008,,,,,,,,,,,,,,,up,2.5786134999980277,None,None,,,P123,001,2024-11-20_15h48.45.032,posner_endo_new1,2024.2.4,60.060889729995196,2024-11-20 15h48.53.149324 +0000,
0.005,-0.31,21,21,0,up,2.1759805000001506,None,space,0.41845439999815426,None,,,,,,,,,0,21,21,21,1345.124973599999,,,,,,,,,,,,1345.108816,1345.124973599999,1345.124973599999,1347.306967299999,,,,1347.3072739999989,1347.3228615000007,1347.3228615000007,1347.3228615000007,1347.6224700999992,,1347.7566134000008,,,,,,,,,,,,,,,up,2.1759805000001506,None,space,0.41845439999815426,None,P123,001,2024-11-20_15h48.45.032,posner_endo_new1,2024.2.4,60.060889729995196,2024-11-20 15h48.53.149324 +0000,
0.005,0.31,22,22,0,down,2.232674599999882,None,space,0.2864908999981708,None,,,,,,,,,0,22,22,22,1347.7723280999999,,,,,,,,,,,,1347.756829500002,1347.7723280999999,1347.7723280999999,1350.0209431000003,,,,1350.0212525999996,1350.0366027000018,1350.0366027000018,1350.0366027000018,1350.336516700001,,1350.3375113000002,,,,,,,,,,,,,,,down,2.232674599999882,None,space,0.2864908999981708,None,P123,001,2024-11-20_15h48.45.032,posner_endo_new1,2024.2.4,60.060889729995196,2024-11-20 15h48.53.149324 +0000,
0.31,0.005,23,23,0,up,2.6681349000027694,None,space,0.3700131000005058,None,,,,,,,,,0,23,23,23,1350.353025700002,,,,,,,,,,,,1350.3377217999987,1350.353025700002,1350.353025700002,1353.0345011999998,,,,1353.0348133000007,1353.0500773999993,1353.0500773999993,1353.0500773999993,1353.3499841000012,,1353.434124200001,,,,,,,,,,,,,,,up,2.6681349000027694,None,space,0.3700131000005058,None,P123,001,2024-11-20_15h48.45.032,posner_endo_new1,2024.2.4,60.060889729995196,2024-11-20 15h48.53.149324 +0000,
-0.31,0.005,24,24,0,down,2.675168699999631,None,space,0.2979957000025024,None,,,,,,,,,0,24,24,24,1353.4499184000015,,,,,,,,,,,,1353.434339800002,1353.4499184000015,1353.4499184000015,1356.1312380999989,,,,1356.1315452000017,1356.1471210000018,1356.1471210000018,1356.1471210000018,1356.4467996999992,,1356.4479060000012,,,,,,,,,,,,,,,down,2.675168699999631,None,space,0.2979957000025024,None,P123,001,2024-11-20_15h48.45.032,posner_endo_new1,2024.2.4,60.060889729995196,2024-11-20 15h48.53.149324 +0000,
10,0.005,25,25,0,up,2.493819600000279,None,None,,,,,,,,,,,0,25,25,25,1356.4634718999987,,,,,,,,,,,,1356.4481199000002,1356.4634718999987,1356.4634718999987,1358.9634320000005,,,,1358.9641687000003,1358.9779419000006,1358.9779419000006,1358.9779419000006,1359.277296100001,1359.993212199999,1361.9748935999996,,,,,,,,,,,,,,,up,2.493819600000279,None,None,,,P123,001,2024-11-20_15h48.45.032,posner_endo_new1,2024.2.4,60.060889729995196,2024-11-20 15h48.53.149324 +0000,
0.005,0.31,26,26,0,up,2.3973798000006354,None,space,0.3545199000000139,None,,,,,,,,,0,26,26,26,1361.991192100002,,,,,,,,,,,,1361.9754055000012,1361.991192100002,1361.991192100002,1364.391454200002,,,,1364.3921808000014,1364.4058259000012,1364.4058259000012,1364.4058259000012,1364.705090899999,,1364.774208400002,,,,,,,,,,,,,,,up,2.3973798000006354,None,space,0.3545199000000139,None,P123,001,2024-11-20_15h48.45.032,posner_endo_new1,2024.2.4,60.060889729995196,2024-11-20 15h48.53.149324 +0000,
0.31,0.005,27,27,0,down,2.624818600001163,None,space,0.298443399999087,None,,,,,,,,,0,27,27,27,1364.7883573,,,,,,,,,,,,1364.774760100001,1364.7883573,1364.7883573,1367.4223368999992,,,,1367.4231101000005,1367.436557000001,1367.436557000001,1367.436557000001,1367.7521097999997,,1367.7383717000012,,,,,,,,,,,,,,,down,2.624818600001163,None,space,0.298443399999087,None,P123,001,2024-11-20_15h48.45.032,posner_endo_new1,2024.2.4,60.060889729995196,2024-11-20 15h48.53.149324 +0000,
0.005,0.31,28,28,0,up,2.700907599999482,None,space,0.31894260000262875,None,,,,,,,,,0,28,28,28,1367.7521097999997,,,,,,,,,,,,1367.7389459000005,1367.7521097999997,1367.7521097999997,1370.4681763000008,,,,1370.4689480000015,1370.4828471,1370.4828471,1370.4828471,1370.7822051000003,,1370.8183489000003,,,,,,,,,,,,,,,up,2.700907599999482,None,space,0.31894260000262875,None,P123,001,2024-11-20_15h48.45.032,posner_endo_new1,2024.2.4,60.060889729995196,2024-11-20 15h48.53.149324 +0000,
10,0.005,29,29,0,down,2.516242300000158,None,None,,,,,,,,,,,0,29,29,29,1370.832144600001,,,,,,,,,,,,1370.818895100001,1370.832144600001,1370.832144600001,1373.3638419999988,,,,1373.3643204,1373.3790217999995,1373.3790217999995,1373.3790217999995,1373.6787117999993,1374.3785524000014,1376.3767896999998,,,,,,,,,,,,,,,down,2.516242300000158,None,None,,,P123,001,2024-11-20_15h48.45.032,posner_endo_new1,2024.2.4,60.060889729995196,2024-11-20 15h48.53.149324 +0000,
0.005,-0.31,30,30,0,down,2.7157818999985466,None,space,0.3753227999986848,None,,,,,,,,,0,30,30,30,1376.3931360999995,,,,,,,,,,,,1376.3773060999993,1376.3931360999995,1376.3931360999995,1379.125852000001,,,,1379.1265939000004,1379.140374900002,1379.140374900002,1379.140374900002,1379.4400464999999,,1379.5256391000003,,,,,,,,,,,,,,,down,2.7157818999985466,None,space,0.3753227999986848,None,P123,001,2024-11-20_15h48.45.032,posner_endo_new1,2024.2.4,60.060889729995196,2024-11-20 15h48.53.149324 +0000,
0.31,0.005,31,31,0,up,3.6013707000020077,None,space,0.3772596999988309,None,,,,,,,,,0,31,31,31,1379.5398591000012,,,,,,,,,,,,1379.5261738000008,1379.5398591000012,1379.5398591000012,1383.155131399999,,,,1383.1559017,1383.169784400001,1383.169784400001,1383.169784400001,1383.4692227000014,,1383.5552012000007,,,,,,,,,,,,,,,up,3.6013707000020077,None,space,0.3772596999988309,None,P123,001,2024-11-20_15h48.45.032,posner_endo_new1,2024.2.4,60.060889729995196,2024-11-20 15h48.53.149324 +0000,
10,0.005,32,32,0,down,2.5396600999993098,None,None,,,,,,,,,,,0,32,32,32,1383.5690858000016,,,,,,,,,,,,1383.5557421000012,1383.5690858000016,1383.5690858000016,1386.1188268000005,,,,1386.1195507000011,1386.133418100002,1386.133418100002,1386.133418100002,1386.4328492999994,1387.1488033999995,1389.1303952999988,,,,,,,,,,,,,,,down,2.5396600999993098,None,None,,,P123,001,2024-11-20_15h48.45.032,posner_endo_new1,2024.2.4,60.060889729995196,2024-11-20 15h48.53.149324 +0000,
-0.31,0.005,33,33,0,down,2.666182100001606,None,space,0.3166349999992235,None,,,,,,,,,0,33,33,33,1389.1467639000002,,,,,,,,,,,,1389.1309021000015,1389.1467639000002,1389.1467639000002,1391.829805100002,,,,1391.830565100001,1391.8442011000006,1391.8442011000006,1391.8442011000006,1392.1437049000015,,1392.1633213000023,,,,,,,,,,,,,,,down,2.666182100001606,None,space,0.3166349999992235,None,P123,001,2024-11-20_15h48.45.032,posner_endo_new1,2024.2.4,60.060889729995196,2024-11-20 15h48.53.149324 +0000,
10,0.005,34,34,0,up,2.972111200000654,None,None,,,,,,,,,,,0,34,34,34,1392.1771511000006,,,,,,,,,,,,1392.1638817999992,1392.1771511000006,1392.1771511000006,1395.1596654000023,,,,1395.1604412000015,1395.174294299999,1395.174294299999,1395.174294299999,1395.4736291000008,1396.1895361999996,1398.171130300001,,,,,,,,,,,,,,,up,2.972111200000654,None,None,,,P123,001,2024-11-20_15h48.45.032,posner_endo_new1,2024.2.4,60.060889729995196,2024-11-20 15h48.53.149324 +0000,
0.005,-0.31,35,35,0,down,1.1782516000021133,None,space,0.43838119999782066,None,,,,,,,,,0,35,35,35,1398.187522799999,,,,,,,,,,,,1398.1716541999995,1398.187522799999,1398.187522799999,1399.3724002000017,,,,1399.3731614999997,1399.3868346000017,1399.3868346000017,1399.3868346000017,1399.6859876000017,,1399.838216,,,,,,,,,,,,,,,down,1.1782516000021133,None,space,0.43838119999782066,None,P123,001,2024-11-20_15h48.45.032,posner_endo_new1,2024.2.4,60.060889729995196,2024-11-20 15h48.53.149324 +0000,
0.31,0.005,36,36,0,up,3.448838899999828,None,space,0.37458179999885033,None,,,,,,,,,0,36,36,36,1399.8524161000023,,,,,,,,,,,,1399.838769099999,1399.8524161000023,1399.8524161000023,1403.317976800001,,,,1403.3187113999993,1403.3324189000014,1403.3324189000014,1403.3324189000014,1403.631941800002,,1403.7178313000004,,,,,,,,,,,,,,,up,3.448838899999828,None,space,0.37458179999885033,None,P123,001,2024-11-20_15h48.45.032,posner_endo_new1,2024.2.4,60.060889729995196,2024-11-20 15h48.53.149324 +0000,
10,0.005,37,37,0,down,3.264463200001046,None,None,,,,,,,,,,,0,37,37,37,1403.731893600001,,,,,,,,,,,,1403.7183781000022,1403.731893600001,1403.731893600001,1407.0140834000013,,,,1407.0148193000023,1407.0285269000015,1407.0285269000015,1407.0285269000015,1407.328149500001,1408.044092,1410.0256665000015,,,,,,,,,,,,,,,down,3.264463200001046,None,None,,,P123,001,2024-11-20_15h48.45.032,posner_endo_new1,2024.2.4,60.060889729995196,2024-11-20 15h48.53.149324 +0000,
10,0.005,38,38,0,up,0.37939319999713916,None,None,,,,,,,,,,,0,38,38,38,1410.0420330000015,,,,,,,,,,,,1410.0261692000022,1410.0420330000015,1410.0420330000015,1410.427541500001,,,,1410.4282901000006,1410.4420102000004,1410.4420102000004,1410.4420102000004,1410.7413254999992,1411.4572818000015,1413.438911000001,,,,,,,,,,,,,,,up,0.37939319999713916,None,None,,,P123,001,2024-11-20_15h48.45.032,posner_endo_new1,2024.2.4,60.060889729995196,2024-11-20 15h48.53.149324 +0000,
-0.31,0.005,39,39,0,down,0.8771197000023676,None,space,0.4094225999979244,None,,,,,,,,,0,39,39,39,1413.4552718000014,,,,,,,,,,,,1413.4394183000004,1413.4552718000014,1413.4552718000014,1414.3399546,,,,1414.3407054999989,1414.3546999999999,1414.3546999999999,1414.3546999999999,1414.6540262999988,,1414.7731709,,,,,,,,,,,,,,,down,0.8771197000023676,None,space,0.4094225999979244,None,P123,001,2024-11-20_15h48.45.032,posner_endo_new1,2024.2.4,60.060889729995196,2024-11-20 15h48.53.149324 +0000,
0.005,-0.31,40,40,0,up,3.2021951000024274,None,space,0.3675397000006342,None,,,,,,,,,0,40,40,40,1414.7871182999988,,,,,,,,,,,,1414.7737508999999,1414.7871182999988,1414.7871182999988,1418.0028009000016,,,,1418.0035401999994,1418.0175087999996,1418.0175087999996,1418.0175087999996,1418.3169178999997,,1418.4024002000006,,,,,,,,,,,,,,,up,3.2021951000024274,None,space,0.3675397000006342,None,P123,001,2024-11-20_15h48.45.032,posner_endo_new1,2024.2.4,60.060889729995196,2024-11-20 15h48.53.149324 +0000,
0.005,-0.31,41,41,0,down,3.8923504000013054,None,space,0.3674888999994437,None,,,,,,,,,0,41,41,41,1418.416809000002,,,,,,,,,,,,1418.4029620000001,1418.416809000002,1418.416809000002,1422.315123100001,,,,1422.3158465000015,1422.3297143000018,1422.3297143000018,1422.3297143000018,1422.629178700001,,1422.7148641000022,,,,,,,,,,,,,,,down,3.8923504000013054,None,space,0.3674888999994437,None,P123,001,2024-11-20_15h48.45.032,posner_endo_new1,2024.2.4,60.060889729995196,2024-11-20 15h48.53.149324 +0000,
10,0.005,42,42,0,up,1.8917713000009826,None,None,,,,,,,,,,,0,42,42,42,1422.729044399999,,,,,,,,,,,,1422.7154262000004,1422.729044399999,1422.729044399999,1424.6299165000019,,,,1424.6306719000022,1424.644228000001,1424.644228000001,1424.644228000001,1424.9434468,1425.6594017999996,1427.6410063000003,,,,,,,,,,,,,,,up,1.8917713000009826,None,None,,,P123,001,2024-11-20_15h48.45.032,posner_endo_new1,2024.2.4,60.060889729995196,2024-11-20 15h48.53.149324 +0000,
0.005,-0.31,43,43,0,down,0.891653500002576,None,space,0.3900779999967199,None,,,,,,,,,0,43,43,43,1427.6573774999997,,,,,,,,,,,,1427.6415259000023,1427.6573774999997,1427.6573774999997,1428.5592509999988,,,,1428.5600330000016,1428.573576400002,1428.573576400002,1428.573576400002,1428.8728068000019,,1428.9751638000016,,,,,,,,,,,,,,,down,0.891653500002576,None,space,0.3900779999967199,None,P123,001,2024-11-20_15h48.45.032,posner_endo_new1,2024.2.4,60.060889729995196,2024-11-20 15h48.53.149324 +0000,
-0.31,0.005,44,44,0,up,2.303990899999917,None,space,0.40139620000263676,None,,,,,,,,,0,44,44,44,1428.9893534000003,,,,,,,,,,,,1428.975753499999,1428.9893534000003,1428.9893534000003,1431.306090500002,,,,1431.306835700001,1431.3206843000007,1431.3206843000007,1431.3206843000007,1431.6199594999998,,1431.739053199999,,,,,,,,,,,,,,,up,2.303990899999917,None,space,0.40139620000263676,None,P123,001,2024-11-20_15h48.45.032,posner_endo_new1,2024.2.4,60.060889729995196,2024-11-20 15h48.53.149324 +0000,
10,0.005,45,45,0,down,3.851745600000868,None,None,,,,,,,,,,,0,45,45,45,1431.7531473000017,,,,,,,,,,,,1431.7395883999998,1431.7531473000017,1431.7531473000017,1435.6181877999989,,,,1435.6189935000002,1435.6328703,1435.6328703,1435.6328703,1435.9322696999989,1436.6481079000005,1438.629725400002,,,,,,,,,,,,,,,down,3.851745600000868,None,None,,,P123,001,2024-11-20_15h48.45.032,posner_endo_new1,2024.2.4,60.060889729995196,2024-11-20 15h48.53.149324 +0000,
0.005,0.31,46,46,0,down,2.614823799998703,None,space,0.49844389999998384,None,,,,,,,,,0,46,46,46,1438.6463717000006,,,,,,,,,,,,1438.6302475000011,1438.6463717000006,1438.6463717000006,1441.2789545000014,,,,1441.279685900001,1441.2933776999998,1441.2933776999998,1441.2933776999998,1441.5931053000022,,1441.7956021999998,,,,,,,,,,,,,,,down,2.614823799998703,None,space,0.49844389999998384,None,P123,001,2024-11-20_15h48.45.032,posner_endo_new1,2024.2.4,60.060889729995196,2024-11-20 15h48.53.149324 +0000,
0.005,-0.31,47,47,0,up,3.6513807000010274,None,space,0.4111641999988933,None,,,,,,,,,0,47,47,47,1441.8095156999989,,,,,,,,,,,,1441.796160400001,1441.8095156999989,1441.8095156999989,1445.4733895999998,,,,1445.4738709000012,1445.4886030000016,1445.4886030000016,1445.4886030000016,1445.7887499999997,,1445.9064149000005,,,,,,,,,,,,,,,up,3.6513807000010274,None,space,0.4111641999988933,None,P123,001,2024-11-20_15h48.45.032,posner_endo_new1,2024.2.4,60.060889729995196,2024-11-20 15h48.53.149324 +0000,
0.31,0.005,48,48,0,down,2.8986622000011266,None,space,0.4656448999994609,None,,,,,,,,,0,48,48,48,1445.922113200002,,,,,,,,,,,,1445.9066544999987,1445.922113200002,1445.922113200002,1448.8366849000013,,,,1448.8370161999992,1448.852209200002,1448.852209200002,1448.852209200002,1449.152019000001,,1449.3192973000005,,,,,,,,,,,,,,,down,2.8986622000011266,None,space,0.4656448999994609,None,P123,001,2024-11-20_15h48.45.032,posner_endo_new1,2024.2.4,60.060889729995196,2024-11-20 15h48.53.149324 +0000,
-0.31,0.005,49,49,0,up,2.253896900001564,None,space,0.39818409999861615,None,,,,,,,,,0,49,49,49,1449.3350811000018,,,,,,,,,,,,1449.3195315000012,1449.3350811000018,1449.3350811000018,1451.600427199999,,,,1451.600755200001,1451.615894999999,1451.615894999999,1451.615894999999,1451.9157115999988,,1452.016963099999,,,,,,,,,,,,,,,up,2.253896900001564,None,space,0.39818409999861615,None,P123,001,2024-11-20_15h48.45.032,posner_endo_new1,2024.2.4,60.060889729995196,2024-11-20 15h48.53.149324 +0000,
0.005,0.31,50,50,0,down,2.8206510999989405,None,space,0.28943140000046697,None,,,,,,,,,0,50,50,50,1452.0324250000012,,,,,,,,,,,,1452.0172037000011,1452.0324250000012,1452.0324250000012,1454.8638327000008,,,,1454.8641691000012,1454.8794941000015,1454.8794941000015,1454.8794941000015,1455.1792114000018,,1455.1802702000023,,,,,,,,,,,,,,,down,2.8206510999989405,None,space,0.28943140000046697,None,P123,001,2024-11-20_15h48.45.032,posner_endo_new1,2024.2.4,60.060889729995196,2024-11-20 15h48.53.149324 +0000,
0.005,0.31,51,51,0,up,2.97692570000072,None,space,0.3210517000006803,None,,,,,,,,,0,51,51,51,1455.1958882,,,,,,,,,,,,1455.1805005999995,1455.1958882,1455.1958882,1458.1770930999992,,,,1458.1774207000017,1458.192794300001,1458.192794300001,1458.192794300001,1458.492288100002,,1458.5268665000003,,,,,,,,,,,,,,,up,2.97692570000072,None,space,0.3210517000006803,None,P123,001,2024-11-20_15h48.45.032,posner_endo_new1,2024.2.4,60.060889729995196,2024-11-20 15h48.53.149324 +0000,
10,0.005,52,52,0,down,3.046387099999265,None,None,,,,,,,,,,,0,52,52,52,1458.5422261999993,,,,,,,,,,,,1458.5271001,1458.5422261999993,1458.5422261999993,1461.5904735000004,,,,1461.5908105999988,1461.6059730000015,1461.6059730000015,1461.6059730000015,1461.905585200002,1462.6215631000014,1464.602990700001,,,,,,,,,,,,,,,down,3.046387099999265,None,None,,,P123,001,2024-11-20_15h48.45.032,posner_endo_new1,2024.2.4,60.060889729995196,2024-11-20 15h48.53.149324 +0000,
-0.31,0.005,53,53,0,up,0.049121299998660106,None,space,0.42241740000099526,None,,,,,,,,,0,53,53,53,1464.619384900001,,,,,,,,,,,,1464.6032276000005,1464.619384900001,1464.619384900001,1464.6705500999997,,,,1464.6708954999995,1464.6861214000019,1464.6861214000019,1464.6861214000019,1464.9857526000014,,1465.119992,,,,,,,,,,,,,,,up,0.049121299998660106,None,space,0.42241740000099526,None,P123,001,2024-11-20_15h48.45.032,posner_endo_new1,2024.2.4,60.060889729995196,2024-11-20 15h48.53.149324 +0000,
10,0.005,54,54,0,down,2.645246700001735,None,None,,,,,,,,,,,0,54,54,54,1465.1356878000006,,,,,,,,,,,,1465.1202352,1465.1356878000006,1465.1356878000006,1467.7840601999997,,,,1467.7843902000022,1467.7996036000004,1467.7996036000004,1467.7996036000004,1468.099270300001,1468.7986124000017,1470.7966688000015,,,,,,,,,,,,,,,down,2.645246700001735,None,None,,,P123,001,2024-11-20_15h48.45.032,posner_endo_new1,2024.2.4,60.060889729995196,2024-11-20 15h48.53.149324 +0000,
0.005,0.31,55,55,0,up,0.11917239999820595,None,space,0.3614878000007593,None,,,,,,,,,0,55,55,55,1470.813425100001,,,,,,,,,,,,1470.7968925999994,1470.813425100001,1470.813425100001,1470.9473652000015,,,,1470.9477023,1470.9630036000017,1470.9630036000017,1470.9630036000017,1471.262825599999,,1471.3304605000012,,,,,,,,,,,,,,,up,0.11917239999820595,None,space,0.3614878000007593,None,P123,001,2024-11-20_15h48.45.032,posner_endo_new1,2024.2.4,60.060889729995196,2024-11-20 15h48.53.149324 +0000,
0.005,-0.31,56,56,0,down,2.5071570000000065,None,None,,,,,,,,,,,0,56,56,56,1471.345825700002,,,,,,,,,,,,1471.3306961999988,1471.345825700002,1471.345825700002,1473.8610384999993,,,,1473.8613803000007,1473.8767690999994,1473.8767690999994,1473.8767690999994,1474.176241000001,1474.8924084999999,1476.8738964000004,,,,,,,,,,,,,,,down,2.5071570000000065,None,None,,,P123,001,2024-11-20_15h48.45.032,posner_endo_new1,2024.2.4,60.060889729995196,2024-11-20 15h48.53.149324 +0000,
0.005,0.31,57,57,0,down,3.546920000000682,None,space,0.32910180000180844,None,,,,,,,,,0,57,57,57,1476.8902108000002,,,,,,,,,,,,1476.874130799999,1476.8902108000002,1476.8902108000002,1480.4542132999995,,,,1480.4545429999998,1480.4700908000013,1480.4700908000013,1480.4700908000013,1480.7696794000003,,1480.803968600001,,,,,,,,,,,,,,,down,3.546920000000682,None,space,0.32910180000180844,None,P123,001,2024-11-20_15h48.45.032,posner_endo_new1,2024.2.4,60.060889729995196,2024-11-20 15h48.53.149324 +0000,
-0.31,0.005,58,58,0,up,2.8254931999981636,None,space,0.3420723999988695,None,,,,,,,,,0,58,58,58,1480.8195688000014,,,,,,,,,,,,1480.804207600002,1480.8195688000014,1480.8195688000014,1483.650857200002,,,,1483.6511959000018,1483.6667459000018,1483.6667459000018,1483.6667459000018,1483.9664436999992,,1484.0174350000016,,,,,,,,,,,,,,,up,2.8254931999981636,None,space,0.3420723999988695,None,P123,001,2024-11-20_15h48.45.032,posner_endo_new1,2024.2.4,60.060889729995196,2024-11-20 15h48.53.149324 +0000,
-0.31,0.005,59,59,0,down,2.907513400001335,None,space,0.530054700000619,None,,,,,,,,,0,59,59,59,1484.0330871000006,,,,,,,,,,,,1484.0176692000023,1484.0330871000006,1484.0330871000006,1486.9476571000014,,,,1486.947985900002,1486.963350099999,1486.963350099999,1486.963350099999,1487.2630157999993,,1487.4972549000013,,,,,,,,,,,,,,,down,2.907513400001335,None,space,0.530054700000619,None,P123,001,2024-11-20_15h48.45.032,posner_endo_new1,2024.2.4,60.060889729995196,2024-11-20 15h48.53.149324 +0000,
