target_y,target_x,thisN,thisTrialN,thisRepN,key_control2.keys,key_control2.rt,key_control2.duration,key_resp.keys,key_resp.rt,key_resp.duration,practice.thisRepN,practice.thisTrialN,practice.thisN,practice.thisIndex,session_1.thisRepN,session_1.thisTrialN,session_1.thisN,session_1.thisIndex,session_2.thisRepN,session_2.thisTrialN,session_2.thisN,session_2.thisIndex,thisRow.t,notes,instructions.started,instructions_txt.started,key_control.started,instructions.stopped,key_control.keys,key_control.rt,key_control.duration,ready.started,ready_txt.started,ready.stopped,fix.started,key_control2.started,fixation_cross.started,fix.stopped,practice.key_control2.keys,practice.key_control2.rt,practice.key_control2.duration,target.started,star.started,fixation_cross_target.started,key_resp.started,star.stopped,key_resp.stopped,target.stopped,practice.key_resp.keys,practice.key_resp.rt,practice.key_resp.duration,session_1.key_control2.keys,session_1.key_control2.rt,session_1.key_control2.duration,session_1.key_resp.keys,session_1.key_resp.rt,session_1.key_resp.duration,break_2.started,text.started,key_control3.started,break_2.stopped,key_control3.keys,session_2.key_control2.keys,session_2.key_control2.rt,session_2.key_control2.duration,session_2.key_resp.keys,session_2.key_resp.rt,session_2.key_resp.duration,participant,session,date,expName,psychopyVersion,frameRate,expStart,
,,,,,,,,,,,,,,,,,,,,,,,,,0.007556700000009187,0.027601200000020754,0.027601200000020754,4540.8385235,up,4540.7885289999995,None,,,,,,,,,,,,,,,,,,,,,,,,,,,,,,,,,,,,,,P124,001,2024-11-21_07h47.59.581,posner_endo_new1,2024.2.4,59.97220887840568,2024-11-21 07h48.11.116548 +0000,
,,,,,,,,,,,,,,,,,,,,,,,,,,,,,,,,4540.8385946,4540.8489082,4543.8438317,,,,,,,,,,,,,,,,,,,,,,,,,,,,,,,,,,,P124,001,2024-11-21_07h47.59.581,posner_endo_new1,2024.2.4,59.97220887840568,2024-11-21 07h48.11.116548 +0000,
10,0.005,0,0,0,down,12.048211000000265,None,None,,,0,0,0,4,,,,,,,,,4543.8634785,,,,,,,,,,,,4543.8543534,4543.8634785,4543.8634785,4555.9153544,down,12.048211000000265,None,4555.9156334,4555.9311450000005,4555.9311450000005,4555.9311450000005,4556.2309244,4556.9301246,4558.9283785,None,,,,,,,,,,,,,,,,,,,,P124,001,2024-11-21_07h47.59.581,posner_endo_new1,2024.2.4,59.97220887840568,2024-11-21 07h48.11.116548 +0000,
-0.31,0.005,1,1,0,up,0.9666833000001134,None,space,0.32435940000050323,None,0,1,1,0,,,,,,,,,4558.9449842,,,,,,,,,,,,4558.9285331,4558.9449842,4558.9449842,4559.9278744,up,0.9666833000001134,None,4559.928114,4559.9438458,4559.9438458,4559.9438458,4560.2436162,,4560.2773017,space,0.32435940000050323,None,,,,,,,,,,,,,,,,,,P124,001,2024-11-21_07h47.59.581,posner_endo_new1,2024.2.4,59.97220887840568,2024-11-21 07h48.11.116548 +0000,
0.31,0.005,2,2,0,down,2.5384893000000375,None,None,,,0,2,2,1,,,,,,,,,4560.2935359,,,,,,,,,,,,4560.2774517,4560.2935359,4560.2935359,4562.8415627,down,2.5384893000000375,None,4562.8417959,4562.8573011,4562.8573011,4562.8573011,4563.1572179,4563.8565586,4565.8545838,None,,,,,,,,,,,,,,,,,,,,P124,001,2024-11-21_07h47.59.581,posner_endo_new1,2024.2.4,59.97220887840568,2024-11-21 07h48.11.116548 +0000,
0.31,0.005,3,3,0,up,1.713523599999462,None,space,0.39531199999964883,None,0,3,3,3,,,,,,,,,4565.8711490000005,,,,,,,,,,,,4565.8547293,4565.8711490000005,4565.8711490000005,4567.5868219,up,1.713523599999462,None,4567.5870587,4567.6026805,4567.6026805,4567.6026805,4567.9023596,,4568.0029853,space,0.39531199999964883,None,,,,,,,,,,,,,,,,,,P124,001,2024-11-21_07h47.59.581,posner_endo_new1,2024.2.4,59.97220887840568,2024-11-21 07h48.11.116548 +0000,
0.005,-0.31,4,4,0,down,3.396563799999967,None,space,0.36885110000002896,None,0,4,4,7,,,,,,,,,4568.0189733,,,,,,,,,,,,4568.0031349,4568.0189733,4568.0189733,4571.416382,down,3.396563799999967,None,4571.4166196,4571.4318317,4571.4318317,4571.4318317,4571.73145,,4571.8156627,space,0.36885110000002896,None,,,,,,,,,,,,,,,,,,P124,001,2024-11-21_07h47.59.581,posner_endo_new1,2024.2.4,59.97220887840568,2024-11-21 07h48.11.116548 +0000,
0.005,-0.31,5,5,0,up,8.351930599999832,None,space,0.3355268999994223,None,0,5,5,5,,,,,,,,,4571.8318476,,,,,,,,,,,,4571.8158347,4571.8318476,4571.8318476,4580.1904117,up,8.351930599999832,None,4580.1906562,4580.2064388,4580.2064388,4580.2064388,4580.5060108,,4580.5566964,space,0.3355268999994223,None,,,,,,,,,,,,,,,,,,P124,001,2024-11-21_07h47.59.581,posner_endo_new1,2024.2.4,59.97220887840568,2024-11-21 07h48.11.116548 +0000,
-0.31,0.005,6,6,0,down,4.131352700000207,None,space,0.7900752999994438,None,0,6,6,2,,,,,,,,,4580.5727427,,,,,,,,,,,,4580.5568487,4580.5727427,4580.5727427,4584.7189482,down,4.131352700000207,None,4584.719195,4584.7350913,4584.7350913,4584.7350913,4585.0348556,,4585.5350737,space,0.7900752999994438,None,,,,,,,,,,,,,,,,,,P124,001,2024-11-21_07h47.59.581,posner_endo_new1,2024.2.4,59.97220887840568,2024-11-21 07h48.11.116548 +0000,
0.005,10,7,7,0,up,16.513276399999995,None,None,,,0,7,7,9,,,,,,,,,4585.5509645,,,,,,,,,,,,4585.5352279,4585.5509645,4585.5509645,4602.0681951,up,16.513276399999995,None,4602.0684381,4602.084075,4602.084075,4602.084075,4602.3836954,4603.0997828,4605.0811536,None,,,,,,,,,,,,,,,,,,,,P124,001,2024-11-21_07h47.59.581,posner_endo_new1,2024.2.4,59.97220887840568,2024-11-21 07h48.11.116548 +0000,
0.005,0.31,8,8,0,up,2.8545293000006495,None,space,0.4647184000004927,None,0,8,8,6,,,,,,,,,4605.0974793000005,,,,,,,,,,,,4605.0813035,4605.0974793000005,4605.0974793000005,4607.9619994,up,2.8545293000006495,None,4607.9622447,4607.9778421,4607.9778421,4607.9778421,4608.2777062000005,,4608.4450018,space,0.4647184000004927,None,,,,,,,,,,,,,,,,,,P124,001,2024-11-21_07h47.59.581,posner_endo_new1,2024.2.4,59.97220887840568,2024-11-21 07h48.11.116548 +0000,
0.005,0.31,9,9,0,down,2.6267908999998326,None,space,0.4808300999993662,None,0,9,9,8,,,,,,,,,4608.4608974,,,,,,,,,,,,4608.4451567,4608.4608974,4608.4608974,4611.0923063,down,2.6267908999998326,None,4611.0925463,4611.108015,4611.108015,4611.108015,4611.4079291,,4611.5915054,space,0.4808300999993662,None,,,,,,,,,,,,,,,,,,P124,001,2024-11-21_07h47.59.581,posner_endo_new1,2024.2.4,59.97220887840568,2024-11-21 07h48.11.116548 +0000,
,,,,,,,,,,,,,,,,,,,,,,,,,,,,,,,,4611.591608,4611.6076455,4614.6044632,,,,,,,,,,,,,,,,,,,,,,,,,,,,,,,,,,,P124,001,2024-11-21_07h47.59.581,posner_endo_new1,2024.2.4,59.97220887840568,2024-11-21 07h48.11.116548 +0000,
-0.31,0.005,0,0,0,down,57.92908390000048,None,space,0.5553939999999784,None,,,,,0,0,0,0,,,,,4614.6230314,,,,,,,,,,,,4614.6125226,4614.6230314,4614.6230314,4672.562867,,,,4672.5632001,4672.57846,4672.57846,4672.57846,4672.878126,,4673.1456054,,,,down,57.92908390000048,None,space,0.5553939999999784,None,,,,,,,,,,,,P124,001,2024-11-21_07h47.59.581,posner_endo_new1,2024.2.4,59.97220887840568,2024-11-21 07h48.11.116548 +0000,
0.005,0.31,1,1,0,up,2.542048100000102,None,space,0.5977396999996927,None,,,,,0,1,1,1,,,,,4673.1613454,,,,,,,,,,,,4673.1458206,4673.1613454,4673.1613454,4675.7095883,,,,4675.7098958,4675.7253566,4675.7253566,4675.7253566,4676.0249138,,4676.325736,,,,up,2.542048100000102,None,space,0.5977396999996927,None,,,,,,,,,,,,P124,001,2024-11-21_07h47.59.581,posner_endo_new1,2024.2.4,59.97220887840568,2024-11-21 07h48.11.116548 +0000,
0.31,0.005,2,2,0,down,2.6752458999999362,None,space,0.334583300000304,None,,,,,0,2,2,2,,,,,4676.341163,,,,,,,,,,,,4676.3259448,4676.341163,4676.341163,4679.0227645,,,,4679.0230693,4679.0385343,4679.0385343,4679.0385343,4679.338185,,4679.3891012,,,,down,2.6752458999999362,None,space,0.334583300000304,None,,,,,,,,,,,,P124,001,2024-11-21_07h47.59.581,posner_endo_new1,2024.2.4,59.97220887840568,2024-11-21 07h48.11.116548 +0000,
0.31,0.005,3,3,0,up,1.7789683000000878,None,space,0.3468246000002182,None,,,,,0,3,3,3,,,,,4679.4048246,,,,,,,,,,,,4679.3893116,4679.4048246,4679.4048246,4681.1873254,,,,4681.1876324,4681.2030691,4681.2030691,4681.2030691,4681.5026354,,4681.5538595,,,,up,1.7789683000000878,None,space,0.3468246000002182,None,,,,,,,,,,,,P124,001,2024-11-21_07h47.59.581,posner_endo_new1,2024.2.4,59.97220887840568,2024-11-21 07h48.11.116548 +0000,
-0.31,0.005,4,4,0,down,2.662654400000065,None,space,0.4439934000001813,None,,,,,0,4,4,4,,,,,4681.5693087,,,,,,,,,,,,4681.5540678,4681.5693087,4681.5693087,4684.2340686,,,,4684.234309,4684.250001,4684.250001,4684.250001,4684.5495631,,4684.7001388,,,,down,2.662654400000065,None,space,0.4439934000001813,None,,,,,,,,,,,,P124,001,2024-11-21_07h47.59.581,posner_endo_new1,2024.2.4,59.97220887840568,2024-11-21 07h48.11.116548 +0000,
0.005,-0.31,5,5,0,up,2.668292699999256,None,space,0.4039490000004662,None,,,,,0,5,5,5,,,,,4684.7161118,,,,,,,,,,,,4684.7002933,4684.7161118,4684.7161118,4687.397326,,,,4687.3975643,4687.4133594,4687.4133594,4687.4133594,4687.7130843,,4687.8303033,,,,up,2.668292699999256,None,space,0.4039490000004662,None,,,,,,,,,,,,P124,001,2024-11-21_07h47.59.581,posner_endo_new1,2024.2.4,59.97220887840568,2024-11-21 07h48.11.116548 +0000,
0.005,-0.31,6,6,0,down,3.3537964999995893,None,space,0.348724299999958,None,,,,,0,6,6,6,,,,,4687.8461768,,,,,,,,,,,,4687.8304588,4687.8461768,4687.8461768,4691.2099118,,,,4691.2101558,4691.2261748,4691.2261748,4691.2261748,4691.5256552,,4691.5766489,,,,down,3.3537964999995893,None,space,0.348724299999958,None,,,,,,,,,,,,P124,001,2024-11-21_07h47.59.581,posner_endo_new1,2024.2.4,59.97220887840568,2024-11-21 07h48.11.116548 +0000,
10,0.005,7,7,0,up,2.2634083000002647,None,None,,,,,,,0,7,7,7,,,,,4691.5925039,,,,,,,,,,,,4691.5768026,4691.5925039,4691.5925039,4693.8575636000005,,,,4693.8578041,4693.8732526,4693.8732526,4693.8732526,4694.1729937,4694.8724914,4696.8703356,,,,up,2.2634083000002647,None,None,,,,,,,,,,,,,,P124,001,2024-11-21_07h47.59.581,posner_endo_new1,2024.2.4,59.97220887840568,2024-11-21 07h48.11.116548 +0000,
-0.31,0.005,8,8,0,down,1.3208236000000397,None,space,0.19887310000012803,None,,,,,0,8,8,8,,,,,4696.8870366,,,,,,,,,,,,4696.8704946,4696.8870366,4696.8870366,4698.2196514,,,,4698.2198888,4698.2356373,4698.2356373,4698.2356373,,,4698.4361486,,,,down,1.3208236000000397,None,space,0.19887310000012803,None,,,,,,,,,,,,P124,001,2024-11-21_07h47.59.581,posner_endo_new1,2024.2.4,59.97220887840568,2024-11-21 07h48.11.116548 +0000,
0.005,0.31,9,9,0,up,3.827968800000235,None,space,0.4556548999998995,None,,,,,0,9,9,9,,,,,4698.451812,,,,,,,,,,,,4698.4363045,4698.451812,4698.451812,4702.2822921,,,,4702.28253,4702.2980157,4702.2980157,4702.2980157,4702.5977844,,4702.7650895,,,,up,3.827968800000235,None,space,0.4556548999998995,None,,,,,,,,,,,,P124,001,2024-11-21_07h47.59.581,posner_endo_new1,2024.2.4,59.97220887840568,2024-11-21 07h48.11.116548 +0000,
0.005,-0.31,10,10,0,down,4.050804900000003,None,space,0.41752069999984087,None,,,,,0,10,10,10,,,,,4702.7809878,,,,,,,,,,,,4702.7652495,4702.7809878,4702.7809878,4706.8440302,,,,4706.8442737000005,4706.8599842,4706.8599842,4706.8599842,4707.1597187,,4707.2934427,,,,down,4.050804900000003,None,space,0.41752069999984087,None,,,,,,,,,,,,P124,001,2024-11-21_07h47.59.581,posner_endo_new1,2024.2.4,59.97220887840568,2024-11-21 07h48.11.116548 +0000,
0.005,0.31,11,11,0,up,5.034007199999905,None,None,,,,,,,0,11,11,11,,,,,4707.3097885,,,,,,,,,,,,4707.2935975,4707.3097885,4707.3097885,4712.3550111,,,,4712.3552545,4712.3710761,4712.3710761,4712.3710761,4712.6707765,4713.3701833000005,4715.368179,,,,up,5.034007199999905,None,None,,,,,,,,,,,,,,P124,001,2024-11-21_07h47.59.581,posner_endo_new1,2024.2.4,59.97220887840568,2024-11-21 07h48.11.116548 +0000,
10,0.005,12,12,0,down,1.1348790000001827,None,None,,,,,,,0,12,12,12,,,,,4715.3847067,,,,,,,,,,,,4715.3683357,4715.3847067,4715.3847067,4716.5341213,,,,4716.5343579,4716.5501611,4716.5501611,4716.5501611,4716.8498002,4717.5656363,4719.547112,,,,down,1.1348790000001827,None,None,,,,,,,,,,,,,,P124,001,2024-11-21_07h47.59.581,posner_endo_new1,2024.2.4,59.97220887840568,2024-11-21 07h48.11.116548 +0000,
0.31,0.005,13,13,0,up,0.9080632999994123,None,space,0.28931419999935315,None,,,,,0,13,13,13,,,,,4719.5637256,,,,,,,,,,,,4719.5472636,4719.5637256,4719.5637256,4720.4801024,,,,4720.4803399,4720.4961892,4720.4961892,4720.4961892,4720.7958522,,4720.7966855,,,,up,0.9080632999994123,None,space,0.28931419999935315,None,,,,,,,,,,,,P124,001,2024-11-21_07h47.59.581,posner_endo_new1,2024.2.4,59.97220887840568,2024-11-21 07h48.11.116548 +0000,
10,0.005,14,14,0,down,2.9645338000000265,None,None,,,,,,,0,14,14,14,,,,,4720.8125313,,,,,,,,,,,,4720.7968322,4720.8125313,4720.8125313,4723.7933426,,,,4723.7935867,4723.8094457,4723.8094457,4723.8094457,4724.1091979,4724.8084306,4726.8063146,,,,down,2.9645338000000265,None,None,,,,,,,,,,,,,,P124,001,2024-11-21_07h47.59.581,posner_endo_new1,2024.2.4,59.97220887840568,2024-11-21 07h48.11.116548 +0000,
-0.31,0.005,15,15,0,up,1.2725343000001885,None,space,0.2445627000006425,None,,,,,0,15,15,15,,,,,4726.823033,,,,,,,,,,,,4726.8064668,4726.823033,4726.823033,4728.1055003,,,,4728.1057445,4728.1216723,4728.1216723,4728.1216723,,,4728.3720053,,,,up,1.2725343000001885,None,space,0.2445627000006425,None,,,,,,,,,,,,P124,001,2024-11-21_07h47.59.581,posner_endo_new1,2024.2.4,59.97220887840568,2024-11-21 07h48.11.116548 +0000,
0.005,-0.31,16,16,0,down,3.10046229999989,None,space,0.41465270000026067,None,,,,,0,16,16,16,,,,,4728.3880615,,,,,,,,,,,,4728.3721605,4728.3880615,4728.3880615,4731.5040569,,,,4731.50479,4731.5185286,4731.5185286,4731.5185286,4731.8180189,,4731.9371946,,,,down,3.10046229999989,None,space,0.41465270000026067,None,,,,,,,,,,,,P124,001,2024-11-21_07h47.59.581,posner_endo_new1,2024.2.4,59.97220887840568,2024-11-21 07h48.11.116548 +0000,
0.005,0.31,17,17,0,up,2.9365757000005033,None,space,0.32045879999986937,None,,,,,0,17,17,17,,,,,4731.95116,,,,,,,,,,,,4731.9377299,4731.95116,4731.95116,4734.900546,,,,4734.9012769,4734.9150492,4734.9150492,4734.9150492,4735.2145148,,4735.2502256,,,,up,2.9365757000005033,None,space,0.32045879999986937,None,,,,,,,,,,,,P124,001,2024-11-21_07h47.59.581,posner_endo_new1,2024.2.4,59.97220887840568,2024-11-21 07h48.11.116548 +0000,
-0.31,0.005,18,18,0,down,3.2953596000006655,None,space,0.5624088999993546,None,,,,,0,18,18,18,,,,,4735.2644693,,,,,,,,,,,,4735.2507617,4735.2644693,4735.2644693,4738.5636322,,,,4738.5643883,4738.578009,4738.578009,4738.578009,4738.8774338,,4739.1464952,,,,down,3.2953596000006655,None,space,0.5624088999993546,None,,,,,,,,,,,,P124,001,2024-11-21_07h47.59.581,posner_endo_new1,2024.2.4,59.97220887840568,2024-11-21 07h48.11.116548 +0000,
10,0.005,19,19,0,up,1.9270909999995638,None,None,,,,,,,0,19,19,19,,,,,4739.1604864,,,,,,,,,,,,4739.1470341,4739.1604864,4739.1604864,4741.0943899,,,,4741.0951358,4741.1087547,4741.1087547,4741.1087547,4741.4081996,4742.1241144000005,4744.1057382,,,,up,1.9270909999995638,None,None,,,,,,,,,,,,,,P124,001,2024-11-21_07h47.59.581,posner_endo_new1,2024.2.4,59.97220887840568,2024-11-21 07h48.11.116548 +0000,
0.005,0.31,20,20,0,down,1.3017644000001383,None,space,0.3605027000003247,None,,,,,0,20,20,20,,,,,4744.1220463,,,,,,,,,,,,4744.1062164,4744.1220463,4744.1220463,4745.4397018,,,,4745.440426,4745.4542219,4745.4542219,4745.4542219,4745.7537148,,4745.8227248,,,,down,1.3017644000001383,None,space,0.3605027000003247,None,,,,,,,,,,,,P124,001,2024-11-21_07h47.59.581,posner_endo_new1,2024.2.4,59.97220887840568,2024-11-21 07h48.11.116548 +0000,
0.005,-0.31,21,21,0,up,2.891134299999976,None,space,0.5678853999997955,None,,,,,0,21,21,21,,,,,4745.8369825,,,,,,,,,,,,4745.8232556,4745.8369825,4745.8369825,4748.7367748,,,,4748.7375269,4748.7509139,4748.7509139,4748.7509139,4749.0503942000005,,4749.3357677,,,,up,2.891134299999976,None,space,0.5678853999997955,None,,,,,,,,,,,,P124,001,2024-11-21_07h47.59.581,posner_endo_new1,2024.2.4,59.97220887840568,2024-11-21 07h48.11.116548 +0000,
0.005,0.31,22,22,0,down,2.7937591999998403,None,space,0.48552380000000994,None,,,,,0,22,22,22,,,,,4749.3500123,,,,,,,,,,,,4749.3363007,4749.3500123,4749.3500123,4752.1496023,,,,4752.1503371,4752.1640378,4752.1640378,4752.1640378,4752.4635525,,4752.6656536,,,,down,2.7937591999998403,None,space,0.48552380000000994,None,,,,,,,,,,,,P124,001,2024-11-21_07h47.59.581,posner_endo_new1,2024.2.4,59.97220887840568,2024-11-21 07h48.11.116548 +0000,
0.31,0.005,23,23,0,up,2.5597503000008146,None,space,0.45133269999951153,None,,,,,0,23,23,23,,,,,4752.6799781,,,,,,,,,,,,4752.666186,4752.6799781,4752.6799781,4755.2467309,,,,4755.2474636,4755.2609616,4755.2609616,4755.2609616,4755.560314,,4755.7294088,,,,up,2.5597503000008146,None,space,0.45133269999951153,None,,,,,,,,,,,,P124,001,2024-11-21_07h47.59.581,posner_endo_new1,2024.2.4,59.97220887840568,2024-11-21 07h48.11.116548 +0000,
0.005,0.31,24,24,0,down,2.664487800000643,None,space,0.2455519999994067,None,,,,,0,24,24,24,,,,,4755.7434737,,,,,,,,,,,,4755.7299452,4755.7434737,4755.7434737,4758.4102287000005,,,,4758.4110041,4758.4244051000005,4758.4244051000005,4758.4244051000005,,,4758.6763046,,,,down,2.664487800000643,None,space,0.2455519999994067,None,,,,,,,,,,,,P124,001,2024-11-21_07h47.59.581,posner_endo_new1,2024.2.4,59.97220887840568,2024-11-21 07h48.11.116548 +0000,
0.31,0.005,25,25,0,up,3.1490200999996887,None,space,0.2667170000004262,None,,,,,0,25,25,25,,,,,4758.6904499,,,,,,,,,,,,4758.6768393,4758.6904499,4758.6904499,4761.8562589,,,,4761.8570179,4761.8707133,4761.8707133,4761.8707133,,,4762.1398669,,,,up,3.1490200999996887,None,space,0.2667170000004262,None,,,,,,,,,,,,P124,001,2024-11-21_07h47.59.581,posner_endo_new1,2024.2.4,59.97220887840568,2024-11-21 07h48.11.116548 +0000,
10,0.005,26,26,0,down,2.7423515000000407,None,None,,,,,,,0,26,26,26,,,,,4762.153651,,,,,,,,,,,,4762.140422,4762.153651,4762.153651,4764.9032665,,,,4764.9040038,4764.9175759,4764.9175759,4764.9175759,4765.2171627,4765.9330499,4767.9146178,,,,down,2.7423515000000407,None,None,,,,,,,,,,,,,,P124,001,2024-11-21_07h47.59.581,posner_endo_new1,2024.2.4,59.97220887840568,2024-11-21 07h48.11.116548 +0000,
10,0.005,27,27,0,up,1.924693699999807,None,None,,,,,,,0,27,27,27,,,,,4767.9310061,,,,,,,,,,,,4767.9150948,4767.9310061,4767.9310061,4769.8647231,,,,4769.8654444,4769.8791927,4769.8791927,4769.8791927,4770.1786917,4770.8946542,4772.8762254,,,,up,1.924693699999807,None,None,,,,,,,,,,,,,,P124,001,2024-11-21_07h47.59.581,posner_endo_new1,2024.2.4,59.97220887840568,2024-11-21 07h48.11.116548 +0000,
0.005,-0.31,28,28,0,down,1.1549441999995906,None,space,0.41054739999981393,None,,,,,0,28,28,28,,,,,4772.8926421,,,,,,,,,,,,4772.8767161,4772.8926421,4772.8926421,4774.0604465,,,,4774.0611809,4774.0749116,4774.0749116,4774.0749116,4774.3743819,,4774.4933503,,,,down,1.1549441999995906,None,space,0.41054739999981393,None,,,,,,,,,,,,P124,001,2024-11-21_07h47.59.581,posner_endo_new1,2024.2.4,59.97220887840568,2024-11-21 07h48.11.116548 +0000,
0.31,0.005,29,29,0,up,2.603976800000055,None,space,0.6555023999999321,None,,,,,0,29,29,29,,,,,4774.5075396,,,,,,,,,,,,4774.4938766000005,4774.5075396,4774.5075396,4777.1241767,,,,4777.1249324,4777.1384976,4777.1384976,4777.1384976,4777.4379544,,4777.8065346,,,,up,2.603976800000055,None,space,0.6555023999999321,None,,,,,,,,,,,,P124,001,2024-11-21_07h47.59.581,posner_endo_new1,2024.2.4,59.97220887840568,2024-11-21 07h48.11.116548 +0000,
10,0.005,30,30,0,down,2.482922399999552,None,None,,,,,,,0,30,30,30,,,,,4777.8208894,,,,,,,,,,,,4777.8070706,4777.8208894,4777.8208894,4780.3206442,,,,4780.3213802,4780.3349729,4780.3349729,4780.3349729,4780.6346886,4781.3339394,4783.3321911,,,,down,2.482922399999552,None,None,,,,,,,,,,,,,,P124,001,2024-11-21_07h47.59.581,posner_endo_new1,2024.2.4,59.97220887840568,2024-11-21 07h48.11.116548 +0000,
0.31,0.005,31,31,0,up,0.6274991000000227,None,space,0.24887030000081722,None,,,,,0,31,31,31,,,,,4783.3485623,,,,,,,,,,,,4783.3326754,4783.3485623,4783.3485623,4783.9835027,,,,4783.984241,4783.9980448,4783.9980448,4783.9980448,,,4784.2503022,,,,up,0.6274991000000227,None,space,0.24887030000081722,None,,,,,,,,,,,,P124,001,2024-11-21_07h47.59.581,posner_endo_new1,2024.2.4,59.97220887840568,2024-11-21 07h48.11.116548 +0000,
0.31,0.005,32,32,0,down,2.623495899999398,None,space,0.37680249999993976,None,,,,,0,32,32,32,,,,,4784.2642999,,,,,,,,,,,,4784.2508484,4784.2642999,4784.2642999,4786.8971915,,,,4786.897926,4786.9117292,4786.9117292,4786.9117292,4787.2112528,,4787.2972443,,,,down,2.623495899999398,None,space,0.37680249999993976,None,,,,,,,,,,,,P124,001,2024-11-21_07h47.59.581,posner_endo_new1,2024.2.4,59.97220887840568,2024-11-21 07h48.11.116548 +0000,
10,0.005,33,33,0,up,2.896711999999752,None,None,,,,,,,0,33,33,33,,,,,4787.3111717,,,,,,,,,,,,4787.297791,4787.3111717,4787.3111717,4790.2107242,,,,4790.2114725,4790.2250749,4790.2250749,4790.2250749,4790.5245596,4791.2404747,4793.2221811,,,,up,2.896711999999752,None,None,,,,,,,,,,,,,,P124,001,2024-11-21_07h47.59.581,posner_endo_new1,2024.2.4,59.97220887840568,2024-11-21 07h48.11.116548 +0000,
0.005,-0.31,34,34,0,down,0.5849172999996881,None,space,0.36736279999968247,None,,,,,0,34,34,34,,,,,4793.2384218,,,,,,,,,,,,4793.2226821,4793.2384218,4793.2384218,4793.8401051,,,,4793.8408512,4793.8545673,4793.8545673,4793.8545673,4794.1541579,,4794.2398091000005,,,,down,0.5849172999996881,None,space,0.36736279999968247,None,,,,,,,,,,,,P124,001,2024-11-21_07h47.59.581,posner_endo_new1,2024.2.4,59.97220887840568,2024-11-21 07h48.11.116548 +0000,
-0.31,0.005,35,35,0,up,2.9702931000001627,None,space,0.3556674999999814,None,,,,,0,35,35,35,,,,,4794.2540666,,,,,,,,,,,,4794.240355,4794.2540666,4794.2540666,4797.2353266,,,,4797.235825,4797.250432,4797.250432,4797.250432,4797.550563,,4797.6181755,,,,up,2.9702931000001627,None,space,0.3556674999999814,None,,,,,,,,,,,,P124,001,2024-11-21_07h47.59.581,posner_endo_new1,2024.2.4,59.97220887840568,2024-11-21 07h48.11.116548 +0000,
-0.31,0.005,36,36,0,down,3.3976588000004995,None,space,0.28888239999923826,None,,,,,0,36,36,36,,,,,4797.6338789,,,,,,,,,,,,4797.6184005000005,4797.6338789,4797.6338789,4801.0479732,,,,4801.0483019,4801.0635832,4801.0635832,4801.0635832,4801.363356,,4801.3644534000005,,,,down,3.3976588000004995,None,space,0.28888239999923826,None,,,,,,,,,,,,P124,001,2024-11-21_07h47.59.581,posner_endo_new1,2024.2.4,59.97220887840568,2024-11-21 07h48.11.116548 +0000,
10,0.005,37,37,0,up,2.8838243000000148,None,None,,,,,,,0,37,37,37,,,,,4801.3800318,,,,,,,,,,,,4801.3646725,4801.3800318,4801.3800318,4804.2779511,,,,4804.2782799,4804.2936244,4804.2936244,4804.2936244,4804.593365,4805.2926825,4807.2907482,,,,up,2.8838243000000148,None,None,,,,,,,,,,,,,,P124,001,2024-11-21_07h47.59.581,posner_endo_new1,2024.2.4,59.97220887840568,2024-11-21 07h48.11.116548 +0000,
0.005,0.31,38,38,0,down,2.3646123999997144,None,space,0.3744070000002466,None,,,,,0,38,38,38,,,,,4807.3071875000005,,,,,,,,,,,,4807.2909628,4807.3071875000005,4807.3071875000005,4809.6727855,,,,4809.6731225,4809.6881706,4809.6881706,4809.6881706,4809.9878118,,4810.0721916,,,,down,2.3646123999997144,None,space,0.3744070000002466,None,,,,,,,,,,,,P124,001,2024-11-21_07h47.59.581,posner_endo_new1,2024.2.4,59.97220887840568,2024-11-21 07h48.11.116548 +0000,
0.005,-0.31,39,39,0,up,3.2651906999999483,None,space,0.44321359999958077,None,,,,,0,39,39,39,,,,,4810.0876788000005,,,,,,,,,,,,4810.0724161,4810.0876788000005,4810.0876788000005,4813.3687414,,,,4813.3690857,4813.3843711,4813.3843711,4813.3843711,4813.6840363,,4813.8348763,,,,up,3.2651906999999483,None,space,0.44321359999958077,None,,,,,,,,,,,,P124,001,2024-11-21_07h47.59.581,posner_endo_new1,2024.2.4,59.97220887840568,2024-11-21 07h48.11.116548 +0000,
0.31,0.005,40,40,0,down,4.18919889999961,None,space,0.36272490000010293,None,,,,,0,40,40,40,,,,,4813.8506063,,,,,,,,,,,,4813.8351103,4813.8506063,4813.8506063,4818.0473146,,,,4818.0476432000005,4818.0629505,4818.0629505,4818.0629505,4818.3626111,,4818.4303697000005,,,,down,4.18919889999961,None,space,0.36272490000010293,None,,,,,,,,,,,,P124,001,2024-11-21_07h47.59.581,posner_endo_new1,2024.2.4,59.97220887840568,2024-11-21 07h48.11.116548 +0000,
-0.31,0.005,41,41,0,up,2.938401600000361,None,None,,,,,,,0,41,41,41,,,,,4818.4458483,,,,,,,,,,,,4818.4306001,4818.4458483,4818.4458483,4821.393879,,,,4821.3942202,4821.4095266,4821.4095266,4821.4095266,4821.709127,4822.4084108,4824.406486,,,,up,2.938401600000361,None,None,,,,,,,,,,,,,,P124,001,2024-11-21_07h47.59.581,posner_endo_new1,2024.2.4,59.97220887840568,2024-11-21 07h48.11.116548 +0000,
0.31,0.005,42,42,0,down,0.6406683000004705,None,space,0.27127719999953115,None,,,,,0,42,42,42,,,,,4824.422972,,,,,,,,,,,,4824.4067022,4824.422972,4824.422972,4825.0734334,,,,4825.0737756,4825.0891834,4825.0891834,4825.0891834,4825.3886446,,4825.3731427,,,,down,0.6406683000004705,None,space,0.27127719999953115,None,,,,,,,,,,,,P124,001,2024-11-21_07h47.59.581,posner_endo_new1,2024.2.4,59.97220887840568,2024-11-21 07h48.11.116548 +0000,
10,0.005,43,43,0,up,3.0993365000003905,None,None,,,,,,,0,43,43,43,,,,,4825.3886446,,,,,,,,,,,,4825.3733679,4825.3886446,4825.3886446,4828.5032368,,,,4828.5035682,4828.518829,4828.518829,4828.518829,4828.8185793,4829.5344584,4831.515983,,,,up,3.0993365000003905,None,None,,,,,,,,,,,,,,P124,001,2024-11-21_07h47.59.581,posner_endo_new1,2024.2.4,59.97220887840568,2024-11-21 07h48.11.116548 +0000,
-0.31,0.005,44,44,0,down,0.6597446999994645,None,space,0.4150179999996908,None,,,,,0,44,44,44,,,,,4831.5323988,,,,,,,,,,,,4831.5162003000005,4831.5323988,4831.5323988,4832.1994292,,,,4832.1997625,4832.2150106,4832.2150106,4832.2150106,4832.5147916,,4832.6327801,,,,down,0.6597446999994645,None,space,0.4150179999996908,None,,,,,,,,,,,,P124,001,2024-11-21_07h47.59.581,posner_endo_new1,2024.2.4,59.97220887840568,2024-11-21 07h48.11.116548 +0000,
0.005,0.31,45,45,0,up,1.6236331000000064,None,space,0.5106152999996993,None,,,,,0,45,45,45,,,,,4832.6478654,,,,,,,,,,,,4832.6330099,4832.6478654,4832.6478654,4834.2806685000005,,,,4834.281005,4834.2962795,4834.2962795,4834.2962795,4834.595838,,4834.813774,,,,up,1.6236331000000064,None,space,0.5106152999996993,None,,,,,,,,,,,,P124,001,2024-11-21_07h47.59.581,posner_endo_new1,2024.2.4,59.97220887840568,2024-11-21 07h48.11.116548 +0000,
0.005,-0.31,46,46,0,down,3.490526900000077,None,space,0.2694378999995024,None,,,,,0,46,46,46,,,,,4834.8290685,,,,,,,,,,,,4834.8139998,4834.8290685,4834.8290685,4838.3265168,,,,4838.3268535,4838.3421751,4838.3421751,4838.3421751,4838.641829,,4838.6262952,,,,down,3.490526900000077,None,space,0.2694378999995024,None,,,,,,,,,,,,P124,001,2024-11-21_07h47.59.581,posner_endo_new1,2024.2.4,59.97220887840568,2024-11-21 07h48.11.116548 +0000,
-0.31,0.005,47,47,0,up,2.093821599999501,None,space,0.3711563999995633,None,,,,,0,47,47,47,,,,,4838.641829,,,,,,,,,,,,4838.6265313,4838.641829,4838.641829,4840.7407344,,,,4840.7410656,4840.7563166,4840.7563166,4840.7563166,4841.0559842,,4841.1401967,,,,up,2.093821599999501,None,space,0.3711563999995633,None,,,,,,,,,,,,P124,001,2024-11-21_07h47.59.581,posner_endo_new1,2024.2.4,59.97220887840568,2024-11-21 07h48.11.116548 +0000,
0.005,-0.31,48,48,0,down,4.0675013000000035,None,space,0.3616904999998951,None,,,,,0,48,48,48,,,,,4841.1560046,,,,,,,,,,,,4841.1404242,4841.1560046,4841.1560046,4845.2360103,,,,4845.2363493,4845.2518416,4845.2518416,4845.2518416,4845.551505,,4845.6192472,,,,down,4.0675013000000035,None,space,0.3616904999998951,None,,,,,,,,,,,,P124,001,2024-11-21_07h47.59.581,posner_endo_new1,2024.2.4,59.97220887840568,2024-11-21 07h48.11.116548 +0000,
0.005,-0.31,49,49,0,up,1.5975625999999465,None,space,0.488311000000067,None,,,,,0,49,49,49,,,,,4845.6345673,,,,,,,,,,,,4845.6194767,4845.6345673,4845.6345673,4847.2340936,,,,4847.234423,4847.2496809,4847.2496809,4847.2496809,4847.5493322,,4847.7500874,,,,up,1.5975625999999465,None,space,0.488311000000067,None,,,,,,,,,,,,P124,001,2024-11-21_07h47.59.581,posner_endo_new1,2024.2.4,59.97220887840568,2024-11-21 07h48.11.116548 +0000,
0.005,0.31,50,50,0,down,3.098475099999632,None,space,0.389228600000024,None,,,,,0,50,50,50,,,,,4847.7657887000005,,,,,,,,,,,,4847.7503113,4847.7657887000005,4847.7657887000005,4850.8802455000005,,,,4850.8805741,4850.8959658,4850.8959658,4850.8959658,4851.1957170000005,,4851.2967610000005,,,,down,3.098475099999632,None,space,0.389228600000024,None,,,,,,,,,,,,P124,001,2024-11-21_07h47.59.581,posner_endo_new1,2024.2.4,59.97220887840568,2024-11-21 07h48.11.116548 +0000,
0.31,0.005,51,51,0,up,2.7193323999999848,None,space,0.3582205000002432,None,,,,,0,51,51,51,,,,,4851.3121502,,,,,,,,,,,,4851.2969862,4851.3121502,4851.3121502,4854.043784,,,,4854.0441247,4854.0593543,4854.0593543,4854.0593543,4854.3590688,,4854.4266453,,,,up,2.7193323999999848,None,space,0.3582205000002432,None,,,,,,,,,,,,P124,001,2024-11-21_07h47.59.581,posner_endo_new1,2024.2.4,59.97220887840568,2024-11-21 07h48.11.116548 +0000,
0.31,0.005,52,52,0,down,3.253686000000016,None,space,0.3606449999997494,None,,,,,0,52,52,52,,,,,4854.442294,,,,,,,,,,,,4854.4268733,4854.442294,4854.442294,4857.7066651000005,,,,4857.7070002,4857.7223241,4857.7223241,4857.7223241,4858.0220492,,4858.0898318,,,,down,3.253686000000016,None,space,0.3606449999997494,None,,,,,,,,,,,,P124,001,2024-11-21_07h47.59.581,posner_endo_new1,2024.2.4,59.97220887840568,2024-11-21 07h48.11.116548 +0000,
0.005,0.31,53,53,0,up,2.80750689999968,None,space,0.7617897999998604,None,,,,,0,53,53,53,,,,,4858.1052524,,,,,,,,,,,,4858.0900603,4858.1052524,4858.1052524,4860.9199436,,,,4860.9202745,4860.9356224,4860.9356224,4860.9356224,4861.2353564000005,,4861.7025213,,,,up,2.80750689999968,None,space,0.7617897999998604,None,,,,,,,,,,,,P124,001,2024-11-21_07h47.59.581,posner_endo_new1,2024.2.4,59.97220887840568,2024-11-21 07h48.11.116548 +0000,
-0.31,0.005,54,54,0,down,1.9537523999997575,None,space,0.3773614000001544,None,,,,,0,54,54,54,,,,,4861.7181926,,,,,,,,,,,,4861.7027479,4861.7181926,4861.7181926,4863.6839401,,,,4863.6842693,4863.6995297,4863.6995297,4863.6995297,4863.9992254,,4864.0836112,,,,down,1.9537523999997575,None,space,0.3773614000001544,None,,,,,,,,,,,,P124,001,2024-11-21_07h47.59.581,posner_endo_new1,2024.2.4,59.97220887840568,2024-11-21 07h48.11.116548 +0000,
10,0.005,55,55,0,up,1.8843780999995943,None,None,,,,,,,0,55,55,55,,,,,4864.0991234,,,,,,,,,,,,4864.083839,4864.0991234,4864.0991234,4865.9980981,,,,4865.9984352,4866.0137913,4866.0137913,4866.0137913,4866.3133828,4867.0294963,4869.0107763,,,,up,1.8843780999995943,None,None,,,,,,,,,,,,,,P124,001,2024-11-21_07h47.59.581,posner_endo_new1,2024.2.4,59.97220887840568,2024-11-21 07h48.11.116548 +0000,
0.31,0.005,56,56,0,down,1.268028499999673,None,space,0.30137160000049334,None,,,,,0,56,56,56,,,,,4869.0273371,,,,,,,,,,,,4869.0109929,4869.0273371,4869.0273371,4870.3103659,,,,4870.310698,4870.3260501,4870.3260501,4870.3260501,4870.6257628,,4870.6433503,,,,down,1.268028499999673,None,space,0.30137160000049334,None,,,,,,,,,,,,P124,001,2024-11-21_07h47.59.581,posner_endo_new1,2024.2.4,59.97220887840568,2024-11-21 07h48.11.116548 +0000,
0.005,0.31,57,57,0,up,3.005120800000441,None,space,0.5191368000005241,None,,,,,0,57,57,57,,,,,4870.6590952,,,,,,,,,,,,4870.6435759,4870.6590952,4870.6590952,4873.6736149,,,,4873.6739448,4873.6893001,4873.6893001,4873.6893001,4873.9889571,,4874.2231406,,,,up,3.005120800000441,None,space,0.5191368000005241,None,,,,,,,,,,,,P124,001,2024-11-21_07h47.59.581,posner_endo_new1,2024.2.4,59.97220887840568,2024-11-21 07h48.11.116548 +0000,
-0.31,0.005,58,58,0,down,2.4892588000002434,None,space,0.4312359999994442,None,,,,,0,58,58,58,,,,,4874.2387677,,,,,,,,,,,,4874.223376,4874.2387677,4874.2387677,4876.7372036,,,,4876.7375308,4876.752762,4876.752762,4876.752762,4877.0525058,,4877.1868805,,,,down,2.4892588000002434,None,space,0.4312359999994442,None,,,,,,,,,,,,P124,001,2024-11-21_07h47.59.581,posner_endo_new1,2024.2.4,59.97220887840568,2024-11-21 07h48.11.116548 +0000,
-0.31,0.005,59,59,0,up,2.581651200000124,None,space,0.4825732999997854,None,,,,,0,59,59,59,,,,,4877.2024237000005,,,,,,,,,,,,4877.1871067,4877.2024237000005,4877.2024237000005,4879.8006867,,,,4879.8010202000005,4879.8163583000005,4879.8163583000005,4879.8163583000005,4880.1160694,,4880.3002865,,,,up,2.581651200000124,None,space,0.4825732999997854,None,,,,,,,,,,,,P124,001,2024-11-21_07h47.59.581,posner_endo_new1,2024.2.4,59.97220887840568,2024-11-21 07h48.11.116548 +0000,
,,,,,,,,,,,,,,,,,,,,,,,,,,,,,,,,,,,,,,,,,,,,,,,,,,,,,,,,,,4880.3004367,4880.3157798,4880.3157798,4940.2881451,None,,,,,,,P124,001,2024-11-21_07h47.59.581,posner_endo_new1,2024.2.4,59.97220887840568,2024-11-21 07h48.11.116548 +0000,
,,,,,,,,,,,,,,,,,,,,,,,,,,,,,,,,4940.2881969,4940.3043259,4943.3014248,,,,,,,,,,,,,,,,,,,,,,,,,,,,,,,,,,,P124,001,2024-11-21_07h47.59.581,posner_endo_new1,2024.2.4,59.97220887840568,2024-11-21 07h48.11.116548 +0000,
0.005,0.31,0,0,0,down,3.1643355999995038,None,space,0.3672206000001097,None,,,,,,,,,0,0,0,0,4943.331729,,,,,,,,,,,,4943.3221417,4943.331729,4943.331729,4946.4989889,,,,4946.4993292,4946.5146208,4946.5146208,4946.5146208,4946.8142957,,4946.8985219,,,,,,,,,,,,,,,down,3.1643355999995038,None,space,0.3672206000001097,None,P124,001,2024-11-21_07h47.59.581,posner_endo_new1,2024.2.4,59.97220887840568,2024-11-21 07h48.11.116548 +0000,
-0.31,0.005,1,1,0,up,2.2216013999995994,None,space,0.3848608000007516,None,,,,,,,,,0,1,1,1,4946.914224,,,,,,,,,,,,4946.8987368,4946.914224,4946.914224,4949.1461023,,,,4949.1464092,4949.1617425,4949.1617425,4949.1617425,4949.461568,,4949.5624838,,,,,,,,,,,,,,,up,2.2216013999995994,None,space,0.3848608000007516,None,P124,001,2024-11-21_07h47.59.581,posner_endo_new1,2024.2.4,59.97220887840568,2024-11-21 07h48.11.116548 +0000,
0.005,-0.31,2,2,0,down,2.045072299999447,None,space,0.4273654999997234,None,,,,,,,,,0,2,2,2,4949.5782598,,,,,,,,,,,,4949.5627041,4949.5782598,4949.5782598,4951.6280042,,,,4951.6286076,4951.6426144,4951.6426144,4951.6426144,4951.9422954,,4952.0775874,,,,,,,,,,,,,,,down,2.045072299999447,None,space,0.4273654999997234,None,P124,001,2024-11-21_07h47.59.581,posner_endo_new1,2024.2.4,59.97220887840568,2024-11-21 07h48.11.116548 +0000,
0.31,0.005,3,3,0,up,1.6439859000001888,None,space,0.46167400000013004,None,,,,,,,,,0,3,3,3,4952.0921609,,,,,,,,,,,,4952.0780296,4952.0921609,4952.0921609,4953.7419192,,,,4953.7423035,4953.7572844,4953.7572844,4953.7572844,4954.0569657,,4954.2247554000005,,,,,,,,,,,,,,,up,1.6439859000001888,None,space,0.46167400000013004,None,P124,001,2024-11-21_07h47.59.581,posner_endo_new1,2024.2.4,59.97220887840568,2024-11-21 07h48.11.116548 +0000,
0.005,0.31,4,4,0,down,2.295592100000249,None,space,0.45704229999955714,None,,,,,,,,,0,4,4,4,4954.2402013,,,,,,,,,,,,4954.2250254,4954.2402013,4954.2402013,4956.5389343,,,,4956.5393113,4956.5544663,4956.5544663,4956.5544663,4956.8542212,,4957.0217136,,,,,,,,,,,,,,,down,2.295592100000249,None,space,0.45704229999955714,None,P124,001,2024-11-21_07h47.59.581,posner_endo_new1,2024.2.4,59.97220887840568,2024-11-21 07h48.11.116548 +0000,
0.005,-0.31,5,5,0,up,2.8191307999995843,None,space,0.35396140000011656,None,,,,,,,,,0,5,5,5,4957.0372398,,,,,,,,,,,,4957.0219787,4957.0372398,4957.0372398,4959.8688069,,,,4959.8691834,4959.8843051,4959.8843051,4959.8843051,4960.1839741,,4960.2518154,,,,,,,,,,,,,,,up,2.8191307999995843,None,space,0.35396140000011656,None,P124,001,2024-11-21_07h47.59.581,posner_endo_new1,2024.2.4,59.97220887840568,2024-11-21 07h48.11.116548 +0000,
-0.31,0.005,6,6,0,down,2.427976099999796,None,space,0.22818019999976968,None,,,,,,,,,0,6,6,6,4960.2672439,,,,,,,,,,,,4960.2520799,4960.2672439,4960.2672439,4962.6992149,,,,4962.6995924,4962.7147502,4962.7147502,4962.7147502,,,4962.9490267,,,,,,,,,,,,,,,down,2.427976099999796,None,space,0.22818019999976968,None,P124,001,2024-11-21_07h47.59.581,posner_endo_new1,2024.2.4,59.97220887840568,2024-11-21 07h48.11.116548 +0000,
0.005,0.31,7,7,0,up,2.5154591999998956,None,space,0.3658167000003232,None,,,,,,,,,0,7,7,7,4962.9643723,,,,,,,,,,,,4962.9492941,4962.9643723,4962.9643723,4965.496447,,,,4965.4968305,4965.511897,4965.511897,4965.511897,4965.8114657,,4965.879262,,,,,,,,,,,,,,,up,2.5154591999998956,None,space,0.3658167000003232,None,P124,001,2024-11-21_07h47.59.581,posner_endo_new1,2024.2.4,59.97220887840568,2024-11-21 07h48.11.116548 +0000,
0.31,0.005,8,8,0,down,2.4577367000001686,None,space,0.37006639999981417,None,,,,,,,,,0,8,8,8,4965.8949355,,,,,,,,,,,,4965.879529,4965.8949355,4965.8949355,4968.3600436,,,,4968.3604192,4968.3754771,4968.3754771,4968.3754771,4968.6752481,,4968.7597365,,,,,,,,,,,,,,,down,2.4577367000001686,None,space,0.37006639999981417,None,P124,001,2024-11-21_07h47.59.581,posner_endo_new1,2024.2.4,59.97220887840568,2024-11-21 07h48.11.116548 +0000,
10,0.005,9,9,0,up,2.0804869000003237,None,None,,,,,,,,,,,0,9,9,9,4968.7752373,,,,,,,,,,,,4968.7599994,4968.7752373,4968.7752373,4970.8576489,,,,4970.8580233,4970.8730994,4970.8730994,4970.8730994,4971.1727342,4971.8885125,4973.8701508,,,,,,,,,,,,,,,up,2.0804869000003237,None,None,,,P124,001,2024-11-21_07h47.59.581,posner_endo_new1,2024.2.4,59.97220887840568,2024-11-21 07h48.11.116548 +0000,
0.31,0.005,10,10,0,up,3.0883405999993556,None,space,0.3127441999995426,None,,,,,,,,,0,10,10,10,4973.8867652,,,,,,,,,,,,4973.8703981,4973.8867652,4973.8867652,4976.9847743,,,,4976.9851545,4977.0001243,4977.0001243,4977.0001243,4977.2998239,,4977.3178565,,,,,,,,,,,,,,,up,3.0883405999993556,None,space,0.3127441999995426,None,P124,001,2024-11-21_07h47.59.581,posner_endo_new1,2024.2.4,59.97220887840568,2024-11-21 07h48.11.116548 +0000,
0.005,0.31,11,11,0,down,2.7154558000002,None,space,0.3442793999993228,None,,,,,,,,,0,11,11,11,4977.3331099,,,,,,,,,,,,4977.3181277,4977.3331099,4977.3331099,4980.0647946,,,,4980.0651676,4980.0803144,4980.0803144,4980.0803144,4980.3799432,,4980.4310557,,,,,,,,,,,,,,,down,2.7154558000002,None,space,0.3442793999993228,None,P124,001,2024-11-21_07h47.59.581,posner_endo_new1,2024.2.4,59.97220887840568,2024-11-21 07h48.11.116548 +0000,
10,0.005,12,12,0,up,2.5288144999994984,None,None,,,,,,,,,,,0,12,12,12,4980.4466895000005,,,,,,,,,,,,4980.4313167,4980.4466895000005,4980.4466895000005,4982.978478,,,,4982.9788515,4982.9940102,4982.9940102,4982.9940102,4983.2937145,4984.0096729,4985.9910935,,,,,,,,,,,,,,,up,2.5288144999994984,None,None,,,P124,001,2024-11-21_07h47.59.581,posner_endo_new1,2024.2.4,59.97220887840568,2024-11-21 07h48.11.116548 +0000,
-0.31,0.005,13,13,0,down,1.616638000000421,None,space,0.2753139000005831,None,,,,,,,,,0,13,13,13,4986.0076284,,,,,,,,,,,,4985.9913473,4986.0076284,4986.0076284,4987.6403956,,,,4987.6407756,4987.6558797,4987.6558797,4987.6558797,4987.9555954,,4987.9401734,,,,,,,,,,,,,,,down,1.616638000000421,None,space,0.2753139000005831,None,P124,001,2024-11-21_07h47.59.581,posner_endo_new1,2024.2.4,59.97220887840568,2024-11-21 07h48.11.116548 +0000,
0.31,0.005,14,14,0,up,4.779509599999983,None,space,0.3225648999996338,None,,,,,,,,,0,14,14,14,4987.9555954,,,,,,,,,,,,4987.940438,4987.9555954,4987.9555954,4992.7517735,,,,4992.7521538,4992.7673533,4992.7673533,4992.7673533,4993.0669905,,4993.1015408,,,,,,,,,,,,,,,up,4.779509599999983,None,space,0.3225648999996338,None,P124,001,2024-11-21_07h47.59.581,posner_endo_new1,2024.2.4,59.97220887840568,2024-11-21 07h48.11.116548 +0000,
0.005,-0.31,15,15,0,down,2.554839300000822,None,space,0.3339806000003591,None,,,,,,,,,0,15,15,15,4993.1168999,,,,,,,,,,,,4993.1018041,4993.1168999,4993.1168999,4995.6822557000005,,,,4995.6826373,4995.6976522,4995.6976522,4995.6976522,4995.9972721,,4996.0484268,,,,,,,,,,,,,,,down,2.554839300000822,None,space,0.3339806000003591,None,P124,001,2024-11-21_07h47.59.581,posner_endo_new1,2024.2.4,59.97220887840568,2024-11-21 07h48.11.116548 +0000,
0.31,0.005,16,16,0,up,2.5276748999995107,None,space,0.30808860000070126,None,,,,,,,,,0,16,16,16,4996.063938,,,,,,,,,,,,4996.0486978,4996.063938,4996.063938,4998.5959553,,,,4998.5963299000005,4998.6112984,4998.6112984,4998.6112984,4998.9111547,,4998.9289253,,,,,,,,,,,,,,,up,2.5276748999995107,None,space,0.30808860000070126,None,P124,001,2024-11-21_07h47.59.581,posner_endo_new1,2024.2.4,59.97220887840568,2024-11-21 07h48.11.116548 +0000,
0.31,0.005,17,17,0,down,2.599096500000087,None,space,0.32417390000046,None,,,,,,,,,0,17,17,17,4998.9441801,,,,,,,,,,,,4998.9291913,4998.9441801,4998.9441801,5001.5594280000005,,,,5001.5598217,5001.5749616,5001.5749616,5001.5749616,5001.8747219,,5001.9091272000005,,,,,,,,,,,,,,,down,2.599096500000087,None,space,0.32417390000046,None,P124,001,2024-11-21_07h47.59.581,posner_endo_new1,2024.2.4,59.97220887840568,2024-11-21 07h48.11.116548 +0000,
0.005,-0.31,18,18,0,up,2.6988398000003144,None,space,0.3678882000003796,None,,,,,,,,,0,18,18,18,5001.9243528,,,,,,,,,,,,5001.9093949,5001.9243528,5001.9243528,5004.6395926000005,,,,5004.6399757,5004.6551469,5004.6551469,5004.6551469,5004.9548238,,5005.039246,,,,,,,,,,,,,,,up,2.6988398000003144,None,space,0.3678882000003796,None,P124,001,2024-11-21_07h47.59.581,posner_endo_new1,2024.2.4,59.97220887840568,2024-11-21 07h48.11.116548 +0000,
0.005,-0.31,19,19,0,down,2.4884329999995316,None,space,0.31111779999991995,None,,,,,,,,,0,19,19,19,5005.05469,,,,,,,,,,,,5005.0395111,5005.05469,5005.05469,5007.553234,,,,5007.5536107,5007.5687557,5007.5687557,5007.5687557,5007.8684694,,5007.8863763,,,,,,,,,,,,,,,down,2.4884329999995316,None,space,0.31111779999991995,None,P124,001,2024-11-21_07h47.59.581,posner_endo_new1,2024.2.4,59.97220887840568,2024-11-21 07h48.11.116548 +0000,
10,0.005,20,20,0,up,2.4102244000005157,None,None,,,,,,,,,,,0,20,20,20,5007.90171,,,,,,,,,,,,5007.8866479,5007.90171,5007.90171,5010.3171619,,,,5010.317533,5010.3326424,5010.3326424,5010.3326424,5010.6323545000005,5011.3317372,5013.329817,,,,,,,,,,,,,,,up,2.4102244000005157,None,None,,,P124,001,2024-11-21_07h47.59.581,posner_endo_new1,2024.2.4,59.97220887840568,2024-11-21 07h48.11.116548 +0000,
0.005,-0.31,21,21,0,down,0.9571381000005204,None,space,0.3436407999997755,None,,,,,,,,,0,21,21,21,5013.3461783,,,,,,,,,,,,5013.3300657,5013.3461783,5013.3461783,5014.3130424,,,,5014.3134231,5014.3285687,5014.3285687,5014.3285687,5014.6282239,,5014.6792031,,,,,,,,,,,,,,,down,0.9571381000005204,None,space,0.3436407999997755,None,P124,001,2024-11-21_07h47.59.581,posner_endo_new1,2024.2.4,59.97220887840568,2024-11-21 07h48.11.116548 +0000,
0.005,0.31,22,22,0,up,3.1609631000001173,None,space,0.4456903999998758,None,,,,,,,,,0,22,22,22,5014.6948193,,,,,,,,,,,,5014.6794746000005,5014.6948193,5014.6948193,5017.8594604,,,,5017.8598398,5017.8750096,5017.8750096,5017.8750096,5018.1746455,,5018.3256218,,,,,,,,,,,,,,,up,3.1609631000001173,None,space,0.4456903999998758,None,P124,001,2024-11-21_07h47.59.581,posner_endo_new1,2024.2.4,59.97220887840568,2024-11-21 07h48.11.116548 +0000,
0.31,0.005,23,23,0,down,2.474409800000103,None,space,0.7608316999994713,None,,,,,,,,,0,23,23,23,5018.3411249,,,,,,,,,,,,5018.3258886,5018.3411249,5018.3411249,5020.8230868,,,,5020.8234661,5020.8384591,5020.8384591,5020.8384591,5021.1382956,,5021.6056748,,,,,,,,,,,,,,,down,2.474409800000103,None,space,0.7608316999994713,None,P124,001,2024-11-21_07h47.59.581,posner_endo_new1,2024.2.4,59.97220887840568,2024-11-21 07h48.11.116548 +0000,
-0.31,0.005,24,24,0,up,2.4990827000001445,None,space,0.5981864999994286,None,,,,,,,,,0,24,24,24,5021.6211815,,,,,,,,,,,,5021.6059382,5021.6211815,5021.6211815,5024.1363628,,,,5024.1367373,5024.1519177,5024.1519177,5024.1519177,5024.4515021,,5024.752523,,,,,,,,,,,,,,,up,2.4990827000001445,None,space,0.5981864999994286,None,P124,001,2024-11-21_07h47.59.581,posner_endo_new1,2024.2.4,59.97220887840568,2024-11-21 07h48.11.116548 +0000,
10,0.005,25,25,0,down,2.1276662000000215,None,None,,,,,,,,,,,0,25,25,25,5024.7677507,,,,,,,,,,,,5024.7527873,5024.7677507,5024.7677507,5026.9002606,,,,5026.90064,5026.9156273,5026.9156273,5026.9156273,5027.2153175,5027.9313177,5029.912783,,,,,,,,,,,,,,,down,2.1276662000000215,None,None,,,P124,001,2024-11-21_07h47.59.581,posner_endo_new1,2024.2.4,59.97220887840568,2024-11-21 07h48.11.116548 +0000,
0.005,0.31,26,26,0,up,1.0542365999999674,None,space,0.4818589999995311,None,,,,,,,,,0,26,26,26,5029.9293258,,,,,,,,,,,,5029.9130333,5029.9293258,5029.9293258,5030.9959968,,,,5030.9963722,5031.0115196,5031.0115196,5031.0115196,5031.3112084,,5031.4956172,,,,,,,,,,,,,,,up,1.0542365999999674,None,space,0.4818589999995311,None,P124,001,2024-11-21_07h47.59.581,posner_endo_new1,2024.2.4,59.97220887840568,2024-11-21 07h48.11.116548 +0000,
0.31,0.005,27,27,0,down,3.32091279999986,None,space,0.30822360000001936,None,,,,,,,,,0,27,27,27,5031.5109874,,,,,,,,,,,,5031.4958825,5031.5109874,5031.5109874,5034.8420248,,,,5034.8424003,5034.8575742,5034.8575742,5034.8575742,5035.1572004,,5035.1750479,,,,,,,,,,,,,,,down,3.32091279999986,None,space,0.30822360000001936,None,P124,001,2024-11-21_07h47.59.581,posner_endo_new1,2024.2.4,59.97220887840568,2024-11-21 07h48.11.116548 +0000,
0.005,0.31,28,28,0,up,2.6743609000004653,None,space,0.29887349999989965,None,,,,,,,,,0,28,28,28,5035.1904633,,,,,,,,,,,,5035.1753147,5035.1904633,5035.1904633,5037.8722582,,,,5037.872631,5037.8877831,5037.8877831,5037.8877831,5038.1875189,,5038.188719,,,,,,,,,,,,,,,up,2.6743609000004653,None,space,0.29887349999989965,None,P124,001,2024-11-21_07h47.59.581,posner_endo_new1,2024.2.4,59.97220887840568,2024-11-21 07h48.11.116548 +0000,
10,0.005,29,29,0,down,2.708642399999917,None,None,,,,,,,,,,,0,29,29,29,5038.2041092,,,,,,,,,,,,5038.188984,5038.2041092,5038.2041092,5040.9193348,,,,5040.9197144,5040.9346028,5040.9346028,5040.9346028,5041.2342031,5041.9336895,5043.9317587000005,,,,,,,,,,,,,,,down,2.708642399999917,None,None,,,P124,001,2024-11-21_07h47.59.581,posner_endo_new1,2024.2.4,59.97220887840568,2024-11-21 07h48.11.116548 +0000,
0.005,-0.31,30,30,0,up,0.3395600000003469,None,space,0.46212070000001404,None,,,,,,,,,0,30,30,30,5043.9482768,,,,,,,,,,,,5043.9320102,5043.9482768,5043.9482768,5044.2989832,,,,5044.2993567,5044.3145299,5044.3145299,5044.3145299,5044.6142213,,5044.7820075,,,,,,,,,,,,,,,up,0.3395600000003469,None,space,0.46212070000001404,None,P124,001,2024-11-21_07h47.59.581,posner_endo_new1,2024.2.4,59.97220887840568,2024-11-21 07h48.11.116548 +0000,
0.31,0.005,31,31,0,down,3.3308913999999277,None,space,0.40257259999998496,None,,,,,,,,,0,31,31,31,5044.7973336000005,,,,,,,,,,,,5044.7822717,5044.7973336000005,5044.7973336000005,5048.1451582,,,,5048.1455494,5048.1605378,5048.1605378,5048.1605378,5048.4605543,,5048.5780199,,,,,,,,,,,,,,,down,3.3308913999999277,None,space,0.40257259999998496,None,P124,001,2024-11-21_07h47.59.581,posner_endo_new1,2024.2.4,59.97220887840568,2024-11-21 07h48.11.116548 +0000,
10,0.005,32,32,0,up,1.4379147999998168,None,None,,,,,,,,,,,0,32,32,32,5048.5934985,,,,,,,,,,,,5048.5782828,5048.5934985,5048.5934985,5050.0431343,,,,5050.0435162,5050.0587435,5050.0587435,5050.0587435,5050.3583281,5051.0742863000005,5053.0557068,,,,,,,,,,,,,,,up,1.4379147999998168,None,None,,,P124,001,2024-11-21_07h47.59.581,posner_endo_new1,2024.2.4,59.97220887840568,2024-11-21 07h48.11.116548 +0000,
-0.31,0.005,33,33,0,down,0.21501850000004197,None,space,0.3186482999999498,None,,,,,,,,,0,33,33,33,5053.0722240000005,,,,,,,,,,,,5053.0559537,5053.0722240000005,5053.0722240000005,5053.2899835,,,,5053.2903654,5053.3053791,5053.3053791,5053.3053791,5053.6049542,,5053.6397371,,,,,,,,,,,,,,,down,0.21501850000004197,None,space,0.3186482999999498,None,P124,001,2024-11-21_07h47.59.581,posner_endo_new1,2024.2.4,59.97220887840568,2024-11-21 07h48.11.116548 +0000,
10,0.005,34,34,0,up,2.4252378999999564,None,None,,,,,,,,,,,0,34,34,34,5053.6548489,,,,,,,,,,,,5053.6400023,5053.6548489,5053.6548489,5056.0869989,,,,5056.0873774,5056.1024464,5056.1024464,5056.1024464,5056.4022164,5057.1014814,5059.0995339,,,,,,,,,,,,,,,up,2.4252378999999564,None,None,,,P124,001,2024-11-21_07h47.59.581,posner_endo_new1,2024.2.4,59.97220887840568,2024-11-21 07h48.11.116548 +0000,
0.005,-0.31,35,35,0,down,0.7155348000005688,None,space,0.3735703000002104,None,,,,,,,,,0,35,35,35,5059.1159771,,,,,,,,,,,,5059.0997865,5059.1159771,5059.1159771,5059.8333783,,,,5059.833762,5059.8486718,5059.8486718,5059.8486718,5060.1483026,,5060.2326968,,,,,,,,,,,,,,,down,0.7155348000005688,None,space,0.3735703000002104,None,P124,001,2024-11-21_07h47.59.581,posner_endo_new1,2024.2.4,59.97220887840568,2024-11-21 07h48.11.116548 +0000,
0.31,0.005,36,36,0,up,2.943006499999683,None,space,0.3875938999999562,None,,,,,,,,,0,36,36,36,5060.2481282,,,,,,,,,,,,5060.2329663,5060.2481282,5060.2481282,5063.1962868,,,,5063.196662,5063.2118641,5063.2118641,5063.2118641,5063.5114784,,5063.6121152000005,,,,,,,,,,,,,,,up,2.943006499999683,None,space,0.3875938999999562,None,P124,001,2024-11-21_07h47.59.581,posner_endo_new1,2024.2.4,59.97220887840568,2024-11-21 07h48.11.116548 +0000,
10,0.005,37,37,0,down,2.3076155999997354,None,None,,,,,,,,,,,0,37,37,37,5063.6280884,,,,,,,,,,,,5063.6122839,5063.6280884,5063.6280884,5065.9431508,,,,5065.9434056,5065.9589382,5065.9589382,5065.9589382,5066.25871,5066.958346,5068.9559869,,,,,,,,,,,,,,,down,2.3076155999997354,None,None,,,P124,001,2024-11-21_07h47.59.581,posner_endo_new1,2024.2.4,59.97220887840568,2024-11-21 07h48.11.116548 +0000,
10,0.005,38,38,0,down,3.082797600000049,None,None,,,,,,,,,,,0,38,38,38,5068.9725964,,,,,,,,,,,,5068.9561512,5068.9725964,5068.9725964,5072.0701446,,,,5072.0704005,5072.0859162,5072.0859162,5072.0859162,5072.385773,5073.0850446,5075.082976,,,,,,,,,,,,,,,down,3.082797600000049,None,None,,,P124,001,2024-11-21_07h47.59.581,posner_endo_new1,2024.2.4,59.97220887840568,2024-11-21 07h48.11.116548 +0000,
-0.31,0.005,39,39,0,up,0.7961063000002468,None,space,0.28379450000011275,None,,,,,,,,,0,39,39,39,5075.0996138,,,,,,,,,,,,5075.0831472,5075.0996138,5075.0996138,5075.8997217,,,,5075.8999803,5075.9155476,5075.9155476,5075.9155476,5076.2149564,,5076.2157664,,,,,,,,,,,,,,,up,0.7961063000002468,None,space,0.28379450000011275,None,P124,001,2024-11-21_07h47.59.581,posner_endo_new1,2024.2.4,59.97220887840568,2024-11-21 07h48.11.116548 +0000,
0.005,-0.31,40,40,0,down,2.7761442999999417,None,space,0.37465179999981046,None,,,,,,,,,0,40,40,40,5076.231807,,,,,,,,,,,,5076.2159294,5076.231807,5076.231807,5079.0132251,,,,5079.0134795,5079.0289013,5079.0289013,5079.0289013,5079.3287468,,5079.412612,,,,,,,,,,,,,,,down,2.7761442999999417,None,space,0.37465179999981046,None,P124,001,2024-11-21_07h47.59.581,posner_endo_new1,2024.2.4,59.97220887840568,2024-11-21 07h48.11.116548 +0000,
0.005,-0.31,41,41,0,up,2.5224928999996337,None,space,0.40385559999958787,None,,,,,,,,,0,41,41,41,5079.4285127,,,,,,,,,,,,5079.4127829,5079.4285127,5079.4285127,5081.9600959,,,,5081.9603495,5081.9759985,5081.9759985,5081.9759985,5082.2755014,,5082.393129,,,,,,,,,,,,,,,up,2.5224928999996337,None,space,0.40385559999958787,None,P124,001,2024-11-21_07h47.59.581,posner_endo_new1,2024.2.4,59.97220887840568,2024-11-21 07h48.11.116548 +0000,
10,0.005,42,42,0,down,2.4791402999999264,None,None,,,,,,,,,,,0,42,42,42,5082.4088467,,,,,,,,,,,,5082.3932973,5082.4088467,5082.4088467,5084.8904639,,,,5084.8907178,5084.9060559,5084.9060559,5084.9060559,5085.2059602,5085.9052617,5087.9033232,,,,,,,,,,,,,,,down,2.4791402999999264,None,None,,,P124,001,2024-11-21_07h47.59.581,posner_endo_new1,2024.2.4,59.97220887840568,2024-11-21 07h48.11.116548 +0000,
0.005,-0.31,43,43,0,down,5.495431100000133,None,space,0.3918468000001667,None,,,,,,,,,0,43,43,43,5087.9197935,,,,,,,,,,,,5087.9034936,5087.9197935,5087.9197935,5093.4315562,,,,5093.4318092,5093.4474383,5093.4474383,5093.4474383,5093.747295,,5093.8478683,,,,,,,,,,,,,,,down,5.495431100000133,None,space,0.3918468000001667,None,P124,001,2024-11-21_07h47.59.581,posner_endo_new1,2024.2.4,59.97220887840568,2024-11-21 07h48.11.116548 +0000,
-0.31,0.005,44,44,0,up,2.8562087999998766,None,space,0.546590599999945,None,,,,,,,,,0,44,44,44,5093.8636814,,,,,,,,,,,,5093.8480393,5093.8636814,5093.8636814,5096.728266,,,,5096.7285191,5096.7440927,5096.7440927,5096.7440927,5097.0437292,,5097.2943581,,,,,,,,,,,,,,,up,2.8562087999998766,None,space,0.546590599999945,None,P124,001,2024-11-21_07h47.59.581,posner_endo_new1,2024.2.4,59.97220887840568,2024-11-21 07h48.11.116548 +0000,
10,0.005,45,45,0,down,3.569820799999434,None,None,,,,,,,,,,,0,45,45,45,5097.3102256,,,,,,,,,,,,5097.2945331,5097.3102256,5097.3102256,5100.8906268,,,,5100.890885,5100.9064168,5100.9064168,5100.9064168,5101.2061977,5101.9056288,5103.9036552,,,,,,,,,,,,,,,down,3.569820799999434,None,None,,,P124,001,2024-11-21_07h47.59.581,posner_endo_new1,2024.2.4,59.97220887840568,2024-11-21 07h48.11.116548 +0000,
0.005,0.31,46,46,0,up,0.24733130000004167,None,space,0.33489579999968555,None,,,,,,,,,0,46,46,46,5103.9201306,,,,,,,,,,,,5103.9038189,5103.9201306,5103.9201306,5104.1706460000005,,,,5104.1709032,5104.1864768000005,5104.1864768000005,5104.1864768000005,5104.4864221,,5104.5371112,,,,,,,,,,,,,,,up,0.24733130000004167,None,space,0.33489579999968555,None,P124,001,2024-11-21_07h47.59.581,posner_endo_new1,2024.2.4,59.97220887840568,2024-11-21 07h48.11.116548 +0000,
0.005,-0.31,47,47,0,down,3.1505069999993793,None,space,0.3435390999993615,None,,,,,,,,,0,47,47,47,5104.5528293,,,,,,,,,,,,5104.5372815,5104.5528293,5104.5528293,5107.7169737,,,,5107.7172334,5107.7328845,5107.7328845,5107.7328845,5108.0325851,,5108.0832443,,,,,,,,,,,,,,,down,3.1505069999993793,None,space,0.3435390999993615,None,P124,001,2024-11-21_07h47.59.581,posner_endo_new1,2024.2.4,59.97220887840568,2024-11-21 07h48.11.116548 +0000,
0.31,0.005,48,48,0,up,2.149412499999926,None,space,0.3904937000006612,None,,,,,,,,,0,48,48,48,5108.0992162,,,,,,,,,,,,5108.0834168,5108.0992162,5108.0992162,5110.2642944,,,,5110.2645485,5110.2801705,5110.2801705,5110.2801705,5110.5801059000005,,5110.6804842,,,,,,,,,,,,,,,up,2.149412499999926,None,space,0.3904937000006612,None,P124,001,2024-11-21_07h47.59.581,posner_endo_new1,2024.2.4,59.97220887840568,2024-11-21 07h48.11.116548 +0000,
-0.31,0.005,49,49,0,down,3.646835500000634,None,space,0.31620589999965887,None,,,,,,,,,0,49,49,49,5110.6965656,,,,,,,,,,,,5110.6806565,5110.6965656,5110.6965656,5114.3602792,,,,5114.3605315,5114.3761087,5114.3761087,5114.3761087,5114.6758479,,5114.6932725,,,,,,,,,,,,,,,down,3.646835500000634,None,space,0.31620589999965887,None,P124,001,2024-11-21_07h47.59.581,posner_endo_new1,2024.2.4,59.97220887840568,2024-11-21 07h48.11.116548 +0000,
0.005,0.31,50,50,0,up,2.898770699999659,None,space,0.37715659999958007,None,,,,,,,,,0,50,50,50,5114.7090488,,,,,,,,,,,,5114.6934433,5114.7090488,5114.7090488,5117.6235581,,,,5117.6238102,5117.63946,5117.63946,5117.63946,5117.9391259,,5118.0232493,,,,,,,,,,,,,,,up,2.898770699999659,None,space,0.37715659999958007,None,P124,001,2024-11-21_07h47.59.581,posner_endo_new1,2024.2.4,59.97220887840568,2024-11-21 07h48.11.116548 +0000,
0.005,0.31,51,51,0,down,2.7848070000000007,None,space,0.5872201000001951,None,,,,,,,,,0,51,51,51,5118.0389483,,,,,,,,,,,,5118.0234193,5118.0389483,5118.0389483,5120.8369737,,,,5120.8372272,5120.8528235,5120.8528235,5120.8528235,5121.1524447,,5121.4528794,,,,,,,,,,,,,,,down,2.7848070000000007,None,space,0.5872201000001951,None,P124,001,2024-11-21_07h47.59.581,posner_endo_new1,2024.2.4,59.97220887840568,2024-11-21 07h48.11.116548 +0000,
10,0.005,52,52,0,up,2.2025692999995954,None,None,,,,,,,,,,,0,52,52,52,5121.468726,,,,,,,,,,,,5121.4530552,5121.468726,5121.468726,5123.6841558,,,,5123.6844106,5123.6997831,5123.6997831,5123.6997831,5123.9996747000005,5124.6988872,5126.6969225,,,,,,,,,,,,,,,up,2.2025692999995954,None,None,,,P124,001,2024-11-21_07h47.59.581,posner_endo_new1,2024.2.4,59.97220887840568,2024-11-21 07h48.11.116548 +0000,
-0.31,0.005,53,53,0,down,1.5024289000002682,None,space,0.3223377000003893,None,,,,,,,,,0,53,53,53,5126.7134266,,,,,,,,,,,,5126.697093,5126.7134266,5126.7134266,5128.2293048,,,,5128.22957,5128.2451882000005,5128.2451882000005,5128.2451882000005,5128.5448191000005,,5128.579023,,,,,,,,,,,,,,,down,1.5024289000002682,None,space,0.3223377000003893,None,P124,001,2024-11-21_07h47.59.581,posner_endo_new1,2024.2.4,59.97220887840568,2024-11-21 07h48.11.116548 +0000,
10,0.005,54,54,0,up,2.7814988000000085,None,None,,,,,,,,,,,0,54,54,54,5128.5947782,,,,,,,,,,,,5128.5792002,5128.5947782,5128.5947782,5131.3927429000005,,,,5131.3930055,5131.4086130000005,5131.4086130000005,5131.4086130000005,5131.7083178,5132.4243533,5134.4056347,,,,,,,,,,,,,,,up,2.7814988000000085,None,None,,,P124,001,2024-11-21_07h47.59.581,posner_endo_new1,2024.2.4,59.97220887840568,2024-11-21 07h48.11.116548 +0000,
0.005,0.31,55,55,0,down,0.4089020999999775,None,space,0.39468119999946794,None,,,,,,,,,0,55,55,55,5134.4221033,,,,,,,,,,,,5134.4058002,5134.4221033,5134.4221033,5134.8389438,,,,5134.8392018,5134.8551141,5134.8551141,5134.8551141,5135.1547821,,5135.2553393,,,,,,,,,,,,,,,down,0.4089020999999775,None,space,0.39468119999946794,None,P124,001,2024-11-21_07h47.59.581,posner_endo_new1,2024.2.4,59.97220887840568,2024-11-21 07h48.11.116548 +0000,
0.005,-0.31,56,56,0,up,2.6726461000007475,None,space,0.3616857999995773,None,,,,,,,,,0,56,56,56,5135.2713943,,,,,,,,,,,,5135.2555084000005,5135.2713943,5135.2713943,5137.9527921,,,,5137.953047,5137.9685341,5137.9685341,5137.9685341,5138.2683478,,5138.3357968,,,,,,,,,,,,,,,up,2.6726461000007475,None,space,0.3616857999995773,None,P124,001,2024-11-21_07h47.59.581,posner_endo_new1,2024.2.4,59.97220887840568,2024-11-21 07h48.11.116548 +0000,
0.005,0.31,57,57,0,down,3.0077340999996522,None,space,0.3111141999997926,None,,,,,,,,,0,57,57,57,5138.3516331,,,,,,,,,,,,5138.335965,5138.3516331,5138.3516331,5141.3659672,,,,5141.3662186,5141.3817545,5141.3817545,5141.3817545,5141.681461,,5141.6990321,,,,,,,,,,,,,,,down,3.0077340999996522,None,space,0.3111141999997926,None,P124,001,2024-11-21_07h47.59.581,posner_endo_new1,2024.2.4,59.97220887840568,2024-11-21 07h48.11.116548 +0000,
-0.31,0.005,58,58,0,up,2.629670199999964,None,space,0.5690590999993219,None,,,,,,,,,0,58,58,58,5141.7147448000005,,,,,,,,,,,,5141.6992028,5141.7147448000005,5141.7147448000005,5144.3462847,,,,5144.3465427,5144.3620661,5144.3620661,5144.3620661,5144.6616797,,5144.945634,,,,,,,,,,,,,,,up,2.629670199999964,None,space,0.5690590999993219,None,P124,001,2024-11-21_07h47.59.581,posner_endo_new1,2024.2.4,59.97220887840568,2024-11-21 07h48.11.116548 +0000,
-0.31,0.005,59,59,0,down,2.9024061000000074,None,space,0.6000411000004533,None,,,,,,,,,0,59,59,59,5144.9613066,,,,,,,,,,,,5144.9458048,5144.9613066,5144.9613066,5147.875729,,,,5147.8760092,5147.8918066,5147.8918066,5147.8918066,5148.1914047,,5148.5086137,,,,,,,,,,,,,,,down,2.9024061000000074,None,space,0.6000411000004533,None,P124,001,2024-11-21_07h47.59.581,posner_endo_new1,2024.2.4,59.97220887840568,2024-11-21 07h48.11.116548 +0000,
