target_y,target_x,thisN,thisTrialN,thisRepN,key_control2.keys,key_control2.rt,key_control2.duration,key_resp.keys,key_resp.rt,key_resp.duration,practice.thisRepN,practice.thisTrialN,practice.thisN,practice.thisIndex,session_1.thisRepN,session_1.thisTrialN,session_1.thisN,session_1.thisIndex,session_2.thisRepN,session_2.thisTrialN,session_2.thisN,session_2.thisIndex,thisRow.t,notes,instructions.started,instructions_txt.started,key_control.started,instructions.stopped,key_control.keys,key_control.rt,key_control.duration,ready.started,ready_txt.started,ready.stopped,fix.started,key_control2.started,fixation_cross.started,fix.stopped,practice.key_control2.keys,practice.key_control2.rt,practice.key_control2.duration,target.started,star.started,fixation_cross_target.started,key_resp.started,star.stopped,target.stopped,practice.key_resp.keys,practice.key_resp.rt,practice.key_resp.duration,key_resp.stopped,session_1.key_control2.keys,session_1.key_control2.rt,session_1.key_control2.duration,session_1.key_resp.keys,session_1.key_resp.rt,session_1.key_resp.duration,break_2.started,text.started,key_control3.started,break_2.stopped,key_control3.keys,session_2.key_control2.keys,session_2.key_control2.rt,session_2.key_control2.duration,session_2.key_resp.keys,session_2.key_resp.rt,session_2.key_resp.duration,participant,session,date,expName,psychopyVersion,frameRate,expStart,
,,,,,,,,,,,,,,,,,,,,,,,,,0.007511300000260235,0.02185190000000148,0.02185190000000148,2706.3216188000006,up,2706.2887489000004,None,,,,,,,,,,,,,,,,,,,,,,,,,,,,,,,,,,,,,,P125,001,2024-11-21_09h22.46.710,posner_endo_new1,2024.2.4,60.05937469808767,2024-11-21 09h22.52.626419 +0000,
,,,,,,,,,,,,,,,,,,,,,,,,,,,,,,,,2706.321699100001,2706.3349997999994,2709.3296119000006,,,,,,,,,,,,,,,,,,,,,,,,,,,,,,,,,,,P125,001,2024-11-21_09h22.46.710,posner_endo_new1,2024.2.4,60.05937469808767,2024-11-21 09h22.52.626419 +0000,
-0.31,0.005,0,0,0,down,22.506413299999622,None,space,0.5324120000004768,None,0,0,0,0,,,,,,,,,2709.3486742999994,,,,,,,,,,,,2709.3367149000005,2709.3486742999994,2709.3486742999994,2731.8571379000005,down,22.506413299999622,None,2731.8574207,2731.8730097999996,2731.8730097999996,2731.8730097999996,2732.1726512999994,2732.4068461000006,space,0.5324120000004768,None,,,,,,,,,,,,,,,,,,,P125,001,2024-11-21_09h22.46.710,posner_endo_new1,2024.2.4,60.05937469808767,2024-11-21 09h22.52.626419 +0000,
0.005,-0.31,1,1,0,up,6.344961899998452,None,space,0.31772079999973357,None,0,1,1,7,,,,,,,,,2732.4224632000005,,,,,,,,,,,,2732.4070107999996,2732.4224632000005,2732.4224632000005,2738.7833314,up,6.344961899998452,None,2738.7835914000007,2738.7992765,2738.7992765,2738.7992765,2739.0989744,2739.1328624,space,0.31772079999973357,None,,,,,,,,,,,,,,,,,,,P125,001,2024-11-21_09h22.46.710,posner_endo_new1,2024.2.4,60.05937469808767,2024-11-21 09h22.52.626419 +0000,
0.005,0.31,2,2,0,down,3.1298810000007506,None,space,0.3480316999994102,None,0,2,2,6,,,,,,,,,2739.148860200001,,,,,,,,,,,,2739.133022599999,2739.148860200001,2739.148860200001,2742.2798303,down,3.1298810000007506,None,2742.2800797,2742.2956797000006,2742.2956797000006,2742.2956797000006,2742.5953702000006,2742.6462052999996,space,0.3480316999994102,None,,,,,,,,,,,,,,,,,,,P125,001,2024-11-21_09h22.46.710,posner_endo_new1,2024.2.4,60.05937469808767,2024-11-21 09h22.52.626419 +0000,
0.005,0.31,3,3,0,up,2.9607574000001478,None,space,0.2872129999996105,None,0,3,3,8,,,,,,,,,2742.6619157999994,,,,,,,,,,,,2742.6463593999997,2742.6619157999994,2742.6619157999994,2745.6264140000003,up,2.9607574000001478,None,2745.6266761000006,2745.6422920000005,2745.6422920000005,2745.6422920000005,2745.9418764,2745.9427056000004,space,0.2872129999996105,None,,,,,,,,,,,,,,,,,,,P125,001,2024-11-21_09h22.46.710,posner_endo_new1,2024.2.4,60.05937469808767,2024-11-21 09h22.52.626419 +0000,
10,0.005,4,4,0,down,1.7522623999993812,None,None,,,0,4,4,4,,,,,,,,,2745.9586182000003,,,,,,,,,,,,2745.9428712999998,2745.9586182000003,2745.9586182000003,2747.7241665,down,1.7522623999993812,None,2747.7244238000003,2747.7400873999995,2747.7400873999995,2747.7400873999995,2748.0397345,2750.7371058999997,None,,,2748.7389114,,,,,,,,,,,,,,,,,,P125,001,2024-11-21_09h22.46.710,posner_endo_new1,2024.2.4,60.05937469808767,2024-11-21 09h22.52.626419 +0000,
-0.31,0.005,5,5,0,up,2.621419600000081,None,space,0.34948050000093644,None,0,5,5,2,,,,,,,,,2750.7535272000005,,,,,,,,,,,,2750.7372658000004,2750.7535272000005,2750.7535272000005,2753.3851624,up,2.621419600000081,None,2753.385421000001,2753.4010180000005,2753.4010180000005,2753.4010180000005,2753.7005993000002,2753.75151,space,0.34948050000093644,None,,,,,,,,,,,,,,,,,,,P125,001,2024-11-21_09h22.46.710,posner_endo_new1,2024.2.4,60.05937469808767,2024-11-21 09h22.52.626419 +0000,
0.005,-0.31,6,6,0,down,2.1671234000004915,None,space,0.43772490000083053,None,0,6,6,5,,,,,,,,,2753.7673331000005,,,,,,,,,,,,2753.7516708000003,2753.7673331000005,2753.7673331000005,2755.9493459999994,down,2.1671234000004915,None,2755.9496039000005,2755.9649092,2755.9649092,2755.9649092,2756.2646258999994,2756.4153279,space,0.43772490000083053,None,,,,,,,,,,,,,,,,,,,P125,001,2024-11-21_09h22.46.710,posner_endo_new1,2024.2.4,60.05937469808767,2024-11-21 09h22.52.626419 +0000,
0.31,0.005,7,7,0,up,6.128784499998801,None,space,0.32906800000091607,None,0,7,7,1,,,,,,,,,2756.4311589999998,,,,,,,,,,,,2756.4154887999994,2756.4311589999998,2756.4311589999998,2762.5756562000006,up,6.128784499998801,None,2762.5759180000005,2762.5916352999993,2762.5916352999993,2762.5916352999993,2762.8912739000007,2762.9253116,space,0.32906800000091607,None,,,,,,,,,,,,,,,,,,,P125,001,2024-11-21_09h22.46.710,posner_endo_new1,2024.2.4,60.05937469808767,2024-11-21 09h22.52.626419 +0000,
0.31,0.005,8,8,0,down,2.001600999999937,None,space,0.3872312999992573,None,0,8,8,3,,,,,,,,,2762.941295299999,,,,,,,,,,,,2762.9254727999996,2762.941295299999,2762.941295299999,2764.9564960000007,down,2.001600999999937,None,2764.9567564999998,2764.9722619000004,2764.9722619000004,2764.9722619000004,2765.2722083999997,2765.372756999999,space,0.3872312999992573,None,,,,,,,,,,,,,,,,,,,P125,001,2024-11-21_09h22.46.710,posner_endo_new1,2024.2.4,60.05937469808767,2024-11-21 09h22.52.626419 +0000,
0.005,10,9,9,0,up,1.6751320999992458,None,None,,,0,9,9,9,,,,,,,,,2765.3887214999995,,,,,,,,,,,,2765.372916799999,2765.3887214999995,2765.3887214999995,2767.0710024,up,1.6751320999992458,None,2767.0712607000005,2767.0870443999993,2767.0870443999993,2767.0870443999993,2767.3866063000005,2770.0839627999994,None,,,2768.1024605000002,,,,,,,,,,,,,,,,,,P125,001,2024-11-21_09h22.46.710,posner_endo_new1,2024.2.4,60.05937469808767,2024-11-21 09h22.52.626419 +0000,
,,,,,,,,,,,,,,,,,,,,,,,,,,,,,,,,2770.0840688000008,2770.1007312,2773.0808374000007,,,,,,,,,,,,,,,,,,,,,,,,,,,,,,,,,,,P125,001,2024-11-21_09h22.46.710,posner_endo_new1,2024.2.4,60.05937469808767,2024-11-21 09h22.52.626419 +0000,
-0.31,0.005,0,0,0,down,30.083113200000298,None,space,0.7098514000008436,None,,,,,0,0,0,0,,,,,2773.0998206999993,,,,,,,,,,,,2773.0890352000006,2773.0998206999993,2773.0998206999993,2803.1841251000005,,,,2803.1843744,2803.199984499999,2803.199984499999,2803.199984499999,2803.4996685000006,2803.9166229,,,,,down,30.083113200000298,None,space,0.7098514000008436,None,,,,,,,,,,,,P125,001,2024-11-21_09h22.46.710,posner_endo_new1,2024.2.4,60.05937469808767,2024-11-21 09h22.52.626419 +0000,
0.005,0.31,1,1,0,up,1.6345156999996107,None,space,0.37171139999918523,None,,,,,0,1,1,1,,,,,2803.9324959000005,,,,,,,,,,,,2803.916782800001,2803.9324959000005,2803.9324959000005,2805.5817663,,,,2805.582027799999,2805.5974224,2805.5974224,2805.5974224,2805.8972553999993,2805.981163300001,,,,,up,1.6345156999996107,None,space,0.37171139999918523,None,,,,,,,,,,,,P125,001,2024-11-21_09h22.46.710,posner_endo_new1,2024.2.4,60.05937469808767,2024-11-21 09h22.52.626419 +0000,
0.31,0.005,2,2,0,down,2.937807900001644,None,space,0.3058497999991232,None,,,,,0,2,2,2,,,,,2805.9971038999993,,,,,,,,,,,,2805.9813309,2805.9971038999993,2805.9971038999993,2808.9448111,,,,2808.9450724,2808.9607775000004,2808.9607775000004,2808.9607775000004,2809.2604207999993,2809.2780036000004,,,,,down,2.937807900001644,None,space,0.3058497999991232,None,,,,,,,,,,,,P125,001,2024-11-21_09h22.46.710,posner_endo_new1,2024.2.4,60.05937469808767,2024-11-21 09h22.52.626419 +0000,
0.31,0.005,3,3,0,up,1.28937919999953,None,space,0.7195296999998391,None,,,,,0,3,3,3,,,,,2809.293808799999,,,,,,,,,,,,2809.2781701999993,2809.293808799999,2809.293808799999,2810.5932082,,,,2810.5934791,2810.6089871999993,2810.6089871999993,2810.6089871999993,2810.908603600001,2811.3424176000008,,,,,up,1.28937919999953,None,space,0.7195296999998391,None,,,,,,,,,,,,P125,001,2024-11-21_09h22.46.710,posner_endo_new1,2024.2.4,60.05937469808767,2024-11-21 09h22.52.626419 +0000,
-0.31,0.005,4,4,0,down,10.911833699999988,None,space,0.4611336999987543,None,,,,,0,4,4,4,,,,,2811.3583832000004,,,,,,,,,,,,2811.3425848999996,2811.3583832000004,2811.3583832000004,2822.2810678000005,,,,2822.2813497999996,2822.2972056,2822.2972056,2822.2972056,2822.5967435000002,2822.7642053,,,,,down,10.911833699999988,None,space,0.4611336999987543,None,,,,,,,,,,,,P125,001,2024-11-21_09h22.46.710,posner_endo_new1,2024.2.4,60.05937469808767,2024-11-21 09h22.52.626419 +0000,
0.005,-0.31,5,5,0,up,2.7866931999997178,None,space,0.3428961999998137,None,,,,,0,5,5,5,,,,,2822.7796844000004,,,,,,,,,,,,2822.7643757999995,2822.7796844000004,2822.7796844000004,2825.5777450999994,,,,2825.5780053,2825.5938043999995,2825.5938043999995,2825.5938043999995,2825.893507500001,2825.944114600001,,,,,up,2.7866931999997178,None,space,0.3428961999998137,None,,,,,,,,,,,,P125,001,2024-11-21_09h22.46.710,posner_endo_new1,2024.2.4,60.05937469808767,2024-11-21 09h22.52.626419 +0000,
0.005,-0.31,6,6,0,down,8.175223599999299,None,space,0.2892276000002312,None,,,,,0,6,6,6,,,,,2825.959799,,,,,,,,,,,,2825.9442808999993,2825.959799,2825.959799,2834.1357633000007,,,,2834.1360134000006,2834.1514136999995,2834.1514136999995,2834.1514136999995,2834.452051,2834.452871899999,,,,,down,8.175223599999299,None,space,0.2892276000002312,None,,,,,,,,,,,,P125,001,2024-11-21_09h22.46.710,posner_endo_new1,2024.2.4,60.05937469808767,2024-11-21 09h22.52.626419 +0000,
10,0.005,7,7,0,up,8.674154700000145,None,None,,,,,,,0,7,7,7,,,,,2834.4682556000007,,,,,,,,,,,,2834.4530434000008,2834.4682556000007,2834.4682556000007,2843.1433469999993,,,,2843.143602100001,2843.1589724999994,2843.1589724999994,2843.1589724999994,2843.4585595999997,2846.1561082000007,,,,2844.174685600001,up,8.674154700000145,None,None,,,,,,,,,,,,,,P125,001,2024-11-21_09h22.46.710,posner_endo_new1,2024.2.4,60.05937469808767,2024-11-21 09h22.52.626419 +0000,
-0.31,0.005,8,8,0,up,2.4256315999991784,None,space,0.38242479999826173,None,,,,,0,8,8,8,,,,,2846.1726854999997,,,,,,,,,,,,2846.1562667,2846.1726854999997,2846.1726854999997,2848.6039925000005,,,,2848.6042388999995,2848.6201946,2848.6201946,2848.6201946,2848.9197731000004,2849.0038671,,,,,up,2.4256315999991784,None,space,0.38242479999826173,None,,,,,,,,,,,,P125,001,2024-11-21_09h22.46.710,posner_endo_new1,2024.2.4,60.05937469808767,2024-11-21 09h22.52.626419 +0000,
0.005,0.31,9,9,0,down,1.699677900000097,None,space,0.3818064000006416,None,,,,,0,9,9,9,,,,,2849.0197222999996,,,,,,,,,,,,2849.0040260999995,2849.0197222999996,2849.0197222999996,2850.7355100999994,,,,2850.7357615,2850.7512485000007,2850.7512485000007,2850.7512485000007,2851.050947399999,2851.1350727999998,,,,,down,1.699677900000097,None,space,0.3818064000006416,None,,,,,,,,,,,,P125,001,2024-11-21_09h22.46.710,posner_endo_new1,2024.2.4,60.05937469808767,2024-11-21 09h22.52.626419 +0000,
0.005,-0.31,10,10,0,up,1.6723454000002675,None,space,0.33240980000118725,None,,,,,0,10,10,10,,,,,2851.1507901000004,,,,,,,,,,,,2851.1352344999996,2851.1507901000004,2851.1507901000004,2852.8329928000003,,,,2852.8332470000005,2852.8488777000002,2852.8488777000002,2852.8488777000002,2853.1487995999996,2853.1828829000005,,,,,up,1.6723454000002675,None,space,0.33240980000118725,None,,,,,,,,,,,,P125,001,2024-11-21_09h22.46.710,posner_endo_new1,2024.2.4,60.05937469808767,2024-11-21 09h22.52.626419 +0000,
0.005,0.31,11,11,0,down,2.072209500000099,None,space,0.31147020000025805,None,,,,,0,11,11,11,,,,,2853.1988729000004,,,,,,,,,,,,2853.183044199999,2853.1988729000004,2853.1988729000004,2855.2806891,,,,2855.2809371000003,2855.2964924999997,2855.2964924999997,2855.2964924999997,2855.596360899999,2855.6135630999997,,,,,down,2.072209500000099,None,space,0.31147020000025805,None,,,,,,,,,,,,P125,001,2024-11-21_09h22.46.710,posner_endo_new1,2024.2.4,60.05937469808767,2024-11-21 09h22.52.626419 +0000,
10,0.005,12,12,0,up,1.6486605999998574,None,None,,,,,,,0,12,12,12,,,,,2855.6295541,,,,,,,,,,,,2855.6137223999995,2855.6295541,2855.6295541,2857.295143199999,,,,2857.2953947999995,2857.3112707,2857.3112707,2857.3112707,2857.6109373,2860.3083497000007,,,,2858.3270016000006,up,1.6486605999998574,None,None,,,,,,,,,,,,,,P125,001,2024-11-21_09h22.46.710,posner_endo_new1,2024.2.4,60.05937469808767,2024-11-21 09h22.52.626419 +0000,
0.31,0.005,13,13,0,up,2.185741400000552,None,space,0.4211106999991898,None,,,,,0,13,13,13,,,,,2860.3248213999996,,,,,,,,,,,,2860.3085054000003,2860.3248213999996,2860.3248213999996,2862.523304099999,,,,2862.5235520000006,2862.5390676999996,2862.5390676999996,2862.5390676999996,2862.8389788000004,2862.972866,,,,,up,2.185741400000552,None,space,0.4211106999991898,None,,,,,,,,,,,,P125,001,2024-11-21_09h22.46.710,posner_endo_new1,2024.2.4,60.05937469808767,2024-11-21 09h22.52.626419 +0000,
10,0.005,14,14,0,down,1.986358800000744,None,None,,,,,,,0,14,14,14,,,,,2862.988686999999,,,,,,,,,,,,2862.9730292000004,2862.988686999999,2862.988686999999,2864.9873444000004,,,,2864.9875918,2865.003434800001,2865.003434800001,2865.003434800001,2865.303083500001,2868.0004358000006,,,,2866.0188471,down,1.986358800000744,None,None,,,,,,,,,,,,,,P125,001,2024-11-21_09h22.46.710,posner_endo_new1,2024.2.4,60.05937469808767,2024-11-21 09h22.52.626419 +0000,
-0.31,0.005,15,15,0,up,0.04578089999995427,None,space,0.34479669999927864,None,,,,,0,15,15,15,,,,,2868.0168692000007,,,,,,,,,,,,2868.0005901000004,2868.0168692000007,2868.0168692000007,2868.0676986,,,,2868.0679557000003,2868.0835391,2868.0835391,2868.0835391,2868.3831618999993,2868.4339848,,,,,up,0.04578089999995427,None,space,0.34479669999927864,None,,,,,,,,,,,,P125,001,2024-11-21_09h22.46.710,posner_endo_new1,2024.2.4,60.05937469808767,2024-11-21 09h22.52.626419 +0000,
0.005,-0.31,16,16,0,down,4.516411099999459,None,space,0.31173089999902004,None,,,,,0,16,16,16,,,,,2868.4500814000003,,,,,,,,,,,,2868.4341568,2868.4500814000003,2868.4500814000003,2872.9792017,,,,2872.9794605000006,2872.9950855999996,2872.9950855999996,2872.9950855999996,2873.2947700000004,2873.3124566999995,,,,,down,4.516411099999459,None,space,0.31173089999902004,None,,,,,,,,,,,,P125,001,2024-11-21_09h22.46.710,posner_endo_new1,2024.2.4,60.05937469808767,2024-11-21 09h22.52.626419 +0000,
0.005,0.31,17,17,0,up,2.630333099999916,None,space,0.2824978000007832,None,,,,,0,17,17,17,,,,,2873.3281652000005,,,,,,,,,,,,2873.3126219000005,2873.3281652000005,2873.3281652000005,2875.9595929999996,,,,2875.9598511999993,2875.9755413000003,2875.9755413000003,2875.9755413000003,2876.2751344000008,2876.2595794999997,,,,,up,2.630333099999916,None,space,0.2824978000007832,None,,,,,,,,,,,,P125,001,2024-11-21_09h22.46.710,posner_endo_new1,2024.2.4,60.05937469808767,2024-11-21 09h22.52.626419 +0000,
-0.31,0.005,18,18,0,down,1.98800940000001,None,space,0.4464583999997558,None,,,,,0,18,18,18,,,,,2876.2751344000008,,,,,,,,,,,,2876.2597463,2876.2751344000008,2876.2751344000008,2878.2738771000004,,,,2878.2741411999996,2878.2896163999994,2878.2896163999994,2878.2896163999994,2878.5895930000006,2878.7403489999997,,,,,down,1.98800940000001,None,space,0.4464583999997558,None,,,,,,,,,,,,P125,001,2024-11-21_09h22.46.710,posner_endo_new1,2024.2.4,60.05937469808767,2024-11-21 09h22.52.626419 +0000,
10,0.005,19,19,0,up,1.8186270999995031,None,None,,,,,,,0,19,19,19,,,,,2878.7560257999994,,,,,,,,,,,,2878.7405144999993,2878.7560257999994,2878.7560257999994,2880.5881329000003,,,,2880.5883906,2880.6040742999994,2880.6040742999994,2880.6040742999994,2880.9038124,2883.6009632999994,,,,2881.6196873999997,up,1.8186270999995031,None,None,,,,,,,,,,,,,,P125,001,2024-11-21_09h22.46.710,posner_endo_new1,2024.2.4,60.05937469808767,2024-11-21 09h22.52.626419 +0000,
0.005,0.31,20,20,0,up,3.204713199998878,None,space,0.3777714999996533,None,,,,,0,20,20,20,,,,,2883.6176190000006,,,,,,,,,,,,2883.6011278999995,2883.6176190000006,2883.6176190000006,2886.8316957999996,,,,2886.8319427000006,2886.847598799999,2886.847598799999,2886.847598799999,2887.1472582000006,2887.2316737,,,,,up,3.204713199998878,None,space,0.3777714999996533,None,,,,,,,,,,,,P125,001,2024-11-21_09h22.46.710,posner_endo_new1,2024.2.4,60.05937469808767,2024-11-21 09h22.52.626419 +0000,
0.005,-0.31,21,21,0,down,3.9196731000010914,None,space,0.2987416000014491,None,,,,,0,21,21,21,,,,,2887.2471243,,,,,,,,,,,,2887.2318393000005,2887.2471243,2887.2471243,2891.1772435000003,,,,2891.1775046000002,2891.193183199999,2891.193183199999,2891.193183199999,2891.492735399999,2891.4936013000006,,,,,down,3.9196731000010914,None,space,0.2987416000014491,None,,,,,,,,,,,,P125,001,2024-11-21_09h22.46.710,posner_endo_new1,2024.2.4,60.05937469808767,2024-11-21 09h22.52.626419 +0000,
0.005,0.31,22,22,0,up,3.7931320000006963,None,space,0.4321031999988918,None,,,,,0,22,22,22,,,,,2891.509470000001,,,,,,,,,,,,2891.493767,2891.509470000001,2891.509470000001,2895.3063048999993,,,,2895.306565499999,2895.3222152,2895.3222152,2895.3222152,2895.6220212999997,2895.7560589999994,,,,,up,3.7931320000006963,None,space,0.4321031999988918,None,,,,,,,,,,,,P125,001,2024-11-21_09h22.46.710,posner_endo_new1,2024.2.4,60.05937469808767,2024-11-21 09h22.52.626419 +0000,
0.31,0.005,23,23,0,down,2.69838449999952,None,space,0.3087243000009039,None,,,,,0,23,23,23,,,,,2895.7718655999997,,,,,,,,,,,,2895.7562350999997,2895.7718655999997,2895.7718655999997,2898.486584099999,,,,2898.4868475999992,2898.5023600999994,2898.5023600999994,2898.5023600999994,2898.802139199999,2898.8194024999993,,,,,down,2.69838449999952,None,space,0.3087243000009039,None,,,,,,,,,,,,P125,001,2024-11-21_09h22.46.710,posner_endo_new1,2024.2.4,60.05937469808767,2024-11-21 09h22.52.626419 +0000,
0.005,0.31,24,24,0,up,2.1149669000005815,None,space,0.3572112999991077,None,,,,,0,24,24,24,,,,,2898.8353485000007,,,,,,,,,,,,2898.819571599999,2898.8353485000007,2898.8353485000007,2900.9510637999992,,,,2900.9513308000005,2900.9664488,2900.9664488,2900.9664488,2901.2662788,2901.333522499999,,,,,up,2.1149669000005815,None,space,0.3572112999991077,None,,,,,,,,,,,,P125,001,2024-11-21_09h22.46.710,posner_endo_new1,2024.2.4,60.05937469808767,2024-11-21 09h22.52.626419 +0000,
0.31,0.005,25,25,0,down,2.4413614999994024,None,space,0.38121659999887925,None,,,,,0,25,25,25,,,,,2901.3493445999993,,,,,,,,,,,,2901.3336944000002,2901.3493445999993,2901.3493445999993,2903.7976108000003,,,,2903.7978748000005,2903.8135647,2903.8135647,2903.8135647,2904.1131611,2904.1973412999996,,,,,down,2.4413614999994024,None,space,0.38121659999887925,None,,,,,,,,,,,,P125,001,2024-11-21_09h22.46.710,posner_endo_new1,2024.2.4,60.05937469808767,2024-11-21 09h22.52.626419 +0000,
10,0.005,26,26,0,up,4.985691799998676,None,None,,,,,,,0,26,26,26,,,,,2904.2130285999992,,,,,,,,,,,,2904.1975064,2904.2130285999992,2904.2130285999992,2909.2088889999995,,,,2909.2091492,2909.224515600001,2909.224515600001,2909.224515600001,2909.5244162,2912.2217906000005,,,,2910.2237490999996,up,4.985691799998676,None,None,,,,,,,,,,,,,,P125,001,2024-11-21_09h22.46.710,posner_endo_new1,2024.2.4,60.05937469808767,2024-11-21 09h22.52.626419 +0000,
10,0.005,27,27,0,down,0.7767183000014484,None,None,,,,,,,0,27,27,27,,,,,2912.2383210000007,,,,,,,,,,,,2912.2219544,2912.2383210000007,2912.2383210000007,2913.021670100001,,,,2913.0219297999993,2913.0374508999994,2913.0374508999994,2913.0374508999994,2913.3372769,2916.0344315,,,,2914.036458299999,down,0.7767183000014484,None,None,,,,,,,,,,,,,,P125,001,2024-11-21_09h22.46.710,posner_endo_new1,2024.2.4,60.05937469808767,2024-11-21 09h22.52.626419 +0000,
0.005,-0.31,28,28,0,up,0.7476667999999336,None,space,0.29834239999945567,None,,,,,0,28,28,28,,,,,2916.0510391000007,,,,,,,,,,,,2916.034597600001,2916.0510391000007,2916.0510391000007,2916.8008986000004,,,,2916.8011661,2916.8168437000004,2916.8168437000004,2916.8168437000004,2917.1166661999996,2917.1175315,,,,,up,0.7476667999999336,None,space,0.29834239999945567,None,,,,,,,,,,,,P125,001,2024-11-21_09h22.46.710,posner_endo_new1,2024.2.4,60.05937469808767,2024-11-21 09h22.52.626419 +0000,
0.31,0.005,29,29,0,down,2.7936498999988544,None,space,0.5787091000001965,None,,,,,0,29,29,29,,,,,2917.1332595999993,,,,,,,,,,,,2917.117697399999,2917.1332595999993,2917.1332595999993,2919.9312812000007,,,,2919.9315417,2919.947439400001,2919.947439400001,2919.947439400001,2920.2466834000006,2920.5307563000006,,,,,down,2.7936498999988544,None,space,0.5787091000001965,None,,,,,,,,,,,,P125,001,2024-11-21_09h22.46.710,posner_endo_new1,2024.2.4,60.05937469808767,2024-11-21 09h22.52.626419 +0000,
10,0.005,30,30,0,up,3.6525535000000673,None,None,,,,,,,0,30,30,30,,,,,2920.5465004,,,,,,,,,,,,2920.5309292,2920.5465004,2920.5465004,2924.209905399999,,,,2924.2101537,2924.2260509999996,2924.2260509999996,2924.2260509999996,2924.5257688,2927.2231094,,,,2925.2414874000006,up,3.6525535000000673,None,None,,,,,,,,,,,,,,P125,001,2024-11-21_09h22.46.710,posner_endo_new1,2024.2.4,60.05937469808767,2024-11-21 09h22.52.626419 +0000,
0.31,0.005,31,31,0,down,2.062784499999907,None,space,0.40017729999999574,None,,,,,0,31,31,31,,,,,2927.239460500001,,,,,,,,,,,,2927.223268399999,2927.239460500001,2927.239460500001,2929.3048913000002,,,,2929.3051374000006,2929.3208987,2929.3208987,2929.3208987,2929.6200327000006,2929.7371944000006,,,,,down,2.062784499999907,None,space,0.40017729999999574,None,,,,,,,,,,,,P125,001,2024-11-21_09h22.46.710,posner_endo_new1,2024.2.4,60.05937469808767,2024-11-21 09h22.52.626419 +0000,
0.31,0.005,32,32,0,up,2.917213900000206,None,space,0.3360593000015797,None,,,,,0,32,32,32,,,,,2929.7536438000006,,,,,,,,,,,,2929.737351399999,2929.7536438000006,2929.7536438000006,2932.684652600001,,,,2932.6849134000004,2932.700666500001,2932.700666500001,2932.700666500001,2933.000556000001,2933.0511100000003,,,,,up,2.917213900000206,None,space,0.3360593000015797,None,,,,,,,,,,,,P125,001,2024-11-21_09h22.46.710,posner_endo_new1,2024.2.4,60.05937469808767,2024-11-21 09h22.52.626419 +0000,
10,0.005,33,33,0,down,2.971725699999297,None,None,,,,,,,0,33,33,33,,,,,2933.066882700001,,,,,,,,,,,,2933.0512770999994,2933.066882700001,2933.066882700001,2936.0480162000003,,,,2936.0482654000007,2936.0639021000006,2936.0639021000006,2936.0639021000006,2936.3635496999996,2939.0608427999996,,,,2937.0629714000006,down,2.971725699999297,None,None,,,,,,,,,,,,,,P125,001,2024-11-21_09h22.46.710,posner_endo_new1,2024.2.4,60.05937469808767,2024-11-21 09h22.52.626419 +0000,
0.005,-0.31,34,34,0,up,2.36946639999951,None,space,0.35647919999973965,None,,,,,0,34,34,34,,,,,2939.077518,,,,,,,,,,,,2939.0609996999992,2939.077518,2939.077518,2941.4601452000006,,,,2941.4607882,2941.4755050000003,2941.4755050000003,2941.4755050000003,2941.774704900001,2941.8432422999995,,,,,up,2.36946639999951,None,space,0.35647919999973965,None,,,,,,,,,,,,P125,001,2024-11-21_09h22.46.710,posner_endo_new1,2024.2.4,60.05937469808767,2024-11-21 09h22.52.626419 +0000,
-0.31,0.005,35,35,0,down,2.0130935000015597,None,space,0.38406059999942954,None,,,,,0,35,35,35,,,,,2941.8580779999993,,,,,,,,,,,,2941.8436913000005,2941.8580779999993,2941.8580779999993,2943.8735448999996,,,,2943.8740013999995,2943.8888681999997,2943.8888681999997,2943.8888681999997,2944.1888717,2944.2897278,,,,,down,2.0130935000015597,None,space,0.38406059999942954,None,,,,,,,,,,,,P125,001,2024-11-21_09h22.46.710,posner_endo_new1,2024.2.4,60.05937469808767,2024-11-21 09h22.52.626419 +0000,
-0.31,0.005,36,36,0,up,2.0532053999995696,None,space,0.3807945999997173,None,,,,,0,36,36,36,,,,,2944.305369399999,,,,,,,,,,,,2944.2899416,2944.305369399999,2944.305369399999,2946.370692300001,,,,2946.3709562000004,2946.3868120000006,2946.3868120000006,2946.3868120000006,2946.6863682999992,2946.770269999999,,,,,up,2.0532053999995696,None,space,0.3807945999997173,None,,,,,,,,,,,,P125,001,2024-11-21_09h22.46.710,posner_endo_new1,2024.2.4,60.05937469808767,2024-11-21 09h22.52.626419 +0000,
10,0.005,37,37,0,down,3.228516999999556,None,None,,,,,,,0,37,37,37,,,,,2946.7861249,,,,,,,,,,,,2946.7704364,2946.7861249,2946.7861249,2950.0172263999993,,,,2950.0174850999992,2950.0328673000004,2950.0328673000004,2950.0328673000004,2950.3326369999995,2953.0300159,,,,2951.0484612,down,3.228516999999556,None,None,,,,,,,,,,,,,,P125,001,2024-11-21_09h22.46.710,posner_endo_new1,2024.2.4,60.05937469808767,2024-11-21 09h22.52.626419 +0000,
0.005,0.31,38,38,0,up,3.872376199999053,None,space,0.40865110000049754,None,,,,,0,38,38,38,,,,,2953.0466565000006,,,,,,,,,,,,2953.030179199999,2953.0466565000006,2953.0466565000006,2956.926669300001,,,,2956.9269356000004,2956.942546099999,2956.942546099999,2956.942546099999,2957.2423168000005,2957.3593125000007,,,,,up,3.872376199999053,None,space,0.40865110000049754,None,,,,,,,,,,,,P125,001,2024-11-21_09h22.46.710,posner_endo_new1,2024.2.4,60.05937469808767,2024-11-21 09h22.52.626419 +0000,
0.005,-0.31,39,39,0,down,2.6468625999987125,None,space,0.25255680000009306,None,,,,,0,39,39,39,,,,,2957.3755564000003,,,,,,,,,,,,2957.3594878999993,2957.3755564000003,2957.3755564000003,2960.0235747000006,,,,2960.0238329999993,2960.0393915999994,2960.0393915999994,2960.0393915999994,,2960.306599400001,,,,,down,2.6468625999987125,None,space,0.25255680000009306,None,,,,,,,,,,,,P125,001,2024-11-21_09h22.46.710,posner_endo_new1,2024.2.4,60.05937469808767,2024-11-21 09h22.52.626419 +0000,
0.31,0.005,40,40,0,up,4.180164699999295,None,space,0.31733189999977185,None,,,,,0,40,40,40,,,,,2960.322256900001,,,,,,,,,,,,2960.3067685999995,2960.322256900001,2960.322256900001,2964.5189002000006,,,,2964.5191615999993,2964.534855600001,2964.534855600001,2964.534855600001,2964.8345489000003,2964.8686811999996,,,,,up,4.180164699999295,None,space,0.31733189999977185,None,,,,,,,,,,,,P125,001,2024-11-21_09h22.46.710,posner_endo_new1,2024.2.4,60.05937469808767,2024-11-21 09h22.52.626419 +0000,
-0.31,0.005,41,41,0,down,2.01809829999911,None,space,0.36741909999909694,None,,,,,0,41,41,41,,,,,2964.884394500001,,,,,,,,,,,,2964.8688466999993,2964.884394500001,2964.884394500001,2966.9163537999993,,,,2966.9166215999994,2966.9323079000005,2966.9323079000005,2966.9323079000005,2967.232015400001,2967.3160339999995,,,,,down,2.01809829999911,None,space,0.36741909999909694,None,,,,,,,,,,,,P125,001,2024-11-21_09h22.46.710,posner_endo_new1,2024.2.4,60.05937469808767,2024-11-21 09h22.52.626419 +0000,
0.31,0.005,42,42,0,up,2.6263075999995635,None,space,0.3463482999995904,None,,,,,0,42,42,42,,,,,2967.3319126999995,,,,,,,,,,,,2967.3162013,2967.3319126999995,2967.3319126999995,2969.9633527000005,,,,2969.9636116,2969.9791872999995,2969.9791872999995,2969.9791872999995,2970.2789233000003,2970.3299234999995,,,,,up,2.6263075999995635,None,space,0.3463482999995904,None,,,,,,,,,,,,P125,001,2024-11-21_09h22.46.710,posner_endo_new1,2024.2.4,60.05937469808767,2024-11-21 09h22.52.626419 +0000,
10,0.005,43,43,0,down,2.9488522999999986,None,None,,,,,,,0,43,43,43,,,,,2970.3456000000006,,,,,,,,,,,,2970.3300877,2970.3456000000006,2970.3456000000006,2973.3099115999994,,,,2973.3101683999994,2973.3257133999996,2973.3257133999996,2973.3257133999996,2973.6254666000004,2976.3227277000005,,,,2974.3248224,down,2.9488522999999986,None,None,,,,,,,,,,,,,,P125,001,2024-11-21_09h22.46.710,posner_endo_new1,2024.2.4,60.05937469808767,2024-11-21 09h22.52.626419 +0000,
-0.31,0.005,44,44,0,up,15.996759300000122,None,space,0.512547899999845,None,,,,,0,44,44,44,,,,,2976.3393495,,,,,,,,,,,,2976.3228997000006,2976.3393495,2976.3393495,2992.340508699999,,,,2992.3407697000002,2992.3562772000005,2992.3562772000005,2992.3562772000005,2992.6559751999994,2992.8734465,,,,,up,15.996759300000122,None,space,0.512547899999845,None,,,,,,,,,,,,P125,001,2024-11-21_09h22.46.710,posner_endo_new1,2024.2.4,60.05937469808767,2024-11-21 09h22.52.626419 +0000,
0.005,0.31,45,45,0,down,2.2776720999991085,None,space,0.586413299999549,None,,,,,0,45,45,45,,,,,2992.8890575999994,,,,,,,,,,,,2992.8736107999994,2992.8890575999994,2992.8890575999994,2995.1708837000006,,,,2995.1711436000005,2995.1868159000005,2995.1868159000005,2995.1868159000005,2995.4864044999995,2995.7868978000006,,,,,down,2.2776720999991085,None,space,0.586413299999549,None,,,,,,,,,,,,P125,001,2024-11-21_09h22.46.710,posner_endo_new1,2024.2.4,60.05937469808767,2024-11-21 09h22.52.626419 +0000,
0.005,-0.31,46,46,0,up,1.3877009999996517,None,space,0.38771929999893473,None,,,,,0,46,46,46,,,,,2995.8027213999994,,,,,,,,,,,,2995.7870717000005,2995.8027213999994,2995.8027213999994,2997.2021256999997,,,,2997.2023836000008,2997.2179226999997,2997.2179226999997,2997.2179226999997,2997.5175039000005,2997.6183693000003,,,,,up,1.3877009999996517,None,space,0.38771929999893473,None,,,,,,,,,,,,P125,001,2024-11-21_09h22.46.710,posner_endo_new1,2024.2.4,60.05937469808767,2024-11-21 09h22.52.626419 +0000,
-0.31,0.005,47,47,0,down,2.1086646000003384,None,space,0.35184060000028694,None,,,,,0,47,47,47,,,,,2997.6341739,,,,,,,,,,,,2997.6185341,2997.6341739,2997.6341739,2999.7495727999994,,,,2999.7498314999993,2999.7652524999994,2999.7652524999994,2999.7652524999994,3000.0650133,3000.1323469,,,,,down,2.1086646000003384,None,space,0.35184060000028694,None,,,,,,,,,,,,P125,001,2024-11-21_09h22.46.710,posner_endo_new1,2024.2.4,60.05937469808767,2024-11-21 09h22.52.626419 +0000,
0.005,-0.31,48,48,0,up,1.5786985000013374,None,space,0.2820807000007335,None,,,,,0,48,48,48,,,,,3000.1482797999997,,,,,,,,,,,,3000.1325134,3000.1482797999997,3000.1482797999997,3001.730709900001,,,,3001.730970299999,3001.746758200001,3001.746758200001,3001.746758200001,3002.0462499000005,3002.0305707000007,,,,,up,1.5786985000013374,None,space,0.2820807000007335,None,,,,,,,,,,,,P125,001,2024-11-21_09h22.46.710,posner_endo_new1,2024.2.4,60.05937469808767,2024-11-21 09h22.52.626419 +0000,
0.005,-0.31,49,49,0,down,2.081549799999266,None,space,0.38970770000014454,None,,,,,0,49,49,49,,,,,3002.0462499000005,,,,,,,,,,,,3002.0307317000006,3002.0462499000005,3002.0462499000005,3004.128595099999,,,,3004.128859799999,3004.1442312,3004.1442312,3004.1442312,3004.443743399999,3004.5445313,,,,,down,2.081549799999266,None,space,0.38970770000014454,None,,,,,,,,,,,,P125,001,2024-11-21_09h22.46.710,posner_endo_new1,2024.2.4,60.05937469808767,2024-11-21 09h22.52.626419 +0000,
0.005,0.31,50,50,0,up,1.5821808000000601,None,space,0.44929440000123577,None,,,,,0,50,50,50,,,,,3004.560537199999,,,,,,,,,,,,3004.5446952,3004.560537199999,3004.560537199999,3006.1594146999996,,,,3006.159674299999,3006.1755754999995,3006.1755754999995,3006.1755754999995,3006.4752399999998,3006.6258882,,,,,up,1.5821808000000601,None,space,0.44929440000123577,None,,,,,,,,,,,,P125,001,2024-11-21_09h22.46.710,posner_endo_new1,2024.2.4,60.05937469808767,2024-11-21 09h22.52.626419 +0000,
0.31,0.005,51,51,0,down,1.8610044000015478,None,space,0.28065539999988687,None,,,,,0,51,51,51,,,,,3006.6417174,,,,,,,,,,,,3006.6260514999994,3006.6417174,3006.6417174,3008.5072394,,,,3008.5075025999995,3008.5230928,3008.5230928,3008.5230928,3008.8227821,3008.8068451,,,,,down,1.8610044000015478,None,space,0.28065539999988687,None,,,,,,,,,,,,P125,001,2024-11-21_09h22.46.710,posner_endo_new1,2024.2.4,60.05937469808767,2024-11-21 09h22.52.626419 +0000,
0.31,0.005,52,52,0,up,1.6322495999993407,None,space,0.2647959999994782,None,,,,,0,52,52,52,,,,,3008.8227821,,,,,,,,,,,,3008.8070045000004,3008.8227821,3008.8227821,3010.4719434,,,,3010.4721998000005,3010.4877730999997,3010.4877730999997,3010.4877730999997,,3010.7550842,,,,,up,1.6322495999993407,None,space,0.2647959999994782,None,,,,,,,,,,,,P125,001,2024-11-21_09h22.46.710,posner_endo_new1,2024.2.4,60.05937469808767,2024-11-21 09h22.52.626419 +0000,
0.005,0.31,53,53,0,down,1.9956588999993983,None,space,0.30045369999970717,None,,,,,0,53,53,53,,,,,3010.7707142,,,,,,,,,,,,3010.7552479999995,3010.7707142,3010.7707142,3012.7694092,,,,3012.7696679,3012.785251200001,3012.785251200001,3012.785251200001,3013.0850972000007,3013.1025045000006,,,,,down,1.9956588999993983,None,space,0.30045369999970717,None,,,,,,,,,,,,P125,001,2024-11-21_09h22.46.710,posner_endo_new1,2024.2.4,60.05937469808767,2024-11-21 09h22.52.626419 +0000,
-0.31,0.005,54,54,0,up,1.608532300000661,None,space,0.28970490000028803,None,,,,,0,54,54,54,,,,,3013.1181601000008,,,,,,,,,,,,3013.1026696999998,3013.1181601000008,3013.1181601000008,3014.7342432999994,,,,3014.7345019999993,3014.7499833,3014.7499833,3014.7499833,3015.0498659000004,3015.0506556,,,,,up,1.608532300000661,None,space,0.28970490000028803,None,,,,,,,,,,,,P125,001,2024-11-21_09h22.46.710,posner_endo_new1,2024.2.4,60.05937469808767,2024-11-21 09h22.52.626419 +0000,
10,0.005,55,55,0,down,2.08411150000029,None,None,,,,,,,0,55,55,55,,,,,3015.0663979,,,,,,,,,,,,3015.0508233,3015.0663979,3015.0663979,3017.1649101000003,,,,3017.1651698000005,3017.1807977999997,3017.1807977999997,3017.1807977999997,3017.4806616999995,3020.1780961999993,,,,3018.1795538999995,down,2.08411150000029,None,None,,,,,,,,,,,,,,P125,001,2024-11-21_09h22.46.710,posner_endo_new1,2024.2.4,60.05937469808767,2024-11-21 09h22.52.626419 +0000,
0.31,0.005,56,56,0,up,None,None,space,0.5520596000005753,None,,,,,0,56,56,56,,,,,3020.194518800001,,,,,,,,,,,,3020.1782583999993,3020.194518800001,3020.194518800001,3020.4282435000005,,,,3020.4284926,3020.4441429,3020.4441429,3020.4441429,3020.7437264,3021.0110975999996,,,,,up,None,None,space,0.5520596000005753,None,,,,,,,,,,,,P125,001,2024-11-21_09h22.46.710,posner_endo_new1,2024.2.4,60.05937469808767,2024-11-21 09h22.52.626419 +0000,
0.005,0.31,57,57,0,down,2.0680124999998952,None,space,0.31878099999994447,None,,,,,0,57,57,57,,,,,3021.0267225000007,,,,,,,,,,,,3021.0112532000003,3021.0267225000007,3021.0267225000007,3023.1087045000004,,,,3023.1089744,3023.1247619000005,3023.1247619000005,3023.1247619000005,3023.4244571,3023.4584047999997,,,,,down,2.0680124999998952,None,space,0.31878099999994447,None,,,,,,,,,,,,P125,001,2024-11-21_09h22.46.710,posner_endo_new1,2024.2.4,60.05937469808767,2024-11-21 09h22.52.626419 +0000,
-0.31,0.005,58,58,0,up,5.740313799999058,None,space,0.40846849999979895,None,,,,,0,58,58,58,,,,,3023.4744527000003,,,,,,,,,,,,3023.4585664999995,3023.4744527000003,3023.4744527000003,3029.2192555,,,,3029.219512399999,3029.2350640000004,3029.2350640000004,3029.2350640000004,3029.5348895999996,3029.652154900001,,,,,up,5.740313799999058,None,space,0.40846849999979895,None,,,,,,,,,,,,P125,001,2024-11-21_09h22.46.710,posner_endo_new1,2024.2.4,60.05937469808767,2024-11-21 09h22.52.626419 +0000,
-0.31,0.005,59,59,0,down,2.6345220999992307,None,space,0.43365799999992305,None,,,,,0,59,59,59,,,,,3029.6679342999996,,,,,,,,,,,,3029.652319500001,3029.6679342999996,3029.6679342999996,3032.316122800001,,,,3032.3163798999994,3032.3318994,3032.3318994,3032.3318994,3032.631607200001,3032.7824392,,,,,down,2.6345220999992307,None,space,0.43365799999992305,None,,,,,,,,,,,,P125,001,2024-11-21_09h22.46.710,posner_endo_new1,2024.2.4,60.05937469808767,2024-11-21 09h22.52.626419 +0000,
,,,,,,,,,,,,,,,,,,,,,,,,,,,,,,,,,,,,,,,,,,,,,,,,,,,,,,,,,,3032.782548699999,3032.7981249999993,3032.7981249999993,3092.7707169999994,None,,,,,,,P125,001,2024-11-21_09h22.46.710,posner_endo_new1,2024.2.4,60.05937469808767,2024-11-21 09h22.52.626419 +0000,
,,,,,,,,,,,,,,,,,,,,,,,,,,,,,,,,3092.7707697999995,3092.7867709,3095.7837591000007,,,,,,,,,,,,,,,,,,,,,,,,,,,,,,,,,,,P125,001,2024-11-21_09h22.46.710,posner_endo_new1,2024.2.4,60.05937469808767,2024-11-21 09h22.52.626419 +0000,
0.005,0.31,0,0,0,down,20.811229300001287,None,space,0.4509527000009257,None,,,,,,,,,0,0,0,0,3095.8030357000007,,,,,,,,,,,,3095.7922980000003,3095.8030357000007,3095.8030357000007,3116.6298767000008,,,,3116.6301612000007,3116.645542099999,3116.645542099999,3116.645542099999,3116.9453452,3117.1126815999996,,,,,,,,,,,,,,,,down,20.811229300001287,None,space,0.4509527000009257,None,P125,001,2024-11-21_09h22.46.710,posner_endo_new1,2024.2.4,60.05937469808767,2024-11-21 09h22.52.626419 +0000,
-0.31,0.005,1,1,0,up,2.278546700001243,None,space,0.37617779999891354,None,,,,,,,,,0,1,1,1,3117.1284570999997,,,,,,,,,,,,3117.1128582,3117.1284570999997,3117.1284570999997,3119.4104167000005,,,,3119.4106787,3119.4261731000006,3119.4261731000006,3119.4261731000006,3119.7259658000003,3119.8100735000007,,,,,,,,,,,,,,,,up,2.278546700001243,None,space,0.37617779999891354,None,P125,001,2024-11-21_09h22.46.710,posner_endo_new1,2024.2.4,60.05937469808767,2024-11-21 09h22.52.626419 +0000,
0.005,-0.31,2,2,0,down,2.0682822999988275,None,space,0.33275289999983215,None,,,,,,,,,0,2,2,2,3119.825737699999,,,,,,,,,,,,3119.8102433000004,3119.825737699999,3119.825737699999,3121.9077856000004,,,,3121.9080441999995,3121.9237331000004,3121.9237331000004,3121.9237331000004,3122.2233779,3122.2573883999994,,,,,,,,,,,,,,,,down,2.0682822999988275,None,space,0.33275289999983215,None,P125,001,2024-11-21_09h22.46.710,posner_endo_new1,2024.2.4,60.05937469808767,2024-11-21 09h22.52.626419 +0000,
0.31,0.005,3,3,0,up,2.2135465999999724,None,space,0.266883999998754,None,,,,,,,,,0,3,3,3,3122.2732835000006,,,,,,,,,,,,3122.2575663000007,3122.2732835000006,3122.2732835000006,3124.4884992000007,,,,3124.4887615999996,3124.5044118999995,3124.5044118999995,3124.5044118999995,3124.8040244000003,3124.7880239000006,,,,,,,,,,,,,,,,up,2.2135465999999724,None,space,0.266883999998754,None,P125,001,2024-11-21_09h22.46.710,posner_endo_new1,2024.2.4,60.05937469808767,2024-11-21 09h22.52.626419 +0000,
0.005,0.31,4,4,0,down,1.8510932000008324,None,space,0.30408990000069025,None,,,,,,,,,0,4,4,4,3124.8040244000003,,,,,,,,,,,,3124.7881925,3124.8040244000003,3124.8040244000003,3126.6694919,,,,3126.669754299999,3126.685385500001,3126.685385500001,3126.685385500001,3126.9851008000005,3127.0024508999995,,,,,,,,,,,,,,,,down,1.8510932000008324,None,space,0.30408990000069025,None,P125,001,2024-11-21_09h22.46.710,posner_endo_new1,2024.2.4,60.05937469808767,2024-11-21 09h22.52.626419 +0000,
0.005,-0.31,5,5,0,up,5.036054899999726,None,space,0.4083921999990707,None,,,,,,,,,0,5,5,5,3127.0185373999993,,,,,,,,,,,,3127.0026189,3127.0185373999993,3127.0185373999993,3132.064172300001,,,,3132.0644353000007,3132.0798505000002,3132.0798505000002,3132.0798505000002,3132.3795131999996,3132.4969032999998,,,,,,,,,,,,,,,,up,5.036054899999726,None,space,0.4083921999990707,None,P125,001,2024-11-21_09h22.46.710,posner_endo_new1,2024.2.4,60.05937469808767,2024-11-21 09h22.52.626419 +0000,
-0.31,0.005,6,6,0,down,2.645949500001734,None,space,0.33040710000022955,None,,,,,,,,,0,6,6,6,3132.5126538000004,,,,,,,,,,,,3132.497070900001,3132.5126538000004,3132.5126538000004,3135.1607477,,,,3135.161016100001,3135.1765988000006,3135.1765988000006,3135.1765988000006,3135.4762859,3135.5105846000006,,,,,,,,,,,,,,,,down,2.645949500001734,None,space,0.33040710000022955,None,P125,001,2024-11-21_09h22.46.710,posner_endo_new1,2024.2.4,60.05937469808767,2024-11-21 09h22.52.626419 +0000,
0.005,0.31,7,7,0,up,1.392255099999602,None,space,0.4865472999990743,None,,,,,,,,,0,7,7,7,3135.5264119999993,,,,,,,,,,,,3135.5107537000004,3135.5264119999993,3135.5264119999993,3136.9256597000003,,,,3136.9259253,3136.9415076000005,3136.9415076000005,3136.9415076000005,3137.2413321000004,3137.4417818,,,,,,,,,,,,,,,,up,1.392255099999602,None,space,0.4865472999990743,None,P125,001,2024-11-21_09h22.46.710,posner_endo_new1,2024.2.4,60.05937469808767,2024-11-21 09h22.52.626419 +0000,
0.31,0.005,8,8,0,down,2.3248661999987235,None,space,0.3483362999995734,None,,,,,,,,,0,8,8,8,3137.4576338999996,,,,,,,,,,,,3137.4419536999994,3137.4576338999996,3137.4576338999996,3139.7892752999996,,,,3139.789535,3139.805279,3139.805279,3139.805279,3140.1049298,3140.1558162,,,,,,,,,,,,,,,,down,2.3248661999987235,None,space,0.3483362999995734,None,P125,001,2024-11-21_09h22.46.710,posner_endo_new1,2024.2.4,60.05937469808767,2024-11-21 09h22.52.626419 +0000,
10,0.005,9,9,0,up,6.466761499999848,None,None,,,,,,,,,,,0,9,9,9,3140.1716159999996,,,,,,,,,,,,3140.1559842999995,3140.1716159999996,3140.1716159999996,3146.6490601000005,,,,3146.6493217000007,3146.6647697999997,3146.6647697999997,3146.6647697999997,3146.9645247999997,3149.6618493000005,,,,3147.6640812999995,,,,,,,,,,,,up,6.466761499999848,None,None,,,P125,001,2024-11-21_09h22.46.710,posner_endo_new1,2024.2.4,60.05937469808767,2024-11-21 09h22.52.626419 +0000,
0.31,0.005,10,10,0,down,1.295790100000886,None,space,0.34280260000014096,None,,,,,,,,,0,10,10,10,3149.678617400001,,,,,,,,,,,,3149.6620275000005,3149.678617400001,3149.678617400001,3150.9780370000008,,,,3150.9782950999997,3150.9937506999995,3150.9937506999995,3150.9937506999995,3151.2935171999998,3151.3444280999993,,,,,,,,,,,,,,,,down,1.295790100000886,None,space,0.34280260000014096,None,P125,001,2024-11-21_09h22.46.710,posner_endo_new1,2024.2.4,60.05937469808767,2024-11-21 09h22.52.626419 +0000,
0.005,0.31,11,11,0,up,2.6222957000009046,None,space,0.41064120000010007,None,,,,,,,,,0,11,11,11,3151.3600117999995,,,,,,,,,,,,3151.3445942,3151.3600117999995,3151.3600117999995,3153.9914260000005,,,,3153.9916835000004,3154.0074363000003,3154.0074363000003,3154.0074363000003,3154.3071521,3154.4246024999993,,,,,,,,,,,,,,,,up,2.6222957000009046,None,space,0.41064120000010007,None,P125,001,2024-11-21_09h22.46.710,posner_endo_new1,2024.2.4,60.05937469808767,2024-11-21 09h22.52.626419 +0000,
10,0.005,12,12,0,down,3.285814400000163,None,None,,,,,,,,,,,0,12,12,12,3154.4402699,,,,,,,,,,,,3154.4247699999996,3154.4402699,3154.4402699,3157.7376232999995,,,,3157.7378828,3157.7535704,3157.7535704,3157.7535704,3158.0533066000007,3160.7506427999997,,,,3158.7691926000007,,,,,,,,,,,,down,3.285814400000163,None,None,,,P125,001,2024-11-21_09h22.46.710,posner_endo_new1,2024.2.4,60.05937469808767,2024-11-21 09h22.52.626419 +0000,
-0.31,0.005,13,13,0,down,1.8468649000005826,None,space,0.4131130999994639,None,,,,,,,,,0,13,13,13,3160.7672464000007,,,,,,,,,,,,3160.7508108,3160.7672464000007,3160.7672464000007,3162.6159231,,,,3162.616173799999,3162.6320644999996,3162.6320644999996,3162.6320644999996,3162.9316638,3163.048897299999,,,,,,,,,,,,,,,,down,1.8468649000005826,None,space,0.4131130999994639,None,P125,001,2024-11-21_09h22.46.710,posner_endo_new1,2024.2.4,60.05937469808767,2024-11-21 09h22.52.626419 +0000,
0.31,0.005,14,14,0,up,2.0132384999997157,None,space,0.35776330000044254,None,,,,,,,,,0,14,14,14,3163.0648653000007,,,,,,,,,,,,3163.049056,3163.0648653000007,3163.0648653000007,3165.0802655999996,,,,3165.0805239,3165.0959972,3165.0959972,3165.0959972,3165.395767599999,3165.4631059999992,,,,,,,,,,,,,,,,up,2.0132384999997157,None,space,0.35776330000044254,None,P125,001,2024-11-21_09h22.46.710,posner_endo_new1,2024.2.4,60.05937469808767,2024-11-21 09h22.52.626419 +0000,
0.005,-0.31,15,15,0,down,1.6471356000001833,None,space,0.9108149000003323,None,,,,,,,,,0,15,15,15,3165.4789870999994,,,,,,,,,,,,3165.4632741999994,3165.4789870999994,3165.4789870999994,3167.1282745999997,,,,3167.1285487999994,3167.1439408000006,3167.1439408000006,3167.1439408000006,3167.4437593000002,3168.0605051000002,,,,,,,,,,,,,,,,down,1.6471356000001833,None,space,0.9108149000003323,None,P125,001,2024-11-21_09h22.46.710,posner_endo_new1,2024.2.4,60.05937469808767,2024-11-21 09h22.52.626419 +0000,
0.31,0.005,16,16,0,up,2.3942035000000033,None,space,0.34185919999981706,None,,,,,,,,,0,16,16,16,3168.076396300001,,,,,,,,,,,,3168.0606709999993,3168.076396300001,3168.076396300001,3170.4754156,,,,3170.4760091999997,3170.4906448,3170.4906448,3170.4906448,3170.7901213999994,3170.8413315,,,,,,,,,,,,,,,,up,2.3942035000000033,None,space,0.34185919999981706,None,P125,001,2024-11-21_09h22.46.710,posner_endo_new1,2024.2.4,60.05937469808767,2024-11-21 09h22.52.626419 +0000,
0.31,0.005,17,17,0,down,1.9500881999992998,None,space,0.33670709999933024,None,,,,,,,,,0,17,17,17,3170.8567681000004,,,,,,,,,,,,3170.8416147000007,3170.8567681000004,3170.8567681000004,3172.8225901999995,,,,3172.8229976000002,3172.8380261,3172.8380261,3172.8380261,3173.1377577000003,3173.1888514,,,,,,,,,,,,,,,,down,1.9500881999992998,None,space,0.33670709999933024,None,P125,001,2024-11-21_09h22.46.710,posner_endo_new1,2024.2.4,60.05937469808767,2024-11-21 09h22.52.626419 +0000,
0.005,-0.31,18,18,0,up,1.5058972999995603,None,space,0.30394039999919187,None,,,,,,,,,0,18,18,18,3173.204347499999,,,,,,,,,,,,3173.1891333000003,3173.204347499999,3173.204347499999,3174.7207197999996,,,,3174.721136,3174.736123999999,3174.736123999999,3174.736123999999,3175.0359387999997,3175.053881,,,,,,,,,,,,,,,,up,1.5058972999995603,None,space,0.30394039999919187,None,P125,001,2024-11-21_09h22.46.710,posner_endo_new1,2024.2.4,60.05937469808767,2024-11-21 09h22.52.626419 +0000,
0.005,-0.31,19,19,0,down,1.8491322999998374,None,space,0.2786377000011271,None,,,,,,,,,0,19,19,19,3175.0692968000003,,,,,,,,,,,,3175.0541632000004,3175.0692968000003,3175.0692968000003,3176.9350483,,,,3176.9354581000007,3176.9507689,3176.9507689,3176.9507689,3177.2503629000003,3177.2351521,,,,,,,,,,,,,,,,down,1.8491322999998374,None,space,0.2786377000011271,None,P125,001,2024-11-21_09h22.46.710,posner_endo_new1,2024.2.4,60.05937469808767,2024-11-21 09h22.52.626419 +0000,
10,0.005,20,20,0,up,3.339698599998883,None,None,,,,,,,,,,,0,20,20,20,3177.2503629000003,,,,,,,,,,,,3177.2354343000006,3177.2503629000003,3177.2503629000003,3180.5977583000004,,,,3180.598047199999,3180.613566599999,3180.613566599999,3180.613566599999,3180.9129285,3183.6105614999997,,,,3181.6289873000005,,,,,,,,,,,,up,3.339698599998883,None,None,,,P125,001,2024-11-21_09h22.46.710,posner_endo_new1,2024.2.4,60.05937469808767,2024-11-21 09h22.52.626419 +0000,
0.005,-0.31,21,21,0,up,2.676080600000205,None,space,0.29292480000003707,None,,,,,,,,,0,21,21,21,3183.6271779,,,,,,,,,,,,3183.6107446999995,3183.6271779,3183.6271779,3186.3084251,,,,3186.3087202999995,3186.3243349000004,3186.3243349000004,3186.3243349000004,3186.6240139,3186.6249439999992,,,,,,,,,,,,,,,,up,2.676080600000205,None,space,0.29292480000003707,None,P125,001,2024-11-21_09h22.46.710,posner_endo_new1,2024.2.4,60.05937469808767,2024-11-21 09h22.52.626419 +0000,
0.005,0.31,22,22,0,down,2.1184236999997665,None,space,0.4111271999991004,None,,,,,,,,,0,22,22,22,3186.6404112,,,,,,,,,,,,3186.6251293999994,3186.6404112,3186.6404112,3188.7725028999994,,,,3188.7727921999995,3188.7882408999994,3188.7882408999994,3188.7882408999994,3189.0880835000007,3189.2056775,,,,,,,,,,,,,,,,down,2.1184236999997665,None,space,0.4111271999991004,None,P125,001,2024-11-21_09h22.46.710,posner_endo_new1,2024.2.4,60.05937469808767,2024-11-21 09h22.52.626419 +0000,
0.31,0.005,23,23,0,up,0.745085200000176,None,space,0.6459885999993276,None,,,,,,,,,0,23,23,23,3189.2212842999998,,,,,,,,,,,,3189.2058694000007,3189.2212842999998,3189.2212842999998,3189.9716515,,,,3189.971939700001,3189.9870026999997,3189.9870026999997,3189.9870026999997,3190.2869584,3190.6375203999996,,,,,,,,,,,,,,,,up,0.745085200000176,None,space,0.6459885999993276,None,P125,001,2024-11-21_09h22.46.710,posner_endo_new1,2024.2.4,60.05937469808767,2024-11-21 09h22.52.626419 +0000,
-0.31,0.005,24,24,0,down,4.913680800000293,None,space,0.3541754999987461,None,,,,,,,,,0,24,24,24,3190.6530724000004,,,,,,,,,,,,3190.6377097000004,3190.6530724000004,3190.6530724000004,3195.5823844999995,,,,3195.5826718000008,3195.5980156000005,3195.5980156000005,3195.5980156000005,3195.8976003999996,3195.965243299999,,,,,,,,,,,,,,,,down,4.913680800000293,None,space,0.3541754999987461,None,P125,001,2024-11-21_09h22.46.710,posner_endo_new1,2024.2.4,60.05937469808767,2024-11-21 09h22.52.626419 +0000,
10,0.005,25,25,0,up,2.0974061000015354,None,None,,,,,,,,,,,0,25,25,25,3195.9810794000005,,,,,,,,,,,,3195.9654391000004,3195.9810794000005,3195.9810794000005,3198.0798283999993,,,,3198.0801169999995,3198.0954438999997,3198.0954438999997,3198.0954438999997,3198.3952394000007,3201.0925253999994,,,,3199.094424000001,,,,,,,,,,,,up,2.0974061000015354,None,None,,,P125,001,2024-11-21_09h22.46.710,posner_endo_new1,2024.2.4,60.05937469808767,2024-11-21 09h22.52.626419 +0000,
0.005,0.31,26,26,0,down,1.3938610999994125,None,space,0.41766869999992196,None,,,,,,,,,0,26,26,26,3201.1089766999994,,,,,,,,,,,,3201.0927104,3201.1089766999994,3201.1089766999994,3202.5086145999994,,,,3202.508910299999,3202.524312400001,3202.524312400001,3202.524312400001,3202.8240695999993,3202.9579314000002,,,,,,,,,,,,,,,,down,1.3938610999994125,None,space,0.41766869999992196,None,P125,001,2024-11-21_09h22.46.710,posner_endo_new1,2024.2.4,60.05937469808767,2024-11-21 09h22.52.626419 +0000,
0.31,0.005,27,27,0,up,1.768306099998881,None,space,0.3208451000009518,None,,,,,,,,,0,27,27,27,3202.9739327000007,,,,,,,,,,,,3202.9581266000005,3202.9739327000007,3202.9739327000007,3204.7561244999997,,,,3204.7564141000003,3204.7720393,3204.7720393,3204.7720393,3205.0717084000007,3205.1057793,,,,,,,,,,,,,,,,up,1.768306099998881,None,space,0.3208451000009518,None,P125,001,2024-11-21_09h22.46.710,posner_endo_new1,2024.2.4,60.05937469808767,2024-11-21 09h22.52.626419 +0000,
0.005,0.31,28,28,0,down,2.4051947000007203,None,space,0.3567634999999427,None,,,,,,,,,0,28,28,28,3205.1216368000005,,,,,,,,,,,,3205.1059805000004,3205.1216368000005,3205.1216368000005,3207.536680200001,,,,3207.5369739,3207.5524367,3207.5524367,3207.5524367,3207.852234600001,3207.9196496999994,,,,,,,,,,,,,,,,down,2.4051947000007203,None,space,0.3567634999999427,None,P125,001,2024-11-21_09h22.46.710,posner_endo_new1,2024.2.4,60.05937469808767,2024-11-21 09h22.52.626419 +0000,
10,0.005,29,29,0,up,1.5675647000007302,None,None,,,,,,,,,,,0,29,29,29,3207.9352395000005,,,,,,,,,,,,3207.9198400000005,3207.9352395000005,3207.9352395000005,3209.5178218,,,,3209.5181205999997,3209.533197500001,3209.533197500001,3209.533197500001,3209.8333655999995,3212.5309202999997,,,,3210.532722,,,,,,,,,,,,up,1.5675647000007302,None,None,,,P125,001,2024-11-21_09h22.46.710,posner_endo_new1,2024.2.4,60.05937469808767,2024-11-21 09h22.52.626419 +0000,
0.005,-0.31,30,30,0,up,1.1632759000003716,None,space,0.42689679999966756,None,,,,,,,,,0,30,30,30,3212.5472950999992,,,,,,,,,,,,3212.531108699999,3212.5472950999992,3212.5472950999992,3213.7138188999998,,,,3213.7141059999994,3213.7294891,3213.7294891,3213.7294891,3214.0292659000006,3214.1634293999996,,,,,,,,,,,,,,,,up,1.1632759000003716,None,space,0.42689679999966756,None,P125,001,2024-11-21_09h22.46.710,posner_endo_new1,2024.2.4,60.05937469808767,2024-11-21 09h22.52.626419 +0000,
0.31,0.005,31,31,0,down,2.027385700001105,None,space,0.3393097000007401,None,,,,,,,,,0,31,31,31,3214.1789888000003,,,,,,,,,,,,3214.1636185999996,3214.1789888000003,3214.1789888000003,3216.211161699999,,,,3216.2114741000005,3216.226966099999,3216.226966099999,3216.226966099999,3216.5267165000005,3216.577397700001,,,,,,,,,,,,,,,,down,2.027385700001105,None,space,0.3393097000007401,None,P125,001,2024-11-21_09h22.46.710,posner_endo_new1,2024.2.4,60.05937469808767,2024-11-21 09h22.52.626419 +0000,
10,0.005,32,32,0,up,2.3574521000009554,None,None,,,,,,,,,,,0,32,32,32,3216.5933974,,,,,,,,,,,,3216.5775859000005,3216.5933974,3216.5933974,3218.9583970999993,,,,3218.9586873999997,3218.974148200001,3218.974148200001,3218.974148200001,3219.2737565000007,3221.9711669999997,,,,3219.9898558999994,,,,,,,,,,,,up,2.3574521000009554,None,None,,,P125,001,2024-11-21_09h22.46.710,posner_endo_new1,2024.2.4,60.05937469808767,2024-11-21 09h22.52.626419 +0000,
-0.31,0.005,33,33,0,up,2.0590154999990773,None,space,0.38449469999977737,None,,,,,,,,,0,33,33,33,3221.9876335999998,,,,,,,,,,,,3221.9713544999995,3221.9876335999998,3221.9876335999998,3224.053135,,,,3224.0534303000004,3224.0688412,3224.0688412,3224.0688412,3224.3686958,3224.4695135,,,,,,,,,,,,,,,,up,2.0590154999990773,None,space,0.38449469999977737,None,P125,001,2024-11-21_09h22.46.710,posner_endo_new1,2024.2.4,60.05937469808767,2024-11-21 09h22.52.626419 +0000,
10,0.005,34,34,0,down,2.4492401000006794,None,None,,,,,,,,,,,0,34,34,34,3224.485198799999,,,,,,,,,,,,3224.469703500001,3224.485198799999,3224.485198799999,3226.9504221999996,,,,3226.950715499999,3226.965952299999,3226.965952299999,3226.965952299999,3227.2655541000004,3229.9631434000003,,,,3227.965011800001,,,,,,,,,,,,down,2.4492401000006794,None,None,,,P125,001,2024-11-21_09h22.46.710,posner_endo_new1,2024.2.4,60.05937469808767,2024-11-21 09h22.52.626419 +0000,
0.005,-0.31,35,35,0,down,0.7069444000007934,None,space,0.4178160999999818,None,,,,,,,,,0,35,35,35,3229.9795861000002,,,,,,,,,,,,3229.9633374999994,3229.9795861000002,3229.9795861000002,3230.696417699999,,,,3230.6967114,3230.7120245999995,3230.7120245999995,3230.7120245999995,3231.0118351,3231.145832,,,,,,,,,,,,,,,,down,0.7069444000007934,None,space,0.4178160999999818,None,P125,001,2024-11-21_09h22.46.710,posner_endo_new1,2024.2.4,60.05937469808767,2024-11-21 09h22.52.626419 +0000,
0.31,0.005,36,36,0,up,4.629264199998943,None,space,0.4427651000005426,None,,,,,,,,,0,36,36,36,3231.161679499999,,,,,,,,,,,,3231.1460276,3231.161679499999,3231.161679499999,3235.8077873,,,,3235.8080756,3235.8235401,3235.8235401,3235.8235401,3236.123177900001,3236.2741134000007,,,,,,,,,,,,,,,,up,4.629264199998943,None,space,0.4427651000005426,None,P125,001,2024-11-21_09h22.46.710,posner_endo_new1,2024.2.4,60.05937469808767,2024-11-21 09h22.52.626419 +0000,
10,0.005,37,37,0,down,1.5804108000011183,None,None,,,,,,,,,,,0,37,37,37,3236.2897427999997,,,,,,,,,,,,3236.2743014000007,3236.2897427999997,3236.2897427999997,3237.872529,,,,3237.8728166,3237.8880014000006,3237.8880014000006,3237.8880014000006,3238.187656100001,3240.8851503000005,,,,3238.8869735999997,,,,,,,,,,,,down,1.5804108000011183,None,None,,,P125,001,2024-11-21_09h22.46.710,posner_endo_new1,2024.2.4,60.05937469808767,2024-11-21 09h22.52.626419 +0000,
10,0.005,38,38,0,down,2.473401000001104,None,None,,,,,,,,,,,0,38,38,38,3240.9016997,,,,,,,,,,,,3240.8853333999996,3240.9016997,3240.9016997,3243.3834210000005,,,,3243.3837084999996,3243.3990883999995,3243.3990883999995,3243.3990883999995,3243.6988318000003,3246.3961158,,,,3244.414868600001,,,,,,,,,,,,down,2.473401000001104,None,None,,,P125,001,2024-11-21_09h22.46.710,posner_endo_new1,2024.2.4,60.05937469808767,2024-11-21 09h22.52.626419 +0000,
-0.31,0.005,39,39,0,up,3.089833699999872,None,space,0.3369978999999148,None,,,,,,,,,0,39,39,39,3246.4126865,,,,,,,,,,,,3246.3963002,3246.4126865,3246.4126865,3249.510423399999,,,,3249.5107148000006,3249.5260877,3249.5260877,3249.5260877,3249.825751300001,3249.8767516999997,,,,,,,,,,,,,,,,up,3.089833699999872,None,space,0.3369978999999148,None,P125,001,2024-11-21_09h22.46.710,posner_endo_new1,2024.2.4,60.05937469808767,2024-11-21 09h22.52.626419 +0000,
0.005,-0.31,40,40,0,down,1.9377236000000266,None,space,0.36671620000015537,None,,,,,,,,,0,40,40,40,3249.8923785999996,,,,,,,,,,,,3249.8769415000006,3249.8923785999996,3249.8923785999996,3251.8413399,,,,3251.8416302000005,3251.8571852999994,3251.8571852999994,3251.8571852999994,3252.1568150000003,3252.2408053,,,,,,,,,,,,,,,,down,1.9377236000000266,None,space,0.36671620000015537,None,P125,001,2024-11-21_09h22.46.710,posner_endo_new1,2024.2.4,60.05937469808767,2024-11-21 09h22.52.626419 +0000,
0.005,-0.31,41,41,0,up,4.813633400000981,None,space,0.3893364000014117,None,,,,,,,,,0,41,41,41,3252.2567987,,,,,,,,,,,,3252.2410001000007,3252.2567987,3252.2567987,3257.0860168,,,,3257.0863045000006,3257.1017364,3257.1017364,3257.1017364,3257.4014898999994,3257.5020724000005,,,,,,,,,,,,,,,,up,4.813633400000981,None,space,0.3893364000014117,None,P125,001,2024-11-21_09h22.46.710,posner_endo_new1,2024.2.4,60.05937469808767,2024-11-21 09h22.52.626419 +0000,
10,0.005,42,42,0,down,6.016652799999065,None,None,,,,,,,,,,,0,42,42,42,3257.5180015000005,,,,,,,,,,,,3257.5022701,3257.5180015000005,3257.5180015000005,3263.5459642000005,,,,3263.5462542999994,3263.5617669999992,3263.5617669999992,3263.5617669999992,3263.861412,3266.5588086000007,,,,3264.5774426000007,,,,,,,,,,,,down,6.016652799999065,None,None,,,P125,001,2024-11-21_09h22.46.710,posner_endo_new1,2024.2.4,60.05937469808767,2024-11-21 09h22.52.626419 +0000,
0.005,-0.31,43,43,0,down,4.13490290000118,None,space,0.38773159999982454,None,,,,,,,,,0,43,43,43,3266.5753741000008,,,,,,,,,,,,3266.5589947000008,3266.5753741000008,3266.5753741000008,3270.7221167000007,,,,3270.7224021,3270.7378341000003,3270.7378341000003,3270.7378341000003,3271.0375053000007,3271.1382821999996,,,,,,,,,,,,,,,,down,4.13490290000118,None,space,0.38773159999982454,None,P125,001,2024-11-21_09h22.46.710,posner_endo_new1,2024.2.4,60.05937469808767,2024-11-21 09h22.52.626419 +0000,
-0.31,0.005,44,44,0,up,2.508517300000676,None,space,0.4091263999998773,None,,,,,,,,,0,44,44,44,3271.154006500001,,,,,,,,,,,,3271.1384768000007,3271.154006500001,3271.154006500001,3273.6688453999996,,,,3273.6691327999997,3273.6847402999992,3273.6847402999992,3273.6847402999992,3273.9844369,3274.1018944000007,,,,,,,,,,,,,,,,up,2.508517300000676,None,space,0.4091263999998773,None,P125,001,2024-11-21_09h22.46.710,posner_endo_new1,2024.2.4,60.05937469808767,2024-11-21 09h22.52.626419 +0000,
10,0.005,45,45,0,down,2.6971031000011862,None,None,,,,,,,,,,,0,45,45,45,3274.117719,,,,,,,,,,,,3274.1020854,3274.117719,3274.117719,3276.8159868000002,,,,3276.8162804000003,3276.8316176000008,3276.8316176000008,3276.8316176000008,3277.1311203999994,3279.8285362000006,,,,3277.8472383000008,,,,,,,,,,,,down,2.6971031000011862,None,None,,,P125,001,2024-11-21_09h22.46.710,posner_endo_new1,2024.2.4,60.05937469808767,2024-11-21 09h22.52.626419 +0000,
0.005,0.31,46,46,0,down,2.2889977999984694,None,space,0.7274436000006972,None,,,,,,,,,0,46,46,46,3279.845058000001,,,,,,,,,,,,3279.8287218999994,3279.845058000001,3279.845058000001,3282.1439133999993,,,,3282.144207199999,3282.1593417000004,3282.1593417000004,3282.1593417000004,3282.4591273000005,3282.892705800001,,,,,,,,,,,,,,,,down,2.2889977999984694,None,space,0.7274436000006972,None,P125,001,2024-11-21_09h22.46.710,posner_endo_new1,2024.2.4,60.05937469808767,2024-11-21 09h22.52.626419 +0000,
0.005,-0.31,47,47,0,up,1.5214785000007396,None,space,0.48184409999885247,None,,,,,,,,,0,47,47,47,3282.9088040999995,,,,,,,,,,,,3282.8929000999997,3282.9088040999995,3282.9088040999995,3284.4413882999997,,,,3284.441679400001,3284.4569991999997,3284.4569991999997,3284.4569991999997,3284.7567266000005,3284.9411141,,,,,,,,,,,,,,,,up,1.5214785000007396,None,space,0.48184409999885247,None,P125,001,2024-11-21_09h22.46.710,posner_endo_new1,2024.2.4,60.05937469808767,2024-11-21 09h22.52.626419 +0000,
0.31,0.005,48,48,0,down,2.1294506000012916,None,space,0.3548670000000129,None,,,,,,,,,0,48,48,48,3284.9565449,,,,,,,,,,,,3284.9413079000005,3284.9565449,3284.9565449,3287.0887316000008,,,,3287.089026899999,3287.1042521,3287.1042521,3287.1042521,3287.4042126000004,3287.4715741,,,,,,,,,,,,,,,,down,2.1294506000012916,None,space,0.3548670000000129,None,P125,001,2024-11-21_09h22.46.710,posner_endo_new1,2024.2.4,60.05937469808767,2024-11-21 09h22.52.626419 +0000,
-0.31,0.005,49,49,0,up,1.431272200001331,None,space,0.38438739999946847,None,,,,,,,,,0,49,49,49,3287.4871760000005,,,,,,,,,,,,3287.4717648999995,3287.4871760000005,3287.4871760000005,3288.9202139999998,,,,3288.9205127000005,3288.935914399999,3288.935914399999,3288.935914399999,3289.2354546999995,3289.3362529999995,,,,,,,,,,,,,,,,up,1.431272200001331,None,space,0.38438739999946847,None,P125,001,2024-11-21_09h22.46.710,posner_endo_new1,2024.2.4,60.05937469808767,2024-11-21 09h22.52.626419 +0000,
0.005,0.31,50,50,0,down,2.0471251999988453,None,space,0.6995163999999932,None,,,,,,,,,0,50,50,50,3289.3521060000003,,,,,,,,,,,,3289.336446699999,3289.3521060000003,3289.3521060000003,3291.401009699999,,,,3291.4012989000003,3291.4165976999993,3291.4165976999993,3291.4165976999993,3291.7162900000003,3292.1170007,,,,,,,,,,,,,,,,down,2.0471251999988453,None,space,0.6995163999999932,None,P125,001,2024-11-21_09h22.46.710,posner_endo_new1,2024.2.4,60.05937469808767,2024-11-21 09h22.52.626419 +0000,
0.005,0.31,51,51,0,up,1.5615639999996347,None,space,0.34570780000103696,None,,,,,,,,,0,51,51,51,3292.1325118000004,,,,,,,,,,,,3292.1171938000007,3292.1325118000004,3292.1325118000004,3293.6986947000005,,,,3293.6989832,3293.7143058,3293.7143058,3293.7143058,3294.0140040999995,3294.0649144,,,,,,,,,,,,,,,,up,1.5615639999996347,None,space,0.34570780000103696,None,P125,001,2024-11-21_09h22.46.710,posner_endo_new1,2024.2.4,60.05937469808767,2024-11-21 09h22.52.626419 +0000,
10,0.005,52,52,0,down,1.607235600000422,None,None,,,,,,,,,,,0,52,52,52,3294.0806288999993,,,,,,,,,,,,3294.065113299999,3294.0806288999993,3294.0806288999993,3295.6965500999995,,,,3295.696841499999,3295.7122471000002,3295.7122471000002,3295.7122471000002,3296.0117432000006,3298.709378400001,,,,3296.7112094999993,,,,,,,,,,,,down,1.607235600000422,None,None,,,P125,001,2024-11-21_09h22.46.710,posner_endo_new1,2024.2.4,60.05937469808767,2024-11-21 09h22.52.626419 +0000,
-0.31,0.005,53,53,0,down,2.176646800000526,None,space,0.3560636999991402,None,,,,,,,,,0,53,53,53,3298.7258322,,,,,,,,,,,,3298.7095525999994,3298.7258322,3298.7258322,3300.9077579000004,,,,3300.9080336999996,3300.923464199999,3300.923464199999,3300.923464199999,3301.223268399999,3301.2906368999993,,,,,,,,,,,,,,,,down,2.176646800000526,None,space,0.3560636999991402,None,P125,001,2024-11-21_09h22.46.710,posner_endo_new1,2024.2.4,60.05937469808767,2024-11-21 09h22.52.626419 +0000,
10,0.005,54,54,0,up,1.9965914999993402,None,None,,,,,,,,,,,0,54,54,54,3301.3066767,,,,,,,,,,,,3301.2908203999996,3301.3066767,3301.3066767,3303.3054754999994,,,,3303.3057551,3303.3211716999995,3303.3211716999995,3303.3211716999995,3303.620858800001,3306.3182097999997,,,,3304.336716,,,,,,,,,,,,up,1.9965914999993402,None,None,,,P125,001,2024-11-21_09h22.46.710,posner_endo_new1,2024.2.4,60.05937469808767,2024-11-21 09h22.52.626419 +0000,
0.005,0.31,55,55,0,up,3.3916996000007202,None,space,0.43558739999934915,None,,,,,,,,,0,55,55,55,3306.3347460000005,,,,,,,,,,,,3306.3183960999995,3306.3347460000005,3306.3347460000005,3309.7320462000007,,,,3309.7323373,3309.7478857000006,3309.7478857000006,3309.7478857000006,3310.0474601000005,3310.1982862999994,,,,,,,,,,,,,,,,up,3.3916996000007202,None,space,0.43558739999934915,None,P125,001,2024-11-21_09h22.46.710,posner_endo_new1,2024.2.4,60.05937469808767,2024-11-21 09h22.52.626419 +0000,
0.005,-0.31,56,56,0,down,5.592026800000895,None,space,0.305013000001054,None,,,,,,,,,0,56,56,56,3310.2139967000003,,,,,,,,,,,,3310.1984773000004,3310.2139967000003,3310.2139967000003,3315.8092469000003,,,,3315.809536500001,3315.8250135,3315.8250135,3315.8250135,3316.124610499999,3316.1421236000006,,,,,,,,,,,,,,,,down,5.592026800000895,None,space,0.305013000001054,None,P125,001,2024-11-21_09h22.46.710,posner_endo_new1,2024.2.4,60.05937469808767,2024-11-21 09h22.52.626419 +0000,
0.005,0.31,57,57,0,up,2.2559403000013845,None,space,0.3130295000009937,None,,,,,,,,,0,57,57,57,3316.1579397999994,,,,,,,,,,,,3316.1423140999996,3316.1579397999994,3316.1579397999994,3318.423097000001,,,,3318.423386799999,3318.4389164999993,3318.4389164999993,3318.4389164999993,3318.7386804,3318.7564340999998,,,,,,,,,,,,,,,,up,2.2559403000013845,None,space,0.3130295000009937,None,P125,001,2024-11-21_09h22.46.710,posner_endo_new1,2024.2.4,60.05937469808767,2024-11-21 09h22.52.626419 +0000,
-0.31,0.005,58,58,0,down,4.27608230000078,None,space,0.31728499999917403,None,,,,,,,,,0,58,58,58,3318.7717625999994,,,,,,,,,,,,3318.7566241000004,3318.7717625999994,3318.7717625999994,3323.0517516,,,,3323.0520428,3323.0676005000005,3323.0676005000005,3323.0676005000005,3323.3671555,3323.4014263999998,,,,,,,,,,,,,,,,down,4.27608230000078,None,space,0.31728499999917403,None,P125,001,2024-11-21_09h22.46.710,posner_endo_new1,2024.2.4,60.05937469808767,2024-11-21 09h22.52.626419 +0000,
-0.31,0.005,59,59,0,up,5.52570630000082,None,space,0.33224450000125216,None,,,,,,,,,0,59,59,59,3323.4169397000005,,,,,,,,,,,,3323.4016183000003,3323.4169397000005,3323.4169397000005,3328.9458675000005,,,,3328.946191700001,3328.961519300001,3328.961519300001,3328.961519300001,3329.2611216999994,3329.2956555,,,,,,,,,,,,,,,,up,5.52570630000082,None,space,0.33224450000125216,None,P125,001,2024-11-21_09h22.46.710,posner_endo_new1,2024.2.4,60.05937469808767,2024-11-21 09h22.52.626419 +0000,
