target_y,target_x,thisN,thisTrialN,thisRepN,key_control2.keys,key_control2.rt,key_control2.duration,key_resp.keys,key_resp.rt,key_resp.duration,practice.thisRepN,practice.thisTrialN,practice.thisN,practice.thisIndex,session_1.thisRepN,session_1.thisTrialN,session_1.thisN,session_1.thisIndex,session_2.thisRepN,session_2.thisTrialN,session_2.thisN,session_2.thisIndex,thisRow.t,notes,instructions.started,instructions_txt.started,key_control.started,instructions.stopped,key_control.keys,key_control.rt,key_control.duration,ready.started,ready_txt.started,ready.stopped,fix.started,key_control2.started,fixation_cross.started,fix.stopped,practice.key_control2.keys,practice.key_control2.rt,practice.key_control2.duration,target.started,star.started,fixation_cross_target.started,key_resp.started,star.stopped,key_resp.stopped,target.stopped,practice.key_resp.keys,practice.key_resp.rt,practice.key_resp.duration,session_1.key_control2.keys,session_1.key_control2.rt,session_1.key_control2.duration,session_1.key_resp.keys,session_1.key_resp.rt,session_1.key_resp.duration,break_2.started,text.started,key_control3.started,break_2.stopped,key_control3.keys,session_2.key_control2.keys,session_2.key_control2.rt,session_2.key_control2.duration,session_2.key_resp.keys,session_2.key_resp.rt,session_2.key_resp.duration,participant,session,date,expName,psychopyVersion,frameRate,expStart,
,,,,,,,,,,,,,,,,,,,,,,,,,0.007390599999780534,0.021541600001000916,0.021541600001000916,2640.0356764000007,up,2640.0073493,None,,,,,,,,,,,,,,,,,,,,,,,,,,,,,,,,,,,,,,P126,001,2024-11-21_10h25.46.650,posner_endo_new1,2024.2.4,60.124192532623944,2024-11-21 10h25.54.089071 +0000,
,,,,,,,,,,,,,,,,,,,,,,,,,,,,,,,,2640.035729200001,2640.0489562000002,2643.0454864000003,,,,,,,,,,,,,,,,,,,,,,,,,,,,,,,,,,,P126,001,2024-11-21_10h25.46.650,posner_endo_new1,2024.2.4,60.124192532623944,2024-11-21 10h25.54.089071 +0000,
10,0.005,0,0,0,down,15.060056900001655,None,None,,,0,0,0,4,,,,,,,,,2643.0649054999994,,,,,,,,,,,,2643.052526900001,2643.0649054999994,2643.0649054999994,2658.1308243000003,down,15.060056900001655,None,2658.1311086000005,2658.1468674000007,2658.1468674000007,2658.1468674000007,2658.446522,2659.1457926000003,2661.1439367000003,None,,,,,,,,,,,,,,,,,,,,P126,001,2024-11-21_10h25.46.650,posner_endo_new1,2024.2.4,60.124192532623944,2024-11-21 10h25.54.089071 +0000,
0.31,0.005,1,1,0,up,0.005076800000097137,None,space,0.5460990000010497,None,0,1,1,1,,,,,,,,,2661.1602497000003,,,,,,,,,,,,2661.1440953,2661.1602497000003,2661.1602497000003,2661.1776773,up,0.005076800000097137,None,2661.1779243,2661.193694400001,2661.193694400001,2661.193694400001,2661.493365800001,,2661.7438918000007,space,0.5460990000010497,None,,,,,,,,,,,,,,,,,,P126,001,2024-11-21_10h25.46.650,posner_endo_new1,2024.2.4,60.124192532623944,2024-11-21 10h25.54.089071 +0000,
0.31,0.005,2,2,0,down,2.206076899999971,None,space,0.4383632999997644,None,0,2,2,3,,,,,,,,,2661.7597007000004,,,,,,,,,,,,2661.7440528000006,2661.7597007000004,2661.7597007000004,2663.9749279999996,down,2.206076899999971,None,2663.9751789,2663.991165700001,2663.991165700001,2663.991165700001,2664.2904185000007,,2664.4410270000008,space,0.4383632999997644,None,,,,,,,,,,,,,,,,,,P126,001,2024-11-21_10h25.46.650,posner_endo_new1,2024.2.4,60.124192532623944,2024-11-21 10h25.54.089071 +0000,
-0.31,0.005,3,3,0,up,1.7159991999997146,None,space,0.3800654000006034,None,0,3,3,0,,,,,,,,,2664.456988400001,,,,,,,,,,,,2664.4411868999996,2664.456988400001,2664.456988400001,2666.1892743000008,up,1.7159991999997146,None,2666.189528500001,2666.205146100001,2666.205146100001,2666.205146100001,2666.5048399999996,,2666.5890455999997,space,0.3800654000006034,None,,,,,,,,,,,,,,,,,,P126,001,2024-11-21_10h25.46.650,posner_endo_new1,2024.2.4,60.124192532623944,2024-11-21 10h25.54.089071 +0000,
0.005,-0.31,4,4,0,down,1.8084273000004032,None,space,0.30628579999938665,None,0,4,4,5,,,,,,,,,2666.6047951,,,,,,,,,,,,2666.5892163000008,2666.6047951,2666.6047951,2668.4203099000006,down,1.8084273000004032,None,2668.420559600001,2668.4362239,2668.4362239,2668.4362239,2668.7359562,,2668.7533581000007,space,0.30628579999938665,None,,,,,,,,,,,,,,,,,,P126,001,2024-11-21_10h25.46.650,posner_endo_new1,2024.2.4,60.124192532623944,2024-11-21 10h25.54.089071 +0000,
0.005,0.31,5,5,0,up,1.9718751000000339,None,space,0.4296961999989435,None,0,5,5,8,,,,,,,,,2668.7693053000003,,,,,,,,,,,,2668.7535152,2668.7693053000003,2668.7693053000003,2670.7513137000005,up,1.9718751000000339,None,2670.751563400001,2670.7671701,2670.7671701,2670.7671701,2671.0669457000004,,2671.201086000001,space,0.4296961999989435,None,,,,,,,,,,,,,,,,,,P126,001,2024-11-21_10h25.46.650,posner_endo_new1,2024.2.4,60.124192532623944,2024-11-21 10h25.54.089071 +0000,
0.005,10,6,6,0,down,2.3403956000001926,None,None,,,0,6,6,9,,,,,,,,,2671.2167260000006,,,,,,,,,,,,2671.2012445,2671.2167260000006,2671.2167260000006,2673.565232000001,down,2.3403956000001926,None,2673.5654806000002,2673.5808720000005,2673.5808720000005,2673.5808720000005,2673.880655000001,2674.5799716,2676.577938300001,None,,,,,,,,,,,,,,,,,,,,P126,001,2024-11-21_10h25.46.650,posner_endo_new1,2024.2.4,60.124192532623944,2024-11-21 10h25.54.089071 +0000,
0.005,-0.31,7,7,0,up,0.8032541000011406,None,space,0.42778139999973064,None,0,7,7,7,,,,,,,,,2676.5944901000003,,,,,,,,,,,,2676.5780964999994,2676.5944901000003,2676.5944901000003,2677.4111345,up,0.8032541000011406,None,2677.4113835000007,2677.427114100001,2677.427114100001,2677.427114100001,2677.726736800001,,2677.8606653999996,space,0.42778139999973064,None,,,,,,,,,,,,,,,,,,P126,001,2024-11-21_10h25.46.650,posner_endo_new1,2024.2.4,60.124192532623944,2024-11-21 10h25.54.089071 +0000,
0.005,0.31,8,8,0,down,2.152595100000326,None,space,0.37596900000062305,None,0,8,8,6,,,,,,,,,2677.8764713,,,,,,,,,,,,2677.8608234000003,2677.8764713,2677.8764713,2680.041750100001,down,2.152595100000326,None,2680.0420013000003,2680.0577150999998,2680.0577150999998,2680.0577150999998,2680.3572671,,2680.4415898000007,space,0.37596900000062305,None,,,,,,,,,,,,,,,,,,P126,001,2024-11-21_10h25.46.650,posner_endo_new1,2024.2.4,60.124192532623944,2024-11-21 10h25.54.089071 +0000,
-0.31,0.005,9,9,0,up,1.9559571999998298,None,space,0.3111038000006374,None,0,9,9,2,,,,,,,,,2680.4571515999996,,,,,,,,,,,,2680.4417563999996,2680.4571515999996,2680.4571515999996,2682.4228065999996,up,1.9559571999998298,None,2682.4230568000003,2682.4383872,2682.4383872,2682.4383872,2682.738231000001,,2682.7557196,space,0.3111038000006374,None,,,,,,,,,,,,,,,,,,P126,001,2024-11-21_10h25.46.650,posner_endo_new1,2024.2.4,60.124192532623944,2024-11-21 10h25.54.089071 +0000,
,,,,,,,,,,,,,,,,,,,,,,,,,,,,,,,,2682.7558288,2682.771651700001,2685.7685820000006,,,,,,,,,,,,,,,,,,,,,,,,,,,,,,,,,,,P126,001,2024-11-21_10h25.46.650,posner_endo_new1,2024.2.4,60.124192532623944,2024-11-21 10h25.54.089071 +0000,
-0.31,0.005,0,0,0,down,17.322805800000424,None,space,0.49959080000007816,None,,,,,0,0,0,0,,,,,2685.7876517000004,,,,,,,,,,,,2685.7770339,2685.7876517000004,2685.7876517000004,2703.1181307000006,,,,2703.118395700001,2703.133993700001,2703.133993700001,2703.133993700001,2703.4337065,,2703.6344788000006,,,,down,17.322805800000424,None,space,0.49959080000007816,None,,,,,,,,,,,,P126,001,2024-11-21_10h25.46.650,posner_endo_new1,2024.2.4,60.124192532623944,2024-11-21 10h25.54.089071 +0000,
0.005,0.31,1,1,0,up,2.0430670000005193,None,space,0.38184259999979986,None,,,,,0,1,1,1,,,,,2703.650147600001,,,,,,,,,,,,2703.6346538,2703.650147600001,2703.650147600001,2705.6990055999995,,,,2705.6992689,2705.714862500001,2705.714862500001,2705.714862500001,2706.0142687999996,,2706.0986030000004,,,,up,2.0430670000005193,None,space,0.38184259999979986,None,,,,,,,,,,,,P126,001,2024-11-21_10h25.46.650,posner_endo_new1,2024.2.4,60.124192532623944,2024-11-21 10h25.54.089071 +0000,
0.31,0.005,2,2,0,down,1.747453800000585,None,space,0.33129530000041996,None,,,,,0,2,2,2,,,,,2706.1142483000003,,,,,,,,,,,,2706.0987717999997,2706.1142483000003,2706.1142483000003,2707.8634215,,,,2707.863676000001,2707.8792195999995,2707.8792195999995,2707.8792195999995,2708.178800900001,,2708.2129490999996,,,,down,1.747453800000585,None,space,0.33129530000041996,None,,,,,,,,,,,,P126,001,2024-11-21_10h25.46.650,posner_endo_new1,2024.2.4,60.124192532623944,2024-11-21 10h25.54.089071 +0000,
0.31,0.005,3,3,0,up,1.9040820999998687,None,space,0.364985300000626,None,,,,,0,3,3,3,,,,,2708.2287218,,,,,,,,,,,,2708.213117200001,2708.2287218,2708.2287218,2710.1442382000005,,,,2710.1444899,2710.1602378999996,2710.1602378999996,2710.1602378999996,2710.4599734000003,,2710.527434400001,,,,up,1.9040820999998687,None,space,0.364985300000626,None,,,,,,,,,,,,P126,001,2024-11-21_10h25.46.650,posner_endo_new1,2024.2.4,60.124192532623944,2024-11-21 10h25.54.089071 +0000,
-0.31,0.005,4,4,0,down,2.334237999999459,None,space,0.2665037000006123,None,,,,,0,4,4,4,,,,,2710.5431633999997,,,,,,,,,,,,2710.527601400001,2710.5431633999997,2710.5431633999997,2712.8915971000006,,,,2712.891848200001,2712.907292,2712.907292,2712.907292,,,2713.1746975999995,,,,down,2.334237999999459,None,space,0.2665037000006123,None,,,,,,,,,,,,P126,001,2024-11-21_10h25.46.650,posner_endo_new1,2024.2.4,60.124192532623944,2024-11-21 10h25.54.089071 +0000,
0.005,-0.31,5,5,0,up,2.3193389999996725,None,space,0.2870849000009912,None,,,,,0,5,5,5,,,,,2713.190353400001,,,,,,,,,,,,2713.1748750000006,2713.190353400001,2713.190353400001,2715.5221779000003,,,,2715.5224294,2715.5380669000006,2715.5380669000006,2715.5380669000006,2715.8376534,,2715.838492500001,,,,up,2.3193389999996725,None,space,0.2870849000009912,None,,,,,,,,,,,,P126,001,2024-11-21_10h25.46.650,posner_endo_new1,2024.2.4,60.124192532623944,2024-11-21 10h25.54.089071 +0000,
0.005,-0.31,6,6,0,down,2.158242800000153,None,space,0.3181912999989436,None,,,,,0,6,6,6,,,,,2715.8544523,,,,,,,,,,,,2715.8386567,2715.8544523,2715.8544523,2718.0194205000007,,,,2718.0196811000005,2718.035412700001,2718.035412700001,2718.035412700001,2718.3350434000004,,2718.369227000001,,,,down,2.158242800000153,None,space,0.3181912999989436,None,,,,,,,,,,,,P126,001,2024-11-21_10h25.46.650,posner_endo_new1,2024.2.4,60.124192532623944,2024-11-21 10h25.54.089071 +0000,
10,0.005,7,7,0,up,2.2685209999999643,None,None,,,,,,,0,7,7,7,,,,,2718.3849472,,,,,,,,,,,,2718.3693937000007,2718.3849472,2718.3849472,2720.6669249000006,,,,2720.667174600001,2720.6827410999995,2720.6827410999995,2720.6827410999995,2720.982464500001,2721.6816473,2723.679777200001,,,,up,2.2685209999999643,None,None,,,,,,,,,,,,,,P126,001,2024-11-21_10h25.46.650,posner_endo_new1,2024.2.4,60.124192532623944,2024-11-21 10h25.54.089071 +0000,
-0.31,0.005,8,8,0,up,2.74109000000135,None,space,0.3476410000002943,None,,,,,0,8,8,8,,,,,2723.696209400001,,,,,,,,,,,,2723.6799427999995,2723.696209400001,2723.696209400001,2726.444124400001,,,,2726.444377400001,2726.4601963000005,2726.4601963000005,2726.4601963000005,2726.7597074999994,,2726.8106391,,,,up,2.74109000000135,None,space,0.3476410000002943,None,,,,,,,,,,,,P126,001,2024-11-21_10h25.46.650,posner_endo_new1,2024.2.4,60.124192532623944,2024-11-21 10h25.54.089071 +0000,
0.005,0.31,9,9,0,down,2.226687899999888,None,space,0.3719048000002658,None,,,,,0,9,9,9,,,,,2726.8264538000003,,,,,,,,,,,,2726.8108138999996,2726.8264538000003,2726.8264538000003,2729.0582145000008,,,,2729.0584686,2729.0741753,2729.0741753,2729.0741753,2729.3737112,,2729.4578664,,,,down,2.226687899999888,None,space,0.3719048000002658,None,,,,,,,,,,,,P126,001,2024-11-21_10h25.46.650,posner_endo_new1,2024.2.4,60.124192532623944,2024-11-21 10h25.54.089071 +0000,
0.005,-0.31,10,10,0,up,2.059974300000249,None,space,0.281789700000445,None,,,,,0,10,10,10,,,,,2729.4736603,,,,,,,,,,,,2729.458039000001,2729.4736603,2729.4736603,2731.5391493999996,,,,2731.5394072,2731.5550427,2731.5550427,2731.5550427,2731.854591000001,,2731.839057500001,,,,up,2.059974300000249,None,space,0.281789700000445,None,,,,,,,,,,,,P126,001,2024-11-21_10h25.46.650,posner_endo_new1,2024.2.4,60.124192532623944,2024-11-21 10h25.54.089071 +0000,
0.005,0.31,11,11,0,down,2.9829297000014776,None,space,0.365542400000777,None,,,,,0,11,11,11,,,,,2731.854591000001,,,,,,,,,,,,2731.839224700001,2731.854591000001,2731.854591000001,2734.8522618999996,,,,2734.8525147,2734.8681882,2734.8681882,2734.8681882,2735.167937,,2735.2354539000007,,,,down,2.9829297000014776,None,space,0.365542400000777,None,,,,,,,,,,,,P126,001,2024-11-21_10h25.46.650,posner_endo_new1,2024.2.4,60.124192532623944,2024-11-21 10h25.54.089071 +0000,
10,0.005,12,12,0,up,2.570453300000736,None,None,,,,,,,0,12,12,12,,,,,2735.2511234000012,,,,,,,,,,,,2735.235626900001,2735.2511234000012,2735.2511234000012,2737.832549300001,,,,2737.8327981,2737.848360600001,2737.848360600001,2737.848360600001,2738.1482123000005,2738.847393,2740.8456172999995,,,,up,2.570453300000736,None,None,,,,,,,,,,,,,,P126,001,2024-11-21_10h25.46.650,posner_endo_new1,2024.2.4,60.124192532623944,2024-11-21 10h25.54.089071 +0000,
0.31,0.005,13,13,0,up,3.079356900001585,None,space,0.4327739999989717,None,,,,,0,13,13,13,,,,,2740.8621573,,,,,,,,,,,,2740.8457784,2740.8621573,2740.8621573,2743.9431117000004,,,,2743.943361900001,2743.9588339,2743.9588339,2743.9588339,2744.2586025,,2744.392721,,,,up,3.079356900001585,None,space,0.4327739999989717,None,,,,,,,,,,,,P126,001,2024-11-21_10h25.46.650,posner_endo_new1,2024.2.4,60.124192532623944,2024-11-21 10h25.54.089071 +0000,
10,0.005,14,14,0,down,2.844631500000105,None,None,,,,,,,0,14,14,14,,,,,2744.4083893000006,,,,,,,,,,,,2744.3928865,2744.4083893000006,2744.4083893000006,2747.2563434000003,,,,2747.256595300001,2747.2721911999997,2747.2721911999997,2747.2721911999997,2747.571952800001,2748.287780800001,2750.2691851,,,,down,2.844631500000105,None,None,,,,,,,,,,,,,,P126,001,2024-11-21_10h25.46.650,posner_endo_new1,2024.2.4,60.124192532623944,2024-11-21 10h25.54.089071 +0000,
-0.31,0.005,15,15,0,down,3.367107300000498,None,space,0.48678189999918686,None,,,,,0,15,15,15,,,,,2750.2858128999997,,,,,,,,,,,,2750.2693471000002,2750.2858128999997,2750.2858128999997,2753.666482800001,,,,2753.6667323,2753.682273300001,2753.682273300001,2753.682273300001,2753.9818799000004,,2754.182472300001,,,,down,3.367107300000498,None,space,0.48678189999918686,None,,,,,,,,,,,,P126,001,2024-11-21_10h25.46.650,posner_endo_new1,2024.2.4,60.124192532623944,2024-11-21 10h25.54.089071 +0000,
0.005,-0.31,16,16,0,up,1.9264800000000832,None,space,0.32661650000045483,None,,,,,0,16,16,16,,,,,2754.198444400001,,,,,,,,,,,,2754.1826382,2754.198444400001,2754.198444400001,2756.1305138999996,,,,2756.1307653000003,2756.1464026000012,2756.1464026000012,2756.1464026000012,2756.4460595,,2756.4803955999996,,,,up,1.9264800000000832,None,space,0.32661650000045483,None,,,,,,,,,,,,P126,001,2024-11-21_10h25.46.650,posner_endo_new1,2024.2.4,60.124192532623944,2024-11-21 10h25.54.089071 +0000,
0.005,0.31,17,17,0,down,2.629299899999751,None,space,0.3656833999993978,None,,,,,0,17,17,17,,,,,2756.4961244000006,,,,,,,,,,,,2756.4805632000007,2756.4961244000006,2756.4961244000006,2759.127526800001,,,,2759.1277787,2759.1433455000006,2759.1433455000006,2759.1433455000006,2759.4429665999996,,2759.5105384,,,,down,2.629299899999751,None,space,0.3656833999993978,None,,,,,,,,,,,,P126,001,2024-11-21_10h25.46.650,posner_endo_new1,2024.2.4,60.124192532623944,2024-11-21 10h25.54.089071 +0000,
-0.31,0.005,18,18,0,up,2.4067195000006905,None,space,0.5022539000001416,None,,,,,0,18,18,18,,,,,2759.5263708,,,,,,,,,,,,2759.510708,2759.5263708,2759.5263708,2761.9412083999996,,,,2761.941459400001,2761.957200500001,2761.957200500001,2761.957200500001,2762.256807400001,,2762.4740469000008,,,,up,2.4067195000006905,None,space,0.5022539000001416,None,,,,,,,,,,,,P126,001,2024-11-21_10h25.46.650,posner_endo_new1,2024.2.4,60.124192532623944,2024-11-21 10h25.54.089071 +0000,
10,0.005,19,19,0,down,2.5312830000002577,None,None,,,,,,,0,19,19,19,,,,,2762.4902094999998,,,,,,,,,,,,2762.4742191000005,2762.4902094999998,2762.4902094999998,2765.0380693000006,,,,2765.0383205,2765.0538615999994,2765.0538615999994,2765.0538615999994,2765.3536538999997,2766.0528739,2768.0510128000005,,,,down,2.5312830000002577,None,None,,,,,,,,,,,,,,P126,001,2024-11-21_10h25.46.650,posner_endo_new1,2024.2.4,60.124192532623944,2024-11-21 10h25.54.089071 +0000,
0.005,0.31,20,20,0,up,0.4817161999999371,None,space,0.39416460000029474,None,,,,,0,20,20,20,,,,,2768.0675522,,,,,,,,,,,,2768.0511773,2768.0675522,2768.0675522,2768.551384800001,,,,2768.5516351999995,2768.5671311999995,2768.5671311999995,2768.5671311999995,2768.8666587000007,,2768.9675334000003,,,,up,0.4817161999999371,None,space,0.39416460000029474,None,,,,,,,,,,,,P126,001,2024-11-21_10h25.46.650,posner_endo_new1,2024.2.4,60.124192532623944,2024-11-21 10h25.54.089071 +0000,
0.005,-0.31,21,21,0,down,2.718013100000462,None,space,0.40531579999878886,None,,,,,0,21,21,21,,,,,2768.983769100001,,,,,,,,,,,,2768.9677018,2768.983769100001,2768.983769100001,2771.714773900001,,,,2771.715022800001,2771.7304213999996,2771.7304213999996,2771.7304213999996,2772.030181100001,,2772.1474947999995,,,,down,2.718013100000462,None,space,0.40531579999878886,None,,,,,,,,,,,,P126,001,2024-11-21_10h25.46.650,posner_endo_new1,2024.2.4,60.124192532623944,2024-11-21 10h25.54.089071 +0000,
0.005,0.31,22,22,0,up,2.330046900000525,None,space,0.36151760000029753,None,,,,,0,22,22,22,,,,,2772.1634973,,,,,,,,,,,,2772.1476619000005,2772.1634973,2772.1634973,2774.4952864000006,,,,2774.4955412,2774.5108705000002,2774.5108705000002,2774.5108705000002,2774.8106676999996,,2774.878102300001,,,,up,2.330046900000525,None,space,0.36151760000029753,None,,,,,,,,,,,,P126,001,2024-11-21_10h25.46.650,posner_endo_new1,2024.2.4,60.124192532623944,2024-11-21 10h25.54.089071 +0000,
0.31,0.005,23,23,0,down,2.8795254999986355,None,space,0.3181867000002967,None,,,,,0,23,23,23,,,,,2774.8940105,,,,,,,,,,,,2774.8782705000012,2774.8940105,2774.8940105,2777.775342500001,,,,2777.7756022000012,2777.7909450999996,2777.7909450999996,2777.7909450999996,2778.0905998,,2778.1246537000006,,,,down,2.8795254999986355,None,space,0.3181867000002967,None,,,,,,,,,,,,P126,001,2024-11-21_10h25.46.650,posner_endo_new1,2024.2.4,60.124192532623944,2024-11-21 10h25.54.089071 +0000,
0.005,0.31,24,24,0,up,2.472299799999746,None,space,0.37347480000062205,None,,,,,0,24,24,24,,,,,2778.1405364,,,,,,,,,,,,2778.1248192000003,2778.1405364,2778.1405364,2780.621961500001,,,,2780.6222173000006,2780.6380351000007,2780.6380351000007,2780.6380351000007,2780.9376864000005,,2781.0215742,,,,up,2.472299799999746,None,space,0.37347480000062205,None,,,,,,,,,,,,P126,001,2024-11-21_10h25.46.650,posner_endo_new1,2024.2.4,60.124192532623944,2024-11-21 10h25.54.089071 +0000,
0.31,0.005,25,25,0,down,2.280098100000032,None,space,0.3230963000005431,None,,,,,0,25,25,25,,,,,2781.037614500001,,,,,,,,,,,,2781.0217415000006,2781.037614500001,2781.037614500001,2783.3194428999996,,,,2783.3197051000006,2783.3351786000003,2783.3351786000003,2783.3351786000003,2783.6350002,,2783.6688522000004,,,,down,2.280098100000032,None,space,0.3230963000005431,None,,,,,,,,,,,,P126,001,2024-11-21_10h25.46.650,posner_endo_new1,2024.2.4,60.124192532623944,2024-11-21 10h25.54.089071 +0000,
10,0.005,26,26,0,up,2.5526350000000093,None,None,,,,,,,0,26,26,26,,,,,2783.6847903,,,,,,,,,,,,2783.669020000001,2783.6847903,2783.6847903,2786.249727300001,,,,2786.2499811,2786.2655680000007,2786.2655680000007,2786.2655680000007,2786.565203,2787.2646702,2789.262769500001,,,,up,2.5526350000000093,None,None,,,,,,,,,,,,,,P126,001,2024-11-21_10h25.46.650,posner_endo_new1,2024.2.4,60.124192532623944,2024-11-21 10h25.54.089071 +0000,
10,0.005,27,27,0,down,0.3418720999998186,None,None,,,,,,,0,27,27,27,,,,,2789.279114500001,,,,,,,,,,,,2789.2629402000002,2789.279114500001,2789.279114500001,2789.6297268,,,,2789.6299768999997,2789.6454888000007,2789.6454888000007,2789.6454888000007,2789.9452019,2790.6443113000005,2792.6424855000005,,,,down,0.3418720999998186,None,None,,,,,,,,,,,,,,P126,001,2024-11-21_10h25.46.650,posner_endo_new1,2024.2.4,60.124192532623944,2024-11-21 10h25.54.089071 +0000,
0.005,-0.31,28,28,0,up,5.418108400001074,None,space,0.3761157999997522,None,,,,,0,28,28,28,,,,,2792.659090700001,,,,,,,,,,,,2792.6426555,2792.659090700001,2792.659090700001,2798.0875455999994,,,,2798.087799000001,2798.103371000001,2798.103371000001,2798.103371000001,2798.403219,,2798.487705900001,,,,up,5.418108400001074,None,space,0.3761157999997522,None,,,,,,,,,,,,P126,001,2024-11-21_10h25.46.650,posner_endo_new1,2024.2.4,60.124192532623944,2024-11-21 10h25.54.089071 +0000,
0.31,0.005,29,29,0,down,2.7988756999984616,None,space,0.4179954999999609,None,,,,,0,29,29,29,,,,,2798.503046,,,,,,,,,,,,2798.4878714999995,2798.503046,2798.503046,2801.3176550000007,,,,2801.3179075999997,2801.3334283000004,2801.3334283000004,2801.3334283000004,2801.6331735000003,,2801.7671862000007,,,,down,2.7988756999984616,None,space,0.4179954999999609,None,,,,,,,,,,,,P126,001,2024-11-21_10h25.46.650,posner_endo_new1,2024.2.4,60.124192532623944,2024-11-21 10h25.54.089071 +0000,
10,0.005,30,30,0,up,2.174667100000079,None,None,,,,,,,0,30,30,30,,,,,2801.7829905,,,,,,,,,,,,2801.767352300001,2801.7829905,2801.7829905,2803.9650096000005,,,,2803.965274600001,2803.980850600001,2803.980850600001,2803.980850600001,2804.2804873000005,2804.996465800001,2806.9778293,,,,up,2.174667100000079,None,None,,,,,,,,,,,,,,P126,001,2024-11-21_10h25.46.650,posner_endo_new1,2024.2.4,60.124192532623944,2024-11-21 10h25.54.089071 +0000,
0.31,0.005,31,31,0,down,0.6030399999999645,None,space,0.4099754999988363,None,,,,,0,31,31,31,,,,,2806.994301500001,,,,,,,,,,,,2806.9779952999997,2806.994301500001,2806.994301500001,2807.6111665000008,,,,2807.6114173999995,2807.6269728999996,2807.6269728999996,2807.6269728999996,2807.9267309999996,,2808.044064400001,,,,down,0.6030399999999645,None,space,0.4099754999988363,None,,,,,,,,,,,,P126,001,2024-11-21_10h25.46.650,posner_endo_new1,2024.2.4,60.124192532623944,2024-11-21 10h25.54.089071 +0000,
0.31,0.005,32,32,0,up,1.4016245000002527,None,space,0.3810496999994939,None,,,,,0,32,32,32,,,,,2808.0599772999994,,,,,,,,,,,,2808.044230900001,2808.0599772999994,2808.0599772999994,2809.475878200001,,,,2809.4761290999995,2809.4917226,2809.4917226,2809.4917226,2809.7914407999997,,2809.875600900001,,,,up,1.4016245000002527,None,space,0.3810496999994939,None,,,,,,,,,,,,P126,001,2024-11-21_10h25.46.650,posner_endo_new1,2024.2.4,60.124192532623944,2024-11-21 10h25.54.089071 +0000,
10,0.005,33,33,0,down,3.0256024000009347,None,None,,,,,,,0,33,33,33,,,,,2809.8912444,,,,,,,,,,,,2809.875778200001,2809.8912444,2809.8912444,2812.9225000999995,,,,2812.9227513000005,2812.9381888000007,2812.9381888000007,2812.9381888000007,2813.2380637999995,2813.9372268000006,2815.935231200001,,,,down,3.0256024000009347,None,None,,,,,,,,,,,,,,P126,001,2024-11-21_10h25.46.650,posner_endo_new1,2024.2.4,60.124192532623944,2024-11-21 10h25.54.089071 +0000,
0.005,-0.31,34,34,0,down,3.4453057999999146,None,space,0.3565419999995356,None,,,,,0,34,34,34,,,,,2815.9516934000003,,,,,,,,,,,,2815.9353955999995,2815.9516934000003,2815.9516934000003,2819.3990968,,,,2819.399349700001,2819.4149842999996,2819.4149842999996,2819.4149842999996,2819.714611700001,,2819.7819519000004,,,,down,3.4453057999999146,None,space,0.3565419999995356,None,,,,,,,,,,,,P126,001,2024-11-21_10h25.46.650,posner_endo_new1,2024.2.4,60.124192532623944,2024-11-21 10h25.54.089071 +0000,
-0.31,0.005,35,35,0,up,2.3597186999995756,None,space,0.3762073000016244,None,,,,,0,35,35,35,,,,,2819.7979293000008,,,,,,,,,,,,2819.782127800001,2819.7979293000008,2819.7979293000008,2822.162900000001,,,,2822.1631522000007,2822.1787889999996,2822.1787889999996,2822.1787889999996,2822.47854,,2822.562546000001,,,,up,2.3597186999995756,None,space,0.3762073000016244,None,,,,,,,,,,,,P126,001,2024-11-21_10h25.46.650,posner_endo_new1,2024.2.4,60.124192532623944,2024-11-21 10h25.54.089071 +0000,
-0.31,0.005,36,36,0,down,2.722316499999579,None,space,0.3722080999996251,None,,,,,0,36,36,36,,,,,2822.5784827999996,,,,,,,,,,,,2822.5627131,2822.5784827999996,2822.5784827999996,2825.3096028,,,,2825.3098563000003,2825.3255403000003,2825.3255403000003,2825.3255403000003,2825.6252994000006,,2825.7092826999997,,,,down,2.722316499999579,None,space,0.3722080999996251,None,,,,,,,,,,,,P126,001,2024-11-21_10h25.46.650,posner_endo_new1,2024.2.4,60.124192532623944,2024-11-21 10h25.54.089071 +0000,
10,0.005,37,37,0,up,2.2233448999995744,None,None,,,,,,,0,37,37,37,,,,,2825.725280300001,,,,,,,,,,,,2825.7094498000006,2825.725280300001,2825.725280300001,2827.956975000001,,,,2827.9572274,2827.9729024000007,2827.9729024000007,2827.9729024000007,2828.2725143000007,2828.9718986000007,2830.969936200001,,,,up,2.2233448999995744,None,None,,,,,,,,,,,,,,P126,001,2024-11-21_10h25.46.650,posner_endo_new1,2024.2.4,60.124192532623944,2024-11-21 10h25.54.089071 +0000,
0.005,0.31,38,38,0,down,0.1547773000002053,None,space,0.4067059999997582,None,,,,,0,38,38,38,,,,,2830.9866248,,,,,,,,,,,,2830.970099600001,2830.9866248,2830.9866248,2831.1536281999997,,,,2831.1538867,2831.1695873999997,2831.1695873999997,2831.1695873999997,2831.4693026000004,,2831.5867421000003,,,,down,0.1547773000002053,None,space,0.4067059999997582,None,,,,,,,,,,,,P126,001,2024-11-21_10h25.46.650,posner_endo_new1,2024.2.4,60.124192532623944,2024-11-21 10h25.54.089071 +0000,
0.005,-0.31,39,39,0,up,1.9389207999993232,None,space,0.40848299999925075,None,,,,,0,39,39,39,,,,,2831.6025714999996,,,,,,,,,,,,2831.586908000001,2831.6025714999996,2831.6025714999996,2833.5511996000005,,,,2833.5514526999996,2833.5670864000003,2833.5670864000003,2833.5670864000003,2833.8668835999997,,2833.984616900001,,,,up,1.9389207999993232,None,space,0.40848299999925075,None,,,,,,,,,,,,P126,001,2024-11-21_10h25.46.650,posner_endo_new1,2024.2.4,60.124192532623944,2024-11-21 10h25.54.089071 +0000,
0.31,0.005,40,40,0,down,3.1498922999999195,None,space,0.3617152000006172,None,,,,,0,40,40,40,,,,,2833.9998847999996,,,,,,,,,,,,2833.9847864000003,2833.9998847999996,2833.9998847999996,2837.1643162,,,,2837.164568800001,2837.1800691999997,2837.1800691999997,2837.1800691999997,2837.479827000001,,2837.547251400001,,,,down,3.1498922999999195,None,space,0.3617152000006172,None,,,,,,,,,,,,P126,001,2024-11-21_10h25.46.650,posner_endo_new1,2024.2.4,60.124192532623944,2024-11-21 10h25.54.089071 +0000,
-0.31,0.005,41,41,0,up,2.530558200000087,None,space,0.48030540000036126,None,,,,,0,41,41,41,,,,,2837.5630223999997,,,,,,,,,,,,2837.5474197000003,2837.5630223999997,2837.5630223999997,2840.0945988000003,,,,2840.094850700001,2840.110406900001,2840.110406900001,2840.110406900001,2840.410036200001,,2840.5940850999996,,,,up,2.530558200000087,None,space,0.48030540000036126,None,,,,,,,,,,,,P126,001,2024-11-21_10h25.46.650,posner_endo_new1,2024.2.4,60.124192532623944,2024-11-21 10h25.54.089071 +0000,
0.31,0.005,42,42,0,down,2.7475250999996206,None,space,0.291047200000321,None,,,,,0,42,42,42,,,,,2840.6098942999997,,,,,,,,,,,,2840.594251800001,2840.6098942999997,2840.6098942999997,2843.358256200001,,,,2843.3585138,2843.3737801000007,2843.3737801000007,2843.3737801000007,2843.6732775,,2843.674130700001,,,,down,2.7475250999996206,None,space,0.291047200000321,None,,,,,,,,,,,,P126,001,2024-11-21_10h25.46.650,posner_endo_new1,2024.2.4,60.124192532623944,2024-11-21 10h25.54.089071 +0000,
10,0.005,43,43,0,up,2.5634965999997803,None,None,,,,,,,0,43,43,43,,,,,2843.690035200001,,,,,,,,,,,,2843.6742942,2843.690035200001,2843.690035200001,2846.255090800001,,,,2846.255342800001,2846.2707118,2846.2707118,2846.2707118,2846.570505200001,2847.2697602000007,2849.2679222000006,,,,up,2.5634965999997803,None,None,,,,,,,,,,,,,,P126,001,2024-11-21_10h25.46.650,posner_endo_new1,2024.2.4,60.124192532623944,2024-11-21 10h25.54.089071 +0000,
-0.31,0.005,44,44,0,down,5.600270200000523,None,space,0.3921135000000504,None,,,,,0,44,44,44,,,,,2849.2843293999995,,,,,,,,,,,,2849.2680978000008,2849.2843293999995,2849.2843293999995,2854.8959359,,,,2854.8961942000005,2854.911946100001,2854.911946100001,2854.911946100001,2855.2116029999997,,2855.3123163,,,,down,5.600270200000523,None,space,0.3921135000000504,None,,,,,,,,,,,,P126,001,2024-11-21_10h25.46.650,posner_endo_new1,2024.2.4,60.124192532623944,2024-11-21 10h25.54.089071 +0000,
0.005,0.31,45,45,0,up,2.4286912999996275,None,space,0.34048749999965366,None,,,,,0,45,45,45,,,,,2855.3282321999995,,,,,,,,,,,,2855.3124867000006,2855.3282321999995,2855.3282321999995,2857.7597889999997,,,,2857.7600421999996,2857.775724000001,2857.775724000001,2857.775724000001,2858.0752866000003,,2858.1260650000004,,,,up,2.4286912999996275,None,space,0.34048749999965366,None,,,,,,,,,,,,P126,001,2024-11-21_10h25.46.650,posner_endo_new1,2024.2.4,60.124192532623944,2024-11-21 10h25.54.089071 +0000,
0.005,-0.31,46,46,0,down,2.4557203999993362,None,space,0.2701208999988012,None,,,,,0,46,46,46,,,,,2858.1419492000005,,,,,,,,,,,,2858.1262337999997,2858.1419492000005,2858.1419492000005,2860.6067588999995,,,,2860.607013300001,2860.6227538000003,2860.6227538000003,2860.6227538000003,2860.9224422999996,,2860.9068124999994,,,,down,2.4557203999993362,None,space,0.2701208999988012,None,,,,,,,,,,,,P126,001,2024-11-21_10h25.46.650,posner_endo_new1,2024.2.4,60.124192532623944,2024-11-21 10h25.54.089071 +0000,
-0.31,0.005,47,47,0,up,2.5550223999998707,None,space,0.34650629999850935,None,,,,,0,47,47,47,,,,,2860.9224422999996,,,,,,,,,,,,2860.9069801000005,2860.9224422999996,2860.9224422999996,2863.4874244000002,,,,2863.4876745,2863.503102800001,2863.503102800001,2863.503102800001,2863.8027884000003,,2863.8538828,,,,up,2.5550223999998707,None,space,0.34650629999850935,None,,,,,,,,,,,,P126,001,2024-11-21_10h25.46.650,posner_endo_new1,2024.2.4,60.124192532623944,2024-11-21 10h25.54.089071 +0000,
0.005,-0.31,48,48,0,down,2.7594262000002345,None,space,0.3130105000000185,None,,,,,0,48,48,48,,,,,2863.8694940999994,,,,,,,,,,,,2863.8540457,2863.8694940999994,2863.8694940999994,2866.6340511,,,,2866.634303500001,2866.649919900001,2866.649919900001,2866.649919900001,2866.9495996999995,,2866.9669422000006,,,,down,2.7594262000002345,None,space,0.3130105000000185,None,,,,,,,,,,,,P126,001,2024-11-21_10h25.46.650,posner_endo_new1,2024.2.4,60.124192532623944,2024-11-21 10h25.54.089071 +0000,
0.005,-0.31,49,49,0,up,1.901853100000153,None,space,0.3777865000010934,None,,,,,0,49,49,49,,,,,2866.9829228,,,,,,,,,,,,2866.9671082000004,2866.9829228,2866.9829228,2868.8983346000005,,,,2868.8985959,2868.9142066000004,2868.9142066000004,2868.9142066000004,2869.213822400001,,2869.2981667000004,,,,up,1.901853100000153,None,space,0.3777865000010934,None,,,,,,,,,,,,P126,001,2024-11-21_10h25.46.650,posner_endo_new1,2024.2.4,60.124192532623944,2024-11-21 10h25.54.089071 +0000,
0.005,0.31,50,50,0,down,3.2754361999996036,None,space,0.36602640000091924,None,,,,,0,50,50,50,,,,,2869.313822,,,,,,,,,,,,2869.298333300001,2869.313822,2869.313822,2872.5947075000004,,,,2872.5949617999995,2872.6104534999995,2872.6104534999995,2872.6104534999995,2872.9102504,,2872.9776390000006,,,,down,3.2754361999996036,None,space,0.36602640000091924,None,,,,,,,,,,,,P126,001,2024-11-21_10h25.46.650,posner_endo_new1,2024.2.4,60.124192532623944,2024-11-21 10h25.54.089071 +0000,
0.31,0.005,51,51,0,up,1.6833102000000508,None,space,0.3470277999986138,None,,,,,0,51,51,51,,,,,2872.9934993000006,,,,,,,,,,,,2872.977803400001,2872.9934993000006,2872.9934993000006,2874.6924832000004,,,,2874.6927400000004,2874.7083027999997,2874.7083027999997,2874.7083027999997,2875.0079803999997,,2875.058900600001,,,,up,1.6833102000000508,None,space,0.3470277999986138,None,,,,,,,,,,,,P126,001,2024-11-21_10h25.46.650,posner_endo_new1,2024.2.4,60.124192532623944,2024-11-21 10h25.54.089071 +0000,
0.31,0.005,52,52,0,down,3.3232088000004296,None,space,0.2984092000006058,None,,,,,0,52,52,52,,,,,2875.0744882,,,,,,,,,,,,2875.0590665,2875.0744882,2875.0744882,2878.405420500001,,,,2878.4056727000007,2878.421112600001,2878.421112600001,2878.421112600001,2878.7207418,,2878.7216640999995,,,,down,3.3232088000004296,None,space,0.2984092000006058,None,,,,,,,,,,,,P126,001,2024-11-21_10h25.46.650,posner_endo_new1,2024.2.4,60.124192532623944,2024-11-21 10h25.54.089071 +0000,
0.005,0.31,53,53,0,up,2.211131199999727,None,space,0.34236609999970824,None,,,,,0,53,53,53,,,,,2878.7375049,,,,,,,,,,,,2878.7218307000003,2878.7375049,2878.7375049,2880.952738400001,,,,2880.952994200001,2880.9685133000003,2880.9685133000003,2880.9685133000003,2881.2683737999996,,2881.3189034000006,,,,up,2.211131199999727,None,space,0.34236609999970824,None,,,,,,,,,,,,P126,001,2024-11-21_10h25.46.650,posner_endo_new1,2024.2.4,60.124192532623944,2024-11-21 10h25.54.089071 +0000,
-0.31,0.005,54,54,0,down,2.5186018999993394,None,space,0.3103905999996641,None,,,,,0,54,54,54,,,,,2881.3348988,,,,,,,,,,,,2881.319067300001,2881.3348988,2881.3348988,2883.8663901,,,,2883.8666408999998,2883.882380500001,2883.882380500001,2883.882380500001,2884.182004600001,,2884.199652000001,,,,down,2.5186018999993394,None,space,0.3103905999996641,None,,,,,,,,,,,,P126,001,2024-11-21_10h25.46.650,posner_endo_new1,2024.2.4,60.124192532623944,2024-11-21 10h25.54.089071 +0000,
10,0.005,55,55,0,up,2.662308099999791,None,None,,,,,,,0,55,55,55,,,,,2884.2152332999995,,,,,,,,,,,,2884.199824700001,2884.2152332999995,2884.2152332999995,2886.880130400001,,,,2886.8803816,2886.8957837,2886.8957837,2886.8957837,2887.1954547000005,2887.8946969999997,2889.892874700001,,,,up,2.662308099999791,None,None,,,,,,,,,,,,,,P126,001,2024-11-21_10h25.46.650,posner_endo_new1,2024.2.4,60.124192532623944,2024-11-21 10h25.54.089071 +0000,
0.31,0.005,56,56,0,down,0.8236147000006895,None,space,0.3574647000004916,None,,,,,0,56,56,56,,,,,2889.9093651000003,,,,,,,,,,,,2889.893036200001,2889.9093651000003,2889.9093651000003,2890.7427676000007,,,,2890.7430176,2890.7584086999996,2890.7584086999996,2890.7584086999996,2891.0581896000003,,2891.1258228999995,,,,down,0.8236147000006895,None,space,0.3574647000004916,None,,,,,,,,,,,,P126,001,2024-11-21_10h25.46.650,posner_endo_new1,2024.2.4,60.124192532623944,2024-11-21 10h25.54.089071 +0000,
0.005,0.31,57,57,0,up,1.9275219999999536,None,space,0.32560130000092613,None,,,,,0,57,57,57,,,,,2891.1414876,,,,,,,,,,,,2891.125994,2891.1414876,2891.1414876,2893.0737126000004,,,,2893.0739735000006,2893.0895022000004,2893.0895022000004,2893.0895022000004,2893.3892324000008,,2893.4233330999996,,,,up,1.9275219999999536,None,space,0.32560130000092613,None,,,,,,,,,,,,P126,001,2024-11-21_10h25.46.650,posner_endo_new1,2024.2.4,60.124192532623944,2024-11-21 10h25.54.089071 +0000,
-0.31,0.005,58,58,0,down,2.6538818000008177,None,space,0.31209879999914847,None,,,,,0,58,58,58,,,,,2893.4390822999994,,,,,,,,,,,,2893.4234994,2893.4390822999994,2893.4390822999994,2896.103764900001,,,,2896.1040161,2896.119800800001,2896.119800800001,2896.119800800001,2896.419471000001,,2896.4369809,,,,down,2.6538818000008177,None,space,0.31209879999914847,None,,,,,,,,,,,,P126,001,2024-11-21_10h25.46.650,posner_endo_new1,2024.2.4,60.124192532623944,2024-11-21 10h25.54.089071 +0000,
-0.31,0.005,59,59,0,up,6.799914999999601,None,space,0.3770838999989792,None,,,,,0,59,59,59,,,,,2896.4527968,,,,,,,,,,,,2896.437146,2896.4527968,2896.4527968,2903.2634407999994,,,,2903.263690900001,2903.279014400001,2903.279014400001,2903.279014400001,2903.5787886,,2903.662789,,,,up,6.799914999999601,None,space,0.3770838999989792,None,,,,,,,,,,,,P126,001,2024-11-21_10h25.46.650,posner_endo_new1,2024.2.4,60.124192532623944,2024-11-21 10h25.54.089071 +0000,
,,,,,,,,,,,,,,,,,,,,,,,,,,,,,,,,,,,,,,,,,,,,,,,,,,,,,,,,,,2903.6628996,2903.678685500001,2903.678685500001,2963.651286100001,None,,,,,,,P126,001,2024-11-21_10h25.46.650,posner_endo_new1,2024.2.4,60.124192532623944,2024-11-21 10h25.54.089071 +0000,
,,,,,,,,,,,,,,,,,,,,,,,,,,,,,,,,2963.651334,2963.6672399,2966.664181600001,,,,,,,,,,,,,,,,,,,,,,,,,,,,,,,,,,,P126,001,2024-11-21_10h25.46.650,posner_endo_new1,2024.2.4,60.124192532623944,2024-11-21 10h25.54.089071 +0000,
0.005,0.31,0,0,0,down,11.28154849999919,None,space,0.48246819999985746,None,,,,,,,,,0,0,0,0,2966.6832684,,,,,,,,,,,,2966.6728298,2966.6832684,2966.6832684,2977.9700728999996,,,,2977.9703358999996,2977.9860061,2977.9860061,2977.9860061,2978.2854439000002,,2978.4696905,,,,,,,,,,,,,,,down,11.28154849999919,None,space,0.48246819999985746,None,P126,001,2024-11-21_10h25.46.650,posner_endo_new1,2024.2.4,60.124192532623944,2024-11-21 10h25.54.089071 +0000,
-0.31,0.005,1,1,0,up,2.375428000001193,None,space,0.3411861000004137,None,,,,,,,,,0,1,1,1,2978.4855668,,,,,,,,,,,,2978.4698592000004,2978.4855668,2978.4855668,2980.8669855000007,,,,2980.867241400001,2980.883075400001,2980.883075400001,2980.883075400001,2981.1827517,,2981.2332392999997,,,,,,,,,,,,,,,up,2.375428000001193,None,space,0.3411861000004137,None,P126,001,2024-11-21_10h25.46.650,posner_endo_new1,2024.2.4,60.124192532623944,2024-11-21 10h25.54.089071 +0000,
0.005,-0.31,2,2,0,down,2.1640979000003426,None,space,0.33906260000003385,None,,,,,,,,,0,2,2,2,2981.2493297,,,,,,,,,,,,2981.233416500001,2981.2493297,2981.2493297,2983.4145960999995,,,,2983.4148485999995,2983.430316600001,2983.430316600001,2983.430316600001,2983.730107900001,,2983.7807709999997,,,,,,,,,,,,,,,down,2.1640979000003426,None,space,0.33906260000003385,None,P126,001,2024-11-21_10h25.46.650,posner_endo_new1,2024.2.4,60.124192532623944,2024-11-21 10h25.54.089071 +0000,
0.31,0.005,3,3,0,up,2.449196999999913,None,space,0.336220899998807,None,,,,,,,,,0,3,3,3,2983.7966713000005,,,,,,,,,,,,2983.7809383000003,2983.7966713000005,2983.7966713000005,2986.2616118999995,,,,2986.261862200001,2986.2774702000006,2986.2774702000006,2986.2774702000006,2986.5771473000004,,2986.627790100001,,,,,,,,,,,,,,,up,2.449196999999913,None,space,0.336220899998807,None,P126,001,2024-11-21_10h25.46.650,posner_endo_new1,2024.2.4,60.124192532623944,2024-11-21 10h25.54.089071 +0000,
0.005,0.31,4,4,0,down,1.913731700000426,None,space,0.32255980000081763,None,,,,,,,,,0,4,4,4,2986.6437344000005,,,,,,,,,,,,2986.627960400001,2986.6437344000005,2986.6437344000005,2988.5593119000005,,,,2988.5595696,2988.5747671999998,2988.5747671999998,2988.5747671999998,2988.8748565000005,,2988.9090261,,,,,,,,,,,,,,,down,1.913731700000426,None,space,0.32255980000081763,None,P126,001,2024-11-21_10h25.46.650,posner_endo_new1,2024.2.4,60.124192532623944,2024-11-21 10h25.54.089071 +0000,
0.005,-0.31,5,5,0,up,1.5281664000012825,None,space,0.3516204999996262,None,,,,,,,,,0,5,5,5,2988.9247584000004,,,,,,,,,,,,2988.9091984000006,2988.9247584000004,2988.9247584000004,2990.4572922999996,,,,2990.4575437000003,2990.4730818000007,2990.4730818000007,2990.4730818000007,2990.772810800001,,2990.8402837000012,,,,,,,,,,,,,,,up,1.5281664000012825,None,space,0.3516204999996262,None,P126,001,2024-11-21_10h25.46.650,posner_endo_new1,2024.2.4,60.124192532623944,2024-11-21 10h25.54.089071 +0000,
-0.31,0.005,6,6,0,down,2.237185699999827,None,space,0.38476190000073984,None,,,,,,,,,0,6,6,6,2990.856172,,,,,,,,,,,,2990.8404517,2990.856172,2990.856172,2993.1044739999998,,,,2993.1047244,2993.1203427,2993.1203427,2993.1203427,2993.4200877000003,,2993.520780300001,,,,,,,,,,,,,,,down,2.237185699999827,None,space,0.38476190000073984,None,P126,001,2024-11-21_10h25.46.650,posner_endo_new1,2024.2.4,60.124192532623944,2024-11-21 10h25.54.089071 +0000,
0.005,0.31,7,7,0,up,1.780033299999559,None,space,0.5224178000007669,None,,,,,,,,,0,7,7,7,2993.5367447999997,,,,,,,,,,,,2993.5209502,2993.5367447999997,2993.5367447999997,2995.3190140999995,,,,2995.319270600001,2995.3348645999995,2995.3348645999995,2995.3348645999995,2995.6345476000006,,2995.8684034,,,,,,,,,,,,,,,up,1.780033299999559,None,space,0.5224178000007669,None,P126,001,2024-11-21_10h25.46.650,posner_endo_new1,2024.2.4,60.124192532623944,2024-11-21 10h25.54.089071 +0000,
0.31,0.005,8,8,0,down,1.9122273000011774,None,space,0.2912470999999641,None,,,,,,,,,0,8,8,8,2995.8843275,,,,,,,,,,,,2995.8685814,2995.8843275,2995.8843275,2997.7995838999996,,,,2997.7998372,2997.8156277,2997.8156277,2997.8156277,2998.1151449999998,,2998.1159983,,,,,,,,,,,,,,,down,1.9122273000011774,None,space,0.2912470999999641,None,P126,001,2024-11-21_10h25.46.650,posner_endo_new1,2024.2.4,60.124192532623944,2024-11-21 10h25.54.089071 +0000,
10,0.005,9,9,0,up,2.1367496000002575,None,None,,,,,,,,,,,0,9,9,9,2998.1320662,,,,,,,,,,,,2998.1161635000008,2998.1320662,2998.1320662,3000.2804995999995,,,,3000.2807515000004,3000.2962922999995,3000.2962922999995,3000.2962922999995,3000.596011900001,3001.295395500001,3003.2934134000006,,,,,,,,,,,,,,,up,2.1367496000002575,None,None,,,P126,001,2024-11-21_10h25.46.650,posner_endo_new1,2024.2.4,60.124192532623944,2024-11-21 10h25.54.089071 +0000,
0.31,0.005,10,10,0,up,1.1034900000013295,None,space,0.36829430000034336,None,,,,,,,,,0,10,10,10,3003.3098833000004,,,,,,,,,,,,3003.293584000001,3003.3098833000004,3003.3098833000004,3004.4263377000007,,,,3004.4265975,3004.4422159999995,3004.4422159999995,3004.4422159999995,3004.7419057000006,,3004.8259153,,,,,,,,,,,,,,,up,1.1034900000013295,None,space,0.36829430000034336,None,P126,001,2024-11-21_10h25.46.650,posner_endo_new1,2024.2.4,60.124192532623944,2024-11-21 10h25.54.089071 +0000,
0.005,0.31,11,11,0,down,2.483451199999763,None,space,0.36500400000113586,None,,,,,,,,,0,11,11,11,3004.841866500001,,,,,,,,,,,,3004.8260831000007,3004.841866500001,3004.841866500001,3007.3399338,,,,3007.3401847000005,3007.3558591,3007.3558591,3007.3558591,3007.6555771000003,,3007.7229974,,,,,,,,,,,,,,,down,2.483451199999763,None,space,0.36500400000113586,None,P126,001,2024-11-21_10h25.46.650,posner_endo_new1,2024.2.4,60.124192532623944,2024-11-21 10h25.54.089071 +0000,
10,0.005,12,12,0,up,1.954269399999248,None,None,,,,,,,,,,,0,12,12,12,3007.738796900001,,,,,,,,,,,,3007.7231641,3007.738796900001,3007.738796900001,3009.7040963,,,,3009.7043544999997,3009.7199507999994,3009.7199507999994,3009.7199507999994,3010.019760000001,3010.7190174000007,3012.7171173000006,,,,,,,,,,,,,,,up,1.954269399999248,None,None,,,P126,001,2024-11-21_10h25.46.650,posner_endo_new1,2024.2.4,60.124192532623944,2024-11-21 10h25.54.089071 +0000,
-0.31,0.005,13,13,0,up,3.055702499999825,None,space,0.38908319999973173,None,,,,,,,,,0,13,13,13,3012.7336808,,,,,,,,,,,,3012.7172807999996,3012.7336808,3012.7336808,3015.798021300001,,,,3015.7982728999996,3015.8137793000005,3015.8137793000005,3015.8137793000005,3016.1135240000003,,3016.214033800001,,,,,,,,,,,,,,,up,3.055702499999825,None,space,0.38908319999973173,None,P126,001,2024-11-21_10h25.46.650,posner_endo_new1,2024.2.4,60.124192532623944,2024-11-21 10h25.54.089071 +0000,
0.31,0.005,14,14,0,down,2.24675870000101,None,space,0.3289497999994637,None,,,,,,,,,0,14,14,14,3016.2299650000004,,,,,,,,,,,,3016.2142010999996,3016.2299650000004,3016.2299650000004,3018.4787404,,,,3018.4789946,3018.4944228000004,3018.4944228000004,3018.4944228000004,3018.7940185000007,,3018.8283319,,,,,,,,,,,,,,,down,2.24675870000101,None,space,0.3289497999994637,None,P126,001,2024-11-21_10h25.46.650,posner_endo_new1,2024.2.4,60.124192532623944,2024-11-21 10h25.54.089071 +0000,
0.005,-0.31,15,15,0,up,1.8015032000002975,None,space,0.4434404999992694,None,,,,,,,,,0,15,15,15,3018.844013600001,,,,,,,,,,,,3018.8285097000007,3018.844013600001,3018.844013600001,3020.6595462000005,,,,3020.659797800001,3020.675387000001,3020.675387000001,3020.675387000001,3020.9751737000006,,3021.1257759,,,,,,,,,,,,,,,up,1.8015032000002975,None,space,0.4434404999992694,None,P126,001,2024-11-21_10h25.46.650,posner_endo_new1,2024.2.4,60.124192532623944,2024-11-21 10h25.54.089071 +0000,
0.31,0.005,16,16,0,down,2.302981999999247,None,space,0.6091675999996369,None,,,,,,,,,0,16,16,16,3021.1416833000003,,,,,,,,,,,,3021.125944200001,3021.1416833000003,3021.1416833000003,3023.4566904000003,,,,3023.4569424,3023.4725318,3023.4725318,3023.4725318,3023.7723535000005,,3024.0895404000003,,,,,,,,,,,,,,,down,2.302981999999247,None,space,0.6091675999996369,None,P126,001,2024-11-21_10h25.46.650,posner_endo_new1,2024.2.4,60.124192532623944,2024-11-21 10h25.54.089071 +0000,
0.31,0.005,17,17,0,up,1.9478152000010596,None,space,0.5261257999991358,None,,,,,,,,,0,17,17,17,3024.1053935,,,,,,,,,,,,3024.089704600001,3024.1053935,3024.1053935,3026.0542456000003,,,,3026.0544941000007,3026.0700161000004,3026.0700161000004,3026.0700161000004,3026.369695700001,,3026.6036447000006,,,,,,,,,,,,,,,up,1.9478152000010596,None,space,0.5261257999991358,None,P126,001,2024-11-21_10h25.46.650,posner_endo_new1,2024.2.4,60.124192532623944,2024-11-21 10h25.54.089071 +0000,
0.005,-0.31,18,18,0,down,2.040990999999849,None,space,0.3449856999995973,None,,,,,,,,,0,18,18,18,3026.619493,,,,,,,,,,,,3026.6038150000004,3026.619493,3026.619493,3028.668036700001,,,,3028.6682973000006,3028.6841146999996,3028.6841146999996,3028.6841146999996,3028.9840084000007,,3029.0342997999996,,,,,,,,,,,,,,,down,2.040990999999849,None,space,0.3449856999995973,None,P126,001,2024-11-21_10h25.46.650,posner_endo_new1,2024.2.4,60.124192532623944,2024-11-21 10h25.54.089071 +0000,
0.005,-0.31,19,19,0,up,2.003072200001043,None,space,0.3918083000007755,None,,,,,,,,,0,19,19,19,3029.050240300001,,,,,,,,,,,,3029.034472700001,3029.050240300001,3029.050240300001,3031.0656839000003,,,,3031.0659326000005,3031.081502500001,3031.081502500001,3031.081502500001,3031.381221200001,,3031.4820796000004,,,,,,,,,,,,,,,up,2.003072200001043,None,space,0.3918083000007755,None,P126,001,2024-11-21_10h25.46.650,posner_endo_new1,2024.2.4,60.124192532623944,2024-11-21 10h25.54.089071 +0000,
10,0.005,20,20,0,down,1.9325086999997438,None,None,,,,,,,,,,,0,20,20,20,3031.4976595999997,,,,,,,,,,,,3031.4822458,3031.4976595999997,3031.4976595999997,3033.4466021999997,,,,3033.4468515999997,3033.4624564999995,3033.4624564999995,3033.4624564999995,3033.7621805,3034.478076900001,3036.4594325,,,,,,,,,,,,,,,down,1.9325086999997438,None,None,,,P126,001,2024-11-21_10h25.46.650,posner_endo_new1,2024.2.4,60.124192532623944,2024-11-21 10h25.54.089071 +0000,
0.005,-0.31,21,21,0,down,2.6648977999993804,None,space,0.45077299999866227,None,,,,,,,,,0,21,21,21,3036.476055500001,,,,,,,,,,,,3036.4596011000012,3036.476055500001,3036.476055500001,3039.157297400001,,,,3039.1575469,3039.1732111,3039.1732111,3039.1732111,3039.473096400001,,3039.6401571000006,,,,,,,,,,,,,,,down,2.6648977999993804,None,space,0.45077299999866227,None,P126,001,2024-11-21_10h25.46.650,posner_endo_new1,2024.2.4,60.124192532623944,2024-11-21 10h25.54.089071 +0000,
0.005,0.31,22,22,0,up,2.1731796999993094,None,space,0.40796750000117754,None,,,,,,,,,0,22,22,22,3039.6561387,,,,,,,,,,,,3039.640324,3039.6561387,3039.6561387,3041.8379306999996,,,,3041.838181700001,3041.853893900001,3041.853893900001,3041.853893900001,3042.1534297,,3042.2707498,,,,,,,,,,,,,,,up,2.1731796999993094,None,space,0.40796750000117754,None,P126,001,2024-11-21_10h25.46.650,posner_endo_new1,2024.2.4,60.124192532623944,2024-11-21 10h25.54.089071 +0000,
0.31,0.005,23,23,0,down,2.102464499999769,None,space,0.36438730000008945,None,,,,,,,,,0,23,23,23,3042.286622400001,,,,,,,,,,,,3042.2709261,3042.286622400001,3042.286622400001,3044.4018978000004,,,,3044.402152800001,3044.4177402999994,3044.4177402999994,3044.4177402999994,3044.717501000001,,3044.7848904,,,,,,,,,,,,,,,down,2.102464499999769,None,space,0.36438730000008945,None,P126,001,2024-11-21_10h25.46.650,posner_endo_new1,2024.2.4,60.124192532623944,2024-11-21 10h25.54.089071 +0000,
-0.31,0.005,24,24,0,up,2.0440357999996195,None,space,0.373507400001472,None,,,,,,,,,0,24,24,24,3044.8008857000004,,,,,,,,,,,,3044.7850631,3044.8008857000004,3044.8008857000004,3046.849596100001,,,,3046.8498541999998,3046.8653713000003,3046.8653713000003,3046.8653713000003,3047.1651356,,3047.249078500001,,,,,,,,,,,,,,,up,2.0440357999996195,None,space,0.373507400001472,None,P126,001,2024-11-21_10h25.46.650,posner_endo_new1,2024.2.4,60.124192532623944,2024-11-21 10h25.54.089071 +0000,
10,0.005,25,25,0,down,2.379632500000298,None,None,,,,,,,,,,,0,25,25,25,3047.264921,,,,,,,,,,,,3047.2492492,3047.264921,3047.264921,3049.646656000001,,,,3049.6469063000004,3049.662605200001,3049.662605200001,3049.662605200001,3049.9621539,3050.678032400001,3052.6596494999994,,,,,,,,,,,,,,,down,2.379632500000298,None,None,,,P126,001,2024-11-21_10h25.46.650,posner_endo_new1,2024.2.4,60.124192532623944,2024-11-21 10h25.54.089071 +0000,
0.005,0.31,26,26,0,down,2.0808352999993076,None,space,0.414168499999505,None,,,,,,,,,0,26,26,26,3052.6761189999997,,,,,,,,,,,,3052.659815500001,3052.6761189999997,3052.6761189999997,3054.7581685000005,,,,3054.7584208999997,3054.7739887999996,3054.7739887999996,3054.7739887999996,3055.0735418000004,,3055.190901400001,,,,,,,,,,,,,,,down,2.0808352999993076,None,space,0.414168499999505,None,P126,001,2024-11-21_10h25.46.650,posner_endo_new1,2024.2.4,60.124192532623944,2024-11-21 10h25.54.089071 +0000,
0.31,0.005,27,27,0,up,2.1585754000007,None,space,0.47523569999975734,None,,,,,,,,,0,27,27,27,3055.2067853999997,,,,,,,,,,,,3055.1910762000007,3055.2067853999997,3055.2067853999997,3057.3719997999997,,,,3057.3722514,3057.3879565000007,3057.3879565000007,3057.3879565000007,3057.6876835000003,,3057.8715907999995,,,,,,,,,,,,,,,up,2.1585754000007,None,space,0.47523569999975734,None,P126,001,2024-11-21_10h25.46.650,posner_endo_new1,2024.2.4,60.124192532623944,2024-11-21 10h25.54.089071 +0000,
0.005,0.31,28,28,0,down,2.213376799998514,None,space,0.3878948000001401,None,,,,,,,,,0,28,28,28,3057.8874025000005,,,,,,,,,,,,3057.8717663999996,3057.8874025000005,3057.8874025000005,3060.102790000001,,,,3060.103041100001,3060.118353400001,3060.118353400001,3060.118353400001,3060.4181377000004,,3060.5188818999995,,,,,,,,,,,,,,,down,2.213376799998514,None,space,0.3878948000001401,None,P126,001,2024-11-21_10h25.46.650,posner_endo_new1,2024.2.4,60.124192532623944,2024-11-21 10h25.54.089071 +0000,
10,0.005,29,29,0,up,2.1189149000001635,None,None,,,,,,,,,,,0,29,29,29,3060.5345350000007,,,,,,,,,,,,3060.5190483999995,3060.5345350000007,3060.5345350000007,3062.6665123000002,,,,3062.6667689999995,3062.682428100001,3062.682428100001,3062.682428100001,3062.9822459000006,3063.681302000001,3065.6793921999997,,,,,,,,,,,,,,,up,2.1189149000001635,None,None,,,P126,001,2024-11-21_10h25.46.650,posner_endo_new1,2024.2.4,60.124192532623944,2024-11-21 10h25.54.089071 +0000,
0.005,-0.31,30,30,0,up,2.4129749999992782,None,space,0.3390933999999106,None,,,,,,,,,0,30,30,30,3065.696103800001,,,,,,,,,,,,3065.6795571000002,3065.696103800001,3065.696103800001,3068.1111825000007,,,,3068.1114500000003,3068.126921500001,3068.126921500001,3068.126921500001,3068.426553700001,,3068.4771745,,,,,,,,,,,,,,,up,2.4129749999992782,None,space,0.3390933999999106,None,P126,001,2024-11-21_10h25.46.650,posner_endo_new1,2024.2.4,60.124192532623944,2024-11-21 10h25.54.089071 +0000,
0.31,0.005,31,31,0,down,2.655596600001445,None,space,0.3502970000008645,None,,,,,,,,,0,31,31,31,3068.493290800001,,,,,,,,,,,,3068.4773453,3068.493290800001,3068.493290800001,3071.1579352999997,,,,3071.158196300001,3071.1736137000007,3071.1736137000007,3071.1736137000007,3071.473558900001,,3071.5407460000006,,,,,,,,,,,,,,,down,2.655596600001445,None,space,0.3502970000008645,None,P126,001,2024-11-21_10h25.46.650,posner_endo_new1,2024.2.4,60.124192532623944,2024-11-21 10h25.54.089071 +0000,
10,0.005,32,32,0,up,1.7684653000014805,None,None,,,,,,,,,,,0,32,32,32,3071.5565881,,,,,,,,,,,,3071.5409137999995,3071.5565881,3071.5565881,3073.3390762,,,,3073.3393424999995,3073.3550574,3073.3550574,3073.3550574,3073.6545700000006,3074.370495500001,3076.352020800001,,,,,,,,,,,,,,,up,1.7684653000014805,None,None,,,P126,001,2024-11-21_10h25.46.650,posner_endo_new1,2024.2.4,60.124192532623944,2024-11-21 10h25.54.089071 +0000,
-0.31,0.005,33,33,0,down,3.1564517000006163,None,space,0.36465990000033344,None,,,,,,,,,0,33,33,33,3076.3684192,,,,,,,,,,,,3076.3521874,3076.3684192,3076.3684192,3079.532709000001,,,,3079.5329593000006,3079.5484103,3079.5484103,3079.5484103,3079.8482416000006,,3079.9157729,,,,,,,,,,,,,,,down,3.1564517000006163,None,space,0.36465990000033344,None,P126,001,2024-11-21_10h25.46.650,posner_endo_new1,2024.2.4,60.124192532623944,2024-11-21 10h25.54.089071 +0000,
10,0.005,34,34,0,up,2.3065202999987378,None,None,,,,,,,,,,,0,34,34,34,3079.931564800001,,,,,,,,,,,,3079.9159407999996,3079.931564800001,3079.931564800001,3082.2465905999998,,,,3082.2468420000005,3082.2623698000007,3082.2623698000007,3082.2623698000007,3082.562193400001,3083.2613667000005,3085.2594809,,,,,,,,,,,,,,,up,2.3065202999987378,None,None,,,P126,001,2024-11-21_10h25.46.650,posner_endo_new1,2024.2.4,60.124192532623944,2024-11-21 10h25.54.089071 +0000,
0.005,-0.31,35,35,0,down,3.976900300000125,None,space,0.3144790999995166,None,,,,,,,,,0,35,35,35,3085.2760196,,,,,,,,,,,,3085.2596452,3085.2760196,3085.2760196,3089.255939800001,,,,3089.2561888,3089.2720042,3089.2720042,3089.2720042,3089.5717114,,3089.5891362,,,,,,,,,,,,,,,down,3.976900300000125,None,space,0.3144790999995166,None,P126,001,2024-11-21_10h25.46.650,posner_endo_new1,2024.2.4,60.124192532623944,2024-11-21 10h25.54.089071 +0000,
0.31,0.005,36,36,0,up,2.3276432000002387,None,space,0.30180379999910656,None,,,,,,,,,0,36,36,36,3089.6049972,,,,,,,,,,,,3089.589304000001,3089.6049972,3089.6049972,3091.9367514999994,,,,3091.937002300001,3091.9525097999995,3091.9525097999995,3091.9525097999995,3092.2522637,,3092.2696393999995,,,,,,,,,,,,,,,up,2.3276432000002387,None,space,0.30180379999910656,None,P126,001,2024-11-21_10h25.46.650,posner_endo_new1,2024.2.4,60.124192532623944,2024-11-21 10h25.54.089071 +0000,
10,0.005,37,37,0,down,1.7992235999990953,None,None,,,,,,,,,,,0,37,37,37,3092.2855333000007,,,,,,,,,,,,3092.2698125000006,3092.2855333000007,3092.2855333000007,3094.101167300001,,,,3094.1014188999998,3094.1170502000004,3094.1170502000004,3094.1170502000004,3094.4164923000008,3095.1159289000007,3097.114042000001,,,,,,,,,,,,,,,down,1.7992235999990953,None,None,,,P126,001,2024-11-21_10h25.46.650,posner_endo_new1,2024.2.4,60.124192532623944,2024-11-21 10h25.54.089071 +0000,
10,0.005,38,38,0,up,3.626876899999843,None,None,,,,,,,,,,,0,38,38,38,3097.1306005999995,,,,,,,,,,,,3097.114205400001,3097.1306005999995,3097.1306005999995,3100.761109500001,,,,3100.7613722999995,3100.776763400001,3100.776763400001,3100.776763400001,3101.076485900001,3101.7757321999998,3103.773893200001,,,,,,,,,,,,,,,up,3.626876899999843,None,None,,,P126,001,2024-11-21_10h25.46.650,posner_endo_new1,2024.2.4,60.124192532623944,2024-11-21 10h25.54.089071 +0000,
-0.31,0.005,39,39,0,up,1.8073500999998942,None,space,0.3477889999994659,None,,,,,,,,,0,39,39,39,3103.7904605000003,,,,,,,,,,,,3103.774059700001,3103.7904605000003,3103.7904605000003,3105.605920400001,,,,3105.606173100001,3105.6218769000006,3105.6218769000006,3105.6218769000006,3105.9216214000007,,3105.972447100001,,,,,,,,,,,,,,,up,1.8073500999998942,None,space,0.3477889999994659,None,P126,001,2024-11-21_10h25.46.650,posner_endo_new1,2024.2.4,60.124192532623944,2024-11-21 10h25.54.089071 +0000,
0.005,-0.31,40,40,0,down,1.5841122000001633,None,space,0.34209290000035253,None,,,,,,,,,0,40,40,40,3105.9885661999997,,,,,,,,,,,,3105.9726231000004,3105.9885661999997,3105.9885661999997,3107.5872502,,,,3107.5875020000003,3107.603212400001,3107.603212400001,3107.603212400001,3107.902831200001,,3107.9535628000012,,,,,,,,,,,,,,,down,1.5841122000001633,None,space,0.34209290000035253,None,P126,001,2024-11-21_10h25.46.650,posner_endo_new1,2024.2.4,60.124192532623944,2024-11-21 10h25.54.089071 +0000,
0.005,-0.31,41,41,0,up,1.619941099999778,None,space,0.32676790000004985,None,,,,,,,,,0,41,41,41,3107.9694911999995,,,,,,,,,,,,3107.953730000001,3107.9694911999995,3107.9694911999995,3109.6017281000004,,,,3109.6019856000003,3109.6178146,3109.6178146,3109.6178146,3109.917308,,3109.9516157,,,,,,,,,,,,,,,up,1.619941099999778,None,space,0.32676790000004985,None,P126,001,2024-11-21_10h25.46.650,posner_endo_new1,2024.2.4,60.124192532623944,2024-11-21 10h25.54.089071 +0000,
10,0.005,42,42,0,down,2.333615600000485,None,None,,,,,,,,,,,0,42,42,42,3109.9675055000007,,,,,,,,,,,,3109.9517902000007,3109.9675055000007,3109.9675055000007,3112.315731300001,,,,3112.3159940000005,3112.3316532999997,3112.3316532999997,3112.3316532999997,3112.6313204,3113.347285,3115.3286064000004,,,,,,,,,,,,,,,down,2.333615600000485,None,None,,,P126,001,2024-11-21_10h25.46.650,posner_endo_new1,2024.2.4,60.124192532623944,2024-11-21 10h25.54.089071 +0000,
0.005,-0.31,43,43,0,up,4.251957300000868,None,space,0.3812694999996893,None,,,,,,,,,0,43,43,43,3115.3453179999997,,,,,,,,,,,,3115.3287693,3115.3453179999997,3115.3453179999997,3119.608305900001,,,,3119.608561000001,3119.6240591000005,3119.6240591000005,3119.6240591000005,3119.9238941000003,,3120.0079229000003,,,,,,,,,,,,,,,up,4.251957300000868,None,space,0.3812694999996893,None,P126,001,2024-11-21_10h25.46.650,posner_endo_new1,2024.2.4,60.124192532623944,2024-11-21 10h25.54.089071 +0000,
-0.31,0.005,44,44,0,down,2.4289645999997447,None,space,0.40082950000032724,None,,,,,,,,,0,44,44,44,3120.023824400001,,,,,,,,,,,,3120.0080961000003,3120.023824400001,3120.023824400001,3122.4553957000007,,,,3122.4556529,3122.4713044,3122.4713044,3122.4713044,3122.7708657000003,,3122.888414700001,,,,,,,,,,,,,,,down,2.4289645999997447,None,space,0.40082950000032724,None,P126,001,2024-11-21_10h25.46.650,posner_endo_new1,2024.2.4,60.124192532623944,2024-11-21 10h25.54.089071 +0000,
10,0.005,45,45,0,up,1.8605900000002293,None,None,,,,,,,,,,,0,45,45,45,3122.904220300001,,,,,,,,,,,,3122.8885843999997,3122.904220300001,3122.904220300001,3124.7698015000005,,,,3124.7700607000006,3124.785625800001,3124.785625800001,3124.785625800001,3125.0852868,3125.8012999000002,3127.7827436999996,,,,,,,,,,,,,,,up,1.8605900000002293,None,None,,,P126,001,2024-11-21_10h25.46.650,posner_endo_new1,2024.2.4,60.124192532623944,2024-11-21 10h25.54.089071 +0000,
0.005,0.31,46,46,0,down,4.158052700000553,None,space,0.3619189000000915,None,,,,,,,,,0,46,46,46,3127.7991882999995,,,,,,,,,,,,3127.7829089999996,3127.7991882999995,3127.7991882999995,3131.9623997,,,,3131.962658100001,3131.9781432,3131.9781432,3131.9781432,3132.2779505,,3132.3454241,,,,,,,,,,,,,,,down,4.158052700000553,None,space,0.3619189000000915,None,P126,001,2024-11-21_10h25.46.650,posner_endo_new1,2024.2.4,60.124192532623944,2024-11-21 10h25.54.089071 +0000,
0.005,-0.31,47,47,0,up,1.8998408000006748,None,space,0.37147149999873363,None,,,,,,,,,0,47,47,47,3132.3612224000008,,,,,,,,,,,,3132.3455926000006,3132.3612224000008,3132.3612224000008,3134.2765946,,,,3134.2768457,3134.2925545,3134.2925545,3134.2925545,3134.5922615,,3134.6761169,,,,,,,,,,,,,,,up,1.8998408000006748,None,space,0.37147149999873363,None,P126,001,2024-11-21_10h25.46.650,posner_endo_new1,2024.2.4,60.124192532623944,2024-11-21 10h25.54.089071 +0000,
0.31,0.005,48,48,0,down,2.0964736999994784,None,space,0.4136873999996169,None,,,,,,,,,0,48,48,48,3134.6920604000006,,,,,,,,,,,,3134.6762959999996,3134.6920604000006,3134.6920604000006,3136.790851900001,,,,3136.7911038,3136.8065475000003,3136.8065475000003,3136.8065475000003,3137.106355600001,,3137.2236231000006,,,,,,,,,,,,,,,down,2.0964736999994784,None,space,0.4136873999996169,None,P126,001,2024-11-21_10h25.46.650,posner_endo_new1,2024.2.4,60.124192532623944,2024-11-21 10h25.54.089071 +0000,
-0.31,0.005,49,49,0,up,2.101560099999915,None,space,0.31869100000039907,None,,,,,,,,,0,49,49,49,3137.239512,,,,,,,,,,,,3137.223792300001,3137.239512,3137.239512,3139.354550600001,,,,3139.3548006,3139.3705589,3139.3705589,3139.3705589,3139.6704546,,3139.704394100001,,,,,,,,,,,,,,,up,2.101560099999915,None,space,0.31869100000039907,None,P126,001,2024-11-21_10h25.46.650,posner_endo_new1,2024.2.4,60.124192532623944,2024-11-21 10h25.54.089071 +0000,
0.005,0.31,50,50,0,down,2.3325027999999293,None,space,0.34663069999987783,None,,,,,,,,,0,50,50,50,3139.7204911999997,,,,,,,,,,,,3139.7045646000006,3139.7204911999997,3139.7204911999997,3142.0686657999995,,,,3142.068916600001,3142.0844670999995,3142.0844670999995,3142.0844670999995,3142.3842416999996,,3142.434967500001,,,,,,,,,,,,,,,down,2.3325027999999293,None,space,0.34663069999987783,None,P126,001,2024-11-21_10h25.46.650,posner_endo_new1,2024.2.4,60.124192532623944,2024-11-21 10h25.54.089071 +0000,
0.005,0.31,51,51,0,up,1.698371299999053,None,space,0.3751463999997213,None,,,,,,,,,0,51,51,51,3142.450807200001,,,,,,,,,,,,3142.435143500001,3142.450807200001,3142.450807200001,3144.149970800001,,,,3144.1502259999997,3144.1657312000007,3144.1657312000007,3144.1657312000007,3144.465335500001,,3144.549315600001,,,,,,,,,,,,,,,up,1.698371299999053,None,space,0.3751463999997213,None,P126,001,2024-11-21_10h25.46.650,posner_endo_new1,2024.2.4,60.124192532623944,2024-11-21 10h25.54.089071 +0000,
10,0.005,52,52,0,down,2.2000530999994226,None,None,,,,,,,,,,,0,52,52,52,3144.565213,,,,,,,,,,,,3144.5494894000003,3144.565213,3144.565213,3146.7805584,,,,3146.7808098999994,3146.7962676999996,3146.7962676999996,3146.7962676999996,3147.0960300999996,3147.7953583,3149.7937058000007,,,,,,,,,,,,,,,down,2.2000530999994226,None,None,,,P126,001,2024-11-21_10h25.46.650,posner_endo_new1,2024.2.4,60.124192532623944,2024-11-21 10h25.54.089071 +0000,
-0.31,0.005,53,53,0,up,4.083628799999133,None,space,0.413593100000071,None,,,,,,,,,0,53,53,53,3149.8097478,,,,,,,,,,,,3149.7938790999997,3149.8097478,3149.8097478,3153.906524600001,,,,3153.9067751000002,3153.9224302000002,3153.9224302000002,3153.9224302000002,3154.2221625,,3154.3395676,,,,,,,,,,,,,,,up,4.083628799999133,None,space,0.413593100000071,None,P126,001,2024-11-21_10h25.46.650,posner_endo_new1,2024.2.4,60.124192532623944,2024-11-21 10h25.54.089071 +0000,
10,0.005,54,54,0,down,2.0731243999998696,None,None,,,,,,,,,,,0,54,54,54,3154.355285400001,,,,,,,,,,,,3154.339735900001,3154.355285400001,3154.355285400001,3156.437198900001,,,,3156.4374477,3156.452996600001,3156.452996600001,3156.452996600001,3156.7528385999994,3157.4522247000004,3159.4503228000012,,,,,,,,,,,,,,,down,2.0731243999998696,None,None,,,P126,001,2024-11-21_10h25.46.650,posner_endo_new1,2024.2.4,60.124192532623944,2024-11-21 10h25.54.089071 +0000,
0.005,0.31,55,55,0,up,6.306424099999276,None,space,0.5146088000001328,None,,,,,,,,,0,55,55,55,3159.466786000001,,,,,,,,,,,,3159.4504847999997,3159.466786000001,3159.466786000001,3165.7777449000005,,,,3165.7780022999996,3165.793717800001,3165.793717800001,3165.793717800001,3166.0933741999997,,3166.310486800001,,,,,,,,,,,,,,,up,6.306424099999276,None,space,0.5146088000001328,None,P126,001,2024-11-21_10h25.46.650,posner_endo_new1,2024.2.4,60.124192532623944,2024-11-21 10h25.54.089071 +0000,
0.005,-0.31,56,56,0,down,2.7269333000003826,None,space,0.4324605999991036,None,,,,,,,,,0,56,56,56,3166.3263835,,,,,,,,,,,,3166.3106532,3166.3263835,3166.3263835,3169.057655300001,,,,3169.0579063000005,3169.0735208999995,3169.0735208999995,3169.0735208999995,3169.3732254000006,,3169.5073802000006,,,,,,,,,,,,,,,down,2.7269333000003826,None,space,0.4324605999991036,None,P126,001,2024-11-21_10h25.46.650,posner_endo_new1,2024.2.4,60.124192532623944,2024-11-21 10h25.54.089071 +0000,
0.005,0.31,57,57,0,up,2.153602599999431,None,space,0.3661753999986104,None,,,,,,,,,0,57,57,57,3169.5231366999997,,,,,,,,,,,,3169.5075455999995,3169.5231366999997,3169.5231366999997,3171.688405000001,,,,3171.6886558999995,3171.7041424,3171.7041424,3171.7041424,3172.0038931,,3172.0713582000008,,,,,,,,,,,,,,,up,2.153602599999431,None,space,0.3661753999986104,None,P126,001,2024-11-21_10h25.46.650,posner_endo_new1,2024.2.4,60.124192532623944,2024-11-21 10h25.54.089071 +0000,
-0.31,0.005,58,58,0,down,2.5261165000010806,None,space,0.4388964000008855,None,,,,,,,,,0,58,58,58,3172.0870557,,,,,,,,,,,,3172.071523800001,3172.0870557,3172.0870557,3174.6187334000006,,,,3174.6189852999996,3174.6344919000003,3174.6344919000003,3174.6344919000003,3174.9342615999994,,3175.0848246999994,,,,,,,,,,,,,,,down,2.5261165000010806,None,space,0.4388964000008855,None,P126,001,2024-11-21_10h25.46.650,posner_endo_new1,2024.2.4,60.124192532623944,2024-11-21 10h25.54.089071 +0000,
-0.31,0.005,59,59,0,up,1.8324515000003885,None,space,0.36287090000041644,None,,,,,,,,,0,59,59,59,3175.100685700001,,,,,,,,,,,,3175.0850011,3175.100685700001,3175.100685700001,3176.949485000001,,,,3176.9497388,3176.965482900001,3176.965482900001,3176.965482900001,3177.2652068000007,,3177.3327742,,,,,,,,,,,,,,,up,1.8324515000003885,None,space,0.36287090000041644,None,P126,001,2024-11-21_10h25.46.650,posner_endo_new1,2024.2.4,60.124192532623944,2024-11-21 10h25.54.089071 +0000,
