target_y,target_x,thisN,thisTrialN,thisRepN,key_control2.keys,key_control2.rt,key_control2.duration,key_resp.keys,key_resp.rt,key_resp.duration,practice.thisRepN,practice.thisTrialN,practice.thisN,practice.thisIndex,session_1.thisRepN,session_1.thisTrialN,session_1.thisN,session_1.thisIndex,session_2.thisRepN,session_2.thisTrialN,session_2.thisN,session_2.thisIndex,thisRow.t,notes,instructions.started,instructions_txt.started,key_control.started,instructions.stopped,key_control.keys,key_control.rt,key_control.duration,ready.started,ready_txt.started,ready.stopped,fix.started,key_control2.started,fixation_cross.started,fix.stopped,practice.key_control2.keys,practice.key_control2.rt,practice.key_control2.duration,target.started,star.started,fixation_cross_target.started,key_resp.started,star.stopped,target.stopped,practice.key_resp.keys,practice.key_resp.rt,practice.key_resp.duration,key_resp.stopped,session_1.key_control2.keys,session_1.key_control2.rt,session_1.key_control2.duration,session_1.key_resp.keys,session_1.key_resp.rt,session_1.key_resp.duration,break_2.started,text.started,key_control3.started,break_2.stopped,key_control3.keys,session_2.key_control2.keys,session_2.key_control2.rt,session_2.key_control2.duration,session_2.key_resp.keys,session_2.key_resp.rt,session_2.key_resp.duration,participant,session,date,expName,psychopyVersion,frameRate,expStart,
,,,,,,,,,,,,,,,,,,,,,,,,,0.007453500000337954,0.029422600000543753,0.029422600000543753,5517.5713043,up,5517.523098200001,None,,,,,,,,,,,,,,,,,,,,,,,,,,,,,,,,,,,,,,P127,001,2024-11-21_11h30.10.426,posner_endo_new1,2024.2.4,60.17343186501619,2024-11-21 11h30.19.865600 +0000,
,,,,,,,,,,,,,,,,,,,,,,,,,,,,,,,,5517.571365399999,5517.584824699999,5520.580939899999,,,,,,,,,,,,,,,,,,,,,,,,,,,,,,,,,,,P127,001,2024-11-21_11h30.10.426,posner_endo_new1,2024.2.4,60.17343186501619,2024-11-21 11h30.19.865600 +0000,
0.005,-0.31,0,0,0,down,4.688008600001922,None,space,0.6285064000003331,None,0,0,0,5,,,,,,,,,5520.599540800002,,,,,,,,,,,,5520.589263400001,5520.599540800002,5520.599540800002,5525.2933505,down,4.688008600001922,None,5525.293634900001,5525.309305300001,5525.309305300001,5525.309305300001,5525.608966600001,5525.943056100001,space,0.6285064000003331,None,,,,,,,,,,,,,,,,,,,P127,001,2024-11-21_11h30.10.426,posner_endo_new1,2024.2.4,60.17343186501619,2024-11-21 11h30.19.865600 +0000,
-0.31,0.005,1,1,0,up,16.45771009999953,None,space,0.4916809000023932,None,0,1,1,0,,,,,,,,,5525.958502900001,,,,,,,,,,,,5525.943217700002,5525.958502900001,5525.958502900001,5542.4260827,up,16.45771009999953,None,5542.4263562000015,5542.441652000001,5542.441652000001,5542.441652000001,5542.7415016999985,5542.941982,space,0.4916809000023932,None,,,,,,,,,,,,,,,,,,,P127,001,2024-11-21_11h30.10.426,posner_endo_new1,2024.2.4,60.17343186501619,2024-11-21 11h30.19.865600 +0000,
0.005,0.31,2,2,0,down,7.506379899998137,None,space,0.3771935000004305,None,0,2,2,6,,,,,,,,,5542.957796899998,,,,,,,,,,,,5542.942140200001,5542.957796899998,5542.957796899998,5550.467624199999,down,7.506379899998137,None,5550.4678805,5550.483375299998,5550.483375299998,5550.483375299998,5550.783147599999,5550.867386900001,space,0.3771935000004305,None,,,,,,,,,,,,,,,,,,,P127,001,2024-11-21_11h30.10.426,posner_endo_new1,2024.2.4,60.17343186501619,2024-11-21 11h30.19.865600 +0000,
-0.31,0.005,3,3,0,up,3.390264499998011,None,space,0.3978295999986585,None,0,3,3,2,,,,,,,,,5550.8828221,,,,,,,,,,,,5550.867544100001,5550.8828221,5550.8828221,5554.280584200002,up,3.390264499998011,None,5554.280839300001,5554.2961276999995,5554.2961276999995,5554.2961276999995,5554.595870900001,5554.6967018,space,0.3978295999986585,None,,,,,,,,,,,,,,,,,,,P127,001,2024-11-21_11h30.10.426,posner_endo_new1,2024.2.4,60.17343186501619,2024-11-21 11h30.19.865600 +0000,
0.31,0.005,4,4,0,down,8.82279440000275,None,space,0.34566590000031283,None,0,4,4,3,,,,,,,,,5554.7130019,,,,,,,,,,,,5554.696864199999,5554.7130019,5554.7130019,5563.537764100001,down,8.82279440000275,None,5563.538031399999,5563.5533799,5563.5533799,5563.5533799,5563.853096999999,5563.9039748,space,0.34566590000031283,None,,,,,,,,,,,,,,,,,,,P127,001,2024-11-21_11h30.10.426,posner_endo_new1,2024.2.4,60.17343186501619,2024-11-21 11h30.19.865600 +0000,
0.005,0.31,5,5,0,up,3.6485945000022184,None,space,0.3361728999989282,None,0,5,5,8,,,,,,,,,5563.919700300001,,,,,,,,,,,,5563.904135100001,5563.919700300001,5563.919700300001,5567.583467500001,up,3.6485945000022184,None,5567.583725,5567.599387999999,5567.599387999999,5567.599387999999,5567.898930300002,5567.949599,space,0.3361728999989282,None,,,,,,,,,,,,,,,,,,,P127,001,2024-11-21_11h30.10.426,posner_endo_new1,2024.2.4,60.17343186501619,2024-11-21 11h30.19.865600 +0000,
0.005,10,6,6,0,down,7.2743881000023976,None,None,,,0,6,6,9,,,,,,,,,5567.9656178000005,,,,,,,,,,,,5567.949754900001,5567.9656178000005,5567.9656178000005,5575.2422916,down,7.2743881000023976,None,5575.2425497,5575.258142400002,5575.258142400002,5575.258142400002,5575.557772799999,5578.255116100001,None,,,5576.2737357000005,,,,,,,,,,,,,,,,,,P127,001,2024-11-21_11h30.10.426,posner_endo_new1,2024.2.4,60.17343186501619,2024-11-21 11h30.19.865600 +0000,
0.005,-0.31,7,7,0,up,1.0559926999994786,None,space,0.31603809999796795,None,0,7,7,7,,,,,,,,,5578.271724099999,,,,,,,,,,,,5578.255272499999,5578.271724099999,5578.271724099999,5579.3379644000015,up,1.0559926999994786,None,5579.338222999999,5579.353962000001,5579.353962000001,5579.353962000001,5579.6534173,5579.671018199999,space,0.31603809999796795,None,,,,,,,,,,,,,,,,,,,P127,001,2024-11-21_11h30.10.426,posner_endo_new1,2024.2.4,60.17343186501619,2024-11-21 11h30.19.865600 +0000,
10,0.005,8,8,0,down,6.776682199997595,None,None,,,0,8,8,4,,,,,,,,,5579.686796900001,,,,,,,,,,,,5579.671172999999,5579.686796900001,5579.686796900001,5586.4642652,down,6.776682199997595,None,5586.464534800001,5586.479856099999,5586.479856099999,5586.479856099999,5586.779692700002,5589.4770376000015,None,,,5587.478891300001,,,,,,,,,,,,,,,,,,P127,001,2024-11-21_11h30.10.426,posner_endo_new1,2024.2.4,60.17343186501619,2024-11-21 11h30.19.865600 +0000,
0.31,0.005,9,9,0,up,0.2825373000014224,None,space,0.33064899999953923,None,0,9,9,1,,,,,,,,,5589.493596200002,,,,,,,,,,,,5589.4772008,5589.493596200002,5589.493596200002,5589.777554100001,up,0.2825373000014224,None,5589.777812,5589.793238800001,5589.793238800001,5589.793238800001,5590.092794299999,5590.126927099998,space,0.33064899999953923,None,,,,,,,,,,,,,,,,,,,P127,001,2024-11-21_11h30.10.426,posner_endo_new1,2024.2.4,60.17343186501619,2024-11-21 11h30.19.865600 +0000,
,,,,,,,,,,,,,,,,,,,,,,,,,,,,,,,,5590.127034000001,5590.1429245,5593.139704100002,,,,,,,,,,,,,,,,,,,,,,,,,,,,,,,,,,,P127,001,2024-11-21_11h30.10.426,posner_endo_new1,2024.2.4,60.17343186501619,2024-11-21 11h30.19.865600 +0000,
-0.31,0.005,0,0,0,down,25.35346479999862,None,space,0.34251399999993737,None,,,,,0,0,0,0,,,,,5593.158995000002,,,,,,,,,,,,5593.148019100001,5593.158995000002,5593.158995000002,5618.514870899999,,,,5618.515150300002,5618.530580999999,5618.530580999999,5618.530580999999,5618.830198200001,5618.8807892,,,,,down,25.35346479999862,None,space,0.34251399999993737,None,,,,,,,,,,,,P127,001,2024-11-21_11h30.10.426,posner_endo_new1,2024.2.4,60.17343186501619,2024-11-21 11h30.19.865600 +0000,
0.005,0.31,1,1,0,up,4.51929349999773,None,space,0.32291559999794117,None,,,,,0,1,1,1,,,,,5618.8966857999985,,,,,,,,,,,,5618.880957400001,5618.8966857999985,5618.8966857999985,5623.426300499999,,,,5623.426560600001,5623.442140800002,5623.442140800002,5623.442140800002,5623.7418975,5623.775820999999,,,,,up,4.51929349999773,None,space,0.32291559999794117,None,,,,,,,,,,,,P127,001,2024-11-21_11h30.10.426,posner_endo_new1,2024.2.4,60.17343186501619,2024-11-21 11h30.19.865600 +0000,
0.31,0.005,2,2,0,down,7.488111099999514,None,space,0.34422450000056415,None,,,,,0,2,2,2,,,,,5623.791856200001,,,,,,,,,,,,5623.775985100001,5623.791856200001,5623.791856200001,5631.2850196,,,,5631.285278300002,5631.300767799999,5631.300767799999,5631.300767799999,5631.600474499999,5631.651119099999,,,,,down,7.488111099999514,None,space,0.34422450000056415,None,,,,,,,,,,,,P127,001,2024-11-21_11h30.10.426,posner_endo_new1,2024.2.4,60.17343186501619,2024-11-21 11h30.19.865600 +0000,
0.31,0.005,3,3,0,up,5.388407800001005,None,space,0.3596326999977464,None,,,,,0,3,3,3,,,,,5631.6670863,,,,,,,,,,,,5631.6512821,5631.6670863,5631.6670863,5637.062253600001,,,,5637.062514599998,5637.078130999998,5637.078130999998,5637.078130999998,5637.377804399999,5637.445329400001,,,,,up,5.388407800001005,None,space,0.3596326999977464,None,,,,,,,,,,,,P127,001,2024-11-21_11h30.10.426,posner_endo_new1,2024.2.4,60.17343186501619,2024-11-21 11h30.19.865600 +0000,
-0.31,0.005,4,4,0,down,8.36295379999865,None,space,0.3574622999985877,None,,,,,0,4,4,4,,,,,5637.461097700001,,,,,,,,,,,,5637.4454928999985,5637.461097700001,5637.461097700001,5645.836573500001,,,,5645.836832699999,5645.852409300001,5645.852409300001,5645.852409300001,5646.152280599999,5646.219646900001,,,,,down,8.36295379999865,None,space,0.3574622999985877,None,,,,,,,,,,,,P127,001,2024-11-21_11h30.10.426,posner_endo_new1,2024.2.4,60.17343186501619,2024-11-21 11h30.19.865600 +0000,
0.005,-0.31,5,5,0,up,4.580641900000046,None,space,0.45641450000039185,None,,,,,0,5,5,5,,,,,5646.235350899999,,,,,,,,,,,,5646.2198107,5646.235350899999,5646.235350899999,5650.831512100001,,,,5650.831770500001,5650.847318799999,5650.847318799999,5650.847318799999,5651.147103300002,5651.3144904,,,,,up,4.580641900000046,None,space,0.45641450000039185,None,,,,,,,,,,,,P127,001,2024-11-21_11h30.10.426,posner_endo_new1,2024.2.4,60.17343186501619,2024-11-21 11h30.19.865600 +0000,
0.005,-0.31,6,6,0,down,8.333710099999735,None,space,0.32113919999756035,None,,,,,0,6,6,6,,,,,5651.3301729999985,,,,,,,,,,,,5651.3146533,5651.3301729999985,5651.3301729999985,5659.6727943000005,,,,5659.673060100002,5659.6882893,5659.6882893,5659.6882893,5659.9879736,5660.0222111,,,,,down,8.333710099999735,None,space,0.32113919999756035,None,,,,,,,,,,,,P127,001,2024-11-21_11h30.10.426,posner_endo_new1,2024.2.4,60.17343186501619,2024-11-21 11h30.19.865600 +0000,
10,0.005,7,7,0,up,4.714528200001951,None,None,,,,,,,0,7,7,7,,,,,5660.0378165,,,,,,,,,,,,5660.022374600001,5660.0378165,5660.0378165,5664.767082499999,,,,5664.767342800002,5664.783172399999,5664.783172399999,5664.783172399999,5665.082896700002,5667.780104199999,,,,5665.798679799998,up,4.714528200001951,None,None,,,,,,,,,,,,,,P127,001,2024-11-21_11h30.10.426,posner_endo_new1,2024.2.4,60.17343186501619,2024-11-21 11h30.19.865600 +0000,
-0.31,0.005,8,8,0,down,5.107262799996533,None,space,0.33129079999707756,None,,,,,0,8,8,8,,,,,5667.796703299999,,,,,,,,,,,,5667.7802639,5667.796703299999,5667.796703299999,5672.9089423000005,,,,5672.9092055,5672.924675800001,5672.924675800001,5672.924675800001,5673.2242805999995,5673.258674000001,,,,,down,5.107262799996533,None,space,0.33129079999707756,None,,,,,,,,,,,,P127,001,2024-11-21_11h30.10.426,posner_endo_new1,2024.2.4,60.17343186501619,2024-11-21 11h30.19.865600 +0000,
0.005,0.31,9,9,0,up,4.0780114000008325,None,space,0.5981558000021323,None,,,,,0,9,9,9,,,,,5673.274292400001,,,,,,,,,,,,5673.2588378,5673.274292400001,5673.274292400001,5677.354375499999,,,,5677.3546336,5677.3703246000005,5677.3703246000005,5677.3703246000005,5677.6697915,5677.970534,,,,,up,4.0780114000008325,None,space,0.5981558000021323,None,,,,,,,,,,,,P127,001,2024-11-21_11h30.10.426,posner_endo_new1,2024.2.4,60.17343186501619,2024-11-21 11h30.19.865600 +0000,
0.005,-0.31,10,10,0,down,7.469206199999462,None,space,0.36110460000054445,None,,,,,0,10,10,10,,,,,5677.986238000001,,,,,,,,,,,,5677.970698599998,5677.986238000001,5677.986238000001,5685.462972400001,,,,5685.4633455,5685.478483700001,5685.478483700001,5685.478483700001,5685.7782763,5685.846055000002,,,,,down,7.469206199999462,None,space,0.36110460000054445,None,,,,,,,,,,,,P127,001,2024-11-21_11h30.10.426,posner_endo_new1,2024.2.4,60.17343186501619,2024-11-21 11h30.19.865600 +0000,
0.005,0.31,11,11,0,up,4.555573199999344,None,space,0.3659564000008686,None,,,,,0,11,11,11,,,,,5685.8614732999995,,,,,,,,,,,,5685.846291900001,5685.8614732999995,5685.8614732999995,5690.424543000001,,,,5690.424899199999,5690.440112699998,5690.440112699998,5690.440112699998,5690.739805699999,5690.807562400001,,,,,up,4.555573199999344,None,space,0.3659564000008686,None,,,,,,,,,,,,P127,001,2024-11-21_11h30.10.426,posner_endo_new1,2024.2.4,60.17343186501619,2024-11-21 11h30.19.865600 +0000,
10,0.005,12,12,0,down,7.944577099999151,None,None,,,,,,,0,12,12,12,,,,,5690.822982599999,,,,,,,,,,,,5690.807810999999,5690.822982599999,5690.822982599999,5698.782613200001,,,,5698.7829704,5698.7982367,5698.7982367,5698.7982367,5699.097842800002,5701.795247800001,,,,5699.813838400001,down,7.944577099999151,None,None,,,,,,,,,,,,,,P127,001,2024-11-21_11h30.10.426,posner_endo_new1,2024.2.4,60.17343186501619,2024-11-21 11h30.19.865600 +0000,
0.31,0.005,13,13,0,up,2.556188700000348,None,space,0.31831360000069253,None,,,,,0,13,13,13,,,,,5701.8117327,,,,,,,,,,,,5701.7954694,5701.8117327,5701.8117327,5704.376965899999,,,,5704.377322100001,5704.3925003,5704.3925003,5704.3925003,5704.692203400002,5704.726633999999,,,,,up,2.556188700000348,None,space,0.31831360000069253,None,,,,,,,,,,,,P127,001,2024-11-21_11h30.10.426,posner_endo_new1,2024.2.4,60.17343186501619,2024-11-21 11h30.19.865600 +0000,
10,0.005,14,14,0,down,18.92166290000023,None,None,,,,,,,0,14,14,14,,,,,5704.7420901000005,,,,,,,,,,,,5704.726881400002,5704.7420901000005,5704.7420901000005,5723.6738315,,,,5723.674186200002,5723.6893998999985,5723.6893998999985,5723.6893998999985,5723.989126100001,5726.6865827,,,,5724.688548400001,down,18.92166290000023,None,None,,,,,,,,,,,,,,P127,001,2024-11-21_11h30.10.426,posner_endo_new1,2024.2.4,60.17343186501619,2024-11-21 11h30.19.865600 +0000,
-0.31,0.005,15,15,0,up,1.200659900001483,None,space,0.3789684000003035,None,,,,,0,15,15,15,,,,,5726.703031500001,,,,,,,,,,,,5726.6867447,5726.703031500001,5726.703031500001,5727.919201500001,,,,5727.919460699999,5727.935035400002,5727.935035400002,5727.935035400002,5728.234769800001,5728.3188507999985,,,,,up,1.200659900001483,None,space,0.3789684000003035,None,,,,,,,,,,,,P127,001,2024-11-21_11h30.10.426,posner_endo_new1,2024.2.4,60.17343186501619,2024-11-21 11h30.19.865600 +0000,
0.005,-0.31,16,16,0,down,7.360951700000442,None,space,0.33298029999787104,None,,,,,0,16,16,16,,,,,5728.334726100002,,,,,,,,,,,,5728.319022299998,5728.334726100002,5728.334726100002,5735.711294699999,,,,5735.711553199999,5735.727108899999,5735.727108899999,5735.727108899999,5736.026772000001,5736.061071799999,,,,,down,7.360951700000442,None,space,0.33298029999787104,None,,,,,,,,,,,,P127,001,2024-11-21_11h30.10.426,posner_endo_new1,2024.2.4,60.17343186501619,2024-11-21 11h30.19.865600 +0000,
0.005,0.31,17,17,0,up,6.043278199998895,None,space,0.3596996999986004,None,,,,,0,17,17,17,,,,,5736.0766974,,,,,,,,,,,,5736.0612354,5736.0766974,5736.0766974,5742.121541500001,,,,5742.1217989,5742.137209199998,5742.137209199998,5742.137209199998,5742.4368087,5742.504369300001,,,,,up,6.043278199998895,None,space,0.3596996999986004,None,,,,,,,,,,,,P127,001,2024-11-21_11h30.10.426,posner_endo_new1,2024.2.4,60.17343186501619,2024-11-21 11h30.19.865600 +0000,
-0.31,0.005,18,18,0,down,10.64768019999974,None,space,0.5261127000012493,None,,,,,0,18,18,18,,,,,5742.520182799999,,,,,,,,,,,,5742.504534899999,5742.520182799999,5742.520182799999,5753.176838799998,,,,5753.177098100001,5753.192371500001,5753.192371500001,5753.192371500001,5753.4922587,5753.726188299999,,,,,down,10.64768019999974,None,space,0.5261127000012493,None,,,,,,,,,,,,P127,001,2024-11-21_11h30.10.426,posner_endo_new1,2024.2.4,60.17343186501619,2024-11-21 11h30.19.865600 +0000,
10,0.005,19,19,0,up,5.321352699997078,None,None,,,,,,,0,19,19,19,,,,,5753.742002200001,,,,,,,,,,,,5753.726357300002,5753.742002200001,5753.742002200001,5759.070497699999,,,,5759.0707551999985,5759.086629699999,5759.086629699999,5759.086629699999,5759.3861937,5762.0834975,,,,5760.102226999999,up,5.321352699997078,None,None,,,,,,,,,,,,,,P127,001,2024-11-21_11h30.10.426,posner_endo_new1,2024.2.4,60.17343186501619,2024-11-21 11h30.19.865600 +0000,
0.005,0.31,20,20,0,down,6.61165869999968,None,space,0.35652480000135256,None,,,,,0,20,20,20,,,,,5762.100167299999,,,,,,,,,,,,5762.083659799999,5762.100167299999,5762.100167299999,5768.727468100002,,,,5768.727737599998,5768.743378200001,5768.743378200001,5768.743378200001,5769.043009100002,5769.110540599999,,,,,down,6.61165869999968,None,space,0.35652480000135256,None,,,,,,,,,,,,P127,001,2024-11-21_11h30.10.426,posner_endo_new1,2024.2.4,60.17343186501619,2024-11-21 11h30.19.865600 +0000,
0.005,-0.31,21,21,0,up,3.8418447000003653,None,space,0.4619032000009611,None,,,,,0,21,21,21,,,,,5769.126310700001,,,,,,,,,,,,5769.1107051,5769.126310700001,5769.126310700001,5772.973088999999,,,,5772.973351299999,5772.9890333,5772.9890333,5772.9890333,5773.2886593,5773.4559548,,,,,up,3.8418447000003653,None,space,0.4619032000009611,None,,,,,,,,,,,,P127,001,2024-11-21_11h30.10.426,posner_endo_new1,2024.2.4,60.17343186501619,2024-11-21 11h30.19.865600 +0000,
0.005,0.31,22,22,0,down,5.824117800002568,None,space,0.5033954999998969,None,,,,,0,22,22,22,,,,,5773.471978500002,,,,,,,,,,,,5773.4561189000015,5773.471978500002,5773.471978500002,5779.299985099999,,,,5779.300264599999,5779.315763499999,5779.315763499999,5779.315763499999,5779.6154909,5779.832701200001,,,,,down,5.824117800002568,None,space,0.5033954999998969,None,,,,,,,,,,,,P127,001,2024-11-21_11h30.10.426,posner_endo_new1,2024.2.4,60.17343186501619,2024-11-21 11h30.19.865600 +0000,
0.31,0.005,23,23,0,up,3.766972800000076,None,space,0.4523568000004161,None,,,,,0,23,23,23,,,,,5779.848688999999,,,,,,,,,,,,5779.832864799999,5779.848688999999,5779.848688999999,5783.6288198,,,,5783.629083899999,5783.644872299999,5783.644872299999,5783.644872299999,5783.9442447,5784.111521700001,,,,,up,3.766972800000076,None,space,0.4523568000004161,None,,,,,,,,,,,,P127,001,2024-11-21_11h30.10.426,posner_endo_new1,2024.2.4,60.17343186501619,2024-11-21 11h30.19.865600 +0000,
0.005,0.31,24,24,0,down,8.416332799999509,None,space,0.5003207000008842,None,,,,,0,24,24,24,,,,,5784.127537200002,,,,,,,,,,,,5784.111685399999,5784.127537200002,5784.127537200002,5792.553081800001,,,,5792.553370000001,5792.5688715,5792.5688715,5792.5688715,5792.868485300001,5793.085876699999,,,,,down,8.416332799999509,None,space,0.5003207000008842,None,,,,,,,,,,,,P127,001,2024-11-21_11h30.10.426,posner_endo_new1,2024.2.4,60.17343186501619,2024-11-21 11h30.19.865600 +0000,
0.31,0.005,25,25,0,up,3.753519399997458,None,space,0.4677728999995452,None,,,,,0,25,25,25,,,,,5793.101693500001,,,,,,,,,,,,5793.0860422000005,5793.101693500001,5793.101693500001,5796.865342699999,,,,5796.8656013,5796.881149699999,5796.881149699999,5796.881149699999,5797.180881600001,5797.364864200001,,,,,up,3.753519399997458,None,space,0.4677728999995452,None,,,,,,,,,,,,P127,001,2024-11-21_11h30.10.426,posner_endo_new1,2024.2.4,60.17343186501619,2024-11-21 11h30.19.865600 +0000,
10,0.005,26,26,0,down,7.3791242000006605,None,None,,,,,,,0,26,26,26,,,,,5797.3805273,,,,,,,,,,,,5797.365027100001,5797.3805273,5797.3805273,5804.7738364,,,,5804.774095299999,5804.7898768999985,5804.7898768999985,5804.7898768999985,5805.0893474,5807.786798900001,,,,5805.8054137,down,7.3791242000006605,None,None,,,,,,,,,,,,,,P127,001,2024-11-21_11h30.10.426,posner_endo_new1,2024.2.4,60.17343186501619,2024-11-21 11h30.19.865600 +0000,
10,0.005,27,27,0,up,0.26073180000094,None,None,,,,,,,0,27,27,27,,,,,5807.8032907000015,,,,,,,,,,,,5807.7869646,5807.8032907000015,5807.8032907000015,5808.070353200001,,,,5808.0706107000005,5808.086337600002,5808.086337600002,5808.086337600002,5808.385940700002,5811.0835013,,,,5809.085371699999,up,0.26073180000094,None,None,,,,,,,,,,,,,,P127,001,2024-11-21_11h30.10.426,posner_endo_new1,2024.2.4,60.17343186501619,2024-11-21 11h30.19.865600 +0000,
0.005,-0.31,28,28,0,down,5.163898400001926,None,space,0.4137518999996246,None,,,,,0,28,28,28,,,,,5811.099892099999,,,,,,,,,,,,5811.083673500001,5811.099892099999,5811.099892099999,5816.2787111,,,,5816.2789723999995,5816.294572800001,5816.294572800001,5816.294572800001,5816.594346999998,5816.7120478,,,,,down,5.163898400001926,None,space,0.4137518999996246,None,,,,,,,,,,,,P127,001,2024-11-21_11h30.10.426,posner_endo_new1,2024.2.4,60.17343186501619,2024-11-21 11h30.19.865600 +0000,
0.31,0.005,29,29,0,up,3.4087577999998757,None,space,0.46387350000077276,None,,,,,0,29,29,29,,,,,5816.7274751,,,,,,,,,,,,5816.7122131,5816.7274751,5816.7274751,5820.1413913,,,,5820.1416500999985,5820.157336699998,5820.157336699998,5820.157336699998,5820.457390200001,5820.6243168,,,,,up,3.4087577999998757,None,space,0.46387350000077276,None,,,,,,,,,,,,P127,001,2024-11-21_11h30.10.426,posner_endo_new1,2024.2.4,60.17343186501619,2024-11-21 11h30.19.865600 +0000,
10,0.005,30,30,0,down,7.45581619999939,None,None,,,,,,,0,30,30,30,,,,,5820.6401682,,,,,,,,,,,,5820.6244811,5820.6401682,5820.6401682,5828.100003300002,,,,5828.1002659000005,5828.115727699998,5828.115727699998,5828.115727699998,5828.415391800001,5831.112921799999,,,,5829.114768200001,down,7.45581619999939,None,None,,,,,,,,,,,,,,P127,001,2024-11-21_11h30.10.426,posner_endo_new1,2024.2.4,60.17343186501619,2024-11-21 11h30.19.865600 +0000,
0.31,0.005,31,31,0,up,0.670240700001159,None,space,0.42256540000016685,None,,,,,0,31,31,31,,,,,5831.129317499999,,,,,,,,,,,,5831.113083,5831.129317499999,5831.129317499999,5831.8127141,,,,5831.8129727999985,5831.8288503,5831.8288503,5831.8288503,5832.128401800001,5832.262490699999,,,,,up,0.670240700001159,None,space,0.42256540000016685,None,,,,,,,,,,,,P127,001,2024-11-21_11h30.10.426,posner_endo_new1,2024.2.4,60.17343186501619,2024-11-21 11h30.19.865600 +0000,
0.31,0.005,32,32,0,down,5.442017600002146,None,space,0.43853370000215364,None,,,,,0,32,32,32,,,,,5832.278104500001,,,,,,,,,,,,5832.262658200001,5832.278104500001,5832.278104500001,5837.723353699999,,,,5837.723609699999,5837.739294899999,5837.739294899999,5837.739294899999,5838.039085799999,5838.189782900001,,,,,down,5.442017600002146,None,space,0.43853370000215364,None,,,,,,,,,,,,P127,001,2024-11-21_11h30.10.426,posner_endo_new1,2024.2.4,60.17343186501619,2024-11-21 11h30.19.865600 +0000,
10,0.005,33,33,0,up,4.034879099999671,None,None,,,,,,,0,33,33,33,,,,,5838.2053681,,,,,,,,,,,,5838.189947300001,5838.2053681,5838.2053681,5842.252054500001,,,,5842.252311699998,5842.2678901,5842.2678901,5842.2678901,5842.5677153,5845.265031999999,,,,5843.266965999999,up,4.034879099999671,None,None,,,,,,,,,,,,,,P127,001,2024-11-21_11h30.10.426,posner_endo_new1,2024.2.4,60.17343186501619,2024-11-21 11h30.19.865600 +0000,
0.005,-0.31,34,34,0,down,5.1663068999987445,None,space,0.44066920000113896,None,,,,,0,34,34,34,,,,,5845.2815548,,,,,,,,,,,,5845.265193300002,5845.2815548,5845.2815548,5850.460375899998,,,,5850.460635300002,5850.476381600001,5850.476381600001,5850.476381600001,5850.776016399999,5850.926517799999,,,,,down,5.1663068999987445,None,space,0.44066920000113896,None,,,,,,,,,,,,P127,001,2024-11-21_11h30.10.426,posner_endo_new1,2024.2.4,60.17343186501619,2024-11-21 11h30.19.865600 +0000,
-0.31,0.005,35,35,0,up,4.193282600001112,None,space,0.3973684999982652,None,,,,,0,35,35,35,,,,,5850.942420399999,,,,,,,,,,,,5850.926691000001,5850.942420399999,5850.942420399999,5855.138986000002,,,,5855.139242599998,5855.154734399999,5855.154734399999,5855.154734399999,5855.4546138000005,5855.5552075999985,,,,,up,4.193282600001112,None,space,0.3973684999982652,None,,,,,,,,,,,,P127,001,2024-11-21_11h30.10.426,posner_endo_new1,2024.2.4,60.17343186501619,2024-11-21 11h30.19.865600 +0000,
-0.31,0.005,36,36,0,down,6.925044499999785,None,space,0.6693068999993557,None,,,,,0,36,36,36,,,,,5855.571159499999,,,,,,,,,,,,5855.5553736,5855.571159499999,5855.571159499999,5862.498111100002,,,,5862.498375399999,5862.513853799999,5862.513853799999,5862.513853799999,5862.8136137,5863.1974138000005,,,,,down,6.925044499999785,None,space,0.6693068999993557,None,,,,,,,,,,,,P127,001,2024-11-21_11h30.10.426,posner_endo_new1,2024.2.4,60.17343186501619,2024-11-21 11h30.19.865600 +0000,
10,0.005,37,37,0,up,5.698599299998023,None,None,,,,,,,0,37,37,37,,,,,5863.213036100002,,,,,,,,,,,,5863.197577899999,5863.213036100002,5863.213036100002,5868.924781599999,,,,5868.9250557999985,5868.940733399999,5868.940733399999,5868.940733399999,5869.240484099999,5871.937680499999,,,,5869.956383000001,up,5.698599299998023,None,None,,,,,,,,,,,,,,P127,001,2024-11-21_11h30.10.426,posner_endo_new1,2024.2.4,60.17343186501619,2024-11-21 11h30.19.865600 +0000,
0.005,0.31,38,38,0,down,4.197684300001129,None,space,0.450055399996927,None,,,,,0,38,38,38,,,,,5871.9543146,,,,,,,,,,,,5871.937840400002,5871.9543146,5871.9543146,5876.167424399999,,,,5876.167674200002,5876.183219899998,5876.183219899998,5876.183219899998,5876.4830029,5876.6501474,,,,,down,4.197684300001129,None,space,0.450055399996927,None,,,,,,,,,,,,P127,001,2024-11-21_11h30.10.426,posner_endo_new1,2024.2.4,60.17343186501619,2024-11-21 11h30.19.865600 +0000,
0.005,-0.31,39,39,0,up,11.502392999998847,None,None,,,,,,,0,39,39,39,,,,,5876.666069300001,,,,,,,,,,,,5876.650311699999,5876.666069300001,5876.666069300001,5888.171925499999,,,,5888.172185799998,5888.187593499999,5888.187593499999,5888.187593499999,5888.4874547,5891.184686199998,,,,5889.1865583,up,11.502392999998847,None,None,,,,,,,,,,,,,,P127,001,2024-11-21_11h30.10.426,posner_endo_new1,2024.2.4,60.17343186501619,2024-11-21 11h30.19.865600 +0000,
0.31,0.005,40,40,0,down,4.878094499999861,None,space,0.37528569999994943,None,,,,,0,40,40,40,,,,,5891.2013640000005,,,,,,,,,,,,5891.184846299999,5891.2013640000005,5891.2013640000005,5896.080445700001,,,,5896.080705799999,5896.096181299999,5896.096181299999,5896.096181299999,5896.395956799999,5896.4799776,,,,,down,4.878094499999861,None,space,0.37528569999994943,None,,,,,,,,,,,,P127,001,2024-11-21_11h30.10.426,posner_endo_new1,2024.2.4,60.17343186501619,2024-11-21 11h30.19.865600 +0000,
-0.31,0.005,41,41,0,up,6.69597160000194,None,space,0.5828642999986187,None,,,,,0,41,41,41,,,,,5896.495801699999,,,,,,,,,,,,5896.480142100001,5896.495801699999,5896.495801699999,5903.206449000001,,,,5903.206705600001,5903.222341799999,5903.222341799999,5903.222341799999,5903.5219812,5903.8059942,,,,,up,6.69597160000194,None,space,0.5828642999986187,None,,,,,,,,,,,,P127,001,2024-11-21_11h30.10.426,posner_endo_new1,2024.2.4,60.17343186501619,2024-11-21 11h30.19.865600 +0000,
0.31,0.005,42,42,0,down,6.50675720000072,None,space,0.423111300002347,None,,,,,0,42,42,42,,,,,5903.821536700001,,,,,,,,,,,,5903.806168300001,5903.821536700001,5903.821536700001,5910.332554500001,,,,5910.3328138,5910.3482272,5910.3482272,5910.3482272,5910.647936900001,5910.782006699999,,,,,down,6.50675720000072,None,space,0.423111300002347,None,,,,,,,,,,,,P127,001,2024-11-21_11h30.10.426,posner_endo_new1,2024.2.4,60.17343186501619,2024-11-21 11h30.19.865600 +0000,
10,0.005,43,43,0,up,3.425825199999963,None,None,,,,,,,0,43,43,43,,,,,5910.797793400001,,,,,,,,,,,,5910.782170900002,5910.797793400001,5910.797793400001,5914.228409300002,,,,5914.228672000001,5914.2441898,5914.2441898,5914.2441898,5914.5440038000015,5917.241248800001,,,,5915.243464700001,up,3.425825199999963,None,None,,,,,,,,,,,,,,P127,001,2024-11-21_11h30.10.426,posner_endo_new1,2024.2.4,60.17343186501619,2024-11-21 11h30.19.865600 +0000,
-0.31,0.005,44,44,0,down,5.742167399999744,None,space,0.5268735999998171,None,,,,,0,44,44,44,,,,,5917.2579584999985,,,,,,,,,,,,5917.241414,5917.2579584999985,5917.2579584999985,5923.002898300001,,,,5923.003166300001,5923.018615699999,5923.018615699999,5923.018615699999,5923.318392599998,5923.552454699999,,,,,down,5.742167399999744,None,space,0.5268735999998171,None,,,,,,,,,,,,P127,001,2024-11-21_11h30.10.426,posner_endo_new1,2024.2.4,60.17343186501619,2024-11-21 11h30.19.865600 +0000,
0.005,0.31,45,45,0,up,4.223904400001629,None,space,0.43921989999944344,None,,,,,0,45,45,45,,,,,5923.567984400001,,,,,,,,,,,,5923.552621399998,5923.567984400001,5923.567984400001,5927.797801500001,,,,5927.7980646,5927.8137523000005,5927.8137523000005,5927.8137523000005,5928.113496800001,5928.2641047,,,,,up,4.223904400001629,None,space,0.43921989999944344,None,,,,,,,,,,,,P127,001,2024-11-21_11h30.10.426,posner_endo_new1,2024.2.4,60.17343186501619,2024-11-21 11h30.19.865600 +0000,
0.005,-0.31,46,46,0,down,7.67185409999729,None,space,0.35187849999783793,None,,,,,0,46,46,46,,,,,5928.2799591,,,,,,,,,,,,5928.264270700001,5928.2799591,5928.2799591,5935.956371600001,,,,5935.956635800001,5935.9719582,5935.9719582,5935.9719582,5936.271745400001,5936.339213399999,,,,,down,7.67185409999729,None,space,0.35187849999783793,None,,,,,,,,,,,,P127,001,2024-11-21_11h30.10.426,posner_endo_new1,2024.2.4,60.17343186501619,2024-11-21 11h30.19.865600 +0000,
-0.31,0.005,47,47,0,up,4.092354200001864,None,space,0.42634150000230875,None,,,,,0,47,47,47,,,,,5936.3549633,,,,,,,,,,,,5936.339377100001,5936.3549633,5936.3549633,5940.4514877,,,,5940.4517495,5940.467403999999,5940.467403999999,5940.467403999999,5940.767182,5940.901312099999,,,,,up,4.092354200001864,None,space,0.42634150000230875,None,,,,,,,,,,,,P127,001,2024-11-21_11h30.10.426,posner_endo_new1,2024.2.4,60.17343186501619,2024-11-21 11h30.19.865600 +0000,
0.005,-0.31,48,48,0,down,6.81893940000009,None,space,0.44541360000221175,None,,,,,0,48,48,48,,,,,5940.917064699999,,,,,,,,,,,,5940.901479200002,5940.917064699999,5940.917064699999,5947.7439448000005,,,,5947.7442056,5947.759887699998,5947.759887699998,5947.759887699998,5948.059675600001,5948.210466199998,,,,,down,6.81893940000009,None,space,0.44541360000221175,None,,,,,,,,,,,,P127,001,2024-11-21_11h30.10.426,posner_endo_new1,2024.2.4,60.17343186501619,2024-11-21 11h30.19.865600 +0000,
0.005,-0.31,49,49,0,up,3.5892088000000513,None,space,0.6621963999969012,None,,,,,0,49,49,49,,,,,5948.226084000002,,,,,,,,,,,,5948.2106284,5948.226084000002,5948.226084000002,5951.823388000001,,,,5951.823641700001,5951.8389879999995,5951.8389879999995,5951.8389879999995,5952.1388329,5952.5058383,,,,,up,3.5892088000000513,None,space,0.6621963999969012,None,,,,,,,,,,,,P127,001,2024-11-21_11h30.10.426,posner_endo_new1,2024.2.4,60.17343186501619,2024-11-21 11h30.19.865600 +0000,
0.005,0.31,50,50,0,down,7.462238499996602,None,space,0.3835562000022037,None,,,,,0,50,50,50,,,,,5952.521908899998,,,,,,,,,,,,5952.506000400001,5952.521908899998,5952.521908899998,5959.998139399999,,,,5959.998406499999,5960.014086200001,5960.014086200001,5960.014086200001,5960.313709900001,5960.414529099999,,,,,down,7.462238499996602,None,space,0.3835562000022037,None,,,,,,,,,,,,P127,001,2024-11-21_11h30.10.426,posner_endo_new1,2024.2.4,60.17343186501619,2024-11-21 11h30.19.865600 +0000,
0.31,0.005,51,51,0,up,4.345381499999348,None,space,0.6858093999981065,None,,,,,0,51,51,51,,,,,5960.4302212,,,,,,,,,,,,5960.414699600002,5960.4302212,5960.4302212,5964.7767169,,,,5964.776976000001,5964.7924279,5964.7924279,5964.7924279,5965.092215699999,5965.4926696,,,,,up,4.345381499999348,None,space,0.6858093999981065,None,,,,,,,,,,,,P127,001,2024-11-21_11h30.10.426,posner_endo_new1,2024.2.4,60.17343186501619,2024-11-21 11h30.19.865600 +0000,
0.31,0.005,52,52,0,down,7.53054990000237,None,space,0.3943225999973947,None,,,,,0,52,52,52,,,,,5965.508549400001,,,,,,,,,,,,5965.492833100001,5965.508549400001,5965.508549400001,5973.051402699999,,,,5973.051661599999,5973.067468000001,5973.067468000001,5973.067468000001,5973.367076899998,5973.467893600002,,,,,down,7.53054990000237,None,space,0.3943225999973947,None,,,,,,,,,,,,P127,001,2024-11-21_11h30.10.426,posner_endo_new1,2024.2.4,60.17343186501619,2024-11-21 11h30.19.865600 +0000,
0.005,0.31,53,53,0,up,3.0444282999997085,None,None,,,,,,,0,53,53,53,,,,,5973.483596800001,,,,,,,,,,,,5973.4680635,5973.483596800001,5973.483596800001,5976.5311788,,,,5976.5314327000015,5976.547129999999,5976.547129999999,5976.547129999999,5976.846838599999,5979.544205099999,,,,5977.546136600002,up,3.0444282999997085,None,None,,,,,,,,,,,,,,P127,001,2024-11-21_11h30.10.426,posner_endo_new1,2024.2.4,60.17343186501619,2024-11-21 11h30.19.865600 +0000,
-0.31,0.005,54,54,0,down,2.3191673000001174,None,space,0.390285400000721,None,,,,,0,54,54,54,,,,,5979.560719000001,,,,,,,,,,,,5979.5443653,5979.560719000001,5979.560719000001,5981.892506299999,,,,5981.892769599999,5981.908375899999,5981.908375899999,5981.908375899999,5982.208413100001,5982.308557100001,,,,,down,2.3191673000001174,None,space,0.390285400000721,None,,,,,,,,,,,,P127,001,2024-11-21_11h30.10.426,posner_endo_new1,2024.2.4,60.17343186501619,2024-11-21 11h30.19.865600 +0000,
10,0.005,55,55,0,up,2.8751286000006075,None,None,,,,,,,0,55,55,55,,,,,5982.324512899999,,,,,,,,,,,,5982.308716899999,5982.324512899999,5982.324512899999,5985.205761900001,,,,5985.206019099998,5985.221679300001,5985.221679300001,5985.221679300001,5985.521275300001,5988.218631299998,,,,5986.220597200001,up,2.8751286000006075,None,None,,,,,,,,,,,,,,P127,001,2024-11-21_11h30.10.426,posner_endo_new1,2024.2.4,60.17343186501619,2024-11-21 11h30.19.865600 +0000,
0.31,0.005,56,56,0,down,4.83644429999913,None,space,0.35765170000013313,None,,,,,0,56,56,56,,,,,5988.235136399999,,,,,,,,,,,,5988.218790999999,5988.235136399999,5988.235136399999,5993.0808206,,,,5993.081075800001,5993.096799899999,5993.096799899999,5993.096799899999,5993.396533899999,5993.463975499999,,,,,down,4.83644429999913,None,space,0.35765170000013313,None,,,,,,,,,,,,P127,001,2024-11-21_11h30.10.426,posner_endo_new1,2024.2.4,60.17343186501619,2024-11-21 11h30.19.865600 +0000,
0.005,0.31,57,57,0,up,4.3917606999966665,None,space,0.3829193000019586,None,,,,,0,57,57,57,,,,,5993.479797299999,,,,,,,,,,,,5993.4641414,5993.479797299999,5993.479797299999,5997.876256,,,,5997.8765207,5997.8919025,5997.8919025,5997.8919025,5998.191832500001,5998.275811899999,,,,,up,4.3917606999966665,None,space,0.3829193000019586,None,,,,,,,,,,,,P127,001,2024-11-21_11h30.10.426,posner_endo_new1,2024.2.4,60.17343186501619,2024-11-21 11h30.19.865600 +0000,
-0.31,0.005,58,58,0,down,9.268231600002764,None,space,0.3802045000011276,None,,,,,0,58,58,58,,,,,5998.291594099999,,,,,,,,,,,,5998.275976600002,5998.291594099999,5998.291594099999,6007.566310400001,,,,6007.5665647999995,6007.582157199999,6007.582157199999,6007.582157199999,6007.881689599999,6007.9660372,,,,,down,9.268231600002764,None,space,0.3802045000011276,None,,,,,,,,,,,,P127,001,2024-11-21_11h30.10.426,posner_endo_new1,2024.2.4,60.17343186501619,2024-11-21 11h30.19.865600 +0000,
-0.31,0.005,59,59,0,up,2.089618900001369,None,space,0.5228098000006867,None,,,,,0,59,59,59,,,,,6007.981700200002,,,,,,,,,,,,6007.9662002000005,6007.981700200002,6007.981700200002,6010.0800887000005,,,,6010.080345099999,6010.095967000001,6010.095967000001,6010.095967000001,6010.395784299999,6010.6296931,,,,,up,2.089618900001369,None,space,0.5228098000006867,None,,,,,,,,,,,,P127,001,2024-11-21_11h30.10.426,posner_endo_new1,2024.2.4,60.17343186501619,2024-11-21 11h30.19.865600 +0000,
,,,,,,,,,,,,,,,,,,,,,,,,,,,,,,,,,,,,,,,,,,,,,,,,,,,,,,,,,,6010.6298080000015,6010.645512499999,6010.645512499999,6070.6182611,None,,,,,,,P127,001,2024-11-21_11h30.10.426,posner_endo_new1,2024.2.4,60.17343186501619,2024-11-21 11h30.19.865600 +0000,
,,,,,,,,,,,,,,,,,,,,,,,,,,,,,,,,6070.6183108000005,6070.634135,6073.631244200002,,,,,,,,,,,,,,,,,,,,,,,,,,,,,,,,,,,P127,001,2024-11-21_11h30.10.426,posner_endo_new1,2024.2.4,60.17343186501619,2024-11-21 11h30.19.865600 +0000,
0.005,0.31,0,0,0,down,10.693295199998829,None,space,0.3843583999987459,None,,,,,,,,,0,0,0,0,6073.650215900001,,,,,,,,,,,,6073.640004699999,6073.650215900001,6073.650215900001,6084.354103500002,,,,6084.354371199999,6084.369982299999,6084.369982299999,6084.369982299999,6084.669716299999,6084.7705804,,,,,,,,,,,,,,,,down,10.693295199998829,None,space,0.3843583999987459,None,P127,001,2024-11-21_11h30.10.426,posner_endo_new1,2024.2.4,60.17343186501619,2024-11-21 11h30.19.865600 +0000,
-0.31,0.005,1,1,0,up,3.5486575000031735,None,space,0.3775711999987834,None,,,,,,,,,0,1,1,1,6084.786483700002,,,,,,,,,,,,6084.7707539,6084.786483700002,6084.786483700002,6088.350087700001,,,,6088.350354099999,6088.3659329,6088.3659329,6088.3659329,6088.665616900002,6088.749703099998,,,,,,,,,,,,,,,,up,3.5486575000031735,None,space,0.3775711999987834,None,P127,001,2024-11-21_11h30.10.426,posner_endo_new1,2024.2.4,60.17343186501619,2024-11-21 11h30.19.865600 +0000,
0.005,-0.31,2,2,0,down,6.2582473999973445,None,space,0.4338460999970266,None,,,,,,,,,0,2,2,2,6088.765581899999,,,,,,,,,,,,6088.7498696,6088.765581899999,6088.765581899999,6095.0266734,,,,6095.0269376,6095.042358300001,6095.042358300001,6095.042358300001,6095.3421045,6095.492833299999,,,,,,,,,,,,,,,,down,6.2582473999973445,None,space,0.4338460999970266,None,P127,001,2024-11-21_11h30.10.426,posner_endo_new1,2024.2.4,60.17343186501619,2024-11-21 11h30.19.865600 +0000,
0.31,0.005,3,3,0,up,4.210843799999566,None,space,0.38882419999936246,None,,,,,,,,,0,3,3,3,6095.508558699999,,,,,,,,,,,,6095.4929980000015,6095.508558699999,6095.508558699999,6099.721829599999,,,,6099.722088999999,6099.7377848,6099.7377848,6099.7377848,6100.037450399999,6100.138172200001,,,,,,,,,,,,,,,,up,4.210843799999566,None,space,0.38882419999936246,None,P127,001,2024-11-21_11h30.10.426,posner_endo_new1,2024.2.4,60.17343186501619,2024-11-21 11h30.19.865600 +0000,
0.005,0.31,4,4,0,down,5.725661399999808,None,space,0.5040336000020034,None,,,,,,,,,0,4,4,4,6100.153757100001,,,,,,,,,,,,6100.138337,6100.153757100001,6100.153757100001,6105.8820701,,,,6105.882351299999,6105.897883099999,6105.897883099999,6105.897883099999,6106.197678299999,6106.415064199999,,,,,,,,,,,,,,,,down,5.725661399999808,None,space,0.5040336000020034,None,P127,001,2024-11-21_11h30.10.426,posner_endo_new1,2024.2.4,60.17343186501619,2024-11-21 11h30.19.865600 +0000,
0.005,-0.31,5,5,0,up,4.138016699998843,None,space,0.434339599996747,None,,,,,,,,,0,5,5,5,6106.430796000001,,,,,,,,,,,,6106.4152306,6106.430796000001,6106.430796000001,6110.577282900002,,,,6110.577543899999,6110.593108599998,6110.593108599998,6110.593108599998,6110.892927600002,6111.043416299999,,,,,,,,,,,,,,,,up,4.138016699998843,None,space,0.434339599996747,None,P127,001,2024-11-21_11h30.10.426,posner_endo_new1,2024.2.4,60.17343186501619,2024-11-21 11h30.19.865600 +0000,
-0.31,0.005,6,6,0,down,7.643863999997848,None,space,0.3696842999997898,None,,,,,,,,,0,6,6,6,6111.059521800002,,,,,,,,,,,,6111.0435904000005,6111.059521800002,6111.059521800002,6118.719087900001,,,,6118.7193592,6118.7348083,6118.7348083,6118.7348083,6119.034696399998,6119.118618600001,,,,,,,,,,,,,,,,down,7.643863999997848,None,space,0.3696842999997898,None,P127,001,2024-11-21_11h30.10.426,posner_endo_new1,2024.2.4,60.17343186501619,2024-11-21 11h30.19.865600 +0000,
0.005,0.31,7,7,0,up,5.737073799999052,None,space,0.4309264000003168,None,,,,,,,,,0,7,7,7,6119.1343836000015,,,,,,,,,,,,6119.118789100001,6119.1343836000015,6119.1343836000015,6124.8794044999995,,,,6124.879671800001,6124.895061200001,6124.895061200001,6124.895061200001,6125.1950523999985,6125.328874800001,,,,,,,,,,,,,,,,up,5.737073799999052,None,space,0.4309264000003168,None,P127,001,2024-11-21_11h30.10.426,posner_endo_new1,2024.2.4,60.17343186501619,2024-11-21 11h30.19.865600 +0000,
0.31,0.005,8,8,0,down,6.902963300002739,None,space,0.6705349999974715,None,,,,,,,,,0,8,8,8,6125.344742099998,,,,,,,,,,,,6125.3290524,6125.344742099998,6125.344742099998,6132.255080399998,,,,6132.255340200001,6132.271035000002,6132.271035000002,6132.271035000002,6132.570690299999,6132.954499300002,,,,,,,,,,,,,,,,down,6.902963300002739,None,space,0.6705349999974715,None,P127,001,2024-11-21_11h30.10.426,posner_endo_new1,2024.2.4,60.17343186501619,2024-11-21 11h30.19.865600 +0000,
10,0.005,9,9,0,up,4.084808899999189,None,None,,,,,,,,,,,0,9,9,9,6132.970370300001,,,,,,,,,,,,6132.954664699999,6132.970370300001,6132.970370300001,6137.067065300002,,,,6137.067319900001,6137.082620599998,6137.082620599998,6137.082620599998,6137.3824155,6140.0798053,,,,6138.081663100002,,,,,,,,,,,,up,4.084808899999189,None,None,,,P127,001,2024-11-21_11h30.10.426,posner_endo_new1,2024.2.4,60.17343186501619,2024-11-21 11h30.19.865600 +0000,
0.31,0.005,10,10,0,down,4.623089799999434,None,space,0.3945837000028405,None,,,,,,,,,0,10,10,10,6140.096273899999,,,,,,,,,,,,6140.079969499999,6140.096273899999,6140.096273899999,6144.725674400001,,,,6144.725938299998,6144.741590099999,6144.741590099999,6144.741590099999,6145.0412378,6145.142008499999,,,,,,,,,,,,,,,,down,4.623089799999434,None,space,0.3945837000028405,None,P127,001,2024-11-21_11h30.10.426,posner_endo_new1,2024.2.4,60.17343186501619,2024-11-21 11h30.19.865600 +0000,
0.005,0.31,11,11,0,up,5.353971700002148,None,space,0.4209723000021768,None,,,,,,,,,0,11,11,11,6145.157899599999,,,,,,,,,,,,6145.1421759,6145.157899599999,6145.157899599999,6150.519684999999,,,,6150.519951800001,6150.535620899998,6150.535620899998,6150.535620899998,6150.835348199998,6150.9692743999985,,,,,,,,,,,,,,,,up,5.353971700002148,None,space,0.4209723000021768,None,P127,001,2024-11-21_11h30.10.426,posner_endo_new1,2024.2.4,60.17343186501619,2024-11-21 11h30.19.865600 +0000,
10,0.005,12,12,0,down,7.6621956000017235,None,None,,,,,,,,,,,0,12,12,12,6150.985260099998,,,,,,,,,,,,6150.969438799999,6150.985260099998,6150.985260099998,6158.661455599999,,,,6158.661714000002,6158.677519699999,6158.677519699999,6158.677519699999,6158.9769839,6161.674500699999,,,,6159.6928634,,,,,,,,,,,,down,7.6621956000017235,None,None,,,P127,001,2024-11-21_11h30.10.426,posner_endo_new1,2024.2.4,60.17343186501619,2024-11-21 11h30.19.865600 +0000,
-0.31,0.005,13,13,0,up,4.044630899999902,None,space,0.4289041999982146,None,,,,,,,,,0,13,13,13,6161.691017699999,,,,,,,,,,,,6161.674664800001,6161.691017699999,6161.691017699999,6165.7376404999995,,,,6165.737896800001,6165.753472699998,6165.753472699998,6165.753472699998,6166.0531452,6166.1872415,,,,,,,,,,,,,,,,up,4.044630899999902,None,space,0.4289041999982146,None,P127,001,2024-11-21_11h30.10.426,posner_endo_new1,2024.2.4,60.17343186501619,2024-11-21 11h30.19.865600 +0000,
0.31,0.005,14,14,0,down,4.956174299997656,None,space,0.4606428999977652,None,,,,,,,,,0,14,14,14,6166.202959300001,,,,,,,,,,,,6166.187414399999,6166.202959300001,6166.202959300001,6171.1652402,,,,6171.1654966999995,6171.181254200001,6171.181254200001,6171.181254200001,6171.480850299999,6171.648262499999,,,,,,,,,,,,,,,,down,4.956174299997656,None,space,0.4606428999977652,None,P127,001,2024-11-21_11h30.10.426,posner_endo_new1,2024.2.4,60.17343186501619,2024-11-21 11h30.19.865600 +0000,
0.005,-0.31,15,15,0,up,4.111328400002094,None,space,0.48159929999746964,None,,,,,,,,,0,15,15,15,6171.664057900001,,,,,,,,,,,,6171.6484323,6171.664057900001,6171.664057900001,6175.7774954000015,,,,6175.7777498,6175.7932592,6175.7932592,6175.7932592,6176.0928203,6176.276724899999,,,,,,,,,,,,,,,,up,4.111328400002094,None,space,0.48159929999746964,None,P127,001,2024-11-21_11h30.10.426,posner_endo_new1,2024.2.4,60.17343186501619,2024-11-21 11h30.19.865600 +0000,
0.31,0.005,16,16,0,down,4.730945100000099,None,space,0.5532445999997435,None,,,,,,,,,0,16,16,16,6176.2926278999985,,,,,,,,,,,,6176.276893800001,6176.2926278999985,6176.2926278999985,6181.038376600001,,,,6181.038631899999,6181.054325199999,6181.054325199999,6181.054325199999,6181.354135400001,6181.621212499998,,,,,,,,,,,,,,,,down,4.730945100000099,None,space,0.5532445999997435,None,P127,001,2024-11-21_11h30.10.426,posner_endo_new1,2024.2.4,60.17343186501619,2024-11-21 11h30.19.865600 +0000,
0.31,0.005,17,17,0,up,3.594328499999392,None,space,0.4564814000004844,None,,,,,,,,,0,17,17,17,6181.637195800002,,,,,,,,,,,,6181.621383500002,6181.637195800002,6181.637195800002,6185.2341935,,,,6185.234461799999,6185.250119799999,6185.250119799999,6185.250119799999,6185.5498394999995,6185.7167878,,,,,,,,,,,,,,,,up,3.594328499999392,None,space,0.4564814000004844,None,P127,001,2024-11-21_11h30.10.426,posner_endo_new1,2024.2.4,60.17343186501619,2024-11-21 11h30.19.865600 +0000,
0.005,-0.31,18,18,0,down,5.170709499998338,None,space,0.3618767999978445,None,,,,,,,,,0,18,18,18,6185.732894199999,,,,,,,,,,,,6185.7169552999985,6185.732894199999,6185.732894199999,6190.911785,,,,6190.912042200001,6190.9277372,6190.9277372,6190.9277372,6191.227380100001,6191.294632000001,,,,,,,,,,,,,,,,down,5.170709499998338,None,space,0.3618767999978445,None,P127,001,2024-11-21_11h30.10.426,posner_endo_new1,2024.2.4,60.17343186501619,2024-11-21 11h30.19.865600 +0000,
0.005,-0.31,19,19,0,up,5.016430600000604,None,space,0.3491837999972631,None,,,,,,,,,0,19,19,19,6191.310641200002,,,,,,,,,,,,6191.294796599999,6191.310641200002,6191.310641200002,6196.339572699999,,,,6196.339833400001,6196.355453200002,6196.355453200002,6196.355453200002,6196.6551997999995,6196.7059811,,,,,,,,,,,,,,,,up,5.016430600000604,None,space,0.3491837999972631,None,P127,001,2024-11-21_11h30.10.426,posner_endo_new1,2024.2.4,60.17343186501619,2024-11-21 11h30.19.865600 +0000,
10,0.005,20,20,0,down,5.709436400000413,None,None,,,,,,,,,,,0,20,20,20,6196.721810200001,,,,,,,,,,,,6196.7061436,6196.721810200001,6196.721810200001,6202.4333603999985,,,,6202.433624000001,6202.4492579,6202.4492579,6202.4492579,6202.748757400001,6205.446327599999,,,,6203.464880700001,,,,,,,,,,,,down,5.709436400000413,None,None,,,P127,001,2024-11-21_11h30.10.426,posner_endo_new1,2024.2.4,60.17343186501619,2024-11-21 11h30.19.865600 +0000,
0.005,-0.31,21,21,0,up,0.6173984999986715,None,space,0.3490644000012253,None,,,,,,,,,0,21,21,21,6205.4627019,,,,,,,,,,,,6205.446491400002,6205.4627019,6205.4627019,6206.096047999999,,,,6206.0963175,6206.1120596,6206.1120596,6206.1120596,6206.411812099999,6206.462730200001,,,,,,,,,,,,,,,,up,0.6173984999986715,None,space,0.3490644000012253,None,P127,001,2024-11-21_11h30.10.426,posner_endo_new1,2024.2.4,60.17343186501619,2024-11-21 11h30.19.865600 +0000,
0.005,0.31,22,22,0,down,5.34551890000148,None,space,0.41172740000183694,None,,,,,,,,,0,22,22,22,6206.478523599999,,,,,,,,,,,,6206.462895299999,6206.478523599999,6206.478523599999,6211.8402656,,,,6211.840520599999,6211.856305500001,6211.856305500001,6211.856305500001,6212.155936399999,6212.2731647,,,,,,,,,,,,,,,,down,5.34551890000148,None,space,0.41172740000183694,None,P127,001,2024-11-21_11h30.10.426,posner_endo_new1,2024.2.4,60.17343186501619,2024-11-21 11h30.19.865600 +0000,
0.31,0.005,23,23,0,up,5.582491799999843,None,space,0.4650459000004048,None,,,,,,,,,0,23,23,23,6212.289057400001,,,,,,,,,,,,6212.273331199998,6212.289057400001,6212.289057400001,6217.884051699999,,,,6217.884307699998,6217.8999981000015,6217.8999981000015,6217.8999981000015,6218.199793200001,6218.367148199999,,,,,,,,,,,,,,,,up,5.582491799999843,None,space,0.4650459000004048,None,P127,001,2024-11-21_11h30.10.426,posner_endo_new1,2024.2.4,60.17343186501619,2024-11-21 11h30.19.865600 +0000,
-0.31,0.005,24,24,0,down,4.3206943000004685,None,space,0.41861579999749665,None,,,,,,,,,0,24,24,24,6218.3829823000015,,,,,,,,,,,,6218.367320099998,6218.3829823000015,6218.3829823000015,6222.712818799999,,,,6222.713079900001,6222.7282787,6222.7282787,6222.7282787,6223.028151499999,6223.161770400002,,,,,,,,,,,,,,,,down,4.3206943000004685,None,space,0.41861579999749665,None,P127,001,2024-11-21_11h30.10.426,posner_endo_new1,2024.2.4,60.17343186501619,2024-11-21 11h30.19.865600 +0000,
10,0.005,25,25,0,up,6.557192399999622,None,None,,,,,,,,,,,0,25,25,25,6223.178017999999,,,,,,,,,,,,6223.161938500001,6223.178017999999,6223.178017999999,6229.738830499999,,,,6229.739091399999,6229.7544543,6229.7544543,6229.7544543,6230.0539457999985,6232.7516141000015,,,,6230.753540099999,,,,,,,,,,,,up,6.557192399999622,None,None,,,P127,001,2024-11-21_11h30.10.426,posner_endo_new1,2024.2.4,60.17343186501619,2024-11-21 11h30.19.865600 +0000,
0.005,0.31,26,26,0,down,6.463286700000026,None,space,0.508818300000712,None,,,,,,,,,0,26,26,26,6232.768118,,,,,,,,,,,,6232.751779400001,6232.768118,6232.768118,6239.245626299999,,,,6239.2458816,6239.261473999999,6239.261473999999,6239.261473999999,6239.561078499999,6239.778238700001,,,,,,,,,,,,,,,,down,6.463286700000026,None,space,0.508818300000712,None,P127,001,2024-11-21_11h30.10.426,posner_endo_new1,2024.2.4,60.17343186501619,2024-11-21 11h30.19.865600 +0000,
0.31,0.005,27,27,0,up,7.2695956000025035,None,space,0.38761199999862583,None,,,,,,,,,0,27,27,27,6239.7942871999985,,,,,,,,,,,,6239.7784071999995,6239.7942871999985,6239.7942871999985,6247.070894799999,,,,6247.0711538,6247.086794300001,6247.086794300001,6247.086794300001,6247.3863740000015,6247.4871508,,,,,,,,,,,,,,,,up,7.2695956000025035,None,space,0.38761199999862583,None,P127,001,2024-11-21_11h30.10.426,posner_endo_new1,2024.2.4,60.17343186501619,2024-11-21 11h30.19.865600 +0000,
0.005,0.31,28,28,0,down,5.392021199997544,None,space,0.4425089999967895,None,,,,,,,,,0,28,28,28,6247.503063700002,,,,,,,,,,,,6247.487315999999,6247.503063700002,6247.503063700002,6252.898259900001,,,,6252.898515199999,6252.9141375,6252.9141375,6252.9141375,6253.2144252,6253.3643477000005,,,,,,,,,,,,,,,,down,5.392021199997544,None,space,0.4425089999967895,None,P127,001,2024-11-21_11h30.10.426,posner_endo_new1,2024.2.4,60.17343186501619,2024-11-21 11h30.19.865600 +0000,
10,0.005,29,29,0,up,3.698825899999065,None,None,,,,,,,,,,,0,29,29,29,6253.380253300002,,,,,,,,,,,,6253.3645117000015,6253.380253300002,6253.380253300002,6257.0939741,,,,6257.0942359,6257.1098286000015,6257.1098286000015,6257.1098286000015,6257.409603600001,6260.106792099999,,,,6258.125463,,,,,,,,,,,,up,3.698825899999065,None,None,,,P127,001,2024-11-21_11h30.10.426,posner_endo_new1,2024.2.4,60.17343186501619,2024-11-21 11h30.19.865600 +0000,
0.005,-0.31,30,30,0,down,2.971799799997825,None,space,0.5198712999990676,None,,,,,,,,,0,30,30,30,6260.123496,,,,,,,,,,,,6260.106952599999,6260.123496,6260.123496,6263.1042793000015,,,,6263.104536700001,6263.1204168,6263.1204168,6263.1204168,6263.419991499999,6263.654097999999,,,,,,,,,,,,,,,,down,2.971799799997825,None,space,0.5198712999990676,None,P127,001,2024-11-21_11h30.10.426,posner_endo_new1,2024.2.4,60.17343186501619,2024-11-21 11h30.19.865600 +0000,
0.31,0.005,31,31,0,up,4.241850500002329,None,space,0.5788988000022073,None,,,,,,,,,0,31,31,31,6263.669662699998,,,,,,,,,,,,6263.654269899998,6263.669662699998,6263.669662699998,6267.916324400001,,,,6267.9165966,6267.932085100001,6267.932085100001,6267.932085100001,6268.2317029000005,6268.515705900001,,,,,,,,,,,,,,,,up,4.241850500002329,None,space,0.5788988000022073,None,P127,001,2024-11-21_11h30.10.426,posner_endo_new1,2024.2.4,60.17343186501619,2024-11-21 11h30.19.865600 +0000,
10,0.005,32,32,0,down,16.29955289999998,None,None,,,,,,,,,,,0,32,32,32,6268.531395599999,,,,,,,,,,,,6268.515868400002,6268.531395599999,6268.531395599999,6284.832434799999,,,,6284.832703100001,6284.847980999999,6284.847980999999,6284.847980999999,6285.147775199999,6287.845141000002,,,,6285.846953,,,,,,,,,,,,down,16.29955289999998,None,None,,,P127,001,2024-11-21_11h30.10.426,posner_endo_new1,2024.2.4,60.17343186501619,2024-11-21 11h30.19.865600 +0000,
-0.31,0.005,33,33,0,up,3.873623800001951,None,space,0.44571279999945546,None,,,,,,,,,0,33,33,33,6287.861810800001,,,,,,,,,,,,6287.8453138,6287.861810800001,6287.861810800001,6291.7420174,,,,6291.7422721,6291.757565799999,6291.757565799999,6291.757565799999,6292.057398000001,6292.208103699999,,,,,,,,,,,,,,,,up,3.873623800001951,None,space,0.44571279999945546,None,P127,001,2024-11-21_11h30.10.426,posner_endo_new1,2024.2.4,60.17343186501619,2024-11-21 11h30.19.865600 +0000,
10,0.005,34,34,0,down,6.887477400003263,None,None,,,,,,,,,,,0,34,34,34,6292.223903800001,,,,,,,,,,,,6292.208277599999,6292.223903800001,6292.223903800001,6299.117503099998,,,,6299.117761599999,6299.1335101,6299.1335101,6299.1335101,6299.433036800001,6302.1304905,,,,6300.132541300001,,,,,,,,,,,,down,6.887477400003263,None,None,,,P127,001,2024-11-21_11h30.10.426,posner_endo_new1,2024.2.4,60.17343186501619,2024-11-21 11h30.19.865600 +0000,
0.005,-0.31,35,35,0,up,3.5564501999979257,None,space,0.3989359000006516,None,,,,,,,,,0,35,35,35,6302.147140500001,,,,,,,,,,,,6302.130651700001,6302.147140500001,6302.147140500001,6305.711329500002,,,,6305.711591200001,6305.7267756,6305.7267756,6305.7267756,6306.026411800001,6306.127505299999,,,,,,,,,,,,,,,,up,3.5564501999979257,None,space,0.3989359000006516,None,P127,001,2024-11-21_11h30.10.426,posner_endo_new1,2024.2.4,60.17343186501619,2024-11-21 11h30.19.865600 +0000,
0.31,0.005,36,36,0,down,4.320258799998555,None,space,0.37591170000087004,None,,,,,,,,,0,36,36,36,6306.142946100001,,,,,,,,,,,,6306.1276779,6306.142946100001,6306.142946100001,6310.472607200001,,,,6310.4728626,6310.4885282,6310.4885282,6310.4885282,6310.787915699999,6310.872274500001,,,,,,,,,,,,,,,,down,4.320258799998555,None,space,0.37591170000087004,None,P127,001,2024-11-21_11h30.10.426,posner_endo_new1,2024.2.4,60.17343186501619,2024-11-21 11h30.19.865600 +0000,
10,0.005,37,37,0,up,4.367210600001272,None,None,,,,,,,,,,,0,37,37,37,6310.887986900001,,,,,,,,,,,,6310.872438999999,6310.887986900001,6310.887986900001,6315.267699600001,,,,6315.2679556,6315.283664300001,6315.283664300001,6315.283664300001,6315.583362699999,6318.2806595,,,,6316.2826766,,,,,,,,,,,,up,4.367210600001272,None,None,,,P127,001,2024-11-21_11h30.10.426,posner_endo_new1,2024.2.4,60.17343186501619,2024-11-21 11h30.19.865600 +0000,
10,0.005,38,38,0,down,4.237937000001693,None,None,,,,,,,,,,,0,38,38,38,6318.2971555,,,,,,,,,,,,6318.280829800002,6318.2971555,6318.2971555,6322.543654100002,,,,6322.5439095,6322.559388099999,6322.559388099999,6322.559388099999,6322.859029200001,6325.556475199999,,,,6323.558361899999,,,,,,,,,,,,down,4.237937000001693,None,None,,,P127,001,2024-11-21_11h30.10.426,posner_endo_new1,2024.2.4,60.17343186501619,2024-11-21 11h30.19.865600 +0000,
-0.31,0.005,39,39,0,up,1.802382800000487,None,space,0.49932500000068103,None,,,,,,,,,0,39,39,39,6325.573165000002,,,,,,,,,,,,6325.556636199999,6325.573165000002,6325.573165000002,6327.388705900001,,,,6327.388964500002,6327.4044713,6327.4044713,6327.4044713,6327.704294499999,6327.904880499998,,,,,,,,,,,,,,,,up,1.802382800000487,None,space,0.49932500000068103,None,P127,001,2024-11-21_11h30.10.426,posner_endo_new1,2024.2.4,60.17343186501619,2024-11-21 11h30.19.865600 +0000,
0.005,-0.31,40,40,0,down,6.614765400001488,None,space,0.5234436999999161,None,,,,,,,,,0,40,40,40,6327.920598299999,,,,,,,,,,,,6327.905047299999,6327.920598299999,6327.920598299999,6334.548072500002,,,,6334.548326799999,6334.5638072,6334.5638072,6334.5638072,6334.863411800001,6335.0975163,,,,,,,,,,,,,,,,down,6.614765400001488,None,space,0.5234436999999161,None,P127,001,2024-11-21_11h30.10.426,posner_endo_new1,2024.2.4,60.17343186501619,2024-11-21 11h30.19.865600 +0000,
0.005,-0.31,41,41,0,up,5.797787999999855,None,space,0.34810250000009546,None,,,,,,,,,0,41,41,41,6335.113427699998,,,,,,,,,,,,6335.097680800001,6335.113427699998,6335.113427699998,6340.9246891,,,,6340.9249447,6340.940718900001,6340.940718900001,6340.940718900001,6341.2404002,6341.2912412000005,,,,,,,,,,,,,,,,up,5.797787999999855,None,space,0.34810250000009546,None,P127,001,2024-11-21_11h30.10.426,posner_endo_new1,2024.2.4,60.17343186501619,2024-11-21 11h30.19.865600 +0000,
10,0.005,42,42,0,down,8.364140400000906,None,None,,,,,,,,,,,0,42,42,42,6341.306880600001,,,,,,,,,,,,6341.2914064,6341.306880600001,6341.306880600001,6349.6826181,,,,6349.6828747,6349.698316400001,6349.698316400001,6349.698316400001,6349.9980173,6352.695444199999,,,,6350.697401500001,,,,,,,,,,,,down,8.364140400000906,None,None,,,P127,001,2024-11-21_11h30.10.426,posner_endo_new1,2024.2.4,60.17343186501619,2024-11-21 11h30.19.865600 +0000,
0.005,-0.31,43,43,0,up,4.5754338999977335,None,space,0.45488769999792567,None,,,,,,,,,0,43,43,43,6352.7123489000005,,,,,,,,,,,,6352.695606099998,6352.7123489000005,6352.7123489000005,6357.291451199999,,,,6357.291713400002,6357.3073855,6357.3073855,6357.3073855,6357.606944700001,6357.7742555,,,,,,,,,,,,,,,,up,4.5754338999977335,None,space,0.45488769999792567,None,P127,001,2024-11-21_11h30.10.426,posner_endo_new1,2024.2.4,60.17343186501619,2024-11-21 11h30.19.865600 +0000,
-0.31,0.005,44,44,0,down,6.137508100000559,None,space,0.4957371999989846,None,,,,,,,,,0,44,44,44,6357.790111099999,,,,,,,,,,,,6357.774424700001,6357.790111099999,6357.790111099999,6363.9346315,,,,6363.9348924000005,6363.950498400001,6363.950498400001,6363.950498400001,6364.250044100001,6364.450744999998,,,,,,,,,,,,,,,,down,6.137508100000559,None,space,0.4957371999989846,None,P127,001,2024-11-21_11h30.10.426,posner_endo_new1,2024.2.4,60.17343186501619,2024-11-21 11h30.19.865600 +0000,
10,0.005,45,45,0,up,4.660580499999924,None,None,,,,,,,,,,,0,45,45,45,6364.4664519,,,,,,,,,,,,6364.450915099998,6364.4664519,6364.4664519,6369.1294203,,,,6369.1296839999995,6369.1451609,6369.1451609,6369.1451609,6369.444816800002,6372.142203399999,,,,6370.1607382,,,,,,,,,,,,up,4.660580499999924,None,None,,,P127,001,2024-11-21_11h30.10.426,posner_endo_new1,2024.2.4,60.17343186501619,2024-11-21 11h30.19.865600 +0000,
0.005,0.31,46,46,0,down,16.705098900001758,None,space,0.3749506000021938,None,,,,,,,,,0,46,46,46,6372.158672599999,,,,,,,,,,,,6372.142365600001,6372.158672599999,6372.158672599999,6388.8757525,,,,6388.876012299999,6388.8915017,6388.8915017,6388.8915017,6389.191250700002,6389.2754694,,,,,,,,,,,,,,,,down,16.705098900001758,None,space,0.3749506000021938,None,P127,001,2024-11-21_11h30.10.426,posner_endo_new1,2024.2.4,60.17343186501619,2024-11-21 11h30.19.865600 +0000,
0.005,-0.31,47,47,0,up,3.3478208000015,None,space,0.49180949999936274,None,,,,,,,,,0,47,47,47,6389.290992400001,,,,,,,,,,,,6389.275646800001,6389.290992400001,6389.290992400001,6392.6549331999995,,,,6392.655192400001,6392.6711006000005,6392.6711006000005,6392.6711006000005,6392.970515199999,6393.171490600002,,,,,,,,,,,,,,,,up,3.3478208000015,None,space,0.49180949999936274,None,P127,001,2024-11-21_11h30.10.426,posner_endo_new1,2024.2.4,60.17343186501619,2024-11-21 11h30.19.865600 +0000,
0.31,0.005,48,48,0,down,8.852665599999455,None,space,0.42583989999911864,None,,,,,,,,,0,48,48,48,6393.187172900001,,,,,,,,,,,,6393.171655099999,6393.187172900001,6393.187172900001,6402.045479799999,,,,6402.045735399999,6402.0614209999985,6402.0614209999985,6402.0614209999985,6402.361142599999,6402.495159800001,,,,,,,,,,,,,,,,down,8.852665599999455,None,space,0.42583989999911864,None,P127,001,2024-11-21_11h30.10.426,posner_endo_new1,2024.2.4,60.17343186501619,2024-11-21 11h30.19.865600 +0000,
-0.31,0.005,49,49,0,up,4.472304599999916,None,space,0.516224200000579,None,,,,,,,,,0,49,49,49,6402.5110417,,,,,,,,,,,,6402.495323499999,6402.5110417,6402.5110417,6406.990571300001,,,,6406.990831399999,6407.0063089,6407.0063089,6407.0063089,6407.305901600001,6407.523337800001,,,,,,,,,,,,,,,,up,4.472304599999916,None,space,0.516224200000579,None,P127,001,2024-11-21_11h30.10.426,posner_endo_new1,2024.2.4,60.17343186501619,2024-11-21 11h30.19.865600 +0000,
0.005,0.31,50,50,0,down,5.508441300000413,None,space,0.5099090000003343,None,,,,,,,,,0,50,50,50,6407.5392527,,,,,,,,,,,,6407.5235078000005,6407.5392527,6407.5392527,6413.050877900001,,,,6413.051132199998,6413.066754899999,6413.066754899999,6413.066754899999,6413.366485999999,6413.583879500002,,,,,,,,,,,,,,,,down,5.508441300000413,None,space,0.5099090000003343,None,P127,001,2024-11-21_11h30.10.426,posner_endo_new1,2024.2.4,60.17343186501619,2024-11-21 11h30.19.865600 +0000,
0.005,0.31,51,51,0,up,3.3919696000011754,None,space,0.5735512999999628,None,,,,,,,,,0,51,51,51,6413.599638200001,,,,,,,,,,,,6413.5840425999995,6413.599638200001,6413.599638200001,6416.996717000002,,,,6416.9969724,6417.012606600001,6417.012606600001,6417.012606600001,6417.3125212999985,6417.5963477000005,,,,,,,,,,,,,,,,up,3.3919696000011754,None,space,0.5735512999999628,None,P127,001,2024-11-21_11h30.10.426,posner_endo_new1,2024.2.4,60.17343186501619,2024-11-21 11h30.19.865600 +0000,
10,0.005,52,52,0,down,6.050614499999938,None,None,,,,,,,,,,,0,52,52,52,6417.612265600001,,,,,,,,,,,,6417.596514500001,6417.612265600001,6417.612265600001,6423.6733327,,,,6423.6735864,6423.6893313,6423.6893313,6423.6893313,6423.9889656999985,6426.6863796,,,,6424.6882455999985,,,,,,,,,,,,down,6.050614499999938,None,None,,,P127,001,2024-11-21_11h30.10.426,posner_endo_new1,2024.2.4,60.17343186501619,2024-11-21 11h30.19.865600 +0000,
-0.31,0.005,53,53,0,up,3.136534799999936,None,space,0.4424939999989874,None,,,,,,,,,0,53,53,53,6426.7028747,,,,,,,,,,,,6426.686542200001,6426.7028747,6426.7028747,6429.850137599999,,,,6429.850408800001,6429.866623499998,6429.866623499998,6429.866623499998,6430.166005800002,6430.3167249,,,,,,,,,,,,,,,,up,3.136534799999936,None,space,0.4424939999989874,None,P127,001,2024-11-21_11h30.10.426,posner_endo_new1,2024.2.4,60.17343186501619,2024-11-21 11h30.19.865600 +0000,
10,0.005,54,54,0,down,7.15480960000059,None,None,,,,,,,,,,,0,54,54,54,6430.332538400002,,,,,,,,,,,,6430.316897299999,6430.332538400002,6430.332538400002,6437.492510200002,,,,6437.492766800002,6437.508452599999,6437.508452599999,6437.508452599999,6437.8081986,6440.505476900002,,,,6438.524151199999,,,,,,,,,,,,down,7.15480960000059,None,None,,,P127,001,2024-11-21_11h30.10.426,posner_endo_new1,2024.2.4,60.17343186501619,2024-11-21 11h30.19.865600 +0000,
0.005,0.31,55,55,0,up,13.509422400002222,None,space,0.4880990000019665,None,,,,,,,,,0,55,55,55,6440.522082799998,,,,,,,,,,,,6440.505646400001,6440.522082799998,6440.522082799998,6454.042139699999,,,,6454.042412700001,6454.058220499999,6454.058220499999,6454.058220499999,6454.357853900001,6454.558454499998,,,,,,,,,,,,,,,,up,13.509422400002222,None,space,0.4880990000019665,None,P127,001,2024-11-21_11h30.10.426,posner_endo_new1,2024.2.4,60.17343186501619,2024-11-21 11h30.19.865600 +0000,
0.005,-0.31,56,56,0,down,6.456767800002126,None,space,0.8129036000027554,None,,,,,,,,,0,56,56,56,6454.5744385,,,,,,,,,,,,6454.5586213999995,6454.5744385,6454.5744385,6461.035423000001,,,,6461.035677600001,6461.050864699999,6461.050864699999,6461.050864699999,6461.3507008000015,6461.8677021,,,,,,,,,,,,,,,,down,6.456767800002126,None,space,0.8129036000027554,None,P127,001,2024-11-21_11h30.10.426,posner_endo_new1,2024.2.4,60.17343186501619,2024-11-21 11h30.19.865600 +0000,
0.005,0.31,57,57,0,up,4.124215400002868,None,space,0.37617970000064815,None,,,,,,,,,0,57,57,57,6461.883367900002,,,,,,,,,,,,6461.867867100002,6461.883367900002,6461.883367900002,6466.013416500002,,,,6466.013687899998,6466.0293676,6466.0293676,6466.0293676,6466.328907899999,6466.413227100002,,,,,,,,,,,,,,,,up,4.124215400002868,None,space,0.37617970000064815,None,P127,001,2024-11-21_11h30.10.426,posner_endo_new1,2024.2.4,60.17343186501619,2024-11-21 11h30.19.865600 +0000,
-0.31,0.005,58,58,0,down,5.378903500000888,None,space,0.40610889999879873,None,,,,,,,,,0,58,58,58,6466.4289923,,,,,,,,,,,,6466.413392099999,6466.4289923,6466.4289923,6471.824124800001,,,,6471.824381900002,6471.840030200001,6471.840030200001,6471.840030200001,6472.139514300001,6472.2569325,,,,,,,,,,,,,,,,down,5.378903500000888,None,space,0.40610889999879873,None,P127,001,2024-11-21_11h30.10.426,posner_endo_new1,2024.2.4,60.17343186501619,2024-11-21 11h30.19.865600 +0000,
-0.31,0.005,59,59,0,up,4.28623510000034,None,space,0.5076344999979483,None,,,,,,,,,0,59,59,59,6472.2728904,,,,,,,,,,,,6472.257099999999,6472.2728904,6472.2728904,6476.569143100001,,,,6476.5694103999995,6476.5850914,6476.5850914,6476.5850914,6476.8848024,6477.102007099998,,,,,,,,,,,,,,,,up,4.28623510000034,None,space,0.5076344999979483,None,P127,001,2024-11-21_11h30.10.426,posner_endo_new1,2024.2.4,60.17343186501619,2024-11-21 11h30.19.865600 +0000,
