target_y,target_x,thisN,thisTrialN,thisRepN,key_control2.keys,key_control2.rt,key_control2.duration,key_resp.keys,key_resp.rt,key_resp.duration,practice.thisRepN,practice.thisTrialN,practice.thisN,practice.thisIndex,session_1.thisRepN,session_1.thisTrialN,session_1.thisN,session_1.thisIndex,session_2.thisRepN,session_2.thisTrialN,session_2.thisN,session_2.thisIndex,thisRow.t,notes,instructions.started,instructions_txt.started,key_control.started,instructions.stopped,key_control.keys,key_control.rt,key_control.duration,ready.started,ready_txt.started,ready.stopped,fix.started,key_control2.started,fixation_cross.started,fix.stopped,practice.key_control2.keys,practice.key_control2.rt,practice.key_control2.duration,target.started,star.started,fixation_cross_target.started,key_resp.started,star.stopped,key_resp.stopped,target.stopped,practice.key_resp.keys,practice.key_resp.rt,practice.key_resp.duration,session_1.key_control2.keys,session_1.key_control2.rt,session_1.key_control2.duration,session_1.key_resp.keys,session_1.key_resp.rt,session_1.key_resp.duration,break_2.started,text.started,key_control3.started,break_2.stopped,key_control3.keys,session_2.key_control2.keys,session_2.key_control2.rt,session_2.key_control2.duration,session_2.key_resp.keys,session_2.key_resp.rt,session_2.key_resp.duration,participant,session,date,expName,psychopyVersion,frameRate,expStart,
,,,,,,,,,,,,,,,,,,,,,,,,,0.007527699999627657,0.029704900000069756,0.029704900000069756,2836.9994907,up,2836.9538552999984,None,,,,,,,,,,,,,,,,,,,,,,,,,,,,,,,,,,,,,,P128,001,2024-11-21_13h21.59.662,posner_endo_new1,2024.2.4,60.11150684445707,2024-11-21 13h22.16.469784 +0000,
,,,,,,,,,,,,,,,,,,,,,,,,,,,,,,,,2836.9995443000007,2837.013149100003,2840.0095881000016,,,,,,,,,,,,,,,,,,,,,,,,,,,,,,,,,,,P128,001,2024-11-21_13h21.59.662,posner_endo_new1,2024.2.4,60.11150684445707,2024-11-21 13h22.16.469784 +0000,
0.005,10,0,0,0,down,7.13947200000257,None,None,,,0,0,0,9,,,,,,,,,2840.028718100002,,,,,,,,,,,,2840.0165755000016,2840.028718100002,2840.028718100002,2847.1698950000027,down,7.13947200000257,None,2847.1701754000023,2847.1856331000017,2847.1856331000017,2847.1856331000017,2847.4851486000007,2848.200995000003,2850.182580200002,None,,,,,,,,,,,,,,,,,,,,P128,001,2024-11-21_13h21.59.662,posner_endo_new1,2024.2.4,60.11150684445707,2024-11-21 13h22.16.469784 +0000,
0.005,-0.31,1,1,0,up,6.880656400000589,None,space,0.368649899999582,None,0,1,1,7,,,,,,,,,2850.1988114000014,,,,,,,,,,,,2850.182737700001,2850.1988114000014,2850.1988114000014,2857.0927059000023,up,6.880656400000589,None,2857.0929582999997,2857.1084126000023,2857.1084126000023,2857.1084126000023,2857.408323800002,,2857.4923344000017,space,0.368649899999582,None,,,,,,,,,,,,,,,,,,P128,001,2024-11-21_13h21.59.662,posner_endo_new1,2024.2.4,60.11150684445707,2024-11-21 13h22.16.469784 +0000,
10,0.005,2,2,0,down,3.4196895999994013,None,None,,,0,2,2,4,,,,,,,,,2857.5081403000004,,,,,,,,,,,,2857.4924941000027,2857.5081403000004,2857.5081403000004,2860.9387346000003,down,3.4196895999994013,None,2860.938994100001,2860.9546913000013,2860.9546913000013,2860.9546913000013,2861.254303200003,2861.970236100002,2863.9515745999997,None,,,,,,,,,,,,,,,,,,,,P128,001,2024-11-21_13h21.59.662,posner_endo_new1,2024.2.4,60.11150684445707,2024-11-21 13h22.16.469784 +0000,
0.005,0.31,3,3,0,up,0.9519932000002882,None,space,0.34305659999881755,None,0,3,3,6,,,,,,,,,2863.9680345000015,,,,,,,,,,,,2863.9517314000004,2863.9680345000015,2863.9680345000015,2864.934542500003,up,0.9519932000002882,None,2864.934796200003,2864.9503433000027,2864.9503433000027,2864.9503433000027,2865.2502385000007,,2865.301249,space,0.34305659999881755,None,,,,,,,,,,,,,,,,,,P128,001,2024-11-21_13h21.59.662,posner_endo_new1,2024.2.4,60.11150684445707,2024-11-21 13h22.16.469784 +0000,
0.31,0.005,4,4,0,down,3.363583299997117,None,space,0.42820950000168523,None,0,4,4,3,,,,,,,,,2865.316908300003,,,,,,,,,,,,2865.3014084999995,2865.316908300003,2865.316908300003,2868.697326700003,down,3.363583299997117,None,2868.6975784999995,2868.7132810000003,2868.7132810000003,2868.7132810000003,2869.0129774000015,,2869.1469865,space,0.42820950000168523,None,,,,,,,,,,,,,,,,,,P128,001,2024-11-21_13h21.59.662,posner_endo_new1,2024.2.4,60.11150684445707,2024-11-21 13h22.16.469784 +0000,
-0.31,0.005,5,5,0,up,2.653092699998524,None,space,0.354823599998781,None,0,5,5,0,,,,,,,,,2869.162646500001,,,,,,,,,,,,2869.147154800001,2869.162646500001,2869.162646500001,2871.8275904,up,2.653092699998524,None,2871.827840400001,2871.8434079,2871.8434079,2871.8434079,2872.143152200002,,2872.210563800003,space,0.354823599998781,None,,,,,,,,,,,,,,,,,,P128,001,2024-11-21_13h21.59.662,posner_endo_new1,2024.2.4,60.11150684445707,2024-11-21 13h22.16.469784 +0000,
-0.31,0.005,6,6,0,down,2.533674800000881,None,space,0.47101259999908507,None,0,6,6,2,,,,,,,,,2872.2263815000006,,,,,,,,,,,,2872.210721700001,2872.2263815000006,2872.2263815000006,2874.7745579,down,2.533674800000881,None,2874.7748059000005,2874.790418300003,2874.790418300003,2874.790418300003,2875.090034500001,,2875.2741349000025,space,0.47101259999908507,None,,,,,,,,,,,,,,,,,,P128,001,2024-11-21_13h21.59.662,posner_endo_new1,2024.2.4,60.11150684445707,2024-11-21 13h22.16.469784 +0000,
0.31,0.005,7,7,0,up,2.6621679999989283,None,space,0.3388477000007697,None,0,7,7,1,,,,,,,,,2875.2899714000014,,,,,,,,,,,,2875.2743007999998,2875.2899714000014,2875.2899714000014,2877.954748700002,up,2.6621679999989283,None,2877.954999700003,2877.9705547000012,2877.9705547000012,2877.9705547000012,2878.2699869999997,,2878.3209437000005,space,0.3388477000007697,None,,,,,,,,,,,,,,,,,,P128,001,2024-11-21_13h21.59.662,posner_endo_new1,2024.2.4,60.11150684445707,2024-11-21 13h22.16.469784 +0000,
0.005,0.31,8,8,0,down,2.686897700001282,None,space,0.3181799999983923,None,0,8,8,8,,,,,,,,,2878.3367475000014,,,,,,,,,,,,2878.321101900001,2878.3367475000014,2878.3367475000014,2881.034792100003,down,2.686897700001282,None,2881.0350435,2881.0506859000016,2881.0506859000016,2881.0506859000016,2881.3503455000027,,2881.3846163000017,space,0.3181799999983923,None,,,,,,,,,,,,,,,,,,P128,001,2024-11-21_13h21.59.662,posner_endo_new1,2024.2.4,60.11150684445707,2024-11-21 13h22.16.469784 +0000,
0.005,-0.31,9,9,0,up,2.2959716000004846,None,space,0.3583039999975881,None,0,9,9,5,,,,,,,,,2881.4002194000022,,,,,,,,,,,,2881.3847760999997,2881.4002194000022,2881.4002194000022,2883.6989544999997,up,2.2959716000004846,None,2883.6992143999996,2883.7144200000002,2883.7144200000002,2883.7144200000002,2884.0144696000025,,2884.0815747000015,space,0.3583039999975881,None,,,,,,,,,,,,,,,,,,P128,001,2024-11-21_13h21.59.662,posner_endo_new1,2024.2.4,60.11150684445707,2024-11-21 13h22.16.469784 +0000,
,,,,,,,,,,,,,,,,,,,,,,,,,,,,,,,,2884.0816815,2884.0976095000005,2887.094762500001,,,,,,,,,,,,,,,,,,,,,,,,,,,,,,,,,,,P128,001,2024-11-21_13h21.59.662,posner_endo_new1,2024.2.4,60.11150684445707,2024-11-21 13h22.16.469784 +0000,
-0.31,0.005,0,0,0,down,15.46983999999793,None,space,0.2971666000012192,None,,,,,0,0,0,0,,,,,2887.1137979000014,,,,,,,,,,,,2887.1033293,2887.1137979000014,2887.1137979000014,2902.5961857,,,,2902.596444400002,2902.6120819999996,2902.6120819999996,2902.6120819999996,2902.912025400001,,2902.9128266000007,,,,down,15.46983999999793,None,space,0.2971666000012192,None,,,,,,,,,,,,P128,001,2024-11-21_13h21.59.662,posner_endo_new1,2024.2.4,60.11150684445707,2024-11-21 13h22.16.469784 +0000,
0.005,0.31,1,1,0,up,3.1914008999992802,None,space,0.37898800000039046,None,,,,,0,1,1,1,,,,,2902.928306900001,,,,,,,,,,,,2902.9129887000017,2902.928306900001,2902.928306900001,2906.1260199999997,,,,2906.1262699,2906.141801200003,2906.141801200003,2906.141801200003,2906.441399700001,,2906.5255733000013,,,,up,3.1914008999992802,None,space,0.37898800000039046,None,,,,,,,,,,,,P128,001,2024-11-21_13h21.59.662,posner_endo_new1,2024.2.4,60.11150684445707,2024-11-21 13h22.16.469784 +0000,
0.31,0.005,2,2,0,down,2.70661839999957,None,space,0.2899978999994346,None,,,,,0,2,2,2,,,,,2906.5412185000023,,,,,,,,,,,,2906.5257396000015,2906.5412185000023,2906.5412185000023,2909.2558298000004,,,,2909.2560911,2909.2718117000004,2909.2718117000004,2909.2718117000004,2909.5712281000015,,2909.5720594000013,,,,down,2.70661839999957,None,space,0.2899978999994346,None,,,,,,,,,,,,P128,001,2024-11-21_13h21.59.662,posner_endo_new1,2024.2.4,60.11150684445707,2024-11-21 13h22.16.469784 +0000,
0.31,0.005,3,3,0,up,2.4041214999997464,None,space,0.5788517000000866,None,,,,,0,3,3,3,,,,,2909.588128200001,,,,,,,,,,,,2909.5722249000028,2909.588128200001,2909.588128200001,2912.0030558,,,,2912.0033089999997,2912.019074400003,2912.019074400003,2912.019074400003,2912.318758200003,,2912.602480700003,,,,up,2.4041214999997464,None,space,0.5788517000000866,None,,,,,,,,,,,,P128,001,2024-11-21_13h21.59.662,posner_endo_new1,2024.2.4,60.11150684445707,2024-11-21 13h22.16.469784 +0000,
-0.31,0.005,4,4,0,down,2.0137342999987595,None,space,0.23925430000235792,None,,,,,0,4,4,4,,,,,2912.6184858000015,,,,,,,,,,,,2912.6026445000025,2912.6184858000015,2912.6184858000015,2914.633921800003,,,,2914.6341840000023,2914.6496896000026,2914.6496896000026,2914.6496896000026,,,2914.9001506000022,,,,down,2.0137342999987595,None,space,0.23925430000235792,None,,,,,,,,,,,,P128,001,2024-11-21_13h21.59.662,posner_endo_new1,2024.2.4,60.11150684445707,2024-11-21 13h22.16.469784 +0000,
0.005,-0.31,5,5,0,up,2.52410609999788,None,space,0.25469929999962915,None,,,,,0,5,5,5,,,,,2914.9161784000025,,,,,,,,,,,,2914.9003169999996,2914.9161784000025,2914.9161784000025,2917.4474679000014,,,,2917.4477184999996,2917.4633839000016,2917.4633839000016,2917.4633839000016,,,2917.7305902000007,,,,up,2.52410609999788,None,space,0.25469929999962915,None,,,,,,,,,,,,P128,001,2024-11-21_13h21.59.662,posner_endo_new1,2024.2.4,60.11150684445707,2024-11-21 13h22.16.469784 +0000,
0.005,-0.31,6,6,0,down,2.877748999999312,None,space,0.266637400000036,None,,,,,0,6,6,6,,,,,2917.7464580000014,,,,,,,,,,,,2917.730757000001,2917.7464580000014,2917.7464580000014,2920.627688700002,,,,2920.627939400001,2920.643426900002,2920.643426900002,2920.643426900002,,,2920.910865400001,,,,down,2.877748999999312,None,space,0.266637400000036,None,,,,,,,,,,,,P128,001,2024-11-21_13h21.59.662,posner_endo_new1,2024.2.4,60.11150684445707,2024-11-21 13h22.16.469784 +0000,
10,0.005,7,7,0,up,2.041776000001846,None,None,,,,,,,0,7,7,7,,,,,2920.9265032000003,,,,,,,,,,,,2920.9110339,2920.9265032000003,2920.9265032000003,2922.9752377000004,,,,2922.9754942,2922.9911009999996,2922.9911009999996,2922.9911009999996,2923.2908376000014,2924.0067756000026,2925.988105200002,,,,up,2.041776000001846,None,None,,,,,,,,,,,,,,P128,001,2024-11-21_13h21.59.662,posner_endo_new1,2024.2.4,60.11150684445707,2024-11-21 13h22.16.469784 +0000,
-0.31,0.005,8,8,0,down,8.491716000000451,None,space,0.3473682000003464,None,,,,,0,8,8,8,,,,,2926.004586700001,,,,,,,,,,,,2925.9882727000004,2926.004586700001,2926.004586700001,2934.4970694000003,,,,2934.497328900001,2934.5124971000005,2934.5124971000005,2934.5124971000005,2934.8123228000004,,2934.8630075,,,,down,8.491716000000451,None,space,0.3473682000003464,None,,,,,,,,,,,,P128,001,2024-11-21_13h21.59.662,posner_endo_new1,2024.2.4,60.11150684445707,2024-11-21 13h22.16.469784 +0000,
0.005,0.31,9,9,0,up,3.0729146000012406,None,space,0.3786236000014469,None,,,,,0,9,9,9,,,,,2934.878940100003,,,,,,,,,,,,2934.8631736000025,2934.878940100003,2934.878940100003,2937.959704500001,,,,2937.9599579000023,2937.9757094000015,2937.9757094000015,2937.9757094000015,2938.2754013000012,,2938.3596653000022,,,,up,3.0729146000012406,None,space,0.3786236000014469,None,,,,,,,,,,,,P128,001,2024-11-21_13h21.59.662,posner_endo_new1,2024.2.4,60.11150684445707,2024-11-21 13h22.16.469784 +0000,
0.005,-0.31,10,10,0,down,2.616824100001395,None,space,0.40915139999924577,None,,,,,0,10,10,10,,,,,2938.3753087000005,,,,,,,,,,,,2938.3598371000007,2938.3753087000005,2938.3753087000005,2941.0066817000006,,,,2941.0069382,2941.0226764,2941.0226764,2941.0226764,2941.322454100002,,2941.4396963,,,,down,2.616824100001395,None,space,0.40915139999924577,None,,,,,,,,,,,,P128,001,2024-11-21_13h21.59.662,posner_endo_new1,2024.2.4,60.11150684445707,2024-11-21 13h22.16.469784 +0000,
0.005,0.31,11,11,0,up,2.6477648000000045,None,space,0.38406880000184174,None,,,,,0,11,11,11,,,,,2941.4555989,,,,,,,,,,,,2941.439860900002,2941.4555989,2941.4555989,2944.104330500002,,,,2944.104585000001,2944.119405100002,2944.119405100002,2944.119405100002,2944.4191054000003,,2944.5198936000015,,,,up,2.6477648000000045,None,space,0.38406880000184174,None,,,,,,,,,,,,P128,001,2024-11-21_13h21.59.662,posner_endo_new1,2024.2.4,60.11150684445707,2024-11-21 13h22.16.469784 +0000,
10,0.005,12,12,0,down,2.6799073000001954,None,None,,,,,,,0,12,12,12,,,,,2944.535598600003,,,,,,,,,,,,2944.520059900002,2944.535598600003,2944.535598600003,2947.217336900001,,,,2947.2176174000015,2947.2328835000008,2947.2328835000008,2947.2328835000008,2947.532687400002,2948.2319588000028,2950.2300147000024,,,,down,2.6799073000001954,None,None,,,,,,,,,,,,,,P128,001,2024-11-21_13h21.59.662,posner_endo_new1,2024.2.4,60.11150684445707,2024-11-21 13h22.16.469784 +0000,
0.31,0.005,13,13,0,up,0.17788759999893955,None,space,0.35628990000259364,None,,,,,0,13,13,13,,,,,2950.2463610000013,,,,,,,,,,,,2950.2301848999996,2950.2463610000013,2950.2463610000013,2950.430335600002,,,,2950.4305848000004,2950.4463332000014,2950.4463332000014,2950.4463332000014,2950.7458939999997,,2950.8133549000013,,,,up,0.17788759999893955,None,space,0.35628990000259364,None,,,,,,,,,,,,P128,001,2024-11-21_13h21.59.662,posner_endo_new1,2024.2.4,60.11150684445707,2024-11-21 13h22.16.469784 +0000,
10,0.005,14,14,0,down,2.69103080000059,None,None,,,,,,,0,14,14,14,,,,,2950.829248500002,,,,,,,,,,,,2950.813519800002,2950.829248500002,2950.829248500002,2953.5274269,,,,2953.5276773000005,2953.543200100001,2953.543200100001,2953.543200100001,2953.842960500002,2954.542108400001,2956.5401727000026,,,,down,2.69103080000059,None,None,,,,,,,,,,,,,,P128,001,2024-11-21_13h21.59.662,posner_endo_new1,2024.2.4,60.11150684445707,2024-11-21 13h22.16.469784 +0000,
-0.31,0.005,15,15,0,up,6.852335800002038,None,space,0.3850227000002633,None,,,,,0,15,15,15,,,,,2956.5565290000013,,,,,,,,,,,,2956.5403374000016,2956.5565290000013,2956.5565290000013,2963.4171666,,,,2963.417418000001,2963.4331643000005,2963.4331643000005,2963.4331643000005,2963.7327541000013,,2963.8334832,,,,up,6.852335800002038,None,space,0.3850227000002633,None,,,,,,,,,,,,P128,001,2024-11-21_13h21.59.662,posner_endo_new1,2024.2.4,60.11150684445707,2024-11-21 13h22.16.469784 +0000,
0.005,-0.31,16,16,0,down,2.9102730999984487,None,space,0.37789150000025984,None,,,,,0,16,16,16,,,,,2963.849137600002,,,,,,,,,,,,2963.8336486000007,2963.849137600002,2963.849137600002,2966.7638571000025,,,,2966.7641103000024,2966.7795713000014,2966.7795713000014,2966.7795713000014,2967.0792678,,2967.1633919000014,,,,down,2.9102730999984487,None,space,0.37789150000025984,None,,,,,,,,,,,,P128,001,2024-11-21_13h21.59.662,posner_endo_new1,2024.2.4,60.11150684445707,2024-11-21 13h22.16.469784 +0000,
0.005,0.31,17,17,0,up,2.548036799998954,None,space,0.3844177999999374,None,,,,,0,17,17,17,,,,,2967.1792607000025,,,,,,,,,,,,2967.163569100001,2967.1792607000025,2967.1792607000025,2969.7438917,,,,2969.744142800002,2969.7599179999997,2969.7599179999997,2969.7599179999997,2970.0596181,,2970.160217800003,,,,up,2.548036799998954,None,space,0.3844177999999374,None,,,,,,,,,,,,P128,001,2024-11-21_13h21.59.662,posner_endo_new1,2024.2.4,60.11150684445707,2024-11-21 13h22.16.469784 +0000,
-0.31,0.005,18,18,0,down,2.703610300002765,None,space,0.3530791000011959,None,,,,,0,18,18,18,,,,,2970.1761122999997,,,,,,,,,,,,2970.1603828000007,2970.1761122999997,2970.1761122999997,2972.890696000002,,,,2972.8909494,2972.9067197000004,2972.9067197000004,2972.9067197000004,2973.206325000003,,2973.273727900003,,,,down,2.703610300002765,None,space,0.3530791000011959,None,,,,,,,,,,,,P128,001,2024-11-21_13h21.59.662,posner_endo_new1,2024.2.4,60.11150684445707,2024-11-21 13h22.16.469784 +0000,
10,0.005,19,19,0,up,1.9019293999990623,None,None,,,,,,,0,19,19,19,,,,,2973.2896870000004,,,,,,,,,,,,2973.273895000002,2973.2896870000004,2973.2896870000004,2975.2049155000022,,,,2975.205165800002,2975.2210195000007,2975.2210195000007,2975.2210195000007,2975.5206585000014,2976.236486400001,2978.2180719000025,,,,up,1.9019293999990623,None,None,,,,,,,,,,,,,,P128,001,2024-11-21_13h21.59.662,posner_endo_new1,2024.2.4,60.11150684445707,2024-11-21 13h22.16.469784 +0000,
0.005,0.31,20,20,0,down,0.4217376000015065,None,space,0.35442719999991823,None,,,,,0,20,20,20,,,,,2978.2346080999996,,,,,,,,,,,,2978.2182391999995,2978.2346080999996,2978.2346080999996,2978.6681516000026,,,,2978.668403800002,2978.683852600003,2978.683852600003,2978.683852600003,2978.9837429,,2979.051163400003,,,,down,0.4217376000015065,None,space,0.35442719999991823,None,,,,,,,,,,,,P128,001,2024-11-21_13h21.59.662,posner_endo_new1,2024.2.4,60.11150684445707,2024-11-21 13h22.16.469784 +0000,
0.005,-0.31,21,21,0,up,2.413279499996861,None,space,0.33156120000057854,None,,,,,0,21,21,21,,,,,2979.0669973000004,,,,,,,,,,,,2979.0513277000027,2979.0669973000004,2979.0669973000004,2981.4821095000007,,,,2981.482368000001,2981.497679400003,2981.497679400003,2981.497679400003,2981.7976855000015,,2981.831851500003,,,,up,2.413279499996861,None,space,0.33156120000057854,None,,,,,,,,,,,,P128,001,2024-11-21_13h21.59.662,posner_endo_new1,2024.2.4,60.11150684445707,2024-11-21 13h22.16.469784 +0000,
0.005,0.31,22,22,0,down,2.2084289000013086,None,space,0.26479789999939385,None,,,,,0,22,22,22,,,,,2981.8475346000014,,,,,,,,,,,,2981.8320144000027,2981.8475346000014,2981.8475346000014,2984.062476500003,,,,2984.0627263000024,2984.0786135000017,2984.0786135000017,2984.0786135000017,,,2984.3457753000002,,,,down,2.2084289000013086,None,space,0.26479789999939385,None,,,,,,,,,,,,P128,001,2024-11-21_13h21.59.662,posner_endo_new1,2024.2.4,60.11150684445707,2024-11-21 13h22.16.469784 +0000,
0.31,0.005,23,23,0,up,2.229997000002186,None,space,0.31195329999900423,None,,,,,0,23,23,23,,,,,2984.3615186000025,,,,,,,,,,,,2984.3459435000004,2984.3615186000025,2984.3615186000025,2986.5933952000014,,,,2986.5936531000007,2986.6095478000025,2986.6095478000025,2986.6095478000025,2986.9089346,,2986.92641,,,,up,2.229997000002186,None,space,0.31195329999900423,None,,,,,,,,,,,,P128,001,2024-11-21_13h21.59.662,posner_endo_new1,2024.2.4,60.11150684445707,2024-11-21 13h22.16.469784 +0000,
0.005,0.31,24,24,0,down,2.337876099998539,None,space,0.2509156999985862,None,,,,,0,24,24,24,,,,,2986.942255500002,,,,,,,,,,,,2986.926581800002,2986.942255500002,2986.942255500002,2989.2904952999997,,,,2989.2907519,2989.3065368999996,2989.3065368999996,2989.3065368999996,,,2989.573916100002,,,,down,2.337876099998539,None,space,0.2509156999985862,None,,,,,,,,,,,,P128,001,2024-11-21_13h21.59.662,posner_endo_new1,2024.2.4,60.11150684445707,2024-11-21 13h22.16.469784 +0000,
0.31,0.005,25,25,0,up,2.561993100000109,None,space,0.23645540000143228,None,,,,,0,25,25,25,,,,,2989.589504300002,,,,,,,,,,,,2989.574080600003,2989.589504300002,2989.589504300002,2992.1543754000013,,,,2992.1546364000023,2992.1701791000014,2992.1701791000014,2992.1701791000014,,,2992.420841700001,,,,up,2.561993100000109,None,space,0.23645540000143228,None,,,,,,,,,,,,P128,001,2024-11-21_13h21.59.662,posner_endo_new1,2024.2.4,60.11150684445707,2024-11-21 13h22.16.469784 +0000,
10,0.005,26,26,0,down,2.579742300000362,None,None,,,,,,,0,26,26,26,,,,,2992.436660700001,,,,,,,,,,,,2992.4210077000025,2992.436660700001,2992.436660700001,2995.018206200002,,,,2995.0184609999997,2995.034095500003,2995.034095500003,2995.034095500003,2995.3337210000027,2996.0496650000023,2998.030955000002,,,,down,2.579742300000362,None,None,,,,,,,,,,,,,,P128,001,2024-11-21_13h21.59.662,posner_endo_new1,2024.2.4,60.11150684445707,2024-11-21 13h22.16.469784 +0000,
10,0.005,27,27,0,down,2.896503899999516,None,None,,,,,,,0,27,27,27,,,,,2998.0476524000005,,,,,,,,,,,,2998.0311182000005,2998.0476524000005,2998.0476524000005,3000.945558800002,,,,3000.9458102000026,3000.9612954000004,3000.9612954000004,3000.9612954000004,3001.260930700002,3001.976962800003,3003.958311000002,,,,down,2.896503899999516,None,None,,,,,,,,,,,,,,P128,001,2024-11-21_13h21.59.662,posner_endo_new1,2024.2.4,60.11150684445707,2024-11-21 13h22.16.469784 +0000,
0.005,-0.31,28,28,0,up,0.5533242000019527,None,space,0.3132910999993328,None,,,,,0,28,28,28,,,,,3003.9748247000025,,,,,,,,,,,,3003.9584725000022,3003.9748247000025,3003.9748247000025,3004.5415514000015,,,,3004.5417992000002,3004.5574608000024,3004.5574608000024,3004.5574608000024,3004.857365400003,,3004.8747387000003,,,,up,0.5533242000019527,None,space,0.3132910999993328,None,,,,,,,,,,,,P128,001,2024-11-21_13h21.59.662,posner_endo_new1,2024.2.4,60.11150684445707,2024-11-21 13h22.16.469784 +0000,
0.31,0.005,29,29,0,down,3.1087609000023804,None,space,0.2797601000020222,None,,,,,0,29,29,29,,,,,3004.890640200003,,,,,,,,,,,,3004.8749016,3004.890640200003,3004.890640200003,3008.0049655000003,,,,3008.005222900003,3008.0207020000016,3008.0207020000016,3008.0207020000016,3008.3203114000025,,3008.304560300003,,,,down,3.1087609000023804,None,space,0.2797601000020222,None,,,,,,,,,,,,P128,001,2024-11-21_13h21.59.662,posner_endo_new1,2024.2.4,60.11150684445707,2024-11-21 13h22.16.469784 +0000,
10,0.005,30,30,0,up,2.31189330000052,None,None,,,,,,,0,30,30,30,,,,,3008.3203114000025,,,,,,,,,,,,3008.3047239000007,3008.3203114000025,3008.3203114000025,3010.6353412000026,,,,3010.635592300001,3010.6512734000025,3010.6512734000025,3010.6512734000025,3010.950957000001,3011.6503204,3013.6483915000026,,,,up,2.31189330000052,None,None,,,,,,,,,,,,,,P128,001,2024-11-21_13h21.59.662,posner_endo_new1,2024.2.4,60.11150684445707,2024-11-21 13h22.16.469784 +0000,
0.31,0.005,31,31,0,down,0.8382275000003574,None,space,0.27148400000078254,None,,,,,0,31,31,31,,,,,3013.6650346999995,,,,,,,,,,,,3013.6485586000017,3013.6650346999995,3013.6650346999995,3014.514925200001,,,,3014.5151736000007,3014.530501600002,3014.530501600002,3014.530501600002,3014.8304088000004,,3014.8146122,,,,down,0.8382275000003574,None,space,0.27148400000078254,None,,,,,,,,,,,,P128,001,2024-11-21_13h21.59.662,posner_endo_new1,2024.2.4,60.11150684445707,2024-11-21 13h22.16.469784 +0000,
0.31,0.005,32,32,0,up,2.6652415999997174,None,space,0.3644136000002618,None,,,,,0,32,32,32,,,,,3014.8304088000004,,,,,,,,,,,,3014.8147763000015,3014.8304088000004,3014.8304088000004,3017.5118656000013,,,,3017.512117500002,3017.5276668000006,3017.5276668000006,3017.5276668000006,3017.827278500001,,3017.8948167000017,,,,up,2.6652415999997174,None,space,0.3644136000002618,None,,,,,,,,,,,,P128,001,2024-11-21_13h21.59.662,posner_endo_new1,2024.2.4,60.11150684445707,2024-11-21 13h22.16.469784 +0000,
10,0.005,33,33,0,down,2.560946600002353,None,None,,,,,,,0,33,33,33,,,,,3017.9104714000023,,,,,,,,,,,,3017.8949888000025,3017.9104714000023,3017.9104714000023,3020.4754810000013,,,,3020.4757323000013,3020.4912704000017,3020.4912704000017,3020.4912704000017,3020.7909844000023,3021.4903067000014,3023.4883520000003,,,,down,2.560946600002353,None,None,,,,,,,,,,,,,,P128,001,2024-11-21_13h21.59.662,posner_endo_new1,2024.2.4,60.11150684445707,2024-11-21 13h22.16.469784 +0000,
0.005,-0.31,34,34,0,up,0.5025769999992917,None,space,0.32536629999958677,None,,,,,0,34,34,34,,,,,3023.504864300001,,,,,,,,,,,,3023.4885114999997,3023.504864300001,3023.504864300001,3024.021919900002,,,,3024.0221722000024,3024.0377302000015,3024.0377302000015,3024.0377302000015,3024.337457400001,,3024.3714421000004,,,,up,0.5025769999992917,None,space,0.32536629999958677,None,,,,,,,,,,,,P128,001,2024-11-21_13h21.59.662,posner_endo_new1,2024.2.4,60.11150684445707,2024-11-21 13h22.16.469784 +0000,
-0.31,0.005,35,35,0,down,3.0284540000029665,None,space,0.2688510999978462,None,,,,,0,35,35,35,,,,,3024.3873405000013,,,,,,,,,,,,3024.3716093000003,3024.3873405000013,3024.3873405000013,3027.418190700002,,,,3027.418442000002,3027.4341851000027,3027.4341851000027,3027.4341851000027,3027.7338726000016,,3027.717910000003,,,,down,3.0284540000029665,None,space,0.2688510999978462,None,,,,,,,,,,,,P128,001,2024-11-21_13h21.59.662,posner_endo_new1,2024.2.4,60.11150684445707,2024-11-21 13h22.16.469784 +0000,
-0.31,0.005,36,36,0,up,3.057838599997922,None,space,0.2669153999995615,None,,,,,0,36,36,36,,,,,3027.7338726000016,,,,,,,,,,,,3027.7180757000024,3027.7338726000016,3027.7338726000016,3030.7982373000013,,,,3030.7984896000016,3030.813917200001,3030.813917200001,3030.813917200001,3031.1136203000024,,3031.0977377000017,,,,up,3.057838599997922,None,space,0.2669153999995615,None,,,,,,,,,,,,P128,001,2024-11-21_13h21.59.662,posner_endo_new1,2024.2.4,60.11150684445707,2024-11-21 13h22.16.469784 +0000,
10,0.005,37,37,0,down,2.2460974999994505,None,None,,,,,,,0,37,37,37,,,,,3031.1136203000024,,,,,,,,,,,,3031.0979047,3031.1136203000024,3031.1136203000024,3033.3621721000018,,,,3033.362424900002,3033.378171100001,3033.378171100001,3033.378171100001,3033.6778048000015,3034.3937692,3036.3750734000023,,,,down,2.2460974999994505,None,None,,,,,,,,,,,,,,P128,001,2024-11-21_13h21.59.662,posner_endo_new1,2024.2.4,60.11150684445707,2024-11-21 13h22.16.469784 +0000,
0.005,0.31,38,38,0,up,0.41595070000039414,None,space,0.30918230000315816,None,,,,,0,38,38,38,,,,,3036.3917097000012,,,,,,,,,,,,3036.3752432,3036.3917097000012,3036.3917097000012,3036.8087658000004,,,,3036.809031200002,3036.8246424000026,3036.8246424000026,3036.8246424000026,3037.1242794000027,,3037.141523100003,,,,up,0.41595070000039414,None,space,0.30918230000315816,None,,,,,,,,,,,,P128,001,2024-11-21_13h21.59.662,posner_endo_new1,2024.2.4,60.11150684445707,2024-11-21 13h22.16.469784 +0000,
0.005,-0.31,39,39,0,down,2.82649709999896,None,space,0.3262314999992668,None,,,,,0,39,39,39,,,,,3037.1575539000005,,,,,,,,,,,,3037.141690100001,3037.1575539000005,3037.1575539000005,3039.988730600002,,,,3039.9889917,3040.0045543000015,3040.0045543000015,3040.0045543000015,3040.304284900001,,3040.3381584000017,,,,down,2.82649709999896,None,space,0.3262314999992668,None,,,,,,,,,,,,P128,001,2024-11-21_13h21.59.662,posner_endo_new1,2024.2.4,60.11150684445707,2024-11-21 13h22.16.469784 +0000,
0.31,0.005,40,40,0,up,2.3256046999995306,None,space,0.34758309999961057,None,,,,,0,40,40,40,,,,,3040.3541062000004,,,,,,,,,,,,3040.3383232000015,3040.3541062000004,3040.3541062000004,3042.6859478000006,,,,3042.686206100003,3042.701822400002,3042.701822400002,3042.701822400002,3043.0014075,,3043.052216400003,,,,up,2.3256046999995306,None,space,0.34758309999961057,None,,,,,,,,,,,,P128,001,2024-11-21_13h21.59.662,posner_endo_new1,2024.2.4,60.11150684445707,2024-11-21 13h22.16.469784 +0000,
-0.31,0.005,41,41,0,down,1.9234501999999338,None,space,0.3493856000022788,None,,,,,0,41,41,41,,,,,3043.068120400003,,,,,,,,,,,,3043.052386800002,3043.068120400003,3043.068120400003,3045.000279400003,,,,3045.0005340999996,3045.016201100003,3045.016201100003,3045.016201100003,3045.3159061000006,,3045.366780600001,,,,down,1.9234501999999338,None,space,0.3493856000022788,None,,,,,,,,,,,,P128,001,2024-11-21_13h21.59.662,posner_endo_new1,2024.2.4,60.11150684445707,2024-11-21 13h22.16.469784 +0000,
0.31,0.005,42,42,0,up,2.553330200000346,None,space,0.31739520000337507,None,,,,,0,42,42,42,,,,,3045.3825039000003,,,,,,,,,,,,3045.3669461000027,3045.3825039000003,3045.3825039000003,3047.9472387000023,,,,3047.9474910000026,3047.9632001000027,3047.9632001000027,3047.9632001000027,3048.2627508000005,,3048.2969656000023,,,,up,2.553330200000346,None,space,0.31739520000337507,None,,,,,,,,,,,,P128,001,2024-11-21_13h21.59.662,posner_endo_new1,2024.2.4,60.11150684445707,2024-11-21 13h22.16.469784 +0000,
10,0.005,43,43,0,down,2.2148013999976683,None,None,,,,,,,0,43,43,43,,,,,3048.312732000002,,,,,,,,,,,,3048.2971292,3048.312732000002,3048.312732000002,3050.5444707000024,,,,3050.544726600001,3050.560600300003,3050.560600300003,3050.560600300003,3050.8601172000017,3051.5593221000017,3053.5575136000007,,,,down,2.2148013999976683,None,None,,,,,,,,,,,,,,P128,001,2024-11-21_13h21.59.662,posner_endo_new1,2024.2.4,60.11150684445707,2024-11-21 13h22.16.469784 +0000,
-0.31,0.005,44,44,0,down,3.6019685999999638,None,space,0.26134079999974347,None,,,,,0,44,44,44,,,,,3053.5737563000002,,,,,,,,,,,,3053.557674300002,3053.5737563000002,3053.5737563000002,3057.187797300001,,,,3057.1880598999996,3057.203554900003,3057.203554900003,3057.203554900003,,,3057.4708499000008,,,,down,3.6019685999999638,None,space,0.26134079999974347,None,,,,,,,,,,,,P128,001,2024-11-21_13h21.59.662,posner_endo_new1,2024.2.4,60.11150684445707,2024-11-21 13h22.16.469784 +0000,
0.005,0.31,45,45,0,up,2.6806873999994423,None,space,0.40231000000130734,None,,,,,0,45,45,45,,,,,3057.486770200001,,,,,,,,,,,,3057.471034000002,3057.486770200001,3057.486770200001,3060.168295300002,,,,3060.168557500001,3060.1839500000024,3060.1839500000024,3060.1839500000024,3060.483714400001,,3060.601040400001,,,,up,2.6806873999994423,None,space,0.40231000000130734,None,,,,,,,,,,,,P128,001,2024-11-21_13h21.59.662,posner_endo_new1,2024.2.4,60.11150684445707,2024-11-21 13h22.16.469784 +0000,
0.005,-0.31,46,46,0,down,3.150733400001627,None,space,0.2811870000005001,None,,,,,0,46,46,46,,,,,3060.616777200001,,,,,,,,,,,,3060.6012052000005,3060.616777200001,3060.616777200001,3063.7811143,,,,3063.7813671000004,3063.7968005000002,3063.7968005000002,3063.7968005000002,3064.0966136999996,,3064.080796600003,,,,down,3.150733400001627,None,space,0.2811870000005001,None,,,,,,,,,,,,P128,001,2024-11-21_13h21.59.662,posner_endo_new1,2024.2.4,60.11150684445707,2024-11-21 13h22.16.469784 +0000,
-0.31,0.005,47,47,0,up,2.862881999997626,None,space,0.27745929999946384,None,,,,,0,47,47,47,,,,,3064.0966136999996,,,,,,,,,,,,3064.0809719000026,3064.0966136999996,3064.0966136999996,3066.9611403000017,,,,3066.9613967000005,3066.9769232,3066.9769232,3066.9769232,3067.276677400001,,3067.2610319000014,,,,up,2.862881999997626,None,space,0.27745929999946384,None,,,,,,,,,,,,P128,001,2024-11-21_13h21.59.662,posner_endo_new1,2024.2.4,60.11150684445707,2024-11-21 13h22.16.469784 +0000,
0.005,-0.31,48,48,0,down,3.0270238000011886,None,space,0.27708910000001197,None,,,,,0,48,48,48,,,,,3067.276677400001,,,,,,,,,,,,3067.261197300002,3067.276677400001,3067.276677400001,3070.307828000001,,,,3070.308079000002,3070.3236411,3070.3236411,3070.3236411,3070.6232756000027,,3070.6078579000023,,,,down,3.0270238000011886,None,space,0.27708910000001197,None,,,,,,,,,,,,P128,001,2024-11-21_13h21.59.662,posner_endo_new1,2024.2.4,60.11150684445707,2024-11-21 13h22.16.469784 +0000,
0.005,-0.31,49,49,0,up,3.032777600001282,None,space,0.3859959000001254,None,,,,,0,49,49,49,,,,,3070.6232756000027,,,,,,,,,,,,3070.6080223999998,3070.6232756000027,3070.6232756000027,3073.6710163999996,,,,3073.6712711,3073.686689500002,3073.686689500002,3073.686689500002,3073.9863925000027,,3074.087080600002,,,,up,3.032777600001282,None,space,0.3859959000001254,None,,,,,,,,,,,,P128,001,2024-11-21_13h21.59.662,posner_endo_new1,2024.2.4,60.11150684445707,2024-11-21 13h22.16.469784 +0000,
0.005,0.31,50,50,0,down,3.1280551999989257,None,space,0.2866857000008167,None,,,,,0,50,50,50,,,,,3074.1036526000025,,,,,,,,,,,,3074.0872455999997,3074.1036526000025,3074.1036526000025,3077.2340489000017,,,,3077.234298000003,3077.2497753999996,3077.2497753999996,3077.2497753999996,3077.549398700001,,3077.550259200001,,,,down,3.1280551999989257,None,space,0.2866857000008167,None,,,,,,,,,,,,P128,001,2024-11-21_13h21.59.662,posner_endo_new1,2024.2.4,60.11150684445707,2024-11-21 13h22.16.469784 +0000,
0.31,0.005,51,51,0,up,2.7378697999993165,None,space,0.2712322999977914,None,,,,,0,51,51,51,,,,,3077.5662415000006,,,,,,,,,,,,3077.5504185000027,3077.5662415000006,3077.5662415000006,3080.313994600001,,,,3080.314251,3080.3300437,3080.3300437,3080.3300437,3080.629778100003,,3080.6138912000024,,,,up,2.7378697999993165,None,space,0.2712322999977914,None,,,,,,,,,,,,P128,001,2024-11-21_13h21.59.662,posner_endo_new1,2024.2.4,60.11150684445707,2024-11-21 13h22.16.469784 +0000,
0.31,0.005,52,52,0,down,2.6573570000000473,None,space,0.2503309000021545,None,,,,,0,52,52,52,,,,,3080.629778100003,,,,,,,,,,,,3080.6140551999997,3080.629778100003,3080.629778100003,3083.2943374000024,,,,3083.2945891000018,3083.3103445000015,3083.3103445000015,3083.3103445000015,,,3083.577387600002,,,,down,2.6573570000000473,None,space,0.2503309000021545,None,,,,,,,,,,,,P128,001,2024-11-21_13h21.59.662,posner_endo_new1,2024.2.4,60.11150684445707,2024-11-21 13h22.16.469784 +0000,
0.005,0.31,53,53,0,up,3.110748399998556,None,space,0.4480825000027835,None,,,,,0,53,53,53,,,,,3083.5933057,,,,,,,,,,,,3083.577553000003,3083.5933057,3083.5933057,3086.7077365000005,,,,3086.7079881000027,3086.7233514,3086.7233514,3086.7233514,3087.0232349,,3087.1740044,,,,up,3.110748399998556,None,space,0.4480825000027835,None,,,,,,,,,,,,P128,001,2024-11-21_13h21.59.662,posner_endo_new1,2024.2.4,60.11150684445707,2024-11-21 13h22.16.469784 +0000,
-0.31,0.005,54,54,0,down,2.417999100001907,None,space,0.3068265000001702,None,,,,,0,54,54,54,,,,,3087.1895427000018,,,,,,,,,,,,3087.174174400003,3087.1895427000018,3087.1895427000018,3089.621339700003,,,,3089.6215926000004,3089.6371406,3089.6371406,3089.6371406,3089.9369042,,3089.954156900003,,,,down,2.417999100001907,None,space,0.3068265000001702,None,,,,,,,,,,,,P128,001,2024-11-21_13h21.59.662,posner_endo_new1,2024.2.4,60.11150684445707,2024-11-21 13h22.16.469784 +0000,
10,0.005,55,55,0,up,2.2853995000004943,None,None,,,,,,,0,55,55,55,,,,,3089.970234700002,,,,,,,,,,,,3089.954322400001,3089.970234700002,3089.970234700002,3092.2684775000016,,,,3092.2687288000016,3092.2842087000026,3092.2842087000026,3092.2842087000026,3092.583947700001,3093.2832719,3095.2813774999995,,,,up,2.2853995000004943,None,None,,,,,,,,,,,,,,P128,001,2024-11-21_13h21.59.662,posner_endo_new1,2024.2.4,60.11150684445707,2024-11-21 13h22.16.469784 +0000,
0.31,0.005,56,56,0,down,0.91737760000251,None,space,0.3122446999987005,None,,,,,0,56,56,56,,,,,3095.297920000001,,,,,,,,,,,,3095.2815470000023,3095.297920000001,3095.297920000001,3096.2310875000003,,,,3096.231335800003,3096.2470128000023,3096.2470128000023,3096.2470128000023,3096.5466578000014,,3096.5641816000025,,,,down,0.91737760000251,None,space,0.3122446999987005,None,,,,,,,,,,,,P128,001,2024-11-21_13h21.59.662,posner_endo_new1,2024.2.4,60.11150684445707,2024-11-21 13h22.16.469784 +0000,
0.005,0.31,57,57,0,up,4.5640694000030635,None,space,0.3110989000015252,None,,,,,0,57,57,57,,,,,3096.5799592000003,,,,,,,,,,,,3096.5643554000017,3096.5799592000003,3096.5799592000003,3101.1594539,,,,3101.1597035000013,3101.175250600001,3101.175250600001,3101.175250600001,3101.474973200002,,3101.4926412000023,,,,up,4.5640694000030635,None,space,0.3110989000015252,None,,,,,,,,,,,,P128,001,2024-11-21_13h21.59.662,posner_endo_new1,2024.2.4,60.11150684445707,2024-11-21 13h22.16.469784 +0000,
-0.31,0.005,58,58,0,down,2.5391984000016237,None,space,0.4825047000013001,None,,,,,0,58,58,58,,,,,3101.508259800001,,,,,,,,,,,,3101.4928050000017,3101.508259800001,3101.508259800001,3104.0565892000013,,,,3104.057042700002,3104.0718338000006,3104.0718338000006,3104.0718338000006,3104.371535100003,,3104.5561699000027,,,,down,2.5391984000016237,None,space,0.4825047000013001,None,,,,,,,,,,,,P128,001,2024-11-21_13h21.59.662,posner_endo_new1,2024.2.4,60.11150684445707,2024-11-21 13h22.16.469784 +0000,
-0.31,0.005,59,59,0,up,2.316409200000635,None,space,0.2708041999976558,None,,,,,0,59,59,59,,,,,3104.571336600002,,,,,,,,,,,,3104.5564911,3104.571336600002,3104.571336600002,3106.9036704000027,,,,3106.904115100002,3106.918941300002,3106.918941300002,3106.918941300002,3107.2188435000025,,3107.203396300003,,,,up,2.316409200000635,None,space,0.2708041999976558,None,,,,,,,,,,,,P128,001,2024-11-21_13h21.59.662,posner_endo_new1,2024.2.4,60.11150684445707,2024-11-21 13h22.16.469784 +0000,
,,,,,,,,,,,,,,,,,,,,,,,,,,,,,,,,,,,,,,,,,,,,,,,,,,,,,,,,,,3107.2035939000016,3107.2188435000025,3107.2188435000025,3167.191945300001,None,,,,,,,P128,001,2024-11-21_13h21.59.662,posner_endo_new1,2024.2.4,60.11150684445707,2024-11-21 13h22.16.469784 +0000,
,,,,,,,,,,,,,,,,,,,,,,,,,,,,,,,,3167.192014,3167.2077586000014,3170.2047279,,,,,,,,,,,,,,,,,,,,,,,,,,,,,,,,,,,P128,001,2024-11-21_13h21.59.662,posner_endo_new1,2024.2.4,60.11150684445707,2024-11-21 13h22.16.469784 +0000,
0.005,0.31,0,0,0,down,10.85390379999808,None,space,0.35643849999905797,None,,,,,,,,,0,0,0,0,3170.2254278,,,,,,,,,,,,3170.2169675000005,3170.2254278,3170.2254278,3181.0942207000007,,,,3181.0945004000023,3181.110335100002,3181.110335100002,3181.110335100002,3181.4096843000007,,3181.4772871000023,,,,,,,,,,,,,,,down,10.85390379999808,None,space,0.35643849999905797,None,P128,001,2024-11-21_13h21.59.662,posner_endo_new1,2024.2.4,60.11150684445707,2024-11-21 13h22.16.469784 +0000,
-0.31,0.005,1,1,0,up,2.8265333000017563,None,space,0.3400692000031995,None,,,,,,,,,0,1,1,1,3181.4930875000027,,,,,,,,,,,,3181.4774569,3181.4930875000027,3181.4930875000027,3184.324377500001,,,,3184.324630000003,3184.340063800002,3184.340063800002,3184.340063800002,3184.639924700001,,3184.690573900003,,,,,,,,,,,,,,,up,2.8265333000017563,None,space,0.3400692000031995,None,P128,001,2024-11-21_13h21.59.662,posner_endo_new1,2024.2.4,60.11150684445707,2024-11-21 13h22.16.469784 +0000,
0.005,-0.31,2,2,0,down,2.1734356000015396,None,space,0.27910440000050585,None,,,,,,,,,0,2,2,2,3184.7065382,,,,,,,,,,,,3184.690743700001,3184.7065382,3184.7065382,3186.888275700003,,,,3186.888529900003,3186.9041932,3186.9041932,3186.9041932,3187.2038451000008,,3187.1880597000018,,,,,,,,,,,,,,,down,2.1734356000015396,None,space,0.27910440000050585,None,P128,001,2024-11-21_13h21.59.662,posner_endo_new1,2024.2.4,60.11150684445707,2024-11-21 13h22.16.469784 +0000,
0.31,0.005,3,3,0,up,2.803508500001044,None,space,0.285779800000455,None,,,,,,,,,0,3,3,3,3187.2038451000008,,,,,,,,,,,,3187.188227100003,3187.2038451000008,3187.2038451000008,3190.0184047000002,,,,3190.0186654000026,3190.034449300001,3190.034449300001,3190.034449300001,3190.334131200001,,3190.3349543000004,,,,,,,,,,,,,,,up,2.803508500001044,None,space,0.285779800000455,None,P128,001,2024-11-21_13h21.59.662,posner_endo_new1,2024.2.4,60.11150684445707,2024-11-21 13h22.16.469784 +0000,
0.005,0.31,4,4,0,down,1.6887285000011616,None,space,0.29991009999866947,None,,,,,,,,,0,4,4,4,3190.3504845999996,,,,,,,,,,,,3190.3351186,3190.3504845999996,3190.3504845999996,3192.0495532000023,,,,3192.049806500003,3192.0655721000003,3192.0655721000003,3192.0655721000003,3192.3653177000015,,3192.366272200001,,,,,,,,,,,,,,,down,1.6887285000011616,None,space,0.29991009999866947,None,P128,001,2024-11-21_13h21.59.662,posner_endo_new1,2024.2.4,60.11150684445707,2024-11-21 13h22.16.469784 +0000,
0.005,-0.31,5,5,0,up,2.809822000002896,None,space,0.32267030000002705,None,,,,,,,,,0,5,5,5,3192.3819318000023,,,,,,,,,,,,3192.3664387999997,3192.3819318000023,3192.3819318000023,3195.1964184999997,,,,3195.1966702000027,3195.2121544,3195.2121544,3195.2121544,3195.512119400002,,3195.5460918000026,,,,,,,,,,,,,,,up,2.809822000002896,None,space,0.32267030000002705,None,P128,001,2024-11-21_13h21.59.662,posner_endo_new1,2024.2.4,60.11150684445707,2024-11-21 13h22.16.469784 +0000,
-0.31,0.005,6,6,0,down,2.1498672000016086,None,space,0.235539900000731,None,,,,,,,,,0,6,6,6,3195.5619019000005,,,,,,,,,,,,3195.5462587,3195.5619019000005,3195.5619019000005,3197.7269686,,,,3197.727219700002,3197.7431529000023,3197.7431529000023,3197.7431529000023,,,3197.9937199000015,,,,,,,,,,,,,,,down,2.1498672000016086,None,space,0.235539900000731,None,P128,001,2024-11-21_13h21.59.662,posner_endo_new1,2024.2.4,60.11150684445707,2024-11-21 13h22.16.469784 +0000,
0.005,0.31,7,7,0,up,2.2143824999984645,None,space,0.2352589000001899,None,,,,,,,,,0,7,7,7,3198.0094234999997,,,,,,,,,,,,3197.9938999000005,3198.0094234999997,3198.0094234999997,3200.224842800002,,,,3200.225097100003,3200.2405946,3200.2405946,3200.2405946,,,3200.4911250000005,,,,,,,,,,,,,,,up,2.2143824999984645,None,space,0.2352589000001899,None,P128,001,2024-11-21_13h21.59.662,posner_endo_new1,2024.2.4,60.11150684445707,2024-11-21 13h22.16.469784 +0000,
0.31,0.005,8,8,0,down,2.7165924000000814,None,space,0.23877670000001672,None,,,,,,,,,0,8,8,8,3200.5067713999997,,,,,,,,,,,,3200.4912958000023,3200.5067713999997,3200.5067713999997,3203.2381663000015,,,,3203.2384211999997,3203.2541284,3203.2541284,3203.2541284,,,3203.5046887000026,,,,,,,,,,,,,,,down,2.7165924000000814,None,space,0.23877670000001672,None,P128,001,2024-11-21_13h21.59.662,posner_endo_new1,2024.2.4,60.11150684445707,2024-11-21 13h22.16.469784 +0000,
10,0.005,9,9,0,up,2.4476116000005277,None,None,,,,,,,,,,,0,9,9,9,3203.5203702,,,,,,,,,,,,3203.5048615000014,3203.5203702,3203.5203702,3205.970241500003,,,,3205.9708938000003,3205.9860832000013,3205.9860832000013,3205.9860832000013,3206.3008816,3207.000155400001,3208.9818116999995,,,,,,,,,,,,,,,up,2.4476116000005277,None,None,,,P128,001,2024-11-21_13h21.59.662,posner_endo_new1,2024.2.4,60.11150684445707,2024-11-21 13h22.16.469784 +0000,
0.31,0.005,10,10,0,down,0.5857820000019274,None,space,0.2533846000005724,None,,,,,,,,,0,10,10,10,3208.998171700001,,,,,,,,,,,,3208.9819803000028,3208.998171700001,3208.998171700001,3209.5982358,,,,3209.598488300002,3209.614311700003,3209.614311700003,3209.614311700003,,,3209.8816063000013,,,,,,,,,,,,,,,down,0.5857820000019274,None,space,0.2533846000005724,None,P128,001,2024-11-21_13h21.59.662,posner_endo_new1,2024.2.4,60.11150684445707,2024-11-21 13h22.16.469784 +0000,
0.005,0.31,11,11,0,up,2.446614500000578,None,space,0.2480892000021413,None,,,,,,,,,0,11,11,11,3209.897104300002,,,,,,,,,,,,3209.8817832000022,3209.897104300002,3209.897104300002,3212.345706100001,,,,3212.345964700002,3212.3614861000024,3212.3614861000024,3212.3614861000024,,,3212.6120917000007,,,,,,,,,,,,,,,up,2.446614500000578,None,space,0.2480892000021413,None,P128,001,2024-11-21_13h21.59.662,posner_endo_new1,2024.2.4,60.11150684445707,2024-11-21 13h22.16.469784 +0000,
10,0.005,12,12,0,down,2.291822900002444,None,None,,,,,,,,,,,0,12,12,12,3212.627865600003,,,,,,,,,,,,3212.6122589000006,3212.627865600003,3212.627865600003,3214.9263997000016,,,,3214.9266527,3214.9420033000024,3214.9420033000024,3214.9420033000024,3215.2418768999996,3215.9409612000018,3217.9390383000027,,,,,,,,,,,,,,,down,2.291822900002444,None,None,,,P128,001,2024-11-21_13h21.59.662,posner_endo_new1,2024.2.4,60.11150684445707,2024-11-21 13h22.16.469784 +0000,
-0.31,0.005,13,13,0,down,2.5803083999999217,None,space,0.2851107000024058,None,,,,,,,,,0,13,13,13,3217.9557889999996,,,,,,,,,,,,3217.9392007999995,3217.9557889999996,3217.9557889999996,3220.5371651000023,,,,3220.537417800002,3220.553153300003,3220.553153300003,3220.553153300003,3220.8526256000005,,3220.853441700001,,,,,,,,,,,,,,,down,2.5803083999999217,None,space,0.2851107000024058,None,P128,001,2024-11-21_13h21.59.662,posner_endo_new1,2024.2.4,60.11150684445707,2024-11-21 13h22.16.469784 +0000,
0.31,0.005,14,14,0,up,2.578231399998913,None,space,0.2382949999991979,None,,,,,,,,,0,14,14,14,3220.869491200003,,,,,,,,,,,,3220.853608100002,3220.869491200003,3220.869491200003,3223.450899000003,,,,3223.4511518,3223.4668415000015,3223.4668415000015,3223.4668415000015,,,3223.7171099000007,,,,,,,,,,,,,,,up,2.578231399998913,None,space,0.2382949999991979,None,P128,001,2024-11-21_13h21.59.662,posner_endo_new1,2024.2.4,60.11150684445707,2024-11-21 13h22.16.469784 +0000,
0.005,-0.31,15,15,0,down,2.506698900000629,None,space,0.31050039999900036,None,,,,,,,,,0,15,15,15,3223.7331462,,,,,,,,,,,,3223.7172879000027,3223.7331462,3223.7331462,3226.2479507000025,,,,3226.248201600003,3226.263998600003,3226.263998600003,3226.263998600003,3226.5636765000017,,3226.5809678000005,,,,,,,,,,,,,,,down,2.506698900000629,None,space,0.31050039999900036,None,P128,001,2024-11-21_13h21.59.662,posner_endo_new1,2024.2.4,60.11150684445707,2024-11-21 13h22.16.469784 +0000,
0.31,0.005,16,16,0,up,2.3786648999994213,None,space,0.24479319999954896,None,,,,,,,,,0,16,16,16,3226.5967052000015,,,,,,,,,,,,3226.581143000003,3226.5967052000015,3226.5967052000015,3228.978415100002,,,,3228.978669100001,3228.9943652,3228.9943652,3228.9943652,,,3229.2448664000003,,,,,,,,,,,,,,,up,2.3786648999994213,None,space,0.24479319999954896,None,P128,001,2024-11-21_13h21.59.662,posner_endo_new1,2024.2.4,60.11150684445707,2024-11-21 13h22.16.469784 +0000,
0.31,0.005,17,17,0,down,2.403097499998694,None,space,0.35908719999861205,None,,,,,,,,,0,17,17,17,3229.260692300002,,,,,,,,,,,,3229.2450365000004,3229.260692300002,3229.260692300002,3231.675750300001,,,,3231.6760192,3231.691637,3231.691637,3231.691637,3231.991252400003,,3232.0589548000025,,,,,,,,,,,,,,,down,2.403097499998694,None,space,0.35908719999861205,None,P128,001,2024-11-21_13h21.59.662,posner_endo_new1,2024.2.4,60.11150684445707,2024-11-21 13h22.16.469784 +0000,
0.005,-0.31,18,18,0,up,2.069279999999708,None,space,0.3609723000008671,None,,,,,,,,,0,18,18,18,3232.0745806000014,,,,,,,,,,,,3232.059125300002,3232.0745806000014,3232.0745806000014,3234.1566319000012,,,,3234.1568898000005,3234.1723421000024,3234.1723421000024,3234.1723421000024,3234.4720605,,3234.5396900000014,,,,,,,,,,,,,,,up,2.069279999999708,None,space,0.3609723000008671,None,P128,001,2024-11-21_13h21.59.662,posner_endo_new1,2024.2.4,60.11150684445707,2024-11-21 13h22.16.469784 +0000,
0.005,-0.31,19,19,0,down,2.6118401999992784,None,space,0.279289099999005,None,,,,,,,,,0,19,19,19,3234.5553892000025,,,,,,,,,,,,3234.539858400003,3234.5553892000025,3234.5553892000025,3237.170083000001,,,,3237.1703388000024,3237.186120800001,3237.186120800001,3237.186120800001,3237.4856218000023,,3237.4699105,,,,,,,,,,,,,,,down,2.6118401999992784,None,space,0.279289099999005,None,P128,001,2024-11-21_13h21.59.662,posner_endo_new1,2024.2.4,60.11150684445707,2024-11-21 13h22.16.469784 +0000,
10,0.005,20,20,0,up,1.5784638000004634,None,None,,,,,,,,,,,0,20,20,20,3237.4856218000023,,,,,,,,,,,,3237.470080700001,3237.4856218000023,3237.4856218000023,3239.0680598,,,,3239.0683166000017,3239.0841296,3239.0841296,3239.0841296,3239.3836298000024,3240.0830806000013,3242.0811646,,,,,,,,,,,,,,,up,1.5784638000004634,None,None,,,P128,001,2024-11-21_13h21.59.662,posner_endo_new1,2024.2.4,60.11150684445707,2024-11-21 13h22.16.469784 +0000,
0.005,-0.31,21,21,0,up,3.8620579999987967,None,space,0.3451683999992383,None,,,,,,,,,0,21,21,21,3242.0977217,,,,,,,,,,,,3242.0813267000012,3242.0977217,3242.0977217,3245.9614033,,,,3245.961657,3245.976939100001,3245.976939100001,3245.976939100001,3246.2767520000016,,3246.327433000002,,,,,,,,,,,,,,,up,3.8620579999987967,None,space,0.3451683999992383,None,P128,001,2024-11-21_13h21.59.662,posner_endo_new1,2024.2.4,60.11150684445707,2024-11-21 13h22.16.469784 +0000,
0.005,0.31,22,22,0,down,2.976037799999176,None,space,0.2815563999974984,None,,,,,,,,,0,22,22,22,3246.3433189000025,,,,,,,,,,,,3246.3276000000005,3246.3433189000025,3246.3433189000025,3249.3244178000023,,,,3249.3246682000026,3249.3402097,3249.3402097,3249.3402097,3249.6399033000016,,3249.6242093,,,,,,,,,,,,,,,down,2.976037799999176,None,space,0.2815563999974984,None,P128,001,2024-11-21_13h21.59.662,posner_endo_new1,2024.2.4,60.11150684445707,2024-11-21 13h22.16.469784 +0000,
0.31,0.005,23,23,0,up,2.423493199999939,None,space,0.23875409999891417,None,,,,,,,,,0,23,23,23,3249.6399033000016,,,,,,,,,,,,3249.6243845000026,3249.6399033000016,3249.6399033000016,3252.071604200002,,,,3252.0718570999998,3252.0875484000026,3252.0875484000026,3252.0875484000026,,,3252.3378906,,,,,,,,,,,,,,,up,2.423493199999939,None,space,0.23875409999891417,None,P128,001,2024-11-21_13h21.59.662,posner_endo_new1,2024.2.4,60.11150684445707,2024-11-21 13h22.16.469784 +0000,
-0.31,0.005,24,24,0,down,2.390299500002584,None,space,0.2503207999980077,None,,,,,,,,,0,24,24,24,3252.353701400003,,,,,,,,,,,,3252.3380615000024,3252.353701400003,3252.353701400003,3254.7518318,,,,3254.752089200003,3254.7679739000014,3254.7679739000014,3254.7679739000014,,,3255.0350959999996,,,,,,,,,,,,,,,down,2.390299500002584,None,space,0.2503207999980077,None,P128,001,2024-11-21_13h21.59.662,posner_endo_new1,2024.2.4,60.11150684445707,2024-11-21 13h22.16.469784 +0000,
10,0.005,25,25,0,up,2.4760738000004494,None,None,,,,,,,,,,,0,25,25,25,3255.0510969000024,,,,,,,,,,,,3255.0352650000023,3255.0510969000024,3255.0510969000024,3257.532750600003,,,,3257.5330004999996,3257.5485437999996,3257.5485437999996,3257.5485437999996,3257.8480377000014,3258.5642037,3260.5456214000005,,,,,,,,,,,,,,,up,2.4760738000004494,None,None,,,P128,001,2024-11-21_13h21.59.662,posner_endo_new1,2024.2.4,60.11150684445707,2024-11-21 13h22.16.469784 +0000,
0.005,0.31,26,26,0,down,0.33380160000160686,None,space,0.3872760999984166,None,,,,,,,,,0,26,26,26,3260.5621737,,,,,,,,,,,,3260.545785100003,3260.5621737,3260.5621737,3260.912703500002,,,,3260.9129543000017,3260.9284461000025,3260.9284461000025,3260.9284461000025,3261.2280998999995,,3261.328752900001,,,,,,,,,,,,,,,down,0.33380160000160686,None,space,0.3872760999984166,None,P128,001,2024-11-21_13h21.59.662,posner_endo_new1,2024.2.4,60.11150684445707,2024-11-21 13h22.16.469784 +0000,
0.31,0.005,27,27,0,up,2.9665652999974554,None,space,0.30051800000001094,None,,,,,,,,,0,27,27,27,3261.344526300003,,,,,,,,,,,,3261.328920400003,3261.344526300003,3261.344526300003,3264.3256586999996,,,,3264.325911400003,3264.3415883000016,3264.3415883000016,3264.3415883000016,3264.6411222000024,,3264.6585793000013,,,,,,,,,,,,,,,up,2.9665652999974554,None,space,0.30051800000001094,None,P128,001,2024-11-21_13h21.59.662,posner_endo_new1,2024.2.4,60.11150684445707,2024-11-21 13h22.16.469784 +0000,
0.005,0.31,28,28,0,down,1.9489643000015349,None,space,0.24527600000146776,None,,,,,,,,,0,28,28,28,3264.674606300003,,,,,,,,,,,,3264.6587497,3264.674606300003,3264.674606300003,3266.6400458000026,,,,3266.6402977,3266.655785400002,3266.655785400002,3266.655785400002,,,3266.9062386000005,,,,,,,,,,,,,,,down,1.9489643000015349,None,space,0.24527600000146776,None,P128,001,2024-11-21_13h21.59.662,posner_endo_new1,2024.2.4,60.11150684445707,2024-11-21 13h22.16.469784 +0000,
10,0.005,29,29,0,up,3.117317700001877,None,None,,,,,,,,,,,0,29,29,29,3266.922278500002,,,,,,,,,,,,3266.906407100003,3266.922278500002,3266.922278500002,3270.0530566000016,,,,3270.0533098000014,3270.0690504000013,3270.0690504000013,3270.0690504000013,3270.3687494000005,3271.084563200002,3273.066072700003,,,,,,,,,,,,,,,up,3.117317700001877,None,None,,,P128,001,2024-11-21_13h21.59.662,posner_endo_new1,2024.2.4,60.11150684445707,2024-11-21 13h22.16.469784 +0000,
0.005,-0.31,30,30,0,down,0.46889830000145594,None,space,0.30937600000106613,None,,,,,,,,,0,30,30,30,3273.0826304,,,,,,,,,,,,3273.066243600002,3273.0826304,3273.0826304,3273.5663117000004,,,,3273.566563700002,3273.5819028000005,3273.5819028000005,3273.5819028000005,3273.8818957000003,,3273.8992956,,,,,,,,,,,,,,,down,0.46889830000145594,None,space,0.30937600000106613,None,P128,001,2024-11-21_13h21.59.662,posner_endo_new1,2024.2.4,60.11150684445707,2024-11-21 13h22.16.469784 +0000,
0.31,0.005,31,31,0,up,3.597482299999683,None,space,0.28569419999985257,None,,,,,,,,,0,31,31,31,3273.915080400002,,,,,,,,,,,,3273.899468800002,3273.915080400002,3273.915080400002,3277.5289018000003,,,,3277.5291658000024,3277.5448049000006,3277.5448049000006,3277.5448049000006,3277.8444046000004,,3277.8452264000007,,,,,,,,,,,,,,,up,3.597482299999683,None,space,0.28569419999985257,None,P128,001,2024-11-21_13h21.59.662,posner_endo_new1,2024.2.4,60.11150684445707,2024-11-21 13h22.16.469784 +0000,
10,0.005,32,32,0,down,2.994333300001017,None,None,,,,,,,,,,,0,32,32,32,3277.861102900002,,,,,,,,,,,,3277.8453929000025,3277.861102900002,3277.861102900002,3280.858737800001,,,,3280.858988,3280.874495400003,3280.874495400003,3280.874495400003,3281.174274000001,3281.873592600001,3283.871350600002,,,,,,,,,,,,,,,down,2.994333300001017,None,None,,,P128,001,2024-11-21_13h21.59.662,posner_endo_new1,2024.2.4,60.11150684445707,2024-11-21 13h22.16.469784 +0000,
-0.31,0.005,33,33,0,up,1.0799618999990344,None,space,0.33873920000041835,None,,,,,,,,,0,33,33,33,3283.8878060999996,,,,,,,,,,,,3283.8716996000003,3283.8878060999996,3283.8878060999996,3284.971615900002,,,,3284.9719834000025,3284.9870255000023,3284.9870255000023,3284.9870255000023,3285.2866532000007,,3285.3377556000014,,,,,,,,,,,,,,,up,1.0799618999990344,None,space,0.33873920000041835,None,P128,001,2024-11-21_13h21.59.662,posner_endo_new1,2024.2.4,60.11150684445707,2024-11-21 13h22.16.469784 +0000,
10,0.005,34,34,0,down,2.5740783999972336,None,None,,,,,,,,,,,0,34,34,34,3285.3533583999997,,,,,,,,,,,,3285.3379986,3285.3533583999997,3285.3533583999997,3287.9351453000018,,,,3287.9355265000013,3287.950672500003,3287.950672500003,3287.950672500003,3288.250425000002,3288.9662819000005,3290.947712000001,,,,,,,,,,,,,,,down,2.5740783999972336,None,None,,,P128,001,2024-11-21_13h21.59.662,posner_endo_new1,2024.2.4,60.11150684445707,2024-11-21 13h22.16.469784 +0000,
0.005,-0.31,35,35,0,up,0.1871871999974246,None,space,0.4654713999989326,None,,,,,,,,,0,35,35,35,3290.9642101000027,,,,,,,,,,,,3290.9479398000003,3290.9642101000027,3290.9642101000027,3291.1651020000027,,,,3291.165465500002,3291.1807222999996,3291.1807222999996,3291.1807222999996,3291.480420600001,,3291.6481743000004,,,,,,,,,,,,,,,up,0.1871871999974246,None,space,0.4654713999989326,None,P128,001,2024-11-21_13h21.59.662,posner_endo_new1,2024.2.4,60.11150684445707,2024-11-21 13h22.16.469784 +0000,
0.31,0.005,36,36,0,down,3.2244271999988996,None,space,0.340547299998434,None,,,,,,,,,0,36,36,36,3291.663407400003,,,,,,,,,,,,3291.6484165,3291.663407400003,3291.663407400003,3294.894760000003,,,,3294.895122500002,3294.9102088,3294.9102088,3294.9102088,3295.209852,,3295.2609218,,,,,,,,,,,,,,,down,3.2244271999988996,None,space,0.340547299998434,None,P128,001,2024-11-21_13h21.59.662,posner_endo_new1,2024.2.4,60.11150684445707,2024-11-21 13h22.16.469784 +0000,
10,0.005,37,37,0,up,2.282671900000423,None,None,,,,,,,,,,,0,37,37,37,3295.276473500002,,,,,,,,,,,,3295.261169900001,3295.276473500002,3295.276473500002,3297.575225200002,,,,3297.5755723,3297.5908130999997,3297.5908130999997,3297.5908130999997,3297.890449300001,3298.6067336000015,3300.587900900002,,,,,,,,,,,,,,,up,2.282671900000423,None,None,,,P128,001,2024-11-21_13h21.59.662,posner_endo_new1,2024.2.4,60.11150684445707,2024-11-21 13h22.16.469784 +0000,
10,0.005,38,38,0,up,2.7633271000013337,None,None,,,,,,,,,,,0,38,38,38,3300.604650100002,,,,,,,,,,,,3300.588130600001,3300.604650100002,3300.604650100002,3303.3694453999997,,,,3303.3697936999997,3303.384820200001,3303.384820200001,3303.384820200001,3303.684597700001,3304.3838362000024,3306.3819716,,,,,,,,,,,,,,,up,2.7633271000013337,None,None,,,P128,001,2024-11-21_13h21.59.662,posner_endo_new1,2024.2.4,60.11150684445707,2024-11-21 13h22.16.469784 +0000,
-0.31,0.005,39,39,0,down,0.6495149999973364,None,space,0.30734149999989313,None,,,,,,,,,0,39,39,39,3306.398419000001,,,,,,,,,,,,3306.382204100002,3306.398419000001,3306.398419000001,3307.049011000003,,,,3307.0493599,3307.064387300001,3307.064387300001,3307.064387300001,3307.3640780000023,,3307.381836200002,,,,,,,,,,,,,,,down,0.6495149999973364,None,space,0.30734149999989313,None,P128,001,2024-11-21_13h21.59.662,posner_endo_new1,2024.2.4,60.11150684445707,2024-11-21 13h22.16.469784 +0000,
0.005,-0.31,40,40,0,up,2.4341043999993417,None,space,0.3539818999997806,None,,,,,,,,,0,40,40,40,3307.397409000001,,,,,,,,,,,,3307.3820785999997,3307.397409000001,3307.397409000001,3309.8459697,,,,3309.8463217999997,3309.861461800003,3309.861461800003,3309.861461800003,3310.161275900002,,3310.228971100001,,,,,,,,,,,,,,,up,2.4341043999993417,None,space,0.3539818999997806,None,P128,001,2024-11-21_13h21.59.662,posner_endo_new1,2024.2.4,60.11150684445707,2024-11-21 13h22.16.469784 +0000,
0.005,-0.31,41,41,0,down,2.699263200000132,None,space,0.2387066999981471,None,,,,,,,,,0,41,41,41,3310.244441900002,,,,,,,,,,,,3310.2292185000006,3310.244441900002,3310.244441900002,3312.9595644,,,,3312.959927,3312.975022800001,3312.975022800001,3312.975022800001,,,3313.225835600002,,,,,,,,,,,,,,,down,2.699263200000132,None,space,0.2387066999981471,None,P128,001,2024-11-21_13h21.59.662,posner_endo_new1,2024.2.4,60.11150684445707,2024-11-21 13h22.16.469784 +0000,
10,0.005,42,42,0,up,2.357573399996909,None,None,,,,,,,,,,,0,42,42,42,3313.241483900001,,,,,,,,,,,,3313.226082000001,3313.241483900001,3313.241483900001,3315.6069368000026,,,,3315.6072974000017,3315.6223861,3315.6223861,3315.6223861,3315.922026600001,3316.6212954000002,3318.619353500002,,,,,,,,,,,,,,,up,2.357573399996909,None,None,,,P128,001,2024-11-21_13h21.59.662,posner_endo_new1,2024.2.4,60.11150684445707,2024-11-21 13h22.16.469784 +0000,
0.005,-0.31,43,43,0,up,2.6435363000018697,None,space,0.4563927999988664,None,,,,,,,,,0,43,43,43,3318.6358897000027,,,,,,,,,,,,3318.6195792,3318.6358897000027,3318.6358897000027,3321.2843562000016,,,,3321.284707900002,3321.2999350000027,3321.2999350000027,3321.2999350000027,3321.5994468999997,,3321.7671187000014,,,,,,,,,,,,,,,up,2.6435363000018697,None,space,0.4563927999988664,None,P128,001,2024-11-21_13h21.59.662,posner_endo_new1,2024.2.4,60.11150684445707,2024-11-21 13h22.16.469784 +0000,
-0.31,0.005,44,44,0,down,2.9366464000013366,None,space,0.3510672999982489,None,,,,,,,,,0,44,44,44,3321.7826263000024,,,,,,,,,,,,3321.7673809000007,3321.7826263000024,3321.7826263000024,3324.7307113999996,,,,3324.7310636,3324.7462792000006,3324.7462792000006,3324.7462792000006,3325.0460394,,3325.113745300001,,,,,,,,,,,,,,,down,2.9366464000013366,None,space,0.3510672999982489,None,P128,001,2024-11-21_13h21.59.662,posner_endo_new1,2024.2.4,60.11150684445707,2024-11-21 13h22.16.469784 +0000,
10,0.005,45,45,0,up,2.2704193999998097,None,None,,,,,,,,,,,0,45,45,45,3325.129241400002,,,,,,,,,,,,3325.113985,3325.129241400002,3325.129241400002,3327.4114359000014,,,,3327.4118119000013,3327.426922400002,3327.426922400002,3327.426922400002,3327.7266006000027,3328.442536100003,3330.423982200002,,,,,,,,,,,,,,,up,2.2704193999998097,None,None,,,P128,001,2024-11-21_13h21.59.662,posner_endo_new1,2024.2.4,60.11150684445707,2024-11-21 13h22.16.469784 +0000,
0.005,0.31,46,46,0,down,0.21506660000159172,None,space,0.2988944000026095,None,,,,,,,,,0,46,46,46,3330.4404928000004,,,,,,,,,,,,3330.4242152000006,3330.4404928000004,3330.4404928000004,3330.6579348000014,,,,3330.6582074,3330.6736402999995,3330.6736402999995,3330.6736402999995,3330.973032400001,,3330.9738295000025,,,,,,,,,,,,,,,down,0.21506660000159172,None,space,0.2988944000026095,None,P128,001,2024-11-21_13h21.59.662,posner_endo_new1,2024.2.4,60.11150684445707,2024-11-21 13h22.16.469784 +0000,
0.005,-0.31,47,47,0,up,2.5851708999980474,None,space,0.3599595000014233,None,,,,,,,,,0,47,47,47,3330.990303100003,,,,,,,,,,,,3330.9739765000013,3330.990303100003,3330.990303100003,3333.5880400000024,,,,3333.588293500001,3333.6040409000016,3333.6040409000016,3333.6040409000016,3333.9037258000026,,3333.9711131000004,,,,,,,,,,,,,,,up,2.5851708999980474,None,space,0.3599595000014233,None,P128,001,2024-11-21_13h21.59.662,posner_endo_new1,2024.2.4,60.11150684445707,2024-11-21 13h22.16.469784 +0000,
0.31,0.005,48,48,0,down,2.7164615000001504,None,space,0.2582089999996242,None,,,,,,,,,0,48,48,48,3333.986927400001,,,,,,,,,,,,3333.9712814000013,3333.986927400001,3333.986927400001,3336.7181452000004,,,,3336.7183974,3336.7340047,3336.7340047,3336.7340047,,,3337.0010153000003,,,,,,,,,,,,,,,down,2.7164615000001504,None,space,0.2582089999996242,None,P128,001,2024-11-21_13h21.59.662,posner_endo_new1,2024.2.4,60.11150684445707,2024-11-21 13h22.16.469784 +0000,
-0.31,0.005,49,49,0,up,2.3347738000011304,None,space,0.2644658999997773,None,,,,,,,,,0,49,49,49,3337.016975300001,,,,,,,,,,,,3337.0011844,3337.016975300001,3337.016975300001,3339.3655572000025,,,,3339.3658071000027,3339.3811914,3339.3811914,3339.3811914,,,3339.6485531,,,,,,,,,,,,,,,up,2.3347738000011304,None,space,0.2644658999997773,None,P128,001,2024-11-21_13h21.59.662,posner_endo_new1,2024.2.4,60.11150684445707,2024-11-21 13h22.16.469784 +0000,
0.005,0.31,50,50,0,down,2.6484767999972973,None,space,0.24866820000170264,None,,,,,,,,,0,50,50,50,3339.664229000002,,,,,,,,,,,,3339.648731700003,3339.664229000002,3339.664229000002,3342.329117600002,,,,3342.3293692000007,3342.3450016000024,3342.3450016000024,3342.3450016000024,,,3342.5955684,,,,,,,,,,,,,,,down,2.6484767999972973,None,space,0.24866820000170264,None,P128,001,2024-11-21_13h21.59.662,posner_endo_new1,2024.2.4,60.11150684445707,2024-11-21 13h22.16.469784 +0000,
0.005,0.31,51,51,0,up,2.6682212999985495,None,space,0.3042816999986826,None,,,,,,,,,0,51,51,51,3342.6114448000008,,,,,,,,,,,,3342.5957547,3342.6114448000008,3342.6114448000008,3345.2927696000006,,,,3345.293025400002,3345.3086014,3345.3086014,3345.3086014,3345.608661500002,,3345.6258460000026,,,,,,,,,,,,,,,up,2.6682212999985495,None,space,0.3042816999986826,None,P128,001,2024-11-21_13h21.59.662,posner_endo_new1,2024.2.4,60.11150684445707,2024-11-21 13h22.16.469784 +0000,
10,0.005,52,52,0,down,2.4626764000022376,None,None,,,,,,,,,,,0,52,52,52,3345.641635600001,,,,,,,,,,,,3345.6260108000024,3345.641635600001,3345.641635600001,3348.1066439999995,,,,3348.1068965000013,3348.1223044,3348.1223044,3348.1223044,3348.4220824000004,3349.1214395000025,3351.119294600001,,,,,,,,,,,,,,,down,2.4626764000022376,None,None,,,P128,001,2024-11-21_13h21.59.662,posner_endo_new1,2024.2.4,60.11150684445707,2024-11-21 13h22.16.469784 +0000,
-0.31,0.005,53,53,0,down,3.103362300000299,None,space,0.3597269999991113,None,,,,,,,,,0,53,53,53,3351.1360305000017,,,,,,,,,,,,3351.1194595000015,3351.1360305000017,3351.1360305000017,3354.2502676000004,,,,3354.2505309000007,3354.2661850000004,3354.2661850000004,3354.2661850000004,3354.5658127999995,,3354.6329496,,,,,,,,,,,,,,,down,3.103362300000299,None,space,0.3597269999991113,None,P128,001,2024-11-21_13h21.59.662,posner_endo_new1,2024.2.4,60.11150684445707,2024-11-21 13h22.16.469784 +0000,
10,0.005,54,54,0,up,3.055688399999781,None,None,,,,,,,,,,,0,54,54,54,3354.6491251000007,,,,,,,,,,,,3354.633115800003,3354.6491251000007,3354.6491251000007,3357.713555000002,,,,3357.7138080000004,3357.7291944999997,3357.7291944999997,3357.7291944999997,3358.0288880000007,3358.728250700002,3360.7263205000017,,,,,,,,,,,,,,,up,3.055688399999781,None,None,,,P128,001,2024-11-21_13h21.59.662,posner_endo_new1,2024.2.4,60.11150684445707,2024-11-21 13h22.16.469784 +0000,
0.005,0.31,55,55,0,down,0.0883073000004515,None,space,0.32689509999909205,None,,,,,,,,,0,55,55,55,3360.742788800002,,,,,,,,,,,,3360.7264859999996,3360.742788800002,3360.742788800002,3360.843467400002,,,,3360.8437188999997,3360.8594013,3360.8594013,3360.8594013,3361.159063500003,,3361.1932892000004,,,,,,,,,,,,,,,down,0.0883073000004515,None,space,0.32689509999909205,None,P128,001,2024-11-21_13h21.59.662,posner_endo_new1,2024.2.4,60.11150684445707,2024-11-21 13h22.16.469784 +0000,
0.005,-0.31,56,56,0,up,1.8147277999996732,None,space,0.33927679999760585,None,,,,,,,,,0,56,56,56,3361.208736200002,,,,,,,,,,,,3361.193461300001,3361.208736200002,3361.208736200002,3363.0249127000025,,,,3363.0251650000027,3363.0402360000007,3363.0402360000007,3363.0402360000007,3363.340289800002,,3363.390980700002,,,,,,,,,,,,,,,up,1.8147277999996732,None,space,0.33927679999760585,None,P128,001,2024-11-21_13h21.59.662,posner_endo_new1,2024.2.4,60.11150684445707,2024-11-21 13h22.16.469784 +0000,
0.005,0.31,57,57,0,down,2.6733329000016965,None,space,0.22707989999980782,None,,,,,,,,,0,57,57,57,3363.4067528000014,,,,,,,,,,,,3363.3911533000028,3363.4067528000014,3363.4067528000014,3366.088262700003,,,,3366.088517100001,3366.1044096000005,3366.1044096000005,3366.1044096000005,,,3366.337839300002,,,,,,,,,,,,,,,down,2.6733329000016965,None,space,0.22707989999980782,None,P128,001,2024-11-21_13h21.59.662,posner_endo_new1,2024.2.4,60.11150684445707,2024-11-21 13h22.16.469784 +0000,
-0.31,0.005,58,58,0,up,2.0551491000005626,None,space,0.23165329999756068,None,,,,,,,,,0,58,58,58,3366.3537402,,,,,,,,,,,,3366.3380123000024,3366.3537402,3366.3537402,3368.419018300003,,,,3368.4192742000014,3368.434992900002,3368.434992900002,3368.434992900002,,,3368.6687334000017,,,,,,,,,,,,,,,up,2.0551491000005626,None,space,0.23165329999756068,None,P128,001,2024-11-21_13h21.59.662,posner_endo_new1,2024.2.4,60.11150684445707,2024-11-21 13h22.16.469784 +0000,
-0.31,0.005,59,59,0,down,2.234780300001148,None,space,0.23529749999943306,None,,,,,,,,,0,59,59,59,3368.6845649999996,,,,,,,,,,,,3368.668902700003,3368.6845649999996,3368.6845649999996,3370.9332140000006,,,,3370.9334794000024,3370.949042,3370.949042,3370.949042,,,3371.1996543000023,,,,,,,,,,,,,,,down,2.234780300001148,None,space,0.23529749999943306,None,P128,001,2024-11-21_13h21.59.662,posner_endo_new1,2024.2.4,60.11150684445707,2024-11-21 13h22.16.469784 +0000,
