target_y,target_x,thisN,thisTrialN,thisRepN,key_control2.keys,key_control2.rt,key_control2.duration,key_resp.keys,key_resp.rt,key_resp.duration,practice.thisRepN,practice.thisTrialN,practice.thisN,practice.thisIndex,session_1.thisRepN,session_1.thisTrialN,session_1.thisN,session_1.thisIndex,session_2.thisRepN,session_2.thisTrialN,session_2.thisN,session_2.thisIndex,thisRow.t,notes,instructions.started,instructions_txt.started,key_control.started,instructions.stopped,key_control.keys,key_control.rt,key_control.duration,ready.started,ready_txt.started,ready.stopped,fix.started,key_control2.started,fixation_cross.started,fix.stopped,practice.key_control2.keys,practice.key_control2.rt,practice.key_control2.duration,target.started,star.started,fixation_cross_target.started,key_resp.started,star.stopped,target.stopped,practice.key_resp.keys,practice.key_resp.rt,practice.key_resp.duration,key_resp.stopped,session_1.key_control2.keys,session_1.key_control2.rt,session_1.key_control2.duration,session_1.key_resp.keys,session_1.key_resp.rt,session_1.key_resp.duration,break_2.started,text.started,key_control3.started,break_2.stopped,key_control3.keys,session_2.key_control2.keys,session_2.key_control2.rt,session_2.key_control2.duration,session_2.key_resp.keys,session_2.key_resp.rt,session_2.key_resp.duration,participant,session,date,expName,psychopyVersion,frameRate,expStart,
,,,,,,,,,,,,,,,,,,,,,,,,,0.007577100001071813,0.027578999997786013,0.027578999997786013,640.5926168000005,up,640.5585070999987,None,,,,,,,,,,,,,,,,,,,,,,,,,,,,,,,,,,,,,,P129,001,2024-11-21_14h56.10.551,posner_endo_new1,2024.2.4,60.082866288473106,2024-11-21 14h56.19.697644 +0000,
,,,,,,,,,,,,,,,,,,,,,,,,,,,,,,,,640.5926657999989,640.6060405999997,643.6026566,,,,,,,,,,,,,,,,,,,,,,,,,,,,,,,,,,,P129,001,2024-11-21_14h56.10.551,posner_endo_new1,2024.2.4,60.082866288473106,2024-11-21 14h56.19.697644 +0000,
0.005,0.31,0,0,0,down,11.596269099998608,None,space,0.6647484999994049,None,0,0,0,8,,,,,,,,,643.6220771999979,,,,,,,,,,,,643.6093768999999,643.6220771999979,643.6220771999979,655.2248887999995,down,11.596269099998608,None,655.2251599999981,655.2405890000009,655.2405890000009,655.2405890000009,655.5401944999976,655.907293100001,space,0.6647484999994049,None,,,,,,,,,,,,,,,,,,,P129,001,2024-11-21_14h56.10.551,posner_endo_new1,2024.2.4,60.082866288473106,2024-11-21 14h56.19.697644 +0000,
10,0.005,1,1,0,down,6.583010700000159,None,None,,,0,1,1,4,,,,,,,,,655.9233060999977,,,,,,,,,,,,655.9074519999995,655.9233060999977,655.9233060999977,662.5171964000001,down,6.583010700000159,None,662.5174440999981,662.5331092999986,662.5331092999986,662.5331092999986,662.8328390999995,665.5301483000003,None,,,663.5319821999983,,,,,,,,,,,,,,,,,,P129,001,2024-11-21_14h56.10.551,posner_endo_new1,2024.2.4,60.082866288473106,2024-11-21 14h56.19.697644 +0000,
-0.31,0.005,2,2,0,up,0.9997786000021733,None,space,0.4898907999995572,None,0,2,2,0,,,,,,,,,665.5466185999976,,,,,,,,,,,,665.5302970999983,665.5466185999976,665.5466185999976,666.5631828000005,up,0.9997786000021733,None,666.5634250000003,666.5788818000001,666.5788818000001,666.5788818000001,666.8791818999998,667.0793439000008,space,0.4898907999995572,None,,,,,,,,,,,,,,,,,,,P129,001,2024-11-21_14h56.10.551,posner_endo_new1,2024.2.4,60.082866288473106,2024-11-21 14h56.19.697644 +0000,
0.31,0.005,3,3,0,down,2.282666099999915,None,space,0.5965880000003381,None,0,3,3,1,,,,,,,,,667.095214099998,,,,,,,,,,,,667.0794977999976,667.095214099998,667.095214099998,669.3934816000001,down,2.282666099999915,None,669.3937225000009,669.4095568999983,669.4095568999983,669.4095568999983,669.7091345000008,670.0097418000005,space,0.5965880000003381,None,,,,,,,,,,,,,,,,,,,P129,001,2024-11-21_14h56.10.551,posner_endo_new1,2024.2.4,60.082866288473106,2024-11-21 14h56.19.697644 +0000,
-0.31,0.005,4,4,0,up,3.098062300003221,None,space,0.5432975999974587,None,0,4,4,2,,,,,,,,,670.025366599999,,,,,,,,,,,,670.0098990999977,670.025366599999,670.025366599999,673.1396065999979,up,3.098062300003221,None,673.1398483999983,673.1557285999988,673.1557285999988,673.1557285999988,673.4553812999984,673.7057260000001,space,0.5432975999974587,None,,,,,,,,,,,,,,,,,,,P129,001,2024-11-21_14h56.10.551,posner_endo_new1,2024.2.4,60.082866288473106,2024-11-21 14h56.19.697644 +0000,
0.31,0.005,5,5,0,down,2.1761907000000065,None,space,0.449197699999786,None,0,5,5,3,,,,,,,,,673.7216980999983,,,,,,,,,,,,673.7058773999997,673.7216980999983,673.7216980999983,675.9036906000001,down,2.1761907000000065,None,675.9039413999999,675.919567500001,675.919567500001,675.919567500001,676.2192580999981,676.3697857999978,space,0.449197699999786,None,,,,,,,,,,,,,,,,,,,P129,001,2024-11-21_14h56.10.551,posner_endo_new1,2024.2.4,60.082866288473106,2024-11-21 14h56.19.697644 +0000,
0.005,-0.31,6,6,0,up,3.000826200001029,None,space,0.5757746000017505,None,0,6,6,7,,,,,,,,,676.3856435999987,,,,,,,,,,,,676.3699381000006,676.3856435999987,676.3856435999987,679.3999896999994,up,3.000826200001029,None,679.4002294999991,679.4157889999988,679.4157889999988,679.4157889999988,679.7156039000001,679.9993995000004,space,0.5757746000017505,None,,,,,,,,,,,,,,,,,,,P129,001,2024-11-21_14h56.10.551,posner_endo_new1,2024.2.4,60.082866288473106,2024-11-21 14h56.19.697644 +0000,
0.005,0.31,7,7,0,down,2.307193200002075,None,space,0.5524934999994002,None,0,7,7,6,,,,,,,,,680.0150747000007,,,,,,,,,,,,679.9995520999983,680.0150747000007,680.0150747000007,682.3301264000002,down,2.307193200002075,None,682.3303759999981,682.3463219999976,682.3463219999976,682.3463219999976,682.645912,682.9130191999975,space,0.5524934999994002,None,,,,,,,,,,,,,,,,,,,P129,001,2024-11-21_14h56.10.551,posner_endo_new1,2024.2.4,60.082866288473106,2024-11-21 14h56.19.697644 +0000,
0.005,10,8,8,0,up,3.209702100000868,None,None,,,0,8,8,9,,,,,,,,,682.9289855999996,,,,,,,,,,,,682.913180399999,682.9289855999996,682.9289855999996,686.1431651999992,up,3.209702100000868,None,686.1434054999991,686.1590147999996,686.1590147999996,686.1590147999996,686.4585590999995,689.1559205999984,None,,,687.1746758000008,,,,,,,,,,,,,,,,,,P129,001,2024-11-21_14h56.10.551,posner_endo_new1,2024.2.4,60.082866288473106,2024-11-21 14h56.19.697644 +0000,
0.005,-0.31,9,9,0,down,0.33401600000070175,None,space,0.5660268999999971,None,0,9,9,5,,,,,,,,,689.172206700001,,,,,,,,,,,,689.1560737,689.172206700001,689.172206700001,689.5228251000008,down,0.33401600000070175,None,689.5230645999982,689.5388658000011,689.5388658000011,689.5388658000011,689.8385616999985,690.105738899998,space,0.5660268999999971,None,,,,,,,,,,,,,,,,,,,P129,001,2024-11-21_14h56.10.551,posner_endo_new1,2024.2.4,60.082866288473106,2024-11-21 14h56.19.697644 +0000,
,,,,,,,,,,,,,,,,,,,,,,,,,,,,,,,,690.105842500001,690.1214919999984,693.1186840000009,,,,,,,,,,,,,,,,,,,,,,,,,,,,,,,,,,,P129,001,2024-11-21_14h56.10.551,posner_endo_new1,2024.2.4,60.082866288473106,2024-11-21 14h56.19.697644 +0000,
-0.31,0.005,0,0,0,down,15.104251599997951,None,space,0.6035687000003236,None,,,,,0,0,0,0,,,,,693.1374748999988,,,,,,,,,,,,693.1269248999997,693.1374748999988,693.1374748999988,708.254146299998,,,,708.2546747999986,708.2692452999981,708.2692452999981,708.2692452999981,708.569268700001,708.8866916999978,,,,,down,15.104251599997951,None,space,0.6035687000003236,None,,,,,,,,,,,,P129,001,2024-11-21_14h56.10.551,posner_endo_new1,2024.2.4,60.082866288473106,2024-11-21 14h56.19.697644 +0000,
0.005,0.31,1,1,0,up,3.355628199999046,None,space,0.5199634999989939,None,,,,,0,1,1,1,,,,,708.9022770999982,,,,,,,,,,,,708.8869371000001,708.9022770999982,708.9022770999982,712.2664861999983,,,,712.2668412999992,712.2821431000011,712.2821431000011,712.2821431000011,712.5818235999977,712.8159758000002,,,,,up,3.355628199999046,None,space,0.5199634999989939,None,,,,,,,,,,,,P129,001,2024-11-21_14h56.10.551,posner_endo_new1,2024.2.4,60.082866288473106,2024-11-21 14h56.19.697644 +0000,
0.31,0.005,2,2,0,down,2.4978972999997495,None,space,0.5639950000004319,None,,,,,0,2,2,2,,,,,712.8315680999985,,,,,,,,,,,,712.8162187999988,712.8315680999985,712.8315680999985,715.3466220000009,,,,715.3469659000002,715.3623597000005,715.3623597000005,715.3623597000005,715.6619800000008,715.9293933000008,,,,,down,2.4978972999997495,None,space,0.5639950000004319,None,,,,,,,,,,,,P129,001,2024-11-21_14h56.10.551,posner_endo_new1,2024.2.4,60.082866288473106,2024-11-21 14h56.19.697644 +0000,
0.31,0.005,3,3,0,up,2.2647596999995585,None,space,0.35399620000316645,None,,,,,0,3,3,3,,,,,715.9450871999979,,,,,,,,,,,,715.9296266999991,715.9450871999979,715.9450871999979,718.2269424999977,,,,718.2272845999978,718.2427097,718.2427097,718.2427097,718.5423706000001,718.6099599000008,,,,,up,2.2647596999995585,None,space,0.35399620000316645,None,,,,,,,,,,,,P129,001,2024-11-21_14h56.10.551,posner_endo_new1,2024.2.4,60.082866288473106,2024-11-21 14h56.19.697644 +0000,
-0.31,0.005,4,4,0,down,2.4818009000009624,None,space,0.5016714999983378,None,,,,,0,4,4,4,,,,,718.6256831999999,,,,,,,,,,,,718.6101904999996,718.6256831999999,718.6256831999999,721.1240006000007,,,,721.1243432999981,721.1397178999978,721.1397178999978,721.1397178999978,721.4394298000007,721.6567410999996,,,,,down,2.4818009000009624,None,space,0.5016714999983378,None,,,,,,,,,,,,P129,001,2024-11-21_14h56.10.551,posner_endo_new1,2024.2.4,60.082866288473106,2024-11-21 14h56.19.697644 +0000,
0.005,-0.31,5,5,0,up,2.4498323000007076,None,space,0.609649800000625,None,,,,,0,5,5,5,,,,,721.6724240000003,,,,,,,,,,,,721.6569722999993,721.6724240000003,721.6724240000003,724.1376161000007,,,,724.1379549999983,724.1533027999976,724.1533027999976,724.1533027999976,724.4529895999985,724.7707320000009,,,,,up,2.4498323000007076,None,space,0.609649800000625,None,,,,,,,,,,,,P129,001,2024-11-21_14h56.10.551,posner_endo_new1,2024.2.4,60.082866288473106,2024-11-21 14h56.19.697644 +0000,
0.005,-0.31,6,6,0,down,3.000260299999354,None,space,0.5090459000020928,None,,,,,0,6,6,6,,,,,724.7859494999975,,,,,,,,,,,,724.7709749999995,724.7859494999975,724.7859494999975,727.8005907999977,,,,727.800929099998,727.8161001999979,727.8161001999979,727.8161001999979,728.1158943999981,728.3332926000003,,,,,down,3.000260299999354,None,space,0.5090459000020928,None,,,,,,,,,,,,P129,001,2024-11-21_14h56.10.551,posner_endo_new1,2024.2.4,60.082866288473106,2024-11-21 14h56.19.697644 +0000,
10,0.005,7,7,0,up,3.6292867999982263,None,None,,,,,,,0,7,7,7,,,,,728.3489960999977,,,,,,,,,,,,728.3335303999993,728.3489960999977,728.3489960999977,731.9797599999984,,,,731.9800981999979,731.9952286000007,731.9952286000007,731.9952286000007,732.2950831999988,734.9924265000009,,,,733.0109468999981,up,3.6292867999982263,None,None,,,,,,,,,,,,,,P129,001,2024-11-21_14h56.10.551,posner_endo_new1,2024.2.4,60.082866288473106,2024-11-21 14h56.19.697644 +0000,
-0.31,0.005,8,8,0,down,0.9770281999990402,None,space,0.5603321999988111,None,,,,,0,8,8,8,,,,,735.0088666999982,,,,,,,,,,,,734.992642199999,735.0088666999982,735.0088666999982,735.9924145999976,,,,735.9927645999996,736.0076579999986,736.0076579999986,736.0076579999986,736.3075967999976,736.5751519000005,,,,,down,0.9770281999990402,None,space,0.5603321999988111,None,,,,,,,,,,,,P129,001,2024-11-21_14h56.10.551,posner_endo_new1,2024.2.4,60.082866288473106,2024-11-21 14h56.19.697644 +0000,
0.005,0.31,9,9,0,up,3.4033224000013433,None,space,0.5177417999984755,None,,,,,0,9,9,9,,,,,736.5906475999982,,,,,,,,,,,,736.5753827999979,736.5906475999982,736.5906475999982,740.0048207,,,,740.0051716999988,740.0204363999983,740.0204363999983,740.0204363999983,740.3199714000002,740.5541884999984,,,,,up,3.4033224000013433,None,space,0.5177417999984755,None,,,,,,,,,,,,P129,001,2024-11-21_14h56.10.551,posner_endo_new1,2024.2.4,60.082866288473106,2024-11-21 14h56.19.697644 +0000,
0.005,-0.31,10,10,0,down,3.375785899999755,None,space,0.5557141000026604,None,,,,,0,10,10,10,,,,,740.5698324999976,,,,,,,,,,,,740.5544203999998,740.5698324999976,740.5698324999976,743.9507525999979,,,,743.9511017999976,743.9663174999987,743.9663174999987,743.9663174999987,744.2659110999994,744.5335196999986,,,,,down,3.375785899999755,None,space,0.5557141000026604,None,,,,,,,,,,,,P129,001,2024-11-21_14h56.10.551,posner_endo_new1,2024.2.4,60.082866288473106,2024-11-21 14h56.19.697644 +0000,
0.005,0.31,11,11,0,up,3.2925628000011784,None,space,0.7930446999998821,None,,,,,0,11,11,11,,,,,744.5489636999991,,,,,,,,,,,,744.5337517000007,744.5489636999991,744.5489636999991,747.8467249999994,,,,747.8470763999976,747.8623041999999,747.8623041999999,747.8623041999999,748.1621133000008,748.6627549000004,,,,,up,3.2925628000011784,None,space,0.7930446999998821,None,,,,,,,,,,,,P129,001,2024-11-21_14h56.10.551,posner_endo_new1,2024.2.4,60.082866288473106,2024-11-21 14h56.19.697644 +0000,
10,0.005,12,12,0,down,2.5797700000002806,None,None,,,,,,,0,12,12,12,,,,,748.6782020999999,,,,,,,,,,,,748.662986700001,748.6782020999999,748.6782020999999,751.2598646000006,,,,751.2602060999998,751.2754526999997,751.2754526999997,751.2754526999997,751.5752367999994,754.2724639000007,,,,752.2745388000003,down,2.5797700000002806,None,None,,,,,,,,,,,,,,P129,001,2024-11-21_14h56.10.551,posner_endo_new1,2024.2.4,60.082866288473106,2024-11-21 14h56.19.697644 +0000,
0.31,0.005,13,13,0,up,0.40929250000044703,None,space,0.48059549999743467,None,,,,,0,13,13,13,,,,,754.2891808999993,,,,,,,,,,,,754.2726823999983,754.2891808999993,754.2891808999993,754.7064012999981,,,,754.7067476000011,754.721989499998,754.721989499998,754.721989499998,755.0217071000006,755.2059036999999,,,,,up,0.40929250000044703,None,space,0.48059549999743467,None,,,,,,,,,,,,P129,001,2024-11-21_14h56.10.551,posner_endo_new1,2024.2.4,60.082866288473106,2024-11-21 14h56.19.697644 +0000,
10,0.005,14,14,0,down,3.197999699998036,None,None,,,,,,,0,14,14,14,,,,,755.2213883000004,,,,,,,,,,,,755.2061422999977,755.2213883000004,755.2213883000004,758.4358444999998,,,,758.4361831999995,758.451337399998,758.451337399998,758.451337399998,758.7512079999979,761.4485753000008,,,,759.4504725999977,down,3.197999699998036,None,None,,,,,,,,,,,,,,P129,001,2024-11-21_14h56.10.551,posner_endo_new1,2024.2.4,60.082866288473106,2024-11-21 14h56.19.697644 +0000,
-0.31,0.005,15,15,0,up,1.1686561000024085,None,space,0.49509349999789265,None,,,,,0,15,15,15,,,,,761.4650531999978,,,,,,,,,,,,761.4487941000007,761.4650531999978,761.4650531999978,762.6482852000008,,,,762.6486368000005,762.6637508999993,762.6637508999993,762.6637508999993,762.9636027999986,763.1644901,,,,,up,1.1686561000024085,None,space,0.49509349999789265,None,,,,,,,,,,,,P129,001,2024-11-21_14h56.10.551,posner_endo_new1,2024.2.4,60.082866288473106,2024-11-21 14h56.19.697644 +0000,
0.005,-0.31,16,16,0,down,3.3105889999969804,None,space,0.48615289999725064,None,,,,,0,16,16,16,,,,,763.1798013999978,,,,,,,,,,,,763.1647315000009,763.1798013999978,763.1798013999978,766.4942952999991,,,,766.4946405999981,766.5099372000004,766.5099372000004,766.5099372000004,766.8096465999988,767.010467600001,,,,,down,3.3105889999969804,None,space,0.48615289999725064,None,,,,,,,,,,,,P129,001,2024-11-21_14h56.10.551,posner_endo_new1,2024.2.4,60.082866288473106,2024-11-21 14h56.19.697644 +0000,
0.005,0.31,17,17,0,up,3.432273599999462,None,space,0.5110865000024205,None,,,,,0,17,17,17,,,,,767.0260319999979,,,,,,,,,,,,767.0106985999992,767.0260319999979,767.0260319999979,770.4736348000006,,,,770.4739733999995,770.4890945999978,770.4890945999978,770.4890945999978,770.7888698999996,771.0063556999994,,,,,up,3.432273599999462,None,space,0.5110865000024205,None,,,,,,,,,,,,P129,001,2024-11-21_14h56.10.551,posner_endo_new1,2024.2.4,60.082866288473106,2024-11-21 14h56.19.697644 +0000,
-0.31,0.005,18,18,0,down,2.4441468000004534,None,space,0.4801024000007601,None,,,,,0,18,18,18,,,,,771.0219742000008,,,,,,,,,,,,771.0065863999989,771.0219742000008,771.0219742000008,773.470661299998,,,,773.4710111999993,773.4860205999976,773.4860205999976,773.4860205999976,773.7857989999975,773.9700704999996,,,,,down,2.4441468000004534,None,space,0.4801024000007601,None,,,,,,,,,,,,P129,001,2024-11-21_14h56.10.551,posner_endo_new1,2024.2.4,60.082866288473106,2024-11-21 14h56.19.697644 +0000,
10,0.005,19,19,0,up,3.185331500000757,None,None,,,,,,,0,19,19,19,,,,,773.9855941999995,,,,,,,,,,,,773.9703012999998,773.9855941999995,773.9855941999995,777.1833603999985,,,,777.1837004999979,777.1988500999978,777.1988500999978,777.1988500999978,777.4987638999992,780.1960671999987,,,,778.2145834000003,up,3.185331500000757,None,None,,,,,,,,,,,,,,P129,001,2024-11-21_14h56.10.551,posner_endo_new1,2024.2.4,60.082866288473106,2024-11-21 14h56.19.697644 +0000,
0.005,0.31,20,20,0,down,1.1329674999979034,None,space,0.5143084000010276,None,,,,,0,20,20,20,,,,,780.212556800001,,,,,,,,,,,,780.1962891000003,780.212556800001,780.212556800001,781.3625199999988,,,,781.3628706999989,781.3781139999992,781.3781139999992,781.3781139999992,781.677678,781.8954532999996,,,,,down,1.1329674999979034,None,space,0.5143084000010276,None,,,,,,,,,,,,P129,001,2024-11-21_14h56.10.551,posner_endo_new1,2024.2.4,60.082866288473106,2024-11-21 14h56.19.697644 +0000,
0.005,-0.31,21,21,0,up,3.9472359999999753,None,space,0.40087559999665245,None,,,,,0,21,21,21,,,,,781.9107839999997,,,,,,,,,,,,781.8956937000003,781.9107839999997,781.9107839999997,785.8744785999988,,,,785.8748324000007,785.889954899998,785.889954899998,785.889954899998,786.1898454000002,786.3074407999993,,,,,up,3.9472359999999753,None,space,0.40087559999665245,None,,,,,,,,,,,,P129,001,2024-11-21_14h56.10.551,posner_endo_new1,2024.2.4,60.082866288473106,2024-11-21 14h56.19.697644 +0000,
0.005,0.31,22,22,0,down,3.0230547999999544,None,space,0.42238459999862243,None,,,,,0,22,22,22,,,,,786.3227594999989,,,,,,,,,,,,786.3076743999991,786.3227594999989,786.3227594999989,789.354140200001,,,,789.3544906999996,789.369769500001,789.369769500001,789.369769500001,789.6695236999985,789.803806699998,,,,,down,3.0230547999999544,None,space,0.42238459999862243,None,,,,,,,,,,,,P129,001,2024-11-21_14h56.10.551,posner_endo_new1,2024.2.4,60.082866288473106,2024-11-21 14h56.19.697644 +0000,
0.31,0.005,23,23,0,up,4.214599200000521,None,space,0.6319392999976117,None,,,,,0,23,23,23,,,,,789.8191635000003,,,,,,,,,,,,789.8040388000009,789.8191635000003,789.8191635000003,794.0494608000008,,,,794.049813900001,794.0650270999977,794.0650270999977,794.0650270999977,794.3647023999984,794.6989380999985,,,,,up,4.214599200000521,None,space,0.6319392999976117,None,,,,,,,,,,,,P129,001,2024-11-21_14h56.10.551,posner_endo_new1,2024.2.4,60.082866288473106,2024-11-21 14h56.19.697644 +0000,
0.005,0.31,24,24,0,down,3.079091799998423,None,space,0.4650067999973544,None,,,,,0,24,24,24,,,,,794.7144106999986,,,,,,,,,,,,794.6991696999976,794.7144106999986,794.7144106999986,797.7956075000002,,,,797.7959559999981,797.8112113999996,797.8112113999996,797.8112113999996,798.110985700001,798.2785253000002,,,,,down,3.079091799998423,None,space,0.4650067999973544,None,,,,,,,,,,,,P129,001,2024-11-21_14h56.10.551,posner_endo_new1,2024.2.4,60.082866288473106,2024-11-21 14h56.19.697644 +0000,
0.31,0.005,25,25,0,up,3.8676070000001346,None,space,0.452673900002992,None,,,,,0,25,25,25,,,,,798.2941406999998,,,,,,,,,,,,798.2787547999978,798.2941406999998,798.2941406999998,802.1744132999993,,,,802.174773499999,802.1900706999986,802.1900706999986,802.1900706999986,802.4899394999993,802.6573955999993,,,,,up,3.8676070000001346,None,space,0.452673900002992,None,,,,,,,,,,,,P129,001,2024-11-21_14h56.10.551,posner_endo_new1,2024.2.4,60.082866288473106,2024-11-21 14h56.19.697644 +0000,
10,0.005,26,26,0,down,2.5531098999999813,None,None,,,,,,,0,26,26,26,,,,,802.6729352000002,,,,,,,,,,,,802.6576253999992,802.6729352000002,802.6729352000002,805.2379999000004,,,,805.238343699999,805.2537007999999,805.2537007999999,805.2537007999999,805.5532007000002,808.250574499998,,,,806.2692091999998,down,2.5531098999999813,None,None,,,,,,,,,,,,,,P129,001,2024-11-21_14h56.10.551,posner_endo_new1,2024.2.4,60.082866288473106,2024-11-21 14h56.19.697644 +0000,
10,0.005,27,27,0,up,0.9828429999979562,None,None,,,,,,,0,27,27,27,,,,,808.2672342000005,,,,,,,,,,,,808.2507908000007,808.2672342000005,808.2672342000005,809.2671397999984,,,,809.267484699998,809.2828011999991,809.2828011999991,809.2828011999991,809.5824659999998,812.2798282000003,,,,810.2818050999995,up,0.9828429999979562,None,None,,,,,,,,,,,,,,P129,001,2024-11-21_14h56.10.551,posner_endo_new1,2024.2.4,60.082866288473106,2024-11-21 14h56.19.697644 +0000,
0.005,-0.31,28,28,0,down,1.0910575000016252,None,space,0.47425160000057076,None,,,,,0,28,28,28,,,,,812.2963624000004,,,,,,,,,,,,812.2800547000006,812.2963624000004,812.2963624000004,813.3962546000002,,,,813.396607300001,813.4119175999986,813.4119175999986,813.4119175999986,813.7116112000003,813.8959920999987,,,,,down,1.0910575000016252,None,space,0.47425160000057076,None,,,,,,,,,,,,P129,001,2024-11-21_14h56.10.551,posner_endo_new1,2024.2.4,60.082866288473106,2024-11-21 14h56.19.697644 +0000,
0.31,0.005,29,29,0,up,3.3383331000004546,None,space,0.5911966999992728,None,,,,,0,29,29,29,,,,,813.9114737999989,,,,,,,,,,,,813.8962356000011,813.9114737999989,813.9114737999989,817.2588692999998,,,,817.2592113999999,817.2746756999986,817.2746756999986,817.2746756999986,817.574345099998,817.8749375999978,,,,,up,3.3383331000004546,None,space,0.5911966999992728,None,,,,,,,,,,,,P129,001,2024-11-21_14h56.10.551,posner_endo_new1,2024.2.4,60.082866288473106,2024-11-21 14h56.19.697644 +0000,
10,0.005,30,30,0,down,3.1754228999998304,None,None,,,,,,,0,30,30,30,,,,,817.8906467999986,,,,,,,,,,,,817.8751763,817.8906467999986,817.8906467999986,821.0717731999976,,,,821.0721303999999,821.0873939999983,821.0873939999983,821.0873939999983,821.3870652999976,824.0844756000006,,,,822.1030293000003,down,3.1754228999998304,None,None,,,,,,,,,,,,,,P129,001,2024-11-21_14h56.10.551,posner_endo_new1,2024.2.4,60.082866288473106,2024-11-21 14h56.19.697644 +0000,
0.31,0.005,31,31,0,up,1.5170703000003414,None,space,0.4263505000017176,None,,,,,0,31,31,31,,,,,824.1007819000006,,,,,,,,,,,,824.0846966999998,824.1007819000006,824.1007819000006,825.633894300001,,,,825.6342463000001,825.6493740999977,825.6493740999977,825.6493740999977,825.9491049999997,826.0833363999991,,,,,up,1.5170703000003414,None,space,0.4263505000017176,None,,,,,,,,,,,,P129,001,2024-11-21_14h56.10.551,posner_endo_new1,2024.2.4,60.082866288473106,2024-11-21 14h56.19.697644 +0000,
0.31,0.005,32,32,0,down,3.0233962000020256,None,space,0.50835989999905,None,,,,,0,32,32,32,,,,,826.098872300001,,,,,,,,,,,,826.0835662999998,826.098872300001,826.098872300001,829.1302885000005,,,,829.1306318999996,829.1459017999987,829.1459017999987,829.1459017999987,829.445297899998,829.6631054999998,,,,,down,3.0233962000020256,None,space,0.50835989999905,None,,,,,,,,,,,,P129,001,2024-11-21_14h56.10.551,posner_endo_new1,2024.2.4,60.082866288473106,2024-11-21 14h56.19.697644 +0000,
10,0.005,33,33,0,up,2.811110800001188,None,None,,,,,,,0,33,33,33,,,,,829.6786040000006,,,,,,,,,,,,829.6633526000005,829.6786040000006,829.6786040000006,832.4934721999998,,,,832.4938301000002,832.5089823999988,832.5089823999988,832.5089823999988,832.8086775999982,835.5060918999989,,,,833.5080032000005,up,2.811110800001188,None,None,,,,,,,,,,,,,,P129,001,2024-11-21_14h56.10.551,posner_endo_new1,2024.2.4,60.082866288473106,2024-11-21 14h56.19.697644 +0000,
0.005,-0.31,34,34,0,down,0.7671059000022069,None,space,0.35302490000321995,None,,,,,0,34,34,34,,,,,835.5226375999991,,,,,,,,,,,,835.5063210999979,835.5226375999991,835.5226375999991,836.3061761999998,,,,836.3065208999978,836.3217899999981,836.3217899999981,836.3217899999981,836.6214338999998,836.6891873999994,,,,,down,0.7671059000022069,None,space,0.35302490000321995,None,,,,,,,,,,,,P129,001,2024-11-21_14h56.10.551,posner_endo_new1,2024.2.4,60.082866288473106,2024-11-21 14h56.19.697644 +0000,
-0.31,0.005,35,35,0,up,3.5927799999990384,None,space,0.3005821999977343,None,,,,,0,35,35,35,,,,,836.7047171999984,,,,,,,,,,,,836.6894251999984,836.7047171999984,836.7047171999984,840.3021890999989,,,,840.3025484999998,840.3177012999986,840.3177012999986,840.3177012999986,840.6172537999992,840.6351238999996,,,,,up,3.5927799999990384,None,space,0.3005821999977343,None,,,,,,,,,,,,P129,001,2024-11-21_14h56.10.551,posner_endo_new1,2024.2.4,60.082866288473106,2024-11-21 14h56.19.697644 +0000,
-0.31,0.005,36,36,0,down,3.239108000001579,None,space,0.4693547999995644,None,,,,,0,36,36,36,,,,,840.6506738999997,,,,,,,,,,,,840.6353689999996,840.6506738999997,840.6506738999997,843.8984768000009,,,,843.8988504000008,843.9141425999987,843.9141425999987,843.9141425999987,844.2136958999981,844.398064099998,,,,,down,3.239108000001579,None,space,0.4693547999995644,None,,,,,,,,,,,,P129,001,2024-11-21_14h56.10.551,posner_endo_new1,2024.2.4,60.082866288473106,2024-11-21 14h56.19.697644 +0000,
10,0.005,37,37,0,up,2.8440205000006245,None,None,,,,,,,0,37,37,37,,,,,844.4135515999988,,,,,,,,,,,,844.398303599999,844.4135515999988,844.4135515999988,847.2616354999991,,,,847.2619822999986,847.2772575999988,847.2772575999988,847.2772575999988,847.5769036999991,850.2742042999998,,,,848.2929068999983,up,2.8440205000006245,None,None,,,,,,,,,,,,,,P129,001,2024-11-21_14h56.10.551,posner_endo_new1,2024.2.4,60.082866288473106,2024-11-21 14h56.19.697644 +0000,
0.005,0.31,38,38,0,down,2.4230836000024283,None,space,0.5284630000023753,None,,,,,0,38,38,38,,,,,850.2908008999984,,,,,,,,,,,,850.2744223000009,850.2908008999984,850.2908008999984,852.7227168999998,,,,852.7230767000001,852.7383611000005,852.7383611000005,852.7383611000005,853.0380621000004,853.2723755000006,,,,,down,2.4230836000024283,None,space,0.5284630000023753,None,,,,,,,,,,,,P129,001,2024-11-21_14h56.10.551,posner_endo_new1,2024.2.4,60.082866288473106,2024-11-21 14h56.19.697644 +0000,
0.005,-0.31,39,39,0,up,3.273671300001297,None,space,0.4803036000012071,None,,,,,0,39,39,39,,,,,853.2878399000001,,,,,,,,,,,,853.2726039000008,853.2878399000001,853.2878399000001,856.5688523999997,,,,856.5692038999987,856.5842886999999,856.5842886999999,856.5842886999999,856.8842189999996,857.0682828999998,,,,,up,3.273671300001297,None,space,0.4803036000012071,None,,,,,,,,,,,,P129,001,2024-11-21_14h56.10.551,posner_endo_new1,2024.2.4,60.082866288473106,2024-11-21 14h56.19.697644 +0000,
0.31,0.005,40,40,0,down,4.054590100000496,None,space,0.3817152999981772,None,,,,,0,40,40,40,,,,,857.0840071999992,,,,,,,,,,,,857.068546999999,857.0840071999992,857.0840071999992,861.1474689999995,,,,861.1478256999981,861.1630428999997,861.1630428999997,861.1630428999997,861.4626601999989,861.547133,,,,,down,4.054590100000496,None,space,0.3817152999981772,None,,,,,,,,,,,,P129,001,2024-11-21_14h56.10.551,posner_endo_new1,2024.2.4,60.082866288473106,2024-11-21 14h56.19.697644 +0000,
-0.31,0.005,41,41,0,up,3.215665399999125,None,space,0.5509636000024329,None,,,,,0,41,41,41,,,,,861.5627086999993,,,,,,,,,,,,861.5473691000007,861.5627086999993,861.5627086999993,864.793651699998,,,,864.7939968999999,864.8092966999975,864.8092966999975,864.8092966999975,865.1089465999976,865.3764450999988,,,,,up,3.215665399999125,None,space,0.5509636000024329,None,,,,,,,,,,,,P129,001,2024-11-21_14h56.10.551,posner_endo_new1,2024.2.4,60.082866288473106,2024-11-21 14h56.19.697644 +0000,
0.31,0.005,42,42,0,down,3.737576799998351,None,space,0.46325039999646833,None,,,,,0,42,42,42,,,,,865.3919676000005,,,,,,,,,,,,865.3766744999994,865.3919676000005,865.3919676000005,869.1388756999986,,,,869.1391160999992,869.154993600001,869.154993600001,869.154993600001,869.4547191999991,869.6219366999976,,,,,down,3.737576799998351,None,space,0.46325039999646833,None,,,,,,,,,,,,P129,001,2024-11-21_14h56.10.551,posner_endo_new1,2024.2.4,60.082866288473106,2024-11-21 14h56.19.697644 +0000,
10,0.005,43,43,0,up,3.7162931000020762,None,None,,,,,,,0,43,43,43,,,,,869.6376261999976,,,,,,,,,,,,869.6220921999993,869.6376261999976,869.6376261999976,873.3679136999999,,,,873.3681574000002,873.3839288999989,873.3839288999989,873.3839288999989,873.6835492999999,876.3815686999988,,,,874.3994977000002,up,3.7162931000020762,None,None,,,,,,,,,,,,,,P129,001,2024-11-21_14h56.10.551,posner_endo_new1,2024.2.4,60.082866288473106,2024-11-21 14h56.19.697644 +0000,
-0.31,0.005,44,44,0,up,5.2840838999982225,None,space,0.4251724000023387,None,,,,,0,44,44,44,,,,,876.3975776000007,,,,,,,,,,,,876.3817314999978,876.3975776000007,876.3975776000007,881.6930926999994,,,,881.6936057999992,881.7082468999979,881.7082468999979,881.7082468999979,882.0079418999994,882.1426816999992,,,,,up,5.2840838999982225,None,space,0.4251724000023387,None,,,,,,,,,,,,P129,001,2024-11-21_14h56.10.551,posner_endo_new1,2024.2.4,60.082866288473106,2024-11-21 14h56.19.697644 +0000,
0.005,0.31,45,45,0,down,4.227707400001236,None,space,0.3822053000003507,None,,,,,0,45,45,45,,,,,882.1577833999982,,,,,,,,,,,,882.1430187000005,882.1577833999982,882.1577833999982,886.3883741999998,,,,886.388717400001,886.4038674000003,886.4038674000003,886.4038674000003,886.7035541000005,886.7880516000005,,,,,down,4.227707400001236,None,space,0.3822053000003507,None,,,,,,,,,,,,P129,001,2024-11-21_14h56.10.551,posner_endo_new1,2024.2.4,60.082866288473106,2024-11-21 14h56.19.697644 +0000,
0.005,-0.31,46,46,0,down,6.702910500000144,None,space,0.4385586999997031,None,,,,,0,46,46,46,,,,,886.8034659999976,,,,,,,,,,,,886.7882886999978,886.8034659999976,886.8034659999976,893.5143434999991,,,,893.5146862000001,893.529841399999,893.529841399999,893.529841399999,893.8295770999976,893.9804886999991,,,,,down,6.702910500000144,None,space,0.4385586999997031,None,,,,,,,,,,,,P129,001,2024-11-21_14h56.10.551,posner_endo_new1,2024.2.4,60.082866288473106,2024-11-21 14h56.19.697644 +0000,
-0.31,0.005,47,47,0,up,2.9101146000029985,None,space,0.4580592999991495,None,,,,,0,47,47,47,,,,,893.9962115999988,,,,,,,,,,,,893.9807173000008,893.9962115999988,893.9962115999988,896.9108094000003,,,,896.9111491000003,896.9263006000001,896.9263006000001,896.9263006000001,897.2260740999991,897.3938372999983,,,,,up,2.9101146000029985,None,space,0.4580592999991495,None,,,,,,,,,,,,P129,001,2024-11-21_14h56.10.551,posner_endo_new1,2024.2.4,60.082866288473106,2024-11-21 14h56.19.697644 +0000,
0.005,-0.31,48,48,0,down,3.193079199998465,None,space,0.5716821999994863,None,,,,,0,48,48,48,,,,,897.4093489000006,,,,,,,,,,,,897.394064600001,897.4093489000006,897.4093489000006,900.6070086,,,,900.607372399998,900.622722199998,900.622722199998,900.622722199998,900.9225349000008,901.206384000001,,,,,down,3.193079199998465,None,space,0.5716821999994863,None,,,,,,,,,,,,P129,001,2024-11-21_14h56.10.551,posner_endo_new1,2024.2.4,60.082866288473106,2024-11-21 14h56.19.697644 +0000,
0.005,-0.31,49,49,0,up,2.9082943000030355,None,space,0.3347556999979133,None,,,,,0,49,49,49,,,,,901.2219810999995,,,,,,,,,,,,901.206611900001,901.2219810999995,901.2219810999995,904.1366832999993,,,,904.1370241999975,904.1524227000009,904.1524227000009,904.1524227000009,904.4520348000005,904.5030929999994,,,,,up,2.9082943000030355,None,space,0.3347556999979133,None,,,,,,,,,,,,P129,001,2024-11-21_14h56.10.551,posner_endo_new1,2024.2.4,60.082866288473106,2024-11-21 14h56.19.697644 +0000,
0.005,0.31,50,50,0,down,3.2987500000017462,None,space,0.3819806999999855,None,,,,,0,50,50,50,,,,,904.5187888,,,,,,,,,,,,904.503319899999,904.5187888,904.5187888,907.8329833999996,,,,907.833321099999,907.8484903999997,907.8484903999997,907.8484903999997,908.1482441999979,908.2326716999996,,,,,down,3.2987500000017462,None,space,0.3819806999999855,None,,,,,,,,,,,,P129,001,2024-11-21_14h56.10.551,posner_endo_new1,2024.2.4,60.082866288473106,2024-11-21 14h56.19.697644 +0000,
0.31,0.005,51,51,0,up,4.313291599999502,None,space,0.40874089999852004,None,,,,,0,51,51,51,,,,,908.2481556999992,,,,,,,,,,,,908.2329074000008,908.2481556999992,908.2481556999992,912.5781644999988,,,,912.5785241999984,912.5937006999993,912.5937006999993,912.5937006999993,912.893415999999,913.0109009000007,,,,,up,4.313291599999502,None,space,0.40874089999852004,None,,,,,,,,,,,,P129,001,2024-11-21_14h56.10.551,posner_endo_new1,2024.2.4,60.082866288473106,2024-11-21 14h56.19.697644 +0000,
0.31,0.005,52,52,0,down,3.0079016999989108,None,space,0.4884280000005674,None,,,,,0,52,52,52,,,,,913.0264248999993,,,,,,,,,,,,913.0111302999976,913.0264248999993,913.0264248999993,916.0412451999982,,,,916.0415839999987,916.0568443000011,916.0568443000011,916.0568443000011,916.3566580000006,916.5573355999986,,,,,down,3.0079016999989108,None,space,0.4884280000005674,None,,,,,,,,,,,,P129,001,2024-11-21_14h56.10.551,posner_endo_new1,2024.2.4,60.082866288473106,2024-11-21 14h56.19.697644 +0000,
0.005,0.31,53,53,0,up,3.1084301000009873,None,space,0.418276500000502,None,,,,,0,53,53,53,,,,,916.5730640000002,,,,,,,,,,,,916.5575693999999,916.5730640000002,916.5730640000002,919.6874360000002,,,,919.6877765999998,919.7030040999998,919.7030040999998,919.7030040999998,920.002717899999,920.1369897999975,,,,,up,3.1084301000009873,None,space,0.418276500000502,None,,,,,,,,,,,,P129,001,2024-11-21_14h56.10.551,posner_endo_new1,2024.2.4,60.082866288473106,2024-11-21 14h56.19.697644 +0000,
-0.31,0.005,54,54,0,down,3.0892798000022594,None,space,0.353688900002453,None,,,,,0,54,54,54,,,,,920.1523536999994,,,,,,,,,,,,920.1372306999983,920.1523536999994,920.1523536999994,923.250411699999,,,,923.2507694999986,923.2661100999976,923.2661100999976,923.2661100999976,923.5656199000005,923.6334093000005,,,,,down,3.0892798000022594,None,space,0.353688900002453,None,,,,,,,,,,,,P129,001,2024-11-21_14h56.10.551,posner_endo_new1,2024.2.4,60.082866288473106,2024-11-21 14h56.19.697644 +0000,
10,0.005,55,55,0,up,2.7529457999989972,None,None,,,,,,,0,55,55,55,,,,,923.6492074999987,,,,,,,,,,,,923.6336401999979,923.6492074999987,923.6492074999987,926.4138155,,,,926.4141655999993,926.4294403999993,926.4294403999993,926.4294403999993,926.729352899998,929.4266623000003,,,,927.4285190999981,up,2.7529457999989972,None,None,,,,,,,,,,,,,,P129,001,2024-11-21_14h56.10.551,posner_endo_new1,2024.2.4,60.082866288473106,2024-11-21 14h56.19.697644 +0000,
0.31,0.005,56,56,0,down,1.502943100000266,None,space,0.31523009999727947,None,,,,,0,56,56,56,,,,,929.4429937999994,,,,,,,,,,,,929.4268764000008,929.4429937999994,929.4429937999994,930.9593507999998,,,,930.9596939000003,930.9748252999998,930.9748252999998,930.9748252999998,931.2745479999976,931.2923310999977,,,,,down,1.502943100000266,None,space,0.31523009999727947,None,,,,,,,,,,,,P129,001,2024-11-21_14h56.10.551,posner_endo_new1,2024.2.4,60.082866288473106,2024-11-21 14h56.19.697644 +0000,
0.005,0.31,57,57,0,up,3.710433100000955,None,space,0.48748859999977867,None,,,,,0,57,57,57,,,,,931.3079188000011,,,,,,,,,,,,931.2925594999979,931.3079188000011,931.3079188000011,935.0217525000007,,,,935.0220970000009,935.0372337000008,935.0372337000008,935.0372337000008,935.3370443999993,935.5377915999998,,,,,up,3.710433100000955,None,space,0.48748859999977867,None,,,,,,,,,,,,P129,001,2024-11-21_14h56.10.551,posner_endo_new1,2024.2.4,60.082866288473106,2024-11-21 14h56.19.697644 +0000,
-0.31,0.005,58,58,0,down,2.864746400002332,None,space,0.39470779999828665,None,,,,,0,58,58,58,,,,,935.5535573999987,,,,,,,,,,,,935.5380194999998,935.5535573999987,935.5535573999987,938.4349851999978,,,,938.435333999998,938.4505715999985,938.4505715999985,938.4505715999985,938.7503195999998,938.8514918000001,,,,,down,2.864746400002332,None,space,0.39470779999828665,None,,,,,,,,,,,,P129,001,2024-11-21_14h56.10.551,posner_endo_new1,2024.2.4,60.082866288473106,2024-11-21 14h56.19.697644 +0000,
-0.31,0.005,59,59,0,up,3.615313200003584,None,space,0.40077560000281665,None,,,,,0,59,59,59,,,,,938.8667638999977,,,,,,,,,,,,938.8517275999984,938.8667638999977,938.8667638999977,942.4975974999979,,,,942.497941499998,942.5131020999979,942.5131020999979,942.5131020999979,942.8129273999984,942.9303947000008,,,,,up,3.615313200003584,None,space,0.40077560000281665,None,,,,,,,,,,,,P129,001,2024-11-21_14h56.10.551,posner_endo_new1,2024.2.4,60.082866288473106,2024-11-21 14h56.19.697644 +0000,
,,,,,,,,,,,,,,,,,,,,,,,,,,,,,,,,,,,,,,,,,,,,,,,,,,,,,,,,,,942.9305432000001,942.9459490000008,942.9459490000008,1002.9185298000011,None,,,,,,,P129,001,2024-11-21_14h56.10.551,posner_endo_new1,2024.2.4,60.082866288473106,2024-11-21 14h56.19.697644 +0000,
,,,,,,,,,,,,,,,,,,,,,,,,,,,,,,,,1002.918574700001,1002.9345735999996,1005.9317403999994,,,,,,,,,,,,,,,,,,,,,,,,,,,,,,,,,,,P129,001,2024-11-21_14h56.10.551,posner_endo_new1,2024.2.4,60.082866288473106,2024-11-21 14h56.19.697644 +0000,
0.005,0.31,0,0,0,down,8.883607899999333,None,space,0.4212751000013668,None,,,,,,,,,0,0,0,0,1005.9504224000011,,,,,,,,,,,,1005.9408072999977,1005.9504224000011,1005.9504224000011,1014.8399245,,,,1014.8401876999997,1014.8555816000007,1014.8555816000007,1014.8555816000007,1015.1553010999996,1015.2891870999993,,,,,,,,,,,,,,,,down,8.883607899999333,None,space,0.4212751000013668,None,P129,001,2024-11-21_14h56.10.551,posner_endo_new1,2024.2.4,60.082866288473106,2024-11-21 14h56.19.697644 +0000,
-0.31,0.005,1,1,0,up,2.624194699998043,None,space,0.39351089999763644,None,,,,,,,,,0,1,1,1,1015.3053046999994,,,,,,,,,,,,1015.2893522999984,1015.3053046999994,1015.3053046999994,1017.9366487999978,,,,1017.9369001999985,1017.9523793999979,1017.9523793999979,1017.9523793999979,1018.252293900001,1018.3527818000002,,,,,,,,,,,,,,,,up,2.624194699998043,None,space,0.39351089999763644,None,P129,001,2024-11-21_14h56.10.551,posner_endo_new1,2024.2.4,60.082866288473106,2024-11-21 14h56.19.697644 +0000,
0.005,-0.31,2,2,0,down,2.913079900001321,None,space,0.3382220999992569,None,,,,,,,,,0,2,2,2,1018.3689401999982,,,,,,,,,,,,1018.3529477999982,1018.3689401999982,1018.3689401999982,1021.2836389999975,,,,1021.283881899999,1021.2991194999995,1021.2991194999995,1021.2991194999995,1021.5988467999996,1021.6496513999991,,,,,,,,,,,,,,,,down,2.913079900001321,None,space,0.3382220999992569,None,P129,001,2024-11-21_14h56.10.551,posner_endo_new1,2024.2.4,60.082866288473106,2024-11-21 14h56.19.697644 +0000,
0.31,0.005,3,3,0,up,3.1200580000004265,None,space,0.35230670000237296,None,,,,,,,,,0,3,3,3,1021.6655886000008,,,,,,,,,,,,1021.6498098000011,1021.6655886000008,1021.6655886000008,1024.7962860999978,,,,1024.7965294999995,1024.8120702999986,1024.8120702999986,1024.8120702999986,1025.1118085999988,1025.179137799998,,,,,,,,,,,,,,,,up,3.1200580000004265,None,space,0.35230670000237296,None,P129,001,2024-11-21_14h56.10.551,posner_endo_new1,2024.2.4,60.082866288473106,2024-11-21 14h56.19.697644 +0000,
0.005,0.31,4,4,0,down,2.662668199998734,None,space,0.3648916000020108,None,,,,,,,,,0,4,4,4,1025.1951104,,,,,,,,,,,,1025.1792962,1025.1951104,1025.1951104,1027.8597775999988,,,,1027.8600392000008,1027.8761472999977,1027.8761472999977,1027.8761472999977,1028.1754341999986,1028.2430067999994,,,,,,,,,,,,,,,,down,2.662668199998734,None,space,0.3648916000020108,None,P129,001,2024-11-21_14h56.10.551,posner_endo_new1,2024.2.4,60.082866288473106,2024-11-21 14h56.19.697644 +0000,
0.005,-0.31,5,5,0,up,3.111170200001652,None,space,0.4188176999996358,None,,,,,,,,,0,5,5,5,1028.258715699998,,,,,,,,,,,,1028.2431663999996,1028.258715699998,1028.258715699998,1031.3727837000006,,,,1031.3730279999982,1031.3888262,1031.3888262,1031.3888262,1031.6884447000011,1031.822395700001,,,,,,,,,,,,,,,,up,3.111170200001652,None,space,0.4188176999996358,None,P129,001,2024-11-21_14h56.10.551,posner_endo_new1,2024.2.4,60.082866288473106,2024-11-21 14h56.19.697644 +0000,
-0.31,0.005,6,6,0,down,2.899441699999443,None,space,0.4113053000000946,None,,,,,,,,,0,6,6,6,1031.8382886,,,,,,,,,,,,1031.8225550999996,1031.8382886,1031.8382886,1034.752483199998,,,,1034.7527257000002,1034.7686787999992,1034.7686787999992,1034.7686787999992,1035.068148800001,1035.1857678999986,,,,,,,,,,,,,,,,down,2.899441699999443,None,space,0.4113053000000946,None,P129,001,2024-11-21_14h56.10.551,posner_endo_new1,2024.2.4,60.082866288473106,2024-11-21 14h56.19.697644 +0000,
0.005,0.31,7,7,0,up,3.2240478999992774,None,space,0.32934150000073714,None,,,,,,,,,0,7,7,7,1035.2013396000002,,,,,,,,,,,,1035.1859286,1035.2013396000002,1035.2013396000002,1038.4323398999986,,,,1038.432592199999,1038.4482820999983,1038.4482820999983,1038.4482820999983,1038.7478169999995,1038.7820702999998,,,,,,,,,,,,,,,,up,3.2240478999992774,None,space,0.32934150000073714,None,P129,001,2024-11-21_14h56.10.551,posner_endo_new1,2024.2.4,60.082866288473106,2024-11-21 14h56.19.697644 +0000,
0.31,0.005,8,8,0,down,3.3721785999987333,None,space,0.4328599000000395,None,,,,,,,,,0,8,8,8,1038.7978430000003,,,,,,,,,,,,1038.7822343000007,1038.7978430000003,1038.7978430000003,1042.178557799998,,,,1042.178800400001,1042.1944347999997,1042.1944347999997,1042.1944347999997,1042.4941322999985,1042.6281070999976,,,,,,,,,,,,,,,,down,3.3721785999987333,None,space,0.4328599000000395,None,P129,001,2024-11-21_14h56.10.551,posner_endo_new1,2024.2.4,60.082866288473106,2024-11-21 14h56.19.697644 +0000,
10,0.005,9,9,0,up,3.374058800000057,None,None,,,,,,,,,,,0,9,9,9,1042.6439237999984,,,,,,,,,,,,1042.6282681999983,1042.6439237999984,1042.6439237999984,1046.024733899998,,,,1046.0249799999983,1046.0404536999995,1046.0404536999995,1046.0404536999995,1046.3404231999993,1049.0375657000004,,,,1047.0559273,,,,,,,,,,,,up,3.374058800000057,None,None,,,P129,001,2024-11-21_14h56.10.551,posner_endo_new1,2024.2.4,60.082866288473106,2024-11-21 14h56.19.697644 +0000,
0.31,0.005,10,10,0,down,0.8202171999982966,None,space,0.3541490999996313,None,,,,,,,,,0,10,10,10,1049.0537856999981,,,,,,,,,,,,1049.0377373999982,1049.0537856999981,1049.0537856999981,1049.8868722000007,,,,1049.8871139000003,1049.903228799998,1049.903228799998,1049.903228799998,1050.2027942999994,1050.2702151999983,,,,,,,,,,,,,,,,down,0.8202171999982966,None,space,0.3541490999996313,None,P129,001,2024-11-21_14h56.10.551,posner_endo_new1,2024.2.4,60.082866288473106,2024-11-21 14h56.19.697644 +0000,
0.005,0.31,11,11,0,up,2.060181199998624,None,space,0.37667599999986123,None,,,,,,,,,0,11,11,11,1050.2859736999999,,,,,,,,,,,,1050.2703729999994,1050.2859736999999,1050.2859736999999,1052.3512665999988,,,,1052.3515092999987,1052.3671154000003,1052.3671154000003,1052.3671154000003,1052.6669760000004,1052.7510889000005,,,,,,,,,,,,,,,,up,2.060181199998624,None,space,0.37667599999986123,None,P129,001,2024-11-21_14h56.10.551,posner_endo_new1,2024.2.4,60.082866288473106,2024-11-21 14h56.19.697644 +0000,
10,0.005,12,12,0,down,2.2345839999979944,None,None,,,,,,,,,,,0,12,12,12,1052.7669041000008,,,,,,,,,,,,1052.7512470000001,1052.7669041000008,1052.7669041000008,1055.0154861999981,,,,1055.0157359000004,1055.031066399999,1055.031066399999,1055.031066399999,1055.3308820999991,1058.0281847999977,,,,1056.0299634000003,,,,,,,,,,,,down,2.2345839999979944,None,None,,,P129,001,2024-11-21_14h56.10.551,posner_endo_new1,2024.2.4,60.082866288473106,2024-11-21 14h56.19.697644 +0000,
-0.31,0.005,13,13,0,up,8.804583500001172,None,space,0.40416170000025886,None,,,,,,,,,0,13,13,13,1058.0448389999983,,,,,,,,,,,,1058.0283386999981,1058.0448389999983,1058.0448389999983,1066.853142,,,,1066.8533929000005,1066.8691562999993,1066.8691562999993,1066.8691562999993,1067.1687454999992,1067.2861712999984,,,,,,,,,,,,,,,,up,8.804583500001172,None,space,0.40416170000025886,None,P129,001,2024-11-21_14h56.10.551,posner_endo_new1,2024.2.4,60.082866288473106,2024-11-21 14h56.19.697644 +0000,
0.31,0.005,14,14,0,down,3.1400956000034057,None,space,0.3826502000010805,None,,,,,,,,,0,14,14,14,1067.3019918999998,,,,,,,,,,,,1067.2863300999998,1067.3019918999998,1067.3019918999998,1070.4492322000006,,,,1070.4494803999987,1070.4653923999977,1070.4653923999977,1070.4653923999977,1070.7650714999982,1070.8490261000006,,,,,,,,,,,,,,,,down,3.1400956000034057,None,space,0.3826502000010805,None,P129,001,2024-11-21_14h56.10.551,posner_endo_new1,2024.2.4,60.082866288473106,2024-11-21 14h56.19.697644 +0000,
0.005,-0.31,15,15,0,up,2.6566388999999617,None,space,0.38434110000162036,None,,,,,,,,,0,15,15,15,1070.865077399998,,,,,,,,,,,,1070.849190599998,1070.865077399998,1070.865077399998,1073.5296937999992,,,,1073.5299479999994,1073.5454933,1073.5454933,1073.5454933,1073.8451514999979,1073.9459674999998,,,,,,,,,,,,,,,,up,2.6566388999999617,None,space,0.38434110000162036,None,P129,001,2024-11-21_14h56.10.551,posner_endo_new1,2024.2.4,60.082866288473106,2024-11-21 14h56.19.697644 +0000,
0.31,0.005,16,16,0,down,2.335845199999312,None,space,0.3652717000004486,None,,,,,,,,,0,16,16,16,1073.9616650999997,,,,,,,,,,,,1073.9461355999993,1073.9616650999997,1073.9616650999997,1076.3101816999988,,,,1076.3104232999976,1076.326114200001,1076.326114200001,1076.326114200001,1076.625635299999,1076.6931213999997,,,,,,,,,,,,,,,,down,2.335845199999312,None,space,0.3652717000004486,None,P129,001,2024-11-21_14h56.10.551,posner_endo_new1,2024.2.4,60.082866288473106,2024-11-21 14h56.19.697644 +0000,
0.31,0.005,17,17,0,up,2.3964014000011957,None,space,0.5059546000011323,None,,,,,,,,,0,17,17,17,1076.709115499998,,,,,,,,,,,,1076.6932865999988,1076.709115499998,1076.709115499998,1079.1075409999976,,,,1079.1077890999986,1079.1232750999989,1079.1232750999989,1079.1232750999989,1079.4227668999993,1079.6401628999993,,,,,,,,,,,,,,,,up,2.3964014000011957,None,space,0.5059546000011323,None,P129,001,2024-11-21_14h56.10.551,posner_endo_new1,2024.2.4,60.082866288473106,2024-11-21 14h56.19.697644 +0000,
0.005,-0.31,18,18,0,down,2.9533655000013823,None,space,0.3609921999996004,None,,,,,,,,,0,18,18,18,1079.6560692999992,,,,,,,,,,,,1079.6403255999976,1079.6560692999992,1079.6560692999992,1082.620255400001,,,,1082.6204962999982,1082.6360494,1082.6360494,1082.6360494,1082.936064999998,1083.0035607999998,,,,,,,,,,,,,,,,down,2.9533655000013823,None,space,0.3609921999996004,None,P129,001,2024-11-21_14h56.10.551,posner_endo_new1,2024.2.4,60.082866288473106,2024-11-21 14h56.19.697644 +0000,
0.005,-0.31,19,19,0,up,2.487905400001182,None,space,0.34498940000048606,None,,,,,,,,,0,19,19,19,1083.0192425999994,,,,,,,,,,,,1083.0037257000004,1083.0192425999994,1083.0192425999994,1085.5172822999994,,,,1085.5175240999997,1085.533410199998,1085.533410199998,1085.533410199998,1085.833075800001,1085.8838260999983,,,,,,,,,,,,,,,,up,2.487905400001182,None,space,0.34498940000048606,None,P129,001,2024-11-21_14h56.10.551,posner_endo_new1,2024.2.4,60.082866288473106,2024-11-21 14h56.19.697644 +0000,
10,0.005,20,20,0,down,3.1662348999998358,None,None,,,,,,,,,,,0,20,20,20,1085.8995843999983,,,,,,,,,,,,1085.8839843999995,1085.8995843999983,1085.8995843999983,1089.0803324000008,,,,1089.0805741000004,1089.0964683999991,1089.0964683999991,1089.0964683999991,1089.395992499998,1092.093347599999,,,,1090.1119431000006,,,,,,,,,,,,down,3.1662348999998358,None,None,,,P129,001,2024-11-21_14h56.10.551,posner_endo_new1,2024.2.4,60.082866288473106,2024-11-21 14h56.19.697644 +0000,
0.005,-0.31,21,21,0,up,0.6436365000008664,None,space,0.3498927000000549,None,,,,,,,,,0,21,21,21,1092.1098252999982,,,,,,,,,,,,1092.0935037999989,1092.1098252999982,1092.1098252999982,1092.760092299999,,,,1092.760334999999,1092.7758795000009,1092.7758795000009,1092.7758795000009,1093.0754963,1093.1265257999985,,,,,,,,,,,,,,,,up,0.6436365000008664,None,space,0.3498927000000549,None,P129,001,2024-11-21_14h56.10.551,posner_endo_new1,2024.2.4,60.082866288473106,2024-11-21 14h56.19.697644 +0000,
0.005,0.31,22,22,0,down,2.987930499999493,None,space,0.32111620000068797,None,,,,,,,,,0,22,22,22,1093.1420538999992,,,,,,,,,,,,1093.1266849999993,1093.1420538999992,1093.1420538999992,1096.1399951999992,,,,1096.1402409000002,1096.155799799999,1096.155799799999,1096.155799799999,1096.4555553999999,1096.489594300001,,,,,,,,,,,,,,,,down,2.987930499999493,None,space,0.32111620000068797,None,P129,001,2024-11-21_14h56.10.551,posner_endo_new1,2024.2.4,60.082866288473106,2024-11-21 14h56.19.697644 +0000,
0.31,0.005,23,23,0,up,2.823863200002961,None,space,0.4092603999997664,None,,,,,,,,,0,23,23,23,1096.5053933999989,,,,,,,,,,,,1096.4897530999988,1096.5053933999989,1096.5053933999989,1099.3366870999998,,,,1099.3369304999978,1099.3524843999985,1099.3524843999985,1099.3524843999985,1099.652246900001,1099.7695832999998,,,,,,,,,,,,,,,,up,2.823863200002961,None,space,0.4092603999997664,None,P129,001,2024-11-21_14h56.10.551,posner_endo_new1,2024.2.4,60.082866288473106,2024-11-21 14h56.19.697644 +0000,
-0.31,0.005,24,24,0,down,3.2084223000019847,None,space,0.36493179999888525,None,,,,,,,,,0,24,24,24,1099.7854047,,,,,,,,,,,,1099.7697416999981,1099.7854047,1099.7854047,1102.9996191999999,,,,1102.9998693999987,1103.0151750000005,1103.0151750000005,1103.0151750000005,1103.3148951000003,1103.3823849,,,,,,,,,,,,,,,,down,3.2084223000019847,None,space,0.36493179999888525,None,P129,001,2024-11-21_14h56.10.551,posner_endo_new1,2024.2.4,60.082866288473106,2024-11-21 14h56.19.697644 +0000,
10,0.005,25,25,0,up,2.0593054000019038,None,None,,,,,,,,,,,0,25,25,25,1103.3982928000005,,,,,,,,,,,,1103.3825431999976,1103.3982928000005,1103.3982928000005,1105.4636006,,,,1105.4638457,1105.4792653000004,1105.4792653000004,1105.4792653000004,1105.779240699998,1108.4766046000004,,,,1106.4785645999982,,,,,,,,,,,,up,2.0593054000019038,None,None,,,P129,001,2024-11-21_14h56.10.551,posner_endo_new1,2024.2.4,60.082866288473106,2024-11-21 14h56.19.697644 +0000,
0.005,0.31,26,26,0,down,1.15006319999884,None,space,0.3588068999997631,None,,,,,,,,,0,26,26,26,1108.4930840999987,,,,,,,,,,,,1108.4767696999988,1108.4930840999987,1108.4930840999987,1109.6594208999995,,,,1109.6596668999991,1109.675293799999,1109.675293799999,1109.675293799999,1109.975088700001,1110.0421777999982,,,,,,,,,,,,,,,,down,1.15006319999884,None,space,0.3588068999997631,None,P129,001,2024-11-21_14h56.10.551,posner_endo_new1,2024.2.4,60.082866288473106,2024-11-21 14h56.19.697644 +0000,
0.31,0.005,27,27,0,up,2.9756818000023486,None,space,0.3521288000010827,None,,,,,,,,,0,27,27,27,1110.0583229000003,,,,,,,,,,,,1110.042335099999,1110.0583229000003,1110.0583229000003,1113.0391899999995,,,,1113.0394325999987,1113.055148299998,1113.055148299998,1113.055148299998,1113.3547153,1113.422256599999,,,,,,,,,,,,,,,,up,2.9756818000023486,None,space,0.3521288000010827,None,P129,001,2024-11-21_14h56.10.551,posner_endo_new1,2024.2.4,60.082866288473106,2024-11-21 14h56.19.697644 +0000,
0.005,0.31,28,28,0,down,3.356161899999279,None,space,0.35201250000318396,None,,,,,,,,,0,28,28,28,1113.437974299999,,,,,,,,,,,,1113.4224204999991,1113.437974299999,1113.437974299999,1116.8022033999987,,,,1116.8024512999982,1116.8178174999994,1116.8178174999994,1116.8178174999994,1117.1175078999986,1117.184986799999,,,,,,,,,,,,,,,,down,3.356161899999279,None,space,0.35201250000318396,None,P129,001,2024-11-21_14h56.10.551,posner_endo_new1,2024.2.4,60.082866288473106,2024-11-21 14h56.19.697644 +0000,
10,0.005,29,29,0,up,2.041102099999989,None,None,,,,,,,,,,,0,29,29,29,1117.2007954,,,,,,,,,,,,1117.1851481999984,1117.2007954,1117.2007954,1119.249700299999,,,,1119.2499452999982,1119.265324699998,1119.265324699998,1119.265324699998,1119.5652593999985,1122.262421200001,,,,1120.2812802000008,,,,,,,,,,,,up,2.041102099999989,None,None,,,P129,001,2024-11-21_14h56.10.551,posner_endo_new1,2024.2.4,60.082866288473106,2024-11-21 14h56.19.697644 +0000,
0.005,-0.31,30,30,0,down,1.098801000000094,None,space,0.3779495999988285,None,,,,,,,,,0,30,30,30,1122.2790382999992,,,,,,,,,,,,1122.2625774000007,1122.2790382999992,1122.2790382999992,1123.3790152000001,,,,1123.3792708,1123.3944892,1123.3944892,1123.3944892,1123.6942338000008,1123.7781952000005,,,,,,,,,,,,,,,,down,1.098801000000094,None,space,0.3779495999988285,None,P129,001,2024-11-21_14h56.10.551,posner_endo_new1,2024.2.4,60.082866288473106,2024-11-21 14h56.19.697644 +0000,
0.31,0.005,31,31,0,up,1.9991306999982044,None,space,0.4082321999994747,None,,,,,,,,,0,31,31,31,1123.7942417999984,,,,,,,,,,,,1123.7783531999994,1123.7942417999984,1123.7942417999984,1125.8092918000002,,,,1125.8095463999998,1125.8254568000011,1125.8254568000011,1125.8254568000011,1126.1251019999982,1126.2425464999978,,,,,,,,,,,,,,,,up,1.9991306999982044,None,space,0.4082321999994747,None,P129,001,2024-11-21_14h56.10.551,posner_endo_new1,2024.2.4,60.082866288473106,2024-11-21 14h56.19.697644 +0000,
10,0.005,32,32,0,down,3.3675763999999617,None,None,,,,,,,,,,,0,32,32,32,1126.2583718999995,,,,,,,,,,,,1126.2427045999975,1126.2583718999995,1126.2583718999995,1129.6387972999983,,,,1129.6390384000006,1129.6546119999985,1129.6546119999985,1129.6546119999985,1129.9543573999981,1132.6515480999988,,,,1130.6536649000009,,,,,,,,,,,,down,3.3675763999999617,None,None,,,P129,001,2024-11-21_14h56.10.551,posner_endo_new1,2024.2.4,60.082866288473106,2024-11-21 14h56.19.697644 +0000,
-0.31,0.005,33,33,0,up,0.46166760000051,None,space,0.43841010000323877,None,,,,,,,,,0,33,33,33,1132.6683195999976,,,,,,,,,,,,1132.6517064,1132.6683195999976,1132.6683195999976,1133.1352421999982,,,,1133.135484399998,1133.1511197,1133.1511197,1133.1511197,1133.4509029,1133.6013048999994,,,,,,,,,,,,,,,,up,0.46166760000051,None,space,0.43841010000323877,None,P129,001,2024-11-21_14h56.10.551,posner_endo_new1,2024.2.4,60.082866288473106,2024-11-21 14h56.19.697644 +0000,
10,0.005,34,34,0,down,3.3601527999999234,None,None,,,,,,,,,,,0,34,34,34,1133.6174551999975,,,,,,,,,,,,1133.6014636,1133.6174551999975,1133.6174551999975,1136.981315099998,,,,1136.9815645999988,1136.9972520999981,1136.9972520999981,1136.9972520999981,1137.296763899998,1139.9944646000004,,,,1137.9960882999985,,,,,,,,,,,,down,3.3601527999999234,None,None,,,P129,001,2024-11-21_14h56.10.551,posner_endo_new1,2024.2.4,60.082866288473106,2024-11-21 14h56.19.697644 +0000,
0.005,-0.31,35,35,0,up,0.27039610000065295,None,space,0.4020710999975563,None,,,,,,,,,0,35,35,35,1140.0107054,,,,,,,,,,,,1139.9946194999975,1140.0107054,1140.0107054,1140.2944725999987,,,,1140.294713899999,1140.310529800001,1140.310529800001,1140.310529800001,1140.6103244999977,1140.7276386999984,,,,,,,,,,,,,,,,up,0.27039610000065295,None,space,0.4020710999975563,None,P129,001,2024-11-21_14h56.10.551,posner_endo_new1,2024.2.4,60.082866288473106,2024-11-21 14h56.19.697644 +0000,
0.31,0.005,36,36,0,down,2.2662049999999,None,space,0.3088456999976188,None,,,,,,,,,0,36,36,36,1140.7433027999978,,,,,,,,,,,,1140.7277972999982,1140.7433027999978,1140.7433027999978,1143.025249800001,,,,1143.0254930999981,1143.0411132000008,1143.0411132000008,1143.0411132000008,1143.340739299998,1143.3581382000011,,,,,,,,,,,,,,,,down,2.2662049999999,None,space,0.3088456999976188,None,P129,001,2024-11-21_14h56.10.551,posner_endo_new1,2024.2.4,60.082866288473106,2024-11-21 14h56.19.697644 +0000,
10,0.005,37,37,0,up,2.4279029999997874,None,None,,,,,,,,,,,0,37,37,37,1143.3740978999995,,,,,,,,,,,,1143.3582965999994,1143.3740978999995,1143.3740978999995,1145.8056150000011,,,,1145.8058573999988,1145.821847799998,1145.821847799998,1145.821847799998,1146.121422100001,1148.8187202000008,,,,1146.8373632000003,,,,,,,,,,,,up,2.4279029999997874,None,None,,,P129,001,2024-11-21_14h56.10.551,posner_endo_new1,2024.2.4,60.082866288473106,2024-11-21 14h56.19.697644 +0000,
10,0.005,38,38,0,down,0.8387234000001627,None,None,,,,,,,,,,,0,38,38,38,1148.8350629999986,,,,,,,,,,,,1148.8188757999997,1148.8350629999986,1148.8350629999986,1149.6847216999995,,,,1149.6849829999992,1149.7008529999985,1149.7008529999985,1149.7008529999985,1150.0006514999986,1152.6980798999975,,,,1150.6999217999983,,,,,,,,,,,,down,0.8387234000001627,None,None,,,P129,001,2024-11-21_14h56.10.551,posner_endo_new1,2024.2.4,60.082866288473106,2024-11-21 14h56.19.697644 +0000,
-0.31,0.005,39,39,0,up,1.7905289000009361,None,space,0.35795169999983045,None,,,,,,,,,0,39,39,39,1152.7146342999986,,,,,,,,,,,,1152.6982432999976,1152.7146342999986,1152.7146342999986,1154.513317500001,,,,1154.5135612999984,1154.5293856999997,1154.5293856999997,1154.5293856999997,1154.8289925999998,1154.8963869,,,,,,,,,,,,,,,,up,1.7905289000009361,None,space,0.35795169999983045,None,P129,001,2024-11-21_14h56.10.551,posner_endo_new1,2024.2.4,60.082866288473106,2024-11-21 14h56.19.697644 +0000,
0.005,-0.31,40,40,0,down,3.5931367999983195,None,space,0.36834689999886905,None,,,,,,,,,0,40,40,40,1154.912350300001,,,,,,,,,,,,1154.896564499999,1154.912350300001,1154.912350300001,1158.5098639999997,,,,1158.5103767,1158.524787800001,1158.524787800001,1158.524787800001,1158.8248447999977,1158.9091703999984,,,,,,,,,,,,,,,,down,3.5931367999983195,None,space,0.36834689999886905,None,P129,001,2024-11-21_14h56.10.551,posner_endo_new1,2024.2.4,60.082866288473106,2024-11-21 14h56.19.697644 +0000,
0.005,-0.31,41,41,0,up,1.7726581999995688,None,space,0.40735339999810094,None,,,,,,,,,0,41,41,41,1158.9248171,,,,,,,,,,,,1158.9094065999998,1158.9248171,1158.9248171,1160.7075616000002,,,,1160.7079042999976,1160.723047899999,1160.723047899999,1160.723047899999,1161.0224615000006,1161.140416899998,,,,,,,,,,,,,,,,up,1.7726581999995688,None,space,0.40735339999810094,None,P129,001,2024-11-21_14h56.10.551,posner_endo_new1,2024.2.4,60.082866288473106,2024-11-21 14h56.19.697644 +0000,
10,0.005,42,42,0,down,2.9571935999993,None,None,,,,,,,,,,,0,42,42,42,1161.1559855999985,,,,,,,,,,,,1161.1406500999983,1161.1559855999985,1161.1559855999985,1164.1204885000006,,,,1164.1208391,1164.136083999998,1164.136083999998,1164.136083999998,1164.4357932999992,1167.1330835000008,,,,1165.1517237999979,,,,,,,,,,,,down,2.9571935999993,None,None,,,P129,001,2024-11-21_14h56.10.551,posner_endo_new1,2024.2.4,60.082866288473106,2024-11-21 14h56.19.697644 +0000,
0.005,-0.31,43,43,0,down,3.596042599998327,None,space,0.5654990000002726,None,,,,,,,,,0,43,43,43,1167.1494940999983,,,,,,,,,,,,1167.1332495999995,1167.1494940999983,1167.1494940999983,1170.7469942999996,,,,1170.747238699998,1170.7624714999984,1170.7624714999984,1170.7624714999984,1171.0622737999984,1171.3296372999976,,,,,,,,,,,,,,,,down,3.596042599998327,None,space,0.5654990000002726,None,P129,001,2024-11-21_14h56.10.551,posner_endo_new1,2024.2.4,60.082866288473106,2024-11-21 14h56.19.697644 +0000,
-0.31,0.005,44,44,0,up,2.640926899999613,None,space,0.34643189999769675,None,,,,,,,,,0,44,44,44,1171.3452585999985,,,,,,,,,,,,1171.329801699998,1171.3452585999985,1171.3452585999985,1173.9935336999988,,,,1173.9937781000008,1174.009399999999,1174.009399999999,1174.009399999999,1174.3090951999984,1174.3599587999997,,,,,,,,,,,,,,,,up,2.640926899999613,None,space,0.34643189999769675,None,P129,001,2024-11-21_14h56.10.551,posner_endo_new1,2024.2.4,60.082866288473106,2024-11-21 14h56.19.697644 +0000,
10,0.005,45,45,0,down,2.7153690999984974,None,None,,,,,,,,,,,0,45,45,45,1174.3756312000005,,,,,,,,,,,,1174.3601176999982,1174.3756312000005,1174.3756312000005,1177.1069012999978,,,,1177.107149899999,1177.1228679999986,1177.1228679999986,1177.1228679999986,1177.4225512999983,1180.1198399999994,,,,1178.1384661999982,,,,,,,,,,,,down,2.7153690999984974,None,None,,,P129,001,2024-11-21_14h56.10.551,posner_endo_new1,2024.2.4,60.082866288473106,2024-11-21 14h56.19.697644 +0000,
0.005,0.31,46,46,0,down,3.314280200000212,None,space,0.41086709999945015,None,,,,,,,,,0,46,46,46,1180.1365393999986,,,,,,,,,,,,1180.1199944,1180.1365393999986,1180.1365393999986,1183.4671840999981,,,,1183.467429299999,1183.4831105999983,1183.4831105999983,1183.4831105999983,1183.7828788999977,1183.9002048000002,,,,,,,,,,,,,,,,down,3.314280200000212,None,space,0.41086709999945015,None,P129,001,2024-11-21_14h56.10.551,posner_endo_new1,2024.2.4,60.082866288473106,2024-11-21 14h56.19.697644 +0000,
0.005,-0.31,47,47,0,up,2.741849000001821,None,space,0.3917450999979337,None,,,,,,,,,0,47,47,47,1183.9157558999977,,,,,,,,,,,,1183.9003696,1183.9157558999977,1183.9157558999977,1186.663899700001,,,,1186.6641407999996,1186.6797555999983,1186.6797555999983,1186.6797555999983,1186.9794524999998,1187.0799901999999,,,,,,,,,,,,,,,,up,2.741849000001821,None,space,0.3917450999979337,None,P129,001,2024-11-21_14h56.10.551,posner_endo_new1,2024.2.4,60.082866288473106,2024-11-21 14h56.19.697644 +0000,
0.31,0.005,48,48,0,down,2.865693100000499,None,space,0.35057169999709004,None,,,,,,,,,0,48,48,48,1187.096086900001,,,,,,,,,,,,1187.0801481999988,1187.096086900001,1187.096086900001,1189.9771679999976,,,,1189.977412199998,1189.9930677000011,1189.9930677000011,1189.9930677000011,1190.2925249,1190.3600006999986,,,,,,,,,,,,,,,,down,2.865693100000499,None,space,0.35057169999709004,None,P129,001,2024-11-21_14h56.10.551,posner_endo_new1,2024.2.4,60.082866288473106,2024-11-21 14h56.19.697644 +0000,
-0.31,0.005,49,49,0,up,3.6809384999978647,None,space,0.35251549999884446,None,,,,,,,,,0,49,49,49,1190.376268699998,,,,,,,,,,,,1190.3601675999998,1190.376268699998,1190.376268699998,1194.0729131999979,,,,1194.0731555999992,1194.0887722000007,1194.0887722000007,1194.0887722000007,1194.388610099999,1194.4557969999987,,,,,,,,,,,,,,,,up,3.6809384999978647,None,space,0.35251549999884446,None,P129,001,2024-11-21_14h56.10.551,posner_endo_new1,2024.2.4,60.082866288473106,2024-11-21 14h56.19.697644 +0000,
0.005,0.31,50,50,0,down,3.139030799997272,None,space,0.32921649999843794,None,,,,,,,,,0,50,50,50,1194.4717410999983,,,,,,,,,,,,1194.4559556999993,1194.4717410999983,1194.4717410999983,1197.6195296999977,,,,1197.6197730999993,1197.635303799998,1197.635303799998,1197.635303799998,1197.9347326999996,1197.9689794999977,,,,,,,,,,,,,,,,down,3.139030799997272,None,space,0.32921649999843794,None,P129,001,2024-11-21_14h56.10.551,posner_endo_new1,2024.2.4,60.082866288473106,2024-11-21 14h56.19.697644 +0000,
0.005,0.31,51,51,0,up,2.3447668999979214,None,space,0.35437720000118134,None,,,,,,,,,0,51,51,51,1197.9847098999999,,,,,,,,,,,,1197.9691378999996,1197.9847098999999,1197.9847098999999,1200.333122600001,,,,1200.3333722999996,1200.3491719999984,1200.3491719999984,1200.3491719999984,1200.6485891999982,1200.715892199998,,,,,,,,,,,,,,,,up,2.3447668999979214,None,space,0.35437720000118134,None,P129,001,2024-11-21_14h56.10.551,posner_endo_new1,2024.2.4,60.082866288473106,2024-11-21 14h56.19.697644 +0000,
10,0.005,52,52,0,down,2.7258808000005956,None,None,,,,,,,,,,,0,52,52,52,1200.7322184999975,,,,,,,,,,,,1200.7160484999986,1200.7322184999975,1200.7322184999975,1203.4631446999992,,,,1203.463384499999,1203.4792302999995,1203.4792302999995,1203.4792302999995,1203.7787858999982,1206.4761986999983,,,,1204.4782033999982,,,,,,,,,,,,down,2.7258808000005956,None,None,,,P129,001,2024-11-21_14h56.10.551,posner_endo_new1,2024.2.4,60.082866288473106,2024-11-21 14h56.19.697644 +0000,
-0.31,0.005,53,53,0,up,0.5162694999999076,None,space,0.3466484999989916,None,,,,,,,,,0,53,53,53,1206.492843,,,,,,,,,,,,1206.4763595000004,1206.492843,1206.492843,1207.0098400999996,,,,1207.0100854000011,1207.0254769999992,1207.0254769999992,1207.0254769999992,1207.3249995999977,1207.3759624999984,,,,,,,,,,,,,,,,up,0.5162694999999076,None,space,0.3466484999989916,None,P129,001,2024-11-21_14h56.10.551,posner_endo_new1,2024.2.4,60.082866288473106,2024-11-21 14h56.19.697644 +0000,
10,0.005,54,54,0,down,2.5053297000013117,None,None,,,,,,,,,,,0,54,54,54,1207.3919521999997,,,,,,,,,,,,1207.3761259999992,1207.3919521999997,1207.3919521999997,1209.9067101,,,,1209.9069512999995,1209.9226863000004,1209.9226863000004,1209.9226863000004,1210.2221747000003,1212.9196903999982,,,,1210.9380888999985,,,,,,,,,,,,down,2.5053297000013117,None,None,,,P129,001,2024-11-21_14h56.10.551,posner_endo_new1,2024.2.4,60.082866288473106,2024-11-21 14h56.19.697644 +0000,
0.005,0.31,55,55,0,up,0.21699850000004517,None,space,0.38697959999990417,None,,,,,,,,,0,55,55,55,1212.9360782000003,,,,,,,,,,,,1212.919853899999,1212.9360782000003,1212.9360782000003,1213.1699492999978,,,,1213.1701933999975,1213.1857849000007,1213.1857849000007,1213.1857849000007,1213.4855681000008,1213.5861741000008,,,,,,,,,,,,,,,,up,0.21699850000004517,None,space,0.38697959999990417,None,P129,001,2024-11-21_14h56.10.551,posner_endo_new1,2024.2.4,60.082866288473106,2024-11-21 14h56.19.697644 +0000,
0.005,-0.31,56,56,0,down,2.671472400001221,None,space,0.6063522000004014,None,,,,,,,,,0,56,56,56,1213.6022159999993,,,,,,,,,,,,1213.5863385999983,1213.6022159999993,1213.6022159999993,1216.2834478999976,,,,1216.2836915999978,1216.2994180999995,1216.2994180999995,1216.2994180999995,1216.5991073999976,1216.9160205999979,,,,,,,,,,,,,,,,down,2.671472400001221,None,space,0.6063522000004014,None,P129,001,2024-11-21_14h56.10.551,posner_endo_new1,2024.2.4,60.082866288473106,2024-11-21 14h56.19.697644 +0000,
0.005,0.31,57,57,0,up,2.5737272999976994,None,space,0.3234689000018989,None,,,,,,,,,0,57,57,57,1216.9320253999977,,,,,,,,,,,,1216.916178200001,1216.9320253999977,1216.9320253999977,1219.5134667999992,,,,1219.5137063000002,1219.5291957000009,1219.5291957000009,1219.5291957000009,1219.828986299999,1219.8630593999987,,,,,,,,,,,,,,,,up,2.5737272999976994,None,space,0.3234689000018989,None,P129,001,2024-11-21_14h56.10.551,posner_endo_new1,2024.2.4,60.082866288473106,2024-11-21 14h56.19.697644 +0000,
-0.31,0.005,58,58,0,down,2.882813400003215,None,space,0.4603416999998444,None,,,,,,,,,0,58,58,58,1219.8792082,,,,,,,,,,,,1219.8632233999997,1219.8792082,1219.8792082,1222.7768006999977,,,,1222.7770433999976,1222.7926516999978,1222.7926516999978,1222.7926516999978,1223.0924586,1223.2597552999978,,,,,,,,,,,,,,,,down,2.882813400003215,None,space,0.4603416999998444,None,P129,001,2024-11-21_14h56.10.551,posner_endo_new1,2024.2.4,60.082866288473106,2024-11-21 14h56.19.697644 +0000,
-0.31,0.005,59,59,0,up,2.3821634000014456,None,space,0.3221075000001292,None,,,,,,,,,0,59,59,59,1223.275284700001,,,,,,,,,,,,1223.2599209,1223.275284700001,1223.275284700001,1225.6735775999987,,,,1225.673829899999,1225.6897557000011,1225.6897557000011,1225.6897557000011,1225.9895303999983,1226.0236019000004,,,,,,,,,,,,,,,,up,2.3821634000014456,None,space,0.3221075000001292,None,P129,001,2024-11-21_14h56.10.551,posner_endo_new1,2024.2.4,60.082866288473106,2024-11-21 14h56.19.697644 +0000,
