target_y,target_x,thisN,thisTrialN,thisRepN,key_control2.keys,key_control2.rt,key_control2.duration,key_resp.keys,key_resp.rt,key_resp.duration,practice.thisRepN,practice.thisTrialN,practice.thisN,practice.thisIndex,session_1.thisRepN,session_1.thisTrialN,session_1.thisN,session_1.thisIndex,session_2.thisRepN,session_2.thisTrialN,session_2.thisN,session_2.thisIndex,thisRow.t,notes,instructions.started,instructions_txt.started,key_control.started,instructions.stopped,key_control.keys,key_control.rt,key_control.duration,ready.started,ready_txt.started,ready.stopped,fix.started,key_control2.started,fixation_cross.started,fix.stopped,practice.key_control2.keys,practice.key_control2.rt,practice.key_control2.duration,target.started,star.started,fixation_cross_target.started,key_resp.started,star.stopped,target.stopped,practice.key_resp.keys,practice.key_resp.rt,practice.key_resp.duration,key_resp.stopped,session_1.key_control2.keys,session_1.key_control2.rt,session_1.key_control2.duration,session_1.key_resp.keys,session_1.key_resp.rt,session_1.key_resp.duration,break_2.started,text.started,key_control3.started,break_2.stopped,key_control3.keys,key_control3.rt,key_control3.duration,session_2.key_control2.keys,session_2.key_control2.rt,session_2.key_control2.duration,session_2.key_resp.keys,session_2.key_resp.rt,session_2.key_resp.duration,participant,session,date,expName,psychopyVersion,frameRate,expStart,
,,,,,,,,,,,,,,,,,,,,,,,,,0.00751440000001935,0.02832159999999817,0.02832159999999817,8090.687645499999,up,8090.6445526,None,,,,,,,,,,,,,,,,,,,,,,,,,,,,,,,,,,,,,,,,P130,001,2024-11-22_10h45.30.486,posner_endo_new1,2024.2.4,60.093661981565056,2024-11-22 10h45.38.085855 +0000,
,,,,,,,,,,,,,,,,,,,,,,,,,,,,,,,,8090.6877084,8090.6973769999995,8093.691854199999,,,,,,,,,,,,,,,,,,,,,,,,,,,,,,,,,,,,,P130,001,2024-11-22_10h45.30.486,posner_endo_new1,2024.2.4,60.093661981565056,2024-11-22 10h45.38.085855 +0000,
0.005,0.31,0,0,0,up,7.465329299999212,None,space,0.602664599999116,None,0,0,0,6,,,,,,,,,8093.7108003,,,,,,,,,,,,8093.701264,8093.7108003,8093.7108003,8101.1848932,up,7.465329299999212,None,8101.1851791,8101.2009198000005,8101.2009198000005,8101.2009198000005,8101.500609599999,8101.8178039,space,0.602664599999116,None,,,,,,,,,,,,,,,,,,,,,P130,001,2024-11-22_10h45.30.486,posner_endo_new1,2024.2.4,60.093661981565056,2024-11-22 10h45.38.085855 +0000,
0.005,-0.31,1,1,0,down,3.007879899998443,None,space,0.325017499999376,None,0,1,1,5,,,,,,,,,8101.8335337,,,,,,,,,,,,8101.817965499999,8101.8335337,8101.8335337,8104.8478774000005,down,3.007879899998443,None,8104.848123499999,8104.863476399999,8104.863476399999,8104.863476399999,8105.163276099999,8105.1975844,space,0.325017499999376,None,,,,,,,,,,,,,,,,,,,,,P130,001,2024-11-22_10h45.30.486,posner_endo_new1,2024.2.4,60.093661981565056,2024-11-22 10h45.38.085855 +0000,
0.005,10,2,2,0,up,1.7221477000002778,None,None,,,0,2,2,9,,,,,,,,,8105.213376299999,,,,,,,,,,,,8105.1977443999995,8105.213376299999,8105.213376299999,8106.9458184000005,up,1.7221477000002778,None,8106.946067099999,8106.9616822,8106.9616822,8106.9616822,8107.2611219,8109.958689599999,None,,,8107.9770929,,,,,,,,,,,,,,,,,,,,P130,001,2024-11-22_10h45.30.486,posner_endo_new1,2024.2.4,60.093661981565056,2024-11-22 10h45.38.085855 +0000,
-0.31,0.005,3,3,0,up,2.760535699999309,None,space,0.40912159999970754,None,0,3,3,0,,,,,,,,,8109.975078099999,,,,,,,,,,,,8109.9588495,8109.975078099999,8109.975078099999,8112.7396975,up,2.760535699999309,None,8112.7399448999995,8112.755669499999,8112.755669499999,8112.755669499999,8113.0554071,8113.173116999999,space,0.40912159999970754,None,,,,,,,,,,,,,,,,,,,,,P130,001,2024-11-22_10h45.30.486,posner_endo_new1,2024.2.4,60.093661981565056,2024-11-22 10h45.38.085855 +0000,
-0.31,0.005,4,4,0,down,2.2120021999999153,None,space,0.35393199999998615,None,0,4,4,2,,,,,,,,,8113.1885041,,,,,,,,,,,,8113.173271799999,8113.1885041,8113.1885041,8115.4036107,down,2.2120021999999153,None,8115.4038589,8115.419439099999,8115.419439099999,8115.419439099999,8115.7193958,8115.7865534,space,0.35393199999998615,None,,,,,,,,,,,,,,,,,,,,,P130,001,2024-11-22_10h45.30.486,posner_endo_new1,2024.2.4,60.093661981565056,2024-11-22 10h45.38.085855 +0000,
10,0.005,5,5,0,up,1.5577145000006567,None,None,,,0,5,5,4,,,,,,,,,8115.802634999999,,,,,,,,,,,,8115.7867129,8115.802634999999,8115.802634999999,8117.368609300001,up,1.5577145000006567,None,8117.368855399999,8117.384227899999,8117.384227899999,8117.384227899999,8117.6839718,8120.3812028,None,,,8118.3833946,,,,,,,,,,,,,,,,,,,,P130,001,2024-11-22_10h45.30.486,posner_endo_new1,2024.2.4,60.093661981565056,2024-11-22 10h45.38.085855 +0000,
0.31,0.005,6,6,0,up,3.2262577999990754,None,space,0.42855020000024524,None,0,6,6,1,,,,,,,,,8120.3979348,,,,,,,,,,,,8120.3813602,8120.3979348,8120.3979348,8123.6289312,up,3.2262577999990754,None,8123.629185299999,8123.644375299999,8123.644375299999,8123.644375299999,8123.944237799999,8124.0784044,space,0.42855020000024524,None,,,,,,,,,,,,,,,,,,,,,P130,001,2024-11-22_10h45.30.486,posner_endo_new1,2024.2.4,60.093661981565056,2024-11-22 10h45.38.085855 +0000,
0.005,0.31,7,7,0,down,3.074507299999823,None,space,0.320486600001459,None,0,7,7,8,,,,,,,,,8124.094117,,,,,,,,,,,,8124.0785645999995,8124.094117,8124.094117,8127.1751306,down,3.074507299999823,None,8127.1753757,8127.190895999999,8127.190895999999,8127.190895999999,8127.490480699999,8127.524698599999,space,0.320486600001459,None,,,,,,,,,,,,,,,,,,,,,P130,001,2024-11-22_10h45.30.486,posner_endo_new1,2024.2.4,60.093661981565056,2024-11-22 10h45.38.085855 +0000,
0.31,0.005,8,8,0,up,4.307451799999399,None,space,0.3211909999990894,None,0,8,8,3,,,,,,,,,8127.5406249,,,,,,,,,,,,8127.5248592,8127.5406249,8127.5406249,8131.853851999999,up,4.307451799999399,None,8131.8540981,8131.8693861,8131.8693861,8131.8693861,8132.169157199999,8132.2033308,space,0.3211909999990894,None,,,,,,,,,,,,,,,,,,,,,P130,001,2024-11-22_10h45.30.486,posner_endo_new1,2024.2.4,60.093661981565056,2024-11-22 10h45.38.085855 +0000,
0.005,-0.31,9,9,0,down,3.6364358000009815,None,space,0.3932925000008254,None,0,9,9,7,,,,,,,,,8132.2192107,,,,,,,,,,,,8132.203497399999,8132.2192107,8132.2192107,8135.866207599999,down,3.6364358000009815,None,8135.8664547,8135.881983,8135.881983,8135.881983,8136.1817667000005,8136.282371299999,space,0.3932925000008254,None,,,,,,,,,,,,,,,,,,,,,P130,001,2024-11-22_10h45.30.486,posner_endo_new1,2024.2.4,60.093661981565056,2024-11-22 10h45.38.085855 +0000,
,,,,,,,,,,,,,,,,,,,,,,,,,,,,,,,,8136.282481199999,8136.298402899999,8139.2952724,,,,,,,,,,,,,,,,,,,,,,,,,,,,,,,,,,,,,P130,001,2024-11-22_10h45.30.486,posner_endo_new1,2024.2.4,60.093661981565056,2024-11-22 10h45.38.085855 +0000,
-0.31,0.005,0,0,0,up,20.9337762999985,None,space,0.3924506000003021,None,,,,,0,0,0,0,,,,,8139.314616499999,,,,,,,,,,,,8139.303497099999,8139.314616499999,8139.314616499999,8160.257919999999,,,,8160.258175,8160.2738332,8160.2738332,8160.2738332,8160.5734339,8160.674120499999,,,,,up,20.9337762999985,None,space,0.3924506000003021,None,,,,,,,,,,,,,,P130,001,2024-11-22_10h45.30.486,posner_endo_new1,2024.2.4,60.093661981565056,2024-11-22 10h45.38.085855 +0000,
0.005,0.31,1,1,0,down,3.6621222000012494,None,space,0.3722219999999652,None,,,,,0,1,1,1,,,,,8160.6899943,,,,,,,,,,,,8160.6742869,8160.6899943,8160.6899943,8164.353854,,,,8164.354112599999,8164.369528599999,8164.369528599999,8164.369528599999,8164.6694034,8164.753376199999,,,,,down,3.6621222000012494,None,space,0.3722219999999652,None,,,,,,,,,,,,,,P130,001,2024-11-22_10h45.30.486,posner_endo_new1,2024.2.4,60.093661981565056,2024-11-22 10h45.38.085855 +0000,
0.31,0.005,2,2,0,up,2.2712507999985974,None,space,0.336031599999842,None,,,,,0,2,2,2,,,,,8164.76912,,,,,,,,,,,,8164.7535428,8164.76912,8164.76912,8167.0511786,,,,8167.0514257,8167.0668885000005,8167.0668885000005,8167.0668885000005,8167.366542499999,8167.4172899,,,,,up,2.2712507999985974,None,space,0.336031599999842,None,,,,,,,,,,,,,,P130,001,2024-11-22_10h45.30.486,posner_endo_new1,2024.2.4,60.093661981565056,2024-11-22 10h45.38.085855 +0000,
0.31,0.005,3,3,0,down,2.878847100000712,None,space,0.3489122999999381,None,,,,,0,3,3,3,,,,,8167.433162799999,,,,,,,,,,,,8167.4174569,8167.433162799999,8167.433162799999,8170.3147621,,,,8170.3150175,8170.330134699999,8170.330134699999,8170.330134699999,8170.629921999999,8170.6808359,,,,,down,2.878847100000712,None,space,0.3489122999999381,None,,,,,,,,,,,,,,P130,001,2024-11-22_10h45.30.486,posner_endo_new1,2024.2.4,60.093661981565056,2024-11-22 10h45.38.085855 +0000,
-0.31,0.005,4,4,0,up,2.647732700001143,None,space,0.43148650000148336,None,,,,,0,4,4,4,,,,,8170.6965374,,,,,,,,,,,,8170.681008799999,8170.6965374,8170.6965374,8173.361133399999,,,,8173.3613866000005,8173.377054399999,8173.377054399999,8173.377054399999,8173.676823499999,8173.8108482,,,,,up,2.647732700001143,None,space,0.43148650000148336,None,,,,,,,,,,,,,,P130,001,2024-11-22_10h45.30.486,posner_endo_new1,2024.2.4,60.093661981565056,2024-11-22 10h45.38.085855 +0000,
0.005,-0.31,5,5,0,down,3.093292900000961,None,space,0.3214228999986517,None,,,,,0,5,5,5,,,,,8173.8266531,,,,,,,,,,,,8173.8110143,8173.8266531,8173.8266531,8176.924359899999,,,,8176.9246058,8176.9401152,8176.9401152,8176.9401152,8177.2397875,8177.273844099999,,,,,down,3.093292900000961,None,space,0.3214228999986517,None,,,,,,,,,,,,,,P130,001,2024-11-22_10h45.30.486,posner_endo_new1,2024.2.4,60.093661981565056,2024-11-22 10h45.38.085855 +0000,
0.005,-0.31,6,6,0,up,2.542588099999193,None,space,0.34736309999971127,None,,,,,0,6,6,6,,,,,8177.2898096,,,,,,,,,,,,8177.2740098,8177.2898096,8177.2898096,8179.8380064,,,,8179.8382534,8179.8537303,8179.8537303,8179.8537303,8180.1534697,8180.204208799999,,,,,up,2.542588099999193,None,space,0.34736309999971127,None,,,,,,,,,,,,,,P130,001,2024-11-22_10h45.30.486,posner_endo_new1,2024.2.4,60.093661981565056,2024-11-22 10h45.38.085855 +0000,
10,0.005,7,7,0,down,2.2680930999995326,None,None,,,,,,,0,7,7,7,,,,,8180.220242099999,,,,,,,,,,,,8180.204375999999,8180.220242099999,8180.220242099999,8182.5019188,,,,8182.5021632,8182.5177543,8182.5177543,8182.5177543,8182.8177860000005,8185.5148497,,,,8183.5167673000005,down,2.2680930999995326,None,None,,,,,,,,,,,,,,,,P130,001,2024-11-22_10h45.30.486,posner_endo_new1,2024.2.4,60.093661981565056,2024-11-22 10h45.38.085855 +0000,
-0.31,0.005,8,8,0,up,1.6208009000001766,None,space,0.36986269999943033,None,,,,,0,8,8,8,,,,,8185.5313008,,,,,,,,,,,,8185.515021099999,8185.5313008,8185.5313008,8187.1638309,,,,8187.1640796,8187.179676499999,8187.179676499999,8187.179676499999,8187.479230800001,8187.563341599999,,,,,up,1.6208009000001766,None,space,0.36986269999943033,None,,,,,,,,,,,,,,P130,001,2024-11-22_10h45.30.486,posner_endo_new1,2024.2.4,60.093661981565056,2024-11-22 10h45.38.085855 +0000,
0.005,0.31,9,9,0,down,2.8127268999996886,None,space,0.4821535999999469,None,,,,,0,9,9,9,,,,,8187.579021999999,,,,,,,,,,,,8187.5635068,8187.579021999999,8187.579021999999,8190.393863799999,,,,8190.394109899999,8190.4097457,8190.4097457,8190.4097457,8190.7093247,8190.893526499999,,,,,down,2.8127268999996886,None,space,0.4821535999999469,None,,,,,,,,,,,,,,P130,001,2024-11-22_10h45.30.486,posner_endo_new1,2024.2.4,60.093661981565056,2024-11-22 10h45.38.085855 +0000,
0.005,-0.31,10,10,0,up,3.2272631000005276,None,space,0.35916220000035537,None,,,,,0,10,10,10,,,,,8190.9094079,,,,,,,,,,,,8190.8936912,8190.9094079,8190.9094079,8194.139926400001,,,,8194.1401812,8194.1558742,8194.1558742,8194.1558742,8194.4556871,8194.5228454,,,,,up,3.2272631000005276,None,space,0.35916220000035537,None,,,,,,,,,,,,,,P130,001,2024-11-22_10h45.30.486,posner_endo_new1,2024.2.4,60.093661981565056,2024-11-22 10h45.38.085855 +0000,
0.005,0.31,11,11,0,down,2.925251599999683,None,space,0.3060619999996561,None,,,,,0,11,11,11,,,,,8194.538742,,,,,,,,,,,,8194.523010300001,8194.538742,8194.538742,8197.4698389,,,,8197.470091700001,8197.4857396,8197.4857396,8197.4857396,8197.785467400001,8197.8027807,,,,,down,2.925251599999683,None,space,0.3060619999996561,None,,,,,,,,,,,,,,P130,001,2024-11-22_10h45.30.486,posner_endo_new1,2024.2.4,60.093661981565056,2024-11-22 10h45.38.085855 +0000,
10,0.005,12,12,0,up,3.3174388999996154,None,None,,,,,,,0,12,12,12,,,,,8197.8191135,,,,,,,,,,,,8197.802960500001,8197.8191135,8197.8191135,8201.149563300001,,,,8201.1498205,8201.165357400001,8201.165357400001,8201.165357400001,8201.4649757,8204.1623376,,,,8202.180991500001,up,3.3174388999996154,None,None,,,,,,,,,,,,,,,,P130,001,2024-11-22_10h45.30.486,posner_endo_new1,2024.2.4,60.093661981565056,2024-11-22 10h45.38.085855 +0000,
0.31,0.005,13,13,0,down,0.709015399999771,None,space,0.4719807999990735,None,,,,,0,13,13,13,,,,,8204.178889800001,,,,,,,,,,,,8204.1624978,8204.178889800001,8204.178889800001,8204.895742300001,,,,8204.8959888,8204.9114995,8204.9114995,8204.9114995,8205.2111903,8205.3952677,,,,,down,0.709015399999771,None,space,0.4719807999990735,None,,,,,,,,,,,,,,P130,001,2024-11-22_10h45.30.486,posner_endo_new1,2024.2.4,60.093661981565056,2024-11-22 10h45.38.085855 +0000,
10,0.005,14,14,0,up,2.220886099999916,None,None,,,,,,,0,14,14,14,,,,,8205.4110946,,,,,,,,,,,,8205.3954326,8205.4110946,8205.4110946,8207.6428649,,,,8207.643112200001,8207.6586909,8207.6586909,8207.6586909,8207.958464000001,8210.6559933,,,,8208.674331100001,up,2.220886099999916,None,None,,,,,,,,,,,,,,,,P130,001,2024-11-22_10h45.30.486,posner_endo_new1,2024.2.4,60.093661981565056,2024-11-22 10h45.38.085855 +0000,
-0.31,0.005,15,15,0,down,0.42379020000043965,None,space,0.389392000000953,None,,,,,0,15,15,15,,,,,8210.6722843,,,,,,,,,,,,8210.6561586,8210.6722843,8210.6722843,8211.1061625,,,,8211.1064127,8211.1217641,8211.1217641,8211.1217641,8211.421547900001,8211.5224402,,,,,down,0.42379020000043965,None,space,0.389392000000953,None,,,,,,,,,,,,,,P130,001,2024-11-22_10h45.30.486,posner_endo_new1,2024.2.4,60.093661981565056,2024-11-22 10h45.38.085855 +0000,
0.005,-0.31,16,16,0,up,1.982976700001018,None,space,0.32877170000028855,None,,,,,0,16,16,16,,,,,8211.5380624,,,,,,,,,,,,8211.5226059,8211.5380624,8211.5380624,8213.536909600001,,,,8213.5371575,8213.5527502,8213.5527502,8213.5527502,8213.8522924,8213.886807300001,,,,,up,1.982976700001018,None,space,0.32877170000028855,None,,,,,,,,,,,,,,P130,001,2024-11-22_10h45.30.486,posner_endo_new1,2024.2.4,60.093661981565056,2024-11-22 10h45.38.085855 +0000,
0.005,0.31,17,17,0,down,2.473972399999184,None,space,0.35962300000028335,None,,,,,0,17,17,17,,,,,8213.9023144,,,,,,,,,,,,8213.8869737,8213.9023144,8213.9023144,8216.384102400001,,,,8216.3843469,8216.399687000001,8216.399687000001,8216.399687000001,8216.6993629,8216.7668969,,,,,down,2.473972399999184,None,space,0.35962300000028335,None,,,,,,,,,,,,,,P130,001,2024-11-22_10h45.30.486,posner_endo_new1,2024.2.4,60.093661981565056,2024-11-22 10h45.38.085855 +0000,
-0.31,0.005,18,18,0,up,9.761038200000257,None,space,0.3115127000000939,None,,,,,0,18,18,18,,,,,8216.7827963,,,,,,,,,,,,8216.7670689,8216.7827963,8216.7827963,8226.556779300001,,,,8226.5570241,8226.5726507,8226.5726507,8226.5726507,8226.8723511,8226.8898317,,,,,up,9.761038200000257,None,space,0.3115127000000939,None,,,,,,,,,,,,,,P130,001,2024-11-22_10h45.30.486,posner_endo_new1,2024.2.4,60.093661981565056,2024-11-22 10h45.38.085855 +0000,
10,0.005,19,19,0,down,3.2624864999997953,None,None,,,,,,,0,19,19,19,,,,,8226.905676800001,,,,,,,,,,,,8226.8899966,8226.905676800001,8226.905676800001,8230.1699444,,,,8230.170198200001,8230.1856542,8230.1856542,8230.1856542,8230.485512000001,8233.1826146,,,,8231.1847375,down,3.2624864999997953,None,None,,,,,,,,,,,,,,,,P130,001,2024-11-22_10h45.30.486,posner_endo_new1,2024.2.4,60.093661981565056,2024-11-22 10h45.38.085855 +0000,
0.005,0.31,20,20,0,up,0.688810800000283,None,space,0.307761500000197,None,,,,,0,20,20,20,,,,,8233.199143200001,,,,,,,,,,,,8233.182776900001,8233.199143200001,8233.199143200001,8233.899503100001,,,,8233.8997523,8233.9151235,8233.9151235,8233.9151235,8234.2150777,8234.2322138,,,,,up,0.688810800000283,None,space,0.307761500000197,None,,,,,,,,,,,,,,P130,001,2024-11-22_10h45.30.486,posner_endo_new1,2024.2.4,60.093661981565056,2024-11-22 10h45.38.085855 +0000,
0.005,-0.31,21,21,0,down,2.8080168000014964,None,space,0.4133455999999569,None,,,,,0,21,21,21,,,,,8234.248263700001,,,,,,,,,,,,8234.2323846,8234.248263700001,8234.248263700001,8237.0627203,,,,8237.0629677,8237.0786775,8237.0786775,8237.0786775,8237.3783569,8237.4958621,,,,,down,2.8080168000014964,None,space,0.4133455999999569,None,,,,,,,,,,,,,,P130,001,2024-11-22_10h45.30.486,posner_endo_new1,2024.2.4,60.093661981565056,2024-11-22 10h45.38.085855 +0000,
0.005,0.31,22,22,0,up,4.48113530000046,None,space,0.3335222999994585,None,,,,,0,22,22,22,,,,,8237.5114078,,,,,,,,,,,,8237.4960357,8237.5114078,8237.5114078,8242.0075431,,,,8242.0078044,8242.023654100001,8242.023654100001,8242.023654100001,8242.3234323,8242.3740524,,,,,up,4.48113530000046,None,space,0.3335222999994585,None,,,,,,,,,,,,,,P130,001,2024-11-22_10h45.30.486,posner_endo_new1,2024.2.4,60.093661981565056,2024-11-22 10h45.38.085855 +0000,
0.31,0.005,23,23,0,down,2.53041630000007,None,space,0.3047081000004255,None,,,,,0,23,23,23,,,,,8242.3898804,,,,,,,,,,,,8242.3742184,8242.3898804,8242.3898804,8244.9213554,,,,8244.9216111,8244.937310000001,8244.937310000001,8244.937310000001,8245.2368717,8245.254321600001,,,,,down,2.53041630000007,None,space,0.3047081000004255,None,,,,,,,,,,,,,,P130,001,2024-11-22_10h45.30.486,posner_endo_new1,2024.2.4,60.093661981565056,2024-11-22 10h45.38.085855 +0000,
0.005,0.31,24,24,0,up,3.066474000001108,None,space,0.38016740000057325,None,,,,,0,24,24,24,,,,,8245.2703294,,,,,,,,,,,,8245.254486900001,8245.2703294,8245.2703294,8248.3513483,,,,8248.351601800001,8248.3671813,8248.3671813,8248.3671813,8248.6667691,8248.7509341,,,,,up,3.066474000001108,None,space,0.38016740000057325,None,,,,,,,,,,,,,,P130,001,2024-11-22_10h45.30.486,posner_endo_new1,2024.2.4,60.093661981565056,2024-11-22 10h45.38.085855 +0000,
0.31,0.005,25,25,0,down,3.722020100000009,None,space,0.3119836999994732,None,,,,,0,25,25,25,,,,,8248.766723,,,,,,,,,,,,8248.7510977,8248.766723,8248.766723,8252.496947000001,,,,8252.4971962,8252.5129467,8252.5129467,8252.5129467,8252.8127464,8252.8300755,,,,,down,3.722020100000009,None,space,0.3119836999994732,None,,,,,,,,,,,,,,P130,001,2024-11-22_10h45.30.486,posner_endo_new1,2024.2.4,60.093661981565056,2024-11-22 10h45.38.085855 +0000,
10,0.005,26,26,0,up,3.2506432000009227,None,None,,,,,,,0,26,26,26,,,,,8252.8458933,,,,,,,,,,,,8252.830243,8252.8458933,8252.8458933,8256.109853400001,,,,8256.110100400001,8256.1257815,8256.1257815,8256.1257815,8256.4255415,8259.122879100001,,,,8257.1249265,up,3.2506432000009227,None,None,,,,,,,,,,,,,,,,P130,001,2024-11-22_10h45.30.486,posner_endo_new1,2024.2.4,60.093661981565056,2024-11-22 10h45.38.085855 +0000,
10,0.005,27,27,0,down,0.9887720999995508,None,None,,,,,,,0,27,27,27,,,,,8259.1393927,,,,,,,,,,,,8259.1230402,8259.1393927,8259.1393927,8260.1391359,,,,8260.139390600001,8260.155053600001,8260.155053600001,8260.155053600001,8260.4548864,8263.152315500001,,,,8261.170789700001,down,0.9887720999995508,None,None,,,,,,,,,,,,,,,,P130,001,2024-11-22_10h45.30.486,posner_endo_new1,2024.2.4,60.093661981565056,2024-11-22 10h45.38.085855 +0000,
0.005,-0.31,28,28,0,up,7.9115607000003365,None,space,0.31354730000020936,None,,,,,0,28,28,28,,,,,8263.1687069,,,,,,,,,,,,8263.1524931,8263.1687069,8263.1687069,8271.094624700001,,,,8271.094872900001,8271.1105498,8271.1105498,8271.1105498,8271.4102956,8271.4278926,,,,,up,7.9115607000003365,None,space,0.31354730000020936,None,,,,,,,,,,,,,,P130,001,2024-11-22_10h45.30.486,posner_endo_new1,2024.2.4,60.093661981565056,2024-11-22 10h45.38.085855 +0000,
0.31,0.005,29,29,0,down,3.1244027000011556,None,space,0.3872170000013284,None,,,,,0,29,29,29,,,,,8271.4435751,,,,,,,,,,,,8271.4280682,8271.4435751,8271.4435751,8274.574496000001,,,,8274.574745400001,8274.5903915,8274.5903915,8274.5903915,8274.8901733,8274.990642300001,,,,,down,3.1244027000011556,None,space,0.3872170000013284,None,,,,,,,,,,,,,,P130,001,2024-11-22_10h45.30.486,posner_endo_new1,2024.2.4,60.093661981565056,2024-11-22 10h45.38.085855 +0000,
10,0.005,30,30,0,up,1.9936015999992378,None,None,,,,,,,0,30,30,30,,,,,8275.0064839,,,,,,,,,,,,8274.9908137,8275.0064839,8275.0064839,8277.0054371,,,,8277.0056824,8277.0213105,8277.0213105,8277.0213105,8277.3210705,8280.0182683,,,,8278.0366269,up,1.9936015999992378,None,None,,,,,,,,,,,,,,,,P130,001,2024-11-22_10h45.30.486,posner_endo_new1,2024.2.4,60.093661981565056,2024-11-22 10h45.38.085855 +0000,
0.31,0.005,31,31,0,down,4.741180700000768,None,space,0.33475580000049376,None,,,,,0,31,31,31,,,,,8280.034685300001,,,,,,,,,,,,8280.0184344,8280.034685300001,8280.034685300001,8284.7806753,,,,8284.7809261,8284.7966301,8284.7966301,8284.7966301,8285.096244600001,8285.147143400001,,,,,down,4.741180700000768,None,space,0.33475580000049376,None,,,,,,,,,,,,,,P130,001,2024-11-22_10h45.30.486,posner_endo_new1,2024.2.4,60.093661981565056,2024-11-22 10h45.38.085855 +0000,
0.31,0.005,32,32,0,up,3.7012178000004496,None,space,0.3841830999990634,None,,,,,0,32,32,32,,,,,8285.1628592,,,,,,,,,,,,8285.147309200001,8285.1628592,8285.1628592,8288.8766001,,,,8288.8768492,8288.8923243,8288.8923243,8288.8923243,8289.1921193,8289.292883400001,,,,,up,3.7012178000004496,None,space,0.3841830999990634,None,,,,,,,,,,,,,,P130,001,2024-11-22_10h45.30.486,posner_endo_new1,2024.2.4,60.093661981565056,2024-11-22 10h45.38.085855 +0000,
10,0.005,33,33,0,down,2.8914727000010316,None,None,,,,,,,0,33,33,33,,,,,8289.3085445,,,,,,,,,,,,8289.2930478,8289.3085445,8289.3085445,8292.2064458,,,,8292.206695,8292.222426100001,8292.222426100001,8292.222426100001,8292.5219798,8295.219493,,,,8293.238049700001,down,2.8914727000010316,None,None,,,,,,,,,,,,,,,,P130,001,2024-11-22_10h45.30.486,posner_endo_new1,2024.2.4,60.093661981565056,2024-11-22 10h45.38.085855 +0000,
0.005,-0.31,34,34,0,up,1.0840068999987125,None,space,0.4748945999999705,None,,,,,0,34,34,34,,,,,8295.2359602,,,,,,,,,,,,8295.2196569,8295.2359602,8295.2359602,8296.3356413,,,,8296.3358896,8296.3513354,8296.3513354,8296.3513354,8296.6509772,8296.8349878,,,,,up,1.0840068999987125,None,space,0.4748945999999705,None,,,,,,,,,,,,,,P130,001,2024-11-22_10h45.30.486,posner_endo_new1,2024.2.4,60.093661981565056,2024-11-22 10h45.38.085855 +0000,
-0.31,0.005,35,35,0,down,2.0052657000014733,None,space,0.4485568999989482,None,,,,,0,35,35,35,,,,,8296.8508628,,,,,,,,,,,,8296.835159100001,8296.8508628,8296.8508628,8298.8664243,,,,8298.8666746,8298.882186,8298.882186,8298.882186,8299.1819448,8299.332746600001,,,,,down,2.0052657000014733,None,space,0.4485568999989482,None,,,,,,,,,,,,,,P130,001,2024-11-22_10h45.30.486,posner_endo_new1,2024.2.4,60.093661981565056,2024-11-22 10h45.38.085855 +0000,
-0.31,0.005,36,36,0,up,1.4438468999996985,None,space,0.4500973000012891,None,,,,,0,36,36,36,,,,,8299.348279900001,,,,,,,,,,,,8299.3329135,8299.348279900001,8299.348279900001,8300.7978456,,,,8300.798093000001,8300.8139162,8300.8139162,8300.8139162,8301.1131946,8301.2803377,,,,,up,1.4438468999996985,None,space,0.4500973000012891,None,,,,,,,,,,,,,,P130,001,2024-11-22_10h45.30.486,posner_endo_new1,2024.2.4,60.093661981565056,2024-11-22 10h45.38.085855 +0000,
10,0.005,37,37,0,down,3.224394900000334,None,None,,,,,,,0,37,37,37,,,,,8301.2963801,,,,,,,,,,,,8301.28051,8301.2963801,8301.2963801,8304.5270658,,,,8304.5273153,8304.5430968,8304.5430968,8304.5430968,8304.842700700001,8307.5401015,,,,8305.5419888,down,3.224394900000334,None,None,,,,,,,,,,,,,,,,P130,001,2024-11-22_10h45.30.486,posner_endo_new1,2024.2.4,60.093661981565056,2024-11-22 10h45.38.085855 +0000,
0.005,0.31,38,38,0,up,0.4920046999995975,None,space,0.4250214000003325,None,,,,,0,38,38,38,,,,,8307.5565774,,,,,,,,,,,,8307.5402654,8307.5565774,8307.5565774,8308.0567506,,,,8308.0570047,8308.0726973,8308.0726973,8308.0726973,8308.372564700001,8308.5063806,,,,,up,0.4920046999995975,None,space,0.4250214000003325,None,,,,,,,,,,,,,,P130,001,2024-11-22_10h45.30.486,posner_endo_new1,2024.2.4,60.093661981565056,2024-11-22 10h45.38.085855 +0000,
0.005,-0.31,39,39,0,down,2.0787141999990126,None,space,0.389647199999672,None,,,,,0,39,39,39,,,,,8308.5223047,,,,,,,,,,,,8308.5065465,8308.5223047,8308.5223047,8310.6043886,,,,8310.6046377,8310.620117800001,8310.620117800001,8310.620117800001,8310.9198275,8311.0207195,,,,,down,2.0787141999990126,None,space,0.389647199999672,None,,,,,,,,,,,,,,P130,001,2024-11-22_10h45.30.486,posner_endo_new1,2024.2.4,60.093661981565056,2024-11-22 10h45.38.085855 +0000,
0.31,0.005,40,40,0,up,2.9872954999991634,None,space,0.31058409999968717,None,,,,,0,40,40,40,,,,,8311.036531,,,,,,,,,,,,8311.020887300001,8311.036531,8311.036531,8314.034380500001,,,,8314.0346271,8314.0501865,8314.0501865,8314.0501865,8314.3494856,8314.3671937,,,,,up,2.9872954999991634,None,space,0.31058409999968717,None,,,,,,,,,,,,,,P130,001,2024-11-22_10h45.30.486,posner_endo_new1,2024.2.4,60.093661981565056,2024-11-22 10h45.38.085855 +0000,
-0.31,0.005,41,41,0,down,2.08157140000003,None,space,0.5509851000006165,None,,,,,0,41,41,41,,,,,8314.3830084,,,,,,,,,,,,8314.3673588,8314.3830084,8314.3830084,8316.4814687,,,,8316.481721400001,8316.4974543,8316.4974543,8316.4974543,8316.7971731,8317.0644692,,,,,down,2.08157140000003,None,space,0.5509851000006165,None,,,,,,,,,,,,,,P130,001,2024-11-22_10h45.30.486,posner_endo_new1,2024.2.4,60.093661981565056,2024-11-22 10h45.38.085855 +0000,
0.31,0.005,42,42,0,up,3.3360396999996738,None,space,0.2981197000008251,None,,,,,0,42,42,42,,,,,8317.0802648,,,,,,,,,,,,8317.0646343,8317.0802648,8317.0802648,8320.4274065,,,,8320.4276585,8320.443482800001,8320.443482800001,8320.443482800001,8320.7430987,8320.7440294,,,,,up,3.3360396999996738,None,space,0.2981197000008251,None,,,,,,,,,,,,,,P130,001,2024-11-22_10h45.30.486,posner_endo_new1,2024.2.4,60.093661981565056,2024-11-22 10h45.38.085855 +0000,
10,0.005,43,43,0,down,2.5361522999992303,None,None,,,,,,,0,43,43,43,,,,,8320.7597903,,,,,,,,,,,,8320.7441932,8320.7597903,8320.7597903,8323.3079906,,,,8323.3082421,8323.323809900001,8323.323809900001,8323.323809900001,8323.6234203,8326.3209501,,,,8324.3228639,down,2.5361522999992303,None,None,,,,,,,,,,,,,,,,P130,001,2024-11-22_10h45.30.486,posner_endo_new1,2024.2.4,60.093661981565056,2024-11-22 10h45.38.085855 +0000,
-0.31,0.005,44,44,0,up,4.0866231999989395,None,space,0.3983843000005436,None,,,,,0,44,44,44,,,,,8326.3374832,,,,,,,,,,,,8326.321122000001,8326.3374832,8326.3374832,8330.4340403,,,,8330.4342983,8330.449905000001,8330.449905000001,8330.449905000001,8330.7495215,8330.8504252,,,,,up,4.0866231999989395,None,space,0.3983843000005436,None,,,,,,,,,,,,,,P130,001,2024-11-22_10h45.30.486,posner_endo_new1,2024.2.4,60.093661981565056,2024-11-22 10h45.38.085855 +0000,
0.005,0.31,45,45,0,down,2.094471700000213,None,space,0.3487647999991168,None,,,,,0,45,45,45,,,,,8330.8661438,,,,,,,,,,,,8330.8505884,8330.8661438,8330.8661438,8332.964849200001,,,,8332.9650986,8332.980679,8332.980679,8332.980679,8333.2804134,8333.331210100001,,,,,down,2.094471700000213,None,space,0.3487647999991168,None,,,,,,,,,,,,,,P130,001,2024-11-22_10h45.30.486,posner_endo_new1,2024.2.4,60.093661981565056,2024-11-22 10h45.38.085855 +0000,
0.005,-0.31,46,46,0,up,3.813685000000987,None,space,0.28762819999974454,None,,,,,0,46,46,46,,,,,8333.346885300001,,,,,,,,,,,,8333.3313865,8333.346885300001,8333.346885300001,8337.1773151,,,,8337.177563500001,8337.1929065,8337.1929065,8337.1929065,8337.4927529,8337.493599000001,,,,,up,3.813685000000987,None,space,0.28762819999974454,None,,,,,,,,,,,,,,P130,001,2024-11-22_10h45.30.486,posner_endo_new1,2024.2.4,60.093661981565056,2024-11-22 10h45.38.085855 +0000,
-0.31,0.005,47,47,0,down,2.73123090000081,None,space,0.3388790999997582,None,,,,,0,47,47,47,,,,,8337.509236900001,,,,,,,,,,,,8337.4937708,8337.509236900001,8337.509236900001,8340.257268700001,,,,8340.257515500001,8340.273272,8340.273272,8340.273272,8340.5728344,8340.6236067,,,,,down,2.73123090000081,None,space,0.3388790999997582,None,,,,,,,,,,,,,,P130,001,2024-11-22_10h45.30.486,posner_endo_new1,2024.2.4,60.093661981565056,2024-11-22 10h45.38.085855 +0000,
0.005,-0.31,48,48,0,up,3.9452651999999944,None,space,0.36189659999945434,None,,,,,0,48,48,48,,,,,8340.6394519,,,,,,,,,,,,8340.6237696,8340.6394519,8340.6394519,8344.586399,,,,8344.5866604,8344.6021337,8344.6021337,8344.6021337,8344.9018966,8344.9691805,,,,,up,3.9452651999999944,None,space,0.36189659999945434,None,,,,,,,,,,,,,,P130,001,2024-11-22_10h45.30.486,posner_endo_new1,2024.2.4,60.093661981565056,2024-11-22 10h45.38.085855 +0000,
0.005,-0.31,49,49,0,down,1.4227699999992183,None,space,0.34171669999886944,None,,,,,0,49,49,49,,,,,8344.9851927,,,,,,,,,,,,8344.9693456,8344.9851927,8344.9851927,8346.4177514,,,,8346.417999700001,8346.433593400001,8346.433593400001,8346.433593400001,8346.733328600001,8346.783994000001,,,,,down,1.4227699999992183,None,space,0.34171669999886944,None,,,,,,,,,,,,,,P130,001,2024-11-22_10h45.30.486,posner_endo_new1,2024.2.4,60.093661981565056,2024-11-22 10h45.38.085855 +0000,
0.005,0.31,50,50,0,up,2.216601600001013,None,space,0.32555990000037127,None,,,,,0,50,50,50,,,,,8346.799857900001,,,,,,,,,,,,8346.784158,8346.799857900001,8346.799857900001,8349.031612,,,,8349.0318645,8349.047583900001,8349.047583900001,8349.047583900001,8349.3472724,8349.3814282,,,,,up,2.216601600001013,None,space,0.32555990000037127,None,,,,,,,,,,,,,,P130,001,2024-11-22_10h45.30.486,posner_endo_new1,2024.2.4,60.093661981565056,2024-11-22 10h45.38.085855 +0000,
0.31,0.005,51,51,0,down,2.3389778999990085,None,space,0.37086249999993015,None,,,,,0,51,51,51,,,,,8349.3972974,,,,,,,,,,,,8349.3815949,8349.3972974,8349.3972974,8351.7454842,,,,8351.7457417,8351.761554800001,8351.761554800001,8351.761554800001,8352.061155500001,8352.1453184,,,,,down,2.3389778999990085,None,space,0.37086249999993015,None,,,,,,,,,,,,,,P130,001,2024-11-22_10h45.30.486,posner_endo_new1,2024.2.4,60.093661981565056,2024-11-22 10h45.38.085855 +0000,
0.31,0.005,52,52,0,up,3.671012499999051,None,space,0.3651149000015721,None,,,,,0,52,52,52,,,,,8352.1612956,,,,,,,,,,,,8352.145484,8352.1612956,8352.1612956,8355.841427000001,,,,8355.841679000001,8355.8571837,8355.8571837,8355.8571837,8356.1568719,8356.2244364,,,,,up,3.671012499999051,None,space,0.3651149000015721,None,,,,,,,,,,,,,,P130,001,2024-11-22_10h45.30.486,posner_endo_new1,2024.2.4,60.093661981565056,2024-11-22 10h45.38.085855 +0000,
0.005,0.31,53,53,0,down,2.7204920000003767,None,space,0.3033728999998857,None,,,,,0,53,53,53,,,,,8356.240253400001,,,,,,,,,,,,8356.2246053,8356.240253400001,8356.240253400001,8358.9716439,,,,8358.971903700001,8358.9874636,8358.9874636,8358.9874636,8359.2870231,8359.304618600001,,,,,down,2.7204920000003767,None,space,0.3033728999998857,None,,,,,,,,,,,,,,P130,001,2024-11-22_10h45.30.486,posner_endo_new1,2024.2.4,60.093661981565056,2024-11-22 10h45.38.085855 +0000,
-0.31,0.005,54,54,0,up,2.936404300000504,None,space,0.33956839999882504,None,,,,,0,54,54,54,,,,,8359.3200473,,,,,,,,,,,,8359.3047826,8359.3200473,8359.3200473,8362.2682495,,,,8362.268504200001,8362.2839433,8362.2839433,8362.2839433,8362.5837223,8362.6345855,,,,,up,2.936404300000504,None,space,0.33956839999882504,None,,,,,,,,,,,,,,P130,001,2024-11-22_10h45.30.486,posner_endo_new1,2024.2.4,60.093661981565056,2024-11-22 10h45.38.085855 +0000,
10,0.005,55,55,0,down,1.9980971000004502,None,None,,,,,,,0,55,55,55,,,,,8362.6504255,,,,,,,,,,,,8362.634764800001,8362.6504255,8362.6504255,8364.649287,,,,8364.649538700001,8364.6648378,8364.6648378,8364.6648378,8364.9645253,8367.6621233,,,,8365.663803500001,down,1.9980971000004502,None,None,,,,,,,,,,,,,,,,P130,001,2024-11-22_10h45.30.486,posner_endo_new1,2024.2.4,60.093661981565056,2024-11-22 10h45.38.085855 +0000,
0.31,0.005,56,56,0,up,1.866238800001156,None,space,0.34135519999836106,None,,,,,0,56,56,56,,,,,8367.6784736,,,,,,,,,,,,8367.6622848,8367.6784736,8367.6784736,8369.5608407,,,,8369.561089800001,8369.5766115,8369.5766115,8369.5766115,8369.876248300001,8369.9271011,,,,,up,1.866238800001156,None,space,0.34135519999836106,None,,,,,,,,,,,,,,P130,001,2024-11-22_10h45.30.486,posner_endo_new1,2024.2.4,60.093661981565056,2024-11-22 10h45.38.085855 +0000,
0.005,0.31,57,57,0,down,2.473303799999485,None,space,0.36905230000047595,None,,,,,0,57,57,57,,,,,8369.9426867,,,,,,,,,,,,8369.927267300001,8369.9426867,8369.9426867,8372.4246093,,,,8372.424862,8372.4401932,8372.4401932,8372.4401932,8372.7399164,8372.8241285,,,,,down,2.473303799999485,None,space,0.36905230000047595,None,,,,,,,,,,,,,,P130,001,2024-11-22_10h45.30.486,posner_endo_new1,2024.2.4,60.093661981565056,2024-11-22 10h45.38.085855 +0000,
-0.31,0.005,58,58,0,up,2.664329400000497,None,space,0.3727603999996063,None,,,,,0,58,58,58,,,,,8372.8401323,,,,,,,,,,,,8372.824294900001,8372.8401323,8372.8401323,8375.5213163,,,,8375.521591100001,8375.537207000001,8375.537207000001,8375.537207000001,8375.836828900001,8375.9209438,,,,,up,2.664329400000497,None,space,0.3727603999996063,None,,,,,,,,,,,,,,P130,001,2024-11-22_10h45.30.486,posner_endo_new1,2024.2.4,60.093661981565056,2024-11-22 10h45.38.085855 +0000,
-0.31,0.005,59,59,0,down,2.8476148000008834,None,space,0.3995197999993252,None,,,,,0,59,59,59,,,,,8375.936793,,,,,,,,,,,,8375.9211163,8375.936793,8375.936793,8378.8012101,,,,8378.8014599,8378.8176564,8378.8176564,8378.8176564,8379.116811200001,8379.2340625,,,,,down,2.8476148000008834,None,space,0.3995197999993252,None,,,,,,,,,,,,,,P130,001,2024-11-22_10h45.30.486,posner_endo_new1,2024.2.4,60.093661981565056,2024-11-22 10h45.38.085855 +0000,
,,,,,,,,,,,,,,,,,,,,,,,,,,,,,,,,,,,,,,,,,,,,,,,,,,,,,,,,,,8379.2341715,8379.2500552,8379.2500552,8427.901115300001,space,48.638205900000685,None,,,,,,,P130,001,2024-11-22_10h45.30.486,posner_endo_new1,2024.2.4,60.093661981565056,2024-11-22 10h45.38.085855 +0000,
,,,,,,,,,,,,,,,,,,,,,,,,,,,,,,,,8427.9011718,8427.9168179,8430.914101600001,,,,,,,,,,,,,,,,,,,,,,,,,,,,,,,,,,,,,P130,001,2024-11-22_10h45.30.486,posner_endo_new1,2024.2.4,60.093661981565056,2024-11-22 10h45.38.085855 +0000,
0.005,0.31,0,0,0,up,15.387337500000285,None,space,0.40354149999984656,None,,,,,,,,,0,0,0,0,8430.9329579,,,,,,,,,,,,8430.9224888,8430.9329579,8430.9329579,8446.3322093,,,,8446.3324826,8446.3481042,8446.3481042,8446.3481042,8446.6479683,8446.7651695,,,,,,,,,,,,,,,,,,up,15.387337500000285,None,space,0.40354149999984656,None,P130,001,2024-11-22_10h45.30.486,posner_endo_new1,2024.2.4,60.093661981565056,2024-11-22 10h45.38.085855 +0000,
-0.31,0.005,1,1,0,down,3.555426900000384,None,space,0.33852289999958884,None,,,,,,,,,0,1,1,1,8446.780897600001,,,,,,,,,,,,8446.7653381,8446.780897600001,8446.780897600001,8450.344804800001,,,,8450.3450568,8450.3607481,8450.3607481,8450.3607481,8450.6603564,8450.7112548,,,,,,,,,,,,,,,,,,down,3.555426900000384,None,space,0.33852289999958884,None,P130,001,2024-11-22_10h45.30.486,posner_endo_new1,2024.2.4,60.093661981565056,2024-11-22 10h45.38.085855 +0000,
0.005,-0.31,2,2,0,up,1.4828723999999056,None,space,0.46202529999936814,None,,,,,,,,,0,2,2,2,8450.7269667,,,,,,,,,,,,8450.7114265,8450.7269667,8450.7269667,8452.226210300001,,,,8452.2264588,8452.2421513,8452.2421513,8452.2421513,8452.541834200001,8452.709274800001,,,,,,,,,,,,,,,,,,up,1.4828723999999056,None,space,0.46202529999936814,None,P130,001,2024-11-22_10h45.30.486,posner_endo_new1,2024.2.4,60.093661981565056,2024-11-22 10h45.38.085855 +0000,
0.31,0.005,3,3,0,down,3.6516625999993266,None,space,0.31223339999996824,None,,,,,,,,,0,3,3,3,8452.7250721,,,,,,,,,,,,8452.709444400001,8452.7250721,8452.7250721,8456.3885274,,,,8456.388788,8456.404593500001,8456.404593500001,8456.404593500001,8456.7042241,8456.721656700001,,,,,,,,,,,,,,,,,,down,3.6516625999993266,None,space,0.31223339999996824,None,P130,001,2024-11-22_10h45.30.486,posner_endo_new1,2024.2.4,60.093661981565056,2024-11-22 10h45.38.085855 +0000,
0.005,0.31,4,4,0,up,2.2565367000006518,None,space,0.39824360000056913,None,,,,,,,,,0,4,4,4,8456.737427600001,,,,,,,,,,,,8456.721830600001,8456.737427600001,8456.737427600001,8459.0026429,,,,8459.0028915,8459.018559400001,8459.018559400001,8459.018559400001,8459.3186644,8459.419024300001,,,,,,,,,,,,,,,,,,up,2.2565367000006518,None,space,0.39824360000056913,None,P130,001,2024-11-22_10h45.30.486,posner_endo_new1,2024.2.4,60.093661981565056,2024-11-22 10h45.38.085855 +0000,
0.005,-0.31,5,5,0,down,2.8374447000005603,None,space,0.33959930000128224,None,,,,,,,,,0,5,5,5,8459.434817000001,,,,,,,,,,,,8459.4191931,8459.434817000001,8459.434817000001,8462.2826176,,,,8462.2828661,8462.298538300001,8462.298538300001,8462.298538300001,8462.598139200001,8462.6490568,,,,,,,,,,,,,,,,,,down,2.8374447000005603,None,space,0.33959930000128224,None,P130,001,2024-11-22_10h45.30.486,posner_endo_new1,2024.2.4,60.093661981565056,2024-11-22 10h45.38.085855 +0000,
-0.31,0.005,6,6,0,up,1.687474199999997,None,space,0.3946336999997584,None,,,,,,,,,0,6,6,6,8462.6648335,,,,,,,,,,,,8462.6492328,8462.6648335,8462.6648335,8464.3638737,,,,8464.364123700001,8464.3795837,8464.3795837,8464.3795837,8464.679536900001,8464.780102,,,,,,,,,,,,,,,,,,up,1.687474199999997,None,space,0.3946336999997584,None,P130,001,2024-11-22_10h45.30.486,posner_endo_new1,2024.2.4,60.093661981565056,2024-11-22 10h45.38.085855 +0000,
0.005,0.31,7,7,0,down,3.644724400000996,None,space,0.40421620000051917,None,,,,,,,,,0,7,7,7,8464.7958554,,,,,,,,,,,,8464.7802751,8464.7958554,8464.7958554,8468.4431803,,,,8468.4434392,8468.4588198,8468.4588198,8468.4588198,8468.758478700001,8468.876030500001,,,,,,,,,,,,,,,,,,down,3.644724400000996,None,space,0.40421620000051917,None,P130,001,2024-11-22_10h45.30.486,posner_endo_new1,2024.2.4,60.093661981565056,2024-11-22 10h45.38.085855 +0000,
0.31,0.005,8,8,0,up,1.1725946999995358,None,space,0.49431449999974575,None,,,,,,,,,0,8,8,8,8468.8917641,,,,,,,,,,,,8468.8762016,8468.8917641,8468.8917641,8470.074507700001,,,,8470.0747555,8470.0905795,8470.0905795,8470.0905795,8470.3903706,8470.590904100001,,,,,,,,,,,,,,,,,,up,1.1725946999995358,None,space,0.49431449999974575,None,P130,001,2024-11-22_10h45.30.486,posner_endo_new1,2024.2.4,60.093661981565056,2024-11-22 10h45.38.085855 +0000,
10,0.005,9,9,0,down,3.6178674999991927,None,None,,,,,,,,,,,0,9,9,9,8470.606714000001,,,,,,,,,,,,8470.5910755,8470.606714000001,8470.606714000001,8474.2370661,,,,8474.2373176,8474.2530103,8474.2530103,8474.2530103,8474.5528097,8477.249871400001,,,,8475.268705800001,,,,,,,,,,,,,,down,3.6178674999991927,None,None,,,P130,001,2024-11-22_10h45.30.486,posner_endo_new1,2024.2.4,60.093661981565056,2024-11-22 10h45.38.085855 +0000,
0.31,0.005,10,10,0,up,0.2537548999989667,None,space,0.6197518000008131,None,,,,,,,,,0,10,10,10,8477.26663,,,,,,,,,,,,8477.2500369,8477.26663,8477.26663,8477.5334951,,,,8477.5337469,8477.5495646,8477.5495646,8477.5495646,8477.849353200001,8478.1832655,,,,,,,,,,,,,,,,,,up,0.2537548999989667,None,space,0.6197518000008131,None,P130,001,2024-11-22_10h45.30.486,posner_endo_new1,2024.2.4,60.093661981565056,2024-11-22 10h45.38.085855 +0000,
0.005,0.31,11,11,0,down,2.7532633999999234,None,space,0.3636914999988221,None,,,,,,,,,0,11,11,11,8478.1990377,,,,,,,,,,,,8478.183434100001,8478.1990377,8478.1990377,8480.9634712,,,,8480.963721600001,8480.979427100001,8480.979427100001,8480.979427100001,8481.2792568,8481.346716900001,,,,,,,,,,,,,,,,,,down,2.7532633999999234,None,space,0.3636914999988221,None,P130,001,2024-11-22_10h45.30.486,posner_endo_new1,2024.2.4,60.093661981565056,2024-11-22 10h45.38.085855 +0000,
10,0.005,12,12,0,up,2.070132500000909,None,None,,,,,,,,,,,0,12,12,12,8481.3623129,,,,,,,,,,,,8481.346885500001,8481.3623129,8481.3623129,8483.4444019,,,,8483.4446639,8483.4602858,8483.4602858,8483.4602858,8483.7599207,8486.4572025,,,,8484.4756911,,,,,,,,,,,,,,up,2.070132500000909,None,None,,,P130,001,2024-11-22_10h45.30.486,posner_endo_new1,2024.2.4,60.093661981565056,2024-11-22 10h45.38.085855 +0000,
-0.31,0.005,13,13,0,down,6.99195680000048,None,space,0.3455421999988175,None,,,,,,,,,0,13,13,13,8486.4738729,,,,,,,,,,,,8486.4573808,8486.4738729,8486.4738729,8493.4675377,,,,8493.467795800001,8493.483273,8493.483273,8493.483273,8493.7830617,8493.8337307,,,,,,,,,,,,,,,,,,down,6.99195680000048,None,space,0.3455421999988175,None,P130,001,2024-11-22_10h45.30.486,posner_endo_new1,2024.2.4,60.093661981565056,2024-11-22 10h45.38.085855 +0000,
0.31,0.005,14,14,0,up,3.870510300001115,None,space,0.40695419999974547,None,,,,,,,,,0,14,14,14,8493.849730400001,,,,,,,,,,,,8493.8339015,8493.849730400001,8493.849730400001,8497.7296953,,,,8497.7299456,8497.745856200001,8497.745856200001,8497.745856200001,8498.0452812,8498.1627344,,,,,,,,,,,,,,,,,,up,3.870510300001115,None,space,0.40695419999974547,None,P130,001,2024-11-22_10h45.30.486,posner_endo_new1,2024.2.4,60.093661981565056,2024-11-22 10h45.38.085855 +0000,
0.005,-0.31,15,15,0,down,3.846537100000205,None,space,0.3953392999992502,None,,,,,,,,,0,15,15,15,8498.1785989,,,,,,,,,,,,8498.1629113,8498.1785989,8498.1785989,8502.0420336,,,,8502.042288100001,8502.0578355,8502.0578355,8502.0578355,8502.3575865,8502.4585928,,,,,,,,,,,,,,,,,,down,3.846537100000205,None,space,0.3953392999992502,None,P130,001,2024-11-22_10h45.30.486,posner_endo_new1,2024.2.4,60.093661981565056,2024-11-22 10h45.38.085855 +0000,
0.31,0.005,16,16,0,up,3.046797000000879,None,space,0.33955930000047374,None,,,,,,,,,0,16,16,16,8502.4741044,,,,,,,,,,,,8502.458762,8502.4741044,8502.4741044,8505.5219796,,,,8505.522236300001,8505.537708200001,8505.537708200001,8505.537708200001,8505.8374506,8505.888182100001,,,,,,,,,,,,,,,,,,up,3.046797000000879,None,space,0.33955930000047374,None,P130,001,2024-11-22_10h45.30.486,posner_endo_new1,2024.2.4,60.093661981565056,2024-11-22 10h45.38.085855 +0000,
0.31,0.005,17,17,0,down,2.9046964999997726,None,space,0.3358544000002439,None,,,,,,,,,0,17,17,17,8505.903989,,,,,,,,,,,,8505.8883502,8505.903989,8505.903989,8508.8188403,,,,8508.8190981,8508.834478800001,8508.834478800001,8508.834478800001,8509.134119800001,8509.184573300001,,,,,,,,,,,,,,,,,,down,2.9046964999997726,None,space,0.3358544000002439,None,P130,001,2024-11-22_10h45.30.486,posner_endo_new1,2024.2.4,60.093661981565056,2024-11-22 10h45.38.085855 +0000,
0.005,-0.31,18,18,0,up,2.688299700001153,None,space,0.3516061999998783,None,,,,,,,,,0,18,18,18,8509.2007166,,,,,,,,,,,,8509.184743400001,8509.2007166,8509.2007166,8511.898716200001,,,,8511.898965600001,8511.9145482,8511.9145482,8511.9145482,8512.2142599,8512.2815763,,,,,,,,,,,,,,,,,,up,2.688299700001153,None,space,0.3516061999998783,None,P130,001,2024-11-22_10h45.30.486,posner_endo_new1,2024.2.4,60.093661981565056,2024-11-22 10h45.38.085855 +0000,
0.005,-0.31,19,19,0,down,8.983437099999719,None,space,0.32409759999973176,None,,,,,,,,,0,19,19,19,8512.297484100001,,,,,,,,,,,,8512.281747300001,8512.297484100001,8512.297484100001,8521.2890733,,,,8521.289326400001,8521.3050133,8521.3050133,8521.3050133,8521.6045778,8521.6387913,,,,,,,,,,,,,,,,,,down,8.983437099999719,None,space,0.32409759999973176,None,P130,001,2024-11-22_10h45.30.486,posner_endo_new1,2024.2.4,60.093661981565056,2024-11-22 10h45.38.085855 +0000,
10,0.005,20,20,0,up,9.538014300000214,None,None,,,,,,,,,,,0,20,20,20,8521.654634100001,,,,,,,,,,,,8521.6389593,8521.654634100001,8521.654634100001,8531.195537200001,,,,8531.1957888,8531.2114299,8531.2114299,8531.2114299,8531.5112214,8534.2083144,,,,8532.210433400001,,,,,,,,,,,,,,up,9.538014300000214,None,None,,,P130,001,2024-11-22_10h45.30.486,posner_endo_new1,2024.2.4,60.093661981565056,2024-11-22 10h45.38.085855 +0000,
0.005,-0.31,21,21,0,down,1.295871199999965,None,space,0.43511579999903915,None,,,,,,,,,0,21,21,21,8534.2248963,,,,,,,,,,,,8534.2084802,8534.2248963,8534.2248963,8535.5245102,,,,8535.524769200001,8535.5401483,8535.5401483,8535.5401483,8535.84007,8535.9906589,,,,,,,,,,,,,,,,,,down,1.295871199999965,None,space,0.43511579999903915,None,P130,001,2024-11-22_10h45.30.486,posner_endo_new1,2024.2.4,60.093661981565056,2024-11-22 10h45.38.085855 +0000,
0.005,0.31,22,22,0,up,2.882341099999394,None,space,0.3962506999996549,None,,,,,,,,,0,22,22,22,8536.006615600001,,,,,,,,,,,,8535.9908282,8536.006615600001,8536.006615600001,8538.9043956,,,,8538.9046464,8538.9201985,8538.9201985,8538.9201985,8539.2199502,8539.320214700001,,,,,,,,,,,,,,,,,,up,2.882341099999394,None,space,0.3962506999996549,None,P130,001,2024-11-22_10h45.30.486,posner_endo_new1,2024.2.4,60.093661981565056,2024-11-22 10h45.38.085855 +0000,
0.31,0.005,23,23,0,down,3.417138900000282,None,space,0.44071379999877536,None,,,,,,,,,0,23,23,23,8539.336540600001,,,,,,,,,,,,8539.320383400001,8539.336540600001,8539.336540600001,8542.7669325,,,,8542.7672033,8542.782926200001,8542.782926200001,8542.782926200001,8543.082804700001,8543.2330108,,,,,,,,,,,,,,,,,,down,3.417138900000282,None,space,0.44071379999877536,None,P130,001,2024-11-22_10h45.30.486,posner_endo_new1,2024.2.4,60.093661981565056,2024-11-22 10h45.38.085855 +0000,
-0.31,0.005,24,24,0,up,1.863502399999561,None,space,0.38701860000037414,None,,,,,,,,,0,24,24,24,8543.2495039,,,,,,,,,,,,8543.233172100001,8543.2495039,8543.2495039,8545.1148039,,,,8545.1150535,8545.1304884,8545.1304884,8545.1304884,8545.4301698,8545.531050900001,,,,,,,,,,,,,,,,,,up,1.863502399999561,None,space,0.38701860000037414,None,P130,001,2024-11-22_10h45.30.486,posner_endo_new1,2024.2.4,60.093661981565056,2024-11-22 10h45.38.085855 +0000,
10,0.005,25,25,0,down,3.669873599999846,None,None,,,,,,,,,,,0,25,25,25,8545.5468767,,,,,,,,,,,,8545.5312195,8545.5468767,8545.5468767,8549.226969000001,,,,8549.2272175,8549.243057900001,8549.243057900001,8549.243057900001,8549.542749,8552.239987800001,,,,8550.2586388,,,,,,,,,,,,,,down,3.669873599999846,None,None,,,P130,001,2024-11-22_10h45.30.486,posner_endo_new1,2024.2.4,60.093661981565056,2024-11-22 10h45.38.085855 +0000,
0.005,0.31,26,26,0,up,7.631880100001581,None,space,0.33261400000083086,None,,,,,,,,,0,26,26,26,8552.2565541,,,,,,,,,,,,8552.2401515,8552.2565541,8552.2565541,8559.8994753,,,,8559.899730300001,8559.9155199,8559.9155199,8559.9155199,8560.215155,8560.249372600001,,,,,,,,,,,,,,,,,,up,7.631880100001581,None,space,0.33261400000083086,None,P130,001,2024-11-22_10h45.30.486,posner_endo_new1,2024.2.4,60.093661981565056,2024-11-22 10h45.38.085855 +0000,
0.31,0.005,27,27,0,down,4.072051199998896,None,space,0.3895931000006385,None,,,,,,,,,0,27,27,27,8560.2651296,,,,,,,,,,,,8560.249542000001,8560.2651296,8560.2651296,8564.3450087,,,,8564.3452672,8564.360867700001,8564.360867700001,8564.360867700001,8564.660644200001,8564.7612269,,,,,,,,,,,,,,,,,,down,4.072051199998896,None,space,0.3895931000006385,None,P130,001,2024-11-22_10h45.30.486,posner_endo_new1,2024.2.4,60.093661981565056,2024-11-22 10h45.38.085855 +0000,
0.005,0.31,28,28,0,up,3.5597052999983134,None,space,0.36548969999967085,None,,,,,,,,,0,28,28,28,8564.7769733,,,,,,,,,,,,8564.761406000001,8564.7769733,8564.7769733,8568.340900000001,,,,8568.3411472,8568.356812400001,8568.356812400001,8568.356812400001,8568.6564823,8568.7241975,,,,,,,,,,,,,,,,,,up,3.5597052999983134,None,space,0.36548969999967085,None,P130,001,2024-11-22_10h45.30.486,posner_endo_new1,2024.2.4,60.093661981565056,2024-11-22 10h45.38.085855 +0000,
10,0.005,29,29,0,down,3.901014600000053,None,None,,,,,,,,,,,0,29,29,29,8568.7396088,,,,,,,,,,,,8568.7243744,8568.7396088,8568.7396088,8572.6531923,,,,8572.6534407,8572.669018300001,8572.669018300001,8572.669018300001,8572.968704300001,8575.666099,,,,8573.6679915,,,,,,,,,,,,,,down,3.901014600000053,None,None,,,P130,001,2024-11-22_10h45.30.486,posner_endo_new1,2024.2.4,60.093661981565056,2024-11-22 10h45.38.085855 +0000,
0.005,-0.31,30,30,0,up,0.8382437000000209,None,space,0.32322609999937413,None,,,,,,,,,0,30,30,30,8575.682700500001,,,,,,,,,,,,8575.6662646,8575.682700500001,8575.682700500001,8576.5326207,,,,8576.5328721,8576.548556900001,8576.548556900001,8576.548556900001,8576.8481825,8576.8822404,,,,,,,,,,,,,,,,,,up,0.8382437000000209,None,space,0.32322609999937413,None,P130,001,2024-11-22_10h45.30.486,posner_endo_new1,2024.2.4,60.093661981565056,2024-11-22 10h45.38.085855 +0000,
0.31,0.005,31,31,0,down,2.631821900000432,None,space,0.3428751999999804,None,,,,,,,,,0,31,31,31,8576.8980254,,,,,,,,,,,,8576.8824074,8576.8980254,8576.8980254,8579.5460722,,,,8579.5463261,8579.562074700001,8579.562074700001,8579.562074700001,8579.8616774,8579.9125691,,,,,,,,,,,,,,,,,,down,2.631821900000432,None,space,0.3428751999999804,None,P130,001,2024-11-22_10h45.30.486,posner_endo_new1,2024.2.4,60.093661981565056,2024-11-22 10h45.38.085855 +0000,
10,0.005,32,32,0,up,3.1600740000012593,None,None,,,,,,,,,,,0,32,32,32,8579.928244,,,,,,,,,,,,8579.912736600001,8579.928244,8579.928244,8583.0925133,,,,8583.0927629,8583.1083878,8583.1083878,8583.1083878,8583.4081444,8586.1055588,,,,8584.107293300001,,,,,,,,,,,,,,up,3.1600740000012593,None,None,,,P130,001,2024-11-22_10h45.30.486,posner_endo_new1,2024.2.4,60.093661981565056,2024-11-22 10h45.38.085855 +0000,
-0.31,0.005,33,33,0,down,1.8957688999998936,None,space,0.3370101999989856,None,,,,,,,,,0,33,33,33,8586.122078,,,,,,,,,,,,8586.105723,8586.122078,8586.122078,8588.0209025,,,,8588.021151800001,8588.0367489,8588.0367489,8588.0367489,8588.3364095,8588.3870546,,,,,,,,,,,,,,,,,,down,1.8957688999998936,None,space,0.3370101999989856,None,P130,001,2024-11-22_10h45.30.486,posner_endo_new1,2024.2.4,60.093661981565056,2024-11-22 10h45.38.085855 +0000,
10,0.005,34,34,0,up,2.5582986999997956,None,None,,,,,,,,,,,0,34,34,34,8588.403058900001,,,,,,,,,,,,8588.3872242,8588.403058900001,8588.403058900001,8590.967840500001,,,,8590.968089400001,8590.9835469,8590.9835469,8590.9835469,8591.2833524,8593.980662,,,,8591.982517800001,,,,,,,,,,,,,,up,2.5582986999997956,None,None,,,P130,001,2024-11-22_10h45.30.486,posner_endo_new1,2024.2.4,60.093661981565056,2024-11-22 10h45.38.085855 +0000,
0.005,-0.31,35,35,0,down,7.059850699999515,None,space,0.3503354999993462,None,,,,,,,,,0,35,35,35,8593.9972976,,,,,,,,,,,,8593.9808267,8593.9972976,8593.9972976,8601.0740781,,,,8601.0743292,8601.0898971,8601.0898971,8601.0898971,8601.3896292,8601.4571144,,,,,,,,,,,,,,,,,,down,7.059850699999515,None,space,0.3503354999993462,None,P130,001,2024-11-22_10h45.30.486,posner_endo_new1,2024.2.4,60.093661981565056,2024-11-22 10h45.38.085855 +0000,
0.31,0.005,36,36,0,up,4.135536400001001,None,space,0.32364310000048135,None,,,,,,,,,0,36,36,36,8601.4728895,,,,,,,,,,,,8601.457283900001,8601.4728895,8601.4728895,8605.619494600001,,,,8605.619751400001,8605.6353452,8605.6353452,8605.6353452,8605.934979200001,8605.9689579,,,,,,,,,,,,,,,,,,up,4.135536400001001,None,space,0.32364310000048135,None,P130,001,2024-11-22_10h45.30.486,posner_endo_new1,2024.2.4,60.093661981565056,2024-11-22 10h45.38.085855 +0000,
10,0.005,37,37,0,down,3.0234098999990238,None,None,,,,,,,,,,,0,37,37,37,8605.9849933,,,,,,,,,,,,8605.9691347,8605.9849933,8605.9849933,8609.016127,,,,8609.0163974,8609.03196,8609.03196,8609.03196,8609.3315963,8612.0290343,,,,8610.0474317,,,,,,,,,,,,,,down,3.0234098999990238,None,None,,,P130,001,2024-11-22_10h45.30.486,posner_endo_new1,2024.2.4,60.093661981565056,2024-11-22 10h45.38.085855 +0000,
10,0.005,38,38,0,up,0.723661500000162,None,None,,,,,,,,,,,0,38,38,38,8612.045415100001,,,,,,,,,,,,8612.0291968,8612.045415100001,8612.045415100001,8612.7787957,,,,8612.779051000001,8612.7947155,8612.7947155,8612.7947155,8613.094447500001,8615.7919566,,,,8613.810220500001,,,,,,,,,,,,,,up,0.723661500000162,None,None,,,P130,001,2024-11-22_10h45.30.486,posner_endo_new1,2024.2.4,60.093661981565056,2024-11-22 10h45.38.085855 +0000,
-0.31,0.005,39,39,0,down,1.7843838000007963,None,space,0.31052599999929953,None,,,,,,,,,0,39,39,39,8615.8083686,,,,,,,,,,,,8615.792127800001,8615.8083686,8615.8083686,8617.6073841,,,,8617.6076331,8617.6231207,8617.6231207,8617.6231207,8617.9227527,8617.940388300001,,,,,,,,,,,,,,,,,,down,1.7843838000007963,None,space,0.31052599999929953,None,P130,001,2024-11-22_10h45.30.486,posner_endo_new1,2024.2.4,60.093661981565056,2024-11-22 10h45.38.085855 +0000,
0.005,-0.31,40,40,0,up,2.9648251999988133,None,space,0.4307167999995727,None,,,,,,,,,0,40,40,40,8617.9560626,,,,,,,,,,,,8617.9405575,8617.9560626,8617.9560626,8620.9372057,,,,8620.9374547,8620.9531716,8620.9531716,8620.9531716,8621.252815400001,8621.3867074,,,,,,,,,,,,,,,,,,up,2.9648251999988133,None,space,0.4307167999995727,None,P130,001,2024-11-22_10h45.30.486,posner_endo_new1,2024.2.4,60.093661981565056,2024-11-22 10h45.38.085855 +0000,
0.005,-0.31,41,41,0,down,3.390100700000403,None,space,0.4131841999987955,None,,,,,,,,,0,41,41,41,8621.402563000001,,,,,,,,,,,,8621.386886,8621.402563000001,8621.402563000001,8624.7998885,,,,8624.8001377,8624.816101,8624.816101,8624.816101,8625.1155519,8625.2330267,,,,,,,,,,,,,,,,,,down,3.390100700000403,None,space,0.4131841999987955,None,P130,001,2024-11-22_10h45.30.486,posner_endo_new1,2024.2.4,60.093661981565056,2024-11-22 10h45.38.085855 +0000,
10,0.005,42,42,0,up,2.1201755000001867,None,None,,,,,,,,,,,0,42,42,42,8625.248674800001,,,,,,,,,,,,8625.233202700001,8625.248674800001,8625.248674800001,8627.3806709,,,,8627.3809192,8627.3963476,8627.3963476,8627.3963476,8627.6961315,8630.393557200001,,,,8628.4122527,,,,,,,,,,,,,,up,2.1201755000001867,None,None,,,P130,001,2024-11-22_10h45.30.486,posner_endo_new1,2024.2.4,60.093661981565056,2024-11-22 10h45.38.085855 +0000,
0.005,-0.31,43,43,0,down,1.3108944999985397,None,space,0.40586140000050364,None,,,,,,,,,0,43,43,43,8630.409994200001,,,,,,,,,,,,8630.3937287,8630.409994200001,8630.409994200001,8631.726280300001,,,,8631.7265295,8631.742060100001,8631.742060100001,8631.742060100001,8632.0415981,8632.1591126,,,,,,,,,,,,,,,,,,down,1.3108944999985397,None,space,0.40586140000050364,None,P130,001,2024-11-22_10h45.30.486,posner_endo_new1,2024.2.4,60.093661981565056,2024-11-22 10h45.38.085855 +0000,
-0.31,0.005,44,44,0,up,2.290193900000304,None,space,0.5332553000007465,None,,,,,,,,,0,44,44,44,8632.174952500001,,,,,,,,,,,,8632.1592875,8632.174952500001,8632.174952500001,8634.4734389,,,,8634.473687400001,8634.4892652,8634.4892652,8634.4892652,8634.789086,8635.0394226,,,,,,,,,,,,,,,,,,up,2.290193900000304,None,space,0.5332553000007465,None,P130,001,2024-11-22_10h45.30.486,posner_endo_new1,2024.2.4,60.093661981565056,2024-11-22 10h45.38.085855 +0000,
10,0.005,45,45,0,down,2.5376748999988195,None,None,,,,,,,,,,,0,45,45,45,8635.0553036,,,,,,,,,,,,8635.0395915,8635.0553036,8635.0553036,8637.603591300001,,,,8637.6038463,8637.6193492,8637.6193492,8637.6193492,8637.918954100001,8640.6164888,,,,8638.6183738,,,,,,,,,,,,,,down,2.5376748999988195,None,None,,,P130,001,2024-11-22_10h45.30.486,posner_endo_new1,2024.2.4,60.093661981565056,2024-11-22 10h45.38.085855 +0000,
0.005,0.31,46,46,0,up,0.6328725000003033,None,space,0.3881825000007666,None,,,,,,,,,0,46,46,46,8640.6328455,,,,,,,,,,,,8640.6166553,8640.6328455,8640.6328455,8641.266517600001,,,,8641.266787,8641.2821387,8641.2821387,8641.2821387,8641.582022600001,8641.6826254,,,,,,,,,,,,,,,,,,up,0.6328725000003033,None,space,0.3881825000007666,None,P130,001,2024-11-22_10h45.30.486,posner_endo_new1,2024.2.4,60.093661981565056,2024-11-22 10h45.38.085855 +0000,
0.005,-0.31,47,47,0,down,2.3178223999984766,None,space,0.3645340999992186,None,,,,,,,,,0,47,47,47,8641.6985511,,,,,,,,,,,,8641.6827949,8641.6985511,8641.6985511,8644.030230800001,,,,8644.0304877,8644.0460246,8644.0460246,8644.0460246,8644.3459014,8644.4134317,,,,,,,,,,,,,,,,,,down,2.3178223999984766,None,space,0.3645340999992186,None,P130,001,2024-11-22_10h45.30.486,posner_endo_new1,2024.2.4,60.093661981565056,2024-11-22 10h45.38.085855 +0000,
0.31,0.005,48,48,0,up,3.1874870999999985,None,space,0.31501619999835384,None,,,,,,,,,0,48,48,48,8644.4290457,,,,,,,,,,,,8644.413607100001,8644.4290457,8644.4290457,8647.626681,,,,8647.626931300001,8647.6425607,8647.6425607,8647.6425607,8647.9421086,8647.9597374,,,,,,,,,,,,,,,,,,up,3.1874870999999985,None,space,0.31501619999835384,None,P130,001,2024-11-22_10h45.30.486,posner_endo_new1,2024.2.4,60.093661981565056,2024-11-22 10h45.38.085855 +0000,
-0.31,0.005,49,49,0,down,2.545096600000761,None,space,0.350457100001222,None,,,,,,,,,0,49,49,49,8647.975607600001,,,,,,,,,,,,8647.9599089,8647.975607600001,8647.975607600001,8650.52354,,,,8650.5238235,8650.539681,8650.539681,8650.539681,8650.8391233,8650.9064134,,,,,,,,,,,,,,,,,,down,2.545096600000761,None,space,0.350457100001222,None,P130,001,2024-11-22_10h45.30.486,posner_endo_new1,2024.2.4,60.093661981565056,2024-11-22 10h45.38.085855 +0000,
0.005,0.31,50,50,0,up,3.966558399999485,None,space,0.38002070000038657,None,,,,,,,,,0,50,50,50,8650.9224474,,,,,,,,,,,,8650.906581700001,8650.9224474,8650.9224474,8654.9025628,,,,8654.9028086,8654.9182904,8654.9182904,8654.9182904,8655.217882300001,8655.302159800001,,,,,,,,,,,,,,,,,,up,3.966558399999485,None,space,0.38002070000038657,None,P130,001,2024-11-22_10h45.30.486,posner_endo_new1,2024.2.4,60.093661981565056,2024-11-22 10h45.38.085855 +0000,
0.005,0.31,51,51,0,down,3.4503358000001754,None,space,0.37027950000083365,None,,,,,,,,,0,51,51,51,8655.318199500001,,,,,,,,,,,,8655.302341100001,8655.318199500001,8655.318199500001,8658.7816803,,,,8658.7819282,8658.7977087,8658.7977087,8658.7977087,8659.0974477,8659.1814114,,,,,,,,,,,,,,,,,,down,3.4503358000001754,None,space,0.37027950000083365,None,P130,001,2024-11-22_10h45.30.486,posner_endo_new1,2024.2.4,60.093661981565056,2024-11-22 10h45.38.085855 +0000,
10,0.005,52,52,0,down,10.507919400000901,None,None,,,,,,,,,,,0,52,52,52,8659.197403400001,,,,,,,,,,,,8659.1815772,8659.197403400001,8659.197403400001,8669.721039,,,,8669.7213952,8669.7365651,8669.7365651,8669.7365651,8670.0362117,8672.7336567,,,,8670.752135300001,,,,,,,,,,,,,,down,10.507919400000901,None,None,,,P130,001,2024-11-22_10h45.30.486,posner_endo_new1,2024.2.4,60.093661981565056,2024-11-22 10h45.38.085855 +0000,
-0.31,0.005,53,53,0,up,1.402487100000144,None,space,0.4768960999990668,None,,,,,,,,,0,53,53,53,8672.7502485,,,,,,,,,,,,8672.7338842,8672.7502485,8672.7502485,8674.1664576,,,,8674.166814,8674.182001000001,8674.182001000001,8674.182001000001,8674.481693,8674.665922,,,,,,,,,,,,,,,,,,up,1.402487100000144,None,space,0.4768960999990668,None,P130,001,2024-11-22_10h45.30.486,posner_endo_new1,2024.2.4,60.093661981565056,2024-11-22 10h45.38.085855 +0000,
10,0.005,54,54,0,down,3.8315329999986716,None,None,,,,,,,,,,,0,54,54,54,8674.6815147,,,,,,,,,,,,8674.666163900001,8674.6815147,8674.6815147,8678.528677,,,,8678.5290355,8678.544228800001,8678.544228800001,8678.544228800001,8678.843951500001,8681.541251800001,,,,8679.543150900001,,,,,,,,,,,,,,down,3.8315329999986716,None,None,,,P130,001,2024-11-22_10h45.30.486,posner_endo_new1,2024.2.4,60.093661981565056,2024-11-22 10h45.38.085855 +0000,
0.005,0.31,55,55,0,up,0.1784416999998939,None,space,0.36968119999983173,None,,,,,,,,,0,55,55,55,8681.5579641,,,,,,,,,,,,8681.541492100001,8681.5579641,8681.5579641,8681.7420738,,,,8681.742431100001,8681.757603400001,8681.757603400001,8681.757603400001,8682.0571646,8682.1416731,,,,,,,,,,,,,,,,,,up,0.1784416999998939,None,space,0.36968119999983173,None,P130,001,2024-11-22_10h45.30.486,posner_endo_new1,2024.2.4,60.093661981565056,2024-11-22 10h45.38.085855 +0000,
0.005,-0.31,56,56,0,down,4.140407000000778,None,space,0.4077895999998873,None,,,,,,,,,0,56,56,56,8682.157180600001,,,,,,,,,,,,8682.1419165,8682.157180600001,8682.157180600001,8686.3041042,,,,8686.3044627,8686.319532700001,8686.319532700001,8686.319532700001,8686.6193224,8686.7370703,,,,,,,,,,,,,,,,,,down,4.140407000000778,None,space,0.4077895999998873,None,P130,001,2024-11-22_10h45.30.486,posner_endo_new1,2024.2.4,60.093661981565056,2024-11-22 10h45.38.085855 +0000,
0.005,0.31,57,57,0,up,2.8325383000010333,None,space,0.4077202999997098,None,,,,,,,,,0,57,57,57,8686.752432500001,,,,,,,,,,,,8686.737324400001,8686.752432500001,8686.752432500001,8689.6007004,,,,8689.601058600001,8689.6162962,8689.6162962,8689.6162962,8689.9159127,8690.0337209,,,,,,,,,,,,,,,,,,up,2.8325383000010333,None,space,0.4077202999997098,None,P130,001,2024-11-22_10h45.30.486,posner_endo_new1,2024.2.4,60.093661981565056,2024-11-22 10h45.38.085855 +0000,
-0.31,0.005,58,58,0,down,3.8074369999994815,None,space,0.34692570000152045,None,,,,,,,,,0,58,58,58,8690.0491286,,,,,,,,,,,,8690.0339805,8690.0491286,8690.0491286,8693.8630728,,,,8693.8634327,8693.878407100001,8693.878407100001,8693.878407100001,8694.178306700001,8694.2295194,,,,,,,,,,,,,,,,,,down,3.8074369999994815,None,space,0.34692570000152045,None,P130,001,2024-11-22_10h45.30.486,posner_endo_new1,2024.2.4,60.093661981565056,2024-11-22 10h45.38.085855 +0000,
-0.31,0.005,59,59,0,up,2.7879823000002943,None,space,0.3239454000013211,None,,,,,,,,,0,59,59,59,8694.244858400001,,,,,,,,,,,,8694.2297698,8694.244858400001,8694.244858400001,8697.0429922,,,,8697.0433475,8697.0586817,8697.0586817,8697.0586817,8697.3583397,8697.3928517,,,,,,,,,,,,,,,,,,up,2.7879823000002943,None,space,0.3239454000013211,None,P130,001,2024-11-22_10h45.30.486,posner_endo_new1,2024.2.4,60.093661981565056,2024-11-22 10h45.38.085855 +0000,
