target_y,target_x,thisN,thisTrialN,thisRepN,key_control2.keys,key_control2.rt,key_control2.duration,key_resp.keys,key_resp.rt,key_resp.duration,practice.thisRepN,practice.thisTrialN,practice.thisN,practice.thisIndex,session_1.thisRepN,session_1.thisTrialN,session_1.thisN,session_1.thisIndex,session_2.thisRepN,session_2.thisTrialN,session_2.thisN,session_2.thisIndex,thisRow.t,notes,instructions.started,instructions_txt.started,key_control.started,instructions.stopped,key_control.keys,key_control.rt,key_control.duration,ready.started,ready_txt.started,ready.stopped,fix.started,key_control2.started,fixation_cross.started,fix.stopped,practice.key_control2.keys,practice.key_control2.rt,practice.key_control2.duration,target.started,star.started,fixation_cross_target.started,key_resp.started,star.stopped,key_resp.stopped,target.stopped,practice.key_resp.keys,practice.key_resp.rt,practice.key_resp.duration,session_1.key_control2.keys,session_1.key_control2.rt,session_1.key_control2.duration,session_1.key_resp.keys,session_1.key_resp.rt,session_1.key_resp.duration,break_2.started,text.started,key_control3.started,break_2.stopped,key_control3.keys,session_2.key_control2.keys,session_2.key_control2.rt,session_2.key_control2.duration,session_2.key_resp.keys,session_2.key_resp.rt,session_2.key_resp.duration,participant,session,date,expName,psychopyVersion,frameRate,expStart,
,,,,,,,,,,,,,,,,,,,,,,,,,0.007450999999491614,0.01942330000019865,0.01942330000019865,2629.3327831999995,up,2629.3116355,None,,,,,,,,,,,,,,,,,,,,,,,,,,,,,,,,,,,,,,P132,001,2024-11-22_13h16.51.158,posner_endo_new1,2024.2.4,60.03445977934858,2024-11-22 13h17.00.049246 +0000,
,,,,,,,,,,,,,,,,,,,,,,,,,,,,,,,,2629.3328371000007,2629.3484745000005,2632.3455601000005,,,,,,,,,,,,,,,,,,,,,,,,,,,,,,,,,,,P132,001,2024-11-22_13h16.51.158,posner_endo_new1,2024.2.4,60.03445977934858,2024-11-22 13h17.00.049246 +0000,
0.005,0.31,0,0,0,up,0.4301428999988275,None,None,,,0,0,0,8,,,,,,,,,2632.3637605000004,,,,,,,,,,,,2632.3527976999994,2632.3637605000004,2632.3637605000004,2632.795537,up,0.4301428999988275,None,2632.795819000001,2632.8115005,2632.8115005,2632.8115005,2633.1112563000006,2633.810553200001,2635.8087163,None,,,,,,,,,,,,,,,,,,,,P132,001,2024-11-22_13h16.51.158,posner_endo_new1,2024.2.4,60.03445977934858,2024-11-22 13h17.00.049246 +0000,
10,0.005,1,1,0,down,1.2483966999989207,None,None,,,0,1,1,4,,,,,,,,,2635.8253191000003,,,,,,,,,,,,2635.8088828,2635.8253191000003,2635.8253191000003,2637.0749087999993,down,1.2483966999989207,None,2637.0751641999996,2637.0905841000003,2637.0905841000003,2637.0905841000003,2637.3904115000005,2638.1063636,2640.0877149999997,None,,,,,,,,,,,,,,,,,,,,P132,001,2024-11-22_13h16.51.158,posner_endo_new1,2024.2.4,60.03445977934858,2024-11-22 13h17.00.049246 +0000,
-0.31,0.005,2,2,0,down,3.585878699999739,None,space,0.5015524999998888,None,0,2,2,2,,,,,,,,,2640.104310999999,,,,,,,,,,,,2640.087879999999,2640.104310999999,2640.104310999999,2643.701487800001,down,3.585878699999739,None,2643.7017410999997,2643.717096799999,2643.717096799999,2643.717096799999,2644.016724700001,,2644.2340397999997,space,0.5015524999998888,None,,,,,,,,,,,,,,,,,,P132,001,2024-11-22_13h16.51.158,posner_endo_new1,2024.2.4,60.03445977934858,2024-11-22 13h17.00.049246 +0000,
0.31,0.005,3,3,0,up,2.3439706999997725,None,space,0.4583191000001534,None,0,3,3,3,,,,,,,,,2644.2496314,,,,,,,,,,,,2644.2342038000006,2644.2496314,2644.2496314,2646.5987195,up,2.3439706999997725,None,2646.5989781999997,2646.6143133999994,2646.6143133999994,2646.6143133999994,2646.913864,,2647.0811410000006,space,0.4583191000001534,None,,,,,,,,,,,,,,,,,,P132,001,2024-11-22_13h16.51.158,posner_endo_new1,2024.2.4,60.03445977934858,2024-11-22 13h17.00.049246 +0000,
0.31,0.005,4,4,0,down,3.2486119999994116,None,space,0.5378473000000668,None,0,4,4,1,,,,,,,,,2647.0970008999993,,,,,,,,,,,,2647.0813049999997,2647.0970008999993,2647.0970008999993,2650.3610143999995,down,3.2486119999994116,None,2650.361277,2650.3769821000005,2650.3769821000005,2650.3769821000005,2650.6767858999992,,2650.9274122999996,space,0.5378473000000668,None,,,,,,,,,,,,,,,,,,P132,001,2024-11-22_13h16.51.158,posner_endo_new1,2024.2.4,60.03445977934858,2024-11-22 13h17.00.049246 +0000,
0.005,-0.31,5,5,0,up,2.8189653999997972,None,space,0.5432395999996515,None,0,5,5,5,,,,,,,,,2650.9431428999997,,,,,,,,,,,,2650.9275772,2650.9431428999997,2650.9431428999997,2653.7742553999997,up,2.8189653999997972,None,2653.7745109000007,2653.7903000000006,2653.7903000000006,2653.7903000000006,2654.0898815,,2654.3404001,space,0.5432395999996515,None,,,,,,,,,,,,,,,,,,P132,001,2024-11-22_13h16.51.158,posner_endo_new1,2024.2.4,60.03445977934858,2024-11-22 13h17.00.049246 +0000,
0.005,-0.31,6,6,0,down,2.102079700000104,None,space,0.506319899999653,None,0,6,6,7,,,,,,,,,2654.3560318,,,,,,,,,,,,2654.3405652,2654.3560318,2654.3560318,2656.4716731000008,down,2.102079700000104,None,2656.471929200001,2656.4874366000004,2656.4874366000004,2656.4874366000004,2656.7873865,,2657.0044873999996,space,0.506319899999653,None,,,,,,,,,,,,,,,,,,P132,001,2024-11-22_13h16.51.158,posner_endo_new1,2024.2.4,60.03445977934858,2024-11-22 13h17.00.049246 +0000,
0.005,0.31,7,7,0,up,2.5573972999991383,None,space,0.37619180000001506,None,0,7,7,6,,,,,,,,,2657.0202424,,,,,,,,,,,,2657.0046521000004,2657.0202424,2657.0202424,2659.5850119999996,up,2.5573972999991383,None,2659.5852655,2659.6009154000003,2659.6009154000003,2659.6009154000003,2659.9007801000007,,2659.9850121,space,0.37619180000001506,None,,,,,,,,,,,,,,,,,,P132,001,2024-11-22_13h16.51.158,posner_endo_new1,2024.2.4,60.03445977934858,2024-11-22 13h17.00.049246 +0000,
0.005,10,8,8,0,down,2.7212137000005896,None,None,,,0,8,8,9,,,,,,,,,2660.0005829,,,,,,,,,,,,2659.985176,2660.0005829,2660.0005829,2662.7320400999997,down,2.7212137000005896,None,2662.7322968000008,2662.7476633999995,2662.7476633999995,2662.7476633999995,2663.0469691,2663.7633814,2665.7448387000004,None,,,,,,,,,,,,,,,,,,,,P132,001,2024-11-22_13h16.51.158,posner_endo_new1,2024.2.4,60.03445977934858,2024-11-22 13h17.00.049246 +0000,
-0.31,0.005,9,9,0,up,1.4882488999992347,None,space,0.3871646999996301,None,0,9,9,0,,,,,,,,,2665.761126900001,,,,,,,,,,,,2665.745007900001,2665.761126900001,2665.761126900001,2667.2606238999997,up,1.4882488999992347,None,2667.2608757,2667.2764891000006,2667.2764891000006,2667.2764891000006,2667.5760594000003,,2667.6767729000003,space,0.3871646999996301,None,,,,,,,,,,,,,,,,,,P132,001,2024-11-22_13h16.51.158,posner_endo_new1,2024.2.4,60.03445977934858,2024-11-22 13h17.00.049246 +0000,
,,,,,,,,,,,,,,,,,,,,,,,,,,,,,,,,2667.6768878000003,2667.6926509000004,2670.6895612999997,,,,,,,,,,,,,,,,,,,,,,,,,,,,,,,,,,,P132,001,2024-11-22_13h16.51.158,posner_endo_new1,2024.2.4,60.03445977934858,2024-11-22 13h17.00.049246 +0000,
-0.31,0.005,0,0,0,down,1.0948982999998407,None,space,0.38924129999941215,None,,,,,0,0,0,0,,,,,2670.7082690000007,,,,,,,,,,,,2670.697671,2670.7082690000007,2670.7082690000007,2671.8058762,,,,2671.8061405999997,2671.8216262999995,2671.8216262999995,2671.8216262999995,2672.1214364000007,,2672.222199399999,,,,down,1.0948982999998407,None,space,0.38924129999941215,None,,,,,,,,,,,,P132,001,2024-11-22_13h16.51.158,posner_endo_new1,2024.2.4,60.03445977934858,2024-11-22 13h17.00.049246 +0000,
0.005,0.31,1,1,0,up,3.860412500000166,None,space,0.41456299999845214,None,,,,,0,1,1,1,,,,,2672.2380083000007,,,,,,,,,,,,2672.2223694000004,2672.2380083000007,2672.2380083000007,2676.1013021,,,,2676.1015637,2676.1168392,2676.1168392,2676.1168392,2676.4165933999993,,2676.5342602,,,,up,3.860412500000166,None,space,0.41456299999845214,None,,,,,,,,,,,,P132,001,2024-11-22_13h16.51.158,posner_endo_new1,2024.2.4,60.03445977934858,2024-11-22 13h17.00.049246 +0000,
0.31,0.005,2,2,0,down,3.987333699998999,None,space,0.5451799000002211,None,,,,,0,2,2,2,,,,,2676.5504149999997,,,,,,,,,,,,2676.5344329,2676.5504149999997,2676.5504149999997,2680.5468622999997,,,,2680.547124999999,2680.5628961,2680.5628961,2680.5628961,2680.8625954,,2681.112765600001,,,,down,3.987333699998999,None,space,0.5451799000002211,None,,,,,,,,,,,,P132,001,2024-11-22_13h16.51.158,posner_endo_new1,2024.2.4,60.03445977934858,2024-11-22 13h17.00.049246 +0000,
0.31,0.005,3,3,0,up,3.9288727000002837,None,space,0.3745333999995637,None,,,,,0,3,3,3,,,,,2681.1285310999992,,,,,,,,,,,,2681.1129356,2681.1285310999992,2681.1285310999992,2685.059093,,,,2685.0593551,2685.0750692,2685.0750692,2685.0750692,2685.3747432,,2685.4585430999996,,,,up,3.9288727000002837,None,space,0.3745333999995637,None,,,,,,,,,,,,P132,001,2024-11-22_13h16.51.158,posner_endo_new1,2024.2.4,60.03445977934858,2024-11-22 13h17.00.049246 +0000,
-0.31,0.005,4,4,0,down,4.854973499999687,None,space,0.4191121000003477,None,,,,,0,4,4,4,,,,,2685.4745623,,,,,,,,,,,,2685.4587145000005,2685.4745623,2685.4745623,2690.3373403000005,,,,2690.337597399999,2690.353022699999,2690.353022699999,2690.353022699999,2690.6525881,,2690.7865456,,,,down,4.854973499999687,None,space,0.4191121000003477,None,,,,,,,,,,,,P132,001,2024-11-22_13h16.51.158,posner_endo_new1,2024.2.4,60.03445977934858,2024-11-22 13h17.00.049246 +0000,
0.005,-0.31,5,5,0,up,4.9356676999996125,None,space,0.41338850000101957,None,,,,,0,5,5,5,,,,,2690.8024845,,,,,,,,,,,,2690.7867162000002,2690.8024845,2690.8024845,2695.7481255000002,,,,2695.7483938999994,2695.763560199999,2695.763560199999,2695.763560199999,2696.0636639000004,,2696.1811091,,,,up,4.9356676999996125,None,space,0.41338850000101957,None,,,,,,,,,,,,P132,001,2024-11-22_13h16.51.158,posner_endo_new1,2024.2.4,60.03445977934858,2024-11-22 13h17.00.049246 +0000,
0.005,-0.31,6,6,0,down,3.869240099998933,None,space,0.45416169999953127,None,,,,,0,6,6,6,,,,,2696.1969331,,,,,,,,,,,,2696.1812793999998,2696.1969331,2696.1969331,2700.0775797999995,,,,2700.0780921000005,2700.0925501,2700.0925501,2700.0925501,2700.3925954999995,,2700.5602536999995,,,,down,3.869240099998933,None,space,0.45416169999953127,None,,,,,,,,,,,,P132,001,2024-11-22_13h16.51.158,posner_endo_new1,2024.2.4,60.03445977934858,2024-11-22 13h17.00.049246 +0000,
10,0.005,7,7,0,up,3.0664624000000913,None,None,,,,,,,0,7,7,7,,,,,2700.5758045000002,,,,,,,,,,,,2700.5604989000003,2700.5758045000002,2700.5758045000002,2703.6570773000003,,,,2703.6574351,2703.6725979000003,2703.6725979000003,2703.6725979000003,2703.9722084000005,2704.6882692,2706.6697733,,,,up,3.0664624000000913,None,None,,,,,,,,,,,,,,P132,001,2024-11-22_13h16.51.158,posner_endo_new1,2024.2.4,60.03445977934858,2024-11-22 13h17.00.049246 +0000,
-0.31,0.005,8,8,0,down,3.0674804000009317,None,space,0.42950200000086625,None,,,,,0,8,8,8,,,,,2706.686164999999,,,,,,,,,,,,2706.670006800001,2706.686164999999,2706.686164999999,2709.7674454999997,,,,2709.7678039,2709.7830656999995,2709.7830656999995,2709.7830656999995,2710.0827721999995,,2710.217086299999,,,,down,3.0674804000009317,None,space,0.42950200000086625,None,,,,,,,,,,,,P132,001,2024-11-22_13h16.51.158,posner_endo_new1,2024.2.4,60.03445977934858,2024-11-22 13h17.00.049246 +0000,
0.005,0.31,9,9,0,up,2.6896935000004305,None,space,0.36886020000019926,None,,,,,0,9,9,9,,,,,2710.2325562000005,,,,,,,,,,,,2710.2173330000005,2710.2325562000005,2710.2325562000005,2712.9309288999993,,,,2712.931291000001,2712.9463431999993,2712.9463431999993,2712.9463431999993,2713.2461934000003,,2713.3305923999997,,,,up,2.6896935000004305,None,space,0.36886020000019926,None,,,,,,,,,,,,P132,001,2024-11-22_13h16.51.158,posner_endo_new1,2024.2.4,60.03445977934858,2024-11-22 13h17.00.049246 +0000,
0.005,-0.31,10,10,0,down,2.3593507000005047,None,space,0.3531995999983337,None,,,,,0,10,10,10,,,,,2713.346034,,,,,,,,,,,,2713.3308357000005,2713.346034,2713.346034,2715.7115212999997,,,,2715.7118862999996,2715.7270799,2715.7270799,2715.7270799,2716.026755000001,,2716.0942245999995,,,,down,2.3593507000005047,None,space,0.3531995999983337,None,,,,,,,,,,,,P132,001,2024-11-22_13h16.51.158,posner_endo_new1,2024.2.4,60.03445977934858,2024-11-22 13h17.00.049246 +0000,
0.005,0.31,11,11,0,up,2.5480981999990036,None,space,0.36107169999922917,None,,,,,0,11,11,11,,,,,2716.1098408,,,,,,,,,,,,2716.0944689999997,2716.1098408,2716.1098408,2718.6749020999996,,,,2718.6752615000005,2718.6906203,2718.6906203,2718.6906203,2718.9902992999996,,2719.0578750999994,,,,up,2.5480981999990036,None,space,0.36107169999922917,None,,,,,,,,,,,,P132,001,2024-11-22_13h16.51.158,posner_endo_new1,2024.2.4,60.03445977934858,2024-11-22 13h17.00.049246 +0000,
10,0.005,12,12,0,down,2.560469000000012,None,None,,,,,,,0,12,12,12,,,,,2719.0734617,,,,,,,,,,,,2719.0581261000007,2719.0734617,2719.0734617,2721.6387293000007,,,,2721.6390897,2721.654273599999,2721.654273599999,2721.654273599999,2721.9538617,2722.669915300001,2724.6513773999995,,,,down,2.560469000000012,None,None,,,,,,,,,,,,,,P132,001,2024-11-22_13h16.51.158,posner_endo_new1,2024.2.4,60.03445977934858,2024-11-22 13h17.00.049246 +0000,
0.31,0.005,13,13,0,up,0.3105448999995133,None,space,0.36746970000058354,None,,,,,0,13,13,13,,,,,2724.6678095999996,,,,,,,,,,,,2724.6516126000006,2724.6678095999996,2724.6678095999996,2724.9852353000006,,,,2724.9855917999994,2725.000819499999,2725.000819499999,2725.000819499999,2725.3005520999995,,2725.3848543999993,,,,up,0.3105448999995133,None,space,0.36746970000058354,None,,,,,,,,,,,,P132,001,2024-11-22_13h16.51.158,posner_endo_new1,2024.2.4,60.03445977934858,2024-11-22 13h17.00.049246 +0000,
10,0.005,14,14,0,down,2.875019000000975,None,None,,,,,,,0,14,14,14,,,,,2725.4003587000007,,,,,,,,,,,,2725.3851082,2725.4003587000007,2725.4003587000007,2728.2819218999994,,,,2728.2823028000003,2728.2974959000003,2728.2974959000003,2728.2974959000003,2728.596991300001,2729.3130397999994,2731.294537399999,,,,down,2.875019000000975,None,None,,,,,,,,,,,,,,P132,001,2024-11-22_13h16.51.158,posner_endo_new1,2024.2.4,60.03445977934858,2024-11-22 13h17.00.049246 +0000,
-0.31,0.005,15,15,0,down,3.6429949999983364,None,space,0.448808299999655,None,,,,,0,15,15,15,,,,,2731.3109299999996,,,,,,,,,,,,2731.2947710000008,2731.3109299999996,2731.3109299999996,2734.9583483000006,,,,2734.9587063,2734.9739265000007,2734.9739265000007,2734.9739265000007,2735.2736535000004,,2735.4247307999995,,,,down,3.6429949999983364,None,space,0.448808299999655,None,,,,,,,,,,,,P132,001,2024-11-22_13h16.51.158,posner_endo_new1,2024.2.4,60.03445977934858,2024-11-22 13h17.00.049246 +0000,
0.005,-0.31,16,16,0,up,2.7456361999993533,None,space,0.3306620000003022,None,,,,,0,16,16,16,,,,,2735.4400910999993,,,,,,,,,,,,2735.4249784999993,2735.4400910999993,2735.4400910999993,2738.188548,,,,2738.1889068,2738.203998499999,2738.203998499999,2738.203998499999,2738.5036693,,2738.5381951,,,,up,2.7456361999993533,None,space,0.3306620000003022,None,,,,,,,,,,,,P132,001,2024-11-22_13h16.51.158,posner_endo_new1,2024.2.4,60.03445977934858,2024-11-22 13h17.00.049246 +0000,
0.005,0.31,17,17,0,down,2.440813799999887,None,space,0.32546759999968344,None,,,,,0,17,17,17,,,,,2738.5536567,,,,,,,,,,,,2738.5384417000005,2738.5536567,2738.5536567,2741.0023055,,,,2741.002688299999,2741.0178613000007,2741.0178613000007,2741.0178613000007,2741.3175262000004,,2741.3523693999996,,,,down,2.440813799999887,None,space,0.32546759999968344,None,,,,,,,,,,,,P132,001,2024-11-22_13h16.51.158,posner_endo_new1,2024.2.4,60.03445977934858,2024-11-22 13h17.00.049246 +0000,
-0.31,0.005,18,18,0,up,3.178453200000149,None,space,0.38646780000090075,None,,,,,0,18,18,18,,,,,2741.3674680999993,,,,,,,,,,,,2741.3526205,2741.3674680999993,2741.3674680999993,2744.5485649,,,,2744.5489271999995,2744.5642093999995,2744.5642093999995,2744.5642093999995,2744.8637486999996,,2744.9648122,,,,up,3.178453200000149,None,space,0.38646780000090075,None,,,,,,,,,,,,P132,001,2024-11-22_13h16.51.158,posner_endo_new1,2024.2.4,60.03445977934858,2024-11-22 13h17.00.049246 +0000,
10,0.005,19,19,0,down,3.8535976000002847,None,None,,,,,,,0,19,19,19,,,,,2744.9804077999997,,,,,,,,,,,,2744.9650550000006,2744.9804077999997,2744.9804077999997,2748.8442348999997,,,,2748.8445895000004,2748.8597443,2748.8597443,2748.8597443,2749.159501100001,2749.8586379000008,2751.8568883000007,,,,down,3.8535976000002847,None,None,,,,,,,,,,,,,,P132,001,2024-11-22_13h16.51.158,posner_endo_new1,2024.2.4,60.03445977934858,2024-11-22 13h17.00.049246 +0000,
0.005,0.31,20,20,0,up,2.264558999999281,None,space,0.3735023999997793,None,,,,,0,20,20,20,,,,,2751.8732963,,,,,,,,,,,,2751.8571243000006,2751.8732963,2751.8732963,2754.1389579999995,,,,2754.1393121,2754.1543793,2754.1543793,2754.1543793,2754.454156399999,,2754.5383275000004,,,,up,2.264558999999281,None,space,0.3735023999997793,None,,,,,,,,,,,,P132,001,2024-11-22_13h16.51.158,posner_endo_new1,2024.2.4,60.03445977934858,2024-11-22 13h17.00.049246 +0000,
0.005,-0.31,21,21,0,down,4.432329400000526,None,space,0.36218539999936183,None,,,,,0,21,21,21,,,,,2754.5538841,,,,,,,,,,,,2754.5385831000003,2754.5538841,2754.5538841,2759.000547400001,,,,2759.0009035000003,2759.0160273,2759.0160273,2759.0160273,2759.3157147,,2759.383658999999,,,,down,4.432329400000526,None,space,0.36218539999936183,None,,,,,,,,,,,,P132,001,2024-11-22_13h16.51.158,posner_endo_new1,2024.2.4,60.03445977934858,2024-11-22 13h17.00.049246 +0000,
0.005,0.31,22,22,0,up,3.195089700000608,None,space,0.3408122999990155,None,,,,,0,22,22,22,,,,,2759.3990465000006,,,,,,,,,,,,2759.383905999999,2759.3990465000006,2759.3990465000006,2762.5969638000006,,,,2762.5973254,2762.6124333000007,2762.6124333000007,2762.6124333000007,2762.9120707,,2762.9631511999996,,,,up,3.195089700000608,None,space,0.3408122999990155,None,,,,,,,,,,,,P132,001,2024-11-22_13h16.51.158,posner_endo_new1,2024.2.4,60.03445977934858,2024-11-22 13h17.00.049246 +0000,
0.31,0.005,23,23,0,down,4.183681500000603,None,space,0.3300619000001461,None,,,,,0,23,23,23,,,,,2762.9786167,,,,,,,,,,,,2762.9633976999994,2762.9786167,2762.9786167,2767.1753623000004,,,,2767.1757252999996,2767.1910338,2767.1910338,2767.1910338,2767.4906985,,2767.5252757,,,,down,4.183681500000603,None,space,0.3300619000001461,None,,,,,,,,,,,,P132,001,2024-11-22_13h16.51.158,posner_endo_new1,2024.2.4,60.03445977934858,2024-11-22 13h17.00.049246 +0000,
0.005,0.31,24,24,0,up,3.4049372999998013,None,space,0.33404979999977513,None,,,,,0,24,24,24,,,,,2767.5406629999998,,,,,,,,,,,,2767.5255201,2767.5406629999998,2767.5406629999998,2770.954953300001,,,,2770.9553152000008,2770.9705207000006,2770.9705207000006,2770.9705207000006,2771.270182099999,,2771.321309000001,,,,up,3.4049372999998013,None,space,0.33404979999977513,None,,,,,,,,,,,,P132,001,2024-11-22_13h16.51.158,posner_endo_new1,2024.2.4,60.03445977934858,2024-11-22 13h17.00.049246 +0000,
0.31,0.005,25,25,0,down,3.976719800000865,None,space,0.36144489999969664,None,,,,,0,25,25,25,,,,,2771.3368470000005,,,,,,,,,,,,2771.3215591999997,2771.3368470000005,2771.3368470000005,2775.3169935000005,,,,2775.3173571000007,2775.3327544000003,2775.3327544000003,2775.3327544000003,2775.6323372999996,,2775.7000924000004,,,,down,3.976719800000865,None,space,0.36144489999969664,None,,,,,,,,,,,,P132,001,2024-11-22_13h16.51.158,posner_endo_new1,2024.2.4,60.03445977934858,2024-11-22 13h17.00.049246 +0000,
10,0.005,26,26,0,up,2.8783612999995967,None,None,,,,,,,0,26,26,26,,,,,2775.715677100001,,,,,,,,,,,,2775.7003418999993,2775.715677100001,2775.715677100001,2778.5971537000005,,,,2778.5975099000007,2778.6127273,2778.6127273,2778.6127273,2778.9124128999993,2779.6117169999998,2781.6098273999996,,,,up,2.8783612999995967,None,None,,,,,,,,,,,,,,P132,001,2024-11-22_13h16.51.158,posner_endo_new1,2024.2.4,60.03445977934858,2024-11-22 13h17.00.049246 +0000,
10,0.005,27,27,0,down,2.0793555000000197,None,None,,,,,,,0,27,27,27,,,,,2781.6263318,,,,,,,,,,,,2781.6100566000005,2781.6263318,2781.6263318,2783.7085809,,,,2783.7089366,2783.7241063,2783.7241063,2783.7241063,2784.0238105000008,2784.7231424,2786.7212607,,,,down,2.0793555000000197,None,None,,,,,,,,,,,,,,P132,001,2024-11-22_13h16.51.158,posner_endo_new1,2024.2.4,60.03445977934858,2024-11-22 13h17.00.049246 +0000,
0.005,-0.31,28,28,0,up,1.6481742000014492,None,space,0.34718939999947906,None,,,,,0,28,28,28,,,,,2786.737642599999,,,,,,,,,,,,2786.721503500001,2786.737642599999,2786.737642599999,2788.3873059,,,,2788.3876586999995,2788.4026415000008,2788.4026415000008,2788.4026415000008,2788.702411800001,,2788.753444,,,,up,1.6481742000014492,None,space,0.34718939999947906,None,,,,,,,,,,,,P132,001,2024-11-22_13h16.51.158,posner_endo_new1,2024.2.4,60.03445977934858,2024-11-22 13h17.00.049246 +0000,
0.31,0.005,29,29,0,down,4.4413538000007975,None,space,0.6272263999999268,None,,,,,0,29,29,29,,,,,2788.7689556000005,,,,,,,,,,,,2788.7536886,2788.7689556000005,2788.7689556000005,2793.2156004999997,,,,2793.215956599999,2793.231007799999,2793.231007799999,2793.231007799999,2793.5299498999993,,2793.864556300001,,,,down,4.4413538000007975,None,space,0.6272263999999268,None,,,,,,,,,,,,P132,001,2024-11-22_13h16.51.158,posner_endo_new1,2024.2.4,60.03445977934858,2024-11-22 13h17.00.049246 +0000,
10,0.005,30,30,0,up,3.017086300000301,None,None,,,,,,,0,30,30,30,,,,,2793.8804645,,,,,,,,,,,,2793.8647253,2793.8804645,2793.8804645,2796.9116737999993,,,,2796.9119790000004,2796.9272438999997,2796.9272438999997,2796.9272438999997,2797.2269964999996,2797.9262314999996,2799.9243380000007,,,,up,3.017086300000301,None,None,,,,,,,,,,,,,,P132,001,2024-11-22_13h16.51.158,posner_endo_new1,2024.2.4,60.03445977934858,2024-11-22 13h17.00.049246 +0000,
0.31,0.005,31,31,0,down,0.7262995000000956,None,space,0.34623259999898437,None,,,,,0,31,31,31,,,,,2799.940781699999,,,,,,,,,,,,2799.924534399999,2799.940781699999,2799.940781699999,2800.6742668000006,,,,2800.674567599999,2800.6899398000005,2800.6899398000005,2800.6899398000005,2800.9897911000007,,2801.0407851,,,,down,0.7262995000000956,None,space,0.34623259999898437,None,,,,,,,,,,,,P132,001,2024-11-22_13h16.51.158,posner_endo_new1,2024.2.4,60.03445977934858,2024-11-22 13h17.00.049246 +0000,
0.31,0.005,32,32,0,up,3.0651168000003963,None,space,0.4008539999995264,None,,,,,0,32,32,32,,,,,2801.056488800001,,,,,,,,,,,,2801.0409894999993,2801.056488800001,2801.056488800001,2804.1375042,,,,2804.1378102,2804.1532893999993,2804.1532893999993,2804.1532893999993,2804.4529500999997,,2804.570309999999,,,,up,3.0651168000003963,None,space,0.4008539999995264,None,,,,,,,,,,,,P132,001,2024-11-22_13h16.51.158,posner_endo_new1,2024.2.4,60.03445977934858,2024-11-22 13h17.00.049246 +0000,
10,0.005,33,33,0,down,4.784072999998898,None,None,,,,,,,0,33,33,33,,,,,2804.5860708,,,,,,,,,,,,2804.570513299999,2804.5860708,2804.5860708,2809.3820407999992,,,,2809.3823476,2809.3978420000003,2809.3978420000003,2809.3978420000003,2809.6974883000003,2810.3968091000006,2812.394823299999,,,,down,4.784072999998898,None,None,,,,,,,,,,,,,,P132,001,2024-11-22_13h16.51.158,posner_endo_new1,2024.2.4,60.03445977934858,2024-11-22 13h17.00.049246 +0000,
0.005,-0.31,34,34,0,up,1.5022976000000199,None,space,0.4166837000011583,None,,,,,0,34,34,34,,,,,2812.411285,,,,,,,,,,,,2812.3950274,2812.411285,2812.411285,2813.927399800001,,,,2813.9277060999993,2813.9432290999994,2813.9432290999994,2813.9432290999994,2814.242919099999,,2814.3770592,,,,up,1.5022976000000199,None,space,0.4166837000011583,None,,,,,,,,,,,,P132,001,2024-11-22_13h16.51.158,posner_endo_new1,2024.2.4,60.03445977934858,2024-11-22 13h17.00.049246 +0000,
-0.31,0.005,35,35,0,down,3.3051926999996795,None,space,0.4131260000012844,None,,,,,0,35,35,35,,,,,2814.3926976000002,,,,,,,,,,,,2814.377272399999,2814.3926976000002,2814.3926976000002,2817.706862000001,,,,2817.707164900001,2817.7226658,2817.7226658,2817.7226658,2818.0223845,,2818.1399198,,,,down,3.3051926999996795,None,space,0.4131260000012844,None,,,,,,,,,,,,P132,001,2024-11-22_13h16.51.158,posner_endo_new1,2024.2.4,60.03445977934858,2024-11-22 13h17.00.049246 +0000,
-0.31,0.005,36,36,0,up,2.5422383999994054,None,space,0.40099110000119254,None,,,,,0,36,36,36,,,,,2818.155538000001,,,,,,,,,,,,2818.1401241999993,2818.155538000001,2818.155538000001,2820.7038629,,,,2820.704163300001,2820.7196576000006,2820.7196576000006,2820.7196576000006,2821.0193189,,2821.1368600000005,,,,up,2.5422383999994054,None,space,0.40099110000119254,None,,,,,,,,,,,,P132,001,2024-11-22_13h16.51.158,posner_endo_new1,2024.2.4,60.03445977934858,2024-11-22 13h17.00.049246 +0000,
10,0.005,37,37,0,down,3.1378950999987865,None,None,,,,,,,0,37,37,37,,,,,2821.1524781999997,,,,,,,,,,,,2821.1370707999995,2821.1524781999997,2821.1524781999997,2824.3001532,,,,2824.3004612999994,2824.3158937000007,2824.3158937000007,2824.3158937000007,2824.6156310000006,2825.3149685999997,2827.3130251000002,,,,down,3.1378950999987865,None,None,,,,,,,,,,,,,,P132,001,2024-11-22_13h16.51.158,posner_endo_new1,2024.2.4,60.03445977934858,2024-11-22 13h17.00.049246 +0000,
0.005,0.31,38,38,0,up,1.200729299998784,None,space,0.42399810000097204,None,,,,,0,38,38,38,,,,,2827.3296056,,,,,,,,,,,,2827.313226800001,2827.3296056,2827.3296056,2828.5459739,,,,2828.5462812999995,2828.5616561999996,2828.5616561999996,2828.5616561999996,2828.8613451,,2828.9954842000006,,,,up,1.200729299998784,None,space,0.42399810000097204,None,,,,,,,,,,,,P132,001,2024-11-22_13h16.51.158,posner_endo_new1,2024.2.4,60.03445977934858,2024-11-22 13h17.00.049246 +0000,
0.005,-0.31,39,39,0,down,2.8076270000001387,None,space,0.30299180000110937,None,,,,,0,39,39,39,,,,,2829.0111146,,,,,,,,,,,,2828.9956918000007,2829.0111146,2829.0111146,2831.8257109999995,,,,2831.8260104,2831.8419808,2831.8419808,2831.8419808,2832.1412573,,2832.1588967000007,,,,down,2.8076270000001387,None,space,0.30299180000110937,None,,,,,,,,,,,,P132,001,2024-11-22_13h16.51.158,posner_endo_new1,2024.2.4,60.03445977934858,2024-11-22 13h17.00.049246 +0000,
0.31,0.005,40,40,0,up,4.763047500000539,None,space,0.40601930000048014,None,,,,,0,40,40,40,,,,,2832.174578,,,,,,,,,,,,2832.1591028000003,2832.174578,2832.174578,2836.953912000001,,,,2836.9542182000005,2836.969642599999,2836.969642599999,2836.969642599999,2837.2693509,,2837.3866005,,,,up,4.763047500000539,None,space,0.40601930000048014,None,,,,,,,,,,,,P132,001,2024-11-22_13h16.51.158,posner_endo_new1,2024.2.4,60.03445977934858,2024-11-22 13h17.00.049246 +0000,
-0.31,0.005,41,41,0,down,4.064387700000225,None,space,0.28847769999993034,None,,,,,0,41,41,41,,,,,2837.4025813000007,,,,,,,,,,,,2837.386809899999,2837.4025813000007,2837.4025813000007,2841.4826589999993,,,,2841.4829723000003,2841.4982638,2841.4982638,2841.4982638,2841.7980781999995,,2841.7990427000004,,,,down,4.064387700000225,None,space,0.28847769999993034,None,,,,,,,,,,,,P132,001,2024-11-22_13h16.51.158,posner_endo_new1,2024.2.4,60.03445977934858,2024-11-22 13h17.00.049246 +0000,
0.31,0.005,42,42,0,up,4.86784439999974,None,space,0.3876825999996072,None,,,,,0,42,42,42,,,,,2841.8146834,,,,,,,,,,,,2841.7992438,2841.8146834,2841.8146834,2846.6940675000005,,,,2846.694368799999,2846.7098386,2846.7098386,2846.7098386,2847.009433200001,,2847.1102532000004,,,,up,4.86784439999974,None,space,0.3876825999996072,None,,,,,,,,,,,,P132,001,2024-11-22_13h16.51.158,posner_endo_new1,2024.2.4,60.03445977934858,2024-11-22 13h17.00.049246 +0000,
10,0.005,43,43,0,down,3.5645058999998582,None,None,,,,,,,0,43,43,43,,,,,2847.1258452,,,,,,,,,,,,2847.1104531,2847.1258452,2847.1258452,2850.706624300001,,,,2850.7069243000005,2850.722244299999,2850.722244299999,2850.722244299999,2851.0219782000004,2851.7212419999996,2853.7194825999995,,,,down,3.5645058999998582,None,None,,,,,,,,,,,,,,P132,001,2024-11-22_13h16.51.158,posner_endo_new1,2024.2.4,60.03445977934858,2024-11-22 13h17.00.049246 +0000,
-0.31,0.005,44,44,0,up,1.7624457000001712,None,space,0.354112900000473,None,,,,,0,44,44,44,,,,,2853.7358925999997,,,,,,,,,,,,2853.719695,2853.7358925999997,2853.7358925999997,2855.5015559999993,,,,2855.5018562999994,2855.5173123000004,2855.5173123000004,2855.5173123000004,2855.8171277,,2855.884536400001,,,,up,1.7624457000001712,None,space,0.354112900000473,None,,,,,,,,,,,,P132,001,2024-11-22_13h16.51.158,posner_endo_new1,2024.2.4,60.03445977934858,2024-11-22 13h17.00.049246 +0000,
0.005,0.31,45,45,0,down,4.006283599999733,None,space,0.3160561000004236,None,,,,,0,45,45,45,,,,,2855.9002729000003,,,,,,,,,,,,2855.8847394000004,2855.9002729000003,2855.9002729000003,2859.913835200001,,,,2859.9141347999994,2859.9294417,2859.9294417,2859.9294417,2860.2292658999995,,2860.2469070000006,,,,down,4.006283599999733,None,space,0.3160561000004236,None,,,,,,,,,,,,P132,001,2024-11-22_13h16.51.158,posner_endo_new1,2024.2.4,60.03445977934858,2024-11-22 13h17.00.049246 +0000,
0.005,-0.31,46,46,0,up,4.659107999999833,None,space,0.2845379000009416,None,,,,,0,46,46,46,,,,,2860.2624990000004,,,,,,,,,,,,2860.2471091000007,2860.2624990000004,2860.2624990000004,2864.9254404999992,,,,2864.9257424999996,2864.9411671,2864.9411671,2864.9411671,2865.2407072000005,,2865.2417774000005,,,,up,4.659107999999833,None,space,0.2845379000009416,None,,,,,,,,,,,,P132,001,2024-11-22_13h16.51.158,posner_endo_new1,2024.2.4,60.03445977934858,2024-11-22 13h17.00.049246 +0000,
-0.31,0.005,47,47,0,down,4.568155000000843,None,space,0.30561130000023695,None,,,,,0,47,47,47,,,,,2865.2574151999997,,,,,,,,,,,,2865.241979799999,2865.2574151999997,2865.2574151999997,2869.837012,,,,2869.837314300001,2869.8528112999993,2869.8528112999993,2869.8528112999993,2870.1524403000003,,2870.1701704999996,,,,down,4.568155000000843,None,space,0.30561130000023695,None,,,,,,,,,,,,P132,001,2024-11-22_13h16.51.158,posner_endo_new1,2024.2.4,60.03445977934858,2024-11-22 13h17.00.049246 +0000,
0.005,-0.31,48,48,0,up,3.984311299998808,None,space,0.4309968999987177,None,,,,,0,48,48,48,,,,,2870.1857457000006,,,,,,,,,,,,2870.1703715000003,2870.1857457000006,2870.1857457000006,2874.1825774999998,,,,2874.1828791000007,2874.198327,2874.198327,2874.198327,2874.4980911000002,,2874.6320653000002,,,,up,3.984311299998808,None,space,0.4309968999987177,None,,,,,,,,,,,,P132,001,2024-11-22_13h16.51.158,posner_endo_new1,2024.2.4,60.03445977934858,2024-11-22 13h17.00.049246 +0000,
0.005,-0.31,49,49,0,down,3.202329400000963,None,space,0.447310199999265,None,,,,,0,49,49,49,,,,,2874.6477778000008,,,,,,,,,,,,2874.6322703000005,2874.6477778000008,2874.6477778000008,2877.8620444000007,,,,2877.8623669999997,2877.8778346,2877.8778346,2877.8778346,2878.1775349,,2878.3282660000004,,,,down,3.202329400000963,None,space,0.447310199999265,None,,,,,,,,,,,,P132,001,2024-11-22_13h16.51.158,posner_endo_new1,2024.2.4,60.03445977934858,2024-11-22 13h17.00.049246 +0000,
0.005,0.31,50,50,0,up,6.361901599999328,None,space,0.34739339999941876,None,,,,,0,50,50,50,,,,,2878.3440405,,,,,,,,,,,,2878.3284662000005,2878.3440405,2878.3440405,2884.7218771000007,,,,2884.722182199999,2884.737491600001,2884.737491600001,2884.737491600001,2885.0372162000003,,2885.0880417000008,,,,up,6.361901599999328,None,space,0.34739339999941876,None,,,,,,,,,,,,P132,001,2024-11-22_13h16.51.158,posner_endo_new1,2024.2.4,60.03445977934858,2024-11-22 13h17.00.049246 +0000,
0.31,0.005,51,51,0,down,2.811442199999874,None,space,0.29377040000144916,None,,,,,0,51,51,51,,,,,2885.103755,,,,,,,,,,,,2885.0882433000006,2885.103755,2885.103755,2887.9184819,,,,2887.9187903,2887.9342966000004,2887.9342966000004,2887.9342966000004,2888.2340153999994,,2888.2350214,,,,down,2.811442199999874,None,space,0.29377040000144916,None,,,,,,,,,,,,P132,001,2024-11-22_13h16.51.158,posner_endo_new1,2024.2.4,60.03445977934858,2024-11-22 13h17.00.049246 +0000,
0.31,0.005,52,52,0,up,3.736040400001002,None,space,0.3210119000013947,None,,,,,0,52,52,52,,,,,2888.2505906999995,,,,,,,,,,,,2888.235223400001,2888.2505906999995,2888.2505906999995,2891.9976361999998,,,,2891.9979390000008,2892.0134168000004,2892.0134168000004,2892.0134168000004,2892.3131740999997,,2892.3474394999994,,,,up,3.736040400001002,None,space,0.3210119000013947,None,,,,,,,,,,,,P132,001,2024-11-22_13h16.51.158,posner_endo_new1,2024.2.4,60.03445977934858,2024-11-22 13h17.00.049246 +0000,
0.005,0.31,53,53,0,down,3.367401699999391,None,space,0.33969839999917895,None,,,,,0,53,53,53,,,,,2892.3629265,,,,,,,,,,,,2892.3476472,2892.3629265,2892.3629265,2895.7439254,,,,2895.744226500001,2895.7596381999992,2895.7596381999992,2895.7596381999992,2896.0593252,,2896.1102938000004,,,,down,3.367401699999391,None,space,0.33969839999917895,None,,,,,,,,,,,,P132,001,2024-11-22_13h16.51.158,posner_endo_new1,2024.2.4,60.03445977934858,2024-11-22 13h17.00.049246 +0000,
-0.31,0.005,54,54,0,up,2.748838800000158,None,space,0.5219704999999522,None,,,,,0,54,54,54,,,,,2896.1258770000004,,,,,,,,,,,,2896.1104959000004,2896.1258770000004,2896.1258770000004,2898.8906169,,,,2898.8909282000004,2898.9063967,2898.9063967,2898.9063967,2899.206078200001,,2899.4401230000003,,,,up,2.748838800000158,None,space,0.5219704999999522,None,,,,,,,,,,,,P132,001,2024-11-22_13h16.51.158,posner_endo_new1,2024.2.4,60.03445977934858,2024-11-22 13h17.00.049246 +0000,
10,0.005,55,55,0,down,2.2183327000002464,None,None,,,,,,,0,55,55,55,,,,,2899.455811399999,,,,,,,,,,,,2899.4403342999994,2899.455811399999,2899.455811399999,2901.6877915000005,,,,2901.6880975000004,2901.7034624000007,2901.7034624000007,2901.7034624000007,2902.0031753999992,2902.7191715999998,2904.7006148,,,,down,2.2183327000002464,None,None,,,,,,,,,,,,,,P132,001,2024-11-22_13h16.51.158,posner_endo_new1,2024.2.4,60.03445977934858,2024-11-22 13h17.00.049246 +0000,
0.31,0.005,56,56,0,down,4.589512900000045,None,space,0.32958409999992,None,,,,,0,56,56,56,,,,,2904.7170449999994,,,,,,,,,,,,2904.7008102,2904.7170449999994,2904.7170449999994,2909.3133798,,,,2909.3136852999996,2909.3290204000004,2909.3290204000004,2909.3290204000004,2909.6287162999997,,2909.6630736000006,,,,down,4.589512900000045,None,space,0.32958409999992,None,,,,,,,,,,,,P132,001,2024-11-22_13h16.51.158,posner_endo_new1,2024.2.4,60.03445977934858,2024-11-22 13h17.00.049246 +0000,
0.005,0.31,57,57,0,up,5.747134299999743,None,space,0.43299429999933636,None,,,,,0,57,57,57,,,,,2909.6786840999994,,,,,,,,,,,,2909.6632740999994,2909.6786840999994,2909.6786840999994,2915.4404756000004,,,,2915.4407797999993,2915.4560579999998,2915.4560579999998,2915.4560579999998,2915.7558248999994,,2915.8900317000007,,,,up,5.747134299999743,None,space,0.43299429999933636,None,,,,,,,,,,,,P132,001,2024-11-22_13h16.51.158,posner_endo_new1,2024.2.4,60.03445977934858,2024-11-22 13h17.00.049246 +0000,
-0.31,0.005,58,58,0,down,2.992021800000657,None,space,0.29555749999963155,None,,,,,0,58,58,58,,,,,2915.9056065000004,,,,,,,,,,,,2915.8902340000004,2915.9056065000004,2915.9056065000004,2918.9035423999994,,,,2918.9038433999995,2918.9192836,2918.9192836,2918.9192836,2919.2187716000008,,2919.219869299999,,,,down,2.992021800000657,None,space,0.29555749999963155,None,,,,,,,,,,,,P132,001,2024-11-22_13h16.51.158,posner_endo_new1,2024.2.4,60.03445977934858,2024-11-22 13h17.00.049246 +0000,
-0.31,0.005,59,59,0,up,4.062701599999855,None,space,0.3756045999998605,None,,,,,0,59,59,59,,,,,2919.235563,,,,,,,,,,,,2919.2200685999996,2919.235563,2919.235563,2923.299200199999,,,,2923.2995071000005,2923.3147057000006,2923.3147057000006,2923.3147057000006,2923.6143825,,2923.6986123000006,,,,up,4.062701599999855,None,space,0.3756045999998605,None,,,,,,,,,,,,P132,001,2024-11-22_13h16.51.158,posner_endo_new1,2024.2.4,60.03445977934858,2024-11-22 13h17.00.049246 +0000,
,,,,,,,,,,,,,,,,,,,,,,,,,,,,,,,,,,,,,,,,,,,,,,,,,,,,,,,,,,2923.698743499999,2923.714312599999,2923.714312599999,2983.687150399999,None,,,,,,,P132,001,2024-11-22_13h16.51.158,posner_endo_new1,2024.2.4,60.03445977934858,2024-11-22 13h17.00.049246 +0000,
,,,,,,,,,,,,,,,,,,,,,,,,,,,,,,,,2983.6872079999994,2983.7029918000007,2986.700042799999,,,,,,,,,,,,,,,,,,,,,,,,,,,,,,,,,,,P132,001,2024-11-22_13h16.51.158,posner_endo_new1,2024.2.4,60.03445977934858,2024-11-22 13h17.00.049246 +0000,
0.005,0.31,0,0,0,up,15.322647099999813,None,None,,,,,,,,,,,0,0,0,0,2986.7198358999995,,,,,,,,,,,,2986.7113398,2986.7198358999995,2986.7198358999995,3002.0522951000003,,,,3002.0527134999993,3002.0677553999994,3002.0677553999994,3002.0677553999994,3002.3675003999997,3003.0832783999995,3005.0647105999997,,,,,,,,,,,,,,,up,15.322647099999813,None,None,,,P132,001,2024-11-22_13h16.51.158,posner_endo_new1,2024.2.4,60.03445977934858,2024-11-22 13h17.00.049246 +0000,
-0.31,0.005,1,1,0,down,0.40124830000058864,None,space,0.36115460000110033,None,,,,,,,,,0,1,1,1,3005.0812571000006,,,,,,,,,,,,3005.0649799000003,3005.0812571000006,3005.0812571000006,3005.498777500001,,,,3005.499182899999,3005.5141198,3005.5141198,3005.5141198,3005.8139009999995,,3005.8817781,,,,,,,,,,,,,,,down,0.40124830000058864,None,space,0.36115460000110033,None,P132,001,2024-11-22_13h16.51.158,posner_endo_new1,2024.2.4,60.03445977934858,2024-11-22 13h17.00.049246 +0000,
0.005,-0.31,2,2,0,up,3.657140799999979,None,space,0.33733790000042063,None,,,,,,,,,0,2,2,2,3005.8970580000005,,,,,,,,,,,,3005.8820662,3005.8970580000005,3005.8970580000005,3009.5612421000005,,,,3009.5616439000005,3009.5766704,3009.5766704,3009.5766704,3009.8763849000006,,3009.927421300001,,,,,,,,,,,,,,,up,3.657140799999979,None,space,0.33733790000042063,None,P132,001,2024-11-22_13h16.51.158,posner_endo_new1,2024.2.4,60.03445977934858,2024-11-22 13h17.00.049246 +0000,
0.31,0.005,3,3,0,down,3.95488800000021,None,space,0.3342300999993313,None,,,,,,,,,0,3,3,3,3009.9429406,,,,,,,,,,,,3009.9277046000007,3009.9429406,3009.9429406,3013.9068219,,,,3013.9072244,3013.9222456999996,3013.9222456999996,3013.9222456999996,3014.2219497999995,,3014.2732056999994,,,,,,,,,,,,,,,down,3.95488800000021,None,space,0.3342300999993313,None,P132,001,2024-11-22_13h16.51.158,posner_endo_new1,2024.2.4,60.03445977934858,2024-11-22 13h17.00.049246 +0000,
0.005,0.31,4,4,0,up,4.130765600000814,None,space,0.6070297999995091,None,,,,,,,,,0,4,4,4,3014.288461599999,,,,,,,,,,,,3014.2734929,3014.288461599999,3014.288461599999,3018.4356042,,,,3018.4360097999997,3018.4508327999993,3018.4508327999993,3018.4508327999993,3018.7506727,,3019.0683138000004,,,,,,,,,,,,,,,up,4.130765600000814,None,space,0.6070297999995091,None,P132,001,2024-11-22_13h16.51.158,posner_endo_new1,2024.2.4,60.03445977934858,2024-11-22 13h17.00.049246 +0000,
0.005,-0.31,5,5,0,down,2.807823899998766,None,space,0.35512609999932465,None,,,,,,,,,0,5,5,5,3019.0835413000004,,,,,,,,,,,,3019.068596700001,3019.0835413000004,3019.0835413000004,3021.898573799999,,,,3021.8989760000004,3021.9140026000005,3021.9140026000005,3021.9140026000005,3022.2137619000005,,3022.2816146000005,,,,,,,,,,,,,,,down,2.807823899998766,None,space,0.35512609999932465,None,P132,001,2024-11-22_13h16.51.158,posner_endo_new1,2024.2.4,60.03445977934858,2024-11-22 13h17.00.049246 +0000,
-0.31,0.005,6,6,0,up,3.0744577999994362,None,space,0.27535180000086257,None,,,,,,,,,0,6,6,6,3022.2969039,,,,,,,,,,,,3022.2818958000007,3022.2969039,3022.2969039,3025.3784259999993,,,,3025.3788284,3025.3938378000003,3025.3938378000003,3025.3938378000003,3025.6934987999994,,3025.6784365999993,,,,,,,,,,,,,,,up,3.0744577999994362,None,space,0.27535180000086257,None,P132,001,2024-11-22_13h16.51.158,posner_endo_new1,2024.2.4,60.03445977934858,2024-11-22 13h17.00.049246 +0000,
0.005,0.31,7,7,0,down,4.140531099999862,None,space,0.3128759999999602,None,,,,,,,,,0,7,7,7,3025.6934987999994,,,,,,,,,,,,3025.6787186,3025.6934987999994,3025.6934987999994,3029.8405576999994,,,,3029.8409663,3029.8559649,3029.8559649,3029.8559649,3030.1555678999994,,3030.173702599999,,,,,,,,,,,,,,,down,4.140531099999862,None,space,0.3128759999999602,None,P132,001,2024-11-22_13h16.51.158,posner_endo_new1,2024.2.4,60.03445977934858,2024-11-22 13h17.00.049246 +0000,
0.31,0.005,8,8,0,up,4.021471500000189,None,space,0.28559339999992517,None,,,,,,,,,0,8,8,8,3030.1889960000008,,,,,,,,,,,,3030.1739880000005,3030.1889960000008,3030.1889960000008,3034.2194634999996,,,,3034.2198869999993,3034.234720799999,3034.234720799999,3034.234720799999,3034.534498000001,,3034.5358371,,,,,,,,,,,,,,,up,4.021471500000189,None,space,0.28559339999992517,None,P132,001,2024-11-22_13h16.51.158,posner_endo_new1,2024.2.4,60.03445977934858,2024-11-22 13h17.00.049246 +0000,
10,0.005,9,9,0,down,3.2993635999991966,None,None,,,,,,,,,,,0,9,9,9,3034.551119399999,,,,,,,,,,,,3034.536115499999,3034.551119399999,3034.551119399999,3037.8657829000003,,,,3037.8661962000006,3037.8809817,3037.8809817,3037.8809817,3038.1807654000004,3038.8800415999995,3040.8780604000003,,,,,,,,,,,,,,,down,3.2993635999991966,None,None,,,P132,001,2024-11-22_13h16.51.158,posner_endo_new1,2024.2.4,60.03445977934858,2024-11-22 13h17.00.049246 +0000,
0.31,0.005,10,10,0,up,1.4112681000005978,None,space,0.3821098999997048,None,,,,,,,,,0,10,10,10,3040.8946639999995,,,,,,,,,,,,3040.8783399999993,3040.8946639999995,3040.8946639999995,3042.3112469999996,,,,3042.3116518000006,3042.3265066999993,3042.3265066999993,3042.3265066999993,3042.6262783,,3042.7109760000003,,,,,,,,,,,,,,,up,1.4112681000005978,None,space,0.3821098999997048,None,P132,001,2024-11-22_13h16.51.158,posner_endo_new1,2024.2.4,60.03445977934858,2024-11-22 13h17.00.049246 +0000,
0.005,0.31,11,11,0,down,3.251643100000365,None,space,0.3234265000010055,None,,,,,,,,,0,11,11,11,3042.7261727999994,,,,,,,,,,,,3042.7112557,3042.7261727999994,3042.7261727999994,3045.9907373999995,,,,3045.9911384000006,3046.0061122000006,3046.0061122000006,3046.0061122000006,3046.3058086,,3046.3404635000006,,,,,,,,,,,,,,,down,3.251643100000365,None,space,0.3234265000010055,None,P132,001,2024-11-22_13h16.51.158,posner_endo_new1,2024.2.4,60.03445977934858,2024-11-22 13h17.00.049246 +0000,
10,0.005,12,12,0,up,2.430541700001413,None,None,,,,,,,,,,,0,12,12,12,3046.3556363000007,,,,,,,,,,,,3046.3407489,3046.3556363000007,3046.3556363000007,3048.787908099999,,,,3048.7883378000006,3048.8032776,3048.8032776,3048.8032776,3049.1028974,3049.818823899999,3051.8002880000004,,,,,,,,,,,,,,,up,2.430541700001413,None,None,,,P132,001,2024-11-22_13h16.51.158,posner_endo_new1,2024.2.4,60.03445977934858,2024-11-22 13h17.00.049246 +0000,
-0.31,0.005,13,13,0,down,2.1694365000003017,None,space,0.5823149000007106,None,,,,,,,,,0,13,13,13,3051.8167496000005,,,,,,,,,,,,3051.8005589000004,3051.8167496000005,3051.8167496000005,3053.999077799999,,,,3053.9994828,3054.0145300000004,3054.0145300000004,3054.0145300000004,3054.3142931,,3054.5987998,,,,,,,,,,,,,,,down,2.1694365000003017,None,space,0.5823149000007106,None,P132,001,2024-11-22_13h16.51.158,posner_endo_new1,2024.2.4,60.03445977934858,2024-11-22 13h17.00.049246 +0000,
0.31,0.005,14,14,0,up,2.276445200001035,None,space,0.36762959999941813,None,,,,,,,,,0,14,14,14,3054.6141026999994,,,,,,,,,,,,3054.5990827000005,3054.6141026999994,3054.6141026999994,3056.896314400001,,,,3056.8967233000003,3056.9116544999997,3056.9116544999997,3056.9116544999997,3057.2113018,,3057.2958897999997,,,,,,,,,,,,,,,up,2.276445200001035,None,space,0.36762959999941813,None,P132,001,2024-11-22_13h16.51.158,posner_endo_new1,2024.2.4,60.03445977934858,2024-11-22 13h17.00.049246 +0000,
0.005,-0.31,15,15,0,down,3.763933800000814,None,space,0.3236409000001004,None,,,,,,,,,0,15,15,15,3057.311168099999,,,,,,,,,,,,3057.2961705,3057.311168099999,3057.311168099999,3061.0919909999993,,,,3061.0924104999995,3061.107281299999,3061.107281299999,3061.107281299999,3061.4071717000006,,3061.4416131,,,,,,,,,,,,,,,down,3.763933800000814,None,space,0.3236409000001004,None,P132,001,2024-11-22_13h16.51.158,posner_endo_new1,2024.2.4,60.03445977934858,2024-11-22 13h17.00.049246 +0000,
0.31,0.005,16,16,0,up,2.9531903000006423,None,space,0.48975419999987935,None,,,,,,,,,0,16,16,16,3061.4570459000006,,,,,,,,,,,,3061.4419037000007,3061.4570459000006,3061.4570459000006,3064.421985499999,,,,3064.4223973999997,3064.4373132,3064.4373132,3064.4373132,3064.7369072,,3064.9382081000003,,,,,,,,,,,,,,,up,2.9531903000006423,None,space,0.48975419999987935,None,P132,001,2024-11-22_13h16.51.158,posner_endo_new1,2024.2.4,60.03445977934858,2024-11-22 13h17.00.049246 +0000,
0.31,0.005,17,17,0,down,2.0495510999990074,None,space,0.28726470000037807,None,,,,,,,,,0,17,17,17,3064.9533938999994,,,,,,,,,,,,3064.9384995,3064.9533938999994,3064.9533938999994,3067.0191914000006,,,,3067.0196092000006,3067.034525700001,3067.034525700001,3067.034525700001,3067.3343643999997,,3067.3357006000006,,,,,,,,,,,,,,,down,2.0495510999990074,None,space,0.28726470000037807,None,P132,001,2024-11-22_13h16.51.158,posner_endo_new1,2024.2.4,60.03445977934858,2024-11-22 13h17.00.049246 +0000,
0.005,-0.31,18,18,0,up,2.435350699999617,None,space,0.35124570000152744,None,,,,,,,,,0,18,18,18,3067.3510246999995,,,,,,,,,,,,3067.3359803999992,3067.3510246999995,3067.3510246999995,3069.7997503000006,,,,3069.8001750999993,3069.8151030999998,3069.8151030999998,3069.8151030999998,3070.1147084999993,,3070.182163900001,,,,,,,,,,,,,,,up,2.435350699999617,None,space,0.35124570000152744,None,P132,001,2024-11-22_13h16.51.158,posner_endo_new1,2024.2.4,60.03445977934858,2024-11-22 13h17.00.049246 +0000,
0.005,-0.31,19,19,0,down,4.108637499999531,None,space,0.27668249999987893,None,,,,,,,,,0,19,19,19,3070.1979494999996,,,,,,,,,,,,3070.1823526000007,3070.1979494999996,3070.1979494999996,3074.3114461000005,,,,3074.3117284,3074.3270986000007,3074.3270986000007,3074.3270986000007,3074.6267998999992,,3074.6110069000006,,,,,,,,,,,,,,,down,4.108637499999531,None,space,0.27668249999987893,None,P132,001,2024-11-22_13h16.51.158,posner_endo_new1,2024.2.4,60.03445977934858,2024-11-22 13h17.00.049246 +0000,
10,0.005,20,20,0,up,2.5758592000001954,None,None,,,,,,,,,,,0,20,20,20,3074.6267998999992,,,,,,,,,,,,3074.6111875000006,3074.6267998999992,3074.6267998999992,3077.2083294999993,,,,3077.2086072,3077.2241400000003,3077.2241400000003,3077.2241400000003,3077.5239717000004,3078.2232041999996,3080.2212364999996,,,,,,,,,,,,,,,up,2.5758592000001954,None,None,,,P132,001,2024-11-22_13h16.51.158,posner_endo_new1,2024.2.4,60.03445977934858,2024-11-22 13h17.00.049246 +0000,
0.005,-0.31,21,21,0,down,0.5484849000004033,None,space,0.5024598999989394,None,,,,,,,,,0,21,21,21,3080.2377493000004,,,,,,,,,,,,3080.221419199999,3080.2377493000004,3080.2377493000004,3080.788138,,,,3080.7884231000007,3080.8037059,3080.8037059,3080.8037059,3081.1036079999994,,3081.3208300000006,,,,,,,,,,,,,,,down,0.5484849000004033,None,space,0.5024598999989394,None,P132,001,2024-11-22_13h16.51.158,posner_endo_new1,2024.2.4,60.03445977934858,2024-11-22 13h17.00.049246 +0000,
0.005,0.31,22,22,0,up,2.194446900000912,None,space,0.3062642999993841,None,,,,,,,,,0,22,22,22,3081.3366411999996,,,,,,,,,,,,3081.321011600001,3081.3366411999996,3081.3366411999996,3083.535358700001,,,,3083.5356310999996,3083.5510749000005,3083.5510749000005,3083.5510749000005,3083.8510547999995,,3083.8680686000007,,,,,,,,,,,,,,,up,2.194446900000912,None,space,0.3062642999993841,None,P132,001,2024-11-22_13h16.51.158,posner_endo_new1,2024.2.4,60.03445977934858,2024-11-22 13h17.00.049246 +0000,
0.31,0.005,23,23,0,down,3.3105044000003545,None,space,0.5460193999988405,None,,,,,,,,,0,23,23,23,3083.8839018,,,,,,,,,,,,3083.868252099999,3083.8839018,3083.8839018,3087.1980535000002,,,,3087.1983309000007,3087.2139061,3087.2139061,3087.2139061,3087.5135343,,3087.7642350999995,,,,,,,,,,,,,,,down,3.3105044000003545,None,space,0.5460193999988405,None,P132,001,2024-11-22_13h16.51.158,posner_endo_new1,2024.2.4,60.03445977934858,2024-11-22 13h17.00.049246 +0000,
-0.31,0.005,24,24,0,up,2.3578899999993155,None,space,0.3181079999994836,None,,,,,,,,,0,24,24,24,3087.7800432000004,,,,,,,,,,,,3087.7644156999995,3087.7800432000004,3087.7800432000004,3090.1450306000006,,,,3090.1453051999997,3090.1608259000004,3090.1608259000004,3090.1608259000004,3090.4606661,,3090.4948241,,,,,,,,,,,,,,,up,2.3578899999993155,None,space,0.3181079999994836,None,P132,001,2024-11-22_13h16.51.158,posner_endo_new1,2024.2.4,60.03445977934858,2024-11-22 13h17.00.049246 +0000,
10,0.005,25,25,0,down,2.9404472000005626,None,None,,,,,,,,,,,0,25,25,25,3090.5104162000007,,,,,,,,,,,,3090.4950104,3090.5104162000007,3090.5104162000007,3093.4583036999993,,,,3093.4585774000006,3093.4742102,3093.4742102,3093.4742102,3093.773921,3094.4898446999996,3096.4711441,,,,,,,,,,,,,,,down,2.9404472000005626,None,None,,,P132,001,2024-11-22_13h16.51.158,posner_endo_new1,2024.2.4,60.03445977934858,2024-11-22 13h17.00.049246 +0000,
0.005,0.31,26,26,0,up,1.6350811000011163,None,space,0.32700760000079754,None,,,,,,,,,0,26,26,26,3096.4877216999994,,,,,,,,,,,,3096.4713243999995,3096.4877216999994,3096.4877216999994,3098.1370148999995,,,,3098.137289800001,3098.1527926,3098.1527926,3098.1527926,3098.4524318999993,,3098.4864985999993,,,,,,,,,,,,,,,up,1.6350811000011163,None,space,0.32700760000079754,None,P132,001,2024-11-22_13h16.51.158,posner_endo_new1,2024.2.4,60.03445977934858,2024-11-22 13h17.00.049246 +0000,
0.31,0.005,27,27,0,down,3.69169040000088,None,space,0.32865420000052836,None,,,,,,,,,0,27,27,27,3098.502256399999,,,,,,,,,,,,3098.4866819,3098.502256399999,3098.502256399999,3102.1995183,,,,3102.1997647000007,3102.2151152999995,3102.2151152999995,3102.2151152999995,3102.5148107000005,,3102.5487983000003,,,,,,,,,,,,,,,down,3.69169040000088,None,space,0.32865420000052836,None,P132,001,2024-11-22_13h16.51.158,posner_endo_new1,2024.2.4,60.03445977934858,2024-11-22 13h17.00.049246 +0000,
0.005,0.31,28,28,0,up,3.4695177000012336,None,space,0.3919378000009601,None,,,,,,,,,0,28,28,28,3102.5650549,,,,,,,,,,,,3102.5489682000007,3102.5650549,3102.5650549,3106.0455304000006,,,,3106.045793200001,3106.061503499999,3106.061503499999,3106.061503499999,3106.3606867,,3106.4619430000002,,,,,,,,,,,,,,,up,3.4695177000012336,None,space,0.3919378000009601,None,P132,001,2024-11-22_13h16.51.158,posner_endo_new1,2024.2.4,60.03445977934858,2024-11-22 13h17.00.049246 +0000,
10,0.005,29,29,0,down,3.220753599998716,None,None,,,,,,,,,,,0,29,29,29,3106.4772515999994,,,,,,,,,,,,3106.4621119000003,3106.4772515999994,3106.4772515999994,3109.7085002000003,,,,3109.708759700001,3109.7243383999994,3109.7243383999994,3109.7243383999994,3110.024077,3110.7232891999993,3112.7213838000007,,,,,,,,,,,,,,,down,3.220753599998716,None,None,,,P132,001,2024-11-22_13h16.51.158,posner_endo_new1,2024.2.4,60.03445977934858,2024-11-22 13h17.00.049246 +0000,
0.005,-0.31,30,30,0,up,1.3937943000000814,None,space,0.35506550000172865,None,,,,,,,,,0,30,30,30,3112.7379464999995,,,,,,,,,,,,3112.7215521,3112.7379464999995,3112.7379464999995,3114.1367907999993,,,,3114.1370472,3114.1527613,3114.1527613,3114.1527613,3114.4527553999997,,3114.5203862,,,,,,,,,,,,,,,up,1.3937943000000814,None,space,0.35506550000172865,None,P132,001,2024-11-22_13h16.51.158,posner_endo_new1,2024.2.4,60.03445977934858,2024-11-22 13h17.00.049246 +0000,
0.31,0.005,31,31,0,down,4.2662049999999,None,space,0.343361700000969,None,,,,,,,,,0,31,31,31,3114.5362289000004,,,,,,,,,,,,3114.5205552000007,3114.5362289000004,3114.5362289000004,3118.815824699999,,,,3118.8160891999996,3118.8317116,3118.8317116,3118.8317116,3119.1314779000004,,3119.1820055000007,,,,,,,,,,,,,,,down,4.2662049999999,None,space,0.343361700000969,None,P132,001,2024-11-22_13h16.51.158,posner_endo_new1,2024.2.4,60.03445977934858,2024-11-22 13h17.00.049246 +0000,
10,0.005,32,32,0,up,3.5491361000003963,None,None,,,,,,,,,,,0,32,32,32,3119.1975512999998,,,,,,,,,,,,3119.1821903,3119.1975512999998,3119.1975512999998,3122.7614832,,,,3122.7617446000004,3122.7777229999992,3122.7777229999992,3122.7777229999992,3123.0774499,3123.7932586999996,3125.7745555,,,,,,,,,,,,,,,up,3.5491361000003963,None,None,,,P132,001,2024-11-22_13h16.51.158,posner_endo_new1,2024.2.4,60.03445977934858,2024-11-22 13h17.00.049246 +0000,
-0.31,0.005,33,33,0,down,0.6992090000003373,None,space,0.37775589999910153,None,,,,,,,,,0,33,33,33,3125.7909825999996,,,,,,,,,,,,3125.7747308,3125.7909825999996,3125.7909825999996,3126.490981000001,,,,3126.4912428000007,3126.5072039000006,3126.5072039000006,3126.5072039000006,3126.8070110999997,,3126.8909796000007,,,,,,,,,,,,,,,down,0.6992090000003373,None,space,0.37775589999910153,None,P132,001,2024-11-22_13h16.51.158,posner_endo_new1,2024.2.4,60.03445977934858,2024-11-22 13h17.00.049246 +0000,
10,0.005,34,34,0,up,3.111124600000039,None,None,,,,,,,,,,,0,34,34,34,3126.9069452000003,,,,,,,,,,,,3126.8911553,3126.9069452000003,3126.9069452000003,3130.0209035999997,,,,3130.0211629000005,3130.0369150999995,3130.0369150999995,3130.0369150999995,3130.3365225,3131.0355404,3133.0338864999994,,,,,,,,,,,,,,,up,3.111124600000039,None,None,,,P132,001,2024-11-22_13h16.51.158,posner_endo_new1,2024.2.4,60.03445977934858,2024-11-22 13h17.00.049246 +0000,
0.005,-0.31,35,35,0,down,1.7677585999990697,None,space,0.3886714000000211,None,,,,,,,,,0,35,35,35,3133.0504046999995,,,,,,,,,,,,3133.0340622000003,3133.0504046999995,3133.0504046999995,3134.8329630999997,,,,3134.8332205000006,3134.8482841000005,3134.8482841000005,3134.8482841000005,3135.1484803000003,,3135.248969099999,,,,,,,,,,,,,,,down,1.7677585999990697,None,space,0.3886714000000211,None,P132,001,2024-11-22_13h16.51.158,posner_endo_new1,2024.2.4,60.03445977934858,2024-11-22 13h17.00.049246 +0000,
0.31,0.005,36,36,0,up,3.1933410999990883,None,space,0.37266490000001795,None,,,,,,,,,0,36,36,36,3135.2648508,,,,,,,,,,,,3135.2491441,3135.2648508,3135.2648508,3138.4625269999997,,,,3138.4627892000008,3138.477838500001,3138.477838500001,3138.477838500001,3138.777969999999,,3138.8618246000005,,,,,,,,,,,,,,,up,3.1933410999990883,None,space,0.37266490000001795,None,P132,001,2024-11-22_13h16.51.158,posner_endo_new1,2024.2.4,60.03445977934858,2024-11-22 13h17.00.049246 +0000,
10,0.005,37,37,0,down,8.260692799998651,None,None,,,,,,,,,,,0,37,37,37,3138.877875,,,,,,,,,,,,3138.8619937999993,3138.877875,3138.877875,3147.1536233000006,,,,3147.1538997999996,3147.1693830999993,3147.1693830999993,3147.1693830999993,3147.469060199999,3148.1851105000005,3150.1666024000006,,,,,,,,,,,,,,,down,8.260692799998651,None,None,,,P132,001,2024-11-22_13h16.51.158,posner_endo_new1,2024.2.4,60.03445977934858,2024-11-22 13h17.00.049246 +0000,
10,0.005,38,38,0,up,1.867686199999298,None,None,,,,,,,,,,,0,38,38,38,3150.1830979000006,,,,,,,,,,,,3150.166780400001,3150.1830979000006,3150.1830979000006,3152.065146000001,,,,3152.0654068999993,3152.080816400001,3152.080816400001,3152.080816400001,3152.380797399999,3153.0798419000002,3155.0781669999997,,,,,,,,,,,,,,,up,1.867686199999298,None,None,,,P132,001,2024-11-22_13h16.51.158,posner_endo_new1,2024.2.4,60.03445977934858,2024-11-22 13h17.00.049246 +0000,
-0.31,0.005,39,39,0,down,1.0602566999987175,None,space,0.3985222999999678,None,,,,,,,,,0,39,39,39,3155.0945016999995,,,,,,,,,,,,3155.0783401999997,3155.0945016999995,3155.0945016999995,3156.1609150999993,,,,3156.161174500001,3156.176965299999,3156.176965299999,3156.176965299999,3156.476493,,3156.577266800001,,,,,,,,,,,,,,,down,1.0602566999987175,None,space,0.3985222999999678,None,P132,001,2024-11-22_13h16.51.158,posner_endo_new1,2024.2.4,60.03445977934858,2024-11-22 13h17.00.049246 +0000,
0.005,-0.31,40,40,0,up,2.6899090000006254,None,space,0.4376226999993378,None,,,,,,,,,0,40,40,40,3156.5930742,,,,,,,,,,,,3156.5774514999994,3156.5930742,3156.5930742,3159.2913117999997,,,,3159.2915694999992,3159.3070621999996,3159.3070621999996,3159.3070621999996,3159.6065416,,3159.757342000001,,,,,,,,,,,,,,,up,2.6899090000006254,None,space,0.4376226999993378,None,P132,001,2024-11-22_13h16.51.158,posner_endo_new1,2024.2.4,60.03445977934858,2024-11-22 13h17.00.049246 +0000,
0.005,-0.31,41,41,0,down,4.373546900000292,None,space,0.7295634000001883,None,,,,,,,,,0,41,41,41,3159.7732309000003,,,,,,,,,,,,3159.7575147999996,3159.7732309000003,3159.7732309000003,3164.1530299000005,,,,3164.1532898000005,3164.168679300001,3164.168679300001,3164.168679300001,3164.4684130999995,,3164.9021329000007,,,,,,,,,,,,,,,down,4.373546900000292,None,space,0.7295634000001883,None,P132,001,2024-11-22_13h16.51.158,posner_endo_new1,2024.2.4,60.03445977934858,2024-11-22 13h17.00.049246 +0000,
10,0.005,42,42,0,up,3.1253281999997853,None,None,,,,,,,,,,,0,42,42,42,3164.9176666999992,,,,,,,,,,,,3164.9023242999992,3164.9176666999992,3164.9176666999992,3168.0488525,,,,3168.0491172,3168.0646183999997,3168.0646183999997,3168.0646183999997,3168.364351,3169.0636527000006,3171.0618042999995,,,,,,,,,,,,,,,up,3.1253281999997853,None,None,,,P132,001,2024-11-22_13h16.51.158,posner_endo_new1,2024.2.4,60.03445977934858,2024-11-22 13h17.00.049246 +0000,
0.005,-0.31,43,43,0,down,1.0605098999985785,None,space,0.36231989999942016,None,,,,,,,,,0,43,43,43,3171.0784296,,,,,,,,,,,,3171.0619721000003,3171.0784296,3171.0784296,3172.144681399999,,,,3172.1449443,3172.1605951,3172.1605951,3172.1605951,3172.4601767000004,,3172.5277867000004,,,,,,,,,,,,,,,down,1.0605098999985785,None,space,0.36231989999942016,None,P132,001,2024-11-22_13h16.51.158,posner_endo_new1,2024.2.4,60.03445977934858,2024-11-22 13h17.00.049246 +0000,
-0.31,0.005,44,44,0,up,7.69948789999944,None,space,0.3684837000000698,None,,,,,,,,,0,44,44,44,3172.5433802999996,,,,,,,,,,,,3172.5279587999994,3172.5433802999996,3172.5433802999996,3180.2531431999996,,,,3180.2534042000007,3180.269048100001,3180.269048100001,3180.269048100001,3180.5680716999996,,3180.6525149999998,,,,,,,,,,,,,,,up,7.69948789999944,None,space,0.3684837000000698,None,P132,001,2024-11-22_13h16.51.158,posner_endo_new1,2024.2.4,60.03445977934858,2024-11-22 13h17.00.049246 +0000,
10,0.005,45,45,0,down,2.9502442000011797,None,None,,,,,,,,,,,0,45,45,45,3180.668675000001,,,,,,,,,,,,3180.6526876000007,3180.668675000001,3180.668675000001,3183.6327175000006,,,,3183.6329883,3183.6488322000005,3183.6488322000005,3183.6488322000005,3183.9482468999995,3184.6644767,3186.6454188000007,,,,,,,,,,,,,,,down,2.9502442000011797,None,None,,,P132,001,2024-11-22_13h16.51.158,posner_endo_new1,2024.2.4,60.03445977934858,2024-11-22 13h17.00.049246 +0000,
0.005,0.31,46,46,0,up,7.3005926000005275,None,space,0.396353200001613,None,,,,,,,,,0,46,46,46,3186.6622707000006,,,,,,,,,,,,3186.6455883,3186.6622707000006,3186.6622707000006,3193.9724373999998,,,,3193.9726917999997,3193.9882419000005,3193.9882419000005,3193.9882419000005,3194.2880244999997,,3194.3888291000003,,,,,,,,,,,,,,,up,7.3005926000005275,None,space,0.396353200001613,None,P132,001,2024-11-22_13h16.51.158,posner_endo_new1,2024.2.4,60.03445977934858,2024-11-22 13h17.00.049246 +0000,
0.005,-0.31,47,47,0,down,5.549826300000859,None,space,0.30931000000055064,None,,,,,,,,,0,47,47,47,3194.4044491000004,,,,,,,,,,,,3194.3889977,3194.4044491000004,3194.4044491000004,3199.9660549,,,,3199.966315400001,3199.9821551000005,3199.9821551000005,3199.9821551000005,3200.2818767999997,,3200.2993239999996,,,,,,,,,,,,,,,down,5.549826300000859,None,space,0.30931000000055064,None,P132,001,2024-11-22_13h16.51.158,posner_endo_new1,2024.2.4,60.03445977934858,2024-11-22 13h17.00.049246 +0000,
0.31,0.005,48,48,0,up,6.655646799999886,None,space,0.338582000000315,None,,,,,,,,,0,48,48,48,3200.3152032,,,,,,,,,,,,3200.2994937999993,3200.3152032,3200.3152032,3206.9754089,,,,3206.9756679,3206.9916135000003,3206.9916135000003,3206.9916135000003,3207.2912904999994,,3207.3420012999995,,,,,,,,,,,,,,,up,6.655646799999886,None,space,0.338582000000315,None,P132,001,2024-11-22_13h16.51.158,posner_endo_new1,2024.2.4,60.03445977934858,2024-11-22 13h17.00.049246 +0000,
-0.31,0.005,49,49,0,down,4.044716700000208,None,space,0.41513730000042415,None,,,,,,,,,0,49,49,49,3207.3577815999997,,,,,,,,,,,,3207.3421765000003,3207.3577815999997,3207.3577815999997,3211.4046156999993,,,,3211.4048760999995,3211.4203271000006,3211.4203271000006,3211.4203271000006,3211.7202466,,3211.8374373000006,,,,,,,,,,,,,,,down,4.044716700000208,None,space,0.41513730000042415,None,P132,001,2024-11-22_13h16.51.158,posner_endo_new1,2024.2.4,60.03445977934858,2024-11-22 13h17.00.049246 +0000,
0.005,0.31,50,50,0,up,3.1653956000009202,None,space,0.39801689999876544,None,,,,,,,,,0,50,50,50,3211.8535224999996,,,,,,,,,,,,3211.837612200001,3211.8535224999996,3211.8535224999996,3215.034237,,,,3215.0344941000003,3215.0499615999997,3215.0499615999997,3215.0499615999997,3215.3500305,,3215.4504264999996,,,,,,,,,,,,,,,up,3.1653956000009202,None,space,0.39801689999876544,None,P132,001,2024-11-22_13h16.51.158,posner_endo_new1,2024.2.4,60.03445977934858,2024-11-22 13h17.00.049246 +0000,
0.005,0.31,51,51,0,down,3.761708099998941,None,space,0.2969803999985743,None,,,,,,,,,0,51,51,51,3215.4659821000005,,,,,,,,,,,,3215.4506019,3215.4659821000005,3215.4659821000005,3219.230075900001,,,,3219.230332700001,3219.2457801,3219.2457801,3219.2457801,3219.5450545999993,,3219.5459888000005,,,,,,,,,,,,,,,down,3.761708099998941,None,space,0.2969803999985743,None,P132,001,2024-11-22_13h16.51.158,posner_endo_new1,2024.2.4,60.03445977934858,2024-11-22 13h17.00.049246 +0000,
10,0.005,52,52,0,up,3.320855500000107,None,None,,,,,,,,,,,0,52,52,52,3219.5621066000003,,,,,,,,,,,,3219.5461546999995,3219.5621066000003,3219.5621066000003,3222.8927853000005,,,,3222.8930514999993,3222.9084263000004,3222.9084263000004,3222.9084263000004,3223.2081768999997,3223.907605300001,3225.9058012999994,,,,,,,,,,,,,,,up,3.320855500000107,None,None,,,P132,001,2024-11-22_13h16.51.158,posner_endo_new1,2024.2.4,60.03445977934858,2024-11-22 13h17.00.049246 +0000,
-0.31,0.005,53,53,0,down,0.9438276000000769,None,space,0.3559972999992169,None,,,,,,,,,0,53,53,53,3225.9223074,,,,,,,,,,,,3225.9059686,3225.9223074,3225.9223074,3226.8722763999995,,,,3226.872534100001,3226.8878236,3226.8878236,3226.8878236,3227.1876183999993,,3227.2549099000007,,,,,,,,,,,,,,,down,0.9438276000000769,None,space,0.3559972999992169,None,P132,001,2024-11-22_13h16.51.158,posner_endo_new1,2024.2.4,60.03445977934858,2024-11-22 13h17.00.049246 +0000,
10,0.005,54,54,0,up,3.227874599999268,None,None,,,,,,,,,,,0,54,54,54,3227.2708287000005,,,,,,,,,,,,3227.2550835,3227.2708287000005,3227.2708287000005,3230.5016324000007,,,,3230.5018911999996,3230.5175361,3230.5175361,3230.5175361,3230.8173109,3231.5165935000005,3233.5145716999996,,,,,,,,,,,,,,,up,3.227874599999268,None,None,,,P132,001,2024-11-22_13h16.51.158,posner_endo_new1,2024.2.4,60.03445977934858,2024-11-22 13h17.00.049246 +0000,
0.005,0.31,55,55,0,down,1.0000746000005165,None,space,0.30675800000062736,None,,,,,,,,,0,55,55,55,3233.5311285999996,,,,,,,,,,,,3233.514735999999,3233.5311285999996,3233.5311285999996,3234.5475855999994,,,,3234.5478435000005,3234.5634362,3234.5634362,3234.5634362,3234.8629985000007,,3234.8807054999997,,,,,,,,,,,,,,,down,1.0000746000005165,None,space,0.30675800000062736,None,P132,001,2024-11-22_13h16.51.158,posner_endo_new1,2024.2.4,60.03445977934858,2024-11-22 13h17.00.049246 +0000,
0.005,-0.31,56,56,0,up,3.1067115000005288,None,space,0.491280000000188,None,,,,,,,,,0,56,56,56,3234.8964904000004,,,,,,,,,,,,3234.8808757000006,3234.8964904000004,3234.8964904000004,3238.0105454000004,,,,3238.010799400001,3238.0261745000007,3238.0261745000007,3238.0261745000007,3238.326291900001,,3238.526828100001,,,,,,,,,,,,,,,up,3.1067115000005288,None,space,0.491280000000188,None,P132,001,2024-11-22_13h16.51.158,posner_endo_new1,2024.2.4,60.03445977934858,2024-11-22 13h17.00.049246 +0000,
0.005,0.31,57,57,0,down,2.9557213999996748,None,space,0.3044601000001421,None,,,,,,,,,0,57,57,57,3238.5427643000003,,,,,,,,,,,,3238.5269979000004,3238.5427643000003,3238.5427643000003,3241.5069674000006,,,,3241.5072239,3241.5230656999993,3241.5230656999993,3241.5230656999993,3241.8225772999995,,3241.840013000001,,,,,,,,,,,,,,,down,2.9557213999996748,None,space,0.3044601000001421,None,P132,001,2024-11-22_13h16.51.158,posner_endo_new1,2024.2.4,60.03445977934858,2024-11-22 13h17.00.049246 +0000,
-0.31,0.005,58,58,0,up,4.2344852999995055,None,space,0.30642880000050354,None,,,,,,,,,0,58,58,58,3241.8560362999997,,,,,,,,,,,,3241.8401978,3241.8560362999997,3241.8560362999997,3246.1025040000004,,,,3246.1027682999993,3246.1183457000006,3246.1183457000006,3246.1183457000006,3246.417952399999,,3246.4355244,,,,,,,,,,,,,,,up,4.2344852999995055,None,space,0.30642880000050354,None,P132,001,2024-11-22_13h16.51.158,posner_endo_new1,2024.2.4,60.03445977934858,2024-11-22 13h17.00.049246 +0000,
-0.31,0.005,59,59,0,down,3.959741500000746,None,space,0.35697129999971366,None,,,,,,,,,0,59,59,59,3246.4512646999992,,,,,,,,,,,,3246.4356953999995,3246.4512646999992,3246.4512646999992,3250.4147778999995,,,,3250.4150480999997,3250.4305948,3250.4305948,3250.4305948,3250.7302918999994,,3250.7973994000004,,,,,,,,,,,,,,,down,3.959741500000746,None,space,0.35697129999971366,None,P132,001,2024-11-22_13h16.51.158,posner_endo_new1,2024.2.4,60.03445977934858,2024-11-22 13h17.00.049246 +0000,
