target_y,target_x,thisN,thisTrialN,thisRepN,key_control2.keys,key_control2.rt,key_control2.duration,key_resp.keys,key_resp.rt,key_resp.duration,practice.thisRepN,practice.thisTrialN,practice.thisN,practice.thisIndex,session_1.thisRepN,session_1.thisTrialN,session_1.thisN,session_1.thisIndex,session_2.thisRepN,session_2.thisTrialN,session_2.thisN,session_2.thisIndex,thisRow.t,notes,instructions.started,instructions_txt.started,key_control.started,instructions.stopped,key_control.keys,key_control.rt,key_control.duration,ready.started,ready_txt.started,ready.stopped,fix.started,key_control2.started,fixation_cross.started,fix.stopped,practice.key_control2.keys,practice.key_control2.rt,practice.key_control2.duration,target.started,star.started,fixation_cross_target.started,key_resp.started,star.stopped,target.stopped,practice.key_resp.keys,practice.key_resp.rt,practice.key_resp.duration,key_resp.stopped,session_1.key_control2.keys,session_1.key_control2.rt,session_1.key_control2.duration,session_1.key_resp.keys,session_1.key_resp.rt,session_1.key_resp.duration,break_2.started,text.started,key_control3.started,break_2.stopped,key_control3.keys,session_2.key_control2.keys,session_2.key_control2.rt,session_2.key_control2.duration,session_2.key_resp.keys,session_2.key_resp.rt,session_2.key_resp.duration,participant,session,date,expName,psychopyVersion,frameRate,expStart,
,,,,,,,,,,,,,,,,,,,,,,,,,0.0074583000000529864,0.029211900000063906,0.029211900000063906,588.7686268,up,588.7271131000002,None,,,,,,,,,,,,,,,,,,,,,,,,,,,,,,,,,,,,,,P134,001,2024-12-12_12h50.06.670,posner_endo_new1,2024.2.4,59.978539678444044,2024-12-12 12h50.15.163974 +0000,
,,,,,,,,,,,,,,,,,,,,,,,,,,,,,,,,588.7687064999998,588.7822173000002,591.7766804999999,,,,,,,,,,,,,,,,,,,,,,,,,,,,,,,,,,,P134,001,2024-12-12_12h50.06.670,posner_endo_new1,2024.2.4,59.978539678444044,2024-12-12 12h50.15.163974 +0000,
-0.31,0.005,0,0,0,up,4.455896299999949,None,space,0.47146010000005845,None,0,0,0,0,,,,,,,,,591.7959732000002,,,,,,,,,,,,591.7858475,591.7959732000002,591.7959732000002,596.2564915,up,4.455896299999949,None,596.2567627000001,596.2720539,596.2720539,596.2720539,596.5718638999999,596.7557543999999,space,0.47146010000005845,None,,,,,,,,,,,,,,,,,,,P134,001,2024-12-12_12h50.06.670,posner_endo_new1,2024.2.4,59.978539678444044,2024-12-12 12h50.15.163974 +0000,
0.005,-0.31,1,1,0,down,3.784501199999795,None,space,0.3449785000002521,None,0,1,1,7,,,,,,,,,596.7715332,,,,,,,,,,,,596.7559170000002,596.7715332,596.7715332,600.5689375999998,down,3.784501199999795,None,600.5691849000002,600.5843774000002,600.5843774000002,600.5843774000002,600.8840816,600.9349083999998,space,0.3449785000002521,None,,,,,,,,,,,,,,,,,,,P134,001,2024-12-12_12h50.06.670,posner_endo_new1,2024.2.4,59.978539678444044,2024-12-12 12h50.15.163974 +0000,
-0.31,0.005,2,2,0,up,5.326947399999881,None,space,0.29492069999969317,None,0,2,2,2,,,,,,,,,600.9504393,,,,,,,,,,,,600.9350692999999,600.9504393,600.9504393,606.2796101000001,up,5.326947399999881,None,606.2798547,606.2952023,606.2952023,606.2952023,606.5950151,606.5959226000002,space,0.29492069999969317,None,,,,,,,,,,,,,,,,,,,P134,001,2024-12-12_12h50.06.670,posner_endo_new1,2024.2.4,59.978539678444044,2024-12-12 12h50.15.163974 +0000,
0.31,0.005,3,3,0,down,17.35274359999994,None,space,0.42703179999989516,None,0,3,3,1,,,,,,,,,606.6114402999999,,,,,,,,,,,,606.5960811000002,606.6114402999999,606.6114402999999,623.9782813999998,down,17.35274359999994,None,623.9786661999999,623.9938330000002,623.9938330000002,623.9938330000002,624.2937324000002,624.4279551000002,space,0.42703179999989516,None,,,,,,,,,,,,,,,,,,,P134,001,2024-12-12_12h50.06.670,posner_endo_new1,2024.2.4,59.978539678444044,2024-12-12 12h50.15.163974 +0000,
0.005,0.31,4,4,0,up,8.552573200000097,None,space,0.41186930000003485,None,0,4,4,8,,,,,,,,,624.4432005000001,,,,,,,,,,,,624.4282208000002,624.4432005000001,624.4432005000001,633.0024983999999,up,8.552573200000097,None,633.0028851,633.017818,633.017818,633.017818,633.3175041000002,633.4354605999999,space,0.41186930000003485,None,,,,,,,,,,,,,,,,,,,P134,001,2024-12-12_12h50.06.670,posner_endo_new1,2024.2.4,59.978539678444044,2024-12-12 12h50.15.163974 +0000,
0.005,10,5,5,0,down,4.241689699999824,None,None,,,0,5,5,9,,,,,,,,,633.4509135000001,,,,,,,,,,,,633.4357292000002,633.4509135000001,633.4509135000001,637.6977976999999,down,4.241689699999824,None,637.6981781000002,637.7129968000002,637.7129968000002,637.7129968000002,638.0126791,640.7103488,None,,,638.7120483000001,,,,,,,,,,,,,,,,,,P134,001,2024-12-12_12h50.06.670,posner_endo_new1,2024.2.4,59.978539678444044,2024-12-12 12h50.15.163974 +0000,
0.005,0.31,6,6,0,down,4.509109600000102,None,space,0.3891887999998289,None,0,6,6,6,,,,,,,,,640.7267543,,,,,,,,,,,,640.7105961,640.7267543,640.7267543,645.2400623999999,down,4.509109600000102,None,645.2404438000001,645.2553868000002,645.2553868000002,645.2553868000002,645.5550897,645.6562270000002,space,0.3891887999998289,None,,,,,,,,,,,,,,,,,,,P134,001,2024-12-12_12h50.06.670,posner_endo_new1,2024.2.4,59.978539678444044,2024-12-12 12h50.15.163974 +0000,
10,0.005,7,7,0,up,2.532045300000391,None,None,,,0,7,7,4,,,,,,,,,645.6716807,,,,,,,,,,,,645.6564894,645.6716807,645.6716807,648.2202325999999,up,2.532045300000391,None,648.2206144999998,648.2356384000002,648.2356384000002,648.2356384000002,648.5354568,651.2328196999999,None,,,649.2512086999998,,,,,,,,,,,,,,,,,,P134,001,2024-12-12_12h50.06.670,posner_endo_new1,2024.2.4,59.978539678444044,2024-12-12 12h50.15.163974 +0000,
0.005,-0.31,8,8,0,down,1.4345425999999861,None,space,0.3421587999996518,None,0,8,8,5,,,,,,,,,651.2492911000002,,,,,,,,,,,,651.2330699000001,651.2492911000002,651.2492911000002,652.6991639,down,1.4345425999999861,None,652.6995445,652.7145505999999,652.7145505999999,652.7145505999999,653.0141434999998,653.0656359000002,space,0.3421587999996518,None,,,,,,,,,,,,,,,,,,,P134,001,2024-12-12_12h50.06.670,posner_endo_new1,2024.2.4,59.978539678444044,2024-12-12 12h50.15.163974 +0000,
0.31,0.005,9,9,0,up,2.6518482000001313,None,space,0.31410280000000057,None,0,9,9,3,,,,,,,,,653.0807707000001,,,,,,,,,,,,653.0659053000002,653.0807707000001,653.0807707000001,655.7457499,up,2.6518482000001313,None,655.7461341000001,655.7613134000001,655.7613134000001,655.7613134000001,656.0610066000002,656.0788667999998,space,0.31410280000000057,None,,,,,,,,,,,,,,,,,,,P134,001,2024-12-12_12h50.06.670,posner_endo_new1,2024.2.4,59.978539678444044,2024-12-12 12h50.15.163974 +0000,
,,,,,,,,,,,,,,,,,,,,,,,,,,,,,,,,656.0790407000002,656.0944554999999,659.0915173000001,,,,,,,,,,,,,,,,,,,,,,,,,,,,,,,,,,,P134,001,2024-12-12_12h50.06.670,posner_endo_new1,2024.2.4,59.978539678444044,2024-12-12 12h50.15.163974 +0000,
-0.31,0.005,0,0,0,up,17.761016600000403,None,space,0.32106100000009974,None,,,,,0,0,0,0,,,,,659.1234563999999,,,,,,,,,,,,659.1137821,659.1234563999999,659.1234563999999,676.8907311,,,,676.8910797999999,676.9063743999998,676.9063743999998,676.9063743999998,677.2061328000002,677.2405569999999,,,,,up,17.761016600000403,None,space,0.32106100000009974,None,,,,,,,,,,,,P134,001,2024-12-12_12h50.06.670,posner_endo_new1,2024.2.4,59.978539678444044,2024-12-12 12h50.15.163974 +0000,
0.005,-0.31,1,1,0,down,3.860423399999945,None,space,0.313859599999887,None,,,,,0,1,1,1,,,,,677.2559899999999,,,,,,,,,,,,677.2407949999999,677.2559899999999,677.2559899999999,681.1198735,,,,681.1202120999999,681.1354537999998,681.1354537999998,681.1354537999998,681.4350797999998,681.4529294000001,,,,,down,3.860423399999945,None,space,0.313859599999887,None,,,,,,,,,,,,P134,001,2024-12-12_12h50.06.670,posner_endo_new1,2024.2.4,59.978539678444044,2024-12-12 12h50.15.163974 +0000,
10,0.005,2,2,0,up,3.424269600000116,None,None,,,,,,,0,2,2,2,,,,,681.4683837,,,,,,,,,,,,681.4531690000001,681.4683837,681.4683837,684.8992092999999,,,,684.8995470000002,684.9147346000002,684.9147346000002,684.9147346000002,685.2145096000002,687.9119776,,,,685.9138712000001,up,3.424269600000116,None,None,,,,,,,,,,,,,,P134,001,2024-12-12_12h50.06.670,posner_endo_new1,2024.2.4,59.978539678444044,2024-12-12 12h50.15.163974 +0000,
0.005,-0.31,3,3,0,down,1.451684699999987,None,space,0.3017704999997477,None,,,,,0,3,3,3,,,,,687.9284405999999,,,,,,,,,,,,687.9122122000001,687.9284405999999,687.9284405999999,689.3946643000002,,,,689.3950014,689.4103437000001,689.4103437000001,689.4103437000001,689.7100079999998,689.7276597000002,,,,,down,1.451684699999987,None,space,0.3017704999997477,None,,,,,,,,,,,,P134,001,2024-12-12_12h50.06.670,posner_endo_new1,2024.2.4,59.978539678444044,2024-12-12 12h50.15.163974 +0000,
0.005,-0.31,4,4,0,up,2.6851959000000534,None,space,0.26029349999998885,None,,,,,0,4,4,4,,,,,689.7431933,,,,,,,,,,,,689.7279003000001,689.7431933,689.7431933,692.4415271,,,,692.4418695000002,692.4570894000001,692.4570894000001,692.4570894000001,,692.7245252999999,,,,,up,2.6851959000000534,None,space,0.26029349999998885,None,,,,,,,,,,,,P134,001,2024-12-12_12h50.06.670,posner_endo_new1,2024.2.4,59.978539678444044,2024-12-12 12h50.15.163974 +0000,
0.005,-0.31,5,5,0,down,3.8722641999997904,None,space,0.28908540000020366,None,,,,,0,5,5,5,,,,,692.7401388000001,,,,,,,,,,,,692.7247678000001,692.7401388000001,692.7401388000001,696.6207926,,,,696.6211338,696.6363822999999,696.6363822999999,696.6363822999999,696.9359385999999,696.9370418000001,,,,,down,3.8722641999997904,None,space,0.28908540000020366,None,,,,,,,,,,,,P134,001,2024-12-12_12h50.06.670,posner_endo_new1,2024.2.4,59.978539678444044,2024-12-12 12h50.15.163974 +0000,
0.005,0.31,6,6,0,up,3.571275499999956,None,space,0.25587839999980133,None,,,,,0,6,6,6,,,,,696.9525301000001,,,,,,,,,,,,696.937279,696.9525301000001,696.9525301000001,700.5332516000001,,,,700.5335905,700.5488668,700.5488668,700.5488668,,700.8163447999998,,,,,up,3.571275499999956,None,space,0.25587839999980133,None,,,,,,,,,,,,P134,001,2024-12-12_12h50.06.670,posner_endo_new1,2024.2.4,59.978539678444044,2024-12-12 12h50.15.163974 +0000,
0.005,0.31,7,7,0,down,4.388178799999878,None,space,0.294693400000142,None,,,,,0,7,7,7,,,,,700.8318259,,,,,,,,,,,,700.8165843999998,700.8318259,700.8318259,705.2283795000001,,,,705.2287179000002,705.2441206000001,705.2441206000001,705.2441206000001,705.5437435000001,705.5449464000001,,,,,down,4.388178799999878,None,space,0.294693400000142,None,,,,,,,,,,,,P134,001,2024-12-12_12h50.06.670,posner_endo_new1,2024.2.4,59.978539678444044,2024-12-12 12h50.15.163974 +0000,
-0.31,0.005,8,8,0,up,3.212091899999905,None,space,0.25698370000009163,None,,,,,0,8,8,8,,,,,705.5603752999998,,,,,,,,,,,,705.5451824999998,705.5603752999998,705.5603752999998,708.7748339000002,,,,708.7751767000002,708.7903714000001,708.7903714000001,708.7903714000001,,709.0579086999999,,,,,up,3.212091899999905,None,space,0.25698370000009163,None,,,,,,,,,,,,P134,001,2024-12-12_12h50.06.670,posner_endo_new1,2024.2.4,59.978539678444044,2024-12-12 12h50.15.163974 +0000,
-0.31,0.005,9,9,0,down,3.443276500000138,None,space,0.24524800000017422,None,,,,,0,9,9,9,,,,,709.0734755999999,,,,,,,,,,,,709.0581475000001,709.0734755999999,709.0734755999999,712.5211889,,,,712.5215279000001,712.5366544000001,712.5366544000001,712.5366544000001,,712.7874687000001,,,,,down,3.443276500000138,None,space,0.24524800000017422,None,,,,,,,,,,,,P134,001,2024-12-12_12h50.06.670,posner_endo_new1,2024.2.4,59.978539678444044,2024-12-12 12h50.15.163974 +0000,
-0.31,0.005,10,10,0,up,3.9527953000001617,None,space,0.28231270000014774,None,,,,,0,10,10,10,,,,,712.8029551000002,,,,,,,,,,,,712.7877148,712.8029551000002,712.8029551000002,716.7667809000002,,,,716.7671283000002,716.7823255000001,716.7823255000001,716.7823255000001,717.0819767999999,717.0667280999999,,,,,up,3.9527953000001617,None,space,0.28231270000014774,None,,,,,,,,,,,,P134,001,2024-12-12_12h50.06.670,posner_endo_new1,2024.2.4,59.978539678444044,2024-12-12 12h50.15.163974 +0000,
-0.31,0.005,11,11,0,down,3.7787319999997635,None,space,0.2995362000001478,None,,,,,0,11,11,11,,,,,717.0819767999999,,,,,,,,,,,,717.0669678000002,717.0819767999999,717.0819767999999,720.8626381000001,,,,720.8629784000002,720.8781172000001,720.8781172000001,720.8781172000001,721.1777706999999,721.1789835000002,,,,,down,3.7787319999997635,None,space,0.2995362000001478,None,,,,,,,,,,,,P134,001,2024-12-12_12h50.06.670,posner_endo_new1,2024.2.4,59.978539678444044,2024-12-12 12h50.15.163974 +0000,
0.005,-0.31,12,12,0,up,4.433522400000129,None,space,0.259737199999563,None,,,,,0,12,12,12,,,,,721.1945192000001,,,,,,,,,,,,721.1792207999999,721.1945192000001,721.1945192000001,725.6410259000002,,,,725.6413642,725.6565038000001,725.6565038000001,725.6565038000001,,725.9241749,,,,,up,4.433522400000129,None,space,0.259737199999563,None,,,,,,,,,,,,P134,001,2024-12-12_12h50.06.670,posner_endo_new1,2024.2.4,59.978539678444044,2024-12-12 12h50.15.163974 +0000,
0.005,-0.31,13,13,0,down,3.9211801999999807,None,space,0.31412289999980203,None,,,,,0,13,13,13,,,,,725.9395320000001,,,,,,,,,,,,725.9244166000001,725.9395320000001,725.9395320000001,729.8700114000001,,,,729.8703576999999,729.8856167000001,729.8856167000001,729.8856167000001,730.1852566,730.2029731999999,,,,,down,3.9211801999999807,None,space,0.31412289999980203,None,,,,,,,,,,,,P134,001,2024-12-12_12h50.06.670,posner_endo_new1,2024.2.4,59.978539678444044,2024-12-12 12h50.15.163974 +0000,
-0.31,0.005,14,14,0,up,2.817914799999926,None,space,0.23023969999985638,None,,,,,0,14,14,14,,,,,730.2184856000001,,,,,,,,,,,,730.2032167999998,730.2184856000001,730.2184856000001,733.0499928000002,,,,733.0503379999998,733.0659991,733.0659991,733.0659991,,733.2999556000002,,,,,up,2.817914799999926,None,space,0.23023969999985638,None,,,,,,,,,,,,P134,001,2024-12-12_12h50.06.670,posner_endo_new1,2024.2.4,59.978539678444044,2024-12-12 12h50.15.163974 +0000,
10,0.005,15,15,0,down,4.776462400000128,None,None,,,,,,,0,15,15,15,,,,,733.3154361999998,,,,,,,,,,,,733.3001995000002,733.3154361999998,733.3154361999998,738.0948028,,,,738.0951412000002,738.1105301,738.1105301,738.1105301,738.4101490999999,741.1075576000001,,,,739.1260688999998,down,4.776462400000128,None,None,,,,,,,,,,,,,,P134,001,2024-12-12_12h50.06.670,posner_endo_new1,2024.2.4,59.978539678444044,2024-12-12 12h50.15.163974 +0000,
0.005,0.31,16,16,0,up,1.5123610000000554,None,space,0.35185539999974935,None,,,,,0,16,16,16,,,,,741.1240808999999,,,,,,,,,,,,741.1077840999999,741.1240808999999,741.1240808999999,742.6403419999999,,,,742.6406844999999,742.6554976,742.6554976,742.6554976,742.9554621999998,743.0233409,,,,,up,1.5123610000000554,None,space,0.35185539999974935,None,,,,,,,,,,,,P134,001,2024-12-12_12h50.06.670,posner_endo_new1,2024.2.4,59.978539678444044,2024-12-12 12h50.15.163974 +0000,
0.005,-0.31,17,17,0,down,4.437729700000091,None,space,0.30547070000011445,None,,,,,0,17,17,17,,,,,743.0387810999998,,,,,,,,,,,,743.0235869999999,743.0387810999998,743.0387810999998,747.4852621000002,,,,747.4856066,747.5010060000002,747.5010060000002,747.5010060000002,747.8005433000001,747.8181766,,,,,down,4.437729700000091,None,space,0.30547070000011445,None,,,,,,,,,,,,P134,001,2024-12-12_12h50.06.670,posner_endo_new1,2024.2.4,59.978539678444044,2024-12-12 12h50.15.163974 +0000,
10,0.005,18,18,0,up,7.3302106000001,None,None,,,,,,,0,18,18,18,,,,,747.8338354,,,,,,,,,,,,747.8184143000001,747.8338354,747.8338354,755.1773755000002,,,,755.1777161000002,755.1930672999999,755.1930672999999,755.1930672999999,755.4927568999999,758.1900902999998,,,,756.1920342999999,up,7.3302106000001,None,None,,,,,,,,,,,,,,P134,001,2024-12-12_12h50.06.670,posner_endo_new1,2024.2.4,59.978539678444044,2024-12-12 12h50.15.163974 +0000,
10,0.005,19,19,0,down,2.3338716999996905,None,None,,,,,,,0,19,19,19,,,,,758.2064406000002,,,,,,,,,,,,758.1903146000002,758.2064406000002,758.2064406000002,760.5553305999999,,,,760.5556697,760.5707983,760.5707983,760.5707983,760.8705564999998,763.5681259,,,,761.5696223000002,down,2.3338716999996905,None,None,,,,,,,,,,,,,,P134,001,2024-12-12_12h50.06.670,posner_endo_new1,2024.2.4,59.978539678444044,2024-12-12 12h50.15.163974 +0000,
0.005,0.31,20,20,0,up,7.61946799999987,None,space,0.29405510000015056,None,,,,,0,20,20,20,,,,,763.5843038999999,,,,,,,,,,,,763.5683597,763.5843038999999,763.5843038999999,771.2109229999999,,,,771.2112595000001,771.2266342999999,771.2266342999999,771.2266342999999,771.5263984000001,771.5275868000001,,,,,up,7.61946799999987,None,space,0.29405510000015056,None,,,,,,,,,,,,P134,001,2024-12-12_12h50.06.670,posner_endo_new1,2024.2.4,59.978539678444044,2024-12-12 12h50.15.163974 +0000,
0.005,-0.31,21,21,0,down,3.037435899999764,None,space,0.3230119999998351,None,,,,,0,21,21,21,,,,,771.5429835000002,,,,,,,,,,,,771.5278292999999,771.5429835000002,771.5429835000002,774.5909177999999,,,,774.5912583000002,774.6065231999999,774.6065231999999,774.6065231999999,774.9062110000002,774.9405573000001,,,,,down,3.037435899999764,None,space,0.3230119999998351,None,,,,,,,,,,,,P134,001,2024-12-12_12h50.06.670,posner_endo_new1,2024.2.4,59.978539678444044,2024-12-12 12h50.15.163974 +0000,
0.005,-0.31,22,22,0,up,2.6978314999996655,None,space,0.31906800000024305,None,,,,,0,22,22,22,,,,,774.9560279,,,,,,,,,,,,774.9407945,774.9560279,774.9560279,777.6707036,,,,777.6710491000001,777.6865946999999,777.6865946999999,777.6865946999999,777.9862924000001,778.0206246,,,,,up,2.6978314999996655,None,space,0.31906800000024305,None,,,,,,,,,,,,P134,001,2024-12-12_12h50.06.670,posner_endo_new1,2024.2.4,59.978539678444044,2024-12-12 12h50.15.163974 +0000,
10,0.005,23,23,0,down,3.2967197999996642,None,None,,,,,,,0,23,23,23,,,,,778.0362418000002,,,,,,,,,,,,778.0208629000001,778.0362418000002,778.0362418000002,781.3342857,,,,781.3346263000001,781.3495452,781.3495452,781.3495452,781.6493112,784.346605,,,,782.3483973999998,down,3.2967197999996642,None,None,,,,,,,,,,,,,,P134,001,2024-12-12_12h50.06.670,posner_endo_new1,2024.2.4,59.978539678444044,2024-12-12 12h50.15.163974 +0000,
10,0.005,24,24,0,up,7.904994199999692,None,None,,,,,,,0,24,24,24,,,,,784.3631979999998,,,,,,,,,,,,784.3468338,784.3631979999998,784.3631979999998,792.2728952,,,,792.2732441999999,792.2884981,792.2884981,792.2884981,792.5882218999998,795.2855566000001,,,,793.3039258000001,up,7.904994199999692,None,None,,,,,,,,,,,,,,P134,001,2024-12-12_12h50.06.670,posner_endo_new1,2024.2.4,59.978539678444044,2024-12-12 12h50.15.163974 +0000,
0.005,0.31,25,25,0,down,1.142840299999989,None,space,0.27147740000009435,None,,,,,0,25,25,25,,,,,795.3020462000002,,,,,,,,,,,,795.2857852999998,795.3020462000002,795.3020462000002,796.4518970000001,,,,796.4522358000002,796.4673458999998,796.4673458999998,796.4673458999998,796.7672707999998,796.7517306000002,,,,,down,1.142840299999989,None,space,0.27147740000009435,None,,,,,,,,,,,,P134,001,2024-12-12_12h50.06.670,posner_endo_new1,2024.2.4,59.978539678444044,2024-12-12 12h50.15.163974 +0000,
0.31,0.005,26,26,0,up,8.429367400000046,None,space,0.2942480000001524,None,,,,,0,26,26,26,,,,,796.7672707999998,,,,,,,,,,,,796.7519771999998,796.7672707999998,796.7672707999998,805.2095542,,,,805.2099215999999,805.2252919999999,805.2252919999999,805.2252919999999,805.5248134000001,805.5259060000001,,,,,up,8.429367400000046,None,space,0.2942480000001524,None,,,,,,,,,,,,P134,001,2024-12-12_12h50.06.670,posner_endo_new1,2024.2.4,59.978539678444044,2024-12-12 12h50.15.163974 +0000,
-0.31,0.005,27,27,0,down,3.198663199999828,None,space,0.26096460000007937,None,,,,,0,27,27,27,,,,,805.5415882999998,,,,,,,,,,,,805.5261459000001,805.5415882999998,805.5415882999998,808.7573995,,,,808.7581720000001,808.7718250999999,808.7718250999999,808.7718250999999,,809.0406335999999,,,,,down,3.198663199999828,None,space,0.26096460000007937,None,,,,,,,,,,,,P134,001,2024-12-12_12h50.06.670,posner_endo_new1,2024.2.4,59.978539678444044,2024-12-12 12h50.15.163974 +0000,
0.005,-0.31,28,28,0,up,3.26207549999981,None,space,0.3056459999997969,None,,,,,0,28,28,28,,,,,809.0547534999998,,,,,,,,,,,,809.0412029000001,809.0547534999998,809.0547534999998,812.3206143,,,,812.3213595,812.3350750000002,812.3350750000002,812.3350750000002,812.6343473,812.6535683,,,,,up,3.26207549999981,None,space,0.3056459999997969,None,,,,,,,,,,,,P134,001,2024-12-12_12h50.06.670,posner_endo_new1,2024.2.4,59.978539678444044,2024-12-12 12h50.15.163974 +0000,
0.005,-0.31,29,29,0,down,7.200915700000223,None,space,0.32156510000004346,None,,,,,0,29,29,29,,,,,812.6677968000001,,,,,,,,,,,,812.6541338,812.6677968000001,812.6677968000001,819.8794673,,,,819.8802156999998,819.8940647000002,819.8940647000002,819.8940647000002,820.1933259999998,820.2290102,,,,,down,7.200915700000223,None,space,0.32156510000004346,None,,,,,,,,,,,,P134,001,2024-12-12_12h50.06.670,posner_endo_new1,2024.2.4,59.978539678444044,2024-12-12 12h50.15.163974 +0000,
10,0.005,30,30,0,up,4.793471699999827,None,None,,,,,,,0,30,30,30,,,,,820.2432507999999,,,,,,,,,,,,820.2295639000001,820.2432507999999,820.2432507999999,825.0409001999999,,,,825.041665,825.0554356999999,825.0554356999999,825.0554356999999,825.3708218999998,828.0518008000001,,,,826.0701218000002,up,4.793471699999827,None,None,,,,,,,,,,,,,,P134,001,2024-12-12_12h50.06.670,posner_endo_new1,2024.2.4,59.978539678444044,2024-12-12 12h50.15.163974 +0000,
0.005,-0.31,31,31,0,down,1.9356285000003481,None,space,0.33587530000022525,None,,,,,0,31,31,31,,,,,828.0684236,,,,,,,,,,,,828.0519655999999,828.0684236,828.0684236,830.0172089999999,,,,830.0174562,830.0332434999998,830.0332434999998,830.0332434999998,830.3328098,830.3836727999999,,,,,down,1.9356285000003481,None,space,0.33587530000022525,None,,,,,,,,,,,,P134,001,2024-12-12_12h50.06.670,posner_endo_new1,2024.2.4,59.978539678444044,2024-12-12 12h50.15.163974 +0000,
0.31,0.005,32,32,0,up,2.8607119000002967,None,space,0.3440227999999479,None,,,,,0,32,32,32,,,,,830.3994633999998,,,,,,,,,,,,830.3838380999998,830.3994633999998,830.3994633999998,833.2641248000002,,,,833.2643765,833.2797695000002,833.2797695000002,833.2797695000002,833.5793411000002,833.6302533,,,,,up,2.8607119000002967,None,space,0.3440227999999479,None,,,,,,,,,,,,P134,001,2024-12-12_12h50.06.670,posner_endo_new1,2024.2.4,59.978539678444044,2024-12-12 12h50.15.163974 +0000,
0.005,-0.31,33,33,0,down,8.734009300000253,None,space,0.27741710000009334,None,,,,,0,33,33,33,,,,,833.6460414999999,,,,,,,,,,,,833.6304265000001,833.6460414999999,833.6460414999999,842.3898624000001,,,,842.3906138,842.4043254000001,842.4043254000001,842.4043254000001,842.7035852000001,842.6895784000001,,,,,down,8.734009300000253,None,space,0.27741710000009334,None,,,,,,,,,,,,P134,001,2024-12-12_12h50.06.670,posner_endo_new1,2024.2.4,59.978539678444044,2024-12-12 12h50.15.163974 +0000,
10,0.005,34,34,0,up,2.741078700000344,None,None,,,,,,,0,34,34,34,,,,,842.7035852000001,,,,,,,,,,,,842.6901406999998,842.7035852000001,842.7035852000001,845.4534575999999,,,,845.4542223999999,845.4678823000002,845.4678823000002,845.4678823000002,845.7671146,848.4646977,,,,846.4830706,up,2.741078700000344,None,None,,,,,,,,,,,,,,P134,001,2024-12-12_12h50.06.670,posner_endo_new1,2024.2.4,59.978539678444044,2024-12-12 12h50.15.163974 +0000,
0.31,0.005,35,35,0,down,8.266838900000039,None,space,0.3647228999998333,None,,,,,0,35,35,35,,,,,848.4810620000001,,,,,,,,,,,,848.4652094999999,848.4810620000001,848.4810620000001,856.7584144,,,,856.7592631999999,856.7730758,856.7730758,856.7730758,857.0722597000001,857.1415829,,,,,down,8.266838900000039,None,space,0.3647228999998333,None,,,,,,,,,,,,P134,001,2024-12-12_12h50.06.670,posner_endo_new1,2024.2.4,59.978539678444044,2024-12-12 12h50.15.163974 +0000,
0.31,0.005,36,36,0,up,3.904837200000202,None,space,0.30097220000016023,None,,,,,0,36,36,36,,,,,857.1555168000002,,,,,,,,,,,,857.1421440000001,857.1555168000002,857.1555168000002,861.0705344,,,,861.0712807000002,861.085127,861.085127,861.085127,861.3845462000002,861.4032945000001,,,,,up,3.904837200000202,None,space,0.30097220000016023,None,,,,,,,,,,,,P134,001,2024-12-12_12h50.06.670,posner_endo_new1,2024.2.4,59.978539678444044,2024-12-12 12h50.15.163974 +0000,
-0.31,0.005,37,37,0,down,3.5062220999998317,None,space,0.3216892000000371,None,,,,,0,37,37,37,,,,,861.4178364000002,,,,,,,,,,,,861.4038521999998,861.4178364000002,861.4178364000002,864.9336873,,,,864.9344275000001,864.9480027000002,864.9480027000002,864.9480027000002,865.2472624,865.2829543999999,,,,,down,3.5062220999998317,None,space,0.3216892000000371,None,,,,,,,,,,,,P134,001,2024-12-12_12h50.06.670,posner_endo_new1,2024.2.4,59.978539678444044,2024-12-12 12h50.15.163974 +0000,
0.005,0.31,38,38,0,up,2.971266300000025,None,space,0.28993569999965985,None,,,,,0,38,38,38,,,,,865.2971887000001,,,,,,,,,,,,865.2835011,865.2971887000001,865.2971887000001,868.2798091000002,,,,868.2805722999999,868.2944430999999,868.2944430999999,868.2944430999999,868.5938021,868.5965088999999,,,,,up,2.971266300000025,None,space,0.28993569999965985,None,,,,,,,,,,,,P134,001,2024-12-12_12h50.06.670,posner_endo_new1,2024.2.4,59.978539678444044,2024-12-12 12h50.15.163974 +0000,
0.005,0.31,39,39,0,down,3.906140399999913,None,space,0.26145809999979974,None,,,,,0,39,39,39,,,,,868.6105409999998,,,,,,,,,,,,868.5970479999999,868.6105409999998,868.6105409999998,872.5255949,,,,872.5263358999998,872.5401377000001,872.5401377000001,872.5401377000001,,872.8087345000001,,,,,down,3.906140399999913,None,space,0.26145809999979974,None,,,,,,,,,,,,P134,001,2024-12-12_12h50.06.670,posner_endo_new1,2024.2.4,59.978539678444044,2024-12-12 12h50.15.163974 +0000,
-0.31,0.005,40,40,0,up,2.829976799999713,None,space,0.2936407000001964,None,,,,,0,40,40,40,,,,,872.8228539999998,,,,,,,,,,,,872.8093305,872.8228539999998,872.8228539999998,875.6557841000001,,,,875.6565229,875.6703082000001,875.6703082000001,875.6703082000001,875.9696053999999,875.9724530000001,,,,,up,2.829976799999713,None,space,0.2936407000001964,None,,,,,,,,,,,,P134,001,2024-12-12_12h50.06.670,posner_endo_new1,2024.2.4,59.978539678444044,2024-12-12 12h50.15.163974 +0000,
10,0.005,41,41,0,down,3.3617566000002626,None,None,,,,,,,0,41,41,41,,,,,875.9863637000001,,,,,,,,,,,,875.973013,875.9863637000001,875.9863637000001,879.3522166,,,,879.3529707999999,879.3665924999998,879.3665924999998,879.3665924999998,879.6658132,882.3633935,,,,880.3817753999999,down,3.3617566000002626,None,None,,,,,,,,,,,,,,P134,001,2024-12-12_12h50.06.670,posner_endo_new1,2024.2.4,59.978539678444044,2024-12-12 12h50.15.163974 +0000,
-0.31,0.005,42,42,0,up,5.920833700000003,None,space,0.34215290000020104,None,,,,,0,42,42,42,,,,,882.3797315999998,,,,,,,,,,,,882.3638902,882.3797315999998,882.3797315999998,888.3096159999998,,,,888.3103813999999,888.3240619999999,888.3240619999999,888.3240619999999,888.6233503999999,888.6757481000002,,,,,up,5.920833700000003,None,space,0.34215290000020104,None,,,,,,,,,,,,P134,001,2024-12-12_12h50.06.670,posner_endo_new1,2024.2.4,59.978539678444044,2024-12-12 12h50.15.163974 +0000,
-0.31,0.005,43,43,0,down,3.4508067000001574,None,space,0.2974275999999918,None,,,,,0,43,43,43,,,,,888.6899434,,,,,,,,,,,,888.6763039,888.6899434,888.6899434,892.1555818999998,,,,892.1563343,892.1701279000001,892.1701279000001,892.1701279000001,892.4694364999998,892.4720983999998,,,,,down,3.4508067000001574,None,space,0.2974275999999918,None,,,,,,,,,,,,P134,001,2024-12-12_12h50.06.670,posner_endo_new1,2024.2.4,59.978539678444044,2024-12-12 12h50.15.163974 +0000,
0.005,0.31,44,44,0,up,8.726482200000191,None,space,0.3063631999998506,None,,,,,0,44,44,44,,,,,892.4860243,,,,,,,,,,,,892.4726890999998,892.4860243,892.4860243,901.2294951000001,,,,901.2302342999999,901.2439231000001,901.2439231000001,901.2439231000001,901.5434603000001,901.5625472999998,,,,,up,8.726482200000191,None,space,0.3063631999998506,None,,,,,,,,,,,,P134,001,2024-12-12_12h50.06.670,posner_endo_new1,2024.2.4,59.978539678444044,2024-12-12 12h50.15.163974 +0000,
10,0.005,45,45,0,down,6.595640500000172,None,None,,,,,,,0,45,45,45,,,,,901.5767555,,,,,,,,,,,,901.5630987000002,901.5767555,901.5767555,908.1892297000002,,,,908.1899667,908.2034348,908.2034348,908.2034348,908.5030054000001,911.2005446999999,,,,909.2189630999999,down,6.595640500000172,None,None,,,,,,,,,,,,,,P134,001,2024-12-12_12h50.06.670,posner_endo_new1,2024.2.4,59.978539678444044,2024-12-12 12h50.15.163974 +0000,
0.005,-0.31,46,46,0,up,0.523788400000285,None,space,0.30071619999989707,None,,,,,0,46,46,46,,,,,911.2168887,,,,,,,,,,,,911.2010548999999,911.2168887,911.2168887,911.7520393000002,,,,911.7528202999999,911.7667442,911.7667442,911.7667442,912.0660544999998,912.0847928999999,,,,,up,0.523788400000285,None,space,0.30071619999989707,None,,,,,,,,,,,,P134,001,2024-12-12_12h50.06.670,posner_endo_new1,2024.2.4,59.978539678444044,2024-12-12 12h50.15.163974 +0000,
-0.31,0.005,47,47,0,down,10.841364999999769,None,space,0.25888239999994767,None,,,,,0,47,47,47,,,,,912.0993538,,,,,,,,,,,,912.0853531,912.0993538,912.0993538,922.9572129000001,,,,922.9579551999998,922.9716528000001,922.9716528000001,922.9716528000001,,923.2404804,,,,,down,10.841364999999769,None,space,0.25888239999994767,None,,,,,,,,,,,,P134,001,2024-12-12_12h50.06.670,posner_endo_new1,2024.2.4,59.978539678444044,2024-12-12 12h50.15.163974 +0000,
-0.31,0.005,48,48,0,up,2.469970299999659,None,space,0.29186110000000554,None,,,,,0,48,48,48,,,,,923.2545883999999,,,,,,,,,,,,923.2410192,923.2545883999999,923.2545883999999,925.7363965000002,,,,925.7368841999998,925.7515285000002,925.7515285000002,925.7515285000002,926.0512016,926.0529792,,,,,up,2.469970299999659,None,space,0.29186110000000554,None,,,,,,,,,,,,P134,001,2024-12-12_12h50.06.670,posner_endo_new1,2024.2.4,59.978539678444044,2024-12-12 12h50.15.163974 +0000,
-0.31,0.005,49,49,0,down,3.512723199999982,None,space,0.27844180000010965,None,,,,,0,49,49,49,,,,,926.0678722999999,,,,,,,,,,,,926.0533291999998,926.0678722999999,926.0678722999999,929.5825851000002,,,,929.5829252999999,929.5979749999999,929.5979749999999,929.5979749999999,929.8978534999999,929.8824737000002,,,,,down,3.512723199999982,None,space,0.27844180000010965,None,,,,,,,,,,,,P134,001,2024-12-12_12h50.06.670,posner_endo_new1,2024.2.4,59.978539678444044,2024-12-12 12h50.15.163974 +0000,
0.31,0.005,50,50,0,up,9.562242100000276,None,space,0.34021260000008624,None,,,,,0,50,50,50,,,,,929.8978534999999,,,,,,,,,,,,929.8827122999999,929.8978534999999,929.8978534999999,939.4722592999999,,,,939.4725962,939.4879708000001,939.4879708000001,939.4879708000001,939.7872525999999,939.8401351999998,,,,,up,9.562242100000276,None,space,0.34021260000008624,None,,,,,,,,,,,,P134,001,2024-12-12_12h50.06.670,posner_endo_new1,2024.2.4,59.978539678444044,2024-12-12 12h50.15.163974 +0000,
0.31,0.005,51,51,0,down,3.470195899999908,None,space,0.30312640000011015,None,,,,,0,51,51,51,,,,,939.8542347999999,,,,,,,,,,,,939.8406710000002,939.8542347999999,939.8542347999999,943.3367064000001,,,,943.3374621,943.3511313000001,943.3511313000001,943.3511313000001,943.6503914000002,943.6694325000001,,,,,down,3.470195899999908,None,space,0.30312640000011015,None,,,,,,,,,,,,P134,001,2024-12-12_12h50.06.670,posner_endo_new1,2024.2.4,59.978539678444044,2024-12-12 12h50.15.163974 +0000,
0.31,0.005,52,52,0,up,2.5845956999996815,None,space,0.2650982000000113,None,,,,,0,52,52,52,,,,,943.6837343,,,,,,,,,,,,943.669991,943.6837343,943.6837343,946.2833469999998,,,,946.2840800000001,946.2980316000001,946.2980316000001,946.2980316000001,,946.5665161,,,,,up,2.5845956999996815,None,space,0.2650982000000113,None,,,,,,,,,,,,P134,001,2024-12-12_12h50.06.670,posner_endo_new1,2024.2.4,59.978539678444044,2024-12-12 12h50.15.163974 +0000,
0.005,0.31,53,53,0,down,3.3921660000000884,None,space,0.28219469999976354,None,,,,,0,53,53,53,,,,,946.5807272,,,,,,,,,,,,946.5670686000001,946.5807272,946.5807272,949.9799817999999,,,,949.9807343,949.9944004000001,949.9944004000001,949.9944004000001,950.2936904000001,950.2797776999998,,,,,down,3.3921660000000884,None,space,0.28219469999976354,None,,,,,,,,,,,,P134,001,2024-12-12_12h50.06.670,posner_endo_new1,2024.2.4,59.978539678444044,2024-12-12 12h50.15.163974 +0000,
0.31,0.005,54,54,0,up,8.382942500000354,None,space,0.27337179999994987,None,,,,,0,54,54,54,,,,,950.2936904000001,,,,,,,,,,,,950.2803185999999,950.2936904000001,950.2936904000001,958.6875035999999,,,,958.6882394000002,958.7020768,958.7020768,958.7020768,959.0014024,958.9873780999999,,,,,up,8.382942500000354,None,space,0.27337179999994987,None,,,,,,,,,,,,P134,001,2024-12-12_12h50.06.670,posner_endo_new1,2024.2.4,59.978539678444044,2024-12-12 12h50.15.163974 +0000,
0.005,0.31,55,55,0,down,11.291168399999606,None,space,0.3282223999999587,None,,,,,0,55,55,55,,,,,959.0014024,,,,,,,,,,,,958.9879290000001,959.0014024,959.0014024,970.3088317999998,,,,970.3095747999998,970.3232243,970.3232243,970.3232243,970.6228358999999,970.6588052,,,,,down,11.291168399999606,None,space,0.3282223999999587,None,,,,,,,,,,,,P134,001,2024-12-12_12h50.06.670,posner_endo_new1,2024.2.4,59.978539678444044,2024-12-12 12h50.15.163974 +0000,
0.005,-0.31,56,56,0,up,2.8916143999999804,None,space,0.30561489999990954,None,,,,,0,56,56,56,,,,,970.6727922000002,,,,,,,,,,,,970.6593642,970.6727922000002,970.6727922000002,973.5723556999999,,,,973.5730903000001,973.5868358,973.5868358,973.5868358,973.8861473,973.9052641999999,,,,,up,2.8916143999999804,None,space,0.30561489999990954,None,,,,,,,,,,,,P134,001,2024-12-12_12h50.06.670,posner_endo_new1,2024.2.4,59.978539678444044,2024-12-12 12h50.15.163974 +0000,
0.005,0.31,57,57,0,down,4.24490330000026,None,space,0.2840175999999701,None,,,,,0,57,57,57,,,,,973.9194691999999,,,,,,,,,,,,973.9058097999998,973.9194691999999,973.9194691999999,978.1677404999998,,,,978.1684825999998,978.1821671999999,978.1821671999999,978.1821671999999,978.4814426999999,978.4837043,,,,,down,4.24490330000026,None,space,0.2840175999999701,None,,,,,,,,,,,,P134,001,2024-12-12_12h50.06.670,posner_endo_new1,2024.2.4,59.978539678444044,2024-12-12 12h50.15.163974 +0000,
10,0.005,58,58,0,up,4.106122300000152,None,None,,,,,,,0,58,58,58,,,,,978.4980807,,,,,,,,,,,,978.4842658,978.4980807,978.4980807,982.6131865,,,,982.6139362000001,982.6276399999999,982.6276399999999,982.6276399999999,982.9269120000001,985.6244356,,,,983.6428262000002,up,4.106122300000152,None,None,,,,,,,,,,,,,,P134,001,2024-12-12_12h50.06.670,posner_endo_new1,2024.2.4,59.978539678444044,2024-12-12 12h50.15.163974 +0000,
10,0.005,59,59,0,down,9.45136249999996,None,None,,,,,,,0,59,59,59,,,,,985.6407839000001,,,,,,,,,,,,985.6249220000002,985.6407839000001,985.6407839000001,995.1001574999998,,,,995.1009009000002,995.1147899999999,995.1147899999999,995.1147899999999,995.4141072999998,998.1116871000002,,,,996.1300383,down,9.45136249999996,None,None,,,,,,,,,,,,,,P134,001,2024-12-12_12h50.06.670,posner_endo_new1,2024.2.4,59.978539678444044,2024-12-12 12h50.15.163974 +0000,
-0.31,0.005,60,60,0,up,18.86885949999987,None,space,0.34269829999993817,None,,,,,0,60,60,60,,,,,998.1280408999999,,,,,,,,,,,,998.1121844000002,998.1280408999999,998.1280408999999,1017.0114965,,,,1017.0122408999998,1017.0259555999999,1017.0259555999999,1017.0259555999999,1017.3250652999998,1017.3775836000002,,,,,up,18.86885949999987,None,space,0.34269829999993817,None,,,,,,,,,,,,P134,001,2024-12-12_12h50.06.670,posner_endo_new1,2024.2.4,59.978539678444044,2024-12-12 12h50.15.163974 +0000,
,,,,,,,,,,,,,,,,,,,,,,,,,,,,,,,,,,,,,,,,,,,,,,,,,,,,,,,,,,1017.377933,1017.3936968,1017.3936968,1077.3658687,None,,,,,,,P134,001,2024-12-12_12h50.06.670,posner_endo_new1,2024.2.4,59.978539678444044,2024-12-12 12h50.15.163974 +0000,
,,,,,,,,,,,,,,,,,,,,,,,,,,,,,,,,1077.3660555,1077.3803351,1080.3775242999998,,,,,,,,,,,,,,,,,,,,,,,,,,,,,,,,,,,P134,001,2024-12-12_12h50.06.670,posner_endo_new1,2024.2.4,59.978539678444044,2024-12-12 12h50.15.163974 +0000,
0.005,-0.31,0,0,0,up,11.85251930000004,None,space,0.30655109999997876,None,,,,,,,,,0,0,0,0,1080.4239123999998,,,,,,,,,,,,1080.4122284000002,1080.4239123999998,1080.4239123999998,1092.2840723000002,,,,1092.2849248,1092.2988208,1092.2988208,1092.2988208,1092.5980941999999,1092.6172362,,,,,,,,,,,,,,,,up,11.85251930000004,None,space,0.30655109999997876,None,P134,001,2024-12-12_12h50.06.670,posner_endo_new1,2024.2.4,59.978539678444044,2024-12-12 12h50.15.163974 +0000,
0.31,0.005,1,1,0,down,4.8534835000000385,None,space,0.2936220999999932,None,,,,,,,,,0,1,1,1,1092.6313819,,,,,,,,,,,,1092.6178091,1092.6313819,1092.6313819,1097.4957806,,,,1097.4965206,1097.5101974000002,1097.5101974000002,1097.5101974000002,1097.8094336000001,1097.8121303,,,,,,,,,,,,,,,,down,4.8534835000000385,None,space,0.2936220999999932,None,P134,001,2024-12-12_12h50.06.670,posner_endo_new1,2024.2.4,59.978539678444044,2024-12-12 12h50.15.163974 +0000,
10,0.005,2,2,0,up,2.370944399999644,None,None,,,,,,,,,,,0,2,2,2,1097.826089,,,,,,,,,,,,1097.8126877000002,1097.826089,1097.826089,1100.2093563,,,,1100.2101369999998,1100.2240714000002,1100.2240714000002,1100.2240714000002,1100.5233107000001,1103.2208601999998,,,,1101.2392535000001,,,,,,,,,,,,up,2.370944399999644,None,None,,,P134,001,2024-12-12_12h50.06.670,posner_endo_new1,2024.2.4,59.978539678444044,2024-12-12 12h50.15.163974 +0000,
0.005,-0.31,3,3,0,down,1.9833789999997862,None,space,0.303451700000096,None,,,,,,,,,0,3,3,3,1103.2372081,,,,,,,,,,,,1103.2213929000002,1103.2372081,1103.2372081,1105.2375221999998,,,,1105.2382934999998,1105.2519475000001,1105.2519475000001,1105.2519475000001,1105.5515020999999,1105.5705750999998,,,,,,,,,,,,,,,,down,1.9833789999997862,None,space,0.303451700000096,None,P134,001,2024-12-12_12h50.06.670,posner_endo_new1,2024.2.4,59.978539678444044,2024-12-12 12h50.15.163974 +0000,
0.005,-0.31,4,4,0,up,3.2836127999999007,None,space,0.31980979999980264,None,,,,,,,,,0,4,4,4,1105.5848054,,,,,,,,,,,,1105.5711303,1105.5848054,1105.5848054,1108.8838428000001,,,,1108.8846139,1108.8985320999998,1108.8985320999998,1108.8985320999998,1109.1978029,1109.2334795999998,,,,,,,,,,,,,,,,up,3.2836127999999007,None,space,0.31980979999980264,None,P134,001,2024-12-12_12h50.06.670,posner_endo_new1,2024.2.4,59.978539678444044,2024-12-12 12h50.15.163974 +0000,
10,0.005,5,5,0,down,4.580506899999818,None,None,,,,,,,,,,,0,5,5,5,1109.2477164999998,,,,,,,,,,,,1109.2340283,1109.2477164999998,1109.2477164999998,1113.8454092999998,,,,1113.8461626,1113.8598177000001,1113.8598177000001,1113.8598177000001,1114.1593879,1116.8569059,,,,1114.8753075000002,,,,,,,,,,,,down,4.580506899999818,None,None,,,P134,001,2024-12-12_12h50.06.670,posner_endo_new1,2024.2.4,59.978539678444044,2024-12-12 12h50.15.163974 +0000,
0.005,0.31,6,6,0,up,7.931297900000118,None,space,0.2841994000000341,None,,,,,,,,,0,6,6,6,1116.8732914999998,,,,,,,,,,,,1116.8574161,1116.8732914999998,1116.8732914999998,1124.8175463999999,,,,1124.8183080000001,1124.8321948,1124.8321948,1124.8321948,1125.1314881,1125.1337110000002,,,,,,,,,,,,,,,,up,7.931297900000118,None,space,0.2841994000000341,None,P134,001,2024-12-12_12h50.06.670,posner_endo_new1,2024.2.4,59.978539678444044,2024-12-12 12h50.15.163974 +0000,
0.005,0.31,7,7,0,down,3.704193099999884,None,space,0.29017709999970975,None,,,,,,,,,0,7,7,7,1125.1480927,,,,,,,,,,,,1125.1342688000002,1125.1480927,1125.1480927,1128.8633977000002,,,,1128.8641587,1128.8780435,1128.8780435,1128.8780435,1129.1773643,1129.1800379,,,,,,,,,,,,,,,,down,3.704193099999884,None,space,0.29017709999970975,None,P134,001,2024-12-12_12h50.06.670,posner_endo_new1,2024.2.4,59.978539678444044,2024-12-12 12h50.15.163974 +0000,
0.31,0.005,8,8,0,up,2.346232500000042,None,space,0.2998507000002064,None,,,,,,,,,0,8,8,8,1129.1941390999998,,,,,,,,,,,,1129.1806017000001,1129.1941390999998,1129.1941390999998,1131.5442457000001,,,,1131.5450073,1131.5587134,1131.5587134,1131.5587134,1131.8579628999998,1131.8610164999998,,,,,,,,,,,,,,,,up,2.346232500000042,None,space,0.2998507000002064,None,P134,001,2024-12-12_12h50.06.670,posner_endo_new1,2024.2.4,59.978539678444044,2024-12-12 12h50.15.163974 +0000,
0.31,0.005,9,9,0,down,4.113389600000119,None,space,0.2638713999999709,None,,,,,,,,,0,9,9,9,1131.8751494,,,,,,,,,,,,1131.8615802000002,1131.8751494,1131.8751494,1136.0058350000002,,,,1136.0066235000002,1136.0204955000002,1136.0204955000002,1136.0204955000002,,1136.2892998,,,,,,,,,,,,,,,,down,4.113389600000119,None,space,0.2638713999999709,None,P134,001,2024-12-12_12h50.06.670,posner_endo_new1,2024.2.4,59.978539678444044,2024-12-12 12h50.15.163974 +0000,
10,0.005,10,10,0,up,3.293203600000197,None,None,,,,,,,,,,,0,10,10,10,1136.3033852,,,,,,,,,,,,1136.2898469999998,1136.3033852,1136.3033852,1139.6027176,,,,1139.6034787,1139.6171398,1139.6171398,1139.6171398,1139.9163666000002,1142.6138951,,,,1140.6323089,,,,,,,,,,,,up,3.293203600000197,None,None,,,P134,001,2024-12-12_12h50.06.670,posner_endo_new1,2024.2.4,59.978539678444044,2024-12-12 12h50.15.163974 +0000,
0.005,0.31,11,11,0,down,11.43029260000003,None,space,0.3529100999999173,None,,,,,,,,,0,11,11,11,1142.6302729000001,,,,,,,,,,,,1142.6144126000002,1142.6302729000001,1142.6302729000001,1154.0709640000002,,,,1154.0717093,1154.0855822,1154.0855822,1154.0855822,1154.3849340999998,1154.4538900999999,,,,,,,,,,,,,,,,down,11.43029260000003,None,space,0.3529100999999173,None,P134,001,2024-12-12_12h50.06.670,posner_endo_new1,2024.2.4,59.978539678444044,2024-12-12 12h50.15.163974 +0000,
0.005,-0.31,12,12,0,up,3.1442050000000563,None,space,0.29882790000010573,None,,,,,,,,,0,12,12,12,1154.4681552,,,,,,,,,,,,1154.4544497999998,1154.4681552,1154.4681552,1157.6179439,,,,1157.6186933000001,1157.6321661999998,1157.6321661999998,1157.6321661999998,1157.9312478,1157.9339338000002,,,,,,,,,,,,,,,,up,3.1442050000000563,None,space,0.29882790000010573,None,P134,001,2024-12-12_12h50.06.670,posner_endo_new1,2024.2.4,59.978539678444044,2024-12-12 12h50.15.163974 +0000,
0.005,0.31,13,13,0,down,3.7763294000001224,None,space,0.2934971999998197,None,,,,,,,,,0,13,13,13,1157.9479512,,,,,,,,,,,,1157.9344786,1157.9479512,1157.9479512,1161.7300631,,,,1161.7308289999999,1161.7445426000002,1161.7445426000002,1161.7445426000002,1162.0437255999998,1162.0462008000002,,,,,,,,,,,,,,,,down,3.7763294000001224,None,space,0.2934971999998197,None,P134,001,2024-12-12_12h50.06.670,posner_endo_new1,2024.2.4,59.978539678444044,2024-12-12 12h50.15.163974 +0000,
-0.31,0.005,14,14,0,up,3.552203400000053,None,space,0.3369836000001669,None,,,,,,,,,0,14,14,14,1162.060424,,,,,,,,,,,,1162.0467566999998,1162.060424,1162.060424,1165.625773,,,,1165.6265163,1165.6404181,1165.6404181,1165.6404181,1165.9397594,1165.992407,,,,,,,,,,,,,,,,up,3.552203400000053,None,space,0.3369836000001669,None,P134,001,2024-12-12_12h50.06.670,posner_endo_new1,2024.2.4,59.978539678444044,2024-12-12 12h50.15.163974 +0000,
10,0.005,15,15,0,down,5.318193200000223,None,None,,,,,,,,,,,0,15,15,15,1166.0063192,,,,,,,,,,,,1165.9929688,1166.0063192,1166.0063192,1171.336588,,,,1171.3373338,1171.3512269999999,1171.3512269999999,1171.3512269999999,1171.6505823999998,1174.3481307999998,,,,1172.3665233999998,,,,,,,,,,,,down,5.318193200000223,None,None,,,P134,001,2024-12-12_12h50.06.670,posner_endo_new1,2024.2.4,59.978539678444044,2024-12-12 12h50.15.163974 +0000,
0.005,-0.31,16,16,0,up,8.93707540000014,None,space,0.2889304999998785,None,,,,,,,,,0,16,16,16,1174.3644981999998,,,,,,,,,,,,1174.3486488,1174.3644981999998,1174.3644981999998,1183.3079572,,,,1183.3087466999998,1183.3224957,1183.3224957,1183.3224957,1183.6216843,1183.6242933,,,,,,,,,,,,,,,,up,8.93707540000014,None,space,0.2889304999998785,None,P134,001,2024-12-12_12h50.06.670,posner_endo_new1,2024.2.4,59.978539678444044,2024-12-12 12h50.15.163974 +0000,
0.31,0.005,17,17,0,down,5.1659168999999565,None,space,0.31705269999974917,None,,,,,,,,,0,17,17,17,1183.6383371999998,,,,,,,,,,,,1183.6248625,1183.6383371999998,1183.6383371999998,1188.8187326999998,,,,1188.8195024,1188.8334032,1188.8334032,1188.8334032,1189.1326789000002,1189.1684284,,,,,,,,,,,,,,,,down,5.1659168999999565,None,space,0.31705269999974917,None,P134,001,2024-12-12_12h50.06.670,posner_endo_new1,2024.2.4,59.978539678444044,2024-12-12 12h50.15.163974 +0000,
-0.31,0.005,18,18,0,up,4.789952199999789,None,space,0.29069520000030025,None,,,,,,,,,0,18,18,18,1189.1827022,,,,,,,,,,,,1189.1690119000002,1189.1827022,1189.1827022,1193.980437,,,,1193.9811883999998,1193.9948571000002,1193.9948571000002,1193.9948571000002,1194.2941087000002,1194.2965186,,,,,,,,,,,,,,,,up,4.789952199999789,None,space,0.29069520000030025,None,P134,001,2024-12-12_12h50.06.670,posner_endo_new1,2024.2.4,59.978539678444044,2024-12-12 12h50.15.163974 +0000,
0.31,0.005,19,19,0,down,4.302420499999698,None,space,0.29491009999992457,None,,,,,,,,,0,19,19,19,1194.3107246000002,,,,,,,,,,,,1194.2970633000002,1194.3107246000002,1194.3107246000002,1198.6255316999998,,,,1198.6263129000001,1198.6400775999998,1198.6400775999998,1198.6400775999998,1198.9394073,1198.9419494,,,,,,,,,,,,,,,,down,4.302420499999698,None,space,0.29491009999992457,None,P134,001,2024-12-12_12h50.06.670,posner_endo_new1,2024.2.4,59.978539678444044,2024-12-12 12h50.15.163974 +0000,
0.31,0.005,20,20,0,up,3.6806392000003143,None,space,0.2994802999996864,None,,,,,,,,,0,20,20,20,1198.9560229,,,,,,,,,,,,1198.9424947999998,1198.9560229,1198.9560229,1202.6544657000002,,,,1202.6552343,1202.6689927999998,1202.6689927999998,1202.6689927999998,1202.9685701,1202.9713196999999,,,,,,,,,,,,,,,,up,3.6806392000003143,None,space,0.2994802999996864,None,P134,001,2024-12-12_12h50.06.670,posner_endo_new1,2024.2.4,59.978539678444044,2024-12-12 12h50.15.163974 +0000,
0.005,-0.31,21,21,0,down,6.235352400000011,None,space,0.3727106000001186,None,,,,,,,,,0,21,21,21,1202.9852579,,,,,,,,,,,,1202.9718838000001,1202.9852579,1202.9852579,1209.2311505,,,,1209.2319054000002,1209.2458257,1209.2458257,1209.2458257,1209.5451391,1209.6308612,,,,,,,,,,,,,,,,down,6.235352400000011,None,space,0.3727106000001186,None,P134,001,2024-12-12_12h50.06.670,posner_endo_new1,2024.2.4,59.978539678444044,2024-12-12 12h50.15.163974 +0000,
-0.31,0.005,22,22,0,up,2.9434777000001304,None,space,0.30034829999976864,None,,,,,,,,,0,22,22,22,1209.6450713000002,,,,,,,,,,,,1209.6314347999999,1209.6450713000002,1209.6450713000002,1212.5946639000001,,,,1212.5954163,1212.6091914,1212.6091914,1212.6091914,1212.9084148,1212.9271413,,,,,,,,,,,,,,,,up,2.9434777000001304,None,space,0.30034829999976864,None,P134,001,2024-12-12_12h50.06.670,posner_endo_new1,2024.2.4,59.978539678444044,2024-12-12 12h50.15.163974 +0000,
0.005,-0.31,23,23,0,down,4.49528169999985,None,space,0.29549530000031154,None,,,,,,,,,0,23,23,23,1212.9416955,,,,,,,,,,,,1212.9277165,1212.9416955,1212.9416955,1217.4398383,,,,1217.440602,1217.4542963000001,1217.4542963000001,1217.4542963000001,1217.7534825999999,1217.7559374,,,,,,,,,,,,,,,,down,4.49528169999985,None,space,0.29549530000031154,None,P134,001,2024-12-12_12h50.06.670,posner_endo_new1,2024.2.4,59.978539678444044,2024-12-12 12h50.15.163974 +0000,
10,0.005,24,24,0,up,2.986880399999791,None,None,,,,,,,,,,,0,24,24,24,1217.7701238000002,,,,,,,,,,,,1217.7564921,1217.7701238000002,1217.7701238000002,1220.7693965,,,,1220.7701619000002,1220.7840588000001,1220.7840588000001,1220.7840588000001,1221.0833851999998,1223.7809326,,,,1221.7993150999998,,,,,,,,,,,,up,2.986880399999791,None,None,,,P134,001,2024-12-12_12h50.06.670,posner_endo_new1,2024.2.4,59.978539678444044,2024-12-12 12h50.15.163974 +0000,
0.31,0.005,25,25,0,down,9.647034500000245,None,space,0.27213179999989734,None,,,,,,,,,0,25,25,25,1223.7972782999998,,,,,,,,,,,,1223.7814394,1223.7972782999998,1223.7972782999998,1233.4564329000002,,,,1233.4571647,1233.4710358999998,1233.4710358999998,1233.4710358999998,1233.7704326,1233.7562400999998,,,,,,,,,,,,,,,,down,9.647034500000245,None,space,0.27213179999989734,None,P134,001,2024-12-12_12h50.06.670,posner_endo_new1,2024.2.4,59.978539678444044,2024-12-12 12h50.15.163974 +0000,
0.31,0.005,26,26,0,up,3.890447700000095,None,space,0.38974480000024414,None,,,,,,,,,0,26,26,26,1233.7704326,,,,,,,,,,,,1233.7568045,1233.7704326,1233.7704326,1237.6691864000002,,,,1237.6699497000002,1237.6836354,1237.6836354,1237.6836354,1237.9827552,1238.0852198999999,,,,,,,,,,,,,,,,up,3.890447700000095,None,space,0.38974480000024414,None,P134,001,2024-12-12_12h50.06.670,posner_endo_new1,2024.2.4,59.978539678444044,2024-12-12 12h50.15.163974 +0000,
10,0.005,27,27,0,down,3.9855775000000904,None,None,,,,,,,,,,,0,27,27,27,1238.0993227000001,,,,,,,,,,,,1238.0857835,1238.0993227000001,1238.0993227000001,1242.0963425000002,,,,1242.0968359,1242.1113683,1242.1113683,1242.1113683,1242.4114401,1245.1089149000002,,,,1243.1106954999998,,,,,,,,,,,,down,3.9855775000000904,None,None,,,P134,001,2024-12-12_12h50.06.670,posner_endo_new1,2024.2.4,59.978539678444044,2024-12-12 12h50.15.163974 +0000,
0.005,-0.31,28,28,0,up,8.887616099999832,None,space,0.316517699999622,None,,,,,,,,,0,28,28,28,1245.1253045,,,,,,,,,,,,1245.1091279,1245.1253045,1245.1253045,1254.0174218999998,,,,1254.0177460000002,1254.0327281000002,1254.0327281000002,1254.0327281000002,1254.3325861,1254.3504580000001,,,,,,,,,,,,,,,,up,8.887616099999832,None,space,0.316517699999622,None,P134,001,2024-12-12_12h50.06.670,posner_endo_new1,2024.2.4,59.978539678444044,2024-12-12 12h50.15.163974 +0000,
0.005,0.31,29,29,0,down,4.846661600000061,None,space,0.2727529999997387,None,,,,,,,,,0,29,29,29,1254.365756,,,,,,,,,,,,1254.3506833,1254.365756,1254.365756,1259.2298585,,,,1259.2306116000002,1259.2444388000001,1259.2444388000001,1259.2444388000001,1259.5440492999999,1259.5299610999998,,,,,,,,,,,,,,,,down,4.846661600000061,None,space,0.2727529999997387,None,P134,001,2024-12-12_12h50.06.670,posner_endo_new1,2024.2.4,59.978539678444044,2024-12-12 12h50.15.163974 +0000,
10,0.005,30,30,0,up,3.757053299999825,None,None,,,,,,,,,,,0,30,30,30,1259.5440492999999,,,,,,,,,,,,1259.5305182,1259.5440492999999,1259.5440492999999,1263.3095793999998,,,,1263.3103613,1263.3240400000002,1263.3240400000002,1263.3240400000002,1263.6231731,1266.3207435000002,,,,1264.3390926999998,,,,,,,,,,,,up,3.757053299999825,None,None,,,P134,001,2024-12-12_12h50.06.670,posner_endo_new1,2024.2.4,59.978539678444044,2024-12-12 12h50.15.163974 +0000,
0.31,0.005,31,31,0,down,10.755737200000112,None,space,0.30517390000022715,None,,,,,,,,,0,31,31,31,1266.3371244000002,,,,,,,,,,,,1266.3212728,1266.3371244000002,1266.3371244000002,1277.0954006,,,,1277.0961673,1277.1098737999998,1277.1098737999998,1277.1098737999998,1277.4091589000002,1277.4281898000002,,,,,,,,,,,,,,,,down,10.755737200000112,None,space,0.30517390000022715,None,P134,001,2024-12-12_12h50.06.670,posner_endo_new1,2024.2.4,59.978539678444044,2024-12-12 12h50.15.163974 +0000,
0.31,0.005,32,32,0,up,3.8264030000000275,None,space,0.2956232999999884,None,,,,,,,,,0,32,32,32,1277.4424327,,,,,,,,,,,,1277.4287391999999,1277.4424327,1277.4424327,1281.2745630000002,,,,1281.2753163999998,1281.2889977000002,1281.2889977000002,1281.2889977000002,1281.5882135,1281.5907467999998,,,,,,,,,,,,,,,,up,3.8264030000000275,None,space,0.2956232999999884,None,P134,001,2024-12-12_12h50.06.670,posner_endo_new1,2024.2.4,59.978539678444044,2024-12-12 12h50.15.163974 +0000,
10,0.005,33,33,0,down,4.887422300000253,None,None,,,,,,,,,,,0,33,33,33,1281.6048036,,,,,,,,,,,,1281.5913237000002,1281.6048036,1281.6048036,1286.5023668000001,,,,1286.5031098000002,1286.5168409,1286.5168409,1286.5168409,1286.8162301999998,1289.5136599999998,,,,1287.5320487000001,,,,,,,,,,,,down,4.887422300000253,None,None,,,P134,001,2024-12-12_12h50.06.670,posner_endo_new1,2024.2.4,59.978539678444044,2024-12-12 12h50.15.163974 +0000,
10,0.005,34,34,0,up,1.9225831999997354,None,None,,,,,,,,,,,0,34,34,34,1289.5300547,,,,,,,,,,,,1289.5141713,1289.5300547,1289.5300547,1291.4639889000002,,,,1291.4647384000002,1291.4784842000001,1291.4784842000001,1291.4784842000001,1291.7777039,1294.4752497000002,,,,1292.4936436,,,,,,,,,,,,up,1.9225831999997354,None,None,,,P134,001,2024-12-12_12h50.06.670,posner_endo_new1,2024.2.4,59.978539678444044,2024-12-12 12h50.15.163974 +0000,
-0.31,0.005,35,35,0,down,2.626465900000312,None,space,0.320712100000037,None,,,,,,,,,0,35,35,35,1294.491648,,,,,,,,,,,,1294.4757695,1294.491648,1294.491648,1297.1249405,,,,1297.1256864999998,1297.1393731,1297.1393731,1297.1393731,1297.4386278,1297.4743992,,,,,,,,,,,,,,,,down,2.626465900000312,None,space,0.320712100000037,None,P134,001,2024-12-12_12h50.06.670,posner_endo_new1,2024.2.4,59.978539678444044,2024-12-12 12h50.15.163974 +0000,
0.005,0.31,36,36,0,up,3.5163211999997657,None,space,0.28133519999983037,None,,,,,,,,,0,36,36,36,1297.4885782,,,,,,,,,,,,1297.4749633,1297.4885782,1297.4885782,1301.0208332999998,,,,1301.021568,1301.035365,1301.035365,1301.035365,1301.3347966,1301.3209788000001,,,,,,,,,,,,,,,,up,3.5163211999997657,None,space,0.28133519999983037,None,P134,001,2024-12-12_12h50.06.670,posner_endo_new1,2024.2.4,59.978539678444044,2024-12-12 12h50.15.163974 +0000,
0.31,0.005,37,37,0,down,4.269415399999616,None,space,0.3017838999999185,None,,,,,,,,,0,37,37,37,1301.3347966,,,,,,,,,,,,1301.3215400000001,1301.3347966,1301.3347966,1305.6160183999998,,,,1305.6167634,1305.6306336,1305.6306336,1305.6306336,1305.9299125,1305.9489981,,,,,,,,,,,,,,,,down,4.269415399999616,None,space,0.3017838999999185,None,P134,001,2024-12-12_12h50.06.670,posner_endo_new1,2024.2.4,59.978539678444044,2024-12-12 12h50.15.163974 +0000,
0.005,0.31,38,38,0,up,4.793296600000303,None,space,0.30179960000032224,None,,,,,,,,,0,38,38,38,1305.9632423,,,,,,,,,,,,1305.9495451,1305.9632423,1305.9632423,1310.7609768,,,,1310.7617429999998,1310.7755445,1310.7755445,1310.7755445,1311.0748689,1311.0939273000001,,,,,,,,,,,,,,,,up,4.793296600000303,None,space,0.30179960000032224,None,P134,001,2024-12-12_12h50.06.670,posner_endo_new1,2024.2.4,59.978539678444044,2024-12-12 12h50.15.163974 +0000,
-0.31,0.005,39,39,0,down,4.921139700000367,None,space,0.296705700000075,None,,,,,,,,,0,39,39,39,1311.1080135999998,,,,,,,,,,,,1311.0944978,1311.1080135999998,1311.1080135999998,1316.0386721000002,,,,1316.0394192,1316.0532637,1316.0532637,1316.0532637,1316.3526819,1316.3552628,,,,,,,,,,,,,,,,down,4.921139700000367,None,space,0.296705700000075,None,P134,001,2024-12-12_12h50.06.670,posner_endo_new1,2024.2.4,59.978539678444044,2024-12-12 12h50.15.163974 +0000,
-0.31,0.005,40,40,0,up,4.595109599999887,None,space,0.27351069999986066,None,,,,,,,,,0,40,40,40,1316.3692953000002,,,,,,,,,,,,1316.3558403,1316.3692953000002,1316.3692953000002,1320.9672751,,,,1320.9680070000002,1320.9816770999998,1320.9816770999998,1320.9816770999998,1321.2809513,1321.2670231,,,,,,,,,,,,,,,,up,4.595109599999887,None,space,0.27351069999986066,None,P134,001,2024-12-12_12h50.06.670,posner_endo_new1,2024.2.4,59.978539678444044,2024-12-12 12h50.15.163974 +0000,
0.005,0.31,41,41,0,down,4.787876699999742,None,space,0.2788258999999016,None,,,,,,,,,0,41,41,41,1321.2809513,,,,,,,,,,,,1321.2675851000001,1321.2809513,1321.2809513,1326.0785951,,,,1326.0793606,1326.0930823,1326.0930823,1326.0930823,1326.3924878999999,1326.3785295,,,,,,,,,,,,,,,,down,4.787876699999742,None,space,0.2788258999999016,None,P134,001,2024-12-12_12h50.06.670,posner_endo_new1,2024.2.4,59.978539678444044,2024-12-12 12h50.15.163974 +0000,
-0.31,0.005,42,42,0,up,4.187719699999889,None,space,0.2689135999999053,None,,,,,,,,,0,42,42,42,1326.3924878999999,,,,,,,,,,,,1326.3790969,1326.3924878999999,1326.3924878999999,1330.5906311,,,,1330.5913988,1330.6051568999999,1330.6051568999999,1330.6051568999999,1330.9044323,1330.8904040999998,,,,,,,,,,,,,,,,up,4.187719699999889,None,space,0.2689135999999053,None,P134,001,2024-12-12_12h50.06.670,posner_endo_new1,2024.2.4,59.978539678444044,2024-12-12 12h50.15.163974 +0000,
0.005,0.31,43,43,0,down,4.388521500000024,None,space,0.2699112000000241,None,,,,,,,,,0,43,43,43,1330.9044323,,,,,,,,,,,,1330.8909654000001,1330.9044323,1330.9044323,1335.3023612,,,,1335.3031265000002,1335.3169592000002,1335.3169592000002,1335.3169592000002,1335.6163187,1335.6023812,,,,,,,,,,,,,,,,down,4.388521500000024,None,space,0.2699112000000241,None,P134,001,2024-12-12_12h50.06.670,posner_endo_new1,2024.2.4,59.978539678444044,2024-12-12 12h50.15.163974 +0000,
0.005,0.31,44,44,0,up,3.172284899999795,None,space,0.26004169999987425,None,,,,,,,,,0,44,44,44,1335.6163187,,,,,,,,,,,,1335.6029440999998,1335.6163187,1335.6163187,1338.7989696000002,,,,1338.7997342,1338.8134152,1338.8134152,1338.8134152,,1339.0819580999998,,,,,,,,,,,,,,,,up,3.172284899999795,None,space,0.26004169999987425,None,P134,001,2024-12-12_12h50.06.670,posner_endo_new1,2024.2.4,59.978539678444044,2024-12-12 12h50.15.163974 +0000,
-0.31,0.005,45,45,0,down,4.412499999999909,None,space,0.288933199999974,None,,,,,,,,,0,45,45,45,1339.0960306999998,,,,,,,,,,,,1339.0825674999999,1339.0960306999998,1339.0960306999998,1343.5109916,,,,1343.5117367999999,1343.5253467999999,1343.5253467999999,1343.5253467999999,1343.8245433999998,1343.8270289,,,,,,,,,,,,,,,,down,4.412499999999909,None,space,0.288933199999974,None,P134,001,2024-12-12_12h50.06.670,posner_endo_new1,2024.2.4,59.978539678444044,2024-12-12 12h50.15.163974 +0000,
0.005,0.31,46,46,0,up,4.491236200000003,None,space,0.2717782999998235,None,,,,,,,,,0,46,46,46,1343.8411345000002,,,,,,,,,,,,1343.8275838000002,1343.8411345000002,1343.8411345000002,1348.3392815,,,,1348.3400292,1348.3536637,1348.3536637,1348.3536637,1348.6529305000001,1348.638882,,,,,,,,,,,,,,,,up,4.491236200000003,None,space,0.2717782999998235,None,P134,001,2024-12-12_12h50.06.670,posner_endo_new1,2024.2.4,59.978539678444044,2024-12-12 12h50.15.163974 +0000,
0.31,0.005,47,47,0,down,4.8722342000000936,None,space,0.2470034999996642,None,,,,,,,,,0,47,47,47,1348.6529305000001,,,,,,,,,,,,1348.6394415000002,1348.6529305000001,1348.6529305000001,1353.5341615,,,,1353.5349515999999,1353.5491037999998,1353.5491037999998,1353.5491037999998,,1353.8003999,,,,,,,,,,,,,,,,down,4.8722342000000936,None,space,0.2470034999996642,None,P134,001,2024-12-12_12h50.06.670,posner_endo_new1,2024.2.4,59.978539678444044,2024-12-12 12h50.15.163974 +0000,
0.31,0.005,48,48,0,up,4.158732200000031,None,space,0.2740347000003567,None,,,,,,,,,0,48,48,48,1353.814321,,,,,,,,,,,,1353.8009691999998,1353.814321,1353.814321,1357.9778015,,,,1357.9783016,1357.9928705,1357.9928705,1357.9928705,1358.2929482000002,1358.2774963,,,,,,,,,,,,,,,,up,4.158732200000031,None,space,0.2740347000003567,None,P134,001,2024-12-12_12h50.06.670,posner_endo_new1,2024.2.4,59.978539678444044,2024-12-12 12h50.15.163974 +0000,
0.31,0.005,49,49,0,down,4.591627099999641,None,space,0.27360970000017915,None,,,,,,,,,0,49,49,49,1358.2929482000002,,,,,,,,,,,,1358.2777503,1358.2929482000002,1358.2929482000002,1362.8894891000002,,,,1362.8898461,1362.9049811000002,1362.9049811000002,1362.9049811000002,1363.2046222000001,1363.1891312,,,,,,,,,,,,,,,,down,4.591627099999641,None,space,0.27360970000017915,None,P134,001,2024-12-12_12h50.06.670,posner_endo_new1,2024.2.4,59.978539678444044,2024-12-12 12h50.15.163974 +0000,
0.005,-0.31,50,50,0,up,4.047881299999972,None,space,0.2696904999997969,None,,,,,,,,,0,50,50,50,1363.2046222000001,,,,,,,,,,,,1363.1893791,1363.2046222000001,1363.2046222000001,1367.2681621999998,,,,1367.2685267,1367.2837487999998,1367.2837487999998,1367.2837487999998,1367.5835897,1367.5678612,,,,,,,,,,,,,,,,up,4.047881299999972,None,space,0.2696904999997969,None,P134,001,2024-12-12_12h50.06.670,posner_endo_new1,2024.2.4,59.978539678444044,2024-12-12 12h50.15.163974 +0000,
10,0.005,51,51,0,down,5.413013099999716,None,None,,,,,,,,,,,0,51,51,51,1367.5835897,,,,,,,,,,,,1367.5681117000001,1367.5835897,1367.5835897,1373.0124134999999,,,,1373.0127865000002,1373.0279106,1373.0279106,1373.0279106,1373.3276924999998,1376.0250098,,,,1374.0434518999998,,,,,,,,,,,,down,5.413013099999716,None,None,,,P134,001,2024-12-12_12h50.06.670,posner_endo_new1,2024.2.4,59.978539678444044,2024-12-12 12h50.15.163974 +0000,
0.31,0.005,52,52,0,up,2.81139069999972,None,space,0.3410636000003251,None,,,,,,,,,0,52,52,52,1376.0414969,,,,,,,,,,,,1376.0252417,1376.0414969,1376.0414969,1378.8563700000002,,,,1378.8567084,1378.8719122,1378.8719122,1378.8719122,1379.1716229,1379.2226878,,,,,,,,,,,,,,,,up,2.81139069999972,None,space,0.3410636000003251,None,P134,001,2024-12-12_12h50.06.670,posner_endo_new1,2024.2.4,59.978539678444044,2024-12-12 12h50.15.163974 +0000,
-0.31,0.005,53,53,0,down,3.974167899999884,None,space,0.33315429999993285,None,,,,,,,,,0,53,53,53,1379.2382885,,,,,,,,,,,,1379.2229393999999,1379.2382885,1379.2382885,1383.2184277,,,,1383.2187769,1383.2341339000002,1383.2341339000002,1383.2341339000002,1383.5338153999999,1383.5685509000002,,,,,,,,,,,,,,,,down,3.974167899999884,None,space,0.33315429999993285,None,P134,001,2024-12-12_12h50.06.670,posner_endo_new1,2024.2.4,59.978539678444044,2024-12-12 12h50.15.163974 +0000,
0.005,0.31,54,54,0,up,3.7568176999998286,None,space,0.2854853999997431,None,,,,,,,,,0,54,54,54,1383.5837238000001,,,,,,,,,,,,1383.5687943,1383.5837238000001,1383.5837238000001,1387.3492912,,,,1387.3500554,1387.3638139000002,1387.3638139000002,1387.3638139000002,1387.6630302,1387.665601,,,,,,,,,,,,,,,,up,3.7568176999998286,None,space,0.2854853999997431,None,P134,001,2024-12-12_12h50.06.670,posner_endo_new1,2024.2.4,59.978539678444044,2024-12-12 12h50.15.163974 +0000,
-0.31,0.005,55,55,0,down,5.7414222000002155,None,space,0.3190636999997878,None,,,,,,,,,0,55,55,55,1387.6796990999999,,,,,,,,,,,,1387.6661494000002,1387.6796990999999,1387.6796990999999,1393.4262241,,,,1393.4269578,1393.4408372999999,1393.4408372999999,1393.4408372999999,1393.7401731000002,1393.7758900000001,,,,,,,,,,,,,,,,down,5.7414222000002155,None,space,0.3190636999997878,None,P134,001,2024-12-12_12h50.06.670,posner_endo_new1,2024.2.4,59.978539678444044,2024-12-12 12h50.15.163974 +0000,
0.005,0.31,56,56,0,up,4.214700600000015,None,space,0.29471689999991213,None,,,,,,,,,0,56,56,56,1393.7900674999999,,,,,,,,,,,,1393.7764421,1393.7900674999999,1393.7900674999999,1398.0215597,,,,1398.0223088,1398.0359482000001,1398.0359482000001,1398.0359482000001,1398.335476,1398.3381547000001,,,,,,,,,,,,,,,,up,4.214700600000015,None,space,0.29471689999991213,None,P134,001,2024-12-12_12h50.06.670,posner_endo_new1,2024.2.4,59.978539678444044,2024-12-12 12h50.15.163974 +0000,
0.31,0.005,57,57,0,down,5.1087681999997585,None,space,0.2880318999996234,None,,,,,,,,,0,57,57,57,1398.3520790999999,,,,,,,,,,,,1398.3387095,1398.3520790999999,1398.3520790999999,1403.4659927999999,,,,1403.4667539,1403.4805846000002,1403.4805846000002,1403.4805846000002,1403.7799455000002,1403.7825083999999,,,,,,,,,,,,,,,,down,5.1087681999997585,None,space,0.2880318999996234,None,P134,001,2024-12-12_12h50.06.670,posner_endo_new1,2024.2.4,59.978539678444044,2024-12-12 12h50.15.163974 +0000,
10,0.005,58,58,0,up,3.1527612999998382,None,None,,,,,,,,,,,0,58,58,58,1403.7966789,,,,,,,,,,,,1403.7830654000002,1403.7966789,1403.7966789,1406.9623018,,,,1406.9630596,1406.976969,1406.976969,1406.976969,1407.2763114000002,1409.9738595000001,,,,1407.9922460999999,,,,,,,,,,,,up,3.1527612999998382,None,None,,,P134,001,2024-12-12_12h50.06.670,posner_endo_new1,2024.2.4,59.978539678444044,2024-12-12 12h50.15.163974 +0000,
10,0.005,59,59,0,down,2.5510008000001108,None,None,,,,,,,,,,,0,59,59,59,1409.9902095999998,,,,,,,,,,,,1409.9743709000002,1409.9902095999998,1409.9902095999998,1412.5566199000002,,,,1412.5573686,1412.5715005,1412.5715005,1412.5715005,1412.8705928000002,1415.5681654000002,,,,1413.5865548999998,,,,,,,,,,,,down,2.5510008000001108,None,None,,,P134,001,2024-12-12_12h50.06.670,posner_endo_new1,2024.2.4,59.978539678444044,2024-12-12 12h50.15.163974 +0000,
