target_y,target_x,thisN,thisTrialN,thisRepN,key_control2.keys,key_control2.rt,key_control2.duration,key_resp.keys,key_resp.rt,key_resp.duration,practice.thisRepN,practice.thisTrialN,practice.thisN,practice.thisIndex,session_1.thisRepN,session_1.thisTrialN,session_1.thisN,session_1.thisIndex,session_2.thisRepN,session_2.thisTrialN,session_2.thisN,session_2.thisIndex,thisRow.t,notes,instructions.started,instructions_txt.started,key_control.started,instructions.stopped,key_control.keys,key_control.rt,key_control.duration,ready.started,ready_txt.started,ready.stopped,fix.started,key_control2.started,fixation_cross.started,fix.stopped,practice.key_control2.keys,practice.key_control2.rt,practice.key_control2.duration,target.started,star.started,fixation_cross_target.started,key_resp.started,star.stopped,target.stopped,practice.key_resp.keys,practice.key_resp.rt,practice.key_resp.duration,key_resp.stopped,session_1.key_control2.keys,session_1.key_control2.rt,session_1.key_control2.duration,session_1.key_resp.keys,session_1.key_resp.rt,session_1.key_resp.duration,break_2.started,text.started,key_control3.started,break_2.stopped,key_control3.keys,session_2.key_control2.keys,session_2.key_control2.rt,session_2.key_control2.duration,session_2.key_resp.keys,session_2.key_resp.rt,session_2.key_resp.duration,participant,session,date,expName,psychopyVersion,frameRate,expStart,
,,,,,,,,,,,,,,,,,,,,,,,,,0.007443800000146439,0.019495000000006257,0.019495000000006257,591.3989913,up,591.3749041000001,None,,,,,,,,,,,,,,,,,,,,,,,,,,,,,,,,,,,,,,P135,001,2024-12-12_13h15.32.470,posner_endo_new1,2024.2.4,60.05461366576052,2024-12-12 13h15.39.903285 +0000,
,,,,,,,,,,,,,,,,,,,,,,,,,,,,,,,,591.3990393999998,591.4120733999998,594.4091517000002,,,,,,,,,,,,,,,,,,,,,,,,,,,,,,,,,,,P135,001,2024-12-12_13h15.32.470,posner_endo_new1,2024.2.4,60.05461366576052,2024-12-12 13h15.39.903285 +0000,
-0.31,0.005,0,0,0,up,13.703217300000233,None,space,0.3998884000002363,None,0,0,0,2,,,,,,,,,594.426422,,,,,,,,,,,,594.4158616999998,594.426422,594.426422,608.1462852,up,13.703217300000233,None,608.1467056000001,608.1616122999999,608.1616122999999,608.1616122999999,608.4612738999999,608.5627043999998,space,0.3998884000002363,None,,,,,,,,,,,,,,,,,,,P135,001,2024-12-12_13h15.32.470,posner_endo_new1,2024.2.4,60.05461366576052,2024-12-12 13h15.39.903285 +0000,
-0.31,0.005,1,1,0,down,13.752390000000105,None,space,0.6009484999999586,None,0,1,1,0,,,,,,,,,608.5779017,,,,,,,,,,,,608.5629608999998,608.5779017,608.5779017,622.3310980000001,down,13.752390000000105,None,622.3313361,622.3472603999999,622.3472603999999,622.3472603999999,622.6470328,622.9640789,space,0.6009484999999586,None,,,,,,,,,,,,,,,,,,,P135,001,2024-12-12_13h15.32.470,posner_endo_new1,2024.2.4,60.05461366576052,2024-12-12 13h15.39.903285 +0000,
0.005,-0.31,2,2,0,up,3.6060718999997334,None,space,0.30423130000008314,None,0,2,2,5,,,,,,,,,622.9797263999999,,,,,,,,,,,,622.9642313999998,622.9797263999999,622.9797263999999,626.5935807000001,up,3.6060718999997334,None,626.5938145999999,626.6095550999999,626.6095550999999,626.6095550999999,626.9092612999998,626.9265798000001,space,0.30423130000008314,None,,,,,,,,,,,,,,,,,,,P135,001,2024-12-12_13h15.32.470,posner_endo_new1,2024.2.4,60.05461366576052,2024-12-12 13h15.39.903285 +0000,
10,0.005,3,3,0,down,4.915097400000377,None,None,,,0,3,3,4,,,,,,,,,626.9426868,,,,,,,,,,,,626.9267326999998,626.9426868,626.9426868,631.8713459,down,4.915097400000377,None,631.8715815,631.8875578000002,631.8875578000002,631.8875578000002,632.1871784999998,634.8845921000002,None,,,632.903104,,,,,,,,,,,,,,,,,,P135,001,2024-12-12_13h15.32.470,posner_endo_new1,2024.2.4,60.05461366576052,2024-12-12 13h15.39.903285 +0000,
0.31,0.005,4,4,0,up,2.276825000000372,None,space,0.40445590000035736,None,0,4,4,3,,,,,,,,,634.9010110999998,,,,,,,,,,,,634.8847405000001,634.9010110999998,634.9010110999998,637.183023,up,2.276825000000372,None,637.1832641999999,637.1986422,637.1986422,637.1986422,637.4984808999998,637.615554,space,0.40445590000035736,None,,,,,,,,,,,,,,,,,,,P135,001,2024-12-12_13h15.32.470,posner_endo_new1,2024.2.4,60.05461366576052,2024-12-12 13h15.39.903285 +0000,
0.005,10,5,5,0,down,13.530802599999788,None,None,,,0,5,5,9,,,,,,,,,637.6315831000002,,,,,,,,,,,,637.6157054,637.6315831000002,637.6315831000002,651.1686537999999,down,13.530802599999788,None,651.1688875,651.1843210000002,651.1843210000002,651.1843210000002,651.4840782000001,654.1813557,None,,,652.1999786000001,,,,,,,,,,,,,,,,,,P135,001,2024-12-12_13h15.32.470,posner_endo_new1,2024.2.4,60.05461366576052,2024-12-12 13h15.39.903285 +0000,
0.31,0.005,6,6,0,up,39.91664089999995,None,space,0.3666803000000982,None,0,6,6,1,,,,,,,,,654.1979824,,,,,,,,,,,,654.1815040000001,654.1979824,654.1979824,694.1243872999999,up,39.91664089999995,None,694.1246231999999,694.1404489000001,694.1404489000001,694.1404489000001,694.4400841000001,694.5239839000001,space,0.3666803000000982,None,,,,,,,,,,,,,,,,,,,P135,001,2024-12-12_13h15.32.470,posner_endo_new1,2024.2.4,60.05461366576052,2024-12-12 13h15.39.903285 +0000,
0.005,-0.31,7,7,0,down,4.782629899999847,None,space,0.36837169999989783,None,0,7,7,7,,,,,,,,,694.5400786,,,,,,,,,,,,694.5241366,694.5400786,694.5400786,699.3356340999999,down,4.782629899999847,None,699.3358791999999,699.3517843999998,699.3517843999998,699.3517843999998,699.6515359999999,699.7353671999999,space,0.36837169999989783,None,,,,,,,,,,,,,,,,,,,P135,001,2024-12-12_13h15.32.470,posner_endo_new1,2024.2.4,60.05461366576052,2024-12-12 13h15.39.903285 +0000,
0.005,0.31,8,8,0,up,4.466279199999917,None,space,0.42646430000013424,None,0,8,8,6,,,,,,,,,699.7514583000002,,,,,,,,,,,,699.7355186,699.7514583000002,699.7514583000002,704.2305906000001,up,4.466279199999917,None,704.2308275,704.2466666999999,704.2466666999999,704.2466666999999,704.5463756999998,704.6801894,space,0.42646430000013424,None,,,,,,,,,,,,,,,,,,,P135,001,2024-12-12_13h15.32.470,posner_endo_new1,2024.2.4,60.05461366576052,2024-12-12 13h15.39.903285 +0000,
0.005,0.31,9,9,0,down,4.106891299999916,None,space,0.33689259999982824,None,0,9,9,8,,,,,,,,,704.6963428999998,,,,,,,,,,,,704.6803521000002,704.6963428999998,704.6963428999998,708.8096507,down,4.106891299999916,None,708.8098862000002,708.8258022999999,708.8258022999999,708.8258022999999,709.1251772,709.1756783999999,space,0.33689259999982824,None,,,,,,,,,,,,,,,,,,,P135,001,2024-12-12_13h15.32.470,posner_endo_new1,2024.2.4,60.05461366576052,2024-12-12 13h15.39.903285 +0000,
,,,,,,,,,,,,,,,,,,,,,,,,,,,,,,,,709.1757815999999,709.1917557000002,712.1887772999999,,,,,,,,,,,,,,,,,,,,,,,,,,,,,,,,,,,P135,001,2024-12-12_13h15.32.470,posner_endo_new1,2024.2.4,60.05461366576052,2024-12-12 13h15.39.903285 +0000,
-0.31,0.005,0,0,0,up,34.71553659999972,None,space,0.3442979000001287,None,,,,,0,0,0,0,,,,,712.2069237000001,,,,,,,,,,,,712.1967349000001,712.2069237000001,712.2069237000001,746.9376232999998,,,,746.9380029999998,746.9531139000001,746.9531139000001,746.9531139000001,747.2527946999999,747.3039985999999,,,,,up,34.71553659999972,None,space,0.3442979000001287,None,,,,,,,,,,,,P135,001,2024-12-12_13h15.32.470,posner_endo_new1,2024.2.4,60.05461366576052,2024-12-12 13h15.39.903285 +0000,
0.005,-0.31,1,1,0,down,6.3071828000001915,None,space,0.4043133999998645,None,,,,,0,1,1,1,,,,,747.3195122000002,,,,,,,,,,,,747.3042716999998,747.3195122000002,747.3195122000002,753.6307599000002,,,,753.6311338,753.6462980000001,753.6462980000001,753.6462980000001,753.9459783000002,754.0637278999998,,,,,down,6.3071828000001915,None,space,0.4043133999998645,None,,,,,,,,,,,,P135,001,2024-12-12_13h15.32.470,posner_endo_new1,2024.2.4,60.05461366576052,2024-12-12 13h15.39.903285 +0000,
10,0.005,2,2,0,up,1.8916721999999027,None,None,,,,,,,0,2,2,2,,,,,754.0791334999999,,,,,,,,,,,,754.0639909000001,754.0791334999999,754.0791334999999,755.9783791999998,,,,755.9787572999999,755.9937985000001,755.9937985000001,755.9937985000001,756.2934693000002,758.9909630000002,,,,756.9928894,up,1.8916721999999027,None,None,,,,,,,,,,,,,,P135,001,2024-12-12_13h15.32.470,posner_endo_new1,2024.2.4,60.05461366576052,2024-12-12 13h15.39.903285 +0000,
0.005,-0.31,3,3,0,down,3.010982199999944,None,space,0.4006362000000081,None,,,,,0,3,3,3,,,,,759.0073723,,,,,,,,,,,,758.9912106000002,759.0073723,759.0073723,762.0221528000002,,,,762.0225265999998,762.0376505999998,762.0376505999998,762.0376505999998,762.3375642999999,762.4549897000002,,,,,down,3.010982199999944,None,space,0.4006362000000081,None,,,,,,,,,,,,P135,001,2024-12-12_13h15.32.470,posner_endo_new1,2024.2.4,60.05461366576052,2024-12-12 13h15.39.903285 +0000,
0.005,-0.31,4,4,0,up,2.291496199999983,None,space,0.38419919999978447,None,,,,,0,4,4,4,,,,,762.4706135000001,,,,,,,,,,,,762.4552613999999,762.4706135000001,762.4706135000001,764.7692886999998,,,,764.7696651000001,764.7847698999999,764.7847698999999,764.7847698999999,765.0844978999999,765.1856060999999,,,,,up,2.291496199999983,None,space,0.38419919999978447,None,,,,,,,,,,,,P135,001,2024-12-12_13h15.32.470,posner_endo_new1,2024.2.4,60.05461366576052,2024-12-12 13h15.39.903285 +0000,
0.005,-0.31,5,5,0,down,5.896681700000045,None,space,0.35447320000002946,None,,,,,0,5,5,5,,,,,765.2012083,,,,,,,,,,,,765.1858723,765.2012083,765.2012083,771.1128269000001,,,,771.1132057,771.1283668000001,771.1283668000001,771.1283668000001,771.4280732000002,771.4957874000002,,,,,down,5.896681700000045,None,space,0.35447320000002946,None,,,,,,,,,,,,P135,001,2024-12-12_13h15.32.470,posner_endo_new1,2024.2.4,60.05461366576052,2024-12-12 13h15.39.903285 +0000,
0.005,0.31,6,6,0,up,9.16320259999975,None,space,0.3772276999998212,None,,,,,0,6,6,6,,,,,771.5113141000002,,,,,,,,,,,,771.4960519000001,771.5113141000002,771.5113141000002,780.6864673,,,,780.6868380999999,780.7020017,780.7020017,780.7020017,781.0016633,781.0861776000002,,,,,up,9.16320259999975,None,space,0.3772276999998212,None,,,,,,,,,,,,P135,001,2024-12-12_13h15.32.470,posner_endo_new1,2024.2.4,60.05461366576052,2024-12-12 13h15.39.903285 +0000,
0.005,0.31,7,7,0,down,9.77276269999993,None,space,0.4215940000003684,None,,,,,0,7,7,7,,,,,781.1014761000001,,,,,,,,,,,,781.0864403999999,781.1014761000001,781.1014761000001,790.8763152000001,,,,790.8766863000001,790.8914651999999,790.8914651999999,790.8914651999999,791.1911347,791.3254946000002,,,,,down,9.77276269999993,None,space,0.4215940000003684,None,,,,,,,,,,,,P135,001,2024-12-12_13h15.32.470,posner_endo_new1,2024.2.4,60.05461366576052,2024-12-12 13h15.39.903285 +0000,
-0.31,0.005,8,8,0,up,8.006275000000187,None,space,0.32794449999983044,None,,,,,0,8,8,8,,,,,791.3410442999998,,,,,,,,,,,,791.3257598,791.3410442999998,791.3410442999998,799.3506388999999,,,,799.3510096,799.3662026000002,799.3662026000002,799.3662026000002,799.6659031999998,799.7003583999999,,,,,up,8.006275000000187,None,space,0.32794449999983044,None,,,,,,,,,,,,P135,001,2024-12-12_13h15.32.470,posner_endo_new1,2024.2.4,60.05461366576052,2024-12-12 13h15.39.903285 +0000,
-0.31,0.005,9,9,0,down,14.373932200000127,None,space,0.3778423000003386,None,,,,,0,9,9,9,,,,,799.7158902000001,,,,,,,,,,,,799.7006237,799.7158902000001,799.7158902000001,814.1021756,,,,814.1025587999998,814.1177272999998,814.1177272999998,814.1177272999998,814.4174196999998,814.5019278999998,,,,,down,14.373932200000127,None,space,0.3778423000003386,None,,,,,,,,,,,,P135,001,2024-12-12_13h15.32.470,posner_endo_new1,2024.2.4,60.05461366576052,2024-12-12 13h15.39.903285 +0000,
-0.31,0.005,10,10,0,up,3.9646382999999332,None,space,0.4034217000003082,None,,,,,0,10,10,10,,,,,814.5172653,,,,,,,,,,,,814.5021934000001,814.5172653,814.5172653,818.4978433000001,,,,818.4982279000001,818.5133345999998,818.5133345999998,818.5133345999998,818.8131358,818.9306774000001,,,,,up,3.9646382999999332,None,space,0.4034217000003082,None,,,,,,,,,,,,P135,001,2024-12-12_13h15.32.470,posner_endo_new1,2024.2.4,60.05461366576052,2024-12-12 13h15.39.903285 +0000,
-0.31,0.005,11,11,0,down,3.3201712000000043,None,space,0.4904074999999466,None,,,,,0,11,11,11,,,,,818.9461305999998,,,,,,,,,,,,818.9309434000002,818.9461305999998,818.9461305999998,822.2772191999998,,,,822.2775963999998,822.2927315000002,822.2927315000002,822.2927315000002,822.5924077,822.7935029999999,,,,,down,3.3201712000000043,None,space,0.4904074999999466,None,,,,,,,,,,,,P135,001,2024-12-12_13h15.32.470,posner_endo_new1,2024.2.4,60.05461366576052,2024-12-12 13h15.39.903285 +0000,
0.005,-0.31,12,12,0,up,13.633515399999851,None,space,0.3356610999999248,None,,,,,0,12,12,12,,,,,822.8088151000002,,,,,,,,,,,,822.7937689999999,822.8088151000002,822.8088151000002,836.4461686,,,,836.4465476,836.4615352000001,836.4615352000001,836.4615352000001,836.7612254999999,836.8123301,,,,,up,13.633515399999851,None,space,0.3356610999999248,None,,,,,,,,,,,,P135,001,2024-12-12_13h15.32.470,posner_endo_new1,2024.2.4,60.05461366576052,2024-12-12 13h15.39.903285 +0000,
0.005,-0.31,13,13,0,down,3.4072289999999157,None,space,0.4522483000000648,None,,,,,0,13,13,13,,,,,836.8279732999999,,,,,,,,,,,,836.8125967000001,836.8279732999999,836.8279732999999,840.2421829,,,,840.2425573,840.2576598,840.2576598,840.2576598,840.5573964,840.7249965999999,,,,,down,3.4072289999999157,None,space,0.4522483000000648,None,,,,,,,,,,,,P135,001,2024-12-12_13h15.32.470,posner_endo_new1,2024.2.4,60.05461366576052,2024-12-12 13h15.39.903285 +0000,
-0.31,0.005,14,14,0,up,3.53395509999973,None,space,0.3365555000000313,None,,,,,0,14,14,14,,,,,840.7402957999998,,,,,,,,,,,,840.7252732000002,840.7402957999998,840.7402957999998,844.2880734999999,,,,844.2884543999999,844.3035623000001,844.3035623000001,844.3035623000001,844.6033545,844.6543035,,,,,up,3.53395509999973,None,space,0.3365555000000313,None,,,,,,,,,,,,P135,001,2024-12-12_13h15.32.470,posner_endo_new1,2024.2.4,60.05461366576052,2024-12-12 13h15.39.903285 +0000,
10,0.005,15,15,0,down,5.364056099999743,None,None,,,,,,,0,15,15,15,,,,,844.6697666999999,,,,,,,,,,,,844.6545698999998,844.6697666999999,844.6697666999999,850.0487705999999,,,,850.0491458000001,850.0644204999999,850.0644204999999,850.0644204999999,850.3638959999998,853.0613650999999,,,,851.0799584000001,down,5.364056099999743,None,None,,,,,,,,,,,,,,P135,001,2024-12-12_13h15.32.470,posner_endo_new1,2024.2.4,60.05461366576052,2024-12-12 13h15.39.903285 +0000,
0.005,0.31,16,16,0,up,8.204558800000086,None,space,0.39544809999961217,None,,,,,0,16,16,16,,,,,853.0779520000001,,,,,,,,,,,,853.0616301,853.0779520000001,853.0779520000001,861.2874176,,,,861.2877908,861.3028159,861.3028159,861.3028159,861.6025261,861.7036837999999,,,,,up,8.204558800000086,None,space,0.39544809999961217,None,,,,,,,,,,,,P135,001,2024-12-12_13h15.32.470,posner_endo_new1,2024.2.4,60.05461366576052,2024-12-12 13h15.39.903285 +0000,
0.005,-0.31,17,17,0,down,4.779485900000054,None,space,0.3645778000000064,None,,,,,0,17,17,17,,,,,861.7190664,,,,,,,,,,,,861.7039482999999,861.7190664,861.7190664,866.5154214999998,,,,866.5157992999998,866.5308584999998,866.5308584999998,866.5308584999998,866.8304927999998,866.8982663000002,,,,,down,4.779485900000054,None,space,0.3645778000000064,None,,,,,,,,,,,,P135,001,2024-12-12_13h15.32.470,posner_endo_new1,2024.2.4,60.05461366576052,2024-12-12 13h15.39.903285 +0000,
10,0.005,18,18,0,up,17.888959800000066,None,None,,,,,,,0,18,18,18,,,,,866.9138216000001,,,,,,,,,,,,866.8985394000001,866.9138216000001,866.9138216000001,884.8126978999999,,,,884.8129371999999,884.8291098,884.8291098,884.8291098,885.1285352999998,887.8261306999998,,,,885.8444708000002,up,17.888959800000066,None,None,,,,,,,,,,,,,,P135,001,2024-12-12_13h15.32.470,posner_endo_new1,2024.2.4,60.05461366576052,2024-12-12 13h15.39.903285 +0000,
10,0.005,19,19,0,down,0.8884198999999171,None,None,,,,,,,0,19,19,19,,,,,887.8423511999999,,,,,,,,,,,,887.8262847999999,887.8423511999999,887.8423511999999,888.7419737999999,,,,888.7422129000001,888.7581395000002,888.7581395000002,888.7581395000002,889.0579828,891.7550554,,,,889.773745,down,0.8884198999999171,None,None,,,,,,,,,,,,,,P135,001,2024-12-12_13h15.32.470,posner_endo_new1,2024.2.4,60.05461366576052,2024-12-12 13h15.39.903285 +0000,
0.005,0.31,20,20,0,up,0.8551026000000093,None,space,0.41277480000007927,None,,,,,0,20,20,20,,,,,891.7715238000001,,,,,,,,,,,,891.7552151999998,891.7715238000001,891.7715238000001,892.6380820999998,,,,892.6383299999998,892.6541591,892.6541591,892.6541591,892.9537915999999,893.0709548,,,,,up,0.8551026000000093,None,space,0.41277480000007927,None,,,,,,,,,,,,P135,001,2024-12-12_13h15.32.470,posner_endo_new1,2024.2.4,60.05461366576052,2024-12-12 13h15.39.903285 +0000,
0.005,-0.31,21,21,0,down,3.3548224999999547,None,space,0.4073293999999805,None,,,,,0,21,21,21,,,,,893.0869567,,,,,,,,,,,,893.0711231,893.0869567,893.0869567,896.4508175999999,,,,896.4510633,896.4668662999998,896.4668662999998,896.4668662999998,896.7665760999998,896.8838629000002,,,,,down,3.3548224999999547,None,space,0.4073293999999805,None,,,,,,,,,,,,P135,001,2024-12-12_13h15.32.470,posner_endo_new1,2024.2.4,60.05461366576052,2024-12-12 13h15.39.903285 +0000,
0.005,-0.31,22,22,0,up,3.4864102999999886,None,space,0.40189849999978833,None,,,,,0,22,22,22,,,,,896.8997304,,,,,,,,,,,,896.8840218,896.8997304,896.8997304,900.396921,,,,900.3971568000002,900.4127557000002,900.4127557000002,900.4127557000002,900.7125547999999,900.8299458000001,,,,,up,3.4864102999999886,None,space,0.40189849999978833,None,,,,,,,,,,,,P135,001,2024-12-12_13h15.32.470,posner_endo_new1,2024.2.4,60.05461366576052,2024-12-12 13h15.39.903285 +0000,
10,0.005,23,23,0,down,3.1815570999997362,None,None,,,,,,,0,23,23,23,,,,,900.8458415,,,,,,,,,,,,900.830113,900.8458415,900.8458415,904.0431973999998,,,,904.0434320999998,904.0592419,904.0592419,904.0592419,904.3587465999999,907.0561121999999,,,,905.0747385999998,down,3.1815570999997362,None,None,,,,,,,,,,,,,,P135,001,2024-12-12_13h15.32.470,posner_endo_new1,2024.2.4,60.05461366576052,2024-12-12 13h15.39.903285 +0000,
10,0.005,24,24,0,up,0.793248400000266,None,None,,,,,,,0,24,24,24,,,,,907.0727299,,,,,,,,,,,,907.0562651,907.0727299,907.0727299,907.8726117000001,,,,907.8728525000001,907.8887208000001,907.8887208000001,907.8887208000001,908.1882168000002,910.8854544000001,,,,908.9039902,up,0.793248400000266,None,None,,,,,,,,,,,,,,P135,001,2024-12-12_13h15.32.470,posner_endo_new1,2024.2.4,60.05461366576052,2024-12-12 13h15.39.903285 +0000,
0.005,0.31,25,25,0,down,10.26861450000024,None,space,0.3039954000000762,None,,,,,0,25,25,25,,,,,910.9020436000001,,,,,,,,,,,,910.8856092000001,910.9020436000001,910.9020436000001,921.1761786000002,,,,921.1765620000001,921.1915730999999,921.1915730999999,921.1915730999999,921.4912405999999,921.5091613999998,,,,,down,10.26861450000024,None,space,0.3039954000000762,None,,,,,,,,,,,,P135,001,2024-12-12_13h15.32.470,posner_endo_new1,2024.2.4,60.05461366576052,2024-12-12 13h15.39.903285 +0000,
0.31,0.005,26,26,0,up,3.7502315000001545,None,space,0.368854299999839,None,,,,,0,26,26,26,,,,,921.5246637999999,,,,,,,,,,,,921.5094284000002,921.5246637999999,921.5246637999999,925.2885691000001,,,,925.2889504999998,925.3039902,925.3039902,925.3039902,925.6036515999999,925.6878367999998,,,,,up,3.7502315000001545,None,space,0.368854299999839,None,,,,,,,,,,,,P135,001,2024-12-12_13h15.32.470,posner_endo_new1,2024.2.4,60.05461366576052,2024-12-12 13h15.39.903285 +0000,
-0.31,0.005,27,27,0,down,4.4029717000003075,None,space,0.36399299999993673,None,,,,,0,27,27,27,,,,,925.7038262000001,,,,,,,,,,,,925.6880221000001,925.7038262000001,925.7038262000001,930.1165056,,,,930.1167783999999,930.1322995999999,930.1322995999999,930.1322995999999,930.4322068000001,930.4995248999999,,,,,down,4.4029717000003075,None,space,0.36399299999993673,None,,,,,,,,,,,,P135,001,2024-12-12_13h15.32.470,posner_endo_new1,2024.2.4,60.05461366576052,2024-12-12 13h15.39.903285 +0000,
0.005,-0.31,28,28,0,up,15.318876699999691,None,space,0.419968699999572,None,,,,,0,28,28,28,,,,,930.5153086999999,,,,,,,,,,,,930.4997054,930.5153086999999,930.5153086999999,945.8503166999999,,,,945.8506002999998,945.8663077000001,945.8663077000001,945.8663077000001,946.1659611,946.3000135000002,,,,,up,15.318876699999691,None,space,0.419968699999572,None,,,,,,,,,,,,P135,001,2024-12-12_13h15.32.470,posner_endo_new1,2024.2.4,60.05461366576052,2024-12-12 13h15.39.903285 +0000,
0.005,-0.31,29,29,0,down,4.598316999999952,None,space,0.473244700000123,None,,,,,0,29,29,29,,,,,946.3159135999999,,,,,,,,,,,,946.3001949,946.3159135999999,946.3159135999999,950.9284818000001,,,,950.9287462000002,950.9444480000002,950.9444480000002,950.9444480000002,951.244201,951.4281692999998,,,,,down,4.598316999999952,None,space,0.473244700000123,None,,,,,,,,,,,,P135,001,2024-12-12_13h15.32.470,posner_endo_new1,2024.2.4,60.05461366576052,2024-12-12 13h15.39.903285 +0000,
10,0.005,30,30,0,up,6.510804200000166,None,None,,,,,,,0,30,30,30,,,,,951.4440000999998,,,,,,,,,,,,951.4283501,951.4440000999998,951.4440000999998,957.9715803999998,,,,957.9718443000002,957.9873336999999,957.9873336999999,957.9873336999999,958.2869731999999,960.9843093999998,,,,959.0028699,up,6.510804200000166,None,None,,,,,,,,,,,,,,P135,001,2024-12-12_13h15.32.470,posner_endo_new1,2024.2.4,60.05461366576052,2024-12-12 13h15.39.903285 +0000,
0.005,-0.31,31,31,0,down,2.3770023000001856,None,space,0.30408559999978024,None,,,,,0,31,31,31,,,,,961.0009752000001,,,,,,,,,,,,960.9844855000001,961.0009752000001,961.0009752000001,963.3826801,,,,963.3829469000002,963.3983616999999,963.3983616999999,963.3983616999999,963.6981378999999,963.7157769,,,,,down,2.3770023000001856,None,space,0.30408559999978024,None,,,,,,,,,,,,P135,001,2024-12-12_13h15.32.470,posner_endo_new1,2024.2.4,60.05461366576052,2024-12-12 13h15.39.903285 +0000,
0.31,0.005,32,32,0,up,1.9112126999998509,None,space,0.5103150999998434,None,,,,,0,32,32,32,,,,,963.7314832000002,,,,,,,,,,,,963.7159581999999,963.7314832000002,963.7314832000002,965.6470709999999,,,,965.6473362000002,965.6627761999998,965.6627761999998,965.6627761999998,965.9624927,966.1796568999998,,,,,up,1.9112126999998509,None,space,0.5103150999998434,None,,,,,,,,,,,,P135,001,2024-12-12_13h15.32.470,posner_endo_new1,2024.2.4,60.05461366576052,2024-12-12 13h15.39.903285 +0000,
0.005,-0.31,33,33,0,down,5.391332700000021,None,space,0.36938969999982874,None,,,,,0,33,33,33,,,,,966.1954621999998,,,,,,,,,,,,966.1798380999999,966.1954621999998,966.1954621999998,971.5909615,,,,971.5912321000001,971.6067478999998,971.6067478999998,971.6067478999998,971.9064966999999,971.9903755,,,,,down,5.391332700000021,None,space,0.36938969999982874,None,,,,,,,,,,,,P135,001,2024-12-12_13h15.32.470,posner_endo_new1,2024.2.4,60.05461366576052,2024-12-12 13h15.39.903285 +0000,
10,0.005,34,34,0,up,2.81195469999966,None,None,,,,,,,0,34,34,34,,,,,972.0062846000001,,,,,,,,,,,,971.9905562999998,972.0062846000001,972.0062846000001,974.8208460000001,,,,974.8211090999998,974.8366630999999,974.8366630999999,974.8366630999999,975.1363624,977.8338315999999,,,,975.8522671000001,up,2.81195469999966,None,None,,,,,,,,,,,,,,P135,001,2024-12-12_13h15.32.470,posner_endo_new1,2024.2.4,60.05461366576052,2024-12-12 13h15.39.903285 +0000,
0.31,0.005,35,35,0,down,3.0806228999999803,None,space,0.37471640000012485,None,,,,,0,35,35,35,,,,,977.8503354999998,,,,,,,,,,,,977.8340067999998,977.8503354999998,977.8503354999998,980.9479735999998,,,,980.9482438,980.9638962999998,980.9638962999998,980.9638962999998,981.2634717999999,981.3474471,,,,,down,3.0806228999999803,None,space,0.37471640000012485,None,,,,,,,,,,,,P135,001,2024-12-12_13h15.32.470,posner_endo_new1,2024.2.4,60.05461366576052,2024-12-12 13h15.39.903285 +0000,
0.31,0.005,36,36,0,up,5.4151296,None,space,0.2985599000003276,None,,,,,0,36,36,36,,,,,981.3633746999999,,,,,,,,,,,,981.3476316000001,981.3633746999999,981.3633746999999,986.7918005000001,,,,986.7920657999998,986.8077908,986.8077908,986.8077908,987.1073931999999,987.1082630999999,,,,,up,5.4151296,None,space,0.2985599000003276,None,,,,,,,,,,,,P135,001,2024-12-12_13h15.32.470,posner_endo_new1,2024.2.4,60.05461366576052,2024-12-12 13h15.39.903285 +0000,
-0.31,0.005,37,37,0,down,6.549882700000126,None,space,0.3425200000001496,None,,,,,0,37,37,37,,,,,987.1243236,,,,,,,,,,,,987.1084414000002,987.1243236,987.1243236,993.6849299,,,,993.6851947999999,993.7006878000002,993.7006878000002,993.7006878000002,994.0004328999999,994.0510577,,,,,down,6.549882700000126,None,space,0.3425200000001496,None,,,,,,,,,,,,P135,001,2024-12-12_13h15.32.470,posner_endo_new1,2024.2.4,60.05461366576052,2024-12-12 13h15.39.903285 +0000,
0.005,0.31,38,38,0,up,2.727603899999849,None,space,0.3559003999998822,None,,,,,0,38,38,38,,,,,994.067035,,,,,,,,,,,,994.0512417999998,994.067035,994.067035,996.7984462999998,,,,996.7987192,996.8142406000002,996.8142406000002,996.8142406000002,997.1139443000002,997.1813416,,,,,up,2.727603899999849,None,space,0.3559003999998822,None,,,,,,,,,,,,P135,001,2024-12-12_13h15.32.470,posner_endo_new1,2024.2.4,60.05461366576052,2024-12-12 13h15.39.903285 +0000,
0.005,0.31,39,39,0,down,5.036930400000074,None,space,0.3480487000001631,None,,,,,0,39,39,39,,,,,997.1972052000001,,,,,,,,,,,,997.1815264000002,997.1972052000001,997.1972052000001,1002.2429225000001,,,,1002.2432073,1002.2586511,1002.2586511,1002.2586511,1002.5583194000001,1002.6092608999998,,,,,down,5.036930400000074,None,space,0.3480487000001631,None,,,,,,,,,,,,P135,001,2024-12-12_13h15.32.470,posner_endo_new1,2024.2.4,60.05461366576052,2024-12-12 13h15.39.903285 +0000,
-0.31,0.005,40,40,0,up,4.137509000000136,None,space,0.285304399999859,None,,,,,0,40,40,40,,,,,1002.6249515999998,,,,,,,,,,,,1002.6094444,1002.6249515999998,1002.6249515999998,1006.7713291999999,,,,1006.7716025,1006.7874170999999,1006.7874170999999,1006.7874170999999,1007.0870071999998,1007.0878680000001,,,,,up,4.137509000000136,None,space,0.285304399999859,None,,,,,,,,,,,,P135,001,2024-12-12_13h15.32.470,posner_endo_new1,2024.2.4,60.05461366576052,2024-12-12 13h15.39.903285 +0000,
10,0.005,41,41,0,down,5.211042499999621,None,None,,,,,,,0,41,41,41,,,,,1007.1037117000001,,,,,,,,,,,,1007.0880428999999,1007.1037117000001,1007.1037117000001,1012.3160782999998,,,,1012.3163516,1012.3316307,1012.3316307,1012.3316307,1012.631449,1015.3290041,,,,1013.3305627,down,5.211042499999621,None,None,,,,,,,,,,,,,,P135,001,2024-12-12_13h15.32.470,posner_endo_new1,2024.2.4,60.05461366576052,2024-12-12 13h15.39.903285 +0000,
-0.31,0.005,42,42,0,up,3.249008700000104,None,space,0.3807561000003261,None,,,,,0,42,42,42,,,,,1015.3453691999998,,,,,,,,,,,,1015.3291840000002,1015.3453691999998,1015.3453691999998,1018.6095835000001,,,,1018.6098481999998,1018.6252586,1018.6252586,1018.6252586,1018.9250017999998,1019.0089404,,,,,up,3.249008700000104,None,space,0.3807561000003261,None,,,,,,,,,,,,P135,001,2024-12-12_13h15.32.470,posner_endo_new1,2024.2.4,60.05461366576052,2024-12-12 13h15.39.903285 +0000,
-0.31,0.005,43,43,0,down,5.425910400000248,None,space,0.39320580000003247,None,,,,,0,43,43,43,,,,,1019.0248287999998,,,,,,,,,,,,1019.0091256999999,1019.0248287999998,1019.0248287999998,1024.4535468,,,,1024.4538165,1024.4693217999998,1024.4693217999998,1024.4693217999998,1024.7688878999998,1024.8697713000001,,,,,down,5.425910400000248,None,space,0.39320580000003247,None,,,,,,,,,,,,P135,001,2024-12-12_13h15.32.470,posner_endo_new1,2024.2.4,60.05461366576052,2024-12-12 13h15.39.903285 +0000,
0.005,0.31,44,44,0,up,3.1643723999995927,None,space,0.33305669999981546,None,,,,,0,44,44,44,,,,,1024.8854765,,,,,,,,,,,,1024.8699501,1024.8854765,1024.8854765,1028.0665227,,,,1028.0667887,1028.0821476,1028.0821476,1028.0821476,1028.3819789,1028.4162284999998,,,,,up,3.1643723999995927,None,space,0.33305669999981546,None,,,,,,,,,,,,P135,001,2024-12-12_13h15.32.470,posner_endo_new1,2024.2.4,60.05461366576052,2024-12-12 13h15.39.903285 +0000,
10,0.005,45,45,0,down,4.002722200000335,None,None,,,,,,,0,45,45,45,,,,,1028.4319317999998,,,,,,,,,,,,1028.4164084,1028.4319317999998,1028.4319317999998,1032.4453054,,,,1032.445569,1032.4611114999998,1032.4611114999998,1032.4611114999998,1032.7609145000001,1035.4580191999999,,,,1033.4767097,down,4.002722200000335,None,None,,,,,,,,,,,,,,P135,001,2024-12-12_13h15.32.470,posner_endo_new1,2024.2.4,60.05461366576052,2024-12-12 13h15.39.903285 +0000,
0.005,-0.31,46,46,0,up,8.519122000000152,None,space,0.36128780000035476,None,,,,,0,46,46,46,,,,,1035.4748573000002,,,,,,,,,,,,1035.4581936,1035.4748573000002,1035.4748573000002,1044.0002147999999,,,,1044.0004822,1044.0160203,1044.0160203,1044.0160203,1044.3156324000001,1044.3830659999999,,,,,up,8.519122000000152,None,space,0.36128780000035476,None,,,,,,,,,,,,P135,001,2024-12-12_13h15.32.470,posner_endo_new1,2024.2.4,60.05461366576052,2024-12-12 13h15.39.903285 +0000,
-0.31,0.005,47,47,0,down,5.388824499999828,None,space,0.35106279999990875,None,,,,,0,47,47,47,,,,,1044.3988461999998,,,,,,,,,,,,1044.3832459999999,1044.3988461999998,1044.3988461999998,1049.7941704999998,,,,1049.7944329000002,1049.8100413000002,1049.8100413000002,1049.8100413000002,1050.1097266000002,1050.1771645,,,,,down,5.388824499999828,None,space,0.35106279999990875,None,,,,,,,,,,,,P135,001,2024-12-12_13h15.32.470,posner_endo_new1,2024.2.4,60.05461366576052,2024-12-12 13h15.39.903285 +0000,
-0.31,0.005,48,48,0,up,3.9459633000001304,None,space,0.37395340000011856,None,,,,,0,48,48,48,,,,,1050.1930123000002,,,,,,,,,,,,1050.1773497,1050.1930123000002,1050.1930123000002,1054.1397895,,,,1054.1400555,1054.1556354999998,1054.1556354999998,1054.1556354999998,1054.4555538,1054.539355,,,,,up,3.9459633000001304,None,space,0.37395340000011856,None,,,,,,,,,,,,P135,001,2024-12-12_13h15.32.470,posner_endo_new1,2024.2.4,60.05461366576052,2024-12-12 13h15.39.903285 +0000,
-0.31,0.005,49,49,0,down,2.9672969999996894,None,space,0.40288630000031844,None,,,,,0,49,49,49,,,,,1054.5551915,,,,,,,,,,,,1054.5395356,1054.5551915,1054.5551915,1057.5362077,,,,1057.5364697999998,1057.5521481,1057.5521481,1057.5521481,1057.8518853,1057.9691011999998,,,,,down,2.9672969999996894,None,space,0.40288630000031844,None,,,,,,,,,,,,P135,001,2024-12-12_13h15.32.470,posner_endo_new1,2024.2.4,60.05461366576052,2024-12-12 13h15.39.903285 +0000,
0.31,0.005,50,50,0,up,15.897804499999893,None,space,0.35602770000059536,None,,,,,0,50,50,50,,,,,1057.9851436,,,,,,,,,,,,1057.969282,1057.9851436,1057.9851436,1073.8860449,,,,1073.8863098999996,1073.9020538999998,1073.9020538999998,1073.9020538999998,1074.2017531999995,1074.2690936000004,,,,,up,15.897804499999893,None,space,0.35602770000059536,None,,,,,,,,,,,,P135,001,2024-12-12_13h15.32.470,posner_endo_new1,2024.2.4,60.05461366576052,2024-12-12 13h15.39.903285 +0000,
0.31,0.005,51,51,0,down,11.086236199999803,None,space,0.32829099999980826,None,,,,,0,51,51,51,,,,,1074.2851327000003,,,,,,,,,,,,1074.2692757,1074.2851327000003,1074.2851327000003,1085.3744705000004,,,,1085.3747416,1085.3903894,1085.3903894,1085.3903894,1085.6900818,1085.7243169999997,,,,,down,11.086236199999803,None,space,0.32829099999980826,None,,,,,,,,,,,,P135,001,2024-12-12_13h15.32.470,posner_endo_new1,2024.2.4,60.05461366576052,2024-12-12 13h15.39.903285 +0000,
0.31,0.005,52,52,0,up,33.34276940000018,None,space,0.38029139999980544,None,,,,,0,52,52,52,,,,,1085.7399185999998,,,,,,,,,,,,1085.7244967000001,1085.7399185999998,1085.7399185999998,1119.0899780000004,,,,1119.0902423000002,1119.1057925999999,1119.1057925999999,1119.1057925999999,1119.4055032,1119.4897991000003,,,,,up,33.34276940000018,None,space,0.38029139999980544,None,,,,,,,,,,,,P135,001,2024-12-12_13h15.32.470,posner_endo_new1,2024.2.4,60.05461366576052,2024-12-12 13h15.39.903285 +0000,
0.005,0.31,53,53,0,down,6.13721919999989,None,space,0.3771184000006542,None,,,,,0,53,53,53,,,,,1119.5054266000002,,,,,,,,,,,,1119.4899768,1119.5054266000002,1119.5054266000002,1125.6497438000001,,,,1125.6500032,1125.6657312000002,1125.6657312000002,1125.6657312000002,1125.9655434000001,1126.0495256999998,,,,,down,6.13721919999989,None,space,0.3771184000006542,None,,,,,,,,,,,,P135,001,2024-12-12_13h15.32.470,posner_endo_new1,2024.2.4,60.05461366576052,2024-12-12 13h15.39.903285 +0000,
0.31,0.005,54,54,0,up,2.657705100000385,None,space,0.4009146000007604,None,,,,,0,54,54,54,,,,,1126.0653361999998,,,,,,,,,,,,1126.0497044999997,1126.0653361999998,1126.0653361999998,1128.7301270000003,,,,1128.7303890999997,1128.7460635000002,1128.7460635000002,1128.7460635000002,1129.045818,1129.1630929999997,,,,,up,2.657705100000385,None,space,0.4009146000007604,None,,,,,,,,,,,,P135,001,2024-12-12_13h15.32.470,posner_endo_new1,2024.2.4,60.05461366576052,2024-12-12 13h15.39.903285 +0000,
0.005,0.31,55,55,0,down,5.279152899999644,None,space,0.34066140000049927,None,,,,,0,55,55,55,,,,,1129.1790177999997,,,,,,,,,,,,1129.1632748999996,1129.1790177999997,1129.1790177999997,1134.4740299999999,,,,1134.4742958000002,1134.4902571999996,1134.4902571999996,1134.4902571999996,1134.7898170000003,1134.840667,,,,,down,5.279152899999644,None,space,0.34066140000049927,None,,,,,,,,,,,,P135,001,2024-12-12_13h15.32.470,posner_endo_new1,2024.2.4,60.05461366576052,2024-12-12 13h15.39.903285 +0000,
0.005,-0.31,56,56,0,up,3.8420274000000063,None,space,0.28893889999926614,None,,,,,0,56,56,56,,,,,1134.8562533999998,,,,,,,,,,,,1134.8408476,1134.8562533999998,1134.8562533999998,1138.7033268,,,,1138.7035896000002,1138.7191072,1138.7191072,1138.7191072,1139.0188517000001,1139.0197752,,,,,up,3.8420274000000063,None,space,0.28893889999926614,None,,,,,,,,,,,,P135,001,2024-12-12_13h15.32.470,posner_endo_new1,2024.2.4,60.05461366576052,2024-12-12 13h15.39.903285 +0000,
0.005,0.31,57,57,0,down,4.639821500000835,None,space,0.2952662000006967,None,,,,,0,57,57,57,,,,,1139.0353708999996,,,,,,,,,,,,1139.0199509,1139.0353708999996,1139.0353708999996,1143.6814706999999,,,,1143.6817053,1143.6975277999995,1143.6975277999995,1143.6975277999995,1143.9970245,1143.9978554000004,,,,,down,4.639821500000835,None,space,0.2952662000006967,None,,,,,,,,,,,,P135,001,2024-12-12_13h15.32.470,posner_endo_new1,2024.2.4,60.05461366576052,2024-12-12 13h15.39.903285 +0000,
10,0.005,58,58,0,up,6.50845659999959,None,None,,,,,,,0,58,58,58,,,,,1144.0139348999996,,,,,,,,,,,,1143.9980050999998,1144.0139348999996,1144.0139348999996,1150.5246008,,,,1150.5248366,1150.5405093000004,1150.5405093000004,1150.5405093000004,1150.8400193000002,1153.5373618999997,,,,1151.5393539000002,up,6.50845659999959,None,None,,,,,,,,,,,,,,P135,001,2024-12-12_13h15.32.470,posner_endo_new1,2024.2.4,60.05461366576052,2024-12-12 13h15.39.903285 +0000,
10,0.005,59,59,0,down,2.1367584999998144,None,None,,,,,,,0,59,59,59,,,,,1153.5540158999997,,,,,,,,,,,,1153.5375121000002,1153.5540158999997,1153.5540158999997,1155.7024641000003,,,,1155.7026984999998,1155.7183813999995,1155.7183813999995,1155.7183813999995,1156.0181853999998,1158.7154567000002,,,,1156.7173773,down,2.1367584999998144,None,None,,,,,,,,,,,,,,P135,001,2024-12-12_13h15.32.470,posner_endo_new1,2024.2.4,60.05461366576052,2024-12-12 13h15.39.903285 +0000,
-0.31,0.005,60,60,0,up,1.7664364000002024,None,space,0.400430900000174,None,,,,,0,60,60,60,,,,,1158.7321186000004,,,,,,,,,,,,1158.7156091000002,1158.7321186000004,1158.7321186000004,1160.5144265000004,,,,1160.5146628999996,1160.5301172000004,1160.5301172000004,1160.5301172000004,1160.8297980000002,1160.9471689999996,,,,,up,1.7664364000002024,None,space,0.400430900000174,None,,,,,,,,,,,,P135,001,2024-12-12_13h15.32.470,posner_endo_new1,2024.2.4,60.05461366576052,2024-12-12 13h15.39.903285 +0000,
,,,,,,,,,,,,,,,,,,,,,,,,,,,,,,,,,,,,,,,,,,,,,,,,,,,,,,,,,,1160.9472744,1160.9630278,1160.9630278,1220.9356862999998,None,,,,,,,P135,001,2024-12-12_13h15.32.470,posner_endo_new1,2024.2.4,60.05461366576052,2024-12-12 13h15.39.903285 +0000,
,,,,,,,,,,,,,,,,,,,,,,,,,,,,,,,,1220.9357369000004,1220.9516214999999,1223.9488871999997,,,,,,,,,,,,,,,,,,,,,,,,,,,,,,,,,,,P135,001,2024-12-12_13h15.32.470,posner_endo_new1,2024.2.4,60.05461366576052,2024-12-12 13h15.39.903285 +0000,
0.005,-0.31,0,0,0,up,17.32367340000019,None,space,0.3279609999999593,None,,,,,,,,,0,0,0,0,1223.9677714000004,,,,,,,,,,,,1223.9572426,1223.9677714000004,1223.9677714000004,1241.2987153,,,,1241.2991048999997,1241.3141941,1241.3141941,1241.3141941,1241.6139545,1241.6484550999999,,,,,,,,,,,,,,,,up,17.32367340000019,None,space,0.3279609999999593,None,P135,001,2024-12-12_13h15.32.470,posner_endo_new1,2024.2.4,60.05461366576052,2024-12-12 13h15.39.903285 +0000,
0.31,0.005,1,1,0,down,6.139059000000088,None,space,0.41744329999983165,None,,,,,,,,,0,1,1,1,1241.6639554999997,,,,,,,,,,,,1241.6487199999997,1241.6639554999997,1241.6639554999997,1247.8087403000004,,,,1247.8091020999996,1247.8243521999998,1247.8243521999998,1247.8243521999998,1248.1239351,1248.2582944,,,,,,,,,,,,,,,,down,6.139059000000088,None,space,0.41744329999983165,None,P135,001,2024-12-12_13h15.32.470,posner_endo_new1,2024.2.4,60.05461366576052,2024-12-12 13h15.39.903285 +0000,
10,0.005,2,2,0,up,3.041121000000203,None,None,,,,,,,,,,,0,2,2,2,1248.2738229000001,,,,,,,,,,,,1248.2585486000003,1248.2738229000001,1248.2738229000001,1251.3217077000004,,,,1251.3220694999995,1251.3373515999997,1251.3373515999997,1251.3373515999997,1251.6369614999999,1254.3343080999998,,,,1252.3529634000001,,,,,,,,,,,,up,3.041121000000203,None,None,,,P135,001,2024-12-12_13h15.32.470,posner_endo_new1,2024.2.4,60.05461366576052,2024-12-12 13h15.39.903285 +0000,
0.005,-0.31,3,3,0,down,2.1330747000001793,None,space,0.36039979999986826,None,,,,,,,,,0,3,3,3,1254.3508247000004,,,,,,,,,,,,1254.3345477999997,1254.3508247000004,1254.3508247000004,1256.4999137,,,,1256.5002772000003,1256.5153941000003,1256.5153941000003,1256.5153941000003,1256.8151369000002,1256.8828403000002,,,,,,,,,,,,,,,,down,2.1330747000001793,None,space,0.36039979999986826,None,P135,001,2024-12-12_13h15.32.470,posner_endo_new1,2024.2.4,60.05461366576052,2024-12-12 13h15.39.903285 +0000,
0.005,-0.31,4,4,0,up,4.447699400000602,None,space,0.3346654999995735,None,,,,,,,,,0,4,4,4,1256.8983937999997,,,,,,,,,,,,1256.8830996000002,1256.8983937999997,1256.8983937999997,1261.3613997999996,,,,1261.3617613000001,1261.3770465000002,1261.3770465000002,1261.3770465000002,1261.6767758,1261.7279125999999,,,,,,,,,,,,,,,,up,4.447699400000602,None,space,0.3346654999995735,None,P135,001,2024-12-12_13h15.32.470,posner_endo_new1,2024.2.4,60.05461366576052,2024-12-12 13h15.39.903285 +0000,
10,0.005,5,5,0,down,3.7147440999997343,None,None,,,,,,,,,,,0,5,5,5,1261.7434162000004,,,,,,,,,,,,1261.7281669999998,1261.7434162000004,1261.7434162000004,1265.4740085999997,,,,1265.4743812000002,1265.4895303999997,1265.4895303999997,1265.4895303999997,1265.7892957999998,1268.4866656999998,,,,1266.5052621999998,,,,,,,,,,,,down,3.7147440999997343,None,None,,,P135,001,2024-12-12_13h15.32.470,posner_endo_new1,2024.2.4,60.05461366576052,2024-12-12 13h15.39.903285 +0000,
0.005,0.31,6,6,0,up,3.1157534999993004,None,space,0.4388061000008747,None,,,,,,,,,0,6,6,6,1268.5030958000002,,,,,,,,,,,,1268.4869170999996,1268.5030958000002,1268.5030958000002,1271.6344015999998,,,,1271.6347713999999,1271.6498206,1271.6498206,1271.6498206,1271.9496403999997,1272.1006327999999,,,,,,,,,,,,,,,,up,3.1157534999993004,None,space,0.4388061000008747,None,P135,001,2024-12-12_13h15.32.470,posner_endo_new1,2024.2.4,60.05461366576052,2024-12-12 13h15.39.903285 +0000,
0.005,0.31,7,7,0,down,4.173980600000505,None,space,0.42793729999993957,None,,,,,,,,,0,7,7,7,1272.1160593999998,,,,,,,,,,,,1272.1008902999997,1272.1160593999998,1272.1160593999998,1276.2964091999997,,,,1276.2967771999997,1276.3117768999996,1276.3117768999996,1276.3117768999996,1276.6115547000004,1276.7458404000004,,,,,,,,,,,,,,,,down,4.173980600000505,None,space,0.42793729999993957,None,P135,001,2024-12-12_13h15.32.470,posner_endo_new1,2024.2.4,60.05461366576052,2024-12-12 13h15.39.903285 +0000,
0.31,0.005,8,8,0,up,6.257557400000223,None,space,0.33445209999990766,None,,,,,,,,,0,8,8,8,1276.7613746000002,,,,,,,,,,,,1276.7460981999998,1276.7613746000002,1276.7613746000002,1283.0225911000002,,,,1283.0229537,1283.0383416,1283.0383416,1283.0383416,1283.3378656,1283.3889461000003,,,,,,,,,,,,,,,,up,6.257557400000223,None,space,0.33445209999990766,None,P135,001,2024-12-12_13h15.32.470,posner_endo_new1,2024.2.4,60.05461366576052,2024-12-12 13h15.39.903285 +0000,
0.31,0.005,9,9,0,down,9.550583500000357,None,space,0.3619115999999849,None,,,,,,,,,0,9,9,9,1283.4045099,,,,,,,,,,,,1283.3892136999998,1283.4045099,1283.4045099,1292.9626400000002,,,,1292.9629981000003,1292.9780644999996,1292.9780644999996,1292.9780644999996,1293.2777794999997,1293.3457575999996,,,,,,,,,,,,,,,,down,9.550583500000357,None,space,0.3619115999999849,None,P135,001,2024-12-12_13h15.32.470,posner_endo_new1,2024.2.4,60.05461366576052,2024-12-12 13h15.39.903285 +0000,
10,0.005,10,10,0,up,6.281600699999217,None,None,,,,,,,,,,,0,10,10,10,1293.3609874999997,,,,,,,,,,,,1293.3460148999998,1293.3609874999997,1293.3609874999997,1299.6557497999997,,,,1299.6561054,1299.6712522000003,1299.6712522000003,1299.6712522000003,1299.9709320999996,1302.6683949000003,,,,1300.6702073000001,,,,,,,,,,,,up,6.281600699999217,None,None,,,P135,001,2024-12-12_13h15.32.470,posner_endo_new1,2024.2.4,60.05461366576052,2024-12-12 13h15.39.903285 +0000,
0.005,0.31,11,11,0,down,1.7336950999997498,None,space,0.3805602000002182,None,,,,,,,,,0,11,11,11,1302.6848654,,,,,,,,,,,,1302.6686339000003,1302.6848654,1302.6848654,1304.4342401999997,,,,1304.4346088999996,1304.4498012,1304.4498012,1304.4498012,1304.7493608,1304.8338338999997,,,,,,,,,,,,,,,,down,1.7336950999997498,None,space,0.3805602000002182,None,P135,001,2024-12-12_13h15.32.470,posner_endo_new1,2024.2.4,60.05461366576052,2024-12-12 13h15.39.903285 +0000,
0.005,-0.31,12,12,0,up,11.496910600000774,None,space,0.3711760999995022,None,,,,,,,,,0,12,12,12,1304.8493716999997,,,,,,,,,,,,1304.8340903000003,1304.8493716999997,1304.8493716999997,1316.3552690000001,,,,1316.3556245000004,1316.3708705000004,1316.3708705000004,1316.3708705000004,1316.6705594999999,1316.7549598,,,,,,,,,,,,,,,,up,11.496910600000774,None,space,0.3711760999995022,None,P135,001,2024-12-12_13h15.32.470,posner_endo_new1,2024.2.4,60.05461366576052,2024-12-12 13h15.39.903285 +0000,
0.005,0.31,13,13,0,down,3.896833499999957,None,space,0.31642230000034033,None,,,,,,,,,0,13,13,13,1316.7705109000003,,,,,,,,,,,,1316.7552185999998,1316.7705109000003,1316.7705109000003,1320.6842503000003,,,,1320.6846087,1320.6998350999997,1320.6998350999997,1320.6998350999997,1320.9994665999998,1321.0174475999997,,,,,,,,,,,,,,,,down,3.896833499999957,None,space,0.31642230000034033,None,P135,001,2024-12-12_13h15.32.470,posner_endo_new1,2024.2.4,60.05461366576052,2024-12-12 13h15.39.903285 +0000,
-0.31,0.005,14,14,0,up,4.641551800000343,None,space,0.3284457999998267,None,,,,,,,,,0,14,14,14,1321.0327015999997,,,,,,,,,,,,1321.0177062999996,1321.0327015999997,1321.0327015999997,1325.6791158,,,,1325.6794758,1325.6946563999995,1325.6946563999995,1325.6946563999995,1325.9943472,1326.0290167999997,,,,,,,,,,,,,,,,up,4.641551800000343,None,space,0.3284457999998267,None,P135,001,2024-12-12_13h15.32.470,posner_endo_new1,2024.2.4,60.05461366576052,2024-12-12 13h15.39.903285 +0000,
10,0.005,15,15,0,down,2.8301384999995207,None,None,,,,,,,,,,,0,15,15,15,1326.0442807000004,,,,,,,,,,,,1326.0292723999996,1326.0442807000004,1326.0442807000004,1328.8759613999996,,,,1328.8763169,1328.8912976999995,1328.8912976999995,1328.8912976999995,1329.1910303,1331.8885140999996,,,,1329.8903145999998,,,,,,,,,,,,down,2.8301384999995207,None,None,,,P135,001,2024-12-12_13h15.32.470,posner_endo_new1,2024.2.4,60.05461366576052,2024-12-12 13h15.39.903285 +0000,
0.005,-0.31,16,16,0,up,2.7134193000001687,None,space,0.2885342999998102,None,,,,,,,,,0,16,16,16,1331.9049784000003,,,,,,,,,,,,1331.8887532000003,1331.9049784000003,1331.9049784000003,1334.6201733000003,,,,1334.6205476,1334.6356078000003,1334.6356078000003,1334.6356078000003,1334.9352309,1334.9364469999996,,,,,,,,,,,,,,,,up,2.7134193000001687,None,space,0.2885342999998102,None,P135,001,2024-12-12_13h15.32.470,posner_endo_new1,2024.2.4,60.05461366576052,2024-12-12 13h15.39.903285 +0000,
0.31,0.005,17,17,0,down,4.035032499999943,None,space,0.44130889999996725,None,,,,,,,,,0,17,17,17,1334.9518480000002,,,,,,,,,,,,1334.9367008000004,1334.9518480000002,1334.9518480000002,1338.9989583000001,,,,1338.9993219000003,1339.0144148000004,1339.0144148000004,1339.0144148000004,1339.3140949000003,1339.4650868000003,,,,,,,,,,,,,,,,down,4.035032499999943,None,space,0.44130889999996725,None,P135,001,2024-12-12_13h15.32.470,posner_endo_new1,2024.2.4,60.05461366576052,2024-12-12 13h15.39.903285 +0000,
-0.31,0.005,18,18,0,up,3.3305209000000104,None,space,0.35114679999969667,None,,,,,,,,,0,18,18,18,1339.4806030000004,,,,,,,,,,,,1339.4653520999996,1339.4806030000004,1339.4806030000004,1342.8284326999997,,,,1342.8287924,1342.8437941999996,1342.8437941999996,1342.8437941999996,1343.1434573000001,1343.2111866999999,,,,,,,,,,,,,,,,up,3.3305209000000104,None,space,0.35114679999969667,None,P135,001,2024-12-12_13h15.32.470,posner_endo_new1,2024.2.4,60.05461366576052,2024-12-12 13h15.39.903285 +0000,
0.31,0.005,19,19,0,down,5.104138000000603,None,space,0.3128572000005079,None,,,,,,,,,0,19,19,19,1343.2266974,,,,,,,,,,,,1343.2114487000003,1343.2266974,1343.2266974,1348.3393633,,,,1348.3397364999996,1348.3548458,1348.3548458,1348.3548458,1348.6544208,1348.6724411999999,,,,,,,,,,,,,,,,down,5.104138000000603,None,space,0.3128572000005079,None,P135,001,2024-12-12_13h15.32.470,posner_endo_new1,2024.2.4,60.05461366576052,2024-12-12 13h15.39.903285 +0000,
0.31,0.005,20,20,0,up,2.291807300000073,None,space,0.37722870000015973,None,,,,,,,,,0,20,20,20,1348.6878291999997,,,,,,,,,,,,1348.6727014000003,1348.6878291999997,1348.6878291999997,1350.9866231,,,,1350.9869801999998,1351.0021610999997,1351.0021610999997,1351.0021610999997,1351.3017719000004,1351.3861806,,,,,,,,,,,,,,,,up,2.291807300000073,None,space,0.37722870000015973,None,P135,001,2024-12-12_13h15.32.470,posner_endo_new1,2024.2.4,60.05461366576052,2024-12-12 13h15.39.903285 +0000,
0.005,-0.31,21,21,0,down,3.457650000000285,None,space,0.3106046000002607,None,,,,,,,,,0,21,21,21,1351.4016819000003,,,,,,,,,,,,1351.3864421000003,1351.4016819000003,1351.4016819000003,1354.8660088000001,,,,1354.8663730000003,1354.8815993000003,1354.8815993000003,1354.8815993000003,1355.1812001000003,1355.1990399000001,,,,,,,,,,,,,,,,down,3.457650000000285,None,space,0.3106046000002607,None,P135,001,2024-12-12_13h15.32.470,posner_endo_new1,2024.2.4,60.05461366576052,2024-12-12 13h15.39.903285 +0000,
-0.31,0.005,22,22,0,up,6.71629269999994,None,space,0.32113640000079613,None,,,,,,,,,0,22,22,22,1355.2144899999998,,,,,,,,,,,,1355.1992996000004,1355.2144899999998,1355.2144899999998,1361.9421212000002,,,,1361.9424799000003,1361.9574847,1361.9574847,1361.9574847,1362.2572836000004,1362.2915875000003,,,,,,,,,,,,,,,,up,6.71629269999994,None,space,0.32113640000079613,None,P135,001,2024-12-12_13h15.32.470,posner_endo_new1,2024.2.4,60.05461366576052,2024-12-12 13h15.39.903285 +0000,
0.005,-0.31,23,23,0,down,3.7356270000000222,None,space,0.36872029999994993,None,,,,,,,,,0,23,23,23,1362.3072391,,,,,,,,,,,,1362.2918425000003,1362.3072391,1362.3072391,1366.0544992,,,,1366.0548641999999,1366.0701436000004,1366.0701436000004,1366.0701436000004,1366.3697397,1366.4541874000001,,,,,,,,,,,,,,,,down,3.7356270000000222,None,space,0.36872029999994993,None,P135,001,2024-12-12_13h15.32.470,posner_endo_new1,2024.2.4,60.05461366576052,2024-12-12 13h15.39.903285 +0000,
10,0.005,24,24,0,up,8.076798499999313,None,None,,,,,,,,,,,0,24,24,24,1366.4695686,,,,,,,,,,,,1366.4544429000002,1366.4695686,1366.4695686,1374.5623504999999,,,,1374.5627094999995,1374.5780399,1374.5780399,1374.5780399,1374.8777015,1377.5751126,,,,1375.5936485999996,,,,,,,,,,,,up,8.076798499999313,None,None,,,P135,001,2024-12-12_13h15.32.470,posner_endo_new1,2024.2.4,60.05461366576052,2024-12-12 13h15.39.903285 +0000,
0.31,0.005,25,25,0,down,9.484209299999748,None,space,0.4033951999999772,None,,,,,,,,,0,25,25,25,1377.5916329999995,,,,,,,,,,,,1377.5753616999996,1377.5916329999995,1377.5916329999995,1387.0829332999997,,,,1387.0832902999996,1387.0985288999996,1387.0985288999996,1387.0985288999996,1387.3980543000002,1387.5158270999996,,,,,,,,,,,,,,,,down,9.484209299999748,None,space,0.4033951999999772,None,P135,001,2024-12-12_13h15.32.470,posner_endo_new1,2024.2.4,60.05461366576052,2024-12-12 13h15.39.903285 +0000,
0.31,0.005,26,26,0,up,8.278794100000596,None,space,0.3344595999997182,None,,,,,,,,,0,26,26,26,1387.5314137999999,,,,,,,,,,,,1387.5160831999997,1387.5314137999999,1387.5314137999999,1395.8240332999999,,,,1395.8243912000003,1395.8396108000002,1395.8396108000002,1395.8396108000002,1396.1390978000004,1396.1904385000003,,,,,,,,,,,,,,,,up,8.278794100000596,None,space,0.3344595999997182,None,P135,001,2024-12-12_13h15.32.470,posner_endo_new1,2024.2.4,60.05461366576052,2024-12-12 13h15.39.903285 +0000,
10,0.005,27,27,0,down,6.678004999999757,None,None,,,,,,,,,,,0,27,27,27,1396.2059925999997,,,,,,,,,,,,1396.1907008000003,1396.2059925999997,1396.2059925999997,1402.9002914999996,,,,1402.9006450000002,1402.9156754,1402.9156754,1402.9156754,1403.2153561,1405.9127617999998,,,,1403.9146188999998,,,,,,,,,,,,down,6.678004999999757,None,None,,,P135,001,2024-12-12_13h15.32.470,posner_endo_new1,2024.2.4,60.05461366576052,2024-12-12 13h15.39.903285 +0000,
0.005,-0.31,28,28,0,up,0.9532404000001407,None,space,0.3787871999993513,None,,,,,,,,,0,28,28,28,1405.9292449,,,,,,,,,,,,1405.9130056,1405.9292449,1405.9292449,1406.896075,,,,1406.8964357999998,1406.9115639999995,1406.9115639999995,1406.9115639999995,1407.2113035999996,1407.295861,,,,,,,,,,,,,,,,up,0.9532404000001407,None,space,0.3787871999993513,None,P135,001,2024-12-12_13h15.32.470,posner_endo_new1,2024.2.4,60.05461366576052,2024-12-12 13h15.39.903285 +0000,
0.005,0.31,29,29,0,down,3.8120935000006284,None,space,0.34138139999959094,None,,,,,,,,,0,29,29,29,1407.3110978,,,,,,,,,,,,1407.2961161999997,1407.3110978,1407.3110978,1411.1250539999996,,,,1411.1254113,1411.1406842000001,1411.1406842000001,1411.1406842000001,1411.4403573000004,1411.4914333000002,,,,,,,,,,,,,,,,down,3.8120935000006284,None,space,0.34138139999959094,None,P135,001,2024-12-12_13h15.32.470,posner_endo_new1,2024.2.4,60.05461366576052,2024-12-12 13h15.39.903285 +0000,
10,0.005,30,30,0,up,3.719628100000591,None,None,,,,,,,,,,,0,30,30,30,1411.5069239999998,,,,,,,,,,,,1411.4916851000003,1411.5069239999998,1411.5069239999998,1415.2375618,,,,1415.2379282999996,1415.2530794999998,1415.2530794999998,1415.2530794999998,1415.5528550000004,1418.2501852999999,,,,1416.25207,,,,,,,,,,,,up,3.719628100000591,None,None,,,P135,001,2024-12-12_13h15.32.470,posner_endo_new1,2024.2.4,60.05461366576052,2024-12-12 13h15.39.903285 +0000,
0.31,0.005,31,31,0,down,1.4400423000006413,None,space,0.30659689999993134,None,,,,,,,,,0,31,31,31,1418.2666378999998,,,,,,,,,,,,1418.2504280999997,1418.2666378999998,1418.2666378999998,1419.7163372,,,,1419.7166997,1419.7318848,1419.7318848,1419.7318848,1420.0315128999996,1420.049329,,,,,,,,,,,,,,,,down,1.4400423000006413,None,space,0.30659689999993134,None,P135,001,2024-12-12_13h15.32.470,posner_endo_new1,2024.2.4,60.05461366576052,2024-12-12 13h15.39.903285 +0000,
0.31,0.005,32,32,0,up,7.209869799999979,None,space,0.3560399000007237,None,,,,,,,,,0,32,32,32,1420.0649028000003,,,,,,,,,,,,1420.04959,1420.0649028000003,1420.0649028000003,1427.2917672999997,,,,1427.2921256000004,1427.3075104000004,1427.3075104000004,1427.3075104000004,1427.6071536000004,1427.6748012000003,,,,,,,,,,,,,,,,up,7.209869799999979,None,space,0.3560399000007237,None,P135,001,2024-12-12_13h15.32.470,posner_endo_new1,2024.2.4,60.05461366576052,2024-12-12 13h15.39.903285 +0000,
10,0.005,33,33,0,down,2.9130458999998154,None,None,,,,,,,,,,,0,33,33,33,1427.6902788000002,,,,,,,,,,,,1427.6750607999998,1427.6902788000002,1427.6902788000002,1430.6051862999998,,,,1430.605548,1430.6208051999997,1430.6208051999997,1430.6208051999997,1430.9205435,1433.6177887999997,,,,1431.6363371000002,,,,,,,,,,,,down,2.9130458999998154,None,None,,,P135,001,2024-12-12_13h15.32.470,posner_endo_new1,2024.2.4,60.05461366576052,2024-12-12 13h15.39.903285 +0000,
10,0.005,34,34,0,up,8.896434899999804,None,None,,,,,,,,,,,0,34,34,34,1433.6343287000004,,,,,,,,,,,,1433.6180326999997,1433.6343287000004,1433.6343287000004,1442.5429231000003,,,,1442.5432806000003,1442.5585058000001,1442.5585058000001,1442.5585058000001,1442.8582235,1445.5555848,,,,1443.5574511999998,,,,,,,,,,,,up,8.896434899999804,None,None,,,P135,001,2024-12-12_13h15.32.470,posner_endo_new1,2024.2.4,60.05461366576052,2024-12-12 13h15.39.903285 +0000,
-0.31,0.005,35,35,0,down,1.3909165999994002,None,space,0.3405227000002924,None,,,,,,,,,0,35,35,35,1445.5720622000003,,,,,,,,,,,,1445.5558237,1445.5720622000003,1445.5720622000003,1446.9717524000002,,,,1446.9721114999998,1446.9873057,1446.9873057,1446.9873057,1447.2869330999997,1447.3379307999999,,,,,,,,,,,,,,,,down,1.3909165999994002,None,space,0.3405227000002924,None,P135,001,2024-12-12_13h15.32.470,posner_endo_new1,2024.2.4,60.05461366576052,2024-12-12 13h15.39.903285 +0000,
0.005,0.31,36,36,0,up,3.1848791000002166,None,space,0.35524830000031216,None,,,,,,,,,0,36,36,36,1447.3535889,,,,,,,,,,,,1447.3381856,1447.3535889,1447.3535889,1450.5514041000001,,,,1450.5517685999998,1450.5669892,1450.5669892,1450.5669892,1450.8666484999999,1450.9344048999997,,,,,,,,,,,,,,,,up,3.1848791000002166,None,space,0.35524830000031216,None,P135,001,2024-12-12_13h15.32.470,posner_endo_new1,2024.2.4,60.05461366576052,2024-12-12 13h15.39.903285 +0000,
0.31,0.005,37,37,0,down,4.933396200000061,None,space,0.42641570000068896,None,,,,,,,,,0,37,37,37,1450.9498001999996,,,,,,,,,,,,1450.9346609999998,1450.9498001999996,1450.9498001999996,1455.8959836,,,,1455.8963437999996,1455.9116302999996,1455.9116302999996,1455.9116302999996,1456.2111628999996,1456.3456056,,,,,,,,,,,,,,,,down,4.933396200000061,None,space,0.42641570000068896,None,P135,001,2024-12-12_13h15.32.470,posner_endo_new1,2024.2.4,60.05461366576052,2024-12-12 13h15.39.903285 +0000,
0.005,0.31,38,38,0,up,3.2413984999993772,None,space,0.350797799999782,None,,,,,,,,,0,38,38,38,1456.3610356000004,,,,,,,,,,,,1456.3458593,1456.3610356000004,1456.3610356000004,1459.6089346000003,,,,1459.6092906999997,1459.6244241999998,1459.6244241999998,1459.6244241999998,1459.9241725999996,1459.9919876,,,,,,,,,,,,,,,,up,3.2413984999993772,None,space,0.350797799999782,None,P135,001,2024-12-12_13h15.32.470,posner_endo_new1,2024.2.4,60.05461366576052,2024-12-12 13h15.39.903285 +0000,
-0.31,0.005,39,39,0,down,4.491058000000521,None,space,0.4156981000005544,None,,,,,,,,,0,39,39,39,1460.0072701000004,,,,,,,,,,,,1459.9922467000001,1460.0072701000004,1460.0072701000004,1464.5039806999998,,,,1464.5043424,1464.5193271000003,1464.5193271000003,1464.5193271000003,1464.8190558000001,1464.9368804,,,,,,,,,,,,,,,,down,4.491058000000521,None,space,0.4156981000005544,None,P135,001,2024-12-12_13h15.32.470,posner_endo_new1,2024.2.4,60.05461366576052,2024-12-12 13h15.39.903285 +0000,
-0.31,0.005,40,40,0,up,15.322698400000263,None,space,0.3913623999997071,None,,,,,,,,,0,40,40,40,1464.9523324999996,,,,,,,,,,,,1464.9371429999997,1464.9523324999996,1464.9523324999996,1480.2870042,,,,1480.2872436000002,1480.3033011000002,1480.3033011000002,1480.3033011000002,1480.6029646000002,1480.7036128000004,,,,,,,,,,,,,,,,up,15.322698400000263,None,space,0.3913623999997071,None,P135,001,2024-12-12_13h15.32.470,posner_endo_new1,2024.2.4,60.05461366576052,2024-12-12 13h15.39.903285 +0000,
0.005,0.31,41,41,0,down,3.71496819999993,None,space,0.5375497999993968,None,,,,,,,,,0,41,41,41,1480.7193949999996,,,,,,,,,,,,1480.703782,1480.7193949999996,1480.7193949999996,1484.4495984,,,,1484.4498332999997,1484.4657112999998,1484.4657112999998,1484.4657112999998,1484.7654816999998,1485.0174949999996,,,,,,,,,,,,,,,,down,3.71496819999993,None,space,0.5375497999993968,None,P135,001,2024-12-12_13h15.32.470,posner_endo_new1,2024.2.4,60.05461366576052,2024-12-12 13h15.39.903285 +0000,
-0.31,0.005,42,42,0,up,3.9073496000000887,None,space,0.3407521999997698,None,,,,,,,,,0,42,42,42,1485.0318486,,,,,,,,,,,,1485.0180458,1485.0318486,1485.0318486,1488.9471055,,,,1488.9478437000002,1488.9613828999995,1488.9613828999995,1488.9613828999995,1489.2608470999999,1489.3133382,,,,,,,,,,,,,,,,up,3.9073496000000887,None,space,0.3407521999997698,None,P135,001,2024-12-12_13h15.32.470,posner_endo_new1,2024.2.4,60.05461366576052,2024-12-12 13h15.39.903285 +0000,
0.005,0.31,43,43,0,down,3.099327699999776,None,space,0.35789089999980206,None,,,,,,,,,0,43,43,43,1489.3274114,,,,,,,,,,,,1489.3139018999996,1489.3274114,1489.3274114,1492.4431748000002,,,,1492.443949,1492.4576048000004,1492.4576048000004,1492.4576048000004,1492.7572756000004,1492.8264538999997,,,,,,,,,,,,,,,,down,3.099327699999776,None,space,0.35789089999980206,None,P135,001,2024-12-12_13h15.32.470,posner_endo_new1,2024.2.4,60.05461366576052,2024-12-12 13h15.39.903285 +0000,
0.005,0.31,44,44,0,up,3.090392299999621,None,space,0.348646500000541,None,,,,,,,,,0,44,44,44,1492.8405752000003,,,,,,,,,,,,1492.8269933999995,1492.8405752000003,1492.8405752000003,1495.9398239999996,,,,1495.9405647999997,1495.9541697,1495.9541697,1495.9541697,1496.2537436999996,1496.3062121999997,,,,,,,,,,,,,,,,up,3.090392299999621,None,space,0.348646500000541,None,P135,001,2024-12-12_13h15.32.470,posner_endo_new1,2024.2.4,60.05461366576052,2024-12-12 13h15.39.903285 +0000,
-0.31,0.005,45,45,0,down,3.85860860000048,None,space,0.3405666000007841,None,,,,,,,,,0,45,45,45,1496.3203185999996,,,,,,,,,,,,1496.3067655,1496.3203185999996,1496.3203185999996,1500.1855478000002,,,,1500.1862643999998,1500.1998511999996,1500.1998511999996,1500.1998511999996,1500.4993830999997,1500.5516872000003,,,,,,,,,,,,,,,,down,3.85860860000048,None,space,0.3405666000007841,None,P135,001,2024-12-12_13h15.32.470,posner_endo_new1,2024.2.4,60.05461366576052,2024-12-12 13h15.39.903285 +0000,
0.005,0.31,46,46,0,up,10.285249900000053,None,space,0.3174956000002567,None,,,,,,,,,0,46,46,46,1500.5659413999997,,,,,,,,,,,,1500.5522296000004,1500.5659413999997,1500.5659413999997,1510.8578383999998,,,,1510.8585900000003,1510.872272,1510.872272,1510.872272,1511.1717629999998,1511.2076908000004,,,,,,,,,,,,,,,,up,10.285249900000053,None,space,0.3174956000002567,None,P135,001,2024-12-12_13h15.32.470,posner_endo_new1,2024.2.4,60.05461366576052,2024-12-12 13h15.39.903285 +0000,
0.31,0.005,47,47,0,down,13.517521299999316,None,space,0.397416499999963,None,,,,,,,,,0,47,47,47,1511.2217864999998,,,,,,,,,,,,1511.2082525,1511.2217864999998,1511.2217864999998,1524.7421622999996,,,,1524.7425392999999,1524.7577162000002,1524.7577162000002,1524.7577162000002,1525.0574180999997,1525.1586055000002,,,,,,,,,,,,,,,,down,13.517521299999316,None,space,0.397416499999963,None,P135,001,2024-12-12_13h15.32.470,posner_endo_new1,2024.2.4,60.05461366576052,2024-12-12 13h15.39.903285 +0000,
0.31,0.005,48,48,0,up,7.220204199999898,None,space,0.3722483999999895,None,,,,,,,,,0,48,48,48,1525.174063,,,,,,,,,,,,1525.1588761999997,1525.174063,1525.174063,1532.4010704999996,,,,1532.4014444,1532.4166438999996,1532.4166438999996,1532.4166438999996,1532.7163176999998,1532.8008643999997,,,,,,,,,,,,,,,,up,7.220204199999898,None,space,0.3722483999999895,None,P135,001,2024-12-12_13h15.32.470,posner_endo_new1,2024.2.4,60.05461366576052,2024-12-12 13h15.39.903285 +0000,
0.31,0.005,49,49,0,down,3.1222533000000112,None,space,0.367253499999606,None,,,,,,,,,0,49,49,49,1532.8161809999997,,,,,,,,,,,,1532.8011327,1532.8161809999997,1532.8161809999997,1535.9473776999998,,,,1535.9477473000002,1535.9629346999996,1535.9629346999996,1535.9629346999996,1536.2626406000004,1536.3470131,,,,,,,,,,,,,,,,down,3.1222533000000112,None,space,0.367253499999606,None,P135,001,2024-12-12_13h15.32.470,posner_endo_new1,2024.2.4,60.05461366576052,2024-12-12 13h15.39.903285 +0000,
0.005,-0.31,50,50,0,up,6.384023999999954,None,space,0.38180259999990085,None,,,,,,,,,0,50,50,50,1536.3625987,,,,,,,,,,,,1536.3472857000002,1536.3625987,1536.3625987,1542.7572054999996,,,,1542.7575804000003,1542.7726955000003,1542.7726955000003,1542.7726955000003,1543.0723738000002,1543.1568377999997,,,,,,,,,,,,,,,,up,6.384023999999954,None,space,0.38180259999990085,None,P135,001,2024-12-12_13h15.32.470,posner_endo_new1,2024.2.4,60.05461366576052,2024-12-12 13h15.39.903285 +0000,
10,0.005,51,51,0,down,3.0229491000000053,None,None,,,,,,,,,,,0,51,51,51,1543.1721841000003,,,,,,,,,,,,1543.1571054,1543.1721841000003,1543.1721841000003,1546.2036985,,,,1546.2040771999996,1546.2190857,1546.2190857,1546.2190857,1546.5189016999998,1549.2162285,,,,1547.2181140999996,,,,,,,,,,,,down,3.0229491000000053,None,None,,,P135,001,2024-12-12_13h15.32.470,posner_endo_new1,2024.2.4,60.05461366576052,2024-12-12 13h15.39.903285 +0000,
0.31,0.005,52,52,0,up,1.059245500000543,None,space,0.4618438999996215,None,,,,,,,,,0,52,52,52,1549.2327853000002,,,,,,,,,,,,1549.2164921999997,1549.2327853000002,1549.2327853000002,1550.2994409999997,,,,1550.2998108999996,1550.3150259,1550.3150259,1550.3150259,1550.6146041999996,1550.7823417000004,,,,,,,,,,,,,,,,up,1.059245500000543,None,space,0.4618438999996215,None,P135,001,2024-12-12_13h15.32.470,posner_endo_new1,2024.2.4,60.05461366576052,2024-12-12 13h15.39.903285 +0000,
-0.31,0.005,53,53,0,down,11.765260600000147,None,space,0.37767209999947227,None,,,,,,,,,0,53,53,53,1550.7977625999997,,,,,,,,,,,,1550.7826145000004,1550.7977625999997,1550.7977625999997,1562.5698438000004,,,,1562.5701267,1562.5856866999998,1562.5856866999998,1562.5856866999998,1562.8854397,1562.9695675999997,,,,,,,,,,,,,,,,down,11.765260600000147,None,space,0.37767209999947227,None,P135,001,2024-12-12_13h15.32.470,posner_endo_new1,2024.2.4,60.05461366576052,2024-12-12 13h15.39.903285 +0000,
0.005,0.31,54,54,0,up,14.00178330000017,None,space,0.3463705999993181,None,,,,,,,,,0,54,54,54,1562.9853470000003,,,,,,,,,,,,1562.9697530999997,1562.9853470000003,1562.9853470000003,1576.9887863,,,,1576.9890530999996,1577.0041156000002,1577.0041156000002,1577.0041156000002,1577.3039454000004,1577.355008,,,,,,,,,,,,,,,,up,14.00178330000017,None,space,0.3463705999993181,None,P135,001,2024-12-12_13h15.32.470,posner_endo_new1,2024.2.4,60.05461366576052,2024-12-12 13h15.39.903285 +0000,
-0.31,0.005,55,55,0,down,6.144662600000629,None,space,0.31532009999955335,None,,,,,,,,,0,55,55,55,1577.3704688000003,,,,,,,,,,,,1577.3551885000002,1577.3704688000003,1577.3704688000003,1583.5317518999996,,,,1583.5320146999998,1583.547736,1583.547736,1583.547736,1583.8475293999995,1583.8649508000003,,,,,,,,,,,,,,,,down,6.144662600000629,None,space,0.31532009999955335,None,P135,001,2024-12-12_13h15.32.470,posner_endo_new1,2024.2.4,60.05461366576052,2024-12-12 13h15.39.903285 +0000,
0.005,0.31,56,56,0,up,4.402008699999897,None,space,0.33666859999993903,None,,,,,,,,,0,56,56,56,1583.8805018999997,,,,,,,,,,,,1583.8651339000003,1583.8805018999997,1583.8805018999997,1588.2933476000003,,,,1588.2936407000002,1588.3094237,1588.3094237,1588.3094237,1588.6088265000003,1588.6598071000003,,,,,,,,,,,,,,,,up,4.402008699999897,None,space,0.33666859999993903,None,P135,001,2024-12-12_13h15.32.470,posner_endo_new1,2024.2.4,60.05461366576052,2024-12-12 13h15.39.903285 +0000,
0.31,0.005,57,57,0,down,16.9511078000005,None,space,0.3478566999992836,None,,,,,,,,,0,57,57,57,1588.6757854000002,,,,,,,,,,,,1588.6599892,1588.6757854000002,1588.6757854000002,1605.6425138999998,,,,1605.6428001999998,1605.6580897999997,1605.6580897999997,1605.6580897999997,1605.9579982,1606.0087882000003,,,,,,,,,,,,,,,,down,16.9511078000005,None,space,0.3478566999992836,None,P135,001,2024-12-12_13h15.32.470,posner_endo_new1,2024.2.4,60.05461366576052,2024-12-12 13h15.39.903285 +0000,
10,0.005,58,58,0,up,3.2180354999991323,None,None,,,,,,,,,,,0,58,58,58,1606.0245823,,,,,,,,,,,,1606.0089752999997,1606.0245823,1606.0245823,1609.2554759,,,,1609.2557599999996,1609.2712993,1609.2712993,1609.2712993,1609.5709417000003,1612.2682738999997,,,,1610.2868659,,,,,,,,,,,,up,3.2180354999991323,None,None,,,P135,001,2024-12-12_13h15.32.470,posner_endo_new1,2024.2.4,60.05461366576052,2024-12-12 13h15.39.903285 +0000,
10,0.005,59,59,0,down,1.349320500000431,None,None,,,,,,,,,,,0,59,59,59,1612.2849302999998,,,,,,,,,,,,1612.2684480000003,1612.2849302999998,1612.2849302999998,1613.6509161,,,,1613.6511827999998,1613.6666448,1613.6666448,1613.6666448,1613.9665383999995,1616.6637850000002,,,,1614.6658535000001,,,,,,,,,,,,down,1.349320500000431,None,None,,,P135,001,2024-12-12_13h15.32.470,posner_endo_new1,2024.2.4,60.05461366576052,2024-12-12 13h15.39.903285 +0000,
