target_y,target_x,thisN,thisTrialN,thisRepN,key_control2.keys,key_control2.rt,key_control2.duration,key_resp.keys,key_resp.rt,key_resp.duration,practice.thisRepN,practice.thisTrialN,practice.thisN,practice.thisIndex,session_1.thisRepN,session_1.thisTrialN,session_1.thisN,session_1.thisIndex,session_2.thisRepN,session_2.thisTrialN,session_2.thisN,session_2.thisIndex,thisRow.t,notes,instructions.started,instructions_txt.started,key_control.started,instructions.stopped,key_control.keys,key_control.rt,key_control.duration,ready.started,ready_txt.started,ready.stopped,fix.started,key_control2.started,fixation_cross.started,fix.stopped,practice.key_control2.keys,practice.key_control2.rt,practice.key_control2.duration,target.started,star.started,fixation_cross_target.started,key_resp.started,star.stopped,key_resp.stopped,target.stopped,practice.key_resp.keys,practice.key_resp.rt,practice.key_resp.duration,session_1.key_control2.keys,session_1.key_control2.rt,session_1.key_control2.duration,session_1.key_resp.keys,session_1.key_resp.rt,session_1.key_resp.duration,break_2.started,text.started,key_control3.started,break_2.stopped,key_control3.keys,session_2.key_control2.keys,session_2.key_control2.rt,session_2.key_control2.duration,session_2.key_resp.keys,session_2.key_resp.rt,session_2.key_resp.duration,participant,session,date,expName,psychopyVersion,frameRate,expStart,
,,,,,,,,,,,,,,,,,,,,,,,,,0.007438699999994469,0.020309199999999805,0.020309199999999805,659.5976626,up,659.5637115,None,,,,,,,,,,,,,,,,,,,,,,,,,,,,,,,,,,,,,,P136,001,2024-12-13_09h06.39.729,posner_endo_new1,2024.2.4,60.024838278080566,2024-12-13 09h06.49.012723 +0000,
,,,,,,,,,,,,,,,,,,,,,,,,,,,,,,,,659.5977156,659.612025,662.609274,,,,,,,,,,,,,,,,,,,,,,,,,,,,,,,,,,,P136,001,2024-12-13_09h06.39.729,posner_endo_new1,2024.2.4,60.024838278080566,2024-12-13 09h06.49.012723 +0000,
10,0.005,0,0,0,up,1.5322781999999506,None,None,,,0,0,0,4,,,,,,,,,662.6282464999999,,,,,,,,,,,,662.6184266,662.6282464999999,662.6282464999999,664.1748481999999,up,1.5322781999999506,None,664.1751323,664.190798,664.190798,664.190798,664.4904136,665.2063099,667.1879692,None,,,,,,,,,,,,,,,,,,,,P136,001,2024-12-13_09h06.39.729,posner_endo_new1,2024.2.4,60.024838278080566,2024-12-13 09h06.49.012723 +0000,
0.005,-0.31,1,1,0,down,4.628086400000029,None,space,0.49168919999999616,None,0,1,1,7,,,,,,,,,667.2043303,,,,,,,,,,,,667.1881342,667.2043303,667.2043303,671.834058,down,4.628086400000029,None,671.8345028,671.8491745,671.8491745,671.8491745,672.1488581,,672.3501001999999,space,0.49168919999999616,None,,,,,,,,,,,,,,,,,,P136,001,2024-12-13_09h06.39.729,posner_endo_new1,2024.2.4,60.024838278080566,2024-12-13 09h06.49.012723 +0000,
0.31,0.005,2,2,0,up,3.6112763999999515,None,space,0.29211880000002566,None,0,2,2,3,,,,,,,,,672.3653078,,,,,,,,,,,,672.3503929999999,672.3653078,672.3653078,675.9800033,up,3.6112763999999515,None,675.9804422,675.9949365,675.9949365,675.9949365,676.2946059,,676.2962382,space,0.29211880000002566,None,,,,,,,,,,,,,,,,,,P136,001,2024-12-13_09h06.39.729,posner_endo_new1,2024.2.4,60.024838278080566,2024-12-13 09h06.49.012723 +0000,
0.005,-0.31,3,3,0,down,3.6644354999999678,None,space,0.4156282999999803,None,0,3,3,5,,,,,,,,,676.3112728,,,,,,,,,,,,676.2965599,676.3112728,676.3112728,679.9926568999999,down,3.6644354999999678,None,679.9930898,680.0075118,680.0075118,680.0075118,680.3071898,,680.4252755,space,0.4156282999999803,None,,,,,,,,,,,,,,,,,,P136,001,2024-12-13_09h06.39.729,posner_endo_new1,2024.2.4,60.024838278080566,2024-12-13 09h06.49.012723 +0000,
0.005,0.31,4,4,0,up,3.9513375000000224,None,space,0.3770331000000624,None,0,4,4,6,,,,,,,,,680.440397,,,,,,,,,,,,680.4255757999999,680.440397,680.440397,684.4044522,up,3.9513375000000224,None,684.4048862999999,684.4196722,684.4196722,684.4196722,684.7198132,,684.8038596,space,0.3770331000000624,None,,,,,,,,,,,,,,,,,,P136,001,2024-12-13_09h06.39.729,posner_endo_new1,2024.2.4,60.024838278080566,2024-12-13 09h06.49.012723 +0000,
-0.31,0.005,5,5,0,down,7.188844599999925,None,space,0.4758628999999246,None,0,5,5,0,,,,,,,,,684.8197704,,,,,,,,,,,,684.8040503,684.8197704,684.8197704,692.0134408,down,7.188844599999925,None,692.0137361,692.0290397,692.0290397,692.0290397,692.3288347,,692.5131058,space,0.4758628999999246,None,,,,,,,,,,,,,,,,,,P136,001,2024-12-13_09h06.39.729,posner_endo_new1,2024.2.4,60.024838278080566,2024-12-13 09h06.49.012723 +0000,
0.005,10,6,6,0,up,4.559979099999964,None,None,,,0,6,6,9,,,,,,,,,692.5287694,,,,,,,,,,,,692.5132956,692.5287694,692.5287694,697.0915732999999,up,4.559979099999964,None,697.0918707,697.1067416999999,697.1067416999999,697.1067416999999,697.4071045,698.1062706,700.1042553,None,,,,,,,,,,,,,,,,,,,,P136,001,2024-12-13_09h06.39.729,posner_endo_new1,2024.2.4,60.024838278080566,2024-12-13 09h06.49.012723 +0000,
0.31,0.005,7,7,0,down,2.879124000000047,None,space,0.2779106000000411,None,0,7,7,1,,,,,,,,,700.1210599,,,,,,,,,,,,700.1044424,700.1210599,700.1210599,703.0024678999999,down,2.879124000000047,None,703.0027598,703.0178125,703.0178125,703.0178125,703.3177215,,703.3018489,space,0.2779106000000411,None,,,,,,,,,,,,,,,,,,P136,001,2024-12-13_09h06.39.729,posner_endo_new1,2024.2.4,60.024838278080566,2024-12-13 09h06.49.012723 +0000,
-0.31,0.005,8,8,0,up,5.515014500000007,None,space,0.3342264000000341,None,0,8,8,2,,,,,,,,,703.3177215,,,,,,,,,,,,703.3020392,703.3177215,703.3177215,708.8465484999999,up,5.515014500000007,None,708.8468434,708.8619944,708.8619944,708.8619944,709.1616240999999,,709.2124406,space,0.3342264000000341,None,,,,,,,,,,,,,,,,,,P136,001,2024-12-13_09h06.39.729,posner_endo_new1,2024.2.4,60.024838278080566,2024-12-13 09h06.49.012723 +0000,
0.005,0.31,9,9,0,down,4.88371810000001,None,space,0.36836860000005345,None,0,9,9,8,,,,,,,,,709.2283344,,,,,,,,,,,,709.2126429,709.2283344,709.2283344,714.1241031,down,4.88371810000001,None,714.1244124,714.1398556,714.1398556,714.1398556,714.439495,,714.5235477,space,0.36836860000005345,None,,,,,,,,,,,,,,,,,,P136,001,2024-12-13_09h06.39.729,posner_endo_new1,2024.2.4,60.024838278080566,2024-12-13 09h06.49.012723 +0000,
,,,,,,,,,,,,,,,,,,,,,,,,,,,,,,,,714.5236754,714.5393842999999,717.5364002,,,,,,,,,,,,,,,,,,,,,,,,,,,,,,,,,,,P136,001,2024-12-13_09h06.39.729,posner_endo_new1,2024.2.4,60.024838278080566,2024-12-13 09h06.49.012723 +0000,
-0.31,0.005,0,0,0,up,26.452566300000058,None,space,0.4205425000000105,None,,,,,0,0,0,0,,,,,717.5559883,,,,,,,,,,,,717.5474515999999,717.5559883,717.5559883,744.0102269,,,,744.0105023,744.0255307,744.0255307,744.0255307,744.3255448,,744.4595945,,,,up,26.452566300000058,None,space,0.4205425000000105,None,,,,,,,,,,,,P136,001,2024-12-13_09h06.39.729,posner_endo_new1,2024.2.4,60.024838278080566,2024-12-13 09h06.49.012723 +0000,
0.005,-0.31,1,1,0,down,7.07629559999998,None,space,0.3224890000000187,None,,,,,0,1,1,1,,,,,744.4755023,,,,,,,,,,,,744.4597621,744.4755023,744.4755023,751.5525822999999,,,,751.5528367,751.5681726,751.5681726,751.5681726,751.8680156,,751.9019944,,,,down,7.07629559999998,None,space,0.3224890000000187,None,,,,,,,,,,,,P136,001,2024-12-13_09h06.39.729,posner_endo_new1,2024.2.4,60.024838278080566,2024-12-13 09h06.49.012723 +0000,
10,0.005,2,2,0,up,4.155276100000037,None,None,,,,,,,0,2,2,2,,,,,751.9179223,,,,,,,,,,,,751.902161,751.9179223,751.9179223,756.081097,,,,756.0813534,756.0968664,756.0968664,756.0968664,756.3964926,757.0959917,759.0939386,,,,up,4.155276100000037,None,None,,,,,,,,,,,,,,P136,001,2024-12-13_09h06.39.729,posner_endo_new1,2024.2.4,60.024838278080566,2024-12-13 09h06.49.012723 +0000,
0.005,-0.31,3,3,0,down,3.0586134999999786,None,space,0.27815540000005967,None,,,,,0,3,3,3,,,,,759.1105894,,,,,,,,,,,,759.0941012,759.1105894,759.1105894,762.1749824999999,,,,762.1752444,762.1906699,762.1906699,762.1906699,762.4903234,,762.4748582999999,,,,down,3.0586134999999786,None,space,0.27815540000005967,None,,,,,,,,,,,,P136,001,2024-12-13_09h06.39.729,posner_endo_new1,2024.2.4,60.024838278080566,2024-12-13 09h06.49.012723 +0000,
0.005,-0.31,4,4,0,up,3.8857938000001013,None,space,0.344420199999945,None,,,,,0,4,4,4,,,,,762.4903234,,,,,,,,,,,,762.4750253999999,762.4903234,762.4903234,766.3873381999999,,,,766.3875932999999,766.4029514,766.4029514,766.4029514,766.7027279,,766.7535103,,,,up,3.8857938000001013,None,space,0.344420199999945,None,,,,,,,,,,,,P136,001,2024-12-13_09h06.39.729,posner_endo_new1,2024.2.4,60.024838278080566,2024-12-13 09h06.49.012723 +0000,
0.005,-0.31,5,5,0,down,5.175221599999986,None,space,0.35059739999996964,None,,,,,0,5,5,5,,,,,766.7693849999999,,,,,,,,,,,,766.7536827,766.7693849999999,766.7693849999999,771.9482793,,,,771.9485362,771.9640334,771.9640334,771.9640334,772.2637829,,772.3311533,,,,down,5.175221599999986,None,space,0.35059739999996964,None,,,,,,,,,,,,P136,001,2024-12-13_09h06.39.729,posner_endo_new1,2024.2.4,60.024838278080566,2024-12-13 09h06.49.012723 +0000,
0.005,0.31,6,6,0,up,3.39745460000006,None,space,0.34445549999998093,None,,,,,0,6,6,6,,,,,772.3470623,,,,,,,,,,,,772.3313266,772.3470623,772.3470623,775.7608622,,,,775.7611238,775.7768637,775.7768637,775.7768637,776.0765034,,776.1274662,,,,up,3.39745460000006,None,space,0.34445549999998093,None,,,,,,,,,,,,P136,001,2024-12-13_09h06.39.729,posner_endo_new1,2024.2.4,60.024838278080566,2024-12-13 09h06.49.012723 +0000,
0.005,0.31,7,7,0,down,4.94652259999998,None,space,0.3780953000000409,None,,,,,0,7,7,7,,,,,776.1425614999999,,,,,,,,,,,,776.1276391,776.1425614999999,776.1425614999999,781.1055312,,,,781.1057929,781.1214148,781.1214148,781.1214148,781.4209879,,781.5052053,,,,down,4.94652259999998,None,space,0.3780953000000409,None,,,,,,,,,,,,P136,001,2024-12-13_09h06.39.729,posner_endo_new1,2024.2.4,60.024838278080566,2024-12-13 09h06.49.012723 +0000,
-0.31,0.005,8,8,0,up,5.127007299999946,None,space,0.36395949999996446,None,,,,,0,8,8,8,,,,,781.5211806,,,,,,,,,,,,781.5053702,781.5211806,781.5211806,786.649933,,,,786.650188,786.6658256,786.6658256,786.6658256,786.9654621999999,,787.0327245999999,,,,up,5.127007299999946,None,space,0.36395949999996446,None,,,,,,,,,,,,P136,001,2024-12-13_09h06.39.729,posner_endo_new1,2024.2.4,60.024838278080566,2024-12-13 09h06.49.012723 +0000,
-0.31,0.005,9,9,0,down,5.2715601999999535,None,space,0.37124600000004193,None,,,,,0,9,9,9,,,,,787.0487026,,,,,,,,,,,,787.0328926999999,787.0487026,787.0487026,792.3274817,,,,792.3277398,792.3432578,792.3432578,792.3432578,792.6428961,,792.7271425,,,,down,5.2715601999999535,None,space,0.37124600000004193,None,,,,,,,,,,,,P136,001,2024-12-13_09h06.39.729,posner_endo_new1,2024.2.4,60.024838278080566,2024-12-13 09h06.49.012723 +0000,
-0.31,0.005,10,10,0,up,5.641782699999908,None,space,0.4034346999999343,None,,,,,0,10,10,10,,,,,792.7428186,,,,,,,,,,,,792.7273154,792.7428186,792.7428186,798.3878440999999,,,,798.3881051,798.4038494,798.4038494,798.4038494,798.7034345,,798.8207003,,,,up,5.641782699999908,None,space,0.4034346999999343,None,,,,,,,,,,,,P136,001,2024-12-13_09h06.39.729,posner_endo_new1,2024.2.4,60.024838278080566,2024-12-13 09h06.49.012723 +0000,
-0.31,0.005,11,11,0,down,5.8117798000000676,None,space,0.2817446999999902,None,,,,,0,11,11,11,,,,,798.8364774,,,,,,,,,,,,798.8208668,798.8364774,798.8364774,804.6647902999999,,,,804.6650489,804.6805266,804.6805266,804.6805266,804.9803029999999,,804.9647911,,,,down,5.8117798000000676,None,space,0.2817446999999902,None,,,,,,,,,,,,P136,001,2024-12-13_09h06.39.729,posner_endo_new1,2024.2.4,60.024838278080566,2024-12-13 09h06.49.012723 +0000,
0.005,-0.31,12,12,0,up,4.116672600000015,None,space,0.3636061999999356,None,,,,,0,12,12,12,,,,,804.9803029999999,,,,,,,,,,,,804.9649561,804.9803029999999,804.9803029999999,809.1102149,,,,809.1104679,809.1260479,809.1260479,809.1260479,809.4258205,,809.4933099,,,,up,4.116672600000015,None,space,0.3636061999999356,None,,,,,,,,,,,,P136,001,2024-12-13_09h06.39.729,posner_endo_new1,2024.2.4,60.024838278080566,2024-12-13 09h06.49.012723 +0000,
0.005,-0.31,13,13,0,down,4.675101400000017,None,space,0.319419000000039,None,,,,,0,13,13,13,,,,,809.5089515,,,,,,,,,,,,809.4934754,809.5089515,809.5089515,814.1884397,,,,814.1887017,814.2041773999999,814.2041773999999,814.2041773999999,814.5040018,,814.5381846,,,,down,4.675101400000017,None,space,0.319419000000039,None,,,,,,,,,,,,P136,001,2024-12-13_09h06.39.729,posner_endo_new1,2024.2.4,60.024838278080566,2024-12-13 09h06.49.012723 +0000,
-0.31,0.005,14,14,0,up,4.726543699999979,None,space,0.3406035000000429,None,,,,,0,14,14,14,,,,,814.5538267,,,,,,,,,,,,814.5383586,814.5538267,814.5538267,819.2831896,,,,819.2834461,819.2991055,819.2991055,819.2991055,819.5988108,,819.6496741,,,,up,4.726543699999979,None,space,0.3406035000000429,None,,,,,,,,,,,,P136,001,2024-12-13_09h06.39.729,posner_endo_new1,2024.2.4,60.024838278080566,2024-12-13 09h06.49.012723 +0000,
10,0.005,15,15,0,down,5.16702829999997,None,None,,,,,,,0,15,15,15,,,,,819.6654465,,,,,,,,,,,,819.6498435,819.6654465,819.6654465,824.844573,,,,824.8449737,824.8599777,824.8599777,824.8599777,825.1596618,825.8756131,827.8569921,,,,down,5.16702829999997,None,None,,,,,,,,,,,,,,P136,001,2024-12-13_09h06.39.729,posner_endo_new1,2024.2.4,60.024838278080566,2024-12-13 09h06.49.012723 +0000,
0.005,0.31,16,16,0,up,12.03891180000005,None,space,0.43371880000006513,None,,,,,0,16,16,16,,,,,827.8736116,,,,,,,,,,,,827.857158,827.8736116,827.8736116,839.9288657,,,,839.9291309,839.9448583999999,839.9448583999999,839.9448583999999,840.2443939999999,,840.3952128,,,,up,12.03891180000005,None,space,0.43371880000006513,None,,,,,,,,,,,,P136,001,2024-12-13_09h06.39.729,posner_endo_new1,2024.2.4,60.024838278080566,2024-12-13 09h06.49.012723 +0000,
0.005,-0.31,17,17,0,down,5.349652699999979,None,space,0.33400619999997616,None,,,,,0,17,17,17,,,,,840.4108633,,,,,,,,,,,,840.3953807,840.4108633,840.4108633,845.7728215,,,,845.7730799,845.7887504,845.7887504,845.7887504,846.0883309999999,,846.1391451,,,,down,5.349652699999979,None,space,0.33400619999997616,None,,,,,,,,,,,,P136,001,2024-12-13_09h06.39.729,posner_endo_new1,2024.2.4,60.024838278080566,2024-12-13 09h06.49.012723 +0000,
10,0.005,18,18,0,up,5.1017658000000665,None,None,,,,,,,0,18,18,18,,,,,846.1544163,,,,,,,,,,,,846.1393089,846.1544163,846.1544163,851.2672613999999,,,,851.2675265,851.2831371999999,851.2831371999999,851.2831371999999,851.582704,852.2987539,854.2801812,,,,up,5.1017658000000665,None,None,,,,,,,,,,,,,,P136,001,2024-12-13_09h06.39.729,posner_endo_new1,2024.2.4,60.024838278080566,2024-12-13 09h06.49.012723 +0000,
10,0.005,19,19,0,down,2.824264699999958,None,None,,,,,,,0,19,19,19,,,,,854.2967914,,,,,,,,,,,,854.2803446,854.2967914,854.2967914,857.1279668,,,,857.1282229999999,857.1432723,857.1432723,857.1432723,857.4431334999999,858.142787,860.1405224,,,,down,2.824264699999958,None,None,,,,,,,,,,,,,,P136,001,2024-12-13_09h06.39.729,posner_endo_new1,2024.2.4,60.024838278080566,2024-12-13 09h06.49.012723 +0000,
0.005,0.31,20,20,0,up,1.9954447000000073,None,space,0.3946839000000182,None,,,,,0,20,20,20,,,,,860.1573705,,,,,,,,,,,,860.1406873999999,860.1573705,860.1573705,862.1560145999999,,,,862.1562739,862.1719962999999,862.1719962999999,862.1719962999999,862.4715342,,862.5723705,,,,up,1.9954447000000073,None,space,0.3946839000000182,None,,,,,,,,,,,,P136,001,2024-12-13_09h06.39.729,posner_endo_new1,2024.2.4,60.024838278080566,2024-12-13 09h06.49.012723 +0000,
0.005,-0.31,21,21,0,down,4.349003599999946,None,space,0.3408848000000262,None,,,,,0,21,21,21,,,,,862.5877299,,,,,,,,,,,,862.5725529,862.5877299,862.5877299,866.9510852,,,,866.9513370999999,866.9670568,866.9670568,866.9670568,867.2668246,,867.3176043,,,,down,4.349003599999946,None,space,0.3408848000000262,None,,,,,,,,,,,,P136,001,2024-12-13_09h06.39.729,posner_endo_new1,2024.2.4,60.024838278080566,2024-12-13 09h06.49.012723 +0000,
0.005,-0.31,22,22,0,up,4.467797300000029,None,space,0.31635530000005474,None,,,,,0,22,22,22,,,,,867.3332804,,,,,,,,,,,,867.3177737,867.3332804,867.3332804,871.8124593,,,,871.8127235,871.8288962,871.8288962,871.8288962,872.1284307999999,,872.1460864,,,,up,4.467797300000029,None,space,0.31635530000005474,None,,,,,,,,,,,,P136,001,2024-12-13_09h06.39.729,posner_endo_new1,2024.2.4,60.024838278080566,2024-12-13 09h06.49.012723 +0000,
10,0.005,23,23,0,down,3.991101800000024,None,None,,,,,,,0,23,23,23,,,,,872.1618880999999,,,,,,,,,,,,872.1462642,872.1618880999999,872.1618880999999,876.1585202,,,,876.1587802,876.1742181999999,876.1742181999999,876.1742181999999,876.4738636,877.1898897,879.1714205,,,,down,3.991101800000024,None,None,,,,,,,,,,,,,,P136,001,2024-12-13_09h06.39.729,posner_endo_new1,2024.2.4,60.024838278080566,2024-12-13 09h06.49.012723 +0000,
10,0.005,24,24,0,up,3.3333273000000645,None,None,,,,,,,0,24,24,24,,,,,879.1878127,,,,,,,,,,,,879.1715832,879.1878127,879.1878127,882.5351186,,,,882.5353867,882.5511841,882.5511841,882.5511841,882.8508631,883.5501075,885.548314,,,,up,3.3333273000000645,None,None,,,,,,,,,,,,,,P136,001,2024-12-13_09h06.39.729,posner_endo_new1,2024.2.4,60.024838278080566,2024-12-13 09h06.49.012723 +0000,
0.005,0.31,25,25,0,down,3.5237399999999752,None,space,0.3912278000000242,None,,,,,0,25,25,25,,,,,885.5645832,,,,,,,,,,,,885.5484797,885.5645832,885.5645832,889.0950729,,,,889.0953244,889.1110495,889.1110495,889.1110495,889.4109698,,889.512306,,,,down,3.5237399999999752,None,space,0.3912278000000242,None,,,,,,,,,,,,P136,001,2024-12-13_09h06.39.729,posner_endo_new1,2024.2.4,60.024838278080566,2024-12-13 09h06.49.012723 +0000,
0.31,0.005,26,26,0,up,4.51334810000003,None,space,0.35744529999999486,None,,,,,0,26,26,26,,,,,889.5271197,,,,,,,,,,,,889.512711,889.5271197,889.5271197,894.0571291,,,,894.0575192,894.072721,894.072721,894.072721,894.3724264,,894.4402915,,,,up,4.51334810000003,None,space,0.35744529999999486,None,,,,,,,,,,,,P136,001,2024-12-13_09h06.39.729,posner_endo_new1,2024.2.4,60.024838278080566,2024-12-13 09h06.49.012723 +0000,
-0.31,0.005,27,27,0,down,3.760909599999991,None,space,0.32228999999995267,None,,,,,0,27,27,27,,,,,894.4556676,,,,,,,,,,,,894.4405726,894.4556676,894.4556676,898.2195667999999,,,,898.2199659,898.2350683999999,898.2350683999999,898.2350683999999,898.5347515,,898.5693519,,,,down,3.760909599999991,None,space,0.32228999999995267,None,,,,,,,,,,,,P136,001,2024-12-13_09h06.39.729,posner_endo_new1,2024.2.4,60.024838278080566,2024-12-13 09h06.49.012723 +0000,
0.005,-0.31,28,28,0,up,5.752050399999916,None,space,0.29747340000005806,None,,,,,0,28,28,28,,,,,898.5846894,,,,,,,,,,,,898.5696282,898.5846894,898.5846894,904.3470547,,,,904.3474487,904.3622904,904.3622904,904.3622904,904.6618425,,904.6632588,,,,up,5.752050399999916,None,space,0.29747340000005806,None,,,,,,,,,,,,P136,001,2024-12-13_09h06.39.729,posner_endo_new1,2024.2.4,60.024838278080566,2024-12-13 09h06.49.012723 +0000,
0.005,-0.31,29,29,0,down,5.6263995999999,None,space,0.345741500000031,None,,,,,0,29,29,29,,,,,904.6785199,,,,,,,,,,,,904.6635282,904.6785199,904.6785199,910.3076529,,,,910.3080509,910.3227734,910.3227734,910.3227734,910.6224907,,910.6734978,,,,down,5.6263995999999,None,space,0.345741500000031,None,,,,,,,,,,,,P136,001,2024-12-13_09h06.39.729,posner_endo_new1,2024.2.4,60.024838278080566,2024-12-13 09h06.49.012723 +0000,
10,0.005,30,30,0,up,4.800083699999959,None,None,,,,,,,0,30,30,30,,,,,910.6888862,,,,,,,,,,,,910.6736900999999,910.6888862,910.6888862,915.5017263,,,,915.5020108,915.5174331,915.5174331,915.5174331,915.8171742,916.5165074,918.5145226,,,,up,4.800083699999959,None,None,,,,,,,,,,,,,,P136,001,2024-12-13_09h06.39.729,posner_endo_new1,2024.2.4,60.024838278080566,2024-12-13 09h06.49.012723 +0000,
0.005,-0.31,31,31,0,down,3.445258899999999,None,space,0.31236379999995734,None,,,,,0,31,31,31,,,,,918.5310254,,,,,,,,,,,,918.5147067,918.5310254,918.5310254,921.9784946,,,,921.9787784,921.9941085,921.9941085,921.9941085,922.2938039,,922.311604,,,,down,3.445258899999999,None,space,0.31236379999995734,None,,,,,,,,,,,,P136,001,2024-12-13_09h06.39.729,posner_endo_new1,2024.2.4,60.024838278080566,2024-12-13 09h06.49.012723 +0000,
0.31,0.005,32,32,0,up,3.9218839999999773,None,space,0.3222842000000128,None,,,,,0,32,32,32,,,,,922.3271873,,,,,,,,,,,,922.3117956,922.3271873,922.3271873,926.2575261,,,,926.2578040999999,926.273145,926.273145,926.273145,926.5728614,,926.6070667,,,,up,3.9218839999999773,None,space,0.3222842000000128,None,,,,,,,,,,,,P136,001,2024-12-13_09h06.39.729,posner_endo_new1,2024.2.4,60.024838278080566,2024-12-13 09h06.49.012723 +0000,
0.005,-0.31,33,33,0,down,5.2020456000000195,None,space,0.27295249999997395,None,,,,,0,33,33,33,,,,,926.6229637,,,,,,,,,,,,926.6072632,926.6229637,926.6229637,931.8349466999999,,,,931.835237,931.8508281,931.8508281,931.8508281,932.1504669999999,,932.1348176,,,,down,5.2020456000000195,None,space,0.27295249999997395,None,,,,,,,,,,,,P136,001,2024-12-13_09h06.39.729,posner_endo_new1,2024.2.4,60.024838278080566,2024-12-13 09h06.49.012723 +0000,
10,0.005,34,34,0,up,5.290240400000016,None,None,,,,,,,0,34,34,34,,,,,932.1504669999999,,,,,,,,,,,,932.1350079,932.1504669999999,932.1504669999999,937.4458469,,,,937.4460994,937.4616069,937.4616069,937.4616069,937.761448,938.4607459,940.4587186,,,,up,5.290240400000016,None,None,,,,,,,,,,,,,,P136,001,2024-12-13_09h06.39.729,posner_endo_new1,2024.2.4,60.024838278080566,2024-12-13 09h06.49.012723 +0000,
0.31,0.005,35,35,0,down,3.4780232999999043,None,space,0.3077655000000732,None,,,,,0,35,35,35,,,,,940.4751426,,,,,,,,,,,,940.4588815,940.4751426,940.4751426,943.955832,,,,943.9560871,943.971756,943.971756,943.971756,944.2713711,,944.2888715,,,,down,3.4780232999999043,None,space,0.3077655000000732,None,,,,,,,,,,,,P136,001,2024-12-13_09h06.39.729,posner_endo_new1,2024.2.4,60.024838278080566,2024-12-13 09h06.49.012723 +0000,
0.31,0.005,36,36,0,up,3.904513599999973,None,space,0.344397299999855,None,,,,,0,36,36,36,,,,,944.3047025999999,,,,,,,,,,,,944.2890389,944.3047025999999,944.3047025999999,948.2180243,,,,948.2182740000001,948.2341623,948.2341623,948.2341623,948.5337327,,948.5844024999999,,,,up,3.904513599999973,None,space,0.344397299999855,None,,,,,,,,,,,,P136,001,2024-12-13_09h06.39.729,posner_endo_new1,2024.2.4,60.024838278080566,2024-12-13 09h06.49.012723 +0000,
-0.31,0.005,37,37,0,down,4.6165426000000025,None,space,0.36243300000001,None,,,,,0,37,37,37,,,,,948.6003330000001,,,,,,,,,,,,948.5845750999999,948.6003330000001,948.6003330000001,953.2295695,,,,953.229828,953.2455411999999,953.2455411999999,953.2455411999999,953.5454030000001,,953.6127039999999,,,,down,4.6165426000000025,None,space,0.36243300000001,None,,,,,,,,,,,,P136,001,2024-12-13_09h06.39.729,posner_endo_new1,2024.2.4,60.024838278080566,2024-12-13 09h06.49.012723 +0000,
0.005,0.31,38,38,0,up,4.236469899999975,None,space,0.33022239999991143,None,,,,,0,38,38,38,,,,,953.6285404999999,,,,,,,,,,,,953.6128689,953.6285404999999,953.6285404999999,957.874914,,,,957.8751718999999,957.890791,957.890791,957.890791,958.1906088999999,,958.2247981,,,,up,4.236469899999975,None,space,0.33022239999991143,None,,,,,,,,,,,,P136,001,2024-12-13_09h06.39.729,posner_endo_new1,2024.2.4,60.024838278080566,2024-12-13 09h06.49.012723 +0000,
0.005,0.31,39,39,0,down,5.04766880000011,None,space,0.3341993999999886,None,,,,,0,39,39,39,,,,,958.240738,,,,,,,,,,,,958.2249697,958.240738,958.240738,963.3027549000001,,,,963.302995,963.3184916,963.3184916,963.3184916,963.6183894000001,,963.6689779999999,,,,down,5.04766880000011,None,space,0.3341993999999886,None,,,,,,,,,,,,P136,001,2024-12-13_09h06.39.729,posner_endo_new1,2024.2.4,60.024838278080566,2024-12-13 09h06.49.012723 +0000,
-0.31,0.005,40,40,0,up,5.579439300000104,None,space,0.34823690000007446,None,,,,,0,40,40,40,,,,,963.6851910999999,,,,,,,,,,,,963.6691433000001,963.6851910999999,963.6851910999999,969.2800041,,,,969.2802641000001,969.2958008999999,969.2958008999999,969.2958008999999,969.5956759000001,,969.6463961,,,,up,5.579439300000104,None,space,0.34823690000007446,None,,,,,,,,,,,,P136,001,2024-12-13_09h06.39.729,posner_endo_new1,2024.2.4,60.024838278080566,2024-12-13 09h06.49.012723 +0000,
10,0.005,41,41,0,down,5.034236899999996,None,None,,,,,,,0,41,41,41,,,,,969.6621688,,,,,,,,,,,,969.6465633,969.6621688,969.6621688,974.7078291,,,,974.7080851000001,974.7235092999999,974.7235092999999,974.7235092999999,975.023436,975.7227129,977.7207567999999,,,,down,5.034236899999996,None,None,,,,,,,,,,,,,,P136,001,2024-12-13_09h06.39.729,posner_endo_new1,2024.2.4,60.024838278080566,2024-12-13 09h06.49.012723 +0000,
-0.31,0.005,42,42,0,up,12.631963400000132,None,space,0.37993230000006406,None,,,,,0,42,42,42,,,,,977.7372667,,,,,,,,,,,,977.7209204999999,977.7372667,977.7372667,990.3753202999999,,,,990.3755811999999,990.3910862,990.3910862,990.3910862,990.690758,,990.7747162999999,,,,up,12.631963400000132,None,space,0.37993230000006406,None,,,,,,,,,,,,P136,001,2024-12-13_09h06.39.729,posner_endo_new1,2024.2.4,60.024838278080566,2024-12-13 09h06.49.012723 +0000,
-0.31,0.005,43,43,0,down,4.442542000000003,None,space,0.2923622000000705,None,,,,,0,43,43,43,,,,,990.7907281,,,,,,,,,,,,990.7748806,990.7907281,990.7907281,995.2369119,,,,995.2371678,995.2526335,995.2526335,995.2526335,995.5523817000001,,995.5532158000001,,,,down,4.442542000000003,None,space,0.2923622000000705,None,,,,,,,,,,,,P136,001,2024-12-13_09h06.39.729,posner_endo_new1,2024.2.4,60.024838278080566,2024-12-13 09h06.49.012723 +0000,
0.005,0.31,44,44,0,up,5.793200699999943,None,space,0.39423660000011296,None,,,,,0,44,44,44,,,,,995.5686633999999,,,,,,,,,,,,995.5533788999999,995.5686633999999,995.5686633999999,1001.3639106,,,,1001.3641726000001,1001.3798517999999,1001.3798517999999,1001.3798517999999,1001.6795597,,1001.7802675,,,,up,5.793200699999943,None,space,0.39423660000011296,None,,,,,,,,,,,,P136,001,2024-12-13_09h06.39.729,posner_endo_new1,2024.2.4,60.024838278080566,2024-12-13 09h06.49.012723 +0000,
10,0.005,45,45,0,down,5.005286900000101,None,None,,,,,,,0,45,45,45,,,,,1001.7960303,,,,,,,,,,,,1001.7804312000001,1001.7960303,1001.7960303,1006.8083144,,,,1006.8085759,1006.8241963,1006.8241963,1006.8241963,1007.1241683999999,1007.8232317,1009.8212619000001,,,,down,5.005286900000101,None,None,,,,,,,,,,,,,,P136,001,2024-12-13_09h06.39.729,posner_endo_new1,2024.2.4,60.024838278080566,2024-12-13 09h06.49.012723 +0000,
0.005,-0.31,46,46,0,up,1.9147625000000517,None,space,0.3925395999999637,None,,,,,0,46,46,46,,,,,1009.8379671,,,,,,,,,,,,1009.8214330000001,1009.8379671,1009.8379671,1011.7536640000001,,,,1011.7539148999999,1011.7691015999999,1011.7691015999999,1011.7691015999999,1012.0690016000001,,1012.1694497999999,,,,up,1.9147625000000517,None,space,0.3925395999999637,None,,,,,,,,,,,,P136,001,2024-12-13_09h06.39.729,posner_endo_new1,2024.2.4,60.024838278080566,2024-12-13 09h06.49.012723 +0000,
-0.31,0.005,47,47,0,down,5.815521199999921,None,space,0.3236538000001019,None,,,,,0,47,47,47,,,,,1012.1852484000001,,,,,,,,,,,,1012.1696164,1012.1852484000001,1012.1852484000001,1018.0132544999999,,,,1018.0135141000001,1018.0297062,1018.0297062,1018.0297062,1018.3291770999999,,1018.3632714,,,,down,5.815521199999921,None,space,0.3236538000001019,None,,,,,,,,,,,,P136,001,2024-12-13_09h06.39.729,posner_endo_new1,2024.2.4,60.024838278080566,2024-12-13 09h06.49.012723 +0000,
-0.31,0.005,48,48,0,up,4.918324499999926,None,space,0.3340735000001587,None,,,,,0,48,48,48,,,,,1018.3790715,,,,,,,,,,,,1018.363443,1018.3790715,1018.3790715,1023.3081064,,,,1023.3083521000001,1023.3240963000001,1023.3240963000001,1023.3240963000001,1023.6237894000001,,1023.6746189,,,,up,4.918324499999926,None,space,0.3340735000001587,None,,,,,,,,,,,,P136,001,2024-12-13_09h06.39.729,posner_endo_new1,2024.2.4,60.024838278080566,2024-12-13 09h06.49.012723 +0000,
-0.31,0.005,49,49,0,down,5.670233999999937,None,space,0.3614022000001569,None,,,,,0,49,49,49,,,,,1023.6903362,,,,,,,,,,,,1023.6747842,1023.6903362,1023.6903362,1029.3685934,,,,1029.3688506,1029.3844675999999,1029.3844675999999,1029.3844675999999,1029.6844248,,1029.7517943,,,,down,5.670233999999937,None,space,0.3614022000001569,None,,,,,,,,,,,,P136,001,2024-12-13_09h06.39.729,posner_endo_new1,2024.2.4,60.024838278080566,2024-12-13 09h06.49.012723 +0000,
0.31,0.005,50,50,0,up,3.5057933000000503,None,space,0.3558599000000413,None,,,,,0,50,50,50,,,,,1029.7674771,,,,,,,,,,,,1029.7519582,1029.7674771,1029.7674771,1033.2815224,,,,1033.2819861,1033.2967377,1033.2967377,1033.2967377,1033.5964544,,1033.6645431,,,,up,3.5057933000000503,None,space,0.3558599000000413,None,,,,,,,,,,,,P136,001,2024-12-13_09h06.39.729,posner_endo_new1,2024.2.4,60.024838278080566,2024-12-13 09h06.49.012723 +0000,
0.31,0.005,51,51,0,down,5.305672600000207,None,space,0.2994137000000592,None,,,,,0,51,51,51,,,,,1033.6796854,,,,,,,,,,,,1033.6648476999999,1033.6796854,1033.6796854,1038.9924179,,,,1038.9928694,1039.0080731,1039.0080731,1039.0080731,1039.307763,,1039.3088786,,,,down,5.305672600000207,None,space,0.2994137000000592,None,,,,,,,,,,,,P136,001,2024-12-13_09h06.39.729,posner_endo_new1,2024.2.4,60.024838278080566,2024-12-13 09h06.49.012723 +0000,
0.31,0.005,52,52,0,up,5.836015699999962,None,space,0.41610560000003716,None,,,,,0,52,52,52,,,,,1039.3244655,,,,,,,,,,,,1039.3090935999999,1039.3244655,1039.3244655,1045.1696085,,,,1045.1699208,1045.1852476,1045.1852476,1045.1852476,1045.4848451999999,,1045.6024413,,,,up,5.836015699999962,None,space,0.41610560000003716,None,,,,,,,,,,,,P136,001,2024-12-13_09h06.39.729,posner_endo_new1,2024.2.4,60.024838278080566,2024-12-13 09h06.49.012723 +0000,
0.005,0.31,53,53,0,down,5.871289899999965,None,space,0.34061210000004394,None,,,,,0,53,53,53,,,,,1045.6179979,,,,,,,,,,,,1045.6026513,1045.6179979,1045.6179979,1051.496465,,,,1051.4967804999999,1051.5118386,1051.5118386,1051.5118386,1051.8117394,,1051.8629193,,,,down,5.871289899999965,None,space,0.34061210000004394,None,,,,,,,,,,,,P136,001,2024-12-13_09h06.39.729,posner_endo_new1,2024.2.4,60.024838278080566,2024-12-13 09h06.49.012723 +0000,
0.31,0.005,54,54,0,up,4.634384100000034,None,space,0.3393510000000788,None,,,,,0,54,54,54,,,,,1051.8781793,,,,,,,,,,,,1051.8631243,1051.8781793,1051.8781793,1056.5243725,,,,1056.5246797,1056.5398691999999,1056.5398691999999,1056.5398691999999,1056.8398334,,1056.8906822,,,,up,4.634384100000034,None,space,0.3393510000000788,None,,,,,,,,,,,,P136,001,2024-12-13_09h06.39.729,posner_endo_new1,2024.2.4,60.024838278080566,2024-12-13 09h06.49.012723 +0000,
0.005,0.31,55,55,0,down,5.1423803000000134,None,space,0.3332545000000664,None,,,,,0,55,55,55,,,,,1056.9064976,,,,,,,,,,,,1056.8908931,1056.9064976,1056.9064976,1062.0521033,,,,1062.0524065,1062.0677554,1062.0677554,1062.0677554,1062.367736,,1062.4022088,,,,down,5.1423803000000134,None,space,0.3332545000000664,None,,,,,,,,,,,,P136,001,2024-12-13_09h06.39.729,posner_endo_new1,2024.2.4,60.024838278080566,2024-12-13 09h06.49.012723 +0000,
0.005,-0.31,56,56,0,up,4.135434599999826,None,space,0.3440453000000616,None,,,,,0,56,56,56,,,,,1062.4175091,,,,,,,,,,,,1062.402417,1062.4175091,1062.4175091,1066.5642481,,,,1066.5645612,1066.5799577999999,1066.5799577999999,1066.5799577999999,1066.8796948,,1066.9307862,,,,up,4.135434599999826,None,space,0.3440453000000616,None,,,,,,,,,,,,P136,001,2024-12-13_09h06.39.729,posner_endo_new1,2024.2.4,60.024838278080566,2024-12-13 09h06.49.012723 +0000,
0.005,0.31,57,57,0,down,5.118579899999986,None,space,0.35211770000000797,None,,,,,0,57,57,57,,,,,1066.9461694,,,,,,,,,,,,1066.9310099,1066.9461694,1066.9461694,1072.0752565999999,,,,1072.0755704,1072.090889,1072.090889,1072.090889,1072.3905563,,1072.4582223,,,,down,5.118579899999986,None,space,0.35211770000000797,None,,,,,,,,,,,,P136,001,2024-12-13_09h06.39.729,posner_endo_new1,2024.2.4,60.024838278080566,2024-12-13 09h06.49.012723 +0000,
10,0.005,58,58,0,up,5.1912852000000385,None,None,,,,,,,0,58,58,58,,,,,1072.4739557,,,,,,,,,,,,1072.4584378,1072.4739557,1072.4739557,1077.6697288,,,,1077.6700368,1077.6852855,1077.6852855,1077.6852855,1077.9850425,1078.7009197,1080.6823053,,,,up,5.1912852000000385,None,None,,,,,,,,,,,,,,P136,001,2024-12-13_09h06.39.729,posner_endo_new1,2024.2.4,60.024838278080566,2024-12-13 09h06.49.012723 +0000,
10,0.005,59,59,0,down,2.9502133000000867,None,None,,,,,,,0,59,59,59,,,,,1080.6987675,,,,,,,,,,,,1080.6825086,1080.6987675,1080.6987675,1083.6633875,,,,1083.6637054,1083.6791176,1083.6791176,1083.6791176,1083.9787681,1084.67807,1086.6762103,,,,down,2.9502133000000867,None,None,,,,,,,,,,,,,,P136,001,2024-12-13_09h06.39.729,posner_endo_new1,2024.2.4,60.024838278080566,2024-12-13 09h06.49.012723 +0000,
-0.31,0.005,60,60,0,up,3.100783599999886,None,space,0.40194929999984197,None,,,,,0,60,60,60,,,,,1086.6928223,,,,,,,,,,,,1086.6764216,1086.6928223,1086.6928223,1089.8073772999999,,,,1089.8076876,1089.8231408,1089.8231408,1089.8231408,1090.122577,,1090.2401164999999,,,,up,3.100783599999886,None,space,0.40194929999984197,None,,,,,,,,,,,,P136,001,2024-12-13_09h06.39.729,posner_endo_new1,2024.2.4,60.024838278080566,2024-12-13 09h06.49.012723 +0000,
,,,,,,,,,,,,,,,,,,,,,,,,,,,,,,,,,,,,,,,,,,,,,,,,,,,,,,,,,,1090.2402586,1090.2557784,1090.2557784,1150.2283577,None,,,,,,,P136,001,2024-12-13_09h06.39.729,posner_endo_new1,2024.2.4,60.024838278080566,2024-12-13 09h06.49.012723 +0000,
,,,,,,,,,,,,,,,,,,,,,,,,,,,,,,,,1150.2284083,1150.244403,1153.2414509999999,,,,,,,,,,,,,,,,,,,,,,,,,,,,,,,,,,,P136,001,2024-12-13_09h06.39.729,posner_endo_new1,2024.2.4,60.024838278080566,2024-12-13 09h06.49.012723 +0000,
0.005,-0.31,0,0,0,up,16.74083130000008,None,space,0.45417760000009366,None,,,,,,,,,0,0,0,0,1153.260521,,,,,,,,,,,,1153.250043,1153.260521,1153.260521,1170.0083381,,,,1170.0086157,1170.0239279,1170.0239279,1170.0239279,1170.323929,,1170.4911816,,,,,,,,,,,,,,,up,16.74083130000008,None,space,0.45417760000009366,None,P136,001,2024-12-13_09h06.39.729,posner_endo_new1,2024.2.4,60.024838278080566,2024-12-13 09h06.49.012723 +0000,
0.31,0.005,1,1,0,down,5.238049799999999,None,space,0.3634274999999434,None,,,,,,,,,0,1,1,1,1170.507084,,,,,,,,,,,,1170.4913538,1170.507084,1170.507084,1175.7525805999999,,,,1175.7528279,1175.7680679,1175.7680679,1175.7680679,1176.0679688999999,,1176.1354128,,,,,,,,,,,,,,,down,5.238049799999999,None,space,0.3634274999999434,None,P136,001,2024-12-13_09h06.39.729,posner_endo_new1,2024.2.4,60.024838278080566,2024-12-13 09h06.49.012723 +0000,
10,0.005,2,2,0,up,5.1779326999999284,None,None,,,,,,,,,,,0,2,2,2,1176.1512549,,,,,,,,,,,,1176.1355759,1176.1512549,1176.1512549,1181.3302535,,,,1181.3305061,1181.3463937,1181.3463937,1181.3463937,1181.645726,1182.3617279,1184.3430867,,,,,,,,,,,,,,,up,5.1779326999999284,None,None,,,P136,001,2024-12-13_09h06.39.729,posner_endo_new1,2024.2.4,60.024838278080566,2024-12-13 09h06.49.012723 +0000,
0.005,-0.31,3,3,0,down,3.4660460000000057,None,space,0.3321654999999737,None,,,,,,,,,0,3,3,3,1184.3597431,,,,,,,,,,,,1184.3432602999999,1184.3597431,1184.3597431,1187.8401173,,,,1187.8403714,1187.8558603,1187.8558603,1187.8558603,1188.1554512,,1188.1899528,,,,,,,,,,,,,,,down,3.4660460000000057,None,space,0.3321654999999737,None,P136,001,2024-12-13_09h06.39.729,posner_endo_new1,2024.2.4,60.024838278080566,2024-12-13 09h06.49.012723 +0000,
0.005,-0.31,4,4,0,up,4.124041600000055,None,space,0.2881042999999863,None,,,,,,,,,0,4,4,4,1188.2056928,,,,,,,,,,,,1188.1901238,1188.2056928,1188.2056928,1192.3354335,,,,1192.3356868,1192.3513618,1192.3513618,1192.3513618,1192.6512395,,1192.6520565,,,,,,,,,,,,,,,up,4.124041600000055,None,space,0.2881042999999863,None,P136,001,2024-12-13_09h06.39.729,posner_endo_new1,2024.2.4,60.024838278080566,2024-12-13 09h06.49.012723 +0000,
10,0.005,5,5,0,down,4.606171500000073,None,None,,,,,,,,,,,0,5,5,5,1192.6677268,,,,,,,,,,,,1192.6522286,1192.6677268,1192.6677268,1197.2806444999999,,,,1197.2808945,1197.2963432,1197.2963432,1197.2963432,1197.5960759,1198.2953631,1200.2936077,,,,,,,,,,,,,,,down,4.606171500000073,None,None,,,P136,001,2024-12-13_09h06.39.729,posner_endo_new1,2024.2.4,60.024838278080566,2024-12-13 09h06.49.012723 +0000,
0.005,0.31,6,6,0,up,2.8841377000001103,None,space,0.504199299999982,None,,,,,,,,,0,6,6,6,1200.3099138,,,,,,,,,,,,1200.2937815999999,1200.3099138,1200.3099138,1203.207732,,,,1203.2079805,1203.2236447,1203.2236447,1203.2236447,1203.5235527,,1203.7406222,,,,,,,,,,,,,,,up,2.8841377000001103,None,space,0.504199299999982,None,P136,001,2024-12-13_09h06.39.729,posner_endo_new1,2024.2.4,60.024838278080566,2024-12-13 09h06.49.012723 +0000,
0.005,0.31,7,7,0,down,4.204725900000085,None,space,0.3748800000000756,None,,,,,,,,,0,7,7,7,1203.7565682,,,,,,,,,,,,1203.7407904,1203.7565682,1203.7565682,1207.9696505,,,,1207.9699011,1207.9854755,1207.9854755,1207.9854755,1208.2847002,,1208.3694237,,,,,,,,,,,,,,,down,4.204725900000085,None,space,0.3748800000000756,None,P136,001,2024-12-13_09h06.39.729,posner_endo_new1,2024.2.4,60.024838278080566,2024-12-13 09h06.49.012723 +0000,
0.31,0.005,8,8,0,up,4.2492454000000635,None,space,0.3449299000001247,None,,,,,,,,,0,8,8,8,1208.3846206,,,,,,,,,,,,1208.3695925,1208.3846206,1208.3846206,1212.6482667,,,,1212.6485171,1212.6637864,1212.6637864,1212.6637864,1212.9639464,,1213.0145549,,,,,,,,,,,,,,,up,4.2492454000000635,None,space,0.3449299000001247,None,P136,001,2024-12-13_09h06.39.729,posner_endo_new1,2024.2.4,60.024838278080566,2024-12-13 09h06.49.012723 +0000,
0.31,0.005,9,9,0,down,5.603055999999924,None,space,0.31716210000013234,None,,,,,,,,,0,9,9,9,1213.0301868,,,,,,,,,,,,1213.0147345999999,1213.0301868,1213.0301868,1218.6418082,,,,1218.6420673,1218.6579805,1218.6579805,1218.6579805,1218.9575738,,1218.9916325,,,,,,,,,,,,,,,down,5.603055999999924,None,space,0.31716210000013234,None,P136,001,2024-12-13_09h06.39.729,posner_endo_new1,2024.2.4,60.024838278080566,2024-12-13 09h06.49.012723 +0000,
10,0.005,10,10,0,up,4.242519200000061,None,None,,,,,,,,,,,0,10,10,10,1219.0075082,,,,,,,,,,,,1218.9917988,1219.0075082,1219.0075082,1223.2539588,,,,1223.2542114999999,1223.2699359,1223.2699359,1223.2699359,1223.5694139,1224.2854863,1226.2668497,,,,,,,,,,,,,,,up,4.242519200000061,None,None,,,P136,001,2024-12-13_09h06.39.729,posner_endo_new1,2024.2.4,60.024838278080566,2024-12-13 09h06.49.012723 +0000,
0.005,0.31,11,11,0,down,2.4463453999999274,None,space,0.3382936000000427,None,,,,,,,,,0,11,11,11,1226.2834392,,,,,,,,,,,,1226.2670213,1226.2834392,1226.2834392,1228.7318324999999,,,,1228.7320883,1228.747371,1228.747371,1228.747371,1229.047487,,1229.0980612,,,,,,,,,,,,,,,down,2.4463453999999274,None,space,0.3382936000000427,None,P136,001,2024-12-13_09h06.39.729,posner_endo_new1,2024.2.4,60.024838278080566,2024-12-13 09h06.49.012723 +0000,
0.005,-0.31,12,12,0,up,5.127635299999838,None,space,0.3173701999999139,None,,,,,,,,,0,12,12,12,1229.1140265,,,,,,,,,,,,1229.0982374,1229.1140265,1229.1140265,1234.2430027,,,,1234.2432555999999,1234.2586805,1234.2586805,1234.2586805,1234.5583962,,1234.592534,,,,,,,,,,,,,,,up,5.127635299999838,None,space,0.3173701999999139,None,P136,001,2024-12-13_09h06.39.729,posner_endo_new1,2024.2.4,60.024838278080566,2024-12-13 09h06.49.012723 +0000,
0.005,0.31,13,13,0,down,4.561442500000112,None,space,0.3445851000001312,None,,,,,,,,,0,13,13,13,1234.6084386,,,,,,,,,,,,1234.5927095,1234.6084386,1234.6084386,1239.1712049999999,,,,1239.1714577999999,1239.1868726,1239.1868726,1239.1868726,1239.4866164,,1239.537482,,,,,,,,,,,,,,,down,4.561442500000112,None,space,0.3445851000001312,None,P136,001,2024-12-13_09h06.39.729,posner_endo_new1,2024.2.4,60.024838278080566,2024-12-13 09h06.49.012723 +0000,
-0.31,0.005,14,14,0,up,5.880853599999909,None,space,0.3441350999999031,None,,,,,,,,,0,14,14,14,1239.5530724999999,,,,,,,,,,,,1239.537657,1239.5530724999999,1239.5530724999999,1245.4480465,,,,1245.448298,1245.464129,1245.464129,1245.464129,1245.7634536,,1245.814411,,,,,,,,,,,,,,,up,5.880853599999909,None,space,0.3441350999999031,None,P136,001,2024-12-13_09h06.39.729,posner_endo_new1,2024.2.4,60.024838278080566,2024-12-13 09h06.49.012723 +0000,
10,0.005,15,15,0,down,5.307338999999956,None,None,,,,,,,,,,,0,15,15,15,1245.830396,,,,,,,,,,,,1245.8145872,1245.830396,1245.830396,1251.1422367,,,,1251.142496,1251.1579459,1251.1579459,1251.1579459,1251.4578624,1252.1571094,1254.1552509,,,,,,,,,,,,,,,down,5.307338999999956,None,None,,,P136,001,2024-12-13_09h06.39.729,posner_endo_new1,2024.2.4,60.024838278080566,2024-12-13 09h06.49.012723 +0000,
0.005,-0.31,16,16,0,up,2.3901918999999907,None,space,0.3899684000000434,None,,,,,,,,,0,16,16,16,1254.171671,,,,,,,,,,,,1254.1554236,1254.171671,1254.171671,1256.569929,,,,1256.5701969,1256.5859157,1256.5859157,1256.5859157,1256.8856875,,1256.9861722,,,,,,,,,,,,,,,up,2.3901918999999907,None,space,0.3899684000000434,None,P136,001,2024-12-13_09h06.39.729,posner_endo_new1,2024.2.4,60.024838278080566,2024-12-13 09h06.49.012723 +0000,
0.31,0.005,17,17,0,down,5.039634699999851,None,space,0.34887060000005476,None,,,,,,,,,0,17,17,17,1257.0020322,,,,,,,,,,,,1256.9863445,1257.0020322,1257.0020322,1262.0477579,,,,1262.0480198,1262.0634817,1262.0634817,1262.0634817,1262.3636404,,1262.4141743,,,,,,,,,,,,,,,down,5.039634699999851,None,space,0.34887060000005476,None,P136,001,2024-12-13_09h06.39.729,posner_endo_new1,2024.2.4,60.024838278080566,2024-12-13 09h06.49.012723 +0000,
-0.31,0.005,18,18,0,up,6.147961599999917,None,space,0.35597980000011376,None,,,,,,,,,0,18,18,18,1262.4298151,,,,,,,,,,,,1262.4143487,1262.4298151,1262.4298151,1268.591001,,,,1268.5912579,1268.6070275,1268.6070275,1268.6070275,1268.9064942,,1268.9740987,,,,,,,,,,,,,,,up,6.147961599999917,None,space,0.35597980000011376,None,P136,001,2024-12-13_09h06.39.729,posner_endo_new1,2024.2.4,60.024838278080566,2024-12-13 09h06.49.012723 +0000,
0.31,0.005,19,19,0,down,5.451691499999924,None,space,0.30265060000010635,None,,,,,,,,,0,19,19,19,1268.9899278,,,,,,,,,,,,1268.9742667,1268.9899278,1268.9899278,1274.4518149,,,,1274.4520683,1274.4677296,1274.4677296,1274.4677296,1274.7673286,,1274.7842592,,,,,,,,,,,,,,,down,5.451691499999924,None,space,0.30265060000010635,None,P136,001,2024-12-13_09h06.39.729,posner_endo_new1,2024.2.4,60.024838278080566,2024-12-13 09h06.49.012723 +0000,
0.31,0.005,20,20,0,up,6.12116160000005,None,space,0.3848471999999674,None,,,,,,,,,0,20,20,20,1274.8005758,,,,,,,,,,,,1274.7844266,1274.8005758,1274.8005758,1280.9284571,,,,1280.9287187,1280.9444172,1280.9444172,1280.9444172,1281.2441431,,1281.3446946,,,,,,,,,,,,,,,up,6.12116160000005,None,space,0.3848471999999674,None,P136,001,2024-12-13_09h06.39.729,posner_endo_new1,2024.2.4,60.024838278080566,2024-12-13 09h06.49.012723 +0000,
0.005,-0.31,21,21,0,down,6.865364199999931,None,space,0.31967120000012983,None,,,,,,,,,0,21,21,21,1281.3606515,,,,,,,,,,,,1281.3448638,1281.3606515,1281.3606515,1288.2377201,,,,1288.2379789,1288.253455,1288.253455,1288.253455,1288.5530058,,1288.5873368,,,,,,,,,,,,,,,down,6.865364199999931,None,space,0.31967120000012983,None,P136,001,2024-12-13_09h06.39.729,posner_endo_new1,2024.2.4,60.024838278080566,2024-12-13 09h06.49.012723 +0000,
-0.31,0.005,22,22,0,up,4.270373399999926,None,space,0.570153800000071,None,,,,,,,,,0,22,22,22,1288.6033172,,,,,,,,,,,,1288.5875055,1288.6033172,1288.6033172,1292.8830183,,,,1292.8832677,1292.8987553,1292.8987553,1292.8987553,1293.198445,,1293.482105,,,,,,,,,,,,,,,up,4.270373399999926,None,space,0.570153800000071,None,P136,001,2024-12-13_09h06.39.729,posner_endo_new1,2024.2.4,60.024838278080566,2024-12-13 09h06.49.012723 +0000,
0.005,-0.31,23,23,0,down,5.063054899999997,None,space,0.31431849999989936,None,,,,,,,,,0,23,23,23,1293.4983459,,,,,,,,,,,,1293.4822749,1293.4983459,1293.4983459,1298.5769958,,,,1298.5772521,1298.5925875,1298.5925875,1298.5925875,1298.8926342,,1298.9101457,,,,,,,,,,,,,,,down,5.063054899999997,None,space,0.31431849999989936,None,P136,001,2024-12-13_09h06.39.729,posner_endo_new1,2024.2.4,60.024838278080566,2024-12-13 09h06.49.012723 +0000,
10,0.005,24,24,0,up,5.563459499999908,None,None,,,,,,,,,,,0,24,24,24,1298.9259309,,,,,,,,,,,,1298.9103207,1298.9259309,1298.9259309,1304.5044751,,,,1304.5047246,1304.5204843,1304.5204843,1304.5204843,1304.8199959,1305.5358435,1307.5172719,,,,,,,,,,,,,,,up,5.563459499999908,None,None,,,P136,001,2024-12-13_09h06.39.729,posner_endo_new1,2024.2.4,60.024838278080566,2024-12-13 09h06.49.012723 +0000,
0.31,0.005,25,25,0,down,2.932101399999965,None,space,0.34470329999999194,None,,,,,,,,,0,25,25,25,1307.5337112,,,,,,,,,,,,1307.5174438,1307.5337112,1307.5337112,1310.4816437,,,,1310.4819032999999,1310.4974086,1310.4974086,1310.4974086,1310.7970886,,1310.8480871,,,,,,,,,,,,,,,down,2.932101399999965,None,space,0.34470329999999194,None,P136,001,2024-12-13_09h06.39.729,posner_endo_new1,2024.2.4,60.024838278080566,2024-12-13 09h06.49.012723 +0000,
0.31,0.005,26,26,0,up,4.098066500000186,None,space,0.3237911000001077,None,,,,,,,,,0,26,26,26,1310.8638076,,,,,,,,,,,,1310.848256,1310.8638076,1310.8638076,1314.9771771,,,,1314.9774372,1314.9927683,1314.9927683,1314.9927683,1315.2924272999999,,1315.3265420999999,,,,,,,,,,,,,,,up,4.098066500000186,None,space,0.3237911000001077,None,P136,001,2024-12-13_09h06.39.729,posner_endo_new1,2024.2.4,60.024838278080566,2024-12-13 09h06.49.012723 +0000,
10,0.005,27,27,0,down,4.987323300000071,None,None,,,,,,,,,,,0,27,27,27,1315.3425803,,,,,,,,,,,,1315.3267303,1315.3425803,1315.3425803,1320.3381689,,,,1320.3384233,1320.3542438,1320.3542438,1320.3542438,1320.6537035,1321.3697422999999,1323.3512483,,,,,,,,,,,,,,,down,4.987323300000071,None,None,,,P136,001,2024-12-13_09h06.39.729,posner_endo_new1,2024.2.4,60.024838278080566,2024-12-13 09h06.49.012723 +0000,
0.005,-0.31,28,28,0,up,2.921250099999952,None,space,0.3573539999999866,None,,,,,,,,,0,28,28,28,1323.3678107,,,,,,,,,,,,1323.3514257,1323.3678107,1323.3678107,1326.2988243,,,,1326.2990723,1326.3145991,1326.3145991,1326.3145991,1326.6145923,,1326.6817816,,,,,,,,,,,,,,,up,2.921250099999952,None,space,0.3573539999999866,None,P136,001,2024-12-13_09h06.39.729,posner_endo_new1,2024.2.4,60.024838278080566,2024-12-13 09h06.49.012723 +0000,
0.005,0.31,29,29,0,down,5.536153999999897,None,space,0.36906440000007024,None,,,,,,,,,0,29,29,29,1326.6976228,,,,,,,,,,,,1326.6819528,1326.6976228,1326.6976228,1332.24262,,,,1332.2428726,1332.2584848,1332.2584848,1332.2584848,1332.5581857,,1332.6423264,,,,,,,,,,,,,,,down,5.536153999999897,None,space,0.36906440000007024,None,P136,001,2024-12-13_09h06.39.729,posner_endo_new1,2024.2.4,60.024838278080566,2024-12-13 09h06.49.012723 +0000,
10,0.005,30,30,0,up,4.455817399999887,None,None,,,,,,,,,,,0,30,30,30,1332.6581698,,,,,,,,,,,,1332.6424943,1332.6581698,1332.6581698,1337.1210702,,,,1337.1213410999999,1337.1369635,1337.1369635,1337.1369635,1337.4365794999999,1338.1524664,1340.1339772,,,,,,,,,,,,,,,up,4.455817399999887,None,None,,,P136,001,2024-12-13_09h06.39.729,posner_endo_new1,2024.2.4,60.024838278080566,2024-12-13 09h06.49.012723 +0000,
0.31,0.005,31,31,0,down,4.290921499999968,None,space,0.35740899999996145,None,,,,,,,,,0,31,31,31,1340.1506767,,,,,,,,,,,,1340.1341446,1340.1506767,1340.1506767,1344.4469707,,,,1344.4472281,1344.4627687,1344.4627687,1344.4627687,1344.7626019,,1344.8300084,,,,,,,,,,,,,,,down,4.290921499999968,None,space,0.35740899999996145,None,P136,001,2024-12-13_09h06.39.729,posner_endo_new1,2024.2.4,60.024838278080566,2024-12-13 09h06.49.012723 +0000,
0.31,0.005,32,32,0,up,3.251797099999976,None,space,0.4149605000000065,None,,,,,,,,,0,32,32,32,1344.8459563,,,,,,,,,,,,1344.8301774,1344.8459563,1344.8459563,1348.1097584,,,,1348.1100109,1348.1257163,1348.1257163,1348.1257163,1348.4255524,,1348.5428927,,,,,,,,,,,,,,,up,3.251797099999976,None,space,0.4149605000000065,None,P136,001,2024-12-13_09h06.39.729,posner_endo_new1,2024.2.4,60.024838278080566,2024-12-13 09h06.49.012723 +0000,
10,0.005,33,33,0,down,5.802878499999906,None,None,,,,,,,,,,,0,33,33,33,1348.5585928,,,,,,,,,,,,1348.5430689,1348.5585928,1348.5585928,1354.3699944,,,,1354.3702501999999,1354.3859717999999,1354.3859717999999,1354.3859717999999,1354.6857156,1355.3849719,1357.3831195999999,,,,,,,,,,,,,,,down,5.802878499999906,None,None,,,P136,001,2024-12-13_09h06.39.729,posner_endo_new1,2024.2.4,60.024838278080566,2024-12-13 09h06.49.012723 +0000,
10,0.005,34,34,0,up,1.9539502999998604,None,None,,,,,,,,,,,0,34,34,34,1357.3996405,,,,,,,,,,,,1357.3832909,1357.3996405,1357.3996405,1359.3648387,,,,1359.3650944,1359.3808807,1359.3808807,1359.3808807,1359.6807806,1360.3964045999999,1362.3775668,,,,,,,,,,,,,,,up,1.9539502999998604,None,None,,,P136,001,2024-12-13_09h06.39.729,posner_endo_new1,2024.2.4,60.024838278080566,2024-12-13 09h06.49.012723 +0000,
-0.31,0.005,35,35,0,down,2.2547859999999673,None,space,0.3511622000000898,None,,,,,,,,,0,35,35,35,1362.3944092,,,,,,,,,,,,1362.3777332,1362.3944092,1362.3944092,1364.6597035,,,,1364.6599618999999,1364.6750464,1364.6750464,1364.6750464,1364.9752335,,1365.0424611,,,,,,,,,,,,,,,down,2.2547859999999673,None,space,0.3511622000000898,None,P136,001,2024-12-13_09h06.39.729,posner_endo_new1,2024.2.4,60.024838278080566,2024-12-13 09h06.49.012723 +0000,
0.005,0.31,36,36,0,up,5.206992700000001,None,space,0.38307810000014797,None,,,,,,,,,0,36,36,36,1365.0585208,,,,,,,,,,,,1365.042637,1365.0585208,1365.0585208,1370.270507,,,,1370.2707652,1370.2863034,1370.2863034,1370.2863034,1370.5861504,,1370.6702414,,,,,,,,,,,,,,,up,5.206992700000001,None,space,0.38307810000014797,None,P136,001,2024-12-13_09h06.39.729,posner_endo_new1,2024.2.4,60.024838278080566,2024-12-13 09h06.49.012723 +0000,
0.31,0.005,37,37,0,down,4.507903199999873,None,space,0.3235617000000275,None,,,,,,,,,0,37,37,37,1370.6861956,,,,,,,,,,,,1370.6704138,1370.6861956,1370.6861956,1375.1988546,,,,1375.1991043,1375.2147218,1375.2147218,1375.2147218,1375.5144754,,1375.5484559,,,,,,,,,,,,,,,down,4.507903199999873,None,space,0.3235617000000275,None,P136,001,2024-12-13_09h06.39.729,posner_endo_new1,2024.2.4,60.024838278080566,2024-12-13 09h06.49.012723 +0000,
0.005,0.31,38,38,0,up,6.2296056000000135,None,space,0.387928299999885,None,,,,,,,,,0,38,38,38,1375.5643559,,,,,,,,,,,,1375.5486304,1375.5643559,1375.5643559,1381.8088412,,,,1381.8091011,1381.824639,1381.824639,1381.824639,1382.1242182,,1382.2252013,,,,,,,,,,,,,,,up,6.2296056000000135,None,space,0.387928299999885,None,P136,001,2024-12-13_09h06.39.729,posner_endo_new1,2024.2.4,60.024838278080566,2024-12-13 09h06.49.012723 +0000,
-0.31,0.005,39,39,0,down,6.216945900000155,None,space,0.3311116999998376,None,,,,,,,,,0,39,39,39,1382.2409444,,,,,,,,,,,,1382.2253769,1382.2409444,1382.2409444,1388.4686801,,,,1388.4689306999999,1388.4845381,1388.4845381,1388.4845381,1388.7841664,,1388.8183695,,,,,,,,,,,,,,,down,6.216945900000155,None,space,0.3311116999998376,None,P136,001,2024-12-13_09h06.39.729,posner_endo_new1,2024.2.4,60.024838278080566,2024-12-13 09h06.49.012723 +0000,
-0.31,0.005,40,40,0,up,3.927473700000064,None,space,0.39214899999979025,None,,,,,,,,,0,40,40,40,1388.8342105,,,,,,,,,,,,1388.8185369999999,1388.8342105,1388.8342105,1392.7642517,,,,1392.76451,1392.7800892,1392.7800892,1392.7800892,1393.0796027,,1393.1805563,,,,,,,,,,,,,,,up,3.927473700000064,None,space,0.39214899999979025,None,P136,001,2024-12-13_09h06.39.729,posner_endo_new1,2024.2.4,60.024838278080566,2024-12-13 09h06.49.012723 +0000,
0.005,0.31,41,41,0,down,4.901778400000012,None,space,0.31756530000006933,None,,,,,,,,,0,41,41,41,1393.1962182,,,,,,,,,,,,1393.180733,1393.1962182,1393.1962182,1398.1087272,,,,1398.1089776,1398.1246507,1398.1246507,1398.1246507,1398.4243344,,1398.4583084,,,,,,,,,,,,,,,down,4.901778400000012,None,space,0.31756530000006933,None,P136,001,2024-12-13_09h06.39.729,posner_endo_new1,2024.2.4,60.024838278080566,2024-12-13 09h06.49.012723 +0000,
-0.31,0.005,42,42,0,up,5.215891499999998,None,space,0.3557078999999703,None,,,,,,,,,0,42,42,42,1398.4743564,,,,,,,,,,,,1398.4584757,1398.4743564,1398.4743564,1403.7031098,,,,1403.70336,1403.7190601,1403.7190601,1403.7190601,1404.0186732,,1404.0860771,,,,,,,,,,,,,,,up,5.215891499999998,None,space,0.3557078999999703,None,P136,001,2024-12-13_09h06.39.729,posner_endo_new1,2024.2.4,60.024838278080566,2024-12-13 09h06.49.012723 +0000,
0.005,0.31,43,43,0,down,5.588200400000005,None,space,0.379960500000152,None,,,,,,,,,0,43,43,43,1404.1016771,,,,,,,,,,,,1404.0862583,1404.1016771,1404.1016771,1409.6968777,,,,1409.6971357,1409.7128557,1409.7128557,1409.7128557,1410.0126381,,1410.0964681,,,,,,,,,,,,,,,down,5.588200400000005,None,space,0.379960500000152,None,P136,001,2024-12-13_09h06.39.729,posner_endo_new1,2024.2.4,60.024838278080566,2024-12-13 09h06.49.012723 +0000,
0.005,0.31,44,44,0,up,4.097828799999888,None,space,0.34957980000012867,None,,,,,,,,,0,44,44,44,1410.1123284,,,,,,,,,,,,1410.0966286999999,1410.1123284,1410.1123284,1414.2256404,,,,1414.2259069,1414.241548,1414.241548,1414.241548,1414.5412056,,1414.5922252999999,,,,,,,,,,,,,,,up,4.097828799999888,None,space,0.34957980000012867,None,P136,001,2024-12-13_09h06.39.729,posner_endo_new1,2024.2.4,60.024838278080566,2024-12-13 09h06.49.012723 +0000,
-0.31,0.005,45,45,0,down,5.793938799999978,None,space,0.30156160000001364,None,,,,,,,,,0,45,45,45,1414.6077825,,,,,,,,,,,,1414.5923912,1414.6077825,1414.6077825,1420.4029672,,,,1420.4032242,1420.4187274,1420.4187274,1420.4187274,1420.7182564,,1420.7357078,,,,,,,,,,,,,,,down,5.793938799999978,None,space,0.30156160000001364,None,P136,001,2024-12-13_09h06.39.729,posner_endo_new1,2024.2.4,60.024838278080566,2024-12-13 09h06.49.012723 +0000,
0.005,0.31,46,46,0,up,4.138440000000173,None,space,0.3296133000001191,None,,,,,,,,,0,46,46,46,1420.7515372,,,,,,,,,,,,1420.7358761,1420.7515372,1420.7515372,1424.8980296,,,,1424.8982783,1424.914036,1424.914036,1424.914036,1425.2137039,,1425.2480022,,,,,,,,,,,,,,,up,4.138440000000173,None,space,0.3296133000001191,None,P136,001,2024-12-13_09h06.39.729,posner_endo_new1,2024.2.4,60.024838278080566,2024-12-13 09h06.49.012723 +0000,
0.31,0.005,47,47,0,down,4.842797799999971,None,space,0.3059089999999287,None,,,,,,,,,0,47,47,47,1425.2636151,,,,,,,,,,,,1425.2481667,1425.2636151,1425.2636151,1430.1106884,,,,1430.1113152,1430.1252505,1430.1252505,1430.1252505,1430.4249121,,1430.4437182,,,,,,,,,,,,,,,down,4.842797799999971,None,space,0.3059089999999287,None,P136,001,2024-12-13_09h06.39.729,posner_endo_new1,2024.2.4,60.024838278080566,2024-12-13 09h06.49.012723 +0000,
0.31,0.005,48,48,0,up,4.191315000000031,None,space,0.3129506999998739,None,,,,,,,,,0,48,48,48,1430.4582188,,,,,,,,,,,,1430.4441732,1430.4582188,1430.4582188,1434.655479,,,,1434.6558780999999,1434.6706923,1434.6706923,1434.6706923,1434.9704474,,1434.9882699,,,,,,,,,,,,,,,up,4.191315000000031,None,space,0.3129506999998739,None,P136,001,2024-12-13_09h06.39.729,posner_endo_new1,2024.2.4,60.024838278080566,2024-12-13 09h06.49.012723 +0000,
0.31,0.005,49,49,0,down,4.590542300000152,None,space,0.32265140000004067,None,,,,,,,,,0,49,49,49,1435.0036536,,,,,,,,,,,,1434.9885471,1435.0036536,1435.0036536,1439.6003947,,,,1439.6007881,1439.6155816,1439.6155816,1439.6155816,1439.9152953,,1439.9498581999999,,,,,,,,,,,,,,,down,4.590542300000152,None,space,0.32265140000004067,None,P136,001,2024-12-13_09h06.39.729,posner_endo_new1,2024.2.4,60.024838278080566,2024-12-13 09h06.49.012723 +0000,
0.005,-0.31,50,50,0,up,6.437127799999871,None,space,0.3121756999998979,None,,,,,,,,,0,50,50,50,1439.9652260999999,,,,,,,,,,,,1439.9501378,1439.9652260999999,1439.9652260999999,1446.4099354,,,,1446.4103299,1446.4252596,1446.4252596,1446.4252596,1446.7251636,,1446.7430001,,,,,,,,,,,,,,,up,6.437127799999871,None,space,0.3121756999998979,None,P136,001,2024-12-13_09h06.39.729,posner_endo_new1,2024.2.4,60.024838278080566,2024-12-13 09h06.49.012723 +0000,
10,0.005,51,51,0,down,5.395494000000099,None,None,,,,,,,,,,,0,51,51,51,1446.7582481,,,,,,,,,,,,1446.7432747999999,1446.7582481,1446.7582481,1452.1707547,,,,1452.171144,1452.1861351,1452.1861351,1452.1861351,1452.4857521,1453.2017609,1455.18314,,,,,,,,,,,,,,,down,5.395494000000099,None,None,,,P136,001,2024-12-13_09h06.39.729,posner_endo_new1,2024.2.4,60.024838278080566,2024-12-13 09h06.49.012723 +0000,
0.31,0.005,52,52,0,up,2.16178960000002,None,space,0.38194270000008146,None,,,,,,,,,0,52,52,52,1455.1996609999999,,,,,,,,,,,,1455.1834238,1455.1996609999999,1455.1996609999999,1457.3654363,,,,1457.3658298,1457.3807494,1457.3807494,1457.3807494,1457.6805079,,1457.7652684,,,,,,,,,,,,,,,up,2.16178960000002,None,space,0.38194270000008146,None,P136,001,2024-12-13_09h06.39.729,posner_endo_new1,2024.2.4,60.024838278080566,2024-12-13 09h06.49.012723 +0000,
-0.31,0.005,53,53,0,down,6.877453199999991,None,space,0.43686159999992924,None,,,,,,,,,0,53,53,53,1457.7802887999999,,,,,,,,,,,,1457.7655522,1457.7802887999999,1457.7802887999999,1464.6745666,,,,1464.6749546,1464.6900658,1464.6900658,1464.6900658,1464.9895684,,1465.1408044,,,,,,,,,,,,,,,down,6.877453199999991,None,space,0.43686159999992924,None,P136,001,2024-12-13_09h06.39.729,posner_endo_new1,2024.2.4,60.024838278080566,2024-12-13 09h06.49.012723 +0000,
0.005,0.31,54,54,0,up,4.397871499999837,None,space,0.3739308000001529,None,,,,,,,,,0,54,54,54,1465.1562269,,,,,,,,,,,,1465.1410882,1465.1562269,1465.1562269,1469.5694806,,,,1469.5698719,1469.584996,1469.584996,1469.584996,1469.8847231,,1469.9693128,,,,,,,,,,,,,,,up,4.397871499999837,None,space,0.3739308000001529,None,P136,001,2024-12-13_09h06.39.729,posner_endo_new1,2024.2.4,60.024838278080566,2024-12-13 09h06.49.012723 +0000,
-0.31,0.005,55,55,0,down,4.4973529000001236,None,space,0.5487607000000025,None,,,,,,,,,0,55,55,55,1469.984715,,,,,,,,,,,,1469.9695927999999,1469.984715,1469.984715,1474.4980259,,,,1474.4984209,1474.5133731,1474.5133731,1474.5133731,1474.8131026,,1475.0642177,,,,,,,,,,,,,,,down,4.4973529000001236,None,space,0.5487607000000025,None,P136,001,2024-12-13_09h06.39.729,posner_endo_new1,2024.2.4,60.024838278080566,2024-12-13 09h06.49.012723 +0000,
0.005,0.31,56,56,0,up,4.914772900000116,None,space,0.3223236999999699,None,,,,,,,,,0,56,56,56,1475.0793542,,,,,,,,,,,,1475.0644938,1475.0793542,1475.0793542,1480.0090268,,,,1480.0094238,1480.0244095,1480.0244095,1480.0244095,1480.3241831,,1480.3585102,,,,,,,,,,,,,,,up,4.914772900000116,None,space,0.3223236999999699,None,P136,001,2024-12-13_09h06.39.729,posner_endo_new1,2024.2.4,60.024838278080566,2024-12-13 09h06.49.012723 +0000,
0.31,0.005,57,57,0,down,5.043724999999995,None,space,0.27404500000011467,None,,,,,,,,,0,57,57,57,1480.3740154,,,,,,,,,,,,1480.3587898,1480.3740154,1480.3740154,1485.4204255,,,,1485.4208254,1485.4356208,1485.4356208,1485.4356208,1485.7352271,,1485.7198063,,,,,,,,,,,,,,,down,5.043724999999995,None,space,0.27404500000011467,None,P136,001,2024-12-13_09h06.39.729,posner_endo_new1,2024.2.4,60.024838278080566,2024-12-13 09h06.49.012723 +0000,
10,0.005,58,58,0,up,5.619076199999881,None,None,,,,,,,,,,,0,58,58,58,1485.7352271,,,,,,,,,,,,1485.7200833,1485.7352271,1485.7352271,1491.3639086,,,,1491.3643141,1491.3793493,1491.3793493,1491.3793493,1491.6791289,1492.3784267,1494.3765946,,,,,,,,,,,,,,,up,5.619076199999881,None,None,,,P136,001,2024-12-13_09h06.39.729,posner_endo_new1,2024.2.4,60.024838278080566,2024-12-13 09h06.49.012723 +0000,
10,0.005,59,59,0,down,2.5775821000001997,None,None,,,,,,,,,,,0,59,59,59,1494.3929403,,,,,,,,,,,,1494.376858,1494.3929403,1494.3929403,1496.9750823,,,,1496.9754806,1496.9903401,1496.9903401,1496.9903401,1497.2898612,1497.9894568,1499.9875747,,,,,,,,,,,,,,,down,2.5775821000001997,None,None,,,P136,001,2024-12-13_09h06.39.729,posner_endo_new1,2024.2.4,60.024838278080566,2024-12-13 09h06.49.012723 +0000,
