target_y,target_x,thisN,thisTrialN,thisRepN,key_control2.keys,key_control2.rt,key_control2.duration,key_resp.keys,key_resp.rt,key_resp.duration,practice.thisRepN,practice.thisTrialN,practice.thisN,practice.thisIndex,session_1.thisRepN,session_1.thisTrialN,session_1.thisN,session_1.thisIndex,session_2.thisRepN,session_2.thisTrialN,session_2.thisN,session_2.thisIndex,thisRow.t,notes,instructions.started,instructions_txt.started,key_control.started,instructions.stopped,key_control.keys,key_control.rt,key_control.duration,ready.started,ready_txt.started,ready.stopped,fix.started,key_control2.started,fixation_cross.started,fix.stopped,practice.key_control2.keys,practice.key_control2.rt,practice.key_control2.duration,target.started,star.started,fixation_cross_target.started,key_resp.started,star.stopped,target.stopped,practice.key_resp.keys,practice.key_resp.rt,practice.key_resp.duration,key_resp.stopped,session_1.key_control2.keys,session_1.key_control2.rt,session_1.key_control2.duration,session_1.key_resp.keys,session_1.key_resp.rt,session_1.key_resp.duration,break_2.started,text.started,key_control3.started,break_2.stopped,key_control3.keys,key_control3.rt,key_control3.duration,session_2.key_control2.keys,session_2.key_control2.rt,session_2.key_control2.duration,session_2.key_resp.keys,session_2.key_resp.rt,session_2.key_resp.duration,participant,session,date,expName,psychopyVersion,frameRate,expStart,
,,,,,,,,,,,,,,,,,,,,,,,,,0.007389800000964897,0.01954170000135491,0.01954170000135491,2442.927758400001,up,2442.9019709000004,None,,,,,,,,,,,,,,,,,,,,,,,,,,,,,,,,,,,,,,,,P137,001,2024-12-13_12h53.49.438,posner_endo_new1,2024.2.4,60.036225858453655,2024-12-13 12h54.14.628114 +0000,
,,,,,,,,,,,,,,,,,,,,,,,,,,,,,,,,2442.927802,2442.9408875999998,2445.937854900001,,,,,,,,,,,,,,,,,,,,,,,,,,,,,,,,,,,,,P137,001,2024-12-13_12h53.49.438,posner_endo_new1,2024.2.4,60.036225858453655,2024-12-13 12h54.14.628114 +0000,
0.005,0.31,0,0,0,up,9.062468799998896,None,space,0.5827731000008498,None,0,0,0,8,,,,,,,,,2445.9557566000003,,,,,,,,,,,,2445.9446869000003,2445.9557566000003,2445.9557566000003,2455.029471,up,9.062468799998896,None,2455.0297316000015,2455.0453932,2455.0453932,2455.0453932,2455.3450170000015,2455.628890600001,space,0.5827731000008498,None,,,,,,,,,,,,,,,,,,,,,P137,001,2024-12-13_12h53.49.438,posner_endo_new1,2024.2.4,60.036225858453655,2024-12-13 12h54.14.628114 +0000,
-0.31,0.005,1,1,0,down,4.429770099999587,None,space,0.5810438999997132,None,0,1,1,2,,,,,,,,,2455.6446601000007,,,,,,,,,,,,2455.6290439000004,2455.6446601000007,2455.6446601000007,2460.0907083,down,4.429770099999587,None,2460.090951,2460.106771500001,2460.106771500001,2460.106771500001,2460.4065666000006,2460.6901227,space,0.5810438999997132,None,,,,,,,,,,,,,,,,,,,,,P137,001,2024-12-13_12h53.49.438,posner_endo_new1,2024.2.4,60.036225858453655,2024-12-13 12h54.14.628114 +0000,
0.31,0.005,2,2,0,up,3.3521588999992673,None,space,0.6714233000002423,None,0,2,2,1,,,,,,,,,2460.7063002000014,,,,,,,,,,,,2460.690282200001,2460.7063002000014,2460.7063002000014,2464.070394800001,up,3.3521588999992673,None,2464.0706597000008,2464.0860951000013,2464.0860951000013,2464.0860951000013,2464.385704100001,2464.769586100001,space,0.6714233000002423,None,,,,,,,,,,,,,,,,,,,,,P137,001,2024-12-13_12h53.49.438,posner_endo_new1,2024.2.4,60.036225858453655,2024-12-13 12h54.14.628114 +0000,
0.005,-0.31,3,3,0,down,3.5284329999994952,None,space,0.63831349999964,None,0,3,3,5,,,,,,,,,2464.785321200001,,,,,,,,,,,,2464.7697377000004,2464.785321200001,2464.785321200001,2468.315854100001,down,3.5284329999994952,None,2468.3161052000014,2468.3317711,2468.3317711,2468.3317711,2468.631464600001,2468.9818195000007,space,0.63831349999964,None,,,,,,,,,,,,,,,,,,,,,P137,001,2024-12-13_12h53.49.438,posner_endo_new1,2024.2.4,60.036225858453655,2024-12-13 12h54.14.628114 +0000,
0.31,0.005,4,4,0,up,1.8764141000010568,None,space,0.5554946000011114,None,0,4,4,3,,,,,,,,,2468.9977678000014,,,,,,,,,,,,2468.9819726000005,2468.9977678000014,2468.9977678000014,2470.8798505000013,up,1.8764141000010568,None,2470.8801028,2470.8957546,2470.8957546,2470.8957546,2471.1954647000002,2471.4625386000007,space,0.5554946000011114,None,,,,,,,,,,,,,,,,,,,,,P137,001,2024-12-13_12h53.49.438,posner_endo_new1,2024.2.4,60.036225858453655,2024-12-13 12h54.14.628114 +0000,
0.005,-0.31,5,5,0,down,3.739807500000097,None,space,0.558772799999133,None,0,5,5,7,,,,,,,,,2471.4785060000013,,,,,,,,,,,,2471.4626958999997,2471.4785060000013,2471.4785060000013,2475.225519900001,down,3.739807500000097,None,2475.2257838000005,2475.2413263,2475.2413263,2475.2413263,2475.5409342000003,2475.8083008000012,space,0.558772799999133,None,,,,,,,,,,,,,,,,,,,,,P137,001,2024-12-13_12h53.49.438,posner_endo_new1,2024.2.4,60.036225858453655,2024-12-13 12h54.14.628114 +0000,
-0.31,0.005,6,6,0,up,2.24277660000007,None,space,0.5276515999994444,None,0,6,6,0,,,,,,,,,2475.824078200001,,,,,,,,,,,,2475.8084504,2475.824078200001,2475.824078200001,2478.0725678,up,2.24277660000007,None,2478.072820900001,2478.0883176000007,2478.0883176000007,2478.0883176000007,2478.387969900001,2478.622138300001,space,0.5276515999994444,None,,,,,,,,,,,,,,,,,,,,,P137,001,2024-12-13_12h53.49.438,posner_endo_new1,2024.2.4,60.036225858453655,2024-12-13 12h54.14.628114 +0000,
0.005,0.31,7,7,0,down,3.5722225999998045,None,None,,,0,7,7,6,,,,,,,,,2478.6379251,,,,,,,,,,,,2478.6222952999997,2478.6379251,2478.6379251,2482.2182730000004,down,3.5722225999998045,None,2482.2185267000004,2482.234283,2482.234283,2482.234283,2482.5337991000015,2485.2312659,None,,,2483.249794200001,,,,,,,,,,,,,,,,,,,,P137,001,2024-12-13_12h53.49.438,posner_endo_new1,2024.2.4,60.036225858453655,2024-12-13 12h54.14.628114 +0000,
0.005,10,8,8,0,down,3.018708700001298,None,None,,,0,8,8,9,,,,,,,,,2485.2477107000013,,,,,,,,,,,,2485.2314186000003,2485.2477107000013,2485.2477107000013,2488.2789027,down,3.018708700001298,None,2488.279147200001,2488.294679300001,2488.294679300001,2488.294679300001,2488.5942868,2491.2917125000004,None,,,2489.3104026,,,,,,,,,,,,,,,,,,,,P137,001,2024-12-13_12h53.49.438,posner_endo_new1,2024.2.4,60.036225858453655,2024-12-13 12h54.14.628114 +0000,
10,0.005,9,9,0,up,1.0459823000001052,None,None,,,0,9,9,4,,,,,,,,,2491.3083826,,,,,,,,,,,,2491.291879300001,2491.3083826,2491.3083826,2492.357913400001,up,1.0459823000001052,None,2492.3581645000013,2492.3738614000013,2492.3738614000013,2492.3738614000013,2492.6736932000003,2495.371049700001,None,,,2493.3728451000006,,,,,,,,,,,,,,,,,,,,P137,001,2024-12-13_12h53.49.438,posner_endo_new1,2024.2.4,60.036225858453655,2024-12-13 12h54.14.628114 +0000,
,,,,,,,,,,,,,,,,,,,,,,,,,,,,,,,,2495.3711491000013,2495.387394200001,2498.367763100001,,,,,,,,,,,,,,,,,,,,,,,,,,,,,,,,,,,,,P137,001,2024-12-13_12h53.49.438,posner_endo_new1,2024.2.4,60.036225858453655,2024-12-13 12h54.14.628114 +0000,
-0.31,0.005,0,0,0,up,12.095873399999618,None,space,0.40934659999948053,None,,,,,0,0,0,0,,,,,2498.3865967,,,,,,,,,,,,2498.3760079000003,2498.3865967,2498.3865967,2510.4893491000003,,,,2510.4896175000013,2510.505362400001,2510.505362400001,2510.505362400001,2510.805240200001,2510.922241,,,,,up,12.095873399999618,None,space,0.40934659999948053,None,,,,,,,,,,,,,,P137,001,2024-12-13_12h53.49.438,posner_endo_new1,2024.2.4,60.036225858453655,2024-12-13 12h54.14.628114 +0000,
0.005,-0.31,1,1,0,down,4.22453250000035,None,space,0.5522789000006014,None,,,,,0,1,1,1,,,,,2510.9380372000014,,,,,,,,,,,,2510.922405200001,2510.9380372000014,2510.9380372000014,2515.1679907,,,,2515.168238100001,2515.1838856000013,2515.1838856000013,2515.1838856000013,2515.4835061000013,2515.750672600001,,,,,down,4.22453250000035,None,space,0.5522789000006014,None,,,,,,,,,,,,,,P137,001,2024-12-13_12h53.49.438,posner_endo_new1,2024.2.4,60.036225858453655,2024-12-13 12h54.14.628114 +0000,
10,0.005,2,2,0,up,2.834855700000844,None,None,,,,,,,0,2,2,2,,,,,2515.766704400001,,,,,,,,,,,,2515.750836200001,2515.766704400001,2515.766704400001,2518.6143568000007,,,,2518.6146195,2518.6304062,2518.6304062,2518.6304062,2518.929988400001,2521.6273790000014,,,,2519.6461364000006,up,2.834855700000844,None,None,,,,,,,,,,,,,,,,P137,001,2024-12-13_12h53.49.438,posner_endo_new1,2024.2.4,60.036225858453655,2024-12-13 12h54.14.628114 +0000,
0.005,-0.31,3,3,0,down,0.7502847000014299,None,space,0.4708630999994057,None,,,,,0,3,3,3,,,,,2521.6439981000003,,,,,,,,,,,,2521.627548800001,2521.6439981000003,2521.6439981000003,2522.4105146,,,,2522.4107728,2522.4265066000007,2522.4265066000007,2522.4265066000007,2522.7261196,2522.9100208,,,,,down,0.7502847000014299,None,space,0.4708630999994057,None,,,,,,,,,,,,,,P137,001,2024-12-13_12h53.49.438,posner_endo_new1,2024.2.4,60.036225858453655,2024-12-13 12h54.14.628114 +0000,
0.005,-0.31,4,4,0,up,1.9556243000006361,None,space,0.4518336000001,None,,,,,0,4,4,4,,,,,2522.9259265,,,,,,,,,,,,2522.910187200001,2522.9259265,2522.9259265,2524.8913422000005,,,,2524.8916049,2524.9072357000005,2524.9072357000005,2524.9072357000005,2525.2068915,2525.374289200001,,,,,up,1.9556243000006361,None,space,0.4518336000001,None,,,,,,,,,,,,,,P137,001,2024-12-13_12h53.49.438,posner_endo_new1,2024.2.4,60.036225858453655,2024-12-13 12h54.14.628114 +0000,
0.005,-0.31,5,5,0,down,3.795937500000946,None,space,0.9228151000006619,None,,,,,0,5,5,5,,,,,2525.390072100001,,,,,,,,,,,,2525.3744653000012,2525.390072100001,2525.390072100001,2529.1872181,,,,2529.187474600001,2529.2028496000003,2529.2028496000003,2529.2028496000003,2529.5025000000005,2530.1360331000014,,,,,down,3.795937500000946,None,space,0.9228151000006619,None,,,,,,,,,,,,,,P137,001,2024-12-13_12h53.49.438,posner_endo_new1,2024.2.4,60.036225858453655,2024-12-13 12h54.14.628114 +0000,
0.005,0.31,6,6,0,up,1.3700857000003452,None,space,0.45502180000039516,None,,,,,0,6,6,6,,,,,2530.1518539999997,,,,,,,,,,,,2530.1361988999997,2530.1518539999997,2530.1518539999997,2531.534568000001,,,,2531.534832700001,2531.550696800001,2531.550696800001,2531.550696800001,2531.8500556,2532.017388600001,,,,,up,1.3700857000003452,None,space,0.45502180000039516,None,,,,,,,,,,,,,,P137,001,2024-12-13_12h53.49.438,posner_endo_new1,2024.2.4,60.036225858453655,2024-12-13 12h54.14.628114 +0000,
0.005,0.31,7,7,0,down,3.5285641999998916,None,space,0.7892155999998067,None,,,,,0,7,7,7,,,,,2532.0332555000005,,,,,,,,,,,,2532.0175560000007,2532.0332555000005,2532.0332555000005,2535.564051200001,,,,2535.564318300001,2535.579783700001,2535.579783700001,2535.579783700001,2535.8794124000015,2536.3796784000006,,,,,down,3.5285641999998916,None,space,0.7892155999998067,None,,,,,,,,,,,,,,P137,001,2024-12-13_12h53.49.438,posner_endo_new1,2024.2.4,60.036225858453655,2024-12-13 12h54.14.628114 +0000,
-0.31,0.005,8,8,0,up,1.742445800000496,None,space,0.5050478000011935,None,,,,,0,8,8,8,,,,,2536.3956055,,,,,,,,,,,,2536.379834900001,2536.3956055,2536.3956055,2538.144509900001,,,,2538.1447676000007,2538.1604826000003,2538.1604826000003,2538.1604826000003,2538.4600431,2538.6772136,,,,,up,1.742445800000496,None,space,0.5050478000011935,None,,,,,,,,,,,,,,P137,001,2024-12-13_12h53.49.438,posner_endo_new1,2024.2.4,60.036225858453655,2024-12-13 12h54.14.628114 +0000,
-0.31,0.005,9,9,0,down,3.868483300000662,None,space,0.5046118999998725,None,,,,,0,9,9,9,,,,,2538.693128500001,,,,,,,,,,,,2538.677380000001,2538.693128500001,2538.693128500001,2542.5731633000014,,,,2542.573422200001,2542.589275600001,2542.589275600001,2542.589275600001,2542.8890330000013,2543.1061185,,,,,down,3.868483300000662,None,space,0.5046118999998725,None,,,,,,,,,,,,,,P137,001,2024-12-13_12h53.49.438,posner_endo_new1,2024.2.4,60.036225858453655,2024-12-13 12h54.14.628114 +0000,
-0.31,0.005,10,10,0,up,2.6161709999996674,None,space,0.38170780000109517,None,,,,,0,10,10,10,,,,,2543.1219086,,,,,,,,,,,,2543.1062831,2543.1219086,2543.1219086,2545.7531642000013,,,,2545.753439,2545.769601600001,2545.769601600001,2545.769601600001,2546.0689707,2546.1531520999997,,,,,up,2.6161709999996674,None,space,0.38170780000109517,None,,,,,,,,,,,,,,P137,001,2024-12-13_12h53.49.438,posner_endo_new1,2024.2.4,60.036225858453655,2024-12-13 12h54.14.628114 +0000,
-0.31,0.005,11,11,0,down,3.8576540000012756,None,None,,,,,,,0,11,11,11,,,,,2546.1688626000014,,,,,,,,,,,,2546.153319700001,2546.1688626000014,2546.1688626000014,2550.0321910000002,,,,2550.0324526000004,2550.0483184000004,2550.0483184000004,2550.0483184000004,2550.3478839,2553.0452165000006,,,,2551.0639714999998,down,3.8576540000012756,None,None,,,,,,,,,,,,,,,,P137,001,2024-12-13_12h53.49.438,posner_endo_new1,2024.2.4,60.036225858453655,2024-12-13 12h54.14.628114 +0000,
0.005,-0.31,12,12,0,down,2.852068500000314,None,space,0.5550801000008505,None,,,,,0,12,12,12,,,,,2553.0618356000014,,,,,,,,,,,,2553.045377800001,2553.0618356000014,2553.0618356000014,2555.9263572,,,,2555.9266128,2555.942230800001,2555.942230800001,2555.942230800001,2556.241754800001,2556.5091470000007,,,,,down,2.852068500000314,None,space,0.5550801000008505,None,,,,,,,,,,,,,,P137,001,2024-12-13_12h53.49.438,posner_endo_new1,2024.2.4,60.036225858453655,2024-12-13 12h54.14.628114 +0000,
0.005,-0.31,13,13,0,up,3.2693832000004477,None,space,0.4958451000002242,None,,,,,0,13,13,13,,,,,2556.5249726,,,,,,,,,,,,2556.509320000001,2556.5249726,2556.5249726,2559.805858900001,,,,2559.8061227,2559.821690500001,2559.821690500001,2559.821690500001,2560.1214470000014,2560.3220432,,,,,up,3.2693832000004477,None,space,0.4958451000002242,None,,,,,,,,,,,,,,P137,001,2024-12-13_12h53.49.438,posner_endo_new1,2024.2.4,60.036225858453655,2024-12-13 12h54.14.628114 +0000,
-0.31,0.005,14,14,0,down,4.457340799999656,None,space,0.4611521000006178,None,,,,,0,14,14,14,,,,,2560.337544,,,,,,,,,,,,2560.3222179000004,2560.337544,2560.337544,2564.8005951000014,,,,2564.8008573000006,2564.8165998000004,2564.8165998000004,2564.8165998000004,2565.1162131,2565.2835574,,,,,down,4.457340799999656,None,space,0.4611521000006178,None,,,,,,,,,,,,,,P137,001,2024-12-13_12h53.49.438,posner_endo_new1,2024.2.4,60.036225858453655,2024-12-13 12h54.14.628114 +0000,
10,0.005,15,15,0,up,2.847324899999876,None,None,,,,,,,0,15,15,15,,,,,2565.299286900001,,,,,,,,,,,,2565.2837142999997,2565.299286900001,2565.299286900001,2568.1473626000006,,,,2568.1476206000007,2568.163014400001,2568.163014400001,2568.163014400001,2568.4626929000005,2571.1602375,,,,2569.162151300001,up,2.847324899999876,None,None,,,,,,,,,,,,,,,,P137,001,2024-12-13_12h53.49.438,posner_endo_new1,2024.2.4,60.036225858453655,2024-12-13 12h54.14.628114 +0000,
0.005,0.31,16,16,0,down,0.9698750999996264,None,space,0.36322870000003604,None,,,,,0,16,16,16,,,,,2571.176706800001,,,,,,,,,,,,2571.1604011,2571.176706800001,2571.176706800001,2572.159650400001,,,,2572.1599024000006,2572.1757407000005,2572.1757407000005,2572.1757407000005,2572.4753086,2572.5428322000007,,,,,down,0.9698750999996264,None,space,0.36322870000003604,None,,,,,,,,,,,,,,P137,001,2024-12-13_12h53.49.438,posner_endo_new1,2024.2.4,60.036225858453655,2024-12-13 12h54.14.628114 +0000,
0.005,-0.31,17,17,0,up,2.9074953999988793,None,space,0.35469149999880756,None,,,,,0,17,17,17,,,,,2572.5585477000004,,,,,,,,,,,,2572.5430066999998,2572.5585477000004,2572.5585477000004,2575.4728950999997,,,,2575.4731556000006,2575.488963400001,2575.488963400001,2575.488963400001,2575.7886975,2575.8558938000006,,,,,up,2.9074953999988793,None,space,0.35469149999880756,None,,,,,,,,,,,,,,P137,001,2024-12-13_12h53.49.438,posner_endo_new1,2024.2.4,60.036225858453655,2024-12-13 12h54.14.628114 +0000,
10,0.005,18,18,0,down,3.489863899998454,None,None,,,,,,,0,18,18,18,,,,,2575.871914700001,,,,,,,,,,,,2575.8560577999997,2575.871914700001,2575.871914700001,2579.3688982000003,,,,2579.3691538000003,2579.3848702000014,2579.3848702000014,2579.3848702000014,2579.6846523000004,2582.3820990000004,,,,2580.3839708000014,down,3.489863899998454,None,None,,,,,,,,,,,,,,,,P137,001,2024-12-13_12h53.49.438,posner_endo_new1,2024.2.4,60.036225858453655,2024-12-13 12h54.14.628114 +0000,
10,0.005,19,19,0,up,0.11628919999930076,None,None,,,,,,,0,19,19,19,,,,,2582.398443,,,,,,,,,,,,2582.382257200001,2582.398443,2582.398443,2582.515818,,,,2582.5160717,2582.5317938000007,2582.5317938000007,2582.5317938000007,2582.8313043,2585.5288660000006,,,,2583.530805100001,up,0.11628919999930076,None,None,,,,,,,,,,,,,,,,P137,001,2024-12-13_12h53.49.438,posner_endo_new1,2024.2.4,60.036225858453655,2024-12-13 12h54.14.628114 +0000,
0.005,0.31,20,20,0,down,2.12045389999912,None,space,0.46017679999931715,None,,,,,0,20,20,20,,,,,2585.5452384,,,,,,,,,,,,2585.5290253000003,2585.5452384,2585.5452384,2587.677214000001,,,,2587.6774688000005,2587.6930997,2587.6930997,2587.6930997,2587.9927855000005,2588.160082800001,,,,,down,2.12045389999912,None,space,0.46017679999931715,None,,,,,,,,,,,,,,P137,001,2024-12-13_12h53.49.438,posner_endo_new1,2024.2.4,60.036225858453655,2024-12-13 12h54.14.628114 +0000,
0.005,-0.31,21,21,0,up,2.7385871000005864,None,space,0.4007168999996793,None,,,,,0,21,21,21,,,,,2588.176057800001,,,,,,,,,,,,2588.1602605000007,2588.176057800001,2588.176057800001,2590.9238664000004,,,,2590.9241315,2590.9398863000006,2590.9398863000006,2590.9398863000006,2591.2395879000014,2591.356793500001,,,,,up,2.7385871000005864,None,space,0.4007168999996793,None,,,,,,,,,,,,,,P137,001,2024-12-13_12h53.49.438,posner_endo_new1,2024.2.4,60.036225858453655,2024-12-13 12h54.14.628114 +0000,
0.005,-0.31,22,22,0,down,3.7175537000002805,None,space,0.7952712000005704,None,,,,,0,22,22,22,,,,,2591.3726739000012,,,,,,,,,,,,2591.3569597000005,2591.3726739000012,2591.3726739000012,2595.1031945000013,,,,2595.103460600001,2595.118850300001,2595.118850300001,2595.118850300001,2595.4185897000007,2595.9188209000004,,,,,down,3.7175537000002805,None,space,0.7952712000005704,None,,,,,,,,,,,,,,P137,001,2024-12-13_12h53.49.438,posner_endo_new1,2024.2.4,60.036225858453655,2024-12-13 12h54.14.628114 +0000,
10,0.005,23,23,0,up,1.7958154999996623,None,None,,,,,,,0,23,23,23,,,,,2595.934620600001,,,,,,,,,,,,2595.9189928000014,2595.934620600001,2595.934620600001,2597.733803500001,,,,2597.7340628,2597.7495659000015,2597.7495659000015,2597.7495659000015,2598.0492933000005,2600.7467545,,,,2598.765092200001,up,1.7958154999996623,None,None,,,,,,,,,,,,,,,,P137,001,2024-12-13_12h53.49.438,posner_endo_new1,2024.2.4,60.036225858453655,2024-12-13 12h54.14.628114 +0000,
10,0.005,24,24,0,down,2.230696700000408,None,None,,,,,,,0,24,24,24,,,,,2600.763322300001,,,,,,,,,,,,2600.7469163000005,2600.763322300001,2600.763322300001,2602.994844500001,,,,2602.9951057,2603.010906200001,2603.010906200001,2603.010906200001,2603.3106224000003,2606.007695100001,,,,2604.026331000001,down,2.230696700000408,None,None,,,,,,,,,,,,,,,,P137,001,2024-12-13_12h53.49.438,posner_endo_new1,2024.2.4,60.036225858453655,2024-12-13 12h54.14.628114 +0000,
0.005,0.31,25,25,0,up,0.5621682000000874,None,space,0.37035909999940486,None,,,,,0,25,25,25,,,,,2606.0244975000005,,,,,,,,,,,,2606.007853700001,2606.0244975000005,2606.0244975000005,2606.5914508000005,,,,2606.5917138000004,2606.6071494000007,2606.6071494000007,2606.6071494000007,2606.9068625,2606.9910468,,,,,up,0.5621682000000874,None,space,0.37035909999940486,None,,,,,,,,,,,,,,P137,001,2024-12-13_12h53.49.438,posner_endo_new1,2024.2.4,60.036225858453655,2024-12-13 12h54.14.628114 +0000,
0.31,0.005,26,26,0,down,3.7877012999997532,None,space,0.49121219999869936,None,,,,,0,26,26,26,,,,,2607.0066810000008,,,,,,,,,,,,2606.991218700001,2607.0066810000008,2607.0066810000008,2610.803709400001,,,,2610.803963800001,2610.8197298000014,2610.8197298000014,2610.8197298000014,2611.119368400001,2611.3197294,,,,,down,3.7877012999997532,None,space,0.49121219999869936,None,,,,,,,,,,,,,,P137,001,2024-12-13_12h53.49.438,posner_endo_new1,2024.2.4,60.036225858453655,2024-12-13 12h54.14.628114 +0000,
-0.31,0.005,27,27,0,up,2.36298540000098,None,space,0.45707880000009027,None,,,,,0,27,27,27,,,,,2611.3357613000007,,,,,,,,,,,,2611.3198951000013,2611.3357613000007,2611.3357613000007,2613.7007304,,,,2613.7009939,2613.716562400001,2613.716562400001,2613.716562400001,2614.0163395,2614.1834541000007,,,,,up,2.36298540000098,None,space,0.45707880000009027,None,,,,,,,,,,,,,,P137,001,2024-12-13_12h53.49.438,posner_endo_new1,2024.2.4,60.036225858453655,2024-12-13 12h54.14.628114 +0000,
0.005,-0.31,28,28,0,down,3.0025150000001304,None,space,0.5320018000002165,None,,,,,0,28,28,28,,,,,2614.1995045000003,,,,,,,,,,,,2614.1836272,2614.1995045000003,2614.1995045000003,2617.213926300001,,,,2617.2141838000007,2617.2297469000005,2617.2297469000005,2617.2297469000005,2617.5294075,2617.7635133000003,,,,,down,3.0025150000001304,None,space,0.5320018000002165,None,,,,,,,,,,,,,,P137,001,2024-12-13_12h53.49.438,posner_endo_new1,2024.2.4,60.036225858453655,2024-12-13 12h54.14.628114 +0000,
0.005,-0.31,29,29,0,up,2.407329199999367,None,space,0.557722499999727,None,,,,,0,29,29,29,,,,,2617.7790929000003,,,,,,,,,,,,2617.7636858000005,2617.7790929000003,2617.7790929000003,2620.194029800001,,,,2620.1942958,2620.2099186000014,2620.2099186000014,2620.2099186000014,2620.5095581000005,2620.7766787,,,,,up,2.407329199999367,None,space,0.557722499999727,None,,,,,,,,,,,,,,P137,001,2024-12-13_12h53.49.438,posner_endo_new1,2024.2.4,60.036225858453655,2024-12-13 12h54.14.628114 +0000,
10,0.005,30,30,0,down,2.6573679000011907,None,None,,,,,,,0,30,30,30,,,,,2620.7928938000005,,,,,,,,,,,,2620.7768505000004,2620.7928938000005,2620.7928938000005,2623.457494600001,,,,2623.457761900001,2623.4733149000003,2623.4733149000003,2623.4733149000003,2623.772885100001,2626.4703594000002,,,,2624.4721391000003,down,2.6573679000011907,None,None,,,,,,,,,,,,,,,,P137,001,2024-12-13_12h53.49.438,posner_endo_new1,2024.2.4,60.036225858453655,2024-12-13 12h54.14.628114 +0000,
0.005,-0.31,31,31,0,up,0.40366569999969215,None,space,0.6464166999994632,None,,,,,0,31,31,31,,,,,2626.4868654,,,,,,,,,,,,2626.4705197000003,2626.4868654,2626.4868654,2626.903771000001,,,,2626.9040332000004,2626.9196705000013,2626.9196705000013,2626.9196705000013,2627.2195169000006,2627.5698703,,,,,up,0.40366569999969215,None,space,0.6464166999994632,None,,,,,,,,,,,,,,P137,001,2024-12-13_12h53.49.438,posner_endo_new1,2024.2.4,60.036225858453655,2024-12-13 12h54.14.628114 +0000,
0.31,0.005,32,32,0,down,3.064473000000362,None,space,0.5337820000004285,None,,,,,0,32,32,32,,,,,2627.5857469000002,,,,,,,,,,,,2627.5700343000008,2627.5857469000002,2627.5857469000002,2630.6668952,,,,2630.6671530000003,2630.682640500001,2630.682640500001,2630.682640500001,2630.9824401000005,2631.232960700001,,,,,down,3.064473000000362,None,space,0.5337820000004285,None,,,,,,,,,,,,,,P137,001,2024-12-13_12h53.49.438,posner_endo_new1,2024.2.4,60.036225858453655,2024-12-13 12h54.14.628114 +0000,
0.005,-0.31,33,33,0,up,2.3381919999992533,None,space,0.5886661000004096,None,,,,,0,33,33,33,,,,,2631.2486113000014,,,,,,,,,,,,2631.2331304,2631.2486113000014,2631.2486113000014,2633.597019300001,,,,2633.5972803000004,2633.613032200001,2633.613032200001,2633.613032200001,2633.9125061000013,2634.2130290000005,,,,,up,2.3381919999992533,None,space,0.5886661000004096,None,,,,,,,,,,,,,,P137,001,2024-12-13_12h53.49.438,posner_endo_new1,2024.2.4,60.036225858453655,2024-12-13 12h54.14.628114 +0000,
10,0.005,34,34,0,down,2.909255700000358,None,None,,,,,,,0,34,34,34,,,,,2634.2294979,,,,,,,,,,,,2634.2131967000005,2634.2294979,2634.2294979,2637.1434420000005,,,,2637.1436985,2637.1591900000003,2637.1591900000003,2637.1591900000003,2637.4593000000004,2640.1564445000004,,,,2638.1584617999997,down,2.909255700000358,None,None,,,,,,,,,,,,,,,,P137,001,2024-12-13_12h53.49.438,posner_endo_new1,2024.2.4,60.036225858453655,2024-12-13 12h54.14.628114 +0000,
0.31,0.005,35,35,0,up,8.452802199999496,None,space,0.31895650000114983,None,,,,,0,35,35,35,,,,,2640.1730430000007,,,,,,,,,,,,2640.1566074,2640.1730430000007,2640.1730430000007,2648.631591000001,,,,2648.6318459000013,2648.6476217,2648.6476217,2648.6476217,2648.9472260000002,2648.9813863,,,,,up,8.452802199999496,None,space,0.31895650000114983,None,,,,,,,,,,,,,,P137,001,2024-12-13_12h53.49.438,posner_endo_new1,2024.2.4,60.036225858453655,2024-12-13 12h54.14.628114 +0000,
0.31,0.005,36,36,0,down,4.220845800000461,None,space,0.45740959999966435,None,,,,,0,36,36,36,,,,,2648.9972362999997,,,,,,,,,,,,2648.9815530000014,2648.9972362999997,2648.9972362999997,2653.2269311,,,,2653.2271821000013,2653.2427835,2653.2427835,2653.2427835,2653.542707300001,2653.7095633999998,,,,,down,4.220845800000461,None,space,0.45740959999966435,None,,,,,,,,,,,,,,P137,001,2024-12-13_12h53.49.438,posner_endo_new1,2024.2.4,60.036225858453655,2024-12-13 12h54.14.628114 +0000,
-0.31,0.005,37,37,0,up,2.6764798000003793,None,space,0.40585939999982656,None,,,,,0,37,37,37,,,,,2653.725799900001,,,,,,,,,,,,2653.7097405000004,2653.725799900001,2653.725799900001,2656.4070029000013,,,,2656.4072643,2656.4229877,2656.4229877,2656.4229877,2656.7227005000004,2656.8398880000004,,,,,up,2.6764798000003793,None,space,0.40585939999982656,None,,,,,,,,,,,,,,P137,001,2024-12-13_12h53.49.438,posner_endo_new1,2024.2.4,60.036225858453655,2024-12-13 12h54.14.628114 +0000,
0.005,0.31,38,38,0,down,2.970153999998729,None,space,0.7191572000010638,None,,,,,0,38,38,38,,,,,2656.8559460000015,,,,,,,,,,,,2656.840045500001,2656.8559460000015,2656.8559460000015,2659.8368408000006,,,,2659.837110300001,2659.8526886,2659.8526886,2659.8526886,2660.1524807000005,2660.5863181000022,,,,,down,2.970153999998729,None,space,0.7191572000010638,None,,,,,,,,,,,,,,P137,001,2024-12-13_12h53.49.438,posner_endo_new1,2024.2.4,60.036225858453655,2024-12-13 12h54.14.628114 +0000,
0.005,0.31,39,39,0,up,2.2168520000013814,None,space,0.5156593000028806,None,,,,,0,39,39,39,,,,,2660.602095099999,,,,,,,,,,,,2660.586485399999,2660.602095099999,2660.602095099999,2662.8338841000004,,,,2662.8341433999994,2662.849752500002,2662.849752500002,2662.849752500002,2663.149383,2663.3667652000004,,,,,up,2.2168520000013814,None,space,0.5156593000028806,None,,,,,,,,,,,,,,P137,001,2024-12-13_12h53.49.438,posner_endo_new1,2024.2.4,60.036225858453655,2024-12-13 12h54.14.628114 +0000,
-0.31,0.005,40,40,0,down,2.8126525999978185,None,space,0.4692771999980323,None,,,,,0,40,40,40,,,,,2663.3824526999997,,,,,,,,,,,,2663.3669259000017,2663.3824526999997,2663.3824526999997,2666.1973241000014,,,,2666.197583699999,2666.2129816000015,2666.2129816000015,2666.2129816000015,2666.5126297999996,2666.6965399,,,,,down,2.8126525999978185,None,space,0.4692771999980323,None,,,,,,,,,,,,,,P137,001,2024-12-13_12h53.49.438,posner_endo_new1,2024.2.4,60.036225858453655,2024-12-13 12h54.14.628114 +0000,
10,0.005,41,41,0,up,2.290144300000975,None,None,,,,,,,0,41,41,41,,,,,2666.712414100002,,,,,,,,,,,,2666.6967108999997,2666.712414100002,2666.712414100002,2669.0109262000005,,,,2669.0111792999996,2669.0266596,2669.0266596,2669.0266596,2669.3264941000016,2672.0238524000015,,,,2670.0258092000004,up,2.290144300000975,None,None,,,,,,,,,,,,,,,,P137,001,2024-12-13_12h53.49.438,posner_endo_new1,2024.2.4,60.036225858453655,2024-12-13 12h54.14.628114 +0000,
-0.31,0.005,42,42,0,down,1.2500413999987359,None,space,0.7135554999986198,None,,,,,0,42,42,42,,,,,2672.0404407000024,,,,,,,,,,,,2672.0240133000007,2672.0404407000024,2672.0404407000024,2673.3066825000024,,,,2673.3069460000006,2673.3222959000013,2673.3222959000013,2673.3222959000013,2673.621954000002,2674.0391703999994,,,,,down,1.2500413999987359,None,space,0.7135554999986198,None,,,,,,,,,,,,,,P137,001,2024-12-13_12h53.49.438,posner_endo_new1,2024.2.4,60.036225858453655,2024-12-13 12h54.14.628114 +0000,
-0.31,0.005,43,43,0,up,2.651301499998226,None,space,0.4283200999998371,None,,,,,0,43,43,43,,,,,2674.0550076,,,,,,,,,,,,2674.039330399999,2674.0550076,2674.0550076,2676.719557100001,,,,2676.7198190000017,2676.735708,2676.735708,2676.735708,2677.035293699999,2677.1693846000016,,,,,up,2.651301499998226,None,space,0.4283200999998371,None,,,,,,,,,,,,,,P137,001,2024-12-13_12h53.49.438,posner_endo_new1,2024.2.4,60.036225858453655,2024-12-13 12h54.14.628114 +0000,
0.005,0.31,44,44,0,down,4.337384099999326,None,space,0.6169179000025906,None,,,,,0,44,44,44,,,,,2677.1852757000015,,,,,,,,,,,,2677.1695604000015,2677.1852757000015,2677.1852757000015,2681.531191599999,,,,2681.531457500001,2681.5473738,2681.5473738,2681.5473738,2681.8470678000012,2682.1807444000005,,,,,down,4.337384099999326,None,space,0.6169179000025906,None,,,,,,,,,,,,,,P137,001,2024-12-13_12h53.49.438,posner_endo_new1,2024.2.4,60.036225858453655,2024-12-13 12h54.14.628114 +0000,
10,0.005,45,45,0,up,2.613980199999787,None,None,,,,,,,0,45,45,45,,,,,2682.1966601999993,,,,,,,,,,,,2682.1809066999995,2682.1966601999993,2682.1966601999993,2684.8114833,,,,2684.8117415000015,2684.827387000001,2684.827387000001,2684.827387000001,2685.1269039,2687.824267600001,,,,2685.842973300001,up,2.613980199999787,None,None,,,,,,,,,,,,,,,,P137,001,2024-12-13_12h53.49.438,posner_endo_new1,2024.2.4,60.036225858453655,2024-12-13 12h54.14.628114 +0000,
0.005,-0.31,46,46,0,down,0.281402500000695,None,space,0.38311860000249,None,,,,,0,46,46,46,,,,,2687.8408794999996,,,,,,,,,,,,2687.8244266,2687.8408794999996,2687.8408794999996,2688.1246974999995,,,,2688.1249524000013,2688.1405564000015,2688.1405564000015,2688.1405564000015,2688.4402176000003,2688.5244545000023,,,,,down,0.281402500000695,None,space,0.38311860000249,None,,,,,,,,,,,,,,P137,001,2024-12-13_12h53.49.438,posner_endo_new1,2024.2.4,60.036225858453655,2024-12-13 12h54.14.628114 +0000,
-0.31,0.005,47,47,0,up,2.421809299998131,None,space,0.5174330999980157,None,,,,,0,47,47,47,,,,,2688.5401070000007,,,,,,,,,,,,2688.5246205000003,2688.5401070000007,2688.5401070000007,2690.9717391000013,,,,2690.971992999999,2690.987660900002,2690.987660900002,2690.987660900002,2691.2874126999995,2691.521196900001,,,,,up,2.421809299998131,None,space,0.5174330999980157,None,,,,,,,,,,,,,,P137,001,2024-12-13_12h53.49.438,posner_endo_new1,2024.2.4,60.036225858453655,2024-12-13 12h54.14.628114 +0000,
-0.31,0.005,48,48,0,down,3.288722000001144,None,space,0.39627630000177305,None,,,,,0,48,48,48,,,,,2691.537217000001,,,,,,,,,,,,2691.5213595999994,2691.537217000001,2691.537217000001,2694.834519799999,,,,2694.8347820000017,2694.8504427000007,2694.8504427000007,2694.8504427000007,2695.150046300001,2695.250799900001,,,,,down,3.288722000001144,None,space,0.39627630000177305,None,,,,,,,,,,,,,,P137,001,2024-12-13_12h53.49.438,posner_endo_new1,2024.2.4,60.036225858453655,2024-12-13 12h54.14.628114 +0000,
-0.31,0.005,49,49,0,up,2.7999787000007927,None,space,0.4049548999973922,None,,,,,0,49,49,49,,,,,2695.2667919000014,,,,,,,,,,,,2695.2509740000023,2695.2667919000014,2695.2667919000014,2698.081245199999,,,,2698.0815009,2698.096983700001,2698.096983700001,2698.096983700001,2698.3967268000015,2698.514213900002,,,,,up,2.7999787000007927,None,space,0.4049548999973922,None,,,,,,,,,,,,,,P137,001,2024-12-13_12h53.49.438,posner_endo_new1,2024.2.4,60.036225858453655,2024-12-13 12h54.14.628114 +0000,
0.31,0.005,50,50,0,down,3.4880465999995067,None,space,0.6504681000005803,None,,,,,0,50,50,50,,,,,2698.529908100001,,,,,,,,,,,,2698.514377399999,2698.529908100001,2698.529908100001,2702.0272713000013,,,,2702.0275339,2702.0431505000015,2702.0431505000015,2702.0431505000015,2702.342628000002,2702.709923300001,,,,,down,3.4880465999995067,None,space,0.6504681000005803,None,,,,,,,,,,,,,,P137,001,2024-12-13_12h53.49.438,posner_endo_new1,2024.2.4,60.036225858453655,2024-12-13 12h54.14.628114 +0000,
0.31,0.005,51,51,0,up,2.3893097000000125,None,space,0.4696269999985816,None,,,,,0,51,51,51,,,,,2702.725661799999,,,,,,,,,,,,2702.710091500001,2702.725661799999,2702.725661799999,2705.1239953000004,,,,2705.1242458000015,2705.1400305999996,2705.1400305999996,2705.1400305999996,2705.4395908000006,2705.623356100001,,,,,up,2.3893097000000125,None,space,0.4696269999985816,None,,,,,,,,,,,,,,P137,001,2024-12-13_12h53.49.438,posner_endo_new1,2024.2.4,60.036225858453655,2024-12-13 12h54.14.628114 +0000,
0.31,0.005,52,52,0,down,3.554892399999517,None,space,0.6247101000008115,None,,,,,0,52,52,52,,,,,2705.6394927,,,,,,,,,,,,2705.6235124000013,2705.6394927,2705.6394927,2709.2030473000013,,,,2709.203312100002,2709.219301500001,2709.219301500001,2709.219301500001,2709.518622399999,2709.8526604,,,,,down,3.554892399999517,None,space,0.6247101000008115,None,,,,,,,,,,,,,,P137,001,2024-12-13_12h53.49.438,posner_endo_new1,2024.2.4,60.036225858453655,2024-12-13 12h54.14.628114 +0000,
0.005,0.31,53,53,0,up,2.78968420000092,None,space,0.6797280999999202,None,,,,,0,53,53,53,,,,,2709.868341199999,,,,,,,,,,,,2709.8528327999993,2709.868341199999,2709.868341199999,2712.6661134999995,,,,2712.666365000001,2712.6822539000023,2712.6822539000023,2712.6822539000023,2712.981755500001,2713.3656469000016,,,,,up,2.78968420000092,None,space,0.6797280999999202,None,,,,,,,,,,,,,,P137,001,2024-12-13_12h53.49.438,posner_endo_new1,2024.2.4,60.036225858453655,2024-12-13 12h54.14.628114 +0000,
0.31,0.005,54,54,0,down,3.821367200001987,None,space,0.8906737999968755,None,,,,,0,54,54,54,,,,,2713.381535100001,,,,,,,,,,,,2713.365809499999,2713.381535100001,2713.381535100001,2717.211556099999,,,,2717.2118078999993,2717.2276313,2717.2276313,2717.2276313,2717.527156600001,2718.127329400002,,,,,down,3.821367200001987,None,space,0.8906737999968755,None,,,,,,,,,,,,,,P137,001,2024-12-13_12h53.49.438,posner_endo_new1,2024.2.4,60.036225858453655,2024-12-13 12h54.14.628114 +0000,
0.005,0.31,55,55,0,up,3.2675899999994726,None,space,0.8033794000002672,None,,,,,0,55,55,55,,,,,2718.143399700002,,,,,,,,,,,,2718.1274909999993,2718.143399700002,2718.143399700002,2721.4241832000007,,,,2721.4244297000005,2721.439848000002,2721.439848000002,2721.439848000002,2721.7395533000017,2722.2563916,,,,,up,3.2675899999994726,None,space,0.8033794000002672,None,,,,,,,,,,,,,,P137,001,2024-12-13_12h53.49.438,posner_endo_new1,2024.2.4,60.036225858453655,2024-12-13 12h54.14.628114 +0000,
0.005,-0.31,56,56,0,down,2.8906558000016958,None,space,0.712916899999982,None,,,,,0,56,56,56,,,,,2722.2724376000006,,,,,,,,,,,,2722.2565483,2722.2724376000006,2722.2724376000006,2725.1699965000007,,,,2725.1702412000013,2725.186125600001,2725.186125600001,2725.186125600001,2725.4857890999992,2725.9026830000003,,,,,down,2.8906558000016958,None,space,0.712916899999982,None,,,,,,,,,,,,,,P137,001,2024-12-13_12h53.49.438,posner_endo_new1,2024.2.4,60.036225858453655,2024-12-13 12h54.14.628114 +0000,
0.005,0.31,57,57,0,up,2.2279878000008466,None,space,0.8296416000011959,None,,,,,0,57,57,57,,,,,2725.918770700002,,,,,,,,,,,,2725.902838000002,2725.918770700002,2725.918770700002,2728.1504988000015,,,,2728.1507483999994,2728.1664671,2728.1664671,2728.1664671,2728.4659539999993,2728.9998019000013,,,,,up,2.2279878000008466,None,space,0.8296416000011959,None,,,,,,,,,,,,,,P137,001,2024-12-13_12h53.49.438,posner_endo_new1,2024.2.4,60.036225858453655,2024-12-13 12h54.14.628114 +0000,
10,0.005,58,58,0,down,4.299482300000818,None,None,,,,,,,0,58,58,58,,,,,2729.015550600001,,,,,,,,,,,,2728.9999642000002,2729.015550600001,2729.015550600001,2733.3284341,,,,2733.3286738999996,2733.3445802999995,2733.3445802999995,2733.3445802999995,2733.6442809,2736.341517500001,,,,2734.3601292999992,down,4.299482300000818,None,None,,,,,,,,,,,,,,,,P137,001,2024-12-13_12h53.49.438,posner_endo_new1,2024.2.4,60.036225858453655,2024-12-13 12h54.14.628114 +0000,
10,0.005,59,59,0,up,0.47646659999736585,None,None,,,,,,,0,59,59,59,,,,,2736.3580299000023,,,,,,,,,,,,2736.3416841,2736.3580299000023,2736.3580299000023,2736.841365100001,,,,2736.8416115,2736.8575175000005,2736.8575175000005,2736.8575175000005,2737.1572768000005,2739.8545464000017,,,,2737.8731751000014,up,0.47646659999736585,None,None,,,,,,,,,,,,,,,,P137,001,2024-12-13_12h53.49.438,posner_endo_new1,2024.2.4,60.036225858453655,2024-12-13 12h54.14.628114 +0000,
-0.31,0.005,60,60,0,down,2.147628699996858,None,space,0.8687468999996781,None,,,,,0,60,60,60,,,,,2739.8711065999996,,,,,,,,,,,,2739.854706500002,2739.8711065999996,2739.8711065999996,2742.0196671000012,,,,2742.019922200001,2742.0356993999994,2742.0356993999994,2742.0356993999994,2742.3352775999992,2742.9187031,,,,,down,2.147628699996858,None,space,0.8687468999996781,None,,,,,,,,,,,,,,P137,001,2024-12-13_12h53.49.438,posner_endo_new1,2024.2.4,60.036225858453655,2024-12-13 12h54.14.628114 +0000,
,,,,,,,,,,,,,,,,,,,,,,,,,,,,,,,,,,,,,,,,,,,,,,,,,,,,,,,,,,2742.918805199999,2742.9347409,2742.9347409,2766.128496199999,space,23.185831300001155,None,,,,,,,P137,001,2024-12-13_12h53.49.438,posner_endo_new1,2024.2.4,60.036225858453655,2024-12-13 12h54.14.628114 +0000,
,,,,,,,,,,,,,,,,,,,,,,,,,,,,,,,,2766.128543300001,2766.1443008000024,2769.1412304000005,,,,,,,,,,,,,,,,,,,,,,,,,,,,,,,,,,,,,P137,001,2024-12-13_12h53.49.438,posner_endo_new1,2024.2.4,60.036225858453655,2024-12-13 12h54.14.628114 +0000,
0.005,-0.31,0,0,0,up,31.098786499998823,None,space,0.5722051000011561,None,,,,,,,,,0,0,0,0,2769.159699399999,,,,,,,,,,,,2769.1492580000013,2769.159699399999,2769.159699399999,2800.2602071,,,,2800.260457799999,2800.276250900002,2800.276250900002,2800.276250900002,2800.575630899999,2800.8593336000013,,,,,,,,,,,,,,,,,,up,31.098786499998823,None,space,0.5722051000011561,None,P137,001,2024-12-13_12h53.49.438,posner_endo_new1,2024.2.4,60.036225858453655,2024-12-13 12h54.14.628114 +0000,
0.31,0.005,1,1,0,down,3.911004800000228,None,space,0.4918351000014809,None,,,,,,,,,0,1,1,1,2800.875729200001,,,,,,,,,,,,2800.859498599999,2800.875729200001,2800.875729200001,2804.7889877000016,,,,2804.7892538000015,2804.8048887000004,2804.8048887000004,2804.8048887000004,2805.1045305000007,2805.3050250000015,,,,,,,,,,,,,,,,,,down,3.911004800000228,None,space,0.4918351000014809,None,P137,001,2024-12-13_12h53.49.438,posner_endo_new1,2024.2.4,60.036225858453655,2024-12-13 12h54.14.628114 +0000,
10,0.005,2,2,0,up,3.63326909999887,None,None,,,,,,,,,,,0,2,2,2,2805.3210486999997,,,,,,,,,,,,2805.305193100001,2805.3210486999997,2805.3210486999997,2808.9677572,,,,2808.968005499999,2808.9839275000013,2808.9839275000013,2808.9839275000013,2809.2835990999993,2811.9809170000008,,,,2809.9994128,,,,,,,,,,,,,,up,3.63326909999887,None,None,,,P137,001,2024-12-13_12h53.49.438,posner_endo_new1,2024.2.4,60.036225858453655,2024-12-13 12h54.14.628114 +0000,
0.005,-0.31,3,3,0,down,7.805832099998952,None,space,0.49190810000072815,None,,,,,,,,,0,3,3,3,2811.997416000002,,,,,,,,,,,,2811.9810813000004,2811.997416000002,2811.997416000002,2819.8068464999997,,,,2819.8071148000017,2819.822787500001,2819.822787500001,2819.822787500001,2820.1224078000014,2820.3232088000004,,,,,,,,,,,,,,,,,,down,7.805832099998952,None,space,0.49190810000072815,None,P137,001,2024-12-13_12h53.49.438,posner_endo_new1,2024.2.4,60.036225858453655,2024-12-13 12h54.14.628114 +0000,
0.005,-0.31,4,4,0,up,2.9598312999987684,None,space,0.4759090000006836,None,,,,,,,,,0,4,4,4,2820.3388108,,,,,,,,,,,,2820.323376200002,2820.3388108,2820.3388108,2823.303418700001,,,,2823.3036789,2823.319121100001,2823.319121100001,2823.319121100001,2823.6189331000023,2823.8028510000004,,,,,,,,,,,,,,,,,,up,2.9598312999987684,None,space,0.4759090000006836,None,P137,001,2024-12-13_12h53.49.438,posner_endo_new1,2024.2.4,60.036225858453655,2024-12-13 12h54.14.628114 +0000,
10,0.005,5,5,0,down,3.4555471999992733,None,None,,,,,,,,,,,0,5,5,5,2823.818688399999,,,,,,,,,,,,2823.8030185999996,2823.818688399999,2823.818688399999,2827.2826114000018,,,,2827.282876199999,2827.298563799999,2827.298563799999,2827.298563799999,2827.598004700001,2830.2956304,,,,2828.3140330000024,,,,,,,,,,,,,,down,3.4555471999992733,None,None,,,P137,001,2024-12-13_12h53.49.438,posner_endo_new1,2024.2.4,60.036225858453655,2024-12-13 12h54.14.628114 +0000,
0.005,0.31,6,6,0,up,7.979212700000062,None,space,0.50971390000268,None,,,,,,,,,0,6,6,6,2830.3120646999996,,,,,,,,,,,,2830.295802200002,2830.3120646999996,2830.3120646999996,2838.3045077999996,,,,2838.3047645000006,2838.320711200002,2838.320711200002,2838.320711200002,2838.620380799999,2838.8374423999994,,,,,,,,,,,,,,,,,,up,7.979212700000062,None,space,0.50971390000268,None,P137,001,2024-12-13_12h53.49.438,posner_endo_new1,2024.2.4,60.036225858453655,2024-12-13 12h54.14.628114 +0000,
0.005,0.31,7,7,0,down,3.0852732000021206,None,space,0.526072299999214,None,,,,,,,,,0,7,7,7,2838.853414199999,,,,,,,,,,,,2838.8376156000013,2838.853414199999,2838.853414199999,2841.9510396000005,,,,2841.951299200002,2841.9669044,2841.9669044,2841.9669044,2842.2665579999993,2842.500458800001,,,,,,,,,,,,,,,,,,down,3.0852732000021206,None,space,0.526072299999214,None,P137,001,2024-12-13_12h53.49.438,posner_endo_new1,2024.2.4,60.036225858453655,2024-12-13 12h54.14.628114 +0000,
0.31,0.005,8,8,0,up,2.8628767000009248,None,space,0.5290701000012632,None,,,,,,,,,0,8,8,8,2842.516268200001,,,,,,,,,,,,2842.5006338999992,2842.516268200001,2842.516268200001,2845.3809989,,,,2845.381247000001,2845.3966027000024,2845.3966027000024,2845.3966027000024,2845.6962557000006,2845.9302124999995,,,,,,,,,,,,,,,,,,up,2.8628767000009248,None,space,0.5290701000012632,None,P137,001,2024-12-13_12h53.49.438,posner_endo_new1,2024.2.4,60.036225858453655,2024-12-13 12h54.14.628114 +0000,
0.31,0.005,9,9,0,down,2.5208992999978364,None,space,0.6547363999998197,None,,,,,,,,,0,9,9,9,2845.946265800001,,,,,,,,,,,,2845.930380400001,2845.946265800001,2845.946265800001,2848.477715500001,,,,2848.4779578000016,2848.4933079,2848.4933079,2848.4933079,2848.7933759000007,2849.1603565000005,,,,,,,,,,,,,,,,,,down,2.5208992999978364,None,space,0.6547363999998197,None,P137,001,2024-12-13_12h53.49.438,posner_endo_new1,2024.2.4,60.036225858453655,2024-12-13 12h54.14.628114 +0000,
10,0.005,10,10,0,up,2.7946981999994023,None,None,,,,,,,,,,,0,10,10,10,2849.1760360000007,,,,,,,,,,,,2849.1605225999992,2849.1760360000007,2849.1760360000007,2851.973939700001,,,,2851.9742030000016,2851.9900307999997,2851.9900307999997,2851.9900307999997,2852.2897190000003,2854.9870126000023,,,,2853.0057251,,,,,,,,,,,,,,up,2.7946981999994023,None,None,,,P137,001,2024-12-13_12h53.49.438,posner_endo_new1,2024.2.4,60.036225858453655,2024-12-13 12h54.14.628114 +0000,
0.005,0.31,11,11,0,down,2.1914542999984405,None,None,,,,,,,,,,,0,11,11,11,2855.0035105999996,,,,,,,,,,,,2854.987174400001,2855.0035105999996,2855.0035105999996,2857.2019316000005,,,,2857.2021762000004,2857.2178851999997,2857.2178851999997,2857.2178851999997,2857.5176501999995,2860.2148641999993,,,,2858.2338947999997,,,,,,,,,,,,,,down,2.1914542999984405,None,None,,,P137,001,2024-12-13_12h53.49.438,posner_endo_new1,2024.2.4,60.036225858453655,2024-12-13 12h54.14.628114 +0000,
0.005,-0.31,12,12,0,up,1.2675193000031868,None,space,0.48931049999737297,None,,,,,,,,,0,12,12,12,2860.2316137000016,,,,,,,,,,,,2860.2150282000002,2860.2316137000016,2860.2316137000016,2861.514467000001,,,,2861.5147318000018,2861.530103000001,2861.530103000001,2861.530103000001,2861.8301103000013,2862.0305900999992,,,,,,,,,,,,,,,,,,up,1.2675193000031868,None,space,0.48931049999737297,None,P137,001,2024-12-13_12h53.49.438,posner_endo_new1,2024.2.4,60.036225858453655,2024-12-13 12h54.14.628114 +0000,
0.005,0.31,13,13,0,down,3.532810500000778,None,space,0.44732359999761684,None,,,,,,,,,0,13,13,13,2862.0463125000024,,,,,,,,,,,,2862.030759000001,2862.0463125000024,2862.0463125000024,2865.593497599999,,,,2865.5937484999995,2865.6092725000017,2865.6092725000017,2865.6092725000017,2865.909181400002,2866.0595992000017,,,,,,,,,,,,,,,,,,down,3.532810500000778,None,space,0.44732359999761684,None,P137,001,2024-12-13_12h53.49.438,posner_endo_new1,2024.2.4,60.036225858453655,2024-12-13 12h54.14.628114 +0000,
-0.31,0.005,14,14,0,up,3.079814000000624,None,space,0.4460300000027928,None,,,,,,,,,0,14,14,14,2866.075547799999,,,,,,,,,,,,2866.0597708000023,2866.075547799999,2866.075547799999,2869.1565470999994,,,,2869.156793599999,2869.1723649000014,2869.1723649000014,2869.1723649000014,2869.471926000002,2869.622897699999,,,,,,,,,,,,,,,,,,up,3.079814000000624,None,space,0.4460300000027928,None,P137,001,2024-12-13_12h53.49.438,posner_endo_new1,2024.2.4,60.036225858453655,2024-12-13 12h54.14.628114 +0000,
10,0.005,15,15,0,down,5.467798999998195,None,None,,,,,,,,,,,0,15,15,15,2869.6385833999993,,,,,,,,,,,,2869.6230655,2869.6385833999993,2869.6385833999993,2875.117192400001,,,,2875.117444300002,2875.1329243,2875.1329243,2875.1329243,2875.4327161,2878.1299696000024,,,,2876.1484727999996,,,,,,,,,,,,,,down,5.467798999998195,None,None,,,P137,001,2024-12-13_12h53.49.438,posner_endo_new1,2024.2.4,60.036225858453655,2024-12-13 12h54.14.628114 +0000,
0.005,-0.31,16,16,0,up,1.2090427999974054,None,space,0.39553389999855426,None,,,,,,,,,0,16,16,16,2878.1466053000004,,,,,,,,,,,,2878.130124200001,2878.1466053000004,2878.1466053000004,2879.362822700001,,,,2879.3630723000024,2879.3787448000003,2879.3787448000003,2879.3787448000003,2879.6783103000016,2879.778979900002,,,,,,,,,,,,,,,,,,up,1.2090427999974054,None,space,0.39553389999855426,None,P137,001,2024-12-13_12h53.49.438,posner_endo_new1,2024.2.4,60.036225858453655,2024-12-13 12h54.14.628114 +0000,
0.31,0.005,17,17,0,down,3.208306200001971,None,space,0.43800499999997555,None,,,,,,,,,0,17,17,17,2879.7949356999998,,,,,,,,,,,,2879.779150999999,2879.7949356999998,2879.7949356999998,2883.0091436000002,,,,2883.0094094000015,2883.0247444000015,2883.0247444000015,2883.0247444000015,2883.3246801000023,2883.4752936000004,,,,,,,,,,,,,,,,,,down,3.208306200001971,None,space,0.43800499999997555,None,P137,001,2024-12-13_12h53.49.438,posner_endo_new1,2024.2.4,60.036225858453655,2024-12-13 12h54.14.628114 +0000,
-0.31,0.005,18,18,0,up,2.935501899999508,None,space,0.693744100000913,None,,,,,,,,,0,18,18,18,2883.4911623000007,,,,,,,,,,,,2883.4754613000005,2883.4911623000007,2883.4911623000007,2886.438726799999,,,,2886.4389905999997,2886.4548025000004,2886.4548025000004,2886.4548025000004,2886.754467499999,2887.154774999999,,,,,,,,,,,,,,,,,,up,2.935501899999508,None,space,0.693744100000913,None,P137,001,2024-12-13_12h53.49.438,posner_endo_new1,2024.2.4,60.036225858453655,2024-12-13 12h54.14.628114 +0000,
0.31,0.005,19,19,0,down,7.7845879000014975,None,space,0.4954665000004752,None,,,,,,,,,0,19,19,19,2887.170653199999,,,,,,,,,,,,2887.1549522000023,2887.170653199999,2887.170653199999,2894.9634472,,,,2894.9637153000003,2894.9793353999994,2894.9793353999994,2894.9793353999994,2895.279151900002,2895.4797445000004,,,,,,,,,,,,,,,,,,down,7.7845879000014975,None,space,0.4954665000004752,None,P137,001,2024-12-13_12h53.49.438,posner_endo_new1,2024.2.4,60.036225858453655,2024-12-13 12h54.14.628114 +0000,
0.31,0.005,20,20,0,up,4.060053099998186,None,space,0.43457629999829805,None,,,,,,,,,0,20,20,20,2895.495363000002,,,,,,,,,,,,2895.4799147000012,2895.495363000002,2895.495363000002,2899.5587238000007,,,,2899.5589905000015,2899.5745911000013,2899.5745911000013,2899.5745911000013,2899.8742650999993,2900.0248973000016,,,,,,,,,,,,,,,,,,up,4.060053099998186,None,space,0.43457629999829805,None,P137,001,2024-12-13_12h53.49.438,posner_endo_new1,2024.2.4,60.036225858453655,2024-12-13 12h54.14.628114 +0000,
0.005,-0.31,21,21,0,down,4.690038100001402,None,space,0.5008641999993415,None,,,,,,,,,0,21,21,21,2900.0409789000005,,,,,,,,,,,,2900.025072799999,2900.0409789000005,2900.0409789000005,2904.736760399999,,,,2904.7370130000018,2904.7527222999997,2904.7527222999997,2904.7527222999997,2905.052348699999,2905.269397100001,,,,,,,,,,,,,,,,,,down,4.690038100001402,None,space,0.5008641999993415,None,P137,001,2024-12-13_12h53.49.438,posner_endo_new1,2024.2.4,60.036225858453655,2024-12-13 12h54.14.628114 +0000,
-0.31,0.005,22,22,0,up,2.5018313999971724,None,space,0.406864399999904,None,,,,,,,,,0,22,22,22,2905.2855586000005,,,,,,,,,,,,2905.269556200001,2905.2855586000005,2905.2855586000005,2907.800388300002,,,,2907.8006513,2907.8163982000005,2907.8163982000005,2907.8163982000005,2908.1158722,2908.233585500002,,,,,,,,,,,,,,,,,,up,2.5018313999971724,None,space,0.406864399999904,None,P137,001,2024-12-13_12h53.49.438,posner_endo_new1,2024.2.4,60.036225858453655,2024-12-13 12h54.14.628114 +0000,
0.005,-0.31,23,23,0,down,4.3694015000000945,None,space,0.543174899998121,None,,,,,,,,,0,23,23,23,2908.249073400002,,,,,,,,,,,,2908.2337461999996,2908.249073400002,2908.249073400002,2912.628836300002,,,,2912.6290948000023,2912.644727900002,2912.644727900002,2912.644727900002,2912.9444645000003,2913.1947727000006,,,,,,,,,,,,,,,,,,down,4.3694015000000945,None,space,0.543174899998121,None,P137,001,2024-12-13_12h53.49.438,posner_endo_new1,2024.2.4,60.036225858453655,2024-12-13 12h54.14.628114 +0000,
10,0.005,24,24,0,up,2.5679497000019182,None,None,,,,,,,,,,,0,24,24,24,2913.210748900001,,,,,,,,,,,,2913.1949386000015,2913.210748900001,2913.210748900001,2915.792057300001,,,,2915.7923228,2915.808272099999,2915.808272099999,2915.808272099999,2916.1078395000004,2918.8053002000015,,,,2916.823736800001,,,,,,,,,,,,,,up,2.5679497000019182,None,None,,,P137,001,2024-12-13_12h53.49.438,posner_endo_new1,2024.2.4,60.036225858453655,2024-12-13 12h54.14.628114 +0000,
0.31,0.005,25,25,0,down,3.020602799999324,None,space,0.41117989999838755,None,,,,,,,,,0,25,25,25,2918.8218240999995,,,,,,,,,,,,2918.8054727000017,2918.8218240999995,2918.8218240999995,2921.852646800002,,,,2921.852901099999,2921.8685344000005,2921.8685344000005,2921.8685344000005,2922.1684219000017,2922.2856256000014,,,,,,,,,,,,,,,,,,down,3.020602799999324,None,space,0.41117989999838755,None,P137,001,2024-12-13_12h53.49.438,posner_endo_new1,2024.2.4,60.036225858453655,2024-12-13 12h54.14.628114 +0000,
0.31,0.005,26,26,0,up,3.4375919999984035,None,space,0.5130633999979182,None,,,,,,,,,0,26,26,26,2922.3015693000016,,,,,,,,,,,,2922.2857853999994,2922.3015693000016,2922.3015693000016,2925.7488085000005,,,,2925.7490620999997,2925.7645988000004,2925.7645988000004,2925.7645988000004,2926.0641727,2926.281490100002,,,,,,,,,,,,,,,,,,up,3.4375919999984035,None,space,0.5130633999979182,None,P137,001,2024-12-13_12h53.49.438,posner_endo_new1,2024.2.4,60.036225858453655,2024-12-13 12h54.14.628114 +0000,
10,0.005,27,27,0,down,4.313324200000352,None,None,,,,,,,,,,,0,27,27,27,2926.2975105000005,,,,,,,,,,,,2926.2816583999993,2926.2975105000005,2926.2975105000005,2930.6269752000007,,,,2930.627226700002,2930.642916200002,2930.642916200002,2930.642916200002,2930.9426112,2933.639988400002,,,,2931.642012799999,,,,,,,,,,,,,,down,4.313324200000352,None,None,,,P137,001,2024-12-13_12h53.49.438,posner_endo_new1,2024.2.4,60.036225858453655,2024-12-13 12h54.14.628114 +0000,
0.005,-0.31,28,28,0,up,0.7463844000012614,None,space,0.5239335000005667,None,,,,,,,,,0,28,28,28,2933.6564813000005,,,,,,,,,,,,2933.6401523999994,2933.6564813000005,2933.6564813000005,2934.406611000002,,,,2934.4068740000002,2934.422379800002,2934.422379800002,2934.422379800002,2934.722028,2934.955883800001,,,,,,,,,,,,,,,,,,up,0.7463844000012614,None,space,0.5239335000005667,None,P137,001,2024-12-13_12h53.49.438,posner_endo_new1,2024.2.4,60.036225858453655,2024-12-13 12h54.14.628114 +0000,
0.005,0.31,29,29,0,down,4.071213800001715,None,space,0.7463017000009131,None,,,,,,,,,0,29,29,29,2934.9717101999995,,,,,,,,,,,,2934.956051199999,2934.9717101999995,2934.9717101999995,2939.0519576000006,,,,2939.052199599999,2939.067700800002,2939.067700800002,2939.067700800002,2939.3674627,2939.817595700002,,,,,,,,,,,,,,,,,,down,4.071213800001715,None,space,0.7463017000009131,None,P137,001,2024-12-13_12h53.49.438,posner_endo_new1,2024.2.4,60.036225858453655,2024-12-13 12h54.14.628114 +0000,
10,0.005,30,30,0,up,2.297828300001129,None,None,,,,,,,,,,,0,30,30,30,2939.833560700001,,,,,,,,,,,,2939.8177617,2939.833560700001,2939.833560700001,2942.1321013000015,,,,2942.1323476,2942.148084100001,2942.148084100001,2942.148084100001,2942.447603200002,2945.144897500002,,,,2943.163597999999,,,,,,,,,,,,,,up,2.297828300001129,None,None,,,P137,001,2024-12-13_12h53.49.438,posner_endo_new1,2024.2.4,60.036225858453655,2024-12-13 12h54.14.628114 +0000,
0.31,0.005,31,31,0,down,7.12245350000012,None,space,0.41107819999888306,None,,,,,,,,,0,31,31,31,2945.161401600002,,,,,,,,,,,,2945.145052600001,2945.161401600002,2945.161401600002,2952.2884655000016,,,,2952.288713400001,2952.3040968000023,2952.3040968000023,2952.3040968000023,2952.603865699999,2952.721188899999,,,,,,,,,,,,,,,,,,down,7.12245350000012,None,space,0.41107819999888306,None,P137,001,2024-12-13_12h53.49.438,posner_endo_new1,2024.2.4,60.036225858453655,2024-12-13 12h54.14.628114 +0000,
0.31,0.005,32,32,0,up,3.7775967000015953,None,space,0.37413759999981266,None,,,,,,,,,0,32,32,32,2952.736992599999,,,,,,,,,,,,2952.7213526000014,2952.736992599999,2952.736992599999,2956.5171929999997,,,,2956.5174437999995,2956.533110299999,2956.533110299999,2956.533110299999,2956.8328987999994,2956.916988699999,,,,,,,,,,,,,,,,,,up,3.7775967000015953,None,space,0.37413759999981266,None,P137,001,2024-12-13_12h53.49.438,posner_endo_new1,2024.2.4,60.036225858453655,2024-12-13 12h54.14.628114 +0000,
10,0.005,33,33,0,down,2.286054399999557,None,None,,,,,,,,,,,0,33,33,33,2956.932809500002,,,,,,,,,,,,2956.9171513,2956.932809500002,2956.932809500002,2959.2314337999996,,,,2959.2316881000006,2959.247089700002,2959.247089700002,2959.247089700002,2959.5468239,2962.2441413000015,,,,2960.246101500001,,,,,,,,,,,,,,down,2.286054399999557,None,None,,,P137,001,2024-12-13_12h53.49.438,posner_endo_new1,2024.2.4,60.036225858453655,2024-12-13 12h54.14.628114 +0000,
10,0.005,34,34,0,down,8.686127900000429,None,None,,,,,,,,,,,0,34,34,34,2962.260544200002,,,,,,,,,,,,2962.2443026,2962.260544200002,2962.260544200002,2970.9523955000004,,,,2970.952669099999,2970.9685159,2970.9685159,2970.9685159,2971.268128399999,2973.9656209000022,,,,2971.9840251999995,,,,,,,,,,,,,,down,8.686127900000429,None,None,,,P137,001,2024-12-13_12h53.49.438,posner_endo_new1,2024.2.4,60.036225858453655,2024-12-13 12h54.14.628114 +0000,
-0.31,0.005,35,35,0,up,1.1009868000001006,None,space,0.45693500000197673,None,,,,,,,,,0,35,35,35,2973.982258600001,,,,,,,,,,,,2973.9657843999994,2973.982258600001,2973.982258600001,2975.0983689999994,,,,2975.098634500002,2975.1141301999996,2975.1141301999996,2975.1141301999996,2975.413876499999,2975.5811735999996,,,,,,,,,,,,,,,,,,up,1.1009868000001006,None,space,0.45693500000197673,None,P137,001,2024-12-13_12h53.49.438,posner_endo_new1,2024.2.4,60.036225858453655,2024-12-13 12h54.14.628114 +0000,
0.005,0.31,36,36,0,down,3.7266328999976395,None,space,0.5004980999983673,None,,,,,,,,,0,36,36,36,2975.596918200001,,,,,,,,,,,,2975.5813400000006,2975.596918200001,2975.596918200001,2979.3273697000004,,,,2979.327632700002,2979.3432090000024,2979.3432090000024,2979.3432090000024,2979.6429446,2979.8600559000006,,,,,,,,,,,,,,,,,,down,3.7266328999976395,None,space,0.5004980999983673,None,P137,001,2024-12-13_12h53.49.438,posner_endo_new1,2024.2.4,60.036225858453655,2024-12-13 12h54.14.628114 +0000,
0.31,0.005,37,37,0,up,2.7505872000001546,None,space,0.5507594999980938,None,,,,,,,,,0,37,37,37,2979.876117300002,,,,,,,,,,,,2979.860227000001,2979.876117300002,2979.876117300002,2982.6405797000007,,,,2982.6408353000006,2982.6564235000005,2982.6564235000005,2982.6564235000005,2982.956472099999,2983.2231460000003,,,,,,,,,,,,,,,,,,up,2.7505872000001546,None,space,0.5507594999980938,None,P137,001,2024-12-13_12h53.49.438,posner_endo_new1,2024.2.4,60.036225858453655,2024-12-13 12h54.14.628114 +0000,
0.005,0.31,38,38,0,down,2.0195227000003797,None,space,0.5442728000016359,None,,,,,,,,,0,38,38,38,2983.239389800001,,,,,,,,,,,,2983.2233149999993,2983.239389800001,2983.239389800001,2985.2711206999993,,,,2985.271366000001,2985.287178999999,2985.287178999999,2985.287178999999,2985.5869614000003,2985.8372984000016,,,,,,,,,,,,,,,,,,down,2.0195227000003797,None,space,0.5442728000016359,None,P137,001,2024-12-13_12h53.49.438,posner_endo_new1,2024.2.4,60.036225858453655,2024-12-13 12h54.14.628114 +0000,
-0.31,0.005,39,39,0,up,3.1736619000002975,None,space,0.6137189000000944,None,,,,,,,,,0,39,39,39,2985.853398200001,,,,,,,,,,,,2985.8374693000005,2985.853398200001,2985.853398200001,2989.0340407000003,,,,2989.034284100002,2989.049851300002,2989.049851300002,2989.049851300002,2989.3497462000014,2989.6666891999994,,,,,,,,,,,,,,,,,,up,3.1736619000002975,None,space,0.6137189000000944,None,P137,001,2024-12-13_12h53.49.438,posner_endo_new1,2024.2.4,60.036225858453655,2024-12-13 12h54.14.628114 +0000,
-0.31,0.005,40,40,0,down,2.560023900001397,None,space,0.4864096999990579,None,,,,,,,,,0,40,40,40,2989.6826772999993,,,,,,,,,,,,2989.6668573999996,2989.6826772999993,2989.6826772999993,2992.247551299999,,,,2992.2478004000004,2992.2632347,2992.2632347,2992.2632347,2992.5629813000014,2992.763606200002,,,,,,,,,,,,,,,,,,down,2.560023900001397,None,space,0.4864096999990579,None,P137,001,2024-12-13_12h53.49.438,posner_endo_new1,2024.2.4,60.036225858453655,2024-12-13 12h54.14.628114 +0000,
0.005,0.31,41,41,0,up,3.951986100000795,None,space,0.6556825000006938,None,,,,,,,,,0,41,41,41,2992.7794533000015,,,,,,,,,,,,2992.7637674,2992.7794533000015,2992.7794533000015,2996.742846699999,,,,2996.743099800002,2996.7585235000006,2996.7585235000006,2996.7585235000006,2997.058476800001,2997.4253707999997,,,,,,,,,,,,,,,,,,up,3.951986100000795,None,space,0.6556825000006938,None,P137,001,2024-12-13_12h53.49.438,posner_endo_new1,2024.2.4,60.036225858453655,2024-12-13 12h54.14.628114 +0000,
-0.31,0.005,42,42,0,down,4.12184630000047,None,space,0.7555480000009993,None,,,,,,,,,0,42,42,42,2997.441559900002,,,,,,,,,,,,2997.425529600001,2997.441559900002,2997.441559900002,3001.5713159000006,,,,3001.571562199999,3001.587168099999,3001.587168099999,3001.587168099999,3001.8867735999993,3002.3535580999996,,,,,,,,,,,,,,,,,,down,4.12184630000047,None,space,0.7555480000009993,None,P137,001,2024-12-13_12h53.49.438,posner_endo_new1,2024.2.4,60.036225858453655,2024-12-13 12h54.14.628114 +0000,
0.005,0.31,43,43,0,up,1.7857939999994414,None,space,0.6848098999980721,None,,,,,,,,,0,43,43,43,3002.3695816,,,,,,,,,,,,3002.3537190999996,3002.3695816,3002.3695816,3004.1687681000003,,,,3004.1690297999994,3004.1844070000006,3004.1844070000006,3004.1844070000006,3004.4841994000017,3004.884632199999,,,,,,,,,,,,,,,,,,up,1.7857939999994414,None,space,0.6848098999980721,None,P137,001,2024-12-13_12h53.49.438,posner_endo_new1,2024.2.4,60.036225858453655,2024-12-13 12h54.14.628114 +0000,
0.005,0.31,44,44,0,down,3.9587241999979597,None,space,0.5988004999999248,None,,,,,,,,,0,44,44,44,3004.9006818000016,,,,,,,,,,,,3004.884791200002,3004.9006818000016,3004.9006818000016,3008.863977699999,,,,3008.8642282,3008.879849699999,3008.879849699999,3008.879849699999,3009.1794383000015,3009.4801492000006,,,,,,,,,,,,,,,,,,down,3.9587241999979597,None,space,0.5988004999999248,None,P137,001,2024-12-13_12h53.49.438,posner_endo_new1,2024.2.4,60.036225858453655,2024-12-13 12h54.14.628114 +0000,
-0.31,0.005,45,45,0,up,3.9638091000015265,None,space,0.5337206000003789,None,,,,,,,,,0,45,45,45,3009.4957534999994,,,,,,,,,,,,3009.4803084000014,3009.4957534999994,3009.4957534999994,3013.4754900000007,,,,3013.4757353999994,3013.491672600001,3013.491672600001,3013.491672600001,3013.7915261999988,3014.041908700001,,,,,,,,,,,,,,,,,,up,3.9638091000015265,None,space,0.5337206000003789,None,P137,001,2024-12-13_12h53.49.438,posner_endo_new1,2024.2.4,60.036225858453655,2024-12-13 12h54.14.628114 +0000,
0.005,0.31,46,46,0,down,3.673060799999803,None,space,0.5221802999985812,None,,,,,,,,,0,46,46,46,3014.0579548999995,,,,,,,,,,,,3014.042068499999,3014.0579548999995,3014.0579548999995,3017.7380085000004,,,,3017.738258600002,3017.754108600002,3017.754108600002,3017.754108600002,3018.053514200001,3018.287342800002,,,,,,,,,,,,,,,,,,down,3.673060799999803,None,space,0.5221802999985812,None,P137,001,2024-12-13_12h53.49.438,posner_endo_new1,2024.2.4,60.036225858453655,2024-12-13 12h54.14.628114 +0000,
0.31,0.005,47,47,0,up,3.651485499998671,None,space,0.5681604999990668,None,,,,,,,,,0,47,47,47,3018.303546700001,,,,,,,,,,,,3018.287504,3018.303546700001,3018.303546700001,3021.966975200001,,,,3021.9672183000002,3021.9829455,3021.9829455,3021.9829455,3022.2826047000017,3022.566603700001,,,,,,,,,,,,,,,,,,up,3.651485499998671,None,space,0.5681604999990668,None,P137,001,2024-12-13_12h53.49.438,posner_endo_new1,2024.2.4,60.036225858453655,2024-12-13 12h54.14.628114 +0000,
0.31,0.005,48,48,0,down,3.8844537000004493,None,space,0.416831499998807,None,,,,,,,,,0,48,48,48,3022.5823315000016,,,,,,,,,,,,3022.5667691000017,3022.5823315000016,3022.5823315000016,3026.4792393999996,,,,3026.479487299999,3026.4951820000024,3026.4951820000024,3026.4951820000024,3026.7948180999992,3026.9285882000004,,,,,,,,,,,,,,,,,,down,3.8844537000004493,None,space,0.416831499998807,None,P137,001,2024-12-13_12h53.49.438,posner_endo_new1,2024.2.4,60.036225858453655,2024-12-13 12h54.14.628114 +0000,
0.31,0.005,49,49,0,up,3.0913222999988648,None,space,0.5081849999987753,None,,,,,,,,,0,49,49,49,3026.944640599999,,,,,,,,,,,,3026.9287487,3026.944640599999,3026.944640599999,3030.042100999999,,,,3030.042343500001,3030.0580496000002,3030.0580496000002,3030.0580496000002,3030.3576679,3030.5749159000006,,,,,,,,,,,,,,,,,,up,3.0913222999988648,None,space,0.5081849999987753,None,P137,001,2024-12-13_12h53.49.438,posner_endo_new1,2024.2.4,60.036225858453655,2024-12-13 12h54.14.628114 +0000,
0.005,-0.31,50,50,0,down,11.29997000000003,None,space,0.516004700002668,None,,,,,,,,,0,50,50,50,3030.5909809000004,,,,,,,,,,,,3030.5750813000013,3030.5909809000004,3030.5909809000004,3041.896669400001,,,,3041.8969159000007,3041.912687,3041.912687,3041.912687,3042.2123307,3042.429489500002,,,,,,,,,,,,,,,,,,down,11.29997000000003,None,space,0.516004700002668,None,P137,001,2024-12-13_12h53.49.438,posner_endo_new1,2024.2.4,60.036225858453655,2024-12-13 12h54.14.628114 +0000,
10,0.005,51,51,0,up,3.8052619000009145,None,None,,,,,,,,,,,0,51,51,51,3042.4455275,,,,,,,,,,,,3042.4296546000005,3042.4455275,3042.4455275,3046.2589431000015,,,,3046.259198399999,3046.274739799999,3046.274739799999,3046.274739799999,3046.5744756999993,3049.271965600001,,,,3047.2738457000014,,,,,,,,,,,,,,up,3.8052619000009145,None,None,,,P137,001,2024-12-13_12h53.49.438,posner_endo_new1,2024.2.4,60.036225858453655,2024-12-13 12h54.14.628114 +0000,
0.31,0.005,52,52,0,down,0.6836747999986983,None,space,0.5103605000003881,None,,,,,,,,,0,52,52,52,3049.288391500002,,,,,,,,,,,,3049.2721351,3049.288391500002,3049.288391500002,3049.9885402,,,,3049.988800700001,3050.004593400001,3050.004593400001,3050.004593400001,3050.303993900001,3050.5213293000015,,,,,,,,,,,,,,,,,,down,0.6836747999986983,None,space,0.5103605000003881,None,P137,001,2024-12-13_12h53.49.438,posner_endo_new1,2024.2.4,60.036225858453655,2024-12-13 12h54.14.628114 +0000,
-0.31,0.005,53,53,0,up,2.6823293999987072,None,space,0.5315097999991849,None,,,,,,,,,0,53,53,53,3050.536998899999,,,,,,,,,,,,3050.5215045000004,3050.536998899999,3050.536998899999,3053.2353957000014,,,,3053.2356636000004,3053.251134599999,3053.251134599999,3053.251134599999,3053.5507851,3053.7847753000024,,,,,,,,,,,,,,,,,,up,2.6823293999987072,None,space,0.5315097999991849,None,P137,001,2024-12-13_12h53.49.438,posner_endo_new1,2024.2.4,60.036225858453655,2024-12-13 12h54.14.628114 +0000,
0.005,0.31,54,54,0,down,3.5062987999990582,None,space,0.5364388000016334,None,,,,,,,,,0,54,54,54,3053.8004745,,,,,,,,,,,,3053.784951900001,3053.8004745,3053.8004745,3057.3146006999996,,,,3057.314856000001,3057.330178700002,3057.330178700002,3057.330178700002,3057.6299349,3057.8804292000023,,,,,,,,,,,,,,,,,,down,3.5062987999990582,None,space,0.5364388000016334,None,P137,001,2024-12-13_12h53.49.438,posner_endo_new1,2024.2.4,60.036225858453655,2024-12-13 12h54.14.628114 +0000,
-0.31,0.005,55,55,0,up,9.362770399999135,None,space,0.5176448999991408,None,,,,,,,,,0,55,55,55,3057.8962856,,,,,,,,,,,,3057.8805901000014,3057.8962856,3057.8962856,3067.2709300999995,,,,3067.2712023999993,3067.286837200001,3067.286837200001,3067.286837200001,3067.586487299999,3067.8204345000013,,,,,,,,,,,,,,,,,,up,9.362770399999135,None,space,0.5176448999991408,None,P137,001,2024-12-13_12h53.49.438,posner_endo_new1,2024.2.4,60.036225858453655,2024-12-13 12h54.14.628114 +0000,
0.005,0.31,56,56,0,down,3.1432352000010724,None,space,0.8669479000018327,None,,,,,,,,,0,56,56,56,3067.8362240999995,,,,,,,,,,,,3067.8206056000017,3067.8362240999995,3067.8362240999995,3070.9838732999997,,,,3070.984128,3070.9996845000023,3070.9996845000023,3070.9996845000023,3071.299340900001,3071.882762000001,,,,,,,,,,,,,,,,,,down,3.1432352000010724,None,space,0.8669479000018327,None,P137,001,2024-12-13_12h53.49.438,posner_endo_new1,2024.2.4,60.036225858453655,2024-12-13 12h54.14.628114 +0000,
0.31,0.005,57,57,0,up,2.3522855999981402,None,space,0.5165449999985867,None,,,,,,,,,0,57,57,57,3071.8986984000003,,,,,,,,,,,,3071.8829337999996,3071.8986984000003,3071.8986984000003,3074.2636494,,,,3074.2639132000004,3074.2795250000017,3074.2795250000017,3074.2795250000017,3074.579373700002,3074.8132226000016,,,,,,,,,,,,,,,,,,up,2.3522855999981402,None,space,0.5165449999985867,None,P137,001,2024-12-13_12h53.49.438,posner_endo_new1,2024.2.4,60.036225858453655,2024-12-13 12h54.14.628114 +0000,
10,0.005,58,58,0,down,3.902673299999151,None,None,,,,,,,,,,,0,58,58,58,3074.8290815,,,,,,,,,,,,3074.813388800001,3074.8290815,3074.8290815,3078.7424281999993,,,,3078.7426914999996,3078.7582851000006,3078.7582851000006,3078.7582851000006,3079.0580477000003,3081.7554894000023,,,,3079.757238500002,,,,,,,,,,,,,,down,3.902673299999151,None,None,,,P137,001,2024-12-13_12h53.49.438,posner_endo_new1,2024.2.4,60.036225858453655,2024-12-13 12h54.14.628114 +0000,
10,0.005,59,59,0,up,1.0948387999997067,None,None,,,,,,,,,,,0,59,59,59,3081.7720020000015,,,,,,,,,,,,3081.7556554000003,3081.7720020000015,3081.7720020000015,3082.871473700001,,,,3082.871740499999,3082.887531700002,3082.887531700002,3082.887531700002,3083.187115500001,3085.8846587000007,,,,3083.9031853000015,,,,,,,,,,,,,,up,1.0948387999997067,None,None,,,P137,001,2024-12-13_12h53.49.438,posner_endo_new1,2024.2.4,60.036225858453655,2024-12-13 12h54.14.628114 +0000,
