target_y,target_x,thisN,thisTrialN,thisRepN,key_control2.keys,key_control2.rt,key_control2.duration,key_resp.keys,key_resp.rt,key_resp.duration,practice.thisRepN,practice.thisTrialN,practice.thisN,practice.thisIndex,session_1.thisRepN,session_1.thisTrialN,session_1.thisN,session_1.thisIndex,session_2.thisRepN,session_2.thisTrialN,session_2.thisN,session_2.thisIndex,thisRow.t,notes,instructions.started,instructions_txt.started,key_control.started,instructions.stopped,key_control.keys,key_control.rt,key_control.duration,ready.started,ready_txt.started,ready.stopped,fix.started,key_control2.started,fixation_cross.started,fix.stopped,practice.key_control2.keys,practice.key_control2.rt,practice.key_control2.duration,target.started,star.started,fixation_cross_target.started,key_resp.started,star.stopped,target.stopped,practice.key_resp.keys,practice.key_resp.rt,practice.key_resp.duration,key_resp.stopped,session_1.key_control2.keys,session_1.key_control2.rt,session_1.key_control2.duration,session_1.key_resp.keys,session_1.key_resp.rt,session_1.key_resp.duration,break_2.started,text.started,key_control3.started,break_2.stopped,key_control3.keys,session_2.key_control2.keys,session_2.key_control2.rt,session_2.key_control2.duration,session_2.key_resp.keys,session_2.key_resp.rt,session_2.key_resp.duration,participant,session,date,expName,psychopyVersion,frameRate,expStart,
,,,,,,,,,,,,,,,,,,,,,,,,,0.007645199999387842,0.027503299999807496,0.027503299999807496,409.81282609999835,up,409.77152549999664,None,,,,,,,,,,,,,,,,,,,,,,,,,,,,,,,,,,,,,,P138,001,2024-12-13_13h46.35.076,posner_endo_new1,2024.2.4,60.067527915541184,2024-12-13 13h46.42.369581 +0000,
,,,,,,,,,,,,,,,,,,,,,,,,,,,,,,,,409.8128915999987,409.8283195999975,412.8255468999996,,,,,,,,,,,,,,,,,,,,,,,,,,,,,,,,,,,P138,001,2024-12-13_13h46.35.076,posner_endo_new1,2024.2.4,60.067527915541184,2024-12-13 13h46.42.369581 +0000,
0.31,0.005,0,0,0,up,3.8905287999987195,None,space,0.39480649999677553,None,0,0,0,1,,,,,,,,,412.8443006999987,,,,,,,,,,,,412.83503969999947,412.8443006999987,412.8443006999987,416.738322899997,up,3.8905287999987195,None,416.7385850999999,416.7546168999979,416.7546168999979,416.7546168999979,417.0543156999993,417.15455949999887,space,0.39480649999677553,None,,,,,,,,,,,,,,,,,,,P138,001,2024-12-13_13h46.35.076,posner_endo_new1,2024.2.4,60.067527915541184,2024-12-13 13h46.42.369581 +0000,
0.005,-0.31,1,1,0,down,2.2365943000004336,None,space,0.3922063000027265,None,0,1,1,7,,,,,,,,,417.17094670000006,,,,,,,,,,,,417.1547284999979,417.17094670000006,417.17094670000006,419.41927739999664,down,2.2365943000004336,None,419.41954089999854,419.43524289999914,419.43524289999914,419.43524289999914,419.7349654999998,419.835549899999,space,0.3922063000027265,None,,,,,,,,,,,,,,,,,,,P138,001,2024-12-13_13h46.35.076,posner_endo_new1,2024.2.4,60.067527915541184,2024-12-13 13h46.42.369581 +0000,
-0.31,0.005,2,2,0,up,2.7481044000014663,None,space,0.3053254000005836,None,0,2,2,0,,,,,,,,,419.85154559999864,,,,,,,,,,,,419.8357154999976,419.85154559999864,419.85154559999864,422.6159738999995,up,2.7481044000014663,None,422.6162252999966,422.63187579999794,422.63187579999794,422.63187579999794,422.9315460999969,422.94885189999695,space,0.3053254000005836,None,,,,,,,,,,,,,,,,,,,P138,001,2024-12-13_13h46.35.076,posner_endo_new1,2024.2.4,60.067527915541184,2024-12-13 13h46.42.369581 +0000,
0.31,0.005,3,3,0,down,2.6979300000020885,None,space,0.3367742000009457,None,0,3,3,3,,,,,,,,,422.9649707999997,,,,,,,,,,,,422.94901989999926,422.9649707999997,422.9649707999997,425.6797098999996,down,2.6979300000020885,None,425.6799648999986,425.69575579999946,425.69575579999946,425.69575579999946,425.9952412999992,426.04586749999726,space,0.3367742000009457,None,,,,,,,,,,,,,,,,,,,P138,001,2024-12-13_13h46.35.076,posner_endo_new1,2024.2.4,60.067527915541184,2024-12-13 13h46.42.369581 +0000,
-0.31,0.005,4,4,0,up,3.0250950000008743,None,space,0.3160171999988961,None,0,4,4,2,,,,,,,,,426.06195279999883,,,,,,,,,,,,426.0460237999978,426.06195279999883,426.06195279999883,429.0927500999969,up,3.0250950000008743,None,429.0930214999971,429.10865179999746,429.10865179999746,429.10865179999746,429.40839219999907,429.4260723999978,space,0.3160171999988961,None,,,,,,,,,,,,,,,,,,,P138,001,2024-12-13_13h46.35.076,posner_endo_new1,2024.2.4,60.067527915541184,2024-12-13 13h46.42.369581 +0000,
0.005,10,5,5,0,down,2.5820278999999573,None,None,,,0,5,5,9,,,,,,,,,429.44166159999804,,,,,,,,,,,,429.42623289999756,429.44166159999804,429.44166159999804,432.0394959999976,down,2.5820278999999573,None,432.0397606999977,432.05558499999825,432.05558499999825,432.05558499999825,432.35517649999747,435.0526377999995,None,,,433.05459639999754,,,,,,,,,,,,,,,,,,P138,001,2024-12-13_13h46.35.076,posner_endo_new1,2024.2.4,60.067527915541184,2024-12-13 13h46.42.369581 +0000,
0.005,0.31,6,6,0,up,3.0177485999993223,None,space,0.37402640000073006,None,0,6,6,6,,,,,,,,,435.0691470999991,,,,,,,,,,,,435.05279289999817,435.0691470999991,435.0691470999991,438.1001763999993,up,3.0177485999993223,None,438.1004264999974,438.115853299998,438.115853299998,438.115853299998,438.41602059999786,438.5000966999978,space,0.37402640000073006,None,,,,,,,,,,,,,,,,,,,P138,001,2024-12-13_13h46.35.076,posner_endo_new1,2024.2.4,60.067527915541184,2024-12-13 13h46.42.369581 +0000,
0.005,-0.31,7,7,0,down,3.395297600000049,None,space,0.3714405999999144,None,0,7,7,5,,,,,,,,,438.51579409999977,,,,,,,,,,,,438.5002543999981,438.51579409999977,438.51579409999977,441.9133804999983,down,3.395297600000049,None,441.9136357999996,441.92886969999745,441.92886969999745,441.92886969999745,442.228143999997,442.31262159999824,space,0.3714405999999144,None,,,,,,,,,,,,,,,,,,,P138,001,2024-12-13_13h46.35.076,posner_endo_new1,2024.2.4,60.067527915541184,2024-12-13 13h46.42.369581 +0000,
0.005,0.31,8,8,0,up,2.8229585999979463,None,space,0.4431765000008454,None,0,8,8,8,,,,,,,,,442.3284791999977,,,,,,,,,,,,442.31278159999783,442.3284791999977,442.3284791999977,445.15934279999783,up,2.8229585999979463,None,445.1596043999998,445.1755856999989,445.1755856999989,445.1755856999989,445.475383099998,445.6259140999973,space,0.4431765000008454,None,,,,,,,,,,,,,,,,,,,P138,001,2024-12-13_13h46.35.076,posner_endo_new1,2024.2.4,60.067527915541184,2024-12-13 13h46.42.369581 +0000,
10,0.005,9,9,0,down,6.093144700000266,None,None,,,0,9,9,4,,,,,,,,,445.6421115999983,,,,,,,,,,,,445.62607979999666,445.6421115999983,445.6421115999983,451.736696699998,down,6.093144700000266,None,451.73694859999887,451.7520059999988,451.7520059999988,451.7520059999988,452.05192069999976,454.74913039999956,None,,,452.7673382999965,,,,,,,,,,,,,,,,,,P138,001,2024-12-13_13h46.35.076,posner_endo_new1,2024.2.4,60.067527915541184,2024-12-13 13h46.42.369581 +0000,
,,,,,,,,,,,,,,,,,,,,,,,,,,,,,,,,454.7492401999989,454.76585239999986,457.74616499999684,,,,,,,,,,,,,,,,,,,,,,,,,,,,,,,,,,,P138,001,2024-12-13_13h46.35.076,posner_endo_new1,2024.2.4,60.067527915541184,2024-12-13 13h46.42.369581 +0000,
-0.31,0.005,0,0,0,up,17.674591599999985,None,space,0.35570930000176304,None,,,,,0,0,0,0,,,,,457.7651236999991,,,,,,,,,,,,457.75445679999757,457.7651236999991,457.7651236999991,475.44566439999835,,,,475.44592609999745,475.4613271999988,475.4613271999988,475.4613271999988,475.7609922999982,475.8285543999991,,,,,up,17.674591599999985,None,space,0.35570930000176304,None,,,,,,,,,,,,P138,001,2024-12-13_13h46.35.076,posner_endo_new1,2024.2.4,60.067527915541184,2024-12-13 13h46.42.369581 +0000,
0.005,-0.31,1,1,0,down,4.011295899999823,None,space,0.33279749999928754,None,,,,,0,1,1,1,,,,,475.84410699999717,,,,,,,,,,,,475.82872139999745,475.84410699999717,475.84410699999717,479.8575807999987,,,,479.8578424999978,479.87380069999926,479.87380069999926,479.87380069999926,480.17275649999647,480.2074117999982,,,,,down,4.011295899999823,None,space,0.33279749999928754,None,,,,,,,,,,,,P138,001,2024-12-13_13h46.35.076,posner_endo_new1,2024.2.4,60.067527915541184,2024-12-13 13h46.42.369581 +0000,
10,0.005,2,2,0,up,3.904484399998182,None,None,,,,,,,0,2,2,2,,,,,480.22300969999924,,,,,,,,,,,,480.2075757999992,480.22300969999924,480.22300969999924,484.13673109999945,,,,484.1369992999971,484.1524049999971,484.1524049999971,484.1524049999971,484.45224769999913,487.1494986999969,,,,485.15145929999926,up,3.904484399998182,None,None,,,,,,,,,,,,,,P138,001,2024-12-13_13h46.35.076,posner_endo_new1,2024.2.4,60.067527915541184,2024-12-13 13h46.42.369581 +0000,
0.005,-0.31,3,3,0,down,3.5053843000023335,None,space,0.33853390000149375,None,,,,,0,3,3,3,,,,,487.1659323999993,,,,,,,,,,,,487.14966149999964,487.1659323999993,487.1659323999993,490.6799131999978,,,,490.6801662999969,490.6955424999978,490.6955424999978,490.6955424999978,490.9955654999976,491.0461624999989,,,,,down,3.5053843000023335,None,space,0.33853390000149375,None,,,,,,,,,,,,P138,001,2024-12-13_13h46.35.076,posner_endo_new1,2024.2.4,60.067527915541184,2024-12-13 13h46.42.369581 +0000,
0.005,-0.31,4,4,0,up,4.809575399998721,None,space,0.39336440000261064,None,,,,,0,4,4,4,,,,,491.0623343999978,,,,,,,,,,,,491.04633419999664,491.0623343999978,491.0623343999978,495.87461469999835,,,,495.8748730999978,495.8903771999976,495.8903771999976,495.8903771999976,496.19016649999685,496.2906238999967,,,,,up,4.809575399998721,None,space,0.39336440000261064,None,,,,,,,,,,,,P138,001,2024-12-13_13h46.35.076,posner_endo_new1,2024.2.4,60.067527915541184,2024-12-13 13h46.42.369581 +0000,
0.005,-0.31,5,5,0,down,3.5166021999975783,None,space,0.36320859999977984,None,,,,,0,5,5,5,,,,,496.30663339999955,,,,,,,,,,,,496.2907903999985,496.30663339999955,496.30663339999955,499.837254799997,,,,499.8375168999992,499.8530957999974,499.8530957999974,499.8530957999974,500.152788899999,500.22015869999814,,,,,down,3.5166021999975783,None,space,0.36320859999977984,None,,,,,,,,,,,,P138,001,2024-12-13_13h46.35.076,posner_endo_new1,2024.2.4,60.067527915541184,2024-12-13 13h46.42.369581 +0000,
0.005,0.31,6,6,0,up,3.1799190000019735,None,space,0.3433388000012201,None,,,,,0,6,6,6,,,,,500.23590449999756,,,,,,,,,,,,500.2203260999995,500.23590449999756,500.23590449999756,503.4169211999979,,,,503.4171695999976,503.4325467999988,503.4325467999988,503.4325467999988,503.73246259999723,503.7832746999993,,,,,up,3.1799190000019735,None,space,0.3433388000012201,None,,,,,,,,,,,,P138,001,2024-12-13_13h46.35.076,posner_endo_new1,2024.2.4,60.067527915541184,2024-12-13 13h46.42.369581 +0000,
0.005,0.31,7,7,0,down,6.376776999997674,None,space,0.4225592000002507,None,,,,,0,7,7,7,,,,,503.7991800999989,,,,,,,,,,,,503.7834449999973,503.7991800999989,503.7991800999989,510.17677959999855,,,,510.17704689999664,510.19264989999647,510.19264989999647,510.19264989999647,510.4922540999978,510.62563919999957,,,,,down,6.376776999997674,None,space,0.4225592000002507,None,,,,,,,,,,,,P138,001,2024-12-13_13h46.35.076,posner_endo_new1,2024.2.4,60.067527915541184,2024-12-13 13h46.42.369581 +0000,
-0.31,0.005,8,8,0,up,3.58992230000149,None,space,0.48325999999724445,None,,,,,0,8,8,8,,,,,510.64211649999925,,,,,,,,,,,,510.6258067999988,510.64211649999925,510.64211649999925,514.2391401999994,,,,514.2393944999967,514.2550108999967,514.2550108999967,514.2550108999967,514.5546244999969,514.739071699998,,,,,up,3.58992230000149,None,space,0.48325999999724445,None,,,,,,,,,,,,P138,001,2024-12-13_13h46.35.076,posner_endo_new1,2024.2.4,60.067527915541184,2024-12-13 13h46.42.369581 +0000,
-0.31,0.005,9,9,0,down,3.7566275999997742,None,space,0.37069440000050236,None,,,,,0,9,9,9,,,,,514.7543275999997,,,,,,,,,,,,514.7392373999974,514.7543275999997,514.7543275999997,518.5181341999996,,,,518.5183877999989,518.5339537999971,518.5339537999971,518.5339537999971,518.8336072999991,518.9178210999999,,,,,down,3.7566275999997742,None,space,0.37069440000050236,None,,,,,,,,,,,,P138,001,2024-12-13_13h46.35.076,posner_endo_new1,2024.2.4,60.067527915541184,2024-12-13 13h46.42.369581 +0000,
-0.31,0.005,10,10,0,up,3.4341090000016266,None,space,0.32999220000056084,None,,,,,0,10,10,10,,,,,518.9335087,,,,,,,,,,,,518.9179860999975,518.9335087,518.9335087,522.3810130999991,,,,522.3812793999969,522.3968130999965,522.3968130999965,522.3968130999965,522.6963129999967,522.7305671999966,,,,,up,3.4341090000016266,None,space,0.32999220000056084,None,,,,,,,,,,,,P138,001,2024-12-13_13h46.35.076,posner_endo_new1,2024.2.4,60.067527915541184,2024-12-13 13h46.42.369581 +0000,
-0.31,0.005,11,11,0,down,4.324873800000205,None,space,0.35262239999792655,None,,,,,0,11,11,11,,,,,522.7464540999972,,,,,,,,,,,,522.7307350999981,522.7464540999972,522.7464540999972,527.0761231999968,,,,527.0763821,527.0919250999978,527.0919250999978,527.0919250999978,527.3916394999978,527.458732799998,,,,,down,4.324873800000205,None,space,0.35262239999792655,None,,,,,,,,,,,,P138,001,2024-12-13_13h46.35.076,posner_endo_new1,2024.2.4,60.067527915541184,2024-12-13 13h46.42.369581 +0000,
0.005,-0.31,12,12,0,up,3.0846769000017957,None,space,0.3034957000018039,None,,,,,0,12,12,12,,,,,527.4746570999996,,,,,,,,,,,,527.4589035999998,527.4746570999996,527.4746570999996,530.572655699998,,,,530.5729107999978,530.5885936999985,530.5885936999985,530.5885936999985,530.8880419999987,530.9054199999991,,,,,up,3.0846769000017957,None,space,0.3034957000018039,None,,,,,,,,,,,,P138,001,2024-12-13_13h46.35.076,posner_endo_new1,2024.2.4,60.067527915541184,2024-12-13 13h46.42.369581 +0000,
0.005,-0.31,13,13,0,down,6.438732399998116,None,space,0.3193154999971739,None,,,,,0,13,13,13,,,,,530.9211309999991,,,,,,,,,,,,530.9055950999973,530.9211309999991,530.9211309999991,537.365773999998,,,,537.3660347999976,537.381426099997,537.381426099997,537.381426099997,537.6810767999996,537.7152970999996,,,,,down,6.438732399998116,None,space,0.3193154999971739,None,,,,,,,,,,,,P138,001,2024-12-13_13h46.35.076,posner_endo_new1,2024.2.4,60.067527915541184,2024-12-13 13h46.42.369581 +0000,
-0.31,0.005,14,14,0,up,2.9243698000027507,None,space,0.3460688000013761,None,,,,,0,14,14,14,,,,,537.7306759999992,,,,,,,,,,,,537.7154675999991,537.7306759999992,537.7306759999992,540.6618999999992,,,,540.6621558999977,540.6779128999988,540.6779128999988,540.6779128999988,540.9777205999999,541.0286263999988,,,,,up,2.9243698000027507,None,space,0.3460688000013761,None,,,,,,,,,,,,P138,001,2024-12-13_13h46.35.076,posner_endo_new1,2024.2.4,60.067527915541184,2024-12-13 13h46.42.369581 +0000,
10,0.005,15,15,0,down,4.746917000000394,None,None,,,,,,,0,15,15,15,,,,,541.0442607999976,,,,,,,,,,,,541.0287903999997,541.0442607999976,541.0442607999976,545.8070038999977,,,,545.8072672999988,545.822822099999,545.822822099999,545.822822099999,546.1225371,548.8200152999998,,,,546.8219471999982,down,4.746917000000394,None,None,,,,,,,,,,,,,,P138,001,2024-12-13_13h46.35.076,posner_endo_new1,2024.2.4,60.067527915541184,2024-12-13 13h46.42.369581 +0000,
0.005,0.31,16,16,0,up,0.2906152999967162,None,space,0.3434411000016553,None,,,,,0,16,16,16,,,,,548.8364423999992,,,,,,,,,,,,548.8201782999968,548.8364423999992,548.8364423999992,549.1367530999996,,,,549.1370131999975,549.1526645999984,549.1526645999984,549.1526645999984,549.452379899998,549.5031307999998,,,,,up,0.2906152999967162,None,space,0.3434411000016553,None,,,,,,,,,,,,P138,001,2024-12-13_13h46.35.076,posner_endo_new1,2024.2.4,60.067527915541184,2024-12-13 13h46.42.369581 +0000,
0.005,-0.31,17,17,0,down,10.592352800002118,None,space,0.2836615000014717,None,,,,,0,17,17,17,,,,,549.5191655999988,,,,,,,,,,,,549.5032991999979,549.5191655999988,549.5191655999988,560.1258768999978,,,,560.1261318999968,560.1419283999967,560.1419283999967,560.1419283999967,560.4412416999985,560.4421152999967,,,,,down,10.592352800002118,None,space,0.2836615000014717,None,,,,,,,,,,,,P138,001,2024-12-13_13h46.35.076,posner_endo_new1,2024.2.4,60.067527915541184,2024-12-13 13h46.42.369581 +0000,
10,0.005,18,18,0,up,3.9338443000015104,None,None,,,,,,,0,18,18,18,,,,,560.4578363,,,,,,,,,,,,560.4422809999996,560.4578363,560.4578363,564.4045030999987,,,,564.4047584999971,564.4205053999976,564.4205053999976,564.4205053999976,564.7201241999974,567.417425399999,,,,565.4195002999986,up,3.9338443000015104,None,None,,,,,,,,,,,,,,P138,001,2024-12-13_13h46.35.076,posner_endo_new1,2024.2.4,60.067527915541184,2024-12-13 13h46.42.369581 +0000,
10,0.005,19,19,0,down,1.014431000003242,None,None,,,,,,,0,19,19,19,,,,,567.4339936999968,,,,,,,,,,,,567.4175875999972,567.4339936999968,567.4339936999968,568.4507441999995,,,,568.451000099998,568.466488099999,568.466488099999,568.466488099999,568.7659886999973,571.4632692999985,,,,569.4652284999975,down,1.014431000003242,None,None,,,,,,,,,,,,,,P138,001,2024-12-13_13h46.35.076,posner_endo_new1,2024.2.4,60.067527915541184,2024-12-13 13h46.42.369581 +0000,
0.005,0.31,20,20,0,up,6.263283600001159,None,space,0.3456901999998081,None,,,,,0,20,20,20,,,,,571.4801396999974,,,,,,,,,,,,571.4634326999985,571.4801396999974,571.4801396999974,577.7576316999985,,,,577.7578834999986,577.7735527999976,577.7735527999976,577.7735527999976,578.0731182999989,578.1242026999971,,,,,up,6.263283600001159,None,space,0.3456901999998081,None,,,,,,,,,,,,P138,001,2024-12-13_13h46.35.076,posner_endo_new1,2024.2.4,60.067527915541184,2024-12-13 13h46.42.369581 +0000,
0.005,-0.31,21,21,0,down,4.155966599999374,None,space,0.36247179999918444,None,,,,,0,21,21,21,,,,,578.1399029999993,,,,,,,,,,,,578.1243773999995,578.1399029999993,578.1399029999993,582.3028589999994,,,,582.303121099998,582.3189970999993,582.3189970999993,582.3189970999993,582.6181294999988,582.6859665999982,,,,,down,4.155966599999374,None,space,0.36247179999918444,None,,,,,,,,,,,,P138,001,2024-12-13_13h46.35.076,posner_endo_new1,2024.2.4,60.067527915541184,2024-12-13 13h46.42.369581 +0000,
0.005,-0.31,22,22,0,up,3.4341456000001926,None,space,0.3299806999966677,None,,,,,0,22,22,22,,,,,582.701811699997,,,,,,,,,,,,582.686139399997,582.701811699997,582.701811699997,586.1491018999986,,,,586.1493658999971,586.1650807999977,586.1650807999977,586.1650807999977,586.4643862999983,586.4987485999991,,,,,up,3.4341456000001926,None,space,0.3299806999966677,None,,,,,,,,,,,,P138,001,2024-12-13_13h46.35.076,posner_endo_new1,2024.2.4,60.067527915541184,2024-12-13 13h46.42.369581 +0000,
10,0.005,23,23,0,down,3.7410861999996996,None,None,,,,,,,0,23,23,23,,,,,586.5146686999979,,,,,,,,,,,,586.4989200999989,586.5146686999979,586.5146686999979,590.2615972999993,,,,590.261854299999,590.2772823999985,590.2772823999985,590.2772823999985,590.5772242999992,593.2744121999967,,,,591.2763298999998,down,3.7410861999996996,None,None,,,,,,,,,,,,,,P138,001,2024-12-13_13h46.35.076,posner_endo_new1,2024.2.4,60.067527915541184,2024-12-13 13h46.42.369581 +0000,
10,0.005,24,24,0,up,1.4125921000013477,None,None,,,,,,,0,24,24,24,,,,,593.291015499999,,,,,,,,,,,,593.2745722,593.291015499999,593.291015499999,594.706656899998,,,,594.7069258999982,594.7229698999981,594.7229698999981,594.7229698999981,595.0225683999997,597.7197306999988,,,,595.7384992999978,up,1.4125921000013477,None,None,,,,,,,,,,,,,,P138,001,2024-12-13_13h46.35.076,posner_endo_new1,2024.2.4,60.067527915541184,2024-12-13 13h46.42.369581 +0000,
0.005,0.31,25,25,0,down,2.775321000000986,None,space,0.42240250000031665,None,,,,,0,25,25,25,,,,,597.7366468999971,,,,,,,,,,,,597.7198933999971,597.7366468999971,597.7366468999971,600.5177163999979,,,,600.5179762999978,600.5336473999996,600.5336473999996,600.5336473999996,600.8334287999969,600.9673883999967,,,,,down,2.775321000000986,None,space,0.42240250000031665,None,,,,,,,,,,,,P138,001,2024-12-13_13h46.35.076,posner_endo_new1,2024.2.4,60.067527915541184,2024-12-13 13h46.42.369581 +0000,
0.31,0.005,26,26,0,up,2.6324702000019897,None,space,0.37351309999939986,None,,,,,0,26,26,26,,,,,600.9833937999974,,,,,,,,,,,,600.9675618999972,600.9833937999974,600.9833937999974,603.6313138999976,,,,603.6315754999996,603.6470824999997,603.6470824999997,603.6470824999997,603.9466404999985,604.0310367999991,,,,,up,2.6324702000019897,None,space,0.37351309999939986,None,,,,,,,,,,,,P138,001,2024-12-13_13h46.35.076,posner_endo_new1,2024.2.4,60.067527915541184,2024-12-13 13h46.42.369581 +0000,
-0.31,0.005,27,27,0,down,3.729636100000789,None,space,0.3868949000025168,None,,,,,0,27,27,27,,,,,604.0463683999988,,,,,,,,,,,,604.0312047999978,604.0463683999988,604.0463683999988,607.7770901999975,,,,607.7773435999989,607.7928055999982,607.7928055999982,607.7928055999982,608.0925085999988,608.1933606999992,,,,,down,3.729636100000789,None,space,0.3868949000025168,None,,,,,,,,,,,,P138,001,2024-12-13_13h46.35.076,posner_endo_new1,2024.2.4,60.067527915541184,2024-12-13 13h46.42.369581 +0000,
0.005,-0.31,28,28,0,up,6.510264900000038,None,space,0.3805343999993056,None,,,,,0,28,28,28,,,,,608.2090669999998,,,,,,,,,,,,608.1935350999993,608.2090669999998,608.2090669999998,614.7201246999975,,,,614.7203799999988,614.7357537999997,614.7357537999997,614.7357537999997,615.0355335999993,615.1195450999985,,,,,up,6.510264900000038,None,space,0.3805343999993056,None,,,,,,,,,,,,P138,001,2024-12-13_13h46.35.076,posner_endo_new1,2024.2.4,60.067527915541184,2024-12-13 13h46.42.369581 +0000,
0.005,-0.31,29,29,0,down,5.1682461999989755,None,space,0.2868750999987242,None,,,,,0,29,29,29,,,,,615.1351509999986,,,,,,,,,,,,615.1197113999988,615.1351509999986,615.1351509999986,620.3142740999974,,,,620.3145369999984,620.3300030999999,620.3300030999999,620.3300030999999,620.6297903999985,620.6306487999973,,,,,down,5.1682461999989755,None,space,0.2868750999987242,None,,,,,,,,,,,,P138,001,2024-12-13_13h46.35.076,posner_endo_new1,2024.2.4,60.067527915541184,2024-12-13 13h46.42.369581 +0000,
10,0.005,30,30,0,up,5.009251700001187,None,None,,,,,,,0,30,30,30,,,,,620.6463519999998,,,,,,,,,,,,620.6308125999967,620.6463519999998,620.6463519999998,625.6590156999991,,,,625.6592732999998,625.6746903999992,625.6746903999992,625.6746903999992,625.9742124999975,628.6716191999985,,,,626.6902962999993,up,5.009251700001187,None,None,,,,,,,,,,,,,,P138,001,2024-12-13_13h46.35.076,posner_endo_new1,2024.2.4,60.067527915541184,2024-12-13 13h46.42.369581 +0000,
0.005,-0.31,31,31,0,down,2.144068099998549,None,space,0.3235132000008889,None,,,,,0,31,31,31,,,,,628.687992799998,,,,,,,,,,,,628.6717793999997,628.687992799998,628.687992799998,630.8367429999998,,,,630.8370165999986,630.8527145999979,630.8527145999979,630.8527145999979,631.1522761999986,631.1860643999971,,,,,down,2.144068099998549,None,space,0.3235132000008889,None,,,,,,,,,,,,P138,001,2024-12-13_13h46.35.076,posner_endo_new1,2024.2.4,60.067527915541184,2024-12-13 13h46.42.369581 +0000,
0.31,0.005,32,32,0,up,4.917863400001806,None,space,0.42050920000110636,None,,,,,0,32,32,32,,,,,631.2021741999997,,,,,,,,,,,,631.1862270999991,631.2021741999997,631.2021741999997,636.1312420999966,,,,636.1314935999981,636.1471469999997,636.1471469999997,636.1471469999997,636.446862599998,636.5810093999971,,,,,up,4.917863400001806,None,space,0.42050920000110636,None,,,,,,,,,,,,P138,001,2024-12-13_13h46.35.076,posner_endo_new1,2024.2.4,60.067527915541184,2024-12-13 13h46.42.369581 +0000,
0.005,-0.31,33,33,0,down,20.95455840000068,None,space,0.2689853000010771,None,,,,,0,33,33,33,,,,,636.5968040999978,,,,,,,,,,,,636.5811843999982,636.5968040999978,636.5968040999978,657.5596355999987,,,,657.5598971,657.5751303999969,657.5751303999969,657.5751303999969,657.875002599998,657.8592714999977,,,,,down,20.95455840000068,None,space,0.2689853000010771,None,,,,,,,,,,,,P138,001,2024-12-13_13h46.35.076,posner_endo_new1,2024.2.4,60.067527915541184,2024-12-13 13h46.42.369581 +0000,
10,0.005,34,34,0,up,4.860612799999217,None,None,,,,,,,0,34,34,34,,,,,657.875002599998,,,,,,,,,,,,657.8594362999975,657.875002599998,657.875002599998,662.7378125999967,,,,662.7380732999991,662.7534033999982,662.7534033999982,662.7534033999982,663.053143699999,665.7505928999999,,,,663.7691999999988,up,4.860612799999217,None,None,,,,,,,,,,,,,,P138,001,2024-12-13_13h46.35.076,posner_endo_new1,2024.2.4,60.067527915541184,2024-12-13 13h46.42.369581 +0000,
0.31,0.005,35,35,0,down,0.8891841999975441,None,space,0.5545898000018497,None,,,,,0,35,35,35,,,,,665.7668438000001,,,,,,,,,,,,665.7507553999967,665.7668438000001,665.7668438000001,666.666902099998,,,,666.6671594999971,666.6827715,666.6827715,666.6827715,666.9823904999976,667.2497076,,,,,down,0.8891841999975441,None,space,0.5545898000018497,None,,,,,,,,,,,,P138,001,2024-12-13_13h46.35.076,posner_endo_new1,2024.2.4,60.067527915541184,2024-12-13 13h46.42.369581 +0000,
0.31,0.005,36,36,0,up,3.0305948999994143,None,space,0.4238119999972696,None,,,,,0,36,36,36,,,,,667.2653501999994,,,,,,,,,,,,667.2498718999996,667.2653501999994,667.2653501999994,670.2967364999968,,,,670.2969989999983,670.3122575999987,670.3122575999987,670.3122575999987,670.6120779999983,670.7460395999988,,,,,up,3.0305948999994143,None,space,0.4238119999972696,None,,,,,,,,,,,,P138,001,2024-12-13_13h46.35.076,posner_endo_new1,2024.2.4,60.067527915541184,2024-12-13 13h46.42.369581 +0000,
-0.31,0.005,37,37,0,down,5.006477400002041,None,space,0.33756540000103996,None,,,,,0,37,37,37,,,,,670.7621015999975,,,,,,,,,,,,670.746211499998,670.7621015999975,670.7621015999975,675.774281799997,,,,675.7745383999973,675.7901331999965,675.7901331999965,675.7901331999965,676.0900888999968,676.1404548999999,,,,,down,5.006477400002041,None,space,0.33756540000103996,None,,,,,,,,,,,,P138,001,2024-12-13_13h46.35.076,posner_endo_new1,2024.2.4,60.067527915541184,2024-12-13 13h46.42.369581 +0000,
0.005,0.31,38,38,0,up,3.6196367999982613,None,space,0.38506490000145277,None,,,,,0,38,38,38,,,,,676.1564569999973,,,,,,,,,,,,676.1406267999992,676.1564569999973,676.1564569999973,679.7868049999997,,,,679.7870647999989,679.8025154999996,679.8025154999996,679.8025154999996,680.1022958999965,680.2031208999979,,,,,up,3.6196367999982613,None,space,0.38506490000145277,None,,,,,,,,,,,,P138,001,2024-12-13_13h46.35.076,posner_endo_new1,2024.2.4,60.067527915541184,2024-12-13 13h46.42.369581 +0000,
0.005,0.31,39,39,0,down,4.829843200001051,None,space,0.3175221000019519,None,,,,,0,39,39,39,,,,,680.2187178999993,,,,,,,,,,,,680.2032940999998,680.2187178999993,680.2187178999993,685.0647284999977,,,,685.0649833999996,685.0805836,685.0805836,685.0805836,685.3802761999978,685.4143777999998,,,,,down,4.829843200001051,None,space,0.3175221000019519,None,,,,,,,,,,,,P138,001,2024-12-13_13h46.35.076,posner_endo_new1,2024.2.4,60.067527915541184,2024-12-13 13h46.42.369581 +0000,
-0.31,0.005,40,40,0,up,2.68973239999832,None,space,0.3350194000013289,None,,,,,0,40,40,40,,,,,685.4301662999969,,,,,,,,,,,,685.414552299997,685.4301662999969,685.4301662999969,688.128270199999,,,,688.1285351999977,688.1440597999972,688.1440597999972,688.1440597999972,688.4433394999978,688.494823699999,,,,,up,2.68973239999832,None,space,0.3350194000013289,None,,,,,,,,,,,,P138,001,2024-12-13_13h46.35.076,posner_endo_new1,2024.2.4,60.067527915541184,2024-12-13 13h46.42.369581 +0000,
10,0.005,41,41,0,down,15.23374640000111,None,None,,,,,,,0,41,41,41,,,,,688.5105990999982,,,,,,,,,,,,688.4949918999991,688.5105990999982,688.5105990999982,703.7458608999987,,,,703.7461147999966,703.7615175999999,703.7615175999999,703.7615175999999,704.061216099999,706.7587321999999,,,,704.7603299999973,down,15.23374640000111,None,None,,,,,,,,,,,,,,P138,001,2024-12-13_13h46.35.076,posner_endo_new1,2024.2.4,60.067527915541184,2024-12-13 13h46.42.369581 +0000,
-0.31,0.005,42,42,0,up,2.249045600001409,None,space,0.3604960000011488,None,,,,,0,42,42,42,,,,,706.7751486999987,,,,,,,,,,,,706.7588939999987,706.7751486999987,706.7751486999987,709.0402313999984,,,,709.0404894999992,709.0560646999984,709.0560646999984,709.0560646999984,709.3558345999991,709.4235623999994,,,,,up,2.249045600001409,None,space,0.3604960000011488,None,,,,,,,,,,,,P138,001,2024-12-13_13h46.35.076,posner_endo_new1,2024.2.4,60.067527915541184,2024-12-13 13h46.42.369581 +0000,
-0.31,0.005,43,43,0,down,6.856955200000812,None,space,0.3792022999987239,None,,,,,0,43,43,43,,,,,709.4393555999995,,,,,,,,,,,,709.423730999999,709.4393555999995,709.4393555999995,716.2995056999971,,,,716.2997683999965,716.3153418999973,716.3153418999973,716.3153418999973,716.6148944999986,716.6991925999973,,,,,down,6.856955200000812,None,space,0.3792022999987239,None,,,,,,,,,,,,P138,001,2024-12-13_13h46.35.076,posner_endo_new1,2024.2.4,60.067527915541184,2024-12-13 13h46.42.369581 +0000,
0.005,0.31,44,44,0,up,10.541643900000054,None,space,0.3979833999983384,None,,,,,0,44,44,44,,,,,716.7147615999966,,,,,,,,,,,,716.6993729999995,716.7147615999966,716.7147615999966,727.2719708999975,,,,727.2722287999968,727.2877340999985,727.2877340999985,727.2877340999985,727.5871354999981,727.6881377999998,,,,,up,10.541643900000054,None,space,0.3979833999983384,None,,,,,,,,,,,,P138,001,2024-12-13_13h46.35.076,posner_endo_new1,2024.2.4,60.067527915541184,2024-12-13 13h46.42.369581 +0000,
10,0.005,45,45,0,down,9.728072699999757,None,None,,,,,,,0,45,45,45,,,,,727.7037707999989,,,,,,,,,,,,727.6883026999967,727.7037707999989,727.7037707999989,737.4442356999971,,,,737.444490599999,737.4604817999971,737.4604817999971,737.4604817999971,737.7601037999993,740.4574972999981,,,,738.4594488999974,down,9.728072699999757,None,None,,,,,,,,,,,,,,P138,001,2024-12-13_13h46.35.076,posner_endo_new1,2024.2.4,60.067527915541184,2024-12-13 13h46.42.369581 +0000,
0.005,-0.31,46,46,0,up,0.38226319999739644,None,space,0.4259181000015815,None,,,,,0,46,46,46,,,,,740.4740048999993,,,,,,,,,,,,740.4576672999974,740.4740048999993,740.4740048999993,740.8579698999965,,,,740.8582267999991,740.8735516999986,740.8735516999986,740.8735516999986,741.1734268,741.307571399997,,,,,up,0.38226319999739644,None,space,0.4259181000015815,None,,,,,,,,,,,,P138,001,2024-12-13_13h46.35.076,posner_endo_new1,2024.2.4,60.067527915541184,2024-12-13 13h46.42.369581 +0000,
-0.31,0.005,47,47,0,down,4.6848716999993485,None,space,0.3636229000003368,None,,,,,0,47,47,47,,,,,741.3232246999978,,,,,,,,,,,,741.3077419999972,741.3232246999978,741.3232246999978,746.0192021999974,,,,746.0194638999965,746.0350801999994,746.0350801999994,746.0350801999994,746.3347079999985,746.4022792999967,,,,,down,4.6848716999993485,None,space,0.3636229000003368,None,,,,,,,,,,,,P138,001,2024-12-13_13h46.35.076,posner_endo_new1,2024.2.4,60.067527915541184,2024-12-13 13h46.42.369581 +0000,
-0.31,0.005,48,48,0,up,3.358342300001823,None,space,0.28849970000010217,None,,,,,0,48,48,48,,,,,746.4179396,,,,,,,,,,,,746.4024424999989,746.4179396,746.4179396,749.7816446999968,,,,749.7819073999999,749.7977251999982,749.7977251999982,749.7977251999982,750.0974928999967,750.0983842999995,,,,,up,3.358342300001823,None,space,0.28849970000010217,None,,,,,,,,,,,,P138,001,2024-12-13_13h46.35.076,posner_endo_new1,2024.2.4,60.067527915541184,2024-12-13 13h46.42.369581 +0000,
-0.31,0.005,49,49,0,down,5.581920999997237,None,space,0.2815974999975879,None,,,,,0,49,49,49,,,,,750.1142681999991,,,,,,,,,,,,750.098545599998,750.1142681999991,750.1142681999991,755.708986499998,,,,755.7092434999977,755.7251477999998,755.7251477999998,755.7251477999998,756.0247242999976,756.0089076999975,,,,,down,5.581920999997237,None,space,0.2815974999975879,None,,,,,,,,,,,,P138,001,2024-12-13_13h46.35.076,posner_endo_new1,2024.2.4,60.067527915541184,2024-12-13 13h46.42.369581 +0000,
0.31,0.005,50,50,0,up,3.742757799998799,None,space,0.2673785999977554,None,,,,,0,50,50,50,,,,,756.0247242999976,,,,,,,,,,,,756.0090789999995,756.0247242999976,756.0247242999976,759.7713818999982,,,,759.7716383999978,759.7876613999979,759.7876613999979,759.7876613999979,760.0874616999972,760.071534499999,,,,,up,3.742757799998799,None,space,0.2673785999977554,None,,,,,,,,,,,,P138,001,2024-12-13_13h46.35.076,posner_endo_new1,2024.2.4,60.067527915541184,2024-12-13 13h46.42.369581 +0000,
0.31,0.005,51,51,0,down,4.151963800002704,None,space,0.28499770000053104,None,,,,,0,51,51,51,,,,,760.0874616999972,,,,,,,,,,,,760.0716988999993,760.0874616999972,760.0874616999972,764.2504519999966,,,,764.2507244999979,764.2664422999987,764.2664422999987,764.2664422999987,764.5661647999987,764.5670765999967,,,,,down,4.151963800002704,None,space,0.28499770000053104,None,,,,,,,,,,,,P138,001,2024-12-13_13h46.35.076,posner_endo_new1,2024.2.4,60.067527915541184,2024-12-13 13h46.42.369581 +0000,
0.31,0.005,52,52,0,up,3.753187699996488,None,space,0.34958669999832637,None,,,,,0,52,52,52,,,,,764.5828576999993,,,,,,,,,,,,764.5672401999982,764.5828576999993,764.5828576999993,768.3464224999989,,,,768.346678599999,768.3622340999973,768.3622340999973,768.3622340999973,768.6620401999971,768.7127109999965,,,,,up,3.753187699996488,None,space,0.34958669999832637,None,,,,,,,,,,,,P138,001,2024-12-13_13h46.35.076,posner_endo_new1,2024.2.4,60.067527915541184,2024-12-13 13h46.42.369581 +0000,
0.005,0.31,53,53,0,down,5.1757092000007106,None,space,0.38962079999691923,None,,,,,0,53,53,53,,,,,768.7285176999976,,,,,,,,,,,,768.7128777999969,768.7285176999976,768.7285176999976,773.9075366999969,,,,773.9077962999982,773.9232204999971,773.9232204999971,773.9232204999971,774.222912899997,774.3231642999999,,,,,down,5.1757092000007106,None,space,0.38962079999691923,None,,,,,,,,,,,,P138,001,2024-12-13_13h46.35.076,posner_endo_new1,2024.2.4,60.067527915541184,2024-12-13 13h46.42.369581 +0000,
0.31,0.005,54,54,0,up,2.4850292000010086,None,space,0.3619212999983574,None,,,,,0,54,54,54,,,,,774.3393917999965,,,,,,,,,,,,774.3233341999985,774.3393917999965,774.3393917999965,776.8378047999977,,,,776.8380625999998,776.8534631999973,776.8534631999973,776.8534631999973,777.1534908999965,777.2209736999976,,,,,up,2.4850292000010086,None,space,0.3619212999983574,None,,,,,,,,,,,,P138,001,2024-12-13_13h46.35.076,posner_endo_new1,2024.2.4,60.067527915541184,2024-12-13 13h46.42.369581 +0000,
0.005,0.31,55,55,0,down,4.003947199998947,None,space,0.3614882999972906,None,,,,,0,55,55,55,,,,,777.236280699999,,,,,,,,,,,,777.2211537999974,777.236280699999,777.236280699999,781.249808499997,,,,781.2500628999987,781.2657260999986,781.2657260999986,781.2657260999986,781.5653460999965,781.6331412999971,,,,,down,4.003947199998947,None,space,0.3614882999972906,None,,,,,,,,,,,,P138,001,2024-12-13_13h46.35.076,posner_endo_new1,2024.2.4,60.067527915541184,2024-12-13 13h46.42.369581 +0000,
0.005,-0.31,56,56,0,up,3.0867987999990874,None,space,0.3659970999979123,None,,,,,0,56,56,56,,,,,781.648702399998,,,,,,,,,,,,781.6333042999977,781.648702399998,781.648702399998,784.7461952999984,,,,784.7464600999992,784.762228399999,784.762228399999,784.762228399999,785.0619165999997,785.1292474999973,,,,,up,3.0867987999990874,None,space,0.3659970999979123,None,,,,,,,,,,,,P138,001,2024-12-13_13h46.35.076,posner_endo_new1,2024.2.4,60.067527915541184,2024-12-13 13h46.42.369581 +0000,
0.005,0.31,57,57,0,down,4.047074000001885,None,space,0.32054299999799696,None,,,,,0,57,57,57,,,,,785.145126899999,,,,,,,,,,,,785.1294116999998,785.145126899999,785.145126899999,789.2083969999985,,,,789.2086518999968,789.2244462999988,789.2244462999988,789.2244462999988,789.5239218999996,789.558165399998,,,,,down,4.047074000001885,None,space,0.32054299999799696,None,,,,,,,,,,,,P138,001,2024-12-13_13h46.35.076,posner_endo_new1,2024.2.4,60.067527915541184,2024-12-13 13h46.42.369581 +0000,
10,0.005,58,58,0,up,3.4496940999997605,None,None,,,,,,,0,58,58,58,,,,,789.5742426999968,,,,,,,,,,,,789.5583371999965,789.5742426999968,789.5742426999968,793.0373284999987,,,,793.0375924,793.0538264999996,793.0538264999996,793.0538264999996,793.3535632999992,796.0508048999982,,,,794.0693660999968,up,3.4496940999997605,None,None,,,,,,,,,,,,,,P138,001,2024-12-13_13h46.35.076,posner_endo_new1,2024.2.4,60.067527915541184,2024-12-13 13h46.42.369581 +0000,
10,0.005,59,59,0,down,1.1563876000000164,None,None,,,,,,,0,59,59,59,,,,,796.0672167999983,,,,,,,,,,,,796.0509675999965,796.0672167999983,796.0672167999983,797.2331852999996,,,,797.2334480999998,797.249380899997,797.249380899997,797.249380899997,797.5490958999981,800.2464274999984,,,,798.2653029999965,down,1.1563876000000164,None,None,,,,,,,,,,,,,,P138,001,2024-12-13_13h46.35.076,posner_endo_new1,2024.2.4,60.067527915541184,2024-12-13 13h46.42.369581 +0000,
-0.31,0.005,60,60,0,up,2.161498699999356,None,space,0.4238941000003251,None,,,,,0,60,60,60,,,,,800.2630645999998,,,,,,,,,,,,800.2465814999996,800.2630645999998,800.2630645999998,802.4282475999971,,,,802.4284980999983,802.4442146999972,802.4442146999972,802.4442146999972,802.7437958999981,802.8779512999972,,,,,up,2.161498699999356,None,space,0.4238941000003251,None,,,,,,,,,,,,P138,001,2024-12-13_13h46.35.076,posner_endo_new1,2024.2.4,60.067527915541184,2024-12-13 13h46.42.369581 +0000,
,,,,,,,,,,,,,,,,,,,,,,,,,,,,,,,,,,,,,,,,,,,,,,,,,,,,,,,,,,802.8780535999977,802.8935603999998,802.8935603999998,862.8664564999999,None,,,,,,,P138,001,2024-12-13_13h46.35.076,posner_endo_new1,2024.2.4,60.067527915541184,2024-12-13 13h46.42.369581 +0000,
,,,,,,,,,,,,,,,,,,,,,,,,,,,,,,,,862.8665437999989,862.8820353999981,865.8790182999983,,,,,,,,,,,,,,,,,,,,,,,,,,,,,,,,,,,P138,001,2024-12-13_13h46.35.076,posner_endo_new1,2024.2.4,60.067527915541184,2024-12-13 13h46.42.369581 +0000,
0.005,-0.31,0,0,0,up,12.929513099999895,None,space,0.36651379999966593,None,,,,,,,,,0,0,0,0,865.9023844999974,,,,,,,,,,,,865.8938014999985,865.9023844999974,865.9023844999974,878.8336456999969,,,,878.8339156999973,878.8494008999987,878.8494008999987,878.8494008999987,879.1490375999965,879.2167706,,,,,,,,,,,,,,,,up,12.929513099999895,None,space,0.36651379999966593,None,P138,001,2024-12-13_13h46.35.076,posner_endo_new1,2024.2.4,60.067527915541184,2024-12-13 13h46.42.369581 +0000,
0.31,0.005,1,1,0,down,3.9120695000019623,None,space,0.3579475000005914,None,,,,,,,,,0,1,1,1,879.2321621999981,,,,,,,,,,,,879.2169429999994,879.2321621999981,879.2321621999981,883.1459365999981,,,,883.1461942999995,883.1617153999978,883.1617153999978,883.1617153999978,883.4615386999976,883.5287609999978,,,,,,,,,,,,,,,,down,3.9120695000019623,None,space,0.3579475000005914,None,P138,001,2024-12-13_13h46.35.076,posner_endo_new1,2024.2.4,60.067527915541184,2024-12-13 13h46.42.369581 +0000,
10,0.005,2,2,0,up,6.567436900000757,None,None,,,,,,,,,,,0,2,2,2,883.5445039999977,,,,,,,,,,,,883.5289275999967,883.5445039999977,883.5445039999977,890.1218763999968,,,,890.1221382999975,890.1379653999975,890.1379653999975,890.1379653999975,890.4375577999999,893.1348077999974,,,,891.1534118999989,,,,,,,,,,,,up,6.567436900000757,None,None,,,P138,001,2024-12-13_13h46.35.076,posner_endo_new1,2024.2.4,60.067527915541184,2024-12-13 13h46.42.369581 +0000,
0.005,-0.31,3,3,0,down,2.8089132999994035,None,space,0.35064190000048256,None,,,,,,,,,0,3,3,3,893.1513969999978,,,,,,,,,,,,893.1349761999991,893.1513969999978,893.1513969999978,895.9661530999983,,,,895.9664152999976,895.9819157999991,895.9819157999991,895.9819157999991,896.2815444999978,896.3492675999987,,,,,,,,,,,,,,,,down,2.8089132999994035,None,space,0.35064190000048256,None,P138,001,2024-12-13_13h46.35.076,posner_endo_new1,2024.2.4,60.067527915541184,2024-12-13 13h46.42.369581 +0000,
0.005,-0.31,4,4,0,up,4.1474379999999655,None,space,0.2789727000017592,None,,,,,,,,,0,4,4,4,896.3650210999986,,,,,,,,,,,,896.3494342999984,896.3650210999986,896.3650210999986,900.5281747999979,,,,900.5284401999997,900.5435770999975,900.5435770999975,900.5435770999975,900.8436349999974,900.827836299999,,,,,,,,,,,,,,,,up,4.1474379999999655,None,space,0.2789727000017592,None,P138,001,2024-12-13_13h46.35.076,posner_endo_new1,2024.2.4,60.067527915541184,2024-12-13 13h46.42.369581 +0000,
10,0.005,5,5,0,down,8.348211799999262,None,None,,,,,,,,,,,0,5,5,5,900.8436349999974,,,,,,,,,,,,900.828003999999,900.8436349999974,900.8436349999974,909.2026942999983,,,,909.2029524999998,909.2185995,909.2185995,909.2185995,909.5181006999992,912.2154480999998,,,,910.2340332999993,,,,,,,,,,,,down,8.348211799999262,None,None,,,P138,001,2024-12-13_13h46.35.076,posner_endo_new1,2024.2.4,60.067527915541184,2024-12-13 13h46.42.369581 +0000,
0.005,0.31,6,6,0,up,0.5047693999986222,None,space,0.382412300001306,None,,,,,,,,,0,6,6,6,912.2314630999972,,,,,,,,,,,,912.215618299997,912.2314630999972,912.2314630999972,912.748975999999,,,,912.7492292999996,912.7643799999969,912.7643799999969,912.7643799999969,913.0642492999978,913.148656399997,,,,,,,,,,,,,,,,up,0.5047693999986222,None,space,0.382412300001306,None,P138,001,2024-12-13_13h46.35.076,posner_endo_new1,2024.2.4,60.067527915541184,2024-12-13 13h46.42.369581 +0000,
0.005,0.31,7,7,0,down,5.699470099996688,None,space,0.3955750999994052,None,,,,,,,,,0,7,7,7,913.1644344999986,,,,,,,,,,,,913.1488267999994,913.1644344999986,913.1644344999986,918.875980599998,,,,918.8762439999991,918.8918352999972,918.8918352999972,918.8918352999972,919.1914000999968,919.292099899998,,,,,,,,,,,,,,,,down,5.699470099996688,None,space,0.3955750999994052,None,P138,001,2024-12-13_13h46.35.076,posner_endo_new1,2024.2.4,60.067527915541184,2024-12-13 13h46.42.369581 +0000,
0.31,0.005,8,8,0,up,4.100071200002276,None,space,0.35235520000060205,None,,,,,,,,,0,8,8,8,919.3080367999974,,,,,,,,,,,,919.2922666999984,919.3080367999974,919.3080367999974,923.4214118999989,,,,923.4216693999988,923.4373038999984,923.4373038999984,923.4373038999984,923.7369171999999,923.8045933999965,,,,,,,,,,,,,,,,up,4.100071200002276,None,space,0.35235520000060205,None,P138,001,2024-12-13_13h46.35.076,posner_endo_new1,2024.2.4,60.067527915541184,2024-12-13 13h46.42.369581 +0000,
0.31,0.005,9,9,0,down,5.5249258000003465,None,space,0.45973480000247946,None,,,,,,,,,0,9,9,9,923.8196174999975,,,,,,,,,,,,923.8047701999967,923.8196174999975,923.8196174999975,929.3489040999993,,,,929.3491625999995,929.3646257,929.3646257,929.3646257,929.6641607999991,929.8314880999969,,,,,,,,,,,,,,,,down,5.5249258000003465,None,space,0.45973480000247946,None,P138,001,2024-12-13_13h46.35.076,posner_endo_new1,2024.2.4,60.067527915541184,2024-12-13 13h46.42.369581 +0000,
10,0.005,10,10,0,up,2.7686472999994294,None,None,,,,,,,,,,,0,10,10,10,929.8473045999999,,,,,,,,,,,,929.8316641999991,929.8473045999999,929.8473045999999,932.6286863999994,,,,932.6289438999993,932.6443632999981,932.6443632999981,932.6443632999981,932.9440677999992,935.6414889999978,,,,933.6432967000001,,,,,,,,,,,,up,2.7686472999994294,None,None,,,P138,001,2024-12-13_13h46.35.076,posner_endo_new1,2024.2.4,60.067527915541184,2024-12-13 13h46.42.369581 +0000,
0.005,0.31,11,11,0,down,9.591512599999987,None,space,0.2880656999986968,None,,,,,,,,,0,11,11,11,935.6579114999986,,,,,,,,,,,,935.6416519999984,935.6579114999986,935.6579114999986,945.2653735999993,,,,945.2656377999992,945.2815820999967,945.2815820999967,945.2815820999967,945.5812923999983,945.5821622999974,,,,,,,,,,,,,,,,down,9.591512599999987,None,space,0.2880656999986968,None,P138,001,2024-12-13_13h46.35.076,posner_endo_new1,2024.2.4,60.067527915541184,2024-12-13 13h46.42.369581 +0000,
0.005,-0.31,12,12,0,up,3.9787495999989915,None,space,0.33703479999894626,None,,,,,,,,,0,12,12,12,945.5979712999979,,,,,,,,,,,,945.5823270000001,945.5979712999979,945.5979712999979,949.5781571999978,,,,949.5784119999989,949.5938923999965,949.5938923999965,949.5938923999965,949.8937140999988,949.9443217999979,,,,,,,,,,,,,,,,up,3.9787495999989915,None,space,0.33703479999894626,None,P138,001,2024-12-13_13h46.35.076,posner_endo_new1,2024.2.4,60.067527915541184,2024-12-13 13h46.42.369581 +0000,
0.005,0.31,13,13,0,down,4.216381999998703,None,space,0.320407700000942,None,,,,,,,,,0,13,13,13,949.9601457999997,,,,,,,,,,,,949.9444883999968,949.9601457999997,949.9601457999997,954.1896522999996,,,,954.1899156,954.2057741999997,954.2057741999997,954.2057741999997,954.505250299997,954.5394970999987,,,,,,,,,,,,,,,,down,4.216381999998703,None,space,0.320407700000942,None,P138,001,2024-12-13_13h46.35.076,posner_endo_new1,2024.2.4,60.067527915541184,2024-12-13 13h46.42.369581 +0000,
-0.31,0.005,14,14,0,up,4.33252530000027,None,space,0.34769020000021555,None,,,,,,,,,0,14,14,14,954.5555052999989,,,,,,,,,,,,954.5396707,954.5555052999989,954.5555052999989,958.9018352999992,,,,958.9020887999977,958.9177330999992,958.9177330999992,958.9177330999992,959.2173019999973,959.2681610999971,,,,,,,,,,,,,,,,up,4.33252530000027,None,space,0.34769020000021555,None,P138,001,2024-12-13_13h46.35.076,posner_endo_new1,2024.2.4,60.067527915541184,2024-12-13 13h46.42.369581 +0000,
10,0.005,15,15,0,down,4.8038893999982974,None,None,,,,,,,,,,,0,15,15,15,959.2840254999974,,,,,,,,,,,,959.2683292999973,959.2840254999974,959.2840254999974,964.0965315999965,,,,964.0967895999966,964.1124310999985,964.1124310999985,964.1124310999985,964.4123039999977,967.1094598999989,,,,965.1279422999978,,,,,,,,,,,,down,4.8038893999982974,None,None,,,P138,001,2024-12-13_13h46.35.076,posner_endo_new1,2024.2.4,60.067527915541184,2024-12-13 13h46.42.369581 +0000,
0.005,-0.31,16,16,0,up,2.1311674999997194,None,space,0.38383109999995213,None,,,,,,,,,0,16,16,16,967.1257490999997,,,,,,,,,,,,967.1096244999972,967.1257490999997,967.1257490999997,969.2579679999981,,,,969.2582396999969,969.2737651999996,969.2737651999996,969.2737651999996,969.573367099998,969.674111999997,,,,,,,,,,,,,,,,up,2.1311674999997194,None,space,0.38383109999995213,None,P138,001,2024-12-13_13h46.35.076,posner_endo_new1,2024.2.4,60.067527915541184,2024-12-13 13h46.42.369581 +0000,
0.31,0.005,17,17,0,down,3.279200100001617,None,space,0.3896774999993795,None,,,,,,,,,0,17,17,17,969.6896717999989,,,,,,,,,,,,969.6742795999999,969.6896717999989,969.6896717999989,972.971087599999,,,,972.9713507999986,972.9865871999973,972.9865871999973,972.9865871999973,973.2865482999987,973.3869830999975,,,,,,,,,,,,,,,,down,3.279200100001617,None,space,0.3896774999993795,None,P138,001,2024-12-13_13h46.35.076,posner_endo_new1,2024.2.4,60.067527915541184,2024-12-13 13h46.42.369581 +0000,
-0.31,0.005,18,18,0,up,5.877587799997855,None,space,0.37594430000171997,None,,,,,,,,,0,18,18,18,973.4028005999971,,,,,,,,,,,,973.3871511999969,973.4028005999971,973.4028005999971,979.2811860999973,,,,979.2814507999974,979.296695699999,979.296695699999,979.296695699999,979.5965447999988,979.6807967999994,,,,,,,,,,,,,,,,up,5.877587799997855,None,space,0.37594430000171997,None,P138,001,2024-12-13_13h46.35.076,posner_endo_new1,2024.2.4,60.067527915541184,2024-12-13 13h46.42.369581 +0000,
0.31,0.005,19,19,0,down,3.6004261000016413,None,space,0.3820817999985593,None,,,,,,,,,0,19,19,19,979.6964934999996,,,,,,,,,,,,979.6809622999972,979.6964934999996,979.6964934999996,983.3096116999986,,,,983.3098808999966,983.3261607999993,983.3261607999993,983.3261607999993,983.6258418999969,983.7098802,,,,,,,,,,,,,,,,down,3.6004261000016413,None,space,0.3820817999985593,None,P138,001,2024-12-13_13h46.35.076,posner_endo_new1,2024.2.4,60.067527915541184,2024-12-13 13h46.42.369581 +0000,
0.31,0.005,20,20,0,up,3.8824621999992814,None,space,0.3409224999995786,None,,,,,,,,,0,20,20,20,983.7255555999982,,,,,,,,,,,,983.7100470999976,983.7255555999982,983.7255555999982,987.6224656999984,,,,987.6227210999969,987.6385640999979,987.6385640999979,987.6385640999979,987.9375096999975,987.9882769999967,,,,,,,,,,,,,,,,up,3.8824621999992814,None,space,0.3409224999995786,None,P138,001,2024-12-13_13h46.35.076,posner_endo_new1,2024.2.4,60.067527915541184,2024-12-13 13h46.42.369581 +0000,
0.005,-0.31,21,21,0,down,3.892184799999086,None,space,0.3249238000025798,None,,,,,,,,,0,21,21,21,988.004649399998,,,,,,,,,,,,987.9884467999982,988.004649399998,988.004649399998,991.9016821999976,,,,991.9019382999977,991.9175241999983,991.9175241999983,991.9175241999983,992.2169190999994,992.251260699999,,,,,,,,,,,,,,,,down,3.892184799999086,None,space,0.3249238000025798,None,P138,001,2024-12-13_13h46.35.076,posner_endo_new1,2024.2.4,60.067527915541184,2024-12-13 13h46.42.369581 +0000,
-0.31,0.005,22,22,0,up,4.021032399999967,None,space,0.44516700000167475,None,,,,,,,,,0,22,22,22,992.2668948999999,,,,,,,,,,,,992.2514297999987,992.2668948999999,992.2668948999999,996.296376899998,,,,996.2966346999965,996.3127843999973,996.3127843999973,996.3127843999973,996.6124881999967,996.7634784999973,,,,,,,,,,,,,,,,up,4.021032399999967,None,space,0.44516700000167475,None,P138,001,2024-12-13_13h46.35.076,posner_endo_new1,2024.2.4,60.067527915541184,2024-12-13 13h46.42.369581 +0000,
0.005,-0.31,23,23,0,down,5.693698099999892,None,space,0.3942337000007683,None,,,,,,,,,0,23,23,23,996.7792018,,,,,,,,,,,,996.7636510999982,996.7792018,996.7792018,1002.4739547999998,,,,1002.4742091999979,1002.4899101999981,1002.4899101999981,1002.4899101999981,1002.7896926999965,1002.8901764999973,,,,,,,,,,,,,,,,down,5.693698099999892,None,space,0.3942337000007683,None,P138,001,2024-12-13_13h46.35.076,posner_endo_new1,2024.2.4,60.067527915541184,2024-12-13 13h46.42.369581 +0000,
10,0.005,24,24,0,up,2.422591400001693,None,None,,,,,,,,,,,0,24,24,24,1002.9061277000001,,,,,,,,,,,,1002.8903416999965,1002.9061277000001,1002.9061277000001,1005.3377735999966,,,,1005.3380280999991,1005.3536993999987,1005.3536993999987,1005.3536993999987,1005.6532031999996,1008.3501457999992,,,,1006.369239599997,,,,,,,,,,,,up,2.422591400001693,None,None,,,P138,001,2024-12-13_13h46.35.076,posner_endo_new1,2024.2.4,60.067527915541184,2024-12-13 13h46.42.369581 +0000,
0.31,0.005,25,25,0,down,2.177227699998184,None,space,0.3367168999975547,None,,,,,,,,,0,25,25,25,1008.3672623999992,,,,,,,,,,,,1008.3503072999993,1008.3672623999992,1008.3672623999992,1010.5492578999983,,,,1010.5495202999991,1010.5650480999975,1010.5650480999975,1010.5650480999975,1010.8646529999969,1010.915461499997,,,,,,,,,,,,,,,,down,2.177227699998184,None,space,0.3367168999975547,None,P138,001,2024-12-13_13h46.35.076,posner_endo_new1,2024.2.4,60.067527915541184,2024-12-13 13h46.42.369581 +0000,
0.31,0.005,26,26,0,up,4.349617699997907,None,space,0.36426289999872097,None,,,,,,,,,0,26,26,26,1010.9313036999993,,,,,,,,,,,,1010.9156262999968,1010.9313036999993,1010.9313036999993,1015.2940759999983,,,,1015.2943287999988,1015.3101046999982,1015.3101046999982,1015.3101046999982,1015.6098095999987,1015.6768944999967,,,,,,,,,,,,,,,,up,4.349617699997907,None,space,0.36426289999872097,None,P138,001,2024-12-13_13h46.35.076,posner_endo_new1,2024.2.4,60.067527915541184,2024-12-13 13h46.42.369581 +0000,
10,0.005,27,27,0,down,5.819725900000776,None,None,,,,,,,,,,,0,27,27,27,1015.6932623999965,,,,,,,,,,,,1015.6770599999982,1015.6932623999965,1015.6932623999965,1021.5214343999978,,,,1021.5216972999988,1021.5370348999968,1021.5370348999968,1021.5370348999968,1021.8365853999967,1024.5339165999976,,,,1022.5360488999977,,,,,,,,,,,,down,5.819725900000776,None,None,,,P138,001,2024-12-13_13h46.35.076,posner_endo_new1,2024.2.4,60.067527915541184,2024-12-13 13h46.42.369581 +0000,
0.005,-0.31,28,28,0,up,1.6340682999980345,None,space,0.3421059000029345,None,,,,,,,,,0,28,28,28,1024.5506017999978,,,,,,,,,,,,1024.5340785999979,1024.5506017999978,1024.5506017999978,1026.1998163999997,,,,1026.2000721999975,1026.2157849999967,1026.2157849999967,1026.2157849999967,1026.5152615999978,1026.5660161999986,,,,,,,,,,,,,,,,up,1.6340682999980345,None,space,0.3421059000029345,None,P138,001,2024-12-13_13h46.35.076,posner_endo_new1,2024.2.4,60.067527915541184,2024-12-13 13h46.42.369581 +0000,
0.005,0.31,29,29,0,down,5.1869224999973085,None,space,0.4434449999971548,None,,,,,,,,,0,29,29,29,1026.5818706999999,,,,,,,,,,,,1026.5661879,1026.5818706999999,1026.5818706999999,1031.7770188999966,,,,1031.7772835999967,1031.7932067999973,1031.7932067999973,1031.7932067999973,1032.0928970999994,1032.2431258999968,,,,,,,,,,,,,,,,down,5.1869224999973085,None,space,0.4434449999971548,None,P138,001,2024-12-13_13h46.35.076,posner_endo_new1,2024.2.4,60.067527915541184,2024-12-13 13h46.42.369581 +0000,
10,0.005,30,30,0,up,3.765688900002715,None,None,,,,,,,,,,,0,30,30,30,1032.2593637999998,,,,,,,,,,,,1032.2432997999967,1032.2593637999998,1032.2593637999998,1036.0399574999974,,,,1036.0402211999972,1036.055876399998,1036.055876399998,1036.055876399998,1036.355253499998,1039.0526107999976,,,,1037.0712948,,,,,,,,,,,,up,3.765688900002715,None,None,,,P138,001,2024-12-13_13h46.35.076,posner_endo_new1,2024.2.4,60.067527915541184,2024-12-13 13h46.42.369581 +0000,
0.31,0.005,31,31,0,down,9.171035800001846,None,space,0.3487249999998312,None,,,,,,,,,0,31,31,31,1039.0691593999982,,,,,,,,,,,,1039.052771999999,1039.0691593999982,1039.0691593999982,1048.2438941999972,,,,1048.2441483999974,1048.2597308999975,1048.2597308999975,1048.2597308999975,1048.5594431999998,1048.610367199999,,,,,,,,,,,,,,,,down,9.171035800001846,None,space,0.3487249999998312,None,P138,001,2024-12-13_13h46.35.076,posner_endo_new1,2024.2.4,60.067527915541184,2024-12-13 13h46.42.369581 +0000,
0.31,0.005,32,32,0,up,2.7739137999997183,None,space,0.438428000001295,None,,,,,,,,,0,32,32,32,1048.6262577999987,,,,,,,,,,,,1048.6105435999998,1048.6262577999987,1048.6262577999987,1051.4071859999967,,,,1051.4074546999982,1051.4231026999987,1051.4231026999987,1051.4231026999987,1051.7228391999997,1051.8734803999978,,,,,,,,,,,,,,,,up,2.7739137999997183,None,space,0.438428000001295,None,P138,001,2024-12-13_13h46.35.076,posner_endo_new1,2024.2.4,60.067527915541184,2024-12-13 13h46.42.369581 +0000,
10,0.005,33,33,0,down,4.430903000000399,None,None,,,,,,,,,,,0,33,33,33,1051.889379799999,,,,,,,,,,,,1051.8736468999996,1051.889379799999,1051.889379799999,1056.3355411999983,,,,1056.3358053999982,1056.3514325999968,1056.3514325999968,1056.3514325999968,1056.651106899997,1059.3484839999983,,,,1057.366764399998,,,,,,,,,,,,down,4.430903000000399,None,None,,,P138,001,2024-12-13_13h46.35.076,posner_endo_new1,2024.2.4,60.067527915541184,2024-12-13 13h46.42.369581 +0000,
10,0.005,34,34,0,up,0.4598355000016454,None,None,,,,,,,,,,,0,34,34,34,1059.3650987999972,,,,,,,,,,,,1059.3486477999977,1059.3650987999972,1059.3650987999972,1059.8319852999994,,,,1059.8322481999967,1059.8478078999979,1059.8478078999979,1059.8478078999979,1060.1476454999975,1062.8449865999974,,,,1060.8469525,,,,,,,,,,,,up,0.4598355000016454,None,None,,,P138,001,2024-12-13_13h46.35.076,posner_endo_new1,2024.2.4,60.067527915541184,2024-12-13 13h46.42.369581 +0000,
-0.31,0.005,35,35,0,down,2.2671227999999246,None,space,0.3315870000005816,None,,,,,,,,,0,35,35,35,1062.8615443999988,,,,,,,,,,,,1062.8451473999994,1062.8615443999988,1062.8615443999988,1065.1432987999979,,,,1065.1435515999983,1065.1590781999985,1065.1590781999985,1065.1590781999985,1065.4588529999965,1065.4931896999988,,,,,,,,,,,,,,,,down,2.2671227999999246,None,space,0.3315870000005816,None,P138,001,2024-12-13_13h46.35.076,posner_endo_new1,2024.2.4,60.067527915541184,2024-12-13 13h46.42.369581 +0000,
0.005,0.31,36,36,0,up,3.5166270999980043,None,space,0.33731530000295606,None,,,,,,,,,0,36,36,36,1065.5089590999996,,,,,,,,,,,,1065.4933557999975,1065.5089590999996,1065.5089590999996,1069.0388079999975,,,,1069.039069399998,1069.0551672999973,1069.0551672999973,1069.0551672999973,1069.3548962999994,1069.4056619999974,,,,,,,,,,,,,,,,up,3.5166270999980043,None,space,0.33731530000295606,None,P138,001,2024-12-13_13h46.35.076,posner_endo_new1,2024.2.4,60.067527915541184,2024-12-13 13h46.42.369581 +0000,
0.31,0.005,37,37,0,down,4.035650899997563,None,space,0.3987894999991113,None,,,,,,,,,0,37,37,37,1069.4214212999977,,,,,,,,,,,,1069.4058394999993,1069.4214212999977,1069.4214212999977,1073.4681867,,,,1073.4684498999995,1073.4837879999977,1073.4837879999977,1073.4837879999977,1073.7837190999999,1073.884321499998,,,,,,,,,,,,,,,,down,4.035650899997563,None,space,0.3987894999991113,None,P138,001,2024-12-13_13h46.35.076,posner_endo_new1,2024.2.4,60.067527915541184,2024-12-13 13h46.42.369581 +0000,
0.005,0.31,38,38,0,up,3.668048899999121,None,space,0.3613000000004831,None,,,,,,,,,0,38,38,38,1073.9001703999966,,,,,,,,,,,,1073.8844884999999,1073.9001703999966,1073.9001703999966,1077.580632899997,,,,1077.5808849999994,1077.5964382999991,1077.5964382999991,1077.5964382999991,1077.8961053999992,1077.9635265999968,,,,,,,,,,,,,,,,up,3.668048899999121,None,space,0.3613000000004831,None,P138,001,2024-12-13_13h46.35.076,posner_endo_new1,2024.2.4,60.067527915541184,2024-12-13 13h46.42.369581 +0000,
-0.31,0.005,39,39,0,down,4.005893399997149,None,space,0.3154423999985738,None,,,,,,,,,0,39,39,39,1077.978906299999,,,,,,,,,,,,1077.9637000999974,1077.978906299999,1077.978906299999,1081.9927626999997,,,,1081.9930208999976,1082.0085942999976,1082.0085942999976,1082.0085942999976,1082.3081829999974,1082.325882699999,,,,,,,,,,,,,,,,down,4.005893399997149,None,space,0.3154423999985738,None,P138,001,2024-12-13_13h46.35.076,posner_endo_new1,2024.2.4,60.067527915541184,2024-12-13 13h46.42.369581 +0000,
-0.31,0.005,40,40,0,up,3.434958899997582,None,space,0.4744613000002573,None,,,,,,,,,0,40,40,40,1082.3415754999987,,,,,,,,,,,,1082.3260506999977,1082.3415754999987,1082.3415754999987,1085.7889942999973,,,,1085.789251299997,1085.8050516999974,1085.8050516999974,1085.8050516999974,1086.1046859999988,1086.288050199997,,,,,,,,,,,,,,,,up,3.434958899997582,None,space,0.4744613000002573,None,P138,001,2024-12-13_13h46.35.076,posner_endo_new1,2024.2.4,60.067527915541184,2024-12-13 13h46.42.369581 +0000,
0.005,0.31,41,41,0,down,4.688157200002024,None,space,0.3395917999987432,None,,,,,,,,,0,41,41,41,1086.3042620999986,,,,,,,,,,,,1086.2882179999979,1086.3042620999986,1086.3042620999986,1091.0005061999982,,,,1091.0007600999998,1091.0159964999984,1091.0159964999984,1091.0159964999984,1091.3158903999974,1091.3665564999974,,,,,,,,,,,,,,,,down,4.688157200002024,None,space,0.3395917999987432,None,P138,001,2024-12-13_13h46.35.076,posner_endo_new1,2024.2.4,60.067527915541184,2024-12-13 13h46.42.369581 +0000,
-0.31,0.005,42,42,0,up,4.089778999998089,None,space,0.34491630000047735,None,,,,,,,,,0,42,42,42,1091.3825291999965,,,,,,,,,,,,1091.3667239999995,1091.3825291999965,1091.3825291999965,1095.4786342999978,,,,1095.4788907999973,1095.4946509999972,1095.4946509999972,1095.4946509999972,1095.7945001999979,1095.8455605999989,,,,,,,,,,,,,,,,up,4.089778999998089,None,space,0.34491630000047735,None,P138,001,2024-12-13_13h46.35.076,posner_endo_new1,2024.2.4,60.067527915541184,2024-12-13 13h46.42.369581 +0000,
0.005,0.31,43,43,0,down,4.035775799999101,None,space,0.3040160999989894,None,,,,,,,,,0,43,43,43,1095.8613991999991,,,,,,,,,,,,1095.8457266999976,1095.8613991999991,1095.8613991999991,1099.9078794999987,,,,1099.9081363999976,1099.9239133999981,1099.9239133999981,1099.9239133999981,1100.223403099997,1100.2409486999968,,,,,,,,,,,,,,,,down,4.035775799999101,None,space,0.3040160999989894,None,P138,001,2024-12-13_13h46.35.076,posner_endo_new1,2024.2.4,60.067527915541184,2024-12-13 13h46.42.369581 +0000,
0.005,0.31,44,44,0,up,4.136338300002535,None,space,0.3593247999997402,None,,,,,,,,,0,44,44,44,1100.2566396999973,,,,,,,,,,,,1100.2411120999968,1100.2566396999973,1100.2566396999973,1104.4027962,,,,1104.403065999999,1104.4190384999965,1104.4190384999965,1104.4190384999965,1104.7189427999983,1104.7863891999987,,,,,,,,,,,,,,,,up,4.136338300002535,None,space,0.3593247999997402,None,P138,001,2024-12-13_13h46.35.076,posner_endo_new1,2024.2.4,60.067527915541184,2024-12-13 13h46.42.369581 +0000,
-0.31,0.005,45,45,0,down,4.702952600000572,None,space,0.33911929999885615,None,,,,,,,,,0,45,45,45,1104.8019339999992,,,,,,,,,,,,1104.7865618999967,1104.8019339999992,1104.8019339999992,1109.5146344999994,,,,1109.514890999999,1109.5305370999995,1109.5305370999995,1109.5305370999995,1109.8300479999998,1109.8809734999995,,,,,,,,,,,,,,,,down,4.702952600000572,None,space,0.33911929999885615,None,P138,001,2024-12-13_13h46.35.076,posner_endo_new1,2024.2.4,60.067527915541184,2024-12-13 13h46.42.369581 +0000,
0.005,0.31,46,46,0,up,3.9999172999996517,None,space,0.34466189999875496,None,,,,,,,,,0,46,46,46,1109.8969487999966,,,,,,,,,,,,1109.881139099998,1109.8969487999966,1109.8969487999966,1113.910109999997,,,,1113.9103637999979,1113.9260406999965,1113.9260406999965,1113.9260406999965,1114.2257318999982,1114.2765916999997,,,,,,,,,,,,,,,,up,3.9999172999996517,None,space,0.34466189999875496,None,P138,001,2024-12-13_13h46.35.076,posner_endo_new1,2024.2.4,60.067527915541184,2024-12-13 13h46.42.369581 +0000,
0.31,0.005,47,47,0,down,4.275745800001459,None,space,0.39317990000199643,None,,,,,,,,,0,47,47,47,1114.2926348999972,,,,,,,,,,,,1114.276759299999,1114.2926348999972,1114.2926348999972,1118.5716877999985,,,,1118.5719490999982,1118.5879929999974,1118.5879929999974,1118.5879929999974,1118.8875859,1118.9883141999999,,,,,,,,,,,,,,,,down,4.275745800001459,None,space,0.39317990000199643,None,P138,001,2024-12-13_13h46.35.076,posner_endo_new1,2024.2.4,60.067527915541184,2024-12-13 13h46.42.369581 +0000,
0.31,0.005,48,48,0,up,3.3487989000022935,None,space,0.34326660000078846,None,,,,,,,,,0,48,48,48,1119.004157299998,,,,,,,,,,,,1118.988485599999,1119.004157299998,1119.004157299998,1122.3683117999972,,,,1122.3685650999978,1122.3840853999973,1122.3840853999973,1122.3840853999973,1122.683615799997,1122.7344163999987,,,,,,,,,,,,,,,,up,3.3487989000022935,None,space,0.34326660000078846,None,P138,001,2024-12-13_13h46.35.076,posner_endo_new1,2024.2.4,60.067527915541184,2024-12-13 13h46.42.369581 +0000,
0.31,0.005,49,49,0,down,21.80269390000103,None,space,0.39724179999757325,None,,,,,,,,,0,49,49,49,1122.7504476999966,,,,,,,,,,,,1122.734585299997,1122.7504476999966,1122.7504476999966,1144.5623876999998,,,,1144.5628384999982,1144.5776149999983,1144.5776149999983,1144.5776149999983,1144.877303199999,1144.9788066999972,,,,,,,,,,,,,,,,down,21.80269390000103,None,space,0.39724179999757325,None,P138,001,2024-12-13_13h46.35.076,posner_endo_new1,2024.2.4,60.067527915541184,2024-12-13 13h46.42.369581 +0000,
0.005,-0.31,50,50,0,up,2.431237199998577,None,space,0.34674900000027264,None,,,,,,,,,0,50,50,50,1144.9939202999994,,,,,,,,,,,,1144.9791250999988,1144.9939202999994,1144.9939202999994,1147.4265066999978,,,,1147.4268319999974,1147.442001899999,1147.442001899999,1147.442001899999,1147.7418015999974,1147.7921121,,,,,,,,,,,,,,,,up,2.431237199998577,None,space,0.34674900000027264,None,P138,001,2024-12-13_13h46.35.076,posner_endo_new1,2024.2.4,60.067527915541184,2024-12-13 13h46.42.369581 +0000,
10,0.005,51,51,0,down,10.024331399999937,None,None,,,,,,,,,,,0,51,51,51,1147.8080495999966,,,,,,,,,,,,1147.7923241999997,1147.8080495999966,1147.8080495999966,1157.8484769999995,,,,1157.8487915999976,1157.8643598999988,1157.8643598999988,1157.8643598999988,1158.164421999998,1160.8615876999975,,,,1158.863326499999,,,,,,,,,,,,down,10.024331399999937,None,None,,,P138,001,2024-12-13_13h46.35.076,posner_endo_new1,2024.2.4,60.067527915541184,2024-12-13 13h46.42.369581 +0000,
0.31,0.005,52,52,0,up,1.3390051999995194,None,space,0.4399709999997867,None,,,,,,,,,0,52,52,52,1160.8781395999977,,,,,,,,,,,,1160.8617926999977,1160.8781395999977,1160.8781395999977,1162.2277756999974,,,,1162.2280890999973,1162.2432801999967,1162.2432801999967,1162.2432801999967,1162.5426510999969,1162.694010799998,,,,,,,,,,,,,,,,up,1.3390051999995194,None,space,0.4399709999997867,None,P138,001,2024-12-13_13h46.35.076,posner_endo_new1,2024.2.4,60.067527915541184,2024-12-13 13h46.42.369581 +0000,
-0.31,0.005,53,53,0,down,4.227215899998555,None,space,0.46116690000053495,None,,,,,,,,,0,53,53,53,1162.7094429999997,,,,,,,,,,,,1162.6942255999966,1162.7094429999997,1162.7094429999997,1166.939112,,,,1166.939426099998,1166.9553003999972,1166.9553003999972,1166.9553003999972,1167.2548782999984,1167.4223599999968,,,,,,,,,,,,,,,,down,4.227215899998555,None,space,0.46116690000053495,None,P138,001,2024-12-13_13h46.35.076,posner_endo_new1,2024.2.4,60.067527915541184,2024-12-13 13h46.42.369581 +0000,
0.005,0.31,54,54,0,up,4.427610700000514,None,space,0.4015472999999474,None,,,,,,,,,0,54,54,54,1167.4380807999987,,,,,,,,,,,,1167.422572899999,1167.4380807999987,1167.4380807999987,1171.8681371999992,,,,1171.8684564999967,1171.883684499997,1171.883684499997,1171.883684499997,1172.183289499997,1172.3005963999967,,,,,,,,,,,,,,,,up,4.427610700000514,None,space,0.4015472999999474,None,P138,001,2024-12-13_13h46.35.076,posner_endo_new1,2024.2.4,60.067527915541184,2024-12-13 13h46.42.369581 +0000,
-0.31,0.005,55,55,0,down,4.9479385999984515,None,space,0.365011300000333,None,,,,,,,,,0,55,55,55,1172.3165031999997,,,,,,,,,,,,1172.3008109999973,1172.3165031999997,1172.3165031999997,1177.279104199999,,,,1177.2794224999998,1177.2945497,1177.2945497,1177.2945497,1177.5944012999971,1177.662125499999,,,,,,,,,,,,,,,,down,4.9479385999984515,None,space,0.365011300000333,None,P138,001,2024-12-13_13h46.35.076,posner_endo_new1,2024.2.4,60.067527915541184,2024-12-13 13h46.42.369581 +0000,
0.005,0.31,56,56,0,up,4.171344599999429,None,space,0.4304956999985734,None,,,,,,,,,0,56,56,56,1177.6774153999977,,,,,,,,,,,,1177.6623377999967,1177.6774153999977,1177.6774153999977,1181.8579237999984,,,,1181.8582410999988,1181.8733588999967,1181.8733588999967,1181.8733588999967,1182.1730302999968,1182.3074207999998,,,,,,,,,,,,,,,,up,4.171344599999429,None,space,0.4304956999985734,None,P138,001,2024-12-13_13h46.35.076,posner_endo_new1,2024.2.4,60.067527915541184,2024-12-13 13h46.42.369581 +0000,
0.31,0.005,57,57,0,down,5.597587100000965,None,space,0.37654489999840735,None,,,,,,,,,0,57,57,57,1182.3228477999983,,,,,,,,,,,,1182.3076317999985,1182.3228477999983,1182.3228477999983,1187.9349361999994,,,,1187.9352516,1187.950443499998,1187.950443499998,1187.950443499998,1188.2502388999965,1188.3344827999972,,,,,,,,,,,,,,,,down,5.597587100000965,None,space,0.37654489999840735,None,P138,001,2024-12-13_13h46.35.076,posner_endo_new1,2024.2.4,60.067527915541184,2024-12-13 13h46.42.369581 +0000,
10,0.005,58,58,0,up,3.1467215000011493,None,None,,,,,,,,,,,0,58,58,58,1188.3501698999971,,,,,,,,,,,,1188.334694899997,1188.3501698999971,1188.3501698999971,1191.4982294999973,,,,1191.4985581999972,1191.5129772999971,1191.5129772999971,1191.5129772999971,1191.8132970999977,1194.5106029999988,,,,1192.512075999999,,,,,,,,,,,,up,3.1467215000011493,None,None,,,P138,001,2024-12-13_13h46.35.076,posner_endo_new1,2024.2.4,60.067527915541184,2024-12-13 13h46.42.369581 +0000,
10,0.005,59,59,0,down,2.40158380000139,None,None,,,,,,,,,,,0,59,59,59,1194.5269735999973,,,,,,,,,,,,1194.5108153999972,1194.5269735999973,1194.5269735999973,1196.9421621999973,,,,1196.9424777999993,1196.957846399997,1196.957846399997,1196.957846399997,1197.2579600999998,1199.9551018999991,,,,1197.956857699999,,,,,,,,,,,,down,2.40158380000139,None,None,,,P138,001,2024-12-13_13h46.35.076,posner_endo_new1,2024.2.4,60.067527915541184,2024-12-13 13h46.42.369581 +0000,
