cue_img,cue_soa,target_x,trial,thisN,thisTrialN,thisRepN,key_control2.keys,key_control2.rt,key_control2.duration,key_resp.keys,key_resp.rt,key_resp.duration,practice.thisRepN,practice.thisTrialN,practice.thisN,practice.thisIndex,block1.thisRepN,block1.thisTrialN,block1.thisN,block1.thisIndex,block2.thisRepN,block2.thisTrialN,block2.thisN,block2.thisIndex,thisRow.t,notes,instructions.started,instructions_txt.started,key_control.started,instructions.stopped,key_control.keys,key_control.rt,key_control.duration,ready.started,ready_txt.started,ready_txt.stopped,ready.stopped,fix.started,fixation.started,key_control2.started,fixation_cross.started,fix.stopped,practice.key_control2.keys,practice.key_control2.rt,practice.key_control2.duration,cue.started,cube.started,fixation_cross_cue.started,cue.stopped,target.started,fixation_target.started,fixation_cross_target.started,key_resp.started,star.started,target.stopped,practice.key_resp.keys,practice.key_resp.rt,practice.key_resp.duration,star.stopped,fixation_target.stopped,fixation_cross_target.stopped,key_resp.stopped,block1.key_control2.keys,block1.key_control2.rt,block1.key_control2.duration,block1.key_resp.keys,block1.key_resp.rt,block1.key_resp.duration,break_2.started,text.started,key_control3.started,text.stopped,break_2.stopped,key_control3.keys,key_control3.rt,key_control3.duration,block2.key_control2.keys,block2.key_control2.rt,block2.key_control2.duration,block2.key_resp.keys,block2.key_resp.rt,block2.key_resp.duration,participant,session,date,expName,psychopyVersion,frameRate,expStart,
,,,,,,,,,,,,,,,,,,,,,,,,,,,0.007542199993622489,0.0208684999961406,0.0208684999961406,58.248813700003666,up,58.218838699991466,None,,,,,,,,,,,,,,,,,,,,,,,,,,,,,,,,,,,,,,,,,,,,,,,,,,P101,001,2025-02-12_11h49.16.902,posner_endo_new1,2024.2.4,60.04617551105637,2025-02-12 11h49.24.613319 +0000,
,,,,,,,,,,,,,,,,,,,,,,,,,,,,,,,,,,58.24886219999462,58.261951899999985,61.26215450000018,61.24282590000075,,,,,,,,,,,,,,,,,,,,,,,,,,,,,,,,,,,,,,,,,,,,,,P101,001,2025-02-12_11h49.16.902,posner_endo_new1,2024.2.4,60.04617551105637,2025-02-12 11h49.24.613319 +0000,
cube_l.png,0.1,-0.31,valid,0,0,0,up,3.9537386000010883,None,space,0.4373899999918649,None,0,0,0,0,,,,,,,,,61.26215450000018,,,,,,,,,,,,,61.25016749999486,61.26215450000018,61.26215450000018,61.26215450000018,65.22225299999991,up,3.9537386000010883,None,65.23443539999425,65.24451160000172,65.24451160000172,65.28843260000576,65.28866659999767,65.30463250000321,65.30463250000321,65.30463250000321,65.38792530000501,65.75506830000086,space,0.4373899999918649,None,,,,,,,,,,,,,,,,,,,,,,,,,P101,001,2025-02-12_11h49.16.902,posner_endo_new1,2024.2.4,60.04617551105637,2025-02-12 11h49.24.613319 +0000,
cube_l.png,0.1,0.31,invalid,1,1,0,up,3.789687900003628,None,space,0.39177629999176133,None,0,1,1,1,,,,,,,,,65.77107970000361,,,,,,,,,,,,,65.7552427000046,65.77107970000361,65.77107970000361,65.77107970000361,69.56764550000662,up,3.789687900003628,None,69.57491350000782,69.58664280000085,69.58664280000085,69.63362730000517,69.63386479999463,69.65031420000014,69.65031420000014,69.65031420000014,69.71684059999825,70.05071460000181,space,0.39177629999176133,None,,,,,,,,,,,,,,,,,,,,,,,,,P101,001,2025-02-12_11h49.16.902,posner_endo_new1,2024.2.4,60.04617551105637,2025-02-12 11h49.24.613319 +0000,
cube_r.png,0.1,-0.31,invalid,2,2,0,up,3.9738610000058543,None,space,0.4050232000008691,None,0,2,2,2,,,,,,,,,70.06653100000403,,,,,,,,,,,,,70.0508867000026,70.06653100000403,70.06653100000403,70.06653100000403,74.04700890000095,up,3.9738610000058543,None,74.05879959999584,74.06893829999899,74.06893829999899,74.11245660000714,74.1127731000015,74.12910429999465,74.12910429999465,74.12910429999465,74.21216949999507,74.54657479999878,space,0.4050232000008691,None,,,,,,,,,,,,,,,,,,,,,,,,,P101,001,2025-02-12_11h49.16.902,posner_endo_new1,2024.2.4,60.04617551105637,2025-02-12 11h49.24.613319 +0000,
cube_r.png,0.1,10,catch,3,3,0,up,3.9180895000026794,None,None,,,0,3,3,3,,,,,,,,,74.56186919999891,,,,,,,,,,,,,74.54682620000676,74.56186919999891,74.56186919999891,74.56186919999891,78.49230800000078,up,3.9180895000026794,None,78.50204099999974,78.5123534000013,78.5123534000013,78.55794709999464,78.55827029999637,78.57459430000745,78.57459430000745,78.57459430000745,78.6577338000061,81.57203789999767,None,,,80.67245549999643,81.58813319999899,81.58813319999899,81.58813319999899,,,,,,,,,,,,,,,,,,,,,P101,001,2025-02-12_11h49.16.902,posner_endo_new1,2024.2.4,60.04617551105637,2025-02-12 11h49.24.613319 +0000,
cube_l.png,0.1,-0.31,valid,4,4,0,up,0.7793137999979081,None,space,0.3606417999981204,None,0,4,4,4,,,,,,,,,81.58813319999899,,,,,,,,,,,,,81.57226689999516,81.58813319999899,81.58813319999899,81.58813319999899,82.37192720000166,up,0.7793137999979081,None,82.38245960000495,82.39266709999356,82.39266709999356,82.43743249999534,82.43776090000756,82.45393859999604,82.45393859999604,82.45393859999604,82.53711780000594,82.8213156999991,space,0.3606417999981204,None,,,,,,,,,,,,,,,,,,,,,,,,,P101,001,2025-02-12_11h49.16.902,posner_endo_new1,2024.2.4,60.04617551105637,2025-02-12 11h49.24.613319 +0000,
cube_l.png,0.1,0.31,invalid,5,5,0,up,3.931187599999248,None,space,0.40098170000419486,None,0,5,5,5,,,,,,,,,82.83684220000578,,,,,,,,,,,,,82.82156270000269,82.83684220000578,82.83684220000578,82.83684220000578,86.78394019999541,up,3.931187599999248,None,86.79360639999504,86.8039398999972,86.8039398999972,86.84957790000772,86.84989919999498,86.86596920000738,86.86596920000738,86.86596920000738,86.94932329999574,87.28345079999417,space,0.40098170000419486,None,,,,,,,,,,,,,,,,,,,,,,,,,P101,001,2025-02-12_11h49.16.902,posner_endo_new1,2024.2.4,60.04617551105637,2025-02-12 11h49.24.613319 +0000,
cube_r.png,0.1,-0.31,invalid,6,6,0,up,4.061326600000029,None,space,0.48425520000455435,None,0,6,6,6,,,,,,,,,87.29893010000524,,,,,,,,,,,,,87.28369270000258,87.29893010000524,87.29893010000524,87.29893010000524,91.36264390000724,up,4.061326600000029,None,91.37224569999671,91.38246320000326,91.38246320000326,91.42820490000304,91.42851860000519,91.44474469999841,91.44474469999841,91.44474469999841,91.52793680000468,91.94525590000558,space,0.48425520000455435,None,,,,,,,,,,,,,,,,,,,,,,,,,P101,001,2025-02-12_11h49.16.902,posner_endo_new1,2024.2.4,60.04617551105637,2025-02-12 11h49.24.613319 +0000,
cube_r.png,0.1,0.31,valid,7,7,0,up,3.927204100007657,None,space,0.4366625999973621,None,0,7,7,7,,,,,,,,,91.9608048999944,,,,,,,,,,,,,91.94550689999596,91.9608048999944,91.9608048999944,91.9608048999944,95.89128900000651,up,3.927204100007657,None,95.90094730000419,95.91112829999474,95.91112829999474,95.95683860000281,95.95715299999574,95.9734019000025,95.9734019000025,95.9734019000025,96.05667780000658,96.4240470000077,space,0.4366625999973621,None,,,,,,,,,,,,,,,,,,,,,,,,,P101,001,2025-02-12_11h49.16.902,posner_endo_new1,2024.2.4,60.04617551105637,2025-02-12 11h49.24.613319 +0000,
cube_l.png,0.1,-0.31,valid,8,8,0,up,4.504472300002817,None,space,0.4332302999973763,None,0,8,8,8,,,,,,,,,96.43961440000567,,,,,,,,,,,,,96.42429450000054,96.43961440000567,96.43961440000567,96.43961440000567,100.95274769999378,up,4.504472300002817,None,100.96238840000296,100.97271669999463,100.97271669999463,101.01848519999476,101.01880049999454,101.03487109999696,101.03487109999696,101.03487109999696,101.11811009999656,101.46923230000539,space,0.4332302999973763,None,,,,,,,,,,,,,,,,,,,,,,,,,P101,001,2025-02-12_11h49.16.902,posner_endo_new1,2024.2.4,60.04617551105637,2025-02-12 11h49.24.613319 +0000,
cube_r.png,0.1,-0.31,invalid,9,9,0,up,4.291788300004555,None,space,0.45230620000802446,None,0,9,9,9,,,,,,,,,101.48448110000754,,,,,,,,,,,,,101.46947640000144,101.48448110000754,101.48448110000754,101.48448110000754,105.78103399999964,up,4.291788300004555,None,105.79065850000188,105.80096330000379,105.80096330000379,105.84675729999435,105.84707430000708,105.86311920000298,105.86311920000298,105.86311920000298,105.94655979999516,106.33054920000723,space,0.45230620000802446,None,,,,,,,,,,,,,,,,,,,,,,,,,P101,001,2025-02-12_11h49.16.902,posner_endo_new1,2024.2.4,60.04617551105637,2025-02-12 11h49.24.613319 +0000,
cube_r.png,0.1,0.31,valid,10,10,0,up,4.149381499999436,None,space,0.43585009999515023,None,0,10,10,10,,,,,,,,,106.3460555000056,,,,,,,,,,,,,106.33079380000709,106.3460555000056,106.3460555000056,106.3460555000056,110.50999259999662,up,4.149381499999436,None,110.5196367000026,110.52965860000404,110.52965860000404,110.57528230000753,110.57560470000317,110.59171799999604,110.59171799999604,110.59171799999604,110.67510920000495,111.04248210000515,space,0.43585009999515023,None,,,,,,,,,,,,,,,,,,,,,,,,,P101,001,2025-02-12_11h49.16.902,posner_endo_new1,2024.2.4,60.04617551105637,2025-02-12 11h49.24.613319 +0000,
,,,,,,,,,,,,,,,,,,,,,,,,,,,,,,,,,,111.04264080000576,111.05782810000528,114.07070260000182,114.03884649999964,,,,,,,,,,,,,,,,,,,,,,,,,,,,,,,,,,,,,,,,,,,,,,P101,001,2025-02-12_11h49.16.902,posner_endo_new1,2024.2.4,60.04617551105637,2025-02-12 11h49.24.613319 +0000,
cube_l.png,0.1,10,catch,0,0,0,up,18.785432699995,None,None,,,,,,,0,0,0,0,,,,,114.07070260000182,,,,,,,,,,,,,114.06142810000165,114.07070260000182,114.07070260000182,114.07070260000182,132.87009009999747,,,,132.88063680000778,132.89084809999622,132.89084809999622,132.93572560000757,132.93604950000008,132.95226879999973,132.95226879999973,132.95226879999973,133.03554989999975,135.94988100000774,,,,135.05018089999794,135.9658674999955,135.9658674999955,135.9658674999955,up,18.785432699995,None,None,,,,,,,,,,,,,,,,,P101,001,2025-02-12_11h49.16.902,posner_endo_new1,2024.2.4,60.04617551105637,2025-02-12 11h49.24.613319 +0000,
cube_l.png,0.1,10,catch,1,1,0,up,5.833712799998466,None,None,,,,,,,0,1,1,1,,,,,135.9658674999955,,,,,,,,,,,,,135.95012110000243,135.9658674999955,135.9658674999955,135.9658674999955,141.81094169999415,,,,141.82071899999573,141.83101150000584,141.83101150000584,141.87658050000027,141.87689689999388,141.89316069999768,141.89316069999768,141.89316069999768,141.97638110000116,144.89071920000424,,,,143.9909672000067,144.90661459999683,144.90661459999683,144.90661459999683,up,5.833712799998466,None,None,,,,,,,,,,,,,,,,,P101,001,2025-02-12_11h49.16.902,posner_endo_new1,2024.2.4,60.04617551105637,2025-02-12 11h49.24.613319 +0000,
cube_l.png,0.1,0.31,invalid,2,2,0,up,1.4850592000002507,None,space,0.6154087000031723,None,,,,,0,2,2,2,,,,,144.90661459999683,,,,,,,,,,,,,144.8909633000003,144.90661459999683,144.90661459999683,144.90661459999683,146.40631479999865,,,,146.41541800000414,146.42518720000226,146.42518720000226,146.47175949999655,146.4719965999975,146.48834710000665,146.48834710000665,146.48834710000665,146.57141069999489,147.10546439999598,,,,,,,,up,1.4850592000002507,None,space,0.6154087000031723,None,,,,,,,,,,,,,,,P101,001,2025-02-12_11h49.16.902,posner_endo_new1,2024.2.4,60.04617551105637,2025-02-12 11h49.24.613319 +0000,
cube_l.png,0.1,0.31,invalid,3,3,0,up,4.287018900009571,None,space,0.437518499995349,None,,,,,0,3,3,3,,,,,147.12110839999514,,,,,,,,,,,,,147.105644700001,147.12110839999514,147.12110839999514,147.12110839999514,151.41755509999348,,,,151.4234703999973,151.43510129999777,151.43510129999777,151.4833351999987,151.4835718999966,151.4999012000044,151.4999012000044,151.4999012000044,151.58316670000204,151.95012370000768,,,,,,,,up,4.287018900009571,None,space,0.437518499995349,None,,,,,,,,,,,,,,,P101,001,2025-02-12_11h49.16.902,posner_endo_new1,2024.2.4,60.04617551105637,2025-02-12 11h49.24.613319 +0000,
cube_l.png,0.1,-0.31,valid,4,4,0,up,4.761626699997578,None,space,0.38895310000225436,None,,,,,0,4,4,4,,,,,151.9660048000078,,,,,,,,,,,,,151.9503001999983,151.9660048000078,151.9660048000078,151.9660048000078,156.72872050000296,,,,156.73474580000038,156.74646300000313,156.74646300000313,156.7946859000076,156.7949246000062,156.81118309999874,156.81118309999874,156.81118309999874,156.89449609999429,157.21142629999667,,,,,,,,up,4.761626699997578,None,space,0.38895310000225436,None,,,,,,,,,,,,,,,P101,001,2025-02-12_11h49.16.902,posner_endo_new1,2024.2.4,60.04617551105637,2025-02-12 11h49.24.613319 +0000,
cube_r.png,0.1,-0.31,invalid,5,5,0,up,3.6601232000102755,None,space,0.43491789999825414,None,,,,,0,5,5,5,,,,,157.22730850000517,,,,,,,,,,,,,157.2116040999972,157.22730850000517,157.22730850000517,157.22730850000517,160.89112299999397,,,,160.89707069999713,160.90865779999876,160.90865779999876,160.95683520000603,160.95707220000622,160.97355939999397,160.97355939999397,160.97355939999397,161.05668750000768,161.42394019999483,,,,,,,,up,3.6601232000102755,None,space,0.43491789999825414,None,,,,,,,,,,,,,,,P101,001,2025-02-12_11h49.16.902,posner_endo_new1,2024.2.4,60.04617551105637,2025-02-12 11h49.24.613319 +0000,
cube_r.png,0.1,0.31,valid,6,6,0,up,7.096702399998321,None,space,0.43492879999394063,None,,,,,0,6,6,6,,,,,161.4397420000023,,,,,,,,,,,,,161.4241178999946,161.4397420000023,161.4397420000023,161.4397420000023,168.55000550000113,,,,168.5562906999985,168.56784669999615,168.56784669999615,168.6157974999951,168.61603340000147,168.63235810000333,168.63235810000333,168.63235810000333,168.71556019999844,169.08260330000485,,,,,,,,up,7.096702399998321,None,space,0.43492879999394063,None,,,,,,,,,,,,,,,P101,001,2025-02-12_11h49.16.902,posner_endo_new1,2024.2.4,60.04617551105637,2025-02-12 11h49.24.613319 +0000,
cube_r.png,0.1,-0.31,invalid,7,7,0,up,4.501630899991142,None,space,0.38259750000725035,None,,,,,0,7,7,7,,,,,169.09852410000167,,,,,,,,,,,,,169.08278320000682,169.09852410000167,169.09852410000167,169.09852410000167,173.61144259999855,,,,173.61744689999614,173.62902870000107,173.62902870000107,173.67737710000074,173.67761009999958,173.69371310000133,173.69371310000133,173.69371310000133,173.7771087000001,174.0777173999959,,,,,,,,up,4.501630899991142,None,space,0.38259750000725035,None,,,,,,,,,,,,,,,P101,001,2025-02-12_11h49.16.902,posner_endo_new1,2024.2.4,60.04617551105637,2025-02-12 11h49.24.613319 +0000,
cube_l.png,0.1,-0.31,valid,8,8,0,up,3.5868448999972316,None,space,0.3554862000019057,None,,,,,0,8,8,8,,,,,174.09339049999835,,,,,,,,,,,,,174.07790069999464,174.09339049999835,174.09339049999835,174.09339049999835,177.69034840000677,,,,177.69638730000588,177.70806210000592,177.70806210000592,177.75648280000314,177.75671980000334,177.7730520000041,177.7730520000041,177.7730520000041,177.8396028999996,178.14023230000748,,,,,,,,up,3.5868448999972316,None,space,0.3554862000019057,None,,,,,,,,,,,,,,,P101,001,2025-02-12_11h49.16.902,posner_endo_new1,2024.2.4,60.04617551105637,2025-02-12 11h49.24.613319 +0000,
cube_r.png,0.1,-0.31,invalid,9,9,0,up,3.716223600000376,None,space,0.3963624999887543,None,,,,,0,9,9,9,,,,,178.15586909999547,,,,,,,,,,,,,178.14040889999887,178.15586909999547,178.15586909999547,178.15586909999547,181.88631370000076,,,,181.89217310000095,181.9038459000003,181.9038459000003,181.95211009999912,181.95234540000092,181.96862519999559,181.96862519999559,181.96862519999559,182.03538750000007,182.36923949999618,,,,,,,,up,3.716223600000376,None,space,0.3963624999887543,None,,,,,,,,,,,,,,,P101,001,2025-02-12_11h49.16.902,posner_endo_new1,2024.2.4,60.04617551105637,2025-02-12 11h49.24.613319 +0000,
cube_l.png,0.1,0.31,invalid,10,10,0,up,3.863192999997409,None,space,0.42324840000947006,None,,,,,0,10,10,10,,,,,182.3851549999963,,,,,,,,,,,,,182.36941749999824,182.3851549999963,182.3851549999963,182.3851549999963,186.26518070000748,,,,186.27125940000406,186.28255329999956,186.28255329999956,186.3310083999968,186.33125230000587,186.3474908000062,186.3474908000062,186.3474908000062,186.41414999999688,186.78117479999491,,,,,,,,up,3.863192999997409,None,space,0.42324840000947006,None,,,,,,,,,,,,,,,P101,001,2025-02-12_11h49.16.902,posner_endo_new1,2024.2.4,60.04617551105637,2025-02-12 11h49.24.613319 +0000,
cube_r.png,0.1,-0.31,invalid,11,11,0,up,4.818395499998587,None,space,0.411125999991782,None,,,,,0,11,11,11,,,,,186.79728889999387,,,,,,,,,,,,,186.78135330000077,186.79728889999387,186.79728889999387,186.79728889999387,191.62638689999585,,,,191.63239590000012,191.64388679999684,191.64388679999684,191.69233099999838,191.69257080000534,191.7088584000012,191.7088584000012,191.7088584000012,191.77538690000074,192.1257312999951,,,,,,,,up,4.818395499998587,None,space,0.411125999991782,None,,,,,,,,,,,,,,,P101,001,2025-02-12_11h49.16.902,posner_endo_new1,2024.2.4,60.04617551105637,2025-02-12 11h49.24.613319 +0000,
cube_r.png,0.1,0.31,valid,12,12,0,up,3.9618281000002753,None,space,0.35900900000706315,None,,,,,0,12,12,12,,,,,192.14179120000335,,,,,,,,,,,,,192.12590980000095,192.14179120000335,192.14179120000335,192.14179120000335,196.1052742000029,,,,196.1113539000071,196.12318650000088,196.12318650000088,196.1710585999972,196.17129359999672,196.18750559999899,196.18750559999899,196.18750559999899,196.27073400000518,196.55471759999637,,,,,,,,up,3.9618281000002753,None,space,0.35900900000706315,None,,,,,,,,,,,,,,,P101,001,2025-02-12_11h49.16.902,posner_endo_new1,2024.2.4,60.04617551105637,2025-02-12 11h49.24.613319 +0000,
cube_l.png,0.1,10,catch,13,13,0,up,4.308802600004128,None,None,,,,,,,0,13,13,13,,,,,196.57064510000055,,,,,,,,,,,,,196.55489600000146,196.57064510000055,196.57064510000055,196.57064510000055,200.88355339999544,,,,200.88963400000648,200.9011627,200.9011627,200.94935229999828,200.9495878000016,200.9659224000061,200.9659224000061,200.9659224000061,201.04924649999884,203.96343380000326,,,,203.06369260000065,203.97943130000203,203.97943130000203,203.97943130000203,up,4.308802600004128,None,None,,,,,,,,,,,,,,,,,P101,001,2025-02-12_11h49.16.902,posner_endo_new1,2024.2.4,60.04617551105637,2025-02-12 11h49.24.613319 +0000,
cube_r.png,0.1,-0.31,invalid,14,14,0,up,2.020030300001963,None,space,0.44187520000559743,None,,,,,0,14,14,14,,,,,203.97943130000203,,,,,,,,,,,,,203.96360010000353,203.97943130000203,203.97943130000203,203.97943130000203,206.0115644000034,,,,206.01751410000725,206.02903900000092,206.02903900000092,206.0774270999973,206.07767100000638,206.09402790000604,206.09402790000604,206.09402790000604,206.1604542999994,206.5444767000008,,,,,,,,up,2.020030300001963,None,space,0.44187520000559743,None,,,,,,,,,,,,,,,P101,001,2025-02-12_11h49.16.902,posner_endo_new1,2024.2.4,60.04617551105637,2025-02-12 11h49.24.613319 +0000,
cube_l.png,0.1,-0.31,valid,15,15,0,up,4.43133669999952,None,space,0.4733989000087604,None,,,,,0,15,15,15,,,,,206.56016629999795,,,,,,,,,,,,,206.54465749999508,206.56016629999795,206.56016629999795,206.56016629999795,211.00648199999705,,,,211.01248629999463,211.02383750000445,211.02383750000445,211.07232400000794,211.07256040000357,211.08876040000177,211.08876040000177,211.08876040000177,211.1722887000069,211.57260739999765,,,,,,,,up,4.43133669999952,None,space,0.4733989000087604,None,,,,,,,,,,,,,,,P101,001,2025-02-12_11h49.16.902,posner_endo_new1,2024.2.4,60.04617551105637,2025-02-12 11h49.24.613319 +0000,
cube_r.png,0.1,10,catch,16,16,0,up,3.9632721999951173,None,None,,,,,,,0,16,16,16,,,,,211.58841320000647,,,,,,,,,,,,,211.57279249999556,211.58841320000647,211.58841320000647,211.58841320000647,215.568511999998,,,,215.574529599995,215.58590980000736,215.58590980000736,215.6345699999947,215.63481289999618,215.6508410999959,215.6508410999959,215.6508410999959,215.73414620000403,218.64836110000033,,,,217.74891070000012,218.6644912000047,218.6644912000047,218.6644912000047,up,3.9632721999951173,None,None,,,,,,,,,,,,,,,,,P101,001,2025-02-12_11h49.16.902,posner_endo_new1,2024.2.4,60.04617551105637,2025-02-12 11h49.24.613319 +0000,
cube_r.png,0.1,10,catch,17,17,0,up,1.1352765999909025,None,None,,,,,,,0,17,17,17,,,,,218.6644912000047,,,,,,,,,,,,,218.64852889999747,218.6644912000047,218.6644912000047,218.6644912000047,219.81407570000738,,,,219.82016250000743,219.83163919999788,219.83163919999788,219.88001170000643,219.88024680000672,219.89663440000731,219.89663440000731,219.89663440000731,219.9632672000007,222.8942498999968,,,,221.97783380000328,222.9102741999959,222.9102741999959,222.9102741999959,up,1.1352765999909025,None,None,,,,,,,,,,,,,,,,,P101,001,2025-02-12_11h49.16.902,posner_endo_new1,2024.2.4,60.04617551105637,2025-02-12 11h49.24.613319 +0000,
cube_l.png,0.1,0.31,invalid,18,18,0,up,1.3458648000087123,None,space,0.4979081000055885,None,,,,,0,18,18,18,,,,,222.9102741999959,,,,,,,,,,,,,222.8944782000035,222.9102741999959,222.9102741999959,222.9102741999959,224.2598039000004,,,,224.2693481000024,224.2794356999948,224.2794356999948,224.32556040000054,224.3258569000027,224.34204420000606,224.34204420000606,224.34204420000606,224.42533810000168,224.84274890000233,,,,,,,,up,1.3458648000087123,None,space,0.4979081000055885,None,,,,,,,,,,,,,,,P101,001,2025-02-12_11h49.16.902,posner_endo_new1,2024.2.4,60.04617551105637,2025-02-12 11h49.24.613319 +0000,
cube_l.png,0.1,10,catch,19,19,0,up,3.431141100008972,None,None,,,,,,,0,19,19,19,,,,,224.8581891000067,,,,,,,,,,,,,224.8430004999973,224.8581891000067,224.8581891000067,224.8581891000067,228.3057761999953,,,,228.31548809999367,228.32502360000217,228.32502360000217,228.3711794999981,228.37141669999983,228.38780339999357,228.38780339999357,228.38780339999357,228.47108679999656,231.3855070999998,,,,230.48573960000067,231.40163120000216,231.40163120000216,231.40163120000216,up,3.431141100008972,None,None,,,,,,,,,,,,,,,,,P101,001,2025-02-12_11h49.16.902,posner_endo_new1,2024.2.4,60.04617551105637,2025-02-12 11h49.24.613319 +0000,
cube_l.png,0.1,0.31,invalid,20,20,0,up,2.0700370999984443,None,space,0.4141366999974707,None,,,,,0,20,20,20,,,,,231.40163120000216,,,,,,,,,,,,,231.38568459999806,231.40163120000216,231.40163120000216,231.40163120000216,233.483501900002,,,,233.48998189999838,233.5016781000013,233.5016781000013,233.54939030000241,233.5496273000026,233.56595010000456,233.56595010000456,233.56595010000456,233.64904269999533,233.98301209999772,,,,,,,,up,2.0700370999984443,None,space,0.4141366999974707,None,,,,,,,,,,,,,,,P101,001,2025-02-12_11h49.16.902,posner_endo_new1,2024.2.4,60.04617551105637,2025-02-12 11h49.24.613319 +0000,
cube_l.png,0.1,-0.31,valid,21,21,0,up,4.024468999996316,None,space,0.4063816999987466,None,,,,,0,21,21,21,,,,,233.99897159999819,,,,,,,,,,,,,233.9831969000079,233.99897159999819,233.99897159999819,233.99897159999819,238.02887300000293,,,,238.03523690000293,238.04680989999906,238.04680989999906,238.094769000003,238.09500929999922,238.11124729999574,238.11124729999574,238.11124729999574,238.17774149999605,238.52829440000642,,,,,,,,up,4.024468999996316,None,space,0.4063816999987466,None,,,,,,,,,,,,,,,P101,001,2025-02-12_11h49.16.902,posner_endo_new1,2024.2.4,60.04617551105637,2025-02-12 11h49.24.613319 +0000,
cube_r.png,0.1,0.31,valid,22,22,0,up,4.143715500002145,None,space,0.513385099999141,None,,,,,0,22,22,22,,,,,238.54421639999782,,,,,,,,,,,,,238.52848199999426,238.54421639999782,238.54421639999782,238.54421639999782,242.6906667000003,,,,242.69700630000443,242.7087876000005,242.7087876000005,242.75671200000215,242.75694700000167,242.77322899999854,242.77322899999854,242.77322899999854,242.83977449999657,243.29034439999668,,,,,,,,up,4.143715500002145,None,space,0.513385099999141,None,,,,,,,,,,,,,,,P101,001,2025-02-12_11h49.16.902,posner_endo_new1,2024.2.4,60.04617551105637,2025-02-12 11h49.24.613319 +0000,
cube_r.png,0.1,-0.31,invalid,23,23,0,up,4.525999400008004,None,space,0.40564569999696687,None,,,,,0,23,23,23,,,,,243.30601770000067,,,,,,,,,,,,,243.29052399999637,243.30601770000067,243.30601770000067,243.30601770000067,247.83564069999557,,,,247.8424842999957,247.8542041000037,247.8542041000037,247.9013799999957,247.90161879999505,247.91793429999962,247.91793429999962,247.91793429999962,248.00109320000047,248.33496350000496,,,,,,,,up,4.525999400008004,None,space,0.40564569999696687,None,,,,,,,,,,,,,,,P101,001,2025-02-12_11h49.16.902,posner_endo_new1,2024.2.4,60.04617551105637,2025-02-12 11h49.24.613319 +0000,
cube_r.png,0.1,0.31,valid,24,24,0,up,4.768528600005084,None,space,0.2931038999959128,None,,,,,0,24,24,24,,,,,248.35083280000254,,,,,,,,,,,,,248.33514179999474,248.35083280000254,248.35083280000254,248.35083280000254,253.13013299999875,,,,253.13658829999622,253.14800869999453,253.14800869999453,253.1960182000039,253.19625819999783,253.21246249999967,253.21246249999967,253.21246249999967,253.27912580000702,253.51314569999522,,,,,,,,up,4.768528600005084,None,space,0.2931038999959128,None,,,,,,,,,,,,,,,P101,001,2025-02-12_11h49.16.902,posner_endo_new1,2024.2.4,60.04617551105637,2025-02-12 11h49.24.613319 +0000,
cube_r.png,0.1,-0.31,invalid,25,25,0,up,2.487227699995856,None,space,0.5561619000072824,None,,,,,0,25,25,25,,,,,253.52888929999608,,,,,,,,,,,,,253.51333060000616,253.52888929999608,253.52888929999608,253.52888929999608,256.0270981000067,,,,256.033657699998,256.04547280000406,256.04547280000406,256.0928290000011,256.09306270000525,256.1096896999952,256.1096896999952,256.1096896999952,256.19294570000784,256.6765910999966,,,,,,,,up,2.487227699995856,None,space,0.5561619000072824,None,,,,,,,,,,,,,,,P101,001,2025-02-12_11h49.16.902,posner_endo_new1,2024.2.4,60.04617551105637,2025-02-12 11h49.24.613319 +0000,
cube_l.png,0.1,-0.31,valid,26,26,0,up,4.33162209999864,None,space,0.3539920000039274,None,,,,,0,26,26,26,,,,,256.69221809999726,,,,,,,,,,,,,256.67676859999483,256.69221809999726,256.69221809999726,256.69221809999726,261.0386415999965,,,,261.0453550999955,261.05737260000024,261.05737260000024,261.10449670000526,261.10473679999996,261.1210418999981,261.1210418999981,261.1210418999981,261.20422210000106,261.4882457000058,,,,,,,,up,4.33162209999864,None,space,0.3539920000039274,None,,,,,,,,,,,,,,,P101,001,2025-02-12_11h49.16.902,posner_endo_new1,2024.2.4,60.04617551105637,2025-02-12 11h49.24.613319 +0000,
cube_r.png,0.1,0.31,valid,27,27,0,up,5.072580299995025,None,space,0.3479936999938218,None,,,,,0,27,27,27,,,,,261.5040894999984,,,,,,,,,,,,,261.4884253000055,261.5040894999984,261.5040894999984,261.5040894999984,266.58290029999625,,,,266.589169400002,266.60081750000245,266.60081750000245,266.64876650000224,266.64901170000667,266.66539609999745,266.66539609999745,266.66539609999745,266.73202939999464,267.0159768000012,,,,,,,,up,5.072580299995025,None,space,0.3479936999938218,None,,,,,,,,,,,,,,,P101,001,2025-02-12_11h49.16.902,posner_endo_new1,2024.2.4,60.04617551105637,2025-02-12 11h49.24.613319 +0000,
cube_r.png,0.1,10,catch,28,28,0,up,4.104598600009922,None,None,,,,,,,0,28,28,28,,,,,267.03171949999523,,,,,,,,,,,,,267.01616379999905,267.03171949999523,267.03171949999523,267.03171949999523,271.1450765000045,,,,271.15120500000194,271.1628158999956,271.1628158999956,271.21089329999813,271.21113239999977,271.22730389999924,271.22730389999924,271.22730389999924,271.3106071000075,274.22491509999963,,,,273.32536770000297,274.24107849999564,274.24107849999564,274.24107849999564,up,4.104598600009922,None,None,,,,,,,,,,,,,,,,,P101,001,2025-02-12_11h49.16.902,posner_endo_new1,2024.2.4,60.04617551105637,2025-02-12 11h49.24.613319 +0000,
cube_r.png,0.1,0.31,valid,29,29,0,up,2.182641400009743,None,space,0.4249697999912314,None,,,,,0,29,29,29,,,,,274.24107849999564,,,,,,,,,,,,,274.22508679999737,274.24107849999564,274.24107849999564,274.24107849999564,276.4397822000028,,,,276.44843240000773,276.45866340000066,276.45866340000066,276.5055694000039,276.5058751000033,276.5220016999956,276.5220016999956,276.5220016999956,276.60531769999943,276.9559109999973,,,,,,,,up,2.182641400009743,None,space,0.4249697999912314,None,,,,,,,,,,,,,,,P101,001,2025-02-12_11h49.16.902,posner_endo_new1,2024.2.4,60.04617551105637,2025-02-12 11h49.24.613319 +0000,
cube_r.png,0.1,0.31,valid,30,30,0,up,7.3243901999958325,None,space,0.36017630000424106,None,,,,,0,30,30,30,,,,,276.9716655999946,,,,,,,,,,,,,276.95615250000264,276.9716655999946,276.9716655999946,276.9716655999946,284.29858570000215,,,,284.31115639999916,284.32132259999344,284.32132259999344,284.3640432999964,284.36431590000575,284.3806523999956,284.3806523999956,284.3806523999956,284.4637766999949,284.7478279000061,,,,,,,,up,7.3243901999958325,None,space,0.36017630000424106,None,,,,,,,,,,,,,,,P101,001,2025-02-12_11h49.16.902,posner_endo_new1,2024.2.4,60.04617551105637,2025-02-12 11h49.24.613319 +0000,
cube_l.png,0.1,-0.31,valid,31,31,0,up,5.2288329000002705,None,space,0.3909245999966515,None,,,,,0,31,31,31,,,,,284.7635624999966,,,,,,,,,,,,,284.74804989999393,284.7635624999966,284.7635624999966,284.7635624999966,290.00921210000524,,,,290.017168499995,290.02779290000035,290.02779290000035,290.07497840000724,290.07525179999357,290.09137930000725,290.09137930000725,290.09137930000725,290.17458920000354,290.49197259999346,,,,,,,,up,5.2288329000002705,None,space,0.3909245999966515,None,,,,,,,,,,,,,,,P101,001,2025-02-12_11h49.16.902,posner_endo_new1,2024.2.4,60.04617551105637,2025-02-12 11h49.24.613319 +0000,
cube_r.png,0.1,0.31,valid,32,32,0,up,5.189224300003843,None,space,0.3312774999940302,None,,,,,0,32,32,32,,,,,290.5078016000043,,,,,,,,,,,,,290.4921877000015,290.5078016000043,290.5078016000043,290.5078016000043,295.7033085000003,,,,295.7111620000069,295.72198729999945,295.72198729999945,295.7691835000005,295.76945580000756,295.7860015000042,295.7860015000042,295.7860015000042,295.86886709999817,296.1196578999952,,,,,,,,up,5.189224300003843,None,space,0.3312774999940302,None,,,,,,,,,,,,,,,P101,001,2025-02-12_11h49.16.902,posner_endo_new1,2024.2.4,60.04617551105637,2025-02-12 11h49.24.613319 +0000,
cube_r.png,0.1,-0.31,invalid,33,33,0,up,4.872145999994245,None,space,0.4545374000008451,None,,,,,0,33,33,33,,,,,296.13542780000716,,,,,,,,,,,,,296.1198729000025,296.13542780000716,296.13542780000716,296.13542780000716,301.01472629999625,,,,301.02726030000485,301.0378180999978,301.0378180999978,301.0803994000016,301.08070350000344,301.0969349000079,301.0969349000079,301.0969349000079,301.1801354000054,301.56414550000045,,,,,,,,up,4.872145999994245,None,space,0.4545374000008451,None,,,,,,,,,,,,,,,P101,001,2025-02-12_11h49.16.902,posner_endo_new1,2024.2.4,60.04617551105637,2025-02-12 11h49.24.613319 +0000,
cube_r.png,0.1,10,catch,34,34,0,up,4.779921900000772,None,None,,,,,,,0,34,34,34,,,,,301.57984790000774,,,,,,,,,,,,,301.56437829999777,301.57984790000774,301.57984790000774,301.57984790000774,306.3758955999947,,,,306.3842721999972,306.39441510000324,306.39441510000324,306.4416287000058,306.4419216999959,306.4581643999991,306.4581643999991,306.4581643999991,306.54140289999486,309.4557571000041,,,,308.55591280000226,309.47175830000197,309.47175830000197,309.47175830000197,up,4.779921900000772,None,None,,,,,,,,,,,,,,,,,P101,001,2025-02-12_11h49.16.902,posner_endo_new1,2024.2.4,60.04617551105637,2025-02-12 11h49.24.613319 +0000,
cube_r.png,0.1,0.31,valid,35,35,0,up,2.8325503999949433,None,space,0.5023288000083994,None,,,,,0,35,35,35,,,,,309.47175830000197,,,,,,,,,,,,,309.4559724999999,309.47175830000197,309.47175830000197,309.47175830000197,312.3198076999979,,,,312.3282520000066,312.33850329999404,312.33850329999404,312.38546230000793,312.38574709999375,312.4020821000013,312.4020821000013,312.4020821000013,312.485233600004,312.91912639999646,,,,,,,,up,2.8325503999949433,None,space,0.5023288000083994,None,,,,,,,,,,,,,,,P101,001,2025-02-12_11h49.16.902,posner_endo_new1,2024.2.4,60.04617551105637,2025-02-12 11h49.24.613319 +0000,
cube_r.png,0.1,-0.31,invalid,36,36,0,up,5.296883400005754,None,space,0.4075414999970235,None,,,,,0,36,36,36,,,,,312.93481049999536,,,,,,,,,,,,,312.9193688999949,312.93481049999536,312.93481049999536,312.93481049999536,318.247082899994,,,,318.2597669999959,318.26989749999484,318.26989749999484,318.3124756000034,318.3128798999969,318.3288843000046,318.3288843000046,318.3288843000046,318.412132700003,318.746601699997,,,,,,,,up,5.296883400005754,None,space,0.4075414999970235,None,,,,,,,,,,,,,,,P101,001,2025-02-12_11h49.16.902,posner_endo_new1,2024.2.4,60.04617551105637,2025-02-12 11h49.24.613319 +0000,
cube_l.png,0.1,0.31,invalid,37,37,0,up,6.037995699996827,None,space,0.40345079998951405,None,,,,,0,37,37,37,,,,,318.76177490000555,,,,,,,,,,,,,318.7469465000031,318.76177490000555,318.76177490000555,318.76177490000555,324.8069936999964,,,,324.8148576999956,324.8255499999941,324.8255499999941,324.87267310000607,324.87294460000703,324.88931169999705,324.88931169999705,324.88931169999705,324.9724404000008,325.3063567000063,,,,,,,,up,6.037995699996827,None,space,0.40345079998951405,None,,,,,,,,,,,,,,,P101,001,2025-02-12_11h49.16.902,posner_endo_new1,2024.2.4,60.04617551105637,2025-02-12 11h49.24.613319 +0000,
cube_l.png,0.1,0.31,invalid,38,38,0,up,4.97348719999718,None,space,0.464384599996265,None,,,,,0,38,38,38,,,,,325.3220313000056,,,,,,,,,,,,,325.30656969999836,325.3220313000056,325.3220313000056,325.3220313000056,330.30144130000554,,,,330.30943330000446,330.3201696000033,330.3201696000033,330.3669433000032,330.3672244000045,330.3834317000001,330.3834317000001,330.3834317000001,330.46687469999597,330.85074569999415,,,,,,,,up,4.97348719999718,None,space,0.464384599996265,None,,,,,,,,,,,,,,,P101,001,2025-02-12_11h49.16.902,posner_endo_new1,2024.2.4,60.04617551105637,2025-02-12 11h49.24.613319 +0000,
cube_r.png,0.1,0.31,valid,39,39,0,up,5.469178599989391,None,space,0.41506010000011884,None,,,,,0,39,39,39,,,,,330.86645729999873,,,,,,,,,,,,,330.8509619999968,330.86645729999873,330.86645729999873,330.86645729999873,336.34520920000796,,,,336.3531267000071,336.36387460000697,336.36387460000697,336.4109488999966,336.4112199999945,336.4274616000039,336.4274616000039,336.4274616000039,336.51062580000143,336.84485320000385,,,,,,,,up,5.469178599989391,None,space,0.41506010000011884,None,,,,,,,,,,,,,,,P101,001,2025-02-12_11h49.16.902,posner_endo_new1,2024.2.4,60.04617551105637,2025-02-12 11h49.24.613319 +0000,
cube_l.png,0.1,0.31,invalid,40,40,0,up,4.331706099997973,None,space,0.5284895000077086,None,,,,,0,40,40,40,,,,,336.8604270000069,,,,,,,,,,,,,336.84507559999474,336.8604270000069,336.8604270000069,336.8604270000069,341.20682849999866,,,,341.2147269999987,341.2254057999962,341.2254057999962,341.27255170000717,341.27283010000247,341.2896655999939,341.2896655999939,341.2896655999939,341.37239810000756,341.82286020000174,,,,,,,,up,4.331706099997973,None,space,0.5284895000077086,None,,,,,,,,,,,,,,,P101,001,2025-02-12_11h49.16.902,posner_endo_new1,2024.2.4,60.04617551105637,2025-02-12 11h49.24.613319 +0000,
cube_l.png,0.1,10,catch,41,41,0,up,3.761447600001702,None,None,,,,,,,0,41,41,41,,,,,341.8385491999943,,,,,,,,,,,,,341.8230775999982,341.8385491999943,341.8385491999943,341.8385491999943,345.60248030000366,,,,345.6101101999957,345.62090189999435,345.62090189999435,345.668007500004,345.6682804000011,345.6846141999995,345.6846141999995,345.6846141999995,345.7677829000022,348.6820680999954,,,,347.78251030000683,348.69822799999383,348.69822799999383,348.69822799999383,up,3.761447600001702,None,None,,,,,,,,,,,,,,,,,P101,001,2025-02-12_11h49.16.902,posner_endo_new1,2024.2.4,60.04617551105637,2025-02-12 11h49.24.613319 +0000,
cube_l.png,0.1,-0.31,valid,42,42,0,up,2.541686500000651,None,space,0.41594720000284724,None,,,,,0,42,42,42,,,,,348.69822799999383,,,,,,,,,,,,,348.682269500001,348.69822799999383,348.69822799999383,348.69822799999383,351.2467103999952,,,,351.254385799999,351.26491359999636,351.26491359999636,351.31231229999685,351.312582700004,351.3287502000021,351.3287502000021,351.3287502000021,351.41209700000763,351.746149300001,,,,,,,,up,2.541686500000651,None,space,0.41594720000284724,None,,,,,,,,,,,,,,,P101,001,2025-02-12_11h49.16.902,posner_endo_new1,2024.2.4,60.04617551105637,2025-02-12 11h49.24.613319 +0000,
cube_l.png,0.1,10,catch,43,43,0,up,5.061899899999844,None,None,,,,,,,0,43,43,43,,,,,351.7618681000022,,,,,,,,,,,,,351.7463604999939,351.7618681000022,351.7618681000022,351.7618681000022,356.8407318999962,,,,356.84844060000614,356.859503700005,356.859503700005,356.9066094000009,356.9068846000009,356.92304920000606,356.92304920000606,356.92304920000606,357.0063654999976,359.9206491000077,,,,359.0210661000019,359.9367614000075,359.9367614000075,359.9367614000075,up,5.061899899999844,None,None,,,,,,,,,,,,,,,,,P101,001,2025-02-12_11h49.16.902,posner_endo_new1,2024.2.4,60.04617551105637,2025-02-12 11h49.24.613319 +0000,
cube_l.png,0.1,0.31,invalid,44,44,0,up,2.311012699996354,None,space,0.4362013000063598,None,,,,,0,44,44,44,,,,,359.9367614000075,,,,,,,,,,,,,359.92085219999717,359.9367614000075,359.9367614000075,359.9367614000075,362.25215640000533,,,,362.25983530000667,362.2706038000033,362.2706038000033,362.3177702999965,362.31804230000125,362.33430339999904,362.33430339999904,362.33430339999904,362.41754530000617,362.78485979999823,,,,,,,,up,2.311012699996354,None,space,0.4362013000063598,None,,,,,,,,,,,,,,,P101,001,2025-02-12_11h49.16.902,posner_endo_new1,2024.2.4,60.04617551105637,2025-02-12 11h49.24.613319 +0000,
cube_l.png,0.1,0.31,invalid,45,45,0,up,4.999340500013204,None,space,0.4884135000029346,None,,,,,0,45,45,45,,,,,362.8004801000061,,,,,,,,,,,,,362.7850771999947,362.8004801000061,362.8004801000061,362.8004801000061,367.81293499999447,,,,367.8206654999958,367.83157510000456,367.83157510000456,367.87874980000197,367.87902880000183,367.89526760000444,367.89526760000444,367.89526760000444,367.97856540000066,368.3957259000017,,,,,,,,up,4.999340500013204,None,space,0.4884135000029346,None,,,,,,,,,,,,,,,P101,001,2025-02-12_11h49.16.902,posner_endo_new1,2024.2.4,60.04617551105637,2025-02-12 11h49.24.613319 +0000,
cube_r.png,0.1,0.31,valid,46,46,0,up,5.229428999999072,None,space,0.5273397999990266,None,,,,,0,46,46,46,,,,,368.4113406999968,,,,,,,,,,,,,368.39593830000376,368.4113406999968,368.4113406999968,368.4113406999968,373.6569326000026,,,,373.6646449999971,373.67560550000053,373.67560550000053,373.722729000001,373.72300880000694,373.7393041000032,373.7393041000032,373.7393041000032,373.8057429000037,374.2729685999948,,,,,,,,up,5.229428999999072,None,space,0.5273397999990266,None,,,,,,,,,,,,,,,P101,001,2025-02-12_11h49.16.902,posner_endo_new1,2024.2.4,60.04617551105637,2025-02-12 11h49.24.613319 +0000,
cube_l.png,0.1,-0.31,valid,47,47,0,up,4.959969200004707,None,space,0.3656714000098873,None,,,,,0,47,47,47,,,,,374.2890566999995,,,,,,,,,,,,,374.27318340000056,374.2890566999995,374.2890566999995,374.2890566999995,379.251110600002,,,,379.25771550000354,379.2700043999939,379.2700043999939,379.3168704999989,379.3170872000046,379.33317880000686,379.33317880000686,379.33317880000686,379.4166000999976,379.7008453000017,,,,,,,,up,4.959969200004707,None,space,0.3656714000098873,None,,,,,,,,,,,,,,,P101,001,2025-02-12_11h49.16.902,posner_endo_new1,2024.2.4,60.04617551105637,2025-02-12 11h49.24.613319 +0000,
cube_r.png,0.1,-0.31,invalid,48,48,0,up,4.778955799993128,None,space,0.3871538999956101,None,,,,,0,48,48,48,,,,,379.7167047999974,,,,,,,,,,,,,379.7010353000078,379.7167047999974,379.7167047999974,379.7167047999974,384.5126142999943,,,,384.52500839999993,384.5347851999977,384.5347851999977,384.57799330000125,384.57839490000333,384.5944446000067,384.5944446000067,384.5944446000067,384.67764930000703,384.9954532999982,,,,,,,,up,4.778955799993128,None,space,0.3871538999956101,None,,,,,,,,,,,,,,,P101,001,2025-02-12_11h49.16.902,posner_endo_new1,2024.2.4,60.04617551105637,2025-02-12 11h49.24.613319 +0000,
cube_r.png,0.1,10,catch,49,49,0,up,4.4376157999940915,None,None,,,,,,,0,49,49,49,,,,,385.01066850000643,,,,,,,,,,,,,384.99579699999595,385.01066850000643,385.01066850000643,385.01066850000643,389.4574176000024,,,,389.46342630000436,389.47510070000135,389.47510070000135,389.5230947999953,389.5233353999938,389.5397881999961,389.5397881999961,389.5397881999961,389.62310440000147,392.5372529000015,,,,391.63766690000193,392.5534115000046,392.5534115000046,392.5534115000046,up,4.4376157999940915,None,None,,,,,,,,,,,,,,,,,P101,001,2025-02-12_11h49.16.902,posner_endo_new1,2024.2.4,60.04617551105637,2025-02-12 11h49.24.613319 +0000,
cube_l.png,0.1,-0.31,valid,50,50,0,up,1.3342063000018243,None,space,0.3737371000024723,None,,,,,0,50,50,50,,,,,392.5534115000046,,,,,,,,,,,,,392.5374184999964,392.5534115000046,392.5534115000046,392.5534115000046,393.902760500001,,,,393.9086857000075,393.9202160999994,393.9202160999994,393.96858509999583,393.9688232000044,393.9852530000062,393.9852530000062,393.9852530000062,394.051764200005,394.36896619999607,,,,,,,,up,1.3342063000018243,None,space,0.3737371000024723,None,,,,,,,,,,,,,,,P101,001,2025-02-12_11h49.16.902,posner_endo_new1,2024.2.4,60.04617551105637,2025-02-12 11h49.24.613319 +0000,
cube_l.png,0.1,-0.31,valid,51,51,0,up,4.334716599987587,None,space,0.4042894000012893,None,,,,,0,51,51,51,,,,,394.38477960000455,,,,,,,,,,,,,394.36915100000624,394.38477960000455,394.38477960000455,394.38477960000455,398.73110550000274,,,,398.7370477000077,398.74855200000457,398.74855200000457,398.7971508000046,398.7973854000011,398.8135719999991,398.8135719999991,398.8135719999991,398.8801208000077,399.23067420000734,,,,,,,,up,4.334716599987587,None,space,0.4042894000012893,None,,,,,,,,,,,,,,,P101,001,2025-02-12_11h49.16.902,posner_endo_new1,2024.2.4,60.04617551105637,2025-02-12 11h49.24.613319 +0000,
cube_r.png,0.1,-0.31,invalid,52,52,0,up,5.545769900010782,None,space,0.37900939999963157,None,,,,,0,52,52,52,,,,,399.24638500000583,,,,,,,,,,,,,399.23085130000254,399.24638500000583,399.24638500000583,399.24638500000583,404.80821849999484,,,,404.814183399998,404.82565420000174,404.82565420000174,404.8742159999965,404.8744521000044,404.89064759999746,404.89064759999746,404.89064759999746,404.9573167000053,405.2744471000042,,,,,,,,up,5.545769900010782,None,space,0.37900939999963157,None,,,,,,,,,,,,,,,P101,001,2025-02-12_11h49.16.902,posner_endo_new1,2024.2.4,60.04617551105637,2025-02-12 11h49.24.613319 +0000,
cube_l.png,0.1,-0.31,valid,53,53,0,up,5.677457099998719,None,space,0.9717490000039106,None,,,,,0,53,53,53,,,,,405.29025590000674,,,,,,,,,,,,,405.2746329999936,405.29025590000674,405.29025590000674,405.29025590000674,410.9687331000023,,,,410.97483390000707,410.98663139999553,410.98663139999553,411.0344496000034,411.03468490000523,411.05104720000236,411.05104720000236,411.05104720000236,411.13423359999433,412.0342537999968,,,,,,,,up,5.677457099998719,None,space,0.9717490000039106,None,,,,,,,,,,,,,,,P101,001,2025-02-12_11h49.16.902,posner_endo_new1,2024.2.4,60.04617551105637,2025-02-12 11h49.24.613319 +0000,
cube_r.png,0.1,10,catch,54,54,0,up,3.6073766999907093,None,None,,,,,,,0,54,54,54,,,,,412.05006019999564,,,,,,,,,,,,,412.0344308000058,412.05006019999564,412.05006019999564,412.05006019999564,415.6640691000066,,,,415.6700137000007,415.6815495000046,415.6815495000046,415.72969439999724,415.72992969999905,415.74624900000344,415.74624900000344,415.74624900000344,415.8295145000011,418.74379690000205,,,,417.8441565999965,418.75979050000024,418.75979050000024,418.75979050000024,up,3.6073766999907093,None,None,,,,,,,,,,,,,,,,,P101,001,2025-02-12_11h49.16.902,posner_endo_new1,2024.2.4,60.04617551105637,2025-02-12 11h49.24.613319 +0000,
cube_l.png,0.1,0.31,invalid,55,55,0,up,2.272164199996041,None,space,0.4463858999952208,None,,,,,0,55,55,55,,,,,418.75979050000024,,,,,,,,,,,,,418.74396459999844,418.75979050000024,418.75979050000024,418.75979050000024,421.0416153999977,,,,421.04768740000145,421.0592686000018,421.0592686000018,421.10766750000766,421.1079071999993,421.124089200006,421.124089200006,421.124089200006,421.2071319999959,421.5745309000049,,,,,,,,up,2.272164199996041,None,space,0.4463858999952208,None,,,,,,,,,,,,,,,P101,001,2025-02-12_11h49.16.902,posner_endo_new1,2024.2.4,60.04617551105637,2025-02-12 11h49.24.613319 +0000,
cube_l.png,0.1,-0.31,valid,56,56,0,up,4.521291299999575,None,space,0.3854739999951562,None,,,,,0,56,56,56,,,,,421.5903896999953,,,,,,,,,,,,,421.57470739999553,421.5903896999953,421.5903896999953,421.5903896999953,426.1198493999982,,,,426.125761400006,426.13755169999786,426.13755169999786,426.1857924000069,426.1860282999987,426.20217299999786,426.20217299999786,426.20217299999786,426.2686470000044,426.60270230000606,,,,,,,,up,4.521291299999575,None,space,0.3854739999951562,None,,,,,,,,,,,,,,,P101,001,2025-02-12_11h49.16.902,posner_endo_new1,2024.2.4,60.04617551105637,2025-02-12 11h49.24.613319 +0000,
cube_r.png,0.1,0.31,valid,57,57,0,up,5.125625400003628,None,space,0.42265610001049936,None,,,,,0,57,57,57,,,,,426.61857690000033,,,,,,,,,,,,,426.6028813000012,426.61857690000033,426.61857690000033,426.61857690000033,431.7474330999976,,,,431.75332750000234,431.7649531000061,431.7649531000061,431.81343840000045,431.813676100006,431.82981340000697,431.82981340000697,431.82981340000697,431.91311300000234,432.2634334000031,,,,,,,,up,5.125625400003628,None,space,0.42265610001049936,None,,,,,,,,,,,,,,,P101,001,2025-02-12_11h49.16.902,posner_endo_new1,2024.2.4,60.04617551105637,2025-02-12 11h49.24.613319 +0000,
cube_r.png,0.1,-0.31,invalid,58,58,0,up,4.464776599998004,None,space,0.3937741999980062,None,,,,,0,58,58,58,,,,,432.27940490000765,,,,,,,,,,,,,432.26361290000204,432.27940490000765,432.27940490000765,432.27940490000765,436.75896849999845,,,,436.76494999999704,436.7763097999996,436.7763097999996,436.82481619999453,436.8250548000069,436.8413622999942,436.8413622999942,436.8413622999942,436.9245227000065,437.24187990000064,,,,,,,,up,4.464776599998004,None,space,0.3937741999980062,None,,,,,,,,,,,,,,,P101,001,2025-02-12_11h49.16.902,posner_endo_new1,2024.2.4,60.04617551105637,2025-02-12 11h49.24.613319 +0000,
cube_l.png,0.1,0.31,invalid,59,59,0,up,5.150713600000017,None,space,0.4227545000030659,None,,,,,0,59,59,59,,,,,437.25751989999844,,,,,,,,,,,,,437.2420596000011,437.25751989999844,437.25751989999844,437.25751989999844,442.419848000005,,,,442.4256970999995,442.43729060000624,442.43729060000624,442.48574079999526,442.48597759999393,442.5022334999958,442.5022334999958,442.5022334999958,442.5687969999999,442.9359106000047,,,,,,,,up,5.150713600000017,None,space,0.4227545000030659,None,,,,,,,,,,,,,,,P101,001,2025-02-12_11h49.16.902,posner_endo_new1,2024.2.4,60.04617551105637,2025-02-12 11h49.24.613319 +0000,
,,,,,,,,,,,,,,,,,,,,,,,,,,,,,,,,,,,,,,,,,,,,,,,,,,,,,,,,,,,,,,,,,,,,,442.93602760000795,442.9517857000028,442.9517857000028,502.95698889999767,510.4667572000035,space,67.51176389999455,None,,,,,,,P101,001,2025-02-12_11h49.16.902,posner_endo_new1,2024.2.4,60.04617551105637,2025-02-12 11h49.24.613319 +0000,
,,,,,,,,,,,,,,,,,,,,,,,,,,,,,,,,,,510.46680840000045,510.48272699999507,513.4867812000011,513.4635884000018,,,,,,,,,,,,,,,,,,,,,,,,,,,,,,,,,,,,,,,,,,,,,,P101,001,2025-02-12_11h49.16.902,posner_endo_new1,2024.2.4,60.04617551105637,2025-02-12 11h49.24.613319 +0000,
cube_l.png,0.1,10,catch,0,0,0,down,6.921481899989885,None,None,,,,,,,,,,,0,0,0,0,513.4867812000011,,,,,,,,,,,,,513.4777515000023,513.4867812000011,513.4867812000011,513.4867812000011,520.4233864999987,,,,520.4295635000017,520.4412044000055,520.4412044000055,520.4891161999985,520.4893526999949,520.5056938000052,520.5056938000052,520.5056938000052,520.5890324000065,523.5031741999992,,,,522.6035070000071,523.5193884000037,523.5193884000037,523.5193884000037,,,,,,,,,,,,,,,down,6.921481899989885,None,None,,,P101,001,2025-02-12_11h49.16.902,posner_endo_new1,2024.2.4,60.04617551105637,2025-02-12 11h49.24.613319 +0000,
cube_l.png,0.1,10,catch,1,1,0,down,0.9450837999902433,None,None,,,,,,,,,,,0,1,1,1,523.5193884000037,,,,,,,,,,,,,523.5033451000054,523.5193884000037,523.5193884000037,523.5193884000037,524.4692458000063,,,,524.4752518000023,524.4869564999972,524.4869564999972,524.5352165000077,524.5354573999939,524.5517533999955,524.5517533999955,524.5517533999955,524.6348810000054,527.5491290000064,,,,526.649444900002,527.5651710999955,527.5651710999955,527.5651710999955,,,,,,,,,,,,,,,down,0.9450837999902433,None,None,,,P101,001,2025-02-12_11h49.16.902,posner_endo_new1,2024.2.4,60.04617551105637,2025-02-12 11h49.24.613319 +0000,
cube_l.png,0.1,0.31,invalid,2,2,0,down,1.010647599992808,None,space,0.44087009999202564,None,,,,,,,,,0,2,2,2,527.5651710999955,,,,,,,,,,,,,527.5492985000019,527.5651710999955,527.5651710999955,527.5651710999955,528.5816279999999,,,,528.5875259000022,528.5989514999965,528.5989514999965,528.6475516000064,528.6477902000042,528.6640870999981,528.6640870999981,528.6640870999981,528.7306495999946,529.1145913000073,,,,,,,,,,,,,,,,,,,,,,down,1.010647599992808,None,space,0.44087009999202564,None,P101,001,2025-02-12_11h49.16.902,posner_endo_new1,2024.2.4,60.04617551105637,2025-02-12 11h49.24.613319 +0000,
cube_l.png,0.1,0.31,invalid,3,3,0,down,4.453945400004159,None,space,0.41566500000772066,None,,,,,,,,,0,3,3,3,529.1304489000031,,,,,,,,,,,,,529.1147729000077,529.1304489000031,529.1304489000031,529.1304489000031,533.5932275999949,,,,533.5991497000068,533.6108772000007,533.6108772000007,533.6591545999981,533.6593942000036,533.6757204000023,533.6757204000023,533.6757204000023,533.7588410000026,534.0929676999949,,,,,,,,,,,,,,,,,,,,,,down,4.453945400004159,None,space,0.41566500000772066,None,P101,001,2025-02-12_11h49.16.902,posner_endo_new1,2024.2.4,60.04617551105637,2025-02-12 11h49.24.613319 +0000,
cube_l.png,0.1,-0.31,valid,4,4,0,down,3.8674761000002036,None,space,0.4602553999866359,None,,,,,,,,,0,4,4,4,534.108405299994,,,,,,,,,,,,,534.0931576000003,534.108405299994,534.108405299994,534.108405299994,537.9888224000024,,,,537.9946995000064,538.0062420000031,538.0062420000031,538.0546083999943,538.054844600003,538.0711701999971,538.0711701999971,538.0711701999971,538.1543920999975,538.5380431999947,,,,,,,,,,,,,,,,,,,,,,down,3.8674761000002036,None,space,0.4602553999866359,None,P101,001,2025-02-12_11h49.16.902,posner_endo_new1,2024.2.4,60.04617551105637,2025-02-12 11h49.24.613319 +0000,
cube_r.png,0.1,-0.31,invalid,5,5,0,down,4.4462956999923335,None,space,0.49628520000260323,None,,,,,,,,,0,5,5,5,538.5539276000054,,,,,,,,,,,,,538.5382250999974,538.5539276000054,538.5539276000054,538.5539276000054,543.0169751000067,,,,543.0229527000047,543.0342609000072,543.0342609000072,543.0828865999938,543.083118399998,543.0992626999941,543.0992626999941,543.0992626999941,543.1826617000042,543.5996257999941,,,,,,,,,,,,,,,,,,,,,,down,4.4462956999923335,None,space,0.49628520000260323,None,P101,001,2025-02-12_11h49.16.902,posner_endo_new1,2024.2.4,60.04617551105637,2025-02-12 11h49.24.613319 +0000,
cube_r.png,0.1,0.31,valid,6,6,0,down,3.9841028999944683,None,space,0.4731166999990819,None,,,,,,,,,0,6,6,6,543.6154650999961,,,,,,,,,,,,,543.599807000006,543.6154650999961,543.6154650999961,543.6154650999961,547.6122407000075,,,,547.6181255999982,547.6296588999976,547.6296588999976,547.6781470999995,547.6783830000059,547.6945687999978,547.6945687999978,547.6945687999978,547.7611743000016,548.178390800007,,,,,,,,,,,,,,,,,,,,,,down,3.9841028999944683,None,space,0.4731166999990819,None,P101,001,2025-02-12_11h49.16.902,posner_endo_new1,2024.2.4,60.04617551105637,2025-02-12 11h49.24.613319 +0000,
cube_r.png,0.1,-0.31,invalid,7,7,0,down,3.4456191000062972,None,space,0.42638829999486916,None,,,,,,,,,0,7,7,7,548.194230299996,,,,,,,,,,,,,548.1785718000028,548.194230299996,548.194230299996,548.194230299996,551.6415056999977,,,,551.6474327000033,551.6592112000071,551.6592112000071,551.7073948000034,551.707633900005,551.7238158999971,551.7238158999971,551.7238158999971,551.8069749999995,552.1573874000023,,,,,,,,,,,,,,,,,,,,,,down,3.4456191000062972,None,space,0.42638829999486916,None,P101,001,2025-02-12_11h49.16.902,posner_endo_new1,2024.2.4,60.04617551105637,2025-02-12 11h49.24.613319 +0000,
cube_l.png,0.1,-0.31,valid,8,8,0,down,4.115126200005761,None,space,0.34880380000686273,None,,,,,,,,,0,8,8,8,552.1734256000054,,,,,,,,,,,,,552.1575706000003,552.1734256000054,552.1734256000054,552.1734256000054,556.303164500001,,,,556.3092421000038,556.3207556999987,556.3207556999987,556.3692077000014,556.3694486000022,556.3858085999964,556.3858085999964,556.3858085999964,556.4524224000052,556.7362244999968,,,,,,,,,,,,,,,,,,,,,,down,4.115126200005761,None,space,0.34880380000686273,None,P101,001,2025-02-12_11h49.16.902,posner_endo_new1,2024.2.4,60.04617551105637,2025-02-12 11h49.24.613319 +0000,
cube_r.png,0.1,-0.31,invalid,9,9,0,down,3.552570800005924,None,space,0.45613170000433456,None,,,,,,,,,0,9,9,9,556.7520427999989,,,,,,,,,,,,,556.7364062999986,556.7520427999989,556.7520427999989,556.7520427999989,560.3160365000076,,,,560.3218825999938,560.3335671999957,560.3335671999957,560.3817860999989,560.3820187999954,560.3983420000004,560.3983420000004,560.3983420000004,560.4816572999989,560.8654059999972,,,,,,,,,,,,,,,,,,,,,,down,3.552570800005924,None,space,0.45613170000433456,None,P101,001,2025-02-12_11h49.16.902,posner_endo_new1,2024.2.4,60.04617551105637,2025-02-12 11h49.24.613319 +0000,
cube_l.png,0.1,0.31,invalid,10,10,0,down,4.2627706000057515,None,space,0.4129761999938637,None,,,,,,,,,0,10,10,10,560.8812866999942,,,,,,,,,,,,,560.8655856999976,560.8812866999942,560.8812866999942,560.8812866999942,565.1608898999984,,,,565.1670549999981,565.1784093000024,565.1784093000024,565.2268838000018,565.2271247000026,565.2433280999976,565.2433280999976,565.2433280999976,565.3265570000076,565.6605933999963,,,,,,,,,,,,,,,,,,,,,,down,4.2627706000057515,None,space,0.4129761999938637,None,P101,001,2025-02-12_11h49.16.902,posner_endo_new1,2024.2.4,60.04617551105637,2025-02-12 11h49.24.613319 +0000,
cube_r.png,0.1,-0.31,invalid,11,11,0,down,4.539525199987111,None,space,0.4602463000046555,None,,,,,,,,,0,11,11,11,565.6763732999971,,,,,,,,,,,,,565.6607776000019,565.6763732999971,565.6763732999971,565.6763732999971,570.2223958999966,,,,570.2283503000072,570.2397474000027,570.2397474000027,570.2883762999991,570.2888880999963,570.3047574999946,570.3047574999946,570.3047574999946,570.3880377000023,570.7728394000005,,,,,,,,,,,,,,,,,,,,,,down,4.539525199987111,None,space,0.4602463000046555,None,P101,001,2025-02-12_11h49.16.902,posner_endo_new1,2024.2.4,60.04617551105637,2025-02-12 11h49.24.613319 +0000,
cube_r.png,0.1,0.31,valid,12,12,0,down,3.364128900007927,None,space,0.48158320000220556,None,,,,,,,,,0,12,12,12,570.7876312000008,,,,,,,,,,,,,570.7732989000069,570.7876312000008,570.7876312000008,570.7876312000008,574.1691229999997,,,,574.1854167999991,574.1960485000018,574.1960485000018,574.2343456999952,574.2348671000072,574.2506887000054,574.2506887000054,574.2506887000054,574.3339792000043,574.7355648999946,,,,,,,,,,,,,,,,,,,,,,down,3.364128900007927,None,space,0.48158320000220556,None,P101,001,2025-02-12_11h49.16.902,posner_endo_new1,2024.2.4,60.04617551105637,2025-02-12 11h49.24.613319 +0000,
cube_l.png,0.1,10,catch,13,13,0,down,4.009468999996898,None,None,,,,,,,,,,,0,13,13,13,574.7502329999988,,,,,,,,,,,,,574.7360074000026,574.7502329999988,574.7502329999988,574.7502329999988,578.7642962999962,,,,578.7753685000062,578.7860148000036,578.7860148000036,578.829651299995,578.8300069999968,578.8461533999944,578.8461533999944,578.8461533999944,578.9294096999947,581.8437354000052,,,,580.9439972999971,581.8597869000077,581.8597869000077,581.8597869000077,,,,,,,,,,,,,,,down,4.009468999996898,None,None,,,P101,001,2025-02-12_11h49.16.902,posner_endo_new1,2024.2.4,60.04617551105637,2025-02-12 11h49.24.613319 +0000,
cube_r.png,0.1,-0.31,invalid,14,14,0,down,0.40429690000019036,None,space,0.5321824999991804,None,,,,,,,,,0,14,14,14,581.8597869000077,,,,,,,,,,,,,581.8439102999982,581.8597869000077,581.8597869000077,581.8597869000077,582.2768354,,,,582.2832205000013,582.2947760999959,582.2947760999959,582.3426514000021,582.3428906000045,582.3591547999968,582.3591547999968,582.3591547999968,582.442424199995,582.8929824000079,,,,,,,,,,,,,,,,,,,,,,down,0.40429690000019036,None,space,0.5321824999991804,None,P101,001,2025-02-12_11h49.16.902,posner_endo_new1,2024.2.4,60.04617551105637,2025-02-12 11h49.24.613319 +0000,
cube_l.png,0.1,-0.31,valid,15,15,0,down,3.7879332000011345,None,space,0.4359070999926189,None,,,,,,,,,0,15,15,15,582.9086927000026,,,,,,,,,,,,,582.8931619000068,582.9086927000026,582.9086927000026,582.9086927000026,586.7054639999988,,,,586.7117740999965,586.7233511999948,586.7233511999948,586.7714328000002,586.771670400005,586.7880892999965,586.7880892999965,586.7880892999965,586.854462400006,587.2381747000036,,,,,,,,,,,,,,,,,,,,,,down,3.7879332000011345,None,space,0.4359070999926189,None,P101,001,2025-02-12_11h49.16.902,posner_endo_new1,2024.2.4,60.04617551105637,2025-02-12 11h49.24.613319 +0000,
cube_r.png,0.1,10,catch,16,16,0,down,3.8418693999992684,None,None,,,,,,,,,,,0,16,16,16,587.2542029000033,,,,,,,,,,,,,587.2383578000008,587.2542029000033,587.2542029000033,587.2542029000033,591.1012358000007,,,,591.107159399995,591.1189337999967,591.1189337999967,591.1668582999991,591.1670927999949,591.1835592999996,591.1835592999996,591.1835592999996,591.2669426000066,594.1809569000034,,,,593.281281500007,594.197112599999,594.197112599999,594.197112599999,,,,,,,,,,,,,,,down,3.8418693999992684,None,None,,,P101,001,2025-02-12_11h49.16.902,posner_endo_new1,2024.2.4,60.04617551105637,2025-02-12 11h49.24.613319 +0000,
cube_r.png,0.1,10,catch,17,17,0,down,1.555080000005546,None,None,,,,,,,,,,,0,17,17,17,594.197112599999,,,,,,,,,,,,,594.1811286000011,594.197112599999,594.197112599999,594.197112599999,595.7628826,,,,595.7687928999949,595.7803356000077,595.7803356000077,595.8288231000042,595.8290637000027,595.8453309000033,595.8453309000033,595.8453309000033,595.9119901999948,598.8428452999942,,,,597.9264433000062,598.8590613999986,598.8590613999986,598.8590613999986,,,,,,,,,,,,,,,down,1.555080000005546,None,None,,,P101,001,2025-02-12_11h49.16.902,posner_endo_new1,2024.2.4,60.04617551105637,2025-02-12 11h49.24.613319 +0000,
cube_l.png,0.1,0.31,invalid,18,18,0,down,1.1251390999968862,None,space,0.4879461000091396,None,,,,,,,,,0,18,18,18,598.8590613999986,,,,,,,,,,,,,598.8430182000011,598.8590613999986,598.8590613999986,598.8590613999986,599.9919654999976,,,,599.9978740999941,600.0092063000047,600.0092063000047,600.0577898000047,600.0580329999939,600.0742759999994,600.0742759999994,600.0742759999994,600.1575895999995,600.5746479999943,,,,,,,,,,,,,,,,,,,,,,down,1.1251390999968862,None,space,0.4879461000091396,None,P101,001,2025-02-12_11h49.16.902,posner_endo_new1,2024.2.4,60.04617551105637,2025-02-12 11h49.24.613319 +0000,
cube_l.png,0.1,10,catch,19,19,0,down,3.5214710000000196,None,None,,,,,,,,,,,0,19,19,19,600.5905081999954,,,,,,,,,,,,,600.5748299999977,600.5905081999954,600.5905081999954,600.5905081999954,604.1213062000024,,,,604.1273774000001,604.1392105999985,604.1392105999985,604.186944800007,604.1871790000005,604.2035780000006,604.2035780000006,604.2035780000006,604.2872023999953,607.2010225999984,,,,606.3012020000024,607.2171156999975,607.2171156999975,607.2171156999975,,,,,,,,,,,,,,,down,3.5214710000000196,None,None,,,P101,001,2025-02-12_11h49.16.902,posner_endo_new1,2024.2.4,60.04617551105637,2025-02-12 11h49.24.613319 +0000,
cube_l.png,0.1,0.31,invalid,20,20,0,down,1.5264157000056002,None,space,0.5600682000076631,None,,,,,,,,,0,20,20,20,607.2171156999975,,,,,,,,,,,,,607.2011925999977,607.2171156999975,607.2171156999975,607.2171156999975,608.749636499997,,,,608.7555186999962,608.767019699997,608.767019699997,608.8154759000026,608.815709100003,608.8321448000061,608.8321448000061,608.8321448000061,608.9154194000002,609.3989059000014,,,,,,,,,,,,,,,,,,,,,,down,1.5264157000056002,None,space,0.5600682000076631,None,P101,001,2025-02-12_11h49.16.902,posner_endo_new1,2024.2.4,60.04617551105637,2025-02-12 11h49.24.613319 +0000,
cube_l.png,0.1,-0.31,valid,21,21,0,down,3.98542839998845,None,space,0.5045076999958837,None,,,,,,,,,0,21,21,21,609.414817900004,,,,,,,,,,,,,609.3990883000079,609.414817900004,609.414817900004,609.414817900004,613.411525699994,,,,613.4174173000065,613.4289974999992,613.4289974999992,613.477398899995,613.4776351000037,613.4941831000033,613.4941831000033,613.4941831000033,613.5606033999939,614.0109219000005,,,,,,,,,,,,,,,,,,,,,,down,3.98542839998845,None,space,0.5045076999958837,None,P101,001,2025-02-12_11h49.16.902,posner_endo_new1,2024.2.4,60.04617551105637,2025-02-12 11h49.24.613319 +0000,
cube_r.png,0.1,0.31,valid,22,22,0,down,4.181723900008365,None,space,0.5129281999979867,None,,,,,,,,,0,22,22,22,614.0267428999941,,,,,,,,,,,,,614.0111026999948,614.0267428999941,614.0267428999941,614.0267428999941,618.2233943000028,,,,618.2293383000069,618.2409039000049,618.2409039000049,618.2897652999964,618.2900021999958,618.3059578999964,618.3059578999964,618.3059578999964,618.3722577000008,618.8228589000064,,,,,,,,,,,,,,,,,,,,,,down,4.181723900008365,None,space,0.5129281999979867,None,P101,001,2025-02-12_11h49.16.902,posner_endo_new1,2024.2.4,60.04617551105637,2025-02-12 11h49.24.613319 +0000,
cube_r.png,0.1,-0.31,invalid,23,23,0,down,4.217427600000519,None,space,0.6662579000112601,None,,,,,,,,,0,23,23,23,618.838517199998,,,,,,,,,,,,,618.8230487999972,618.838517199998,618.838517199998,618.838517199998,623.0682273999992,,,,623.0742333999951,623.0858455999987,623.0858455999987,623.1341819999943,623.1344271999988,623.1508525999961,623.1508525999961,623.1508525999961,623.2172739999951,623.8179228999943,,,,,,,,,,,,,,,,,,,,,,down,4.217427600000519,None,space,0.6662579000112601,None,P101,001,2025-02-12_11h49.16.902,posner_endo_new1,2024.2.4,60.04617551105637,2025-02-12 11h49.24.613319 +0000,
cube_r.png,0.1,0.31,valid,24,24,0,down,4.966390499990666,None,space,0.5122848999890266,None,,,,,,,,,0,24,24,24,623.8334006000077,,,,,,,,,,,,,623.8181092000013,623.8334006000077,623.8334006000077,623.8334006000077,628.812446099997,,,,628.8184815999994,628.829842399995,628.829842399995,628.8784404000035,628.8786841999972,628.8949049000075,628.8949049000075,628.8949049000075,628.978128799994,629.4120364999981,,,,,,,,,,,,,,,,,,,,,,down,4.966390499990666,None,space,0.5122848999890266,None,P101,001,2025-02-12_11h49.16.902,posner_endo_new1,2024.2.4,60.04617551105637,2025-02-12 11h49.24.613319 +0000,
cube_r.png,0.1,-0.31,invalid,25,25,0,down,6.596497399994405,None,space,0.36758869999903254,None,,,,,,,,,0,25,25,25,629.4277163999941,,,,,,,,,,,,,629.4122208000044,629.4277163999941,629.4277163999941,629.4277163999941,636.0384141999966,,,,636.0444730000017,636.0560636000009,636.0560636000009,636.1042968999973,636.1045348000043,636.1206972999935,636.1206972999935,636.1206972999935,636.2040509000071,636.5046092999983,,,,,,,,,,,,,,,,,,,,,,down,6.596497399994405,None,space,0.36758869999903254,None,P101,001,2025-02-12_11h49.16.902,posner_endo_new1,2024.2.4,60.04617551105637,2025-02-12 11h49.24.613319 +0000,
cube_l.png,0.1,-0.31,valid,26,26,0,down,3.103096999999252,None,space,0.6328900000080466,None,,,,,,,,,0,26,26,26,636.520539899997,,,,,,,,,,,,,636.5047905999963,636.520539899997,636.520539899997,636.520539899997,639.634753499995,,,,639.6406791000045,639.6522370000021,639.6522370000021,639.7006212999986,639.7008588000026,639.717058299997,639.717058299997,639.717058299997,639.8005035999959,640.3507697000023,,,,,,,,,,,,,,,,,,,,,,down,3.103096999999252,None,space,0.6328900000080466,None,P101,001,2025-02-12_11h49.16.902,posner_endo_new1,2024.2.4,60.04617551105637,2025-02-12 11h49.24.613319 +0000,
cube_r.png,0.1,0.31,valid,27,27,0,down,3.7852276999910828,None,space,0.3970289999997476,None,,,,,,,,,0,27,27,27,640.3665099000063,,,,,,,,,,,,,640.350955899994,640.3665099000063,640.3665099000063,640.3665099000063,644.1634051000001,,,,644.1693137999973,644.1807266999967,644.1807266999967,644.2292655000056,644.229505299998,644.2459114999947,644.2459114999947,644.2459114999947,644.3125424000027,644.6463080999965,,,,,,,,,,,,,,,,,,,,,,down,3.7852276999910828,None,space,0.3970289999997476,None,P101,001,2025-02-12_11h49.16.902,posner_endo_new1,2024.2.4,60.04617551105637,2025-02-12 11h49.24.613319 +0000,
cube_r.png,0.1,10,catch,28,28,0,down,3.562332899993635,None,None,,,,,,,,,,,0,28,28,28,644.6620697000035,,,,,,,,,,,,,644.6464889000054,644.6620697000035,644.6620697000035,644.6620697000035,648.2261335999938,,,,648.2320291000069,648.2435754000035,648.2435754000035,648.2918239999999,648.2920630000008,648.3084671999968,648.3084671999968,648.3084671999968,648.3915983000043,651.3058706000011,,,,650.4061830999999,651.3220145999949,651.3220145999949,651.3220145999949,,,,,,,,,,,,,,,down,3.562332899993635,None,None,,,P101,001,2025-02-12_11h49.16.902,posner_endo_new1,2024.2.4,60.04617551105637,2025-02-12 11h49.24.613319 +0000,
cube_r.png,0.1,0.31,valid,29,29,0,down,0.9344988000084413,None,space,0.3873829000076512,None,,,,,,,,,0,29,29,29,651.3220145999949,,,,,,,,,,,,,651.3060422999988,651.3220145999949,651.3220145999949,651.3220145999949,652.271914900004,,,,652.2778652999987,652.2900053000049,652.2900053000049,652.3377501000068,652.3379962000035,652.3542864000046,652.3542864000046,652.3542864000046,652.4375428000058,652.7546504000056,,,,,,,,,,,,,,,,,,,,,,down,0.9344988000084413,None,space,0.3873829000076512,None,P101,001,2025-02-12_11h49.16.902,posner_endo_new1,2024.2.4,60.04617551105637,2025-02-12 11h49.24.613319 +0000,
cube_r.png,0.1,0.31,valid,30,30,0,down,9.118509800013271,None,space,0.3984016999893356,None,,,,,,,,,0,30,30,30,652.7706348000065,,,,,,,,,,,,,652.7548418000079,652.7706348000065,652.7706348000065,652.7706348000065,661.8951553999941,,,,661.901068399995,661.9126388000004,661.9126388000004,661.9612824000069,661.9615176000079,661.9777901000052,661.9777901000052,661.9777901000052,662.0442941999936,662.3782466999983,,,,,,,,,,,,,,,,,,,,,,down,9.118509800013271,None,space,0.3984016999893356,None,P101,001,2025-02-12_11h49.16.902,posner_endo_new1,2024.2.4,60.04617551105637,2025-02-12 11h49.24.613319 +0000,
cube_l.png,0.1,-0.31,valid,31,31,0,down,3.421607899988885,None,space,0.3643389000062598,None,,,,,,,,,0,31,31,31,662.3941302000021,,,,,,,,,,,,,662.3784278999956,662.3941302000021,662.3941302000021,662.3941302000021,665.8245586999983,,,,665.8304762000043,665.842023499994,665.842023499994,665.8905687000079,665.8908133000077,665.907114600006,665.907114600006,665.907114600006,665.9737447999942,666.274176100007,,,,,,,,,,,,,,,,,,,,,,down,3.421607899988885,None,space,0.3643389000062598,None,P101,001,2025-02-12_11h49.16.902,posner_endo_new1,2024.2.4,60.04617551105637,2025-02-12 11h49.24.613319 +0000,
cube_r.png,0.1,0.31,valid,32,32,0,down,3.973806299996795,None,space,0.37727100000483915,None,,,,,,,,,0,32,32,32,666.2901223999943,,,,,,,,,,,,,666.2743678999977,666.2901223999943,666.2901223999943,666.2901223999943,670.2700436000014,,,,670.2759240000014,670.287473400007,670.287473400007,670.3360647999943,670.3362999999954,670.3526217000035,670.3526217000035,670.3526217000035,670.4190428000002,670.7363488999981,,,,,,,,,,,,,,,,,,,,,,down,3.973806299996795,None,space,0.37727100000483915,None,P101,001,2025-02-12_11h49.16.902,posner_endo_new1,2024.2.4,60.04617551105637,2025-02-12 11h49.24.613319 +0000,
cube_r.png,0.1,-0.31,invalid,33,33,0,down,5.072600900006364,None,space,0.4814009999972768,None,,,,,,,,,0,33,33,33,670.7519742000004,,,,,,,,,,,,,670.7365322999976,670.7519742000004,670.7519742000004,670.7519742000004,675.831208100004,,,,675.8372006999998,675.8485475000052,675.8485475000052,675.8969667000056,675.8972090000025,675.9134732999955,675.9134732999955,675.9134732999955,675.9966795000073,676.3971984999953,,,,,,,,,,,,,,,,,,,,,,down,5.072600900006364,None,space,0.4814009999972768,None,P101,001,2025-02-12_11h49.16.902,posner_endo_new1,2024.2.4,60.04617551105637,2025-02-12 11h49.24.613319 +0000,
cube_r.png,0.1,10,catch,34,34,0,down,3.082962000000407,None,None,,,,,,,,,,,0,34,34,34,676.4129558999994,,,,,,,,,,,,,676.3973786999995,676.4129558999994,676.4129558999994,676.4129558999994,679.5107199000049,,,,679.5166678999958,679.5282428000064,679.5282428000064,679.5765315000026,679.576773599998,679.5930645000044,679.5930645000044,679.5930645000044,679.6761956999981,682.5904515000002,,,,681.6907685000042,682.6066147999954,682.6066147999954,682.6066147999954,,,,,,,,,,,,,,,down,3.082962000000407,None,None,,,P101,001,2025-02-12_11h49.16.902,posner_endo_new1,2024.2.4,60.04617551105637,2025-02-12 11h49.24.613319 +0000,
cube_r.png,0.1,0.31,valid,35,35,0,down,1.6261811000003945,None,space,0.4150999999983469,None,,,,,,,,,0,35,35,35,682.6066147999954,,,,,,,,,,,,,682.5906246999948,682.6066147999954,682.6066147999954,682.6066147999954,684.2394805999938,,,,684.2453742000071,684.2568739999988,684.2568739999988,684.3049950999994,684.3052320999996,684.321531499998,684.321531499998,684.321531499998,684.4050201000064,684.738757500003,,,,,,,,,,,,,,,,,,,,,,down,1.6261811000003945,None,space,0.4150999999983469,None,P101,001,2025-02-12_11h49.16.902,posner_endo_new1,2024.2.4,60.04617551105637,2025-02-12 11h49.24.613319 +0000,
cube_r.png,0.1,-0.31,invalid,36,36,0,down,4.565391600001021,None,space,0.5439487999974517,None,,,,,,,,,0,36,36,36,684.7545623000042,,,,,,,,,,,,,684.738941100004,684.7545623000042,684.7545623000042,684.7545623000042,689.3339243999944,,,,689.3399097000074,689.3515676999959,689.3515676999959,689.3998231000005,689.4000667999935,689.4162757000013,689.4162757000013,689.4162757000013,689.4829422000039,689.9665845999989,,,,,,,,,,,,,,,,,,,,,,down,4.565391600001021,None,space,0.5439487999974517,None,P101,001,2025-02-12_11h49.16.902,posner_endo_new1,2024.2.4,60.04617551105637,2025-02-12 11h49.24.613319 +0000,
cube_l.png,0.1,0.31,invalid,37,37,0,down,3.634393899992574,None,space,0.4840617000008933,None,,,,,,,,,0,37,37,37,689.9823872999987,,,,,,,,,,,,,689.9667680999992,689.9823872999987,689.9823872999987,689.9823872999987,693.629440100005,,,,693.6353506000014,693.6468640999956,693.6468640999956,693.6954413000058,693.6956808999967,693.7121527999989,693.7121527999989,693.7121527999989,693.7784952999937,694.2124082999944,,,,,,,,,,,,,,,,,,,,,,down,3.634393899992574,None,space,0.4840617000008933,None,P101,001,2025-02-12_11h49.16.902,posner_endo_new1,2024.2.4,60.04617551105637,2025-02-12 11h49.24.613319 +0000,
cube_l.png,0.1,0.31,invalid,38,38,0,down,4.419986699998844,None,space,0.5369630999921355,None,,,,,,,,,0,38,38,38,694.2280392999965,,,,,,,,,,,,,694.2125947000022,694.2280392999965,694.2280392999965,694.2280392999965,698.6577248999965,,,,698.6636404000019,698.6750704000005,698.6750704000005,698.7237848999939,698.7240213000041,698.740103300006,698.740103300006,698.740103300006,698.806666000004,699.2908961000066,,,,,,,,,,,,,,,,,,,,,,down,4.419986699998844,None,space,0.5369630999921355,None,P101,001,2025-02-12_11h49.16.902,posner_endo_new1,2024.2.4,60.04617551105637,2025-02-12 11h49.24.613319 +0000,
cube_r.png,0.1,0.31,valid,39,39,0,down,7.99009570000635,None,space,0.9782623000064632,None,,,,,,,,,0,39,39,39,699.306262500002,,,,,,,,,,,,,699.2910772000032,699.306262500002,699.306262500002,699.306262500002,707.2991009999969,,,,707.3050255999988,707.3165701999969,707.3165701999969,707.3647423999937,707.3649830000068,707.3813608000055,707.3813608000055,707.3813608000055,707.4645798999991,708.3645864999999,,,,,,,,,,,,,,,,,,,,,,down,7.99009570000635,None,space,0.9782623000064632,None,P101,001,2025-02-12_11h49.16.902,posner_endo_new1,2024.2.4,60.04617551105637,2025-02-12 11h49.24.613319 +0000,
cube_l.png,0.1,0.31,invalid,40,40,0,down,7.572320599996601,None,space,0.4319302000076277,None,,,,,,,,,0,40,40,40,708.3802952999977,,,,,,,,,,,,,708.3647696999979,708.3802952999977,708.3802952999977,708.3802952999977,715.9568754000065,,,,715.9628799000056,715.974667500006,715.974667500006,716.0225711999956,716.0228097000072,716.0390443000069,716.0390443000069,716.0390443000069,716.1222973999975,716.472921099994,,,,,,,,,,,,,,,,,,,,,,down,7.572320599996601,None,space,0.4319302000076277,None,P101,001,2025-02-12_11h49.16.902,posner_endo_new1,2024.2.4,60.04617551105637,2025-02-12 11h49.24.613319 +0000,
cube_l.png,0.1,10,catch,41,41,0,down,4.158859300005133,None,None,,,,,,,,,,,0,41,41,41,716.4888108000014,,,,,,,,,,,,,716.4731035000004,716.4888108000014,716.4888108000014,716.4888108000014,720.6518285000056,,,,720.6579257999983,720.6695639999962,720.6695639999962,720.7177550000051,720.7180042999971,720.7343556999986,720.7343556999986,720.7343556999986,720.8010229000065,723.7318322000065,,,,722.8155457999965,723.7480350999977,723.7480350999977,723.7480350999977,,,,,,,,,,,,,,,down,4.158859300005133,None,None,,,P101,001,2025-02-12_11h49.16.902,posner_endo_new1,2024.2.4,60.04617551105637,2025-02-12 11h49.24.613319 +0000,
cube_l.png,0.1,-0.31,valid,42,42,0,down,1.067941500004963,None,space,0.4340170999930706,None,,,,,,,,,0,42,42,42,723.7480350999977,,,,,,,,,,,,,723.7320093000017,723.7480350999977,723.7480350999977,723.7480350999977,724.8310038000054,,,,724.8369612999959,724.848550900002,724.848550900002,724.8967756000056,724.8970132999966,724.9134431999992,724.9134431999992,724.9134431999992,724.9965473000047,725.3637746000022,,,,,,,,,,,,,,,,,,,,,,down,1.067941500004963,None,space,0.4340170999930706,None,P101,001,2025-02-12_11h49.16.902,posner_endo_new1,2024.2.4,60.04617551105637,2025-02-12 11h49.24.613319 +0000,
cube_l.png,0.1,10,catch,43,43,0,down,3.724514300003648,None,None,,,,,,,,,,,0,43,43,43,725.3795915999945,,,,,,,,,,,,,725.3639552999957,725.3795915999945,725.3795915999945,725.3795915999945,729.1097882000031,,,,729.1157081999991,729.1272514000011,729.1272514000011,729.1759039000026,729.1761393000052,729.1923021999974,729.1923021999974,729.1923021999974,729.2589318999962,732.1897858000011,,,,731.2735628999944,732.2059180000069,732.2059180000069,732.2059180000069,,,,,,,,,,,,,,,down,3.724514300003648,None,None,,,P101,001,2025-02-12_11h49.16.902,posner_endo_new1,2024.2.4,60.04617551105637,2025-02-12 11h49.24.613319 +0000,
cube_l.png,0.1,0.31,invalid,44,44,0,down,1.6507293000031495,None,space,0.5362879000022076,None,,,,,,,,,0,44,44,44,732.2059180000069,,,,,,,,,,,,,732.1899587999942,732.2059180000069,732.2059180000069,732.2059180000069,733.8715424999973,,,,733.8774581000034,733.8891122000059,733.8891122000059,733.9375421000004,733.9377777000045,733.9541695999942,733.9541695999942,733.9541695999942,734.0206743000017,734.5042788999999,,,,,,,,,,,,,,,,,,,,,,down,1.6507293000031495,None,space,0.5362879000022076,None,P101,001,2025-02-12_11h49.16.902,posner_endo_new1,2024.2.4,60.04617551105637,2025-02-12 11h49.24.613319 +0000,
cube_l.png,0.1,0.31,invalid,45,45,0,down,4.040291800003615,None,space,0.5066047000000253,None,,,,,,,,,0,45,45,45,734.5202006000036,,,,,,,,,,,,,734.5044675999961,734.5202006000036,734.5202006000036,734.5202006000036,738.5669709000067,,,,738.572822999995,738.5843670000031,738.5843670000031,738.6327949999977,738.6330301999988,738.649402199997,738.649402199997,738.649402199997,738.732556300005,739.1663028000039,,,,,,,,,,,,,,,,,,,,,,down,4.040291800003615,None,space,0.5066047000000253,None,P101,001,2025-02-12_11h49.16.902,posner_endo_new1,2024.2.4,60.04617551105637,2025-02-12 11h49.24.613319 +0000,
cube_r.png,0.1,0.31,valid,46,46,0,down,3.9297204000031343,None,space,0.4419175999937579,None,,,,,,,,,0,46,46,46,739.1821468999988,,,,,,,,,,,,,739.1664887000079,739.1821468999988,739.1821468999988,739.1821468999988,743.128769899995,,,,743.1347127000045,743.1459100000066,743.1459100000066,743.1948623000062,743.1951049000054,743.2114264999982,743.2114264999982,743.2114264999982,743.2778721000068,743.6617320000078,,,,,,,,,,,,,,,,,,,,,,down,3.9297204000031343,None,space,0.4419175999937579,None,P101,001,2025-02-12_11h49.16.902,posner_endo_new1,2024.2.4,60.04617551105637,2025-02-12 11h49.24.613319 +0000,
cube_l.png,0.1,-0.31,valid,47,47,0,down,3.6984883999975864,None,space,0.3455223999917507,None,,,,,,,,,0,47,47,47,743.6774972999992,,,,,,,,,,,,,743.6619117999944,743.6774972999992,743.6774972999992,743.6774972999992,747.3911280000029,,,,747.3970700000064,747.4085571000032,747.4085571000032,747.4570589000068,747.4572975000046,747.4736693000013,747.4736693000013,747.4736693000013,747.5401139000023,747.824083200001,,,,,,,,,,,,,,,,,,,,,,down,3.6984883999975864,None,space,0.3455223999917507,None,P101,001,2025-02-12_11h49.16.902,posner_endo_new1,2024.2.4,60.04617551105637,2025-02-12 11h49.24.613319 +0000,
cube_r.png,0.1,-0.31,invalid,48,48,0,down,3.7920032999973046,None,space,0.3866861999995308,None,,,,,,,,,0,48,48,48,747.8399682000017,,,,,,,,,,,,,747.8242899000034,747.8399682000017,747.8399682000017,747.8399682000017,751.6368766999949,,,,751.6427547000058,751.6542573000042,751.6542573000042,751.7028333000053,751.7030689999956,751.7192898000067,751.7192898000067,751.7192898000067,751.7864014000079,752.1197545000032,,,,,,,,,,,,,,,,,,,,,,down,3.7920032999973046,None,space,0.3866861999995308,None,P101,001,2025-02-12_11h49.16.902,posner_endo_new1,2024.2.4,60.04617551105637,2025-02-12 11h49.24.613319 +0000,
cube_r.png,0.1,10,catch,49,49,0,down,4.112069599999813,None,None,,,,,,,,,,,0,49,49,49,752.1356607000052,,,,,,,,,,,,,752.1199350999959,752.1356607000052,752.1356607000052,752.1356607000052,756.2488136000029,,,,756.2554178999999,756.2672430999955,756.2672430999955,756.3144298999978,756.3148366999958,756.3308875999937,756.3308875999937,756.3308875999937,756.4141311999992,759.3286171999935,,,,758.428731299995,759.3444718999963,759.3444718999963,759.3444718999963,,,,,,,,,,,,,,,down,4.112069599999813,None,None,,,P101,001,2025-02-12_11h49.16.902,posner_endo_new1,2024.2.4,60.04617551105637,2025-02-12 11h49.24.613319 +0000,
cube_l.png,0.1,-0.31,valid,50,50,0,down,2.0558508000103757,None,space,0.43709139998827595,None,,,,,,,,,0,50,50,50,759.3444718999963,,,,,,,,,,,,,759.3289405999967,759.3444718999963,759.3444718999963,759.3444718999963,761.4104827999981,,,,761.4227975999966,761.4329446000047,761.4329446000047,761.4758182000078,761.4762198999961,761.4922661000019,761.4922661000019,761.4922661000019,761.5755035000038,761.9432326999959,,,,,,,,,,,,,,,,,,,,,,down,2.0558508000103757,None,space,0.43709139998827595,None,P101,001,2025-02-12_11h49.16.902,posner_endo_new1,2024.2.4,60.04617551105637,2025-02-12 11h49.24.613319 +0000,
cube_l.png,0.1,-0.31,valid,51,51,0,down,4.330042499990668,None,space,0.5389137000020128,None,,,,,,,,,0,51,51,51,761.9585035000055,,,,,,,,,,,,,761.9435816000041,761.9585035000055,761.9585035000055,761.9585035000055,766.3054320999945,,,,766.3178243000002,766.3276044999948,766.3276044999948,766.3711359000008,766.3714092000009,766.3876999000058,766.3876999000058,766.3876999000058,766.4707915000035,766.9380040999968,,,,,,,,,,,,,,,,,,,,,,down,4.330042499990668,None,space,0.5389137000020128,None,P101,001,2025-02-12_11h49.16.902,posner_endo_new1,2024.2.4,60.04617551105637,2025-02-12 11h49.24.613319 +0000,
cube_r.png,0.1,-0.31,invalid,52,52,0,down,3.710237399995094,None,space,0.400998700002674,None,,,,,,,,,0,52,52,52,766.9536051000032,,,,,,,,,,,,,766.9382244000008,766.9536051000032,766.9536051000032,766.9536051000032,770.6677215999953,,,,770.6753460000036,770.6862956999976,770.6862956999976,770.7332426000066,770.7335249000025,770.7497904000047,770.7497904000047,770.7497904000047,770.8330537000002,771.1671122999978,,,,,,,,,,,,,,,,,,,,,,down,3.710237399995094,None,space,0.400998700002674,None,P101,001,2025-02-12_11h49.16.902,posner_endo_new1,2024.2.4,60.04617551105637,2025-02-12 11h49.24.613319 +0000,
cube_l.png,0.1,-0.31,valid,53,53,0,down,3.881593399986741,None,space,0.36009820000617765,None,,,,,,,,,0,53,53,53,771.1826665999979,,,,,,,,,,,,,771.1673383000016,771.1826665999979,771.1826665999979,771.1826665999979,775.0797597000055,,,,775.0873855999962,775.0984134000028,775.0984134000028,775.1455120000028,775.1457836000045,775.1620686999959,775.1620686999959,775.1620686999959,775.2451449000073,775.5291508999944,,,,,,,,,,,,,,,,,,,,,,down,3.881593399986741,None,space,0.36009820000617765,None,P101,001,2025-02-12_11h49.16.902,posner_endo_new1,2024.2.4,60.04617551105637,2025-02-12 11h49.24.613319 +0000,
cube_r.png,0.1,10,catch,54,54,0,down,3.7828215999907115,None,None,,,,,,,,,,,0,54,54,54,775.544936899998,,,,,,,,,,,,,775.529375099999,775.544936899998,775.544936899998,775.544936899998,779.3420728000056,,,,779.3496926999942,779.3606351000053,779.3606351000053,779.4078518000024,779.4081235000049,779.4242844999972,779.4242844999972,779.4242844999972,779.507611699999,782.4224548000057,,,,781.5221156000043,782.4378916999995,782.4378916999995,782.4378916999995,,,,,,,,,,,,,,,down,3.7828215999907115,None,None,,,P101,001,2025-02-12_11h49.16.902,posner_endo_new1,2024.2.4,60.04617551105637,2025-02-12 11h49.24.613319 +0000,
cube_l.png,0.1,0.31,invalid,55,55,0,down,0.8661595000012312,None,space,0.4070151000050828,None,,,,,,,,,0,55,55,55,782.4378916999995,,,,,,,,,,,,,782.422905200001,782.4378916999995,782.4378916999995,782.4378916999995,783.3061970999988,,,,783.3240185000031,783.3354429000028,783.3354429000028,783.3705423000065,783.3711012999993,783.3869324999978,783.3869324999978,783.3869324999978,783.4701951000025,783.805177400005,,,,,,,,,,,,,,,,,,,,,,down,0.8661595000012312,None,space,0.4070151000050828,None,P101,001,2025-02-12_11h49.16.902,posner_endo_new1,2024.2.4,60.04617551105637,2025-02-12 11h49.24.613319 +0000,
cube_l.png,0.1,-0.31,valid,56,56,0,down,3.891963100002613,None,space,0.41230630000063684,None,,,,,,,,,0,56,56,56,783.8198667999968,,,,,,,,,,,,,783.8056649000064,783.8198667999968,783.8198667999968,783.8198667999968,787.7178915999975,,,,787.7356177000038,787.7470019000029,787.7470019000029,787.7825944000069,787.7829509000003,787.799121899996,787.799121899996,787.799121899996,787.8823568999942,788.2165435000061,,,,,,,,,,,,,,,,,,,,,,down,3.891963100002613,None,space,0.41230630000063684,None,P101,001,2025-02-12_11h49.16.902,posner_endo_new1,2024.2.4,60.04617551105637,2025-02-12 11h49.24.613319 +0000,
cube_r.png,0.1,0.31,valid,57,57,0,down,4.440510600004927,None,space,0.4087404999881983,None,,,,,,,,,0,57,57,57,788.2320982999954,,,,,,,,,,,,,788.2168536999961,788.2320982999954,788.2320982999954,788.2320982999954,792.6786026000045,,,,792.6898507000005,792.7002695999981,792.7002695999981,792.7441607999936,792.7445262999972,792.7607305999991,792.7607305999991,792.7607305999991,792.8439460999944,793.1783594000008,,,,,,,,,,,,,,,,,,,,,,down,4.440510600004927,None,space,0.4087404999881983,None,P101,001,2025-02-12_11h49.16.902,posner_endo_new1,2024.2.4,60.04617551105637,2025-02-12 11h49.24.613319 +0000,
cube_r.png,0.1,-0.31,invalid,58,58,0,down,3.327033700013999,None,space,0.3767621000006329,None,,,,,,,,,0,58,58,58,793.1935946000012,,,,,,,,,,,,,793.178662899998,793.1935946000012,793.1935946000012,793.1935946000012,796.5249675999949,,,,796.5360633999953,796.5463415999984,796.5463415999984,796.590288499996,796.590643699994,796.6068365999963,796.6068365999963,796.6068365999963,796.6900306000025,796.9908675000042,,,,,,,,,,,,,,,,,,,,,,down,3.327033700013999,None,space,0.3767621000006329,None,P101,001,2025-02-12_11h49.16.902,posner_endo_new1,2024.2.4,60.04617551105637,2025-02-12 11h49.24.613319 +0000,
cube_l.png,0.1,0.31,invalid,59,59,0,down,3.779012300001341,None,space,0.41211860001203604,None,,,,,,,,,0,59,59,59,797.0063792000001,,,,,,,,,,,,,796.9911686999985,797.0063792000001,797.0063792000001,797.0063792000001,800.787127500007,,,,800.7982866999955,800.8086523999955,800.8086523999955,800.8525596999971,800.852913499999,800.8691298000049,800.8691298000049,800.8691298000049,800.9524071000051,801.2869461999944,,,,,,,,,,,,,,,,,,,,,,down,3.779012300001341,None,space,0.41211860001203604,None,P101,001,2025-02-12_11h49.16.902,posner_endo_new1,2024.2.4,60.04617551105637,2025-02-12 11h49.24.613319 +0000,
