cue_img,cue_soa,target_x,trial,thisN,thisTrialN,thisRepN,key_control2.keys,key_control2.rt,key_control2.duration,key_resp.keys,key_resp.rt,key_resp.duration,practice.thisRepN,practice.thisTrialN,practice.thisN,practice.thisIndex,block1.thisRepN,block1.thisTrialN,block1.thisN,block1.thisIndex,block2.thisRepN,block2.thisTrialN,block2.thisN,block2.thisIndex,thisRow.t,notes,instructions.started,instructions_txt.started,key_control.started,instructions.stopped,key_control.keys,key_control.rt,key_control.duration,ready.started,ready_txt.started,ready_txt.stopped,ready.stopped,fix.started,fixation.started,key_control2.started,fixation_cross.started,fix.stopped,practice.key_control2.keys,practice.key_control2.rt,practice.key_control2.duration,cue.started,cube.started,fixation_cross_cue.started,cue.stopped,target.started,fixation_target.started,fixation_cross_target.started,key_resp.started,star.started,target.stopped,practice.key_resp.keys,practice.key_resp.rt,practice.key_resp.duration,star.stopped,fixation_target.stopped,fixation_cross_target.stopped,key_resp.stopped,block1.key_control2.keys,block1.key_control2.rt,block1.key_control2.duration,block1.key_resp.keys,block1.key_resp.rt,block1.key_resp.duration,break_2.started,text.started,key_control3.started,text.stopped,break_2.stopped,key_control3.keys,key_control3.rt,key_control3.duration,block2.key_control2.keys,block2.key_control2.rt,block2.key_control2.duration,block2.key_resp.keys,block2.key_resp.rt,block2.key_resp.duration,participant,session,date,expName,psychopyVersion,frameRate,expStart,
,,,,,,,,,,,,,,,,,,,,,,,,,,,0.0075536000076681376,0.03052750001370441,0.03052750001370441,27.642302600012044,up,27.60227259999374,None,,,,,,,,,,,,,,,,,,,,,,,,,,,,,,,,,,,,,,,,,,,,,,,,,,P102,001,2025-02-12_14h32.16.314,posner_endo_new1,2024.2.4,60.041020024438566,2025-02-12 14h32.24.064470 +0000,
,,,,,,,,,,,,,,,,,,,,,,,,,,,,,,,,,,27.642347800006974,27.65482380001049,30.655332600013935,30.635796800008393,,,,,,,,,,,,,,,,,,,,,,,,,,,,,,,,,,,,,,,,,,,,,,P102,001,2025-02-12_14h32.16.314,posner_endo_new1,2024.2.4,60.041020024438566,2025-02-12 14h32.24.064470 +0000,
cube_l.png,0.1,-0.31,valid,0,0,0,down,5.465458300008322,None,space,0.4420174999977462,None,0,0,0,0,,,,,,,,,30.655332600013935,,,,,,,,,,,,,30.643070600010105,30.655332600013935,30.655332600013935,30.655332600013935,36.130472700009705,down,5.465458300008322,None,36.14122100001259,36.15131240000483,36.15131240000483,36.19634930000757,36.196592100008274,36.212950000001,36.212950000001,36.212950000001,36.295994700005394,36.66315000000759,space,0.4420174999977462,None,,,,,,,,,,,,,,,,,,,,,,,,,P102,001,2025-02-12_14h32.16.314,posner_endo_new1,2024.2.4,60.041020024438566,2025-02-12 14h32.24.064470 +0000,
cube_l.png,0.1,0.31,invalid,1,1,0,down,3.7935040000011213,None,space,0.4544999000063399,None,0,1,1,1,,,,,,,,,36.679169800001546,,,,,,,,,,,,,36.66332490000059,36.679169800001546,36.679169800001546,36.679169800001546,40.47616370000469,down,3.7935040000011213,None,40.483110100001795,40.49474780001037,40.49474780001037,40.541965300013544,40.542203400007566,40.55839200000628,40.55839200000628,40.55839200000628,40.641634900006466,41.025329400014016,space,0.4544999000063399,None,,,,,,,,,,,,,,,,,,,,,,,,,P102,001,2025-02-12_14h32.16.314,posner_endo_new1,2024.2.4,60.041020024438566,2025-02-12 14h32.24.064470 +0000,
cube_r.png,0.1,-0.31,invalid,2,2,0,down,4.319686999995611,None,space,0.38684099999954924,None,0,2,2,2,,,,,,,,,41.04122740001185,,,,,,,,,,,,,41.02550200000405,41.04122740001185,41.04122740001185,41.04122740001185,45.3708054000017,down,4.319686999995611,None,45.37804430001415,45.38975930000015,45.38975930000015,45.43687370000407,45.43710860000283,45.453306100011105,45.453306100011105,45.453306100011105,45.519932700000936,45.853906600008486,space,0.38684099999954924,None,,,,,,,,,,,,,,,,,,,,,,,,,P102,001,2025-02-12_14h32.16.314,posner_endo_new1,2024.2.4,60.041020024438566,2025-02-12 14h32.24.064470 +0000,
cube_r.png,0.1,10,catch,3,3,0,down,4.1317580999893835,None,None,,,0,3,3,3,,,,,,,,,45.8696071000013,,,,,,,,,,,,,45.85407840000698,45.8696071000013,45.8696071000013,45.8696071000013,50.01620260000345,down,4.1317580999893835,None,50.02241300001333,50.03403230001277,50.03403230001277,50.082213900008355,50.082451900001615,50.09879970000475,50.09879970000475,50.09879970000475,50.16521220000868,53.09600450001017,None,,,52.17980210001406,53.1123219000001,53.1123219000001,53.1123219000001,,,,,,,,,,,,,,,,,,,,,P102,001,2025-02-12_14h32.16.314,posner_endo_new1,2024.2.4,60.041020024438566,2025-02-12 14h32.24.064470 +0000,
cube_l.png,0.1,-0.31,valid,4,4,0,down,1.1612829000077909,None,space,0.4075245999993058,None,0,4,4,4,,,,,,,,,53.1123219000001,,,,,,,,,,,,,53.096167499999865,53.1123219000001,53.1123219000001,53.1123219000001,54.2785683000111,down,1.1612829000077909,None,54.28484180000669,54.296392800009926,54.296392800009926,54.344488600007026,54.34473350000917,54.36083360000339,54.36083360000339,54.36083360000339,54.427581100011594,54.778157800014014,space,0.4075245999993058,None,,,,,,,,,,,,,,,,,,,,,,,,,P102,001,2025-02-12_14h32.16.314,posner_endo_new1,2024.2.4,60.041020024438566,2025-02-12 14h32.24.064470 +0000,
cube_l.png,0.1,0.31,invalid,5,5,0,down,4.61572139999771,None,space,0.47477010000147857,None,0,5,5,5,,,,,,,,,54.79387530000531,,,,,,,,,,,,,54.778330600005575,54.79387530000531,54.79387530000531,54.79387530000531,59.42322150000837,down,4.61572139999771,None,59.42937850000453,59.4409897000005,59.4409897000005,59.48916250000184,59.4894009000127,59.50569260001066,59.50569260001066,59.50569260001066,59.57227650001005,59.98928600001091,space,0.47477010000147857,None,,,,,,,,,,,,,,,,,,,,,,,,,P102,001,2025-02-12_14h32.16.314,posner_endo_new1,2024.2.4,60.041020024438566,2025-02-12 14h32.24.064470 +0000,
cube_r.png,0.1,-0.31,invalid,6,6,0,down,4.6441099000076065,None,space,0.4347196000016993,None,0,6,6,6,,,,,,,,,60.00520920001145,,,,,,,,,,,,,59.98945610001101,60.00520920001145,60.00520920001145,60.00520920001145,64.6514113000012,down,4.6441099000076065,None,64.657675200011,64.66924580000341,64.66924580000341,64.71714510000311,64.71738720001304,64.73356610001065,64.73356610001065,64.73356610001065,64.81701680000697,65.18410740001127,space,0.4347196000016993,None,,,,,,,,,,,,,,,,,,,,,,,,,P102,001,2025-02-12_14h32.16.314,posner_endo_new1,2024.2.4,60.041020024438566,2025-02-12 14h32.24.064470 +0000,
cube_r.png,0.1,0.31,valid,7,7,0,down,4.536715299997013,None,space,0.3579077999893343,None,0,7,7,7,,,,,,,,,65.1998864000052,,,,,,,,,,,,,65.18428270000732,65.1998864000052,65.1998864000052,65.1998864000052,69.74583240000356,down,4.536715299997013,None,69.75277910000295,69.76430260000052,69.76430260000052,69.81201670000155,69.81225360000099,69.82850909999979,69.82850909999979,69.82850909999979,69.8950033000001,70.19567870000901,space,0.3579077999893343,None,,,,,,,,,,,,,,,,,,,,,,,,,P102,001,2025-02-12_14h32.16.314,posner_endo_new1,2024.2.4,60.041020024438566,2025-02-12 14h32.24.064470 +0000,
cube_l.png,0.1,-0.31,valid,8,8,0,down,4.557154599999194,None,space,0.5216955999931088,None,0,8,8,8,,,,,,,,,70.2116168000066,,,,,,,,,,,,,70.19585690001259,70.2116168000066,70.2116168000066,70.2116168000066,74.77440090000164,down,4.557154599999194,None,74.78071750000527,74.79228220001096,74.79228220001096,74.84048920001078,74.84072840001318,74.85663190000923,74.85663190000923,74.85663190000923,74.9400011000107,75.3902672000113,space,0.5216955999931088,None,,,,,,,,,,,,,,,,,,,,,,,,,P102,001,2025-02-12_14h32.16.314,posner_endo_new1,2024.2.4,60.041020024438566,2025-02-12 14h32.24.064470 +0000,
cube_r.png,0.1,-0.31,invalid,9,9,0,down,4.787006099999417,None,space,0.42369150000740774,None,0,9,9,9,,,,,,,,,75.4060901000048,,,,,,,,,,,,,75.39043870000751,75.4060901000048,75.4060901000048,75.4060901000048,80.20188260001305,down,4.787006099999417,None,80.20848440000555,80.22011410001141,80.22011410001141,80.26790150000306,80.26813960001164,80.28436450001027,80.28436450001027,80.28436450001027,80.35107060000882,80.71802030000254,space,0.42369150000740774,None,,,,,,,,,,,,,,,,,,,,,,,,,P102,001,2025-02-12_14h32.16.314,posner_endo_new1,2024.2.4,60.041020024438566,2025-02-12 14h32.24.064470 +0000,
cube_r.png,0.1,0.31,valid,10,10,0,down,4.659125699996366,None,space,0.3933086000033654,None,0,10,10,10,,,,,,,,,80.73417520000658,,,,,,,,,,,,,80.71820060000755,80.73417520000658,80.73417520000658,80.73417520000658,85.39714570000069,down,4.659125699996366,None,85.40420150000136,85.41561850000289,85.41561850000289,85.46271260001231,85.46295250000549,85.4790847000113,85.4790847000113,85.4790847000113,85.56247670001176,85.87955540000985,space,0.3933086000033654,None,,,,,,,,,,,,,,,,,,,,,,,,,P102,001,2025-02-12_14h32.16.314,posner_endo_new1,2024.2.4,60.041020024438566,2025-02-12 14h32.24.064470 +0000,
,,,,,,,,,,,,,,,,,,,,,,,,,,,,,,,,,,85.87967250001384,85.8954298000026,88.91340760000458,88.87615640000149,,,,,,,,,,,,,,,,,,,,,,,,,,,,,,,,,,,,,,,,,,,,,,P102,001,2025-02-12_14h32.16.314,posner_endo_new1,2024.2.4,60.041020024438566,2025-02-12 14h32.24.064470 +0000,
cube_l.png,0.1,10,catch,0,0,0,down,5.8715236999996705,None,None,,,,,,,0,0,0,0,,,,,88.91340760000458,,,,,,,,,,,,,88.90361130000383,88.91340760000458,88.91340760000458,88.91340760000458,94.787481700012,,,,94.79649070001324,94.80625120000332,94.80625120000332,94.85293260001345,94.85317030000442,94.86956530000316,94.86956530000316,94.86956530000316,94.95269090001239,97.86690450001333,,,,96.96741700000712,97.88303870000527,97.88303870000527,97.88303870000527,down,5.8715236999996705,None,None,,,,,,,,,,,,,,,,,P102,001,2025-02-12_14h32.16.314,posner_endo_new1,2024.2.4,60.041020024438566,2025-02-12 14h32.24.064470 +0000,
cube_l.png,0.1,10,catch,1,1,0,down,2.141857099995832,None,None,,,,,,,0,1,1,1,,,,,97.88303870000527,,,,,,,,,,,,,97.86707370000659,97.88303870000527,97.88303870000527,97.88303870000527,100.03174430000945,,,,100.03822620000574,100.04998150000756,100.04998150000756,100.09772880001401,100.0979701000033,100.11430420000397,100.11430420000397,100.11430420000397,100.19743160001235,103.11161740000534,,,,102.21201830000791,103.12777750000532,103.12777750000532,103.12777750000532,down,2.141857099995832,None,None,,,,,,,,,,,,,,,,,P102,001,2025-02-12_14h32.16.314,posner_endo_new1,2024.2.4,60.041020024438566,2025-02-12 14h32.24.064470 +0000,
cube_l.png,0.1,0.31,invalid,2,2,0,down,1.697138300005463,None,space,0.4879295000137063,None,,,,,0,2,2,2,,,,,103.12777750000532,,,,,,,,,,,,,103.11178960000689,103.12777750000532,103.12777750000532,103.12777750000532,104.82717680001224,,,,104.83346390000952,104.84500030000345,104.84500030000345,104.89278500000364,104.89302130001306,104.90937950000807,104.90937950000807,104.90937950000807,104.99237550000544,105.40945890000148,,,,,,,,down,1.697138300005463,None,space,0.4879295000137063,None,,,,,,,,,,,,,,,P102,001,2025-02-12_14h32.16.314,posner_endo_new1,2024.2.4,60.041020024438566,2025-02-12 14h32.24.064470 +0000,
cube_l.png,0.1,0.31,invalid,3,3,0,down,6.759607400003006,None,space,0.46709769999142736,None,,,,,0,3,3,3,,,,,105.42543220000516,,,,,,,,,,,,,105.40964660000463,105.42543220000516,105.42543220000516,105.42543220000516,112.18615400000999,,,,112.19245690001117,112.20396090000577,112.20396090000577,112.25188540000818,112.25212319999991,112.26843880000524,112.26843880000524,112.26843880000524,112.33537070000602,112.75201120000565,,,,,,,,down,6.759607400003006,None,space,0.46709769999142736,None,,,,,,,,,,,,,,,P102,001,2025-02-12_14h32.16.314,posner_endo_new1,2024.2.4,60.041020024438566,2025-02-12 14h32.24.064470 +0000,
cube_l.png,0.1,-0.31,valid,4,4,0,down,3.7535856000031345,None,space,0.43038290001277346,None,,,,,0,4,4,4,,,,,112.7679560000106,,,,,,,,,,,,,112.7521931000083,112.7679560000106,112.7679560000106,112.7679560000106,116.53144980000798,,,,116.5376804000116,116.54951260000234,116.54951260000234,116.59737800000585,116.59761620000063,116.61399770001299,116.61399770001299,116.61399770001299,116.68061680000392,117.047896700009,,,,,,,,down,3.7535856000031345,None,space,0.43038290001277346,None,,,,,,,,,,,,,,,P102,001,2025-02-12_14h32.16.314,posner_endo_new1,2024.2.4,60.041020024438566,2025-02-12 14h32.24.064470 +0000,
cube_r.png,0.1,-0.31,invalid,5,5,0,down,3.993221099997754,None,space,0.49489940000057686,None,,,,,0,5,5,5,,,,,117.06349070000579,,,,,,,,,,,,,117.04807870001241,117.06349070000579,117.06349070000579,117.06349070000579,121.06038030001218,,,,121.06656610000937,121.07807770000363,121.07807770000363,121.12616640000488,121.12641200001235,121.14260400000785,121.14260400000785,121.14260400000785,121.22588780001388,121.64301640000485,,,,,,,,down,3.993221099997754,None,space,0.49489940000057686,None,,,,,,,,,,,,,,,P102,001,2025-02-12_14h32.16.314,posner_endo_new1,2024.2.4,60.041020024438566,2025-02-12 14h32.24.064470 +0000,
cube_r.png,0.1,0.31,valid,6,6,0,down,3.7743797000002814,None,space,0.4494721000082791,None,,,,,0,6,6,6,,,,,121.65867540000181,,,,,,,,,,,,,121.64319690001139,121.65867540000181,121.65867540000181,121.65867540000181,125.43911290001415,,,,125.44535250001354,125.45708960000775,125.45708960000775,125.5050149000017,125.50525580000249,125.52161110000452,125.52161110000452,125.52161110000452,125.60471620000317,125.97201310000673,,,,,,,,down,3.7743797000002814,None,space,0.4494721000082791,None,,,,,,,,,,,,,,,P102,001,2025-02-12_14h32.16.314,posner_endo_new1,2024.2.4,60.041020024438566,2025-02-12 14h32.24.064470 +0000,
cube_r.png,0.1,-0.31,invalid,7,7,0,down,4.245605299991439,None,space,0.4973963999946136,None,,,,,0,7,7,7,,,,,125.98766700000851,,,,,,,,,,,,,125.97219660000701,125.98766700000851,125.98766700000851,125.98766700000851,130.23441880001337,,,,130.24055860000954,130.25216130001354,130.25216130001354,130.2999841000128,130.300221100013,130.31657780001115,130.31657780001115,130.31657780001115,130.3998311000032,130.81700110000384,,,,,,,,down,4.245605299991439,None,space,0.4973963999946136,None,,,,,,,,,,,,,,,P102,001,2025-02-12_14h32.16.314,posner_endo_new1,2024.2.4,60.041020024438566,2025-02-12 14h32.24.064470 +0000,
cube_l.png,0.1,-0.31,valid,8,8,0,down,3.712382700003218,None,space,0.4449184000113746,None,,,,,0,8,8,8,,,,,130.83289990000776,,,,,,,,,,,,,130.81718890000775,130.83289990000776,130.83289990000776,130.83289990000776,134.54658150000614,,,,134.55263680001372,134.5643998000014,134.5643998000014,134.61240320000798,134.612641300002,134.62885020000977,134.62885020000977,134.62885020000977,134.712087900014,135.07943350001005,,,,,,,,down,3.712382700003218,None,space,0.4449184000113746,None,,,,,,,,,,,,,,,P102,001,2025-02-12_14h32.16.314,posner_endo_new1,2024.2.4,60.041020024438566,2025-02-12 14h32.24.064470 +0000,
cube_r.png,0.1,-0.31,invalid,9,9,0,down,3.9617918000003556,None,space,0.5566158000001451,None,,,,,0,9,9,9,,,,,135.09516560001066,,,,,,,,,,,,,135.07961440000508,135.09516560001066,135.09516560001066,135.09516560001066,139.058652000007,,,,139.06484560000536,139.07647610000276,139.07647610000276,139.12442890000239,139.1246683000063,139.14094390001264,139.14094390001264,139.14094390001264,139.2240210000018,139.70760490000248,,,,,,,,down,3.9617918000003556,None,space,0.5566158000001451,None,,,,,,,,,,,,,,,P102,001,2025-02-12_14h32.16.314,posner_endo_new1,2024.2.4,60.041020024438566,2025-02-12 14h32.24.064470 +0000,
cube_l.png,0.1,0.31,invalid,10,10,0,down,4.053373400005512,None,space,0.42810480001207907,None,,,,,0,10,10,10,,,,,139.7235795000015,,,,,,,,,,,,,139.70778850000352,139.7235795000015,139.7235795000015,139.7235795000015,143.78690480001387,,,,143.7931338000053,143.80460180000227,143.80460180000227,143.85291340001277,143.8531621000002,143.86956420000934,143.86956420000934,143.86956420000934,143.9361263000028,144.30314930000168,,,,,,,,down,4.053373400005512,None,space,0.42810480001207907,None,,,,,,,,,,,,,,,P102,001,2025-02-12_14h32.16.314,posner_endo_new1,2024.2.4,60.041020024438566,2025-02-12 14h32.24.064470 +0000,
cube_r.png,0.1,-0.31,invalid,11,11,0,down,4.129943799998728,None,space,0.43061239999951795,None,,,,,0,11,11,11,,,,,144.31898060000094,,,,,,,,,,,,,144.30333140000585,144.31898060000094,144.31898060000094,144.31898060000094,148.46567950000463,,,,148.47178210000857,148.48325390000537,148.48325390000537,148.53137229999993,148.5316094000009,148.54801100000623,148.54801100000623,148.54801100000623,148.63118080000277,148.98177399999986,,,,,,,,down,4.129943799998728,None,space,0.43061239999951795,None,,,,,,,,,,,,,,,P102,001,2025-02-12_14h32.16.314,posner_endo_new1,2024.2.4,60.041020024438566,2025-02-12 14h32.24.064470 +0000,
cube_r.png,0.1,0.31,valid,12,12,0,down,3.979686299993773,None,space,0.404311799997231,None,,,,,0,12,12,12,,,,,148.99760100001004,,,,,,,,,,,,,148.98195630000555,148.99760100001004,148.99760100001004,148.99760100001004,152.99409070001275,,,,153.0003560000041,153.01176740000665,153.01176740000665,153.06013150000945,153.06037320000178,153.07667930000753,153.07667930000753,153.07667930000753,153.1433253000141,153.4937590000045,,,,,,,,down,3.979686299993773,None,space,0.404311799997231,None,,,,,,,,,,,,,,,P102,001,2025-02-12_14h32.16.314,posner_endo_new1,2024.2.4,60.041020024438566,2025-02-12 14h32.24.064470 +0000,
cube_l.png,0.1,10,catch,13,13,0,down,3.683817800003453,None,None,,,,,,,0,13,13,13,,,,,153.5095061000029,,,,,,,,,,,,,153.49394500000926,153.5095061000029,153.5095061000029,153.5095061000029,157.206554400007,,,,157.21287440000742,157.22443400000338,157.22443400000338,157.27240380000148,157.2726391000033,157.28920670000662,157.28920670000662,157.28920670000662,157.35547490000317,160.2864397000085,,,,159.37026280000282,160.30254020000575,160.30254020000575,160.30254020000575,down,3.683817800003453,None,None,,,,,,,,,,,,,,,,,P102,001,2025-02-12_14h32.16.314,posner_endo_new1,2024.2.4,60.041020024438566,2025-02-12 14h32.24.064470 +0000,
cube_r.png,0.1,-0.31,invalid,14,14,0,down,1.418605300001218,None,space,0.4548179999983404,None,,,,,0,14,14,14,,,,,160.30254020000575,,,,,,,,,,,,,160.28661050001392,160.30254020000575,160.30254020000575,160.30254020000575,161.73530160001246,,,,161.74148880000575,161.75310790000367,161.75310790000367,161.80123560001084,161.80147180000495,161.81772390000697,161.81772390000697,161.81772390000697,161.88435900000331,162.28474530001404,,,,,,,,down,1.418605300001218,None,space,0.4548179999983404,None,,,,,,,,,,,,,,,P102,001,2025-02-12_14h32.16.314,posner_endo_new1,2024.2.4,60.041020024438566,2025-02-12 14h32.24.064470 +0000,
cube_l.png,0.1,-0.31,valid,15,15,0,down,3.7967034000030253,None,space,0.45106410000880715,None,,,,,0,15,15,15,,,,,162.30068440000468,,,,,,,,,,,,,162.28492879999976,162.30068440000468,162.30068440000468,162.30068440000468,166.11414190000505,,,,166.1202486000111,166.13156160000653,166.13156160000653,166.18004500000097,166.18028530001175,166.19658510001318,166.19658510001318,166.19658510001318,166.263291700001,166.66341960000864,,,,,,,,down,3.7967034000030253,None,space,0.45106410000880715,None,,,,,,,,,,,,,,,P102,001,2025-02-12_14h32.16.314,posner_endo_new1,2024.2.4,60.041020024438566,2025-02-12 14h32.24.064470 +0000,
cube_r.png,0.1,10,catch,16,16,0,down,3.9460303999949247,None,None,,,,,,,0,16,16,16,,,,,166.67935950000538,,,,,,,,,,,,,166.6635973000084,166.67935950000538,166.67935950000538,166.67935950000538,170.62629550001293,,,,170.63247900000715,170.6440874000109,170.6440874000109,170.69211590000486,170.69235480000498,170.70878630000516,170.70878630000516,170.70878630000516,170.7918187000032,173.70598900000914,,,,172.80647800001316,173.72221830001217,173.72221830001217,173.72221830001217,down,3.9460303999949247,None,None,,,,,,,,,,,,,,,,,P102,001,2025-02-12_14h32.16.314,posner_endo_new1,2024.2.4,60.041020024438566,2025-02-12 14h32.24.064470 +0000,
cube_r.png,0.1,10,catch,17,17,0,down,1.687355200003367,None,None,,,,,,,0,17,17,17,,,,,173.72221830001217,,,,,,,,,,,,,173.70616460000747,173.72221830001217,173.72221830001217,173.72221830001217,175.42127560000517,,,,175.42743520000658,175.43902590000653,175.43902590000653,175.48711630000616,175.4873510000034,175.50370430000476,175.50370430000476,175.50370430000476,175.57025760000397,178.50119730000733,,,,177.58499930000107,178.51690950000193,178.51690950000193,178.51690950000193,down,1.687355200003367,None,None,,,,,,,,,,,,,,,,,P102,001,2025-02-12_14h32.16.314,posner_endo_new1,2024.2.4,60.041020024438566,2025-02-12 14h32.24.064470 +0000,
cube_l.png,0.1,0.31,invalid,18,18,0,down,1.3164819000085117,None,space,0.4839821000059601,None,,,,,0,18,18,18,,,,,178.51690950000193,,,,,,,,,,,,,178.50136690000363,178.51690950000193,178.51690950000193,178.51690950000193,179.85017860001244,,,,179.85666430000856,179.86804010000196,179.86804010000196,179.91618100000778,179.9164218000078,179.93248130001302,179.93248130001302,179.93248130001302,180.01572130000568,180.43276960001094,,,,,,,,down,1.3164819000085117,None,space,0.4839821000059601,None,,,,,,,,,,,,,,,P102,001,2025-02-12_14h32.16.314,posner_endo_new1,2024.2.4,60.041020024438566,2025-02-12 14h32.24.064470 +0000,
cube_l.png,0.1,10,catch,19,19,0,down,4.224363400004222,None,None,,,,,,,0,19,19,19,,,,,180.44862910000666,,,,,,,,,,,,,180.43295250000665,180.44862910000666,180.44862910000666,180.44862910000666,184.67874940000183,,,,184.68480710001313,184.69639960001223,184.69639960001223,184.74445080000442,184.744689500003,184.7608334000106,184.7608334000106,184.7608334000106,184.84411800000817,187.758510700005,,,,186.85875320000923,187.77440960000968,187.77440960000968,187.77440960000968,down,4.224363400004222,None,None,,,,,,,,,,,,,,,,,P102,001,2025-02-12_14h32.16.314,posner_endo_new1,2024.2.4,60.041020024438566,2025-02-12 14h32.24.064470 +0000,
cube_l.png,0.1,0.31,invalid,20,20,0,down,1.6758037000108743,None,space,0.4701218000118388,None,,,,,0,20,20,20,,,,,187.77440960000968,,,,,,,,,,,,,187.75868070000433,187.77440960000968,187.77440960000968,187.77440960000968,189.4569865000085,,,,189.4630307000043,189.47459650000383,189.47459650000383,189.52293100001407,189.5231688000058,189.53945860000385,189.53945860000385,189.53945860000385,189.60609750000003,190.02299640000274,,,,,,,,down,1.6758037000108743,None,space,0.4701218000118388,None,,,,,,,,,,,,,,,P102,001,2025-02-12_14h32.16.314,posner_endo_new1,2024.2.4,60.041020024438566,2025-02-12 14h32.24.064470 +0000,
cube_l.png,0.1,-0.31,valid,21,21,0,down,4.32994250000047,None,space,0.4220272000093246,None,,,,,0,21,21,21,,,,,190.03887910000049,,,,,,,,,,,,,190.0231758000009,190.03887910000049,190.03887910000049,190.03887910000049,194.38510540001153,,,,194.39118640001107,194.40265910000016,194.40265910000016,194.45105150000018,194.45128960000875,194.46775740000885,194.46775740000885,194.46775740000885,194.5342010000022,194.90147790001356,,,,,,,,down,4.32994250000047,None,space,0.4220272000093246,None,,,,,,,,,,,,,,,P102,001,2025-02-12_14h32.16.314,posner_endo_new1,2024.2.4,60.041020024438566,2025-02-12 14h32.24.064470 +0000,
cube_r.png,0.1,0.31,valid,22,22,0,down,4.0041857999895,None,space,0.40740029999869876,None,,,,,0,22,22,22,,,,,194.917127800014,,,,,,,,,,,,,194.90165910001087,194.917127800014,194.917127800014,194.917127800014,198.9305691000045,,,,198.936592500002,198.94822360000398,198.94822360000398,198.9963504000043,198.99658850001288,199.01297870000417,199.01297870000417,199.01297870000417,199.07956790000026,199.43012080001063,,,,,,,,down,4.0041857999895,None,space,0.40740029999869876,None,,,,,,,,,,,,,,,P102,001,2025-02-12_14h32.16.314,posner_endo_new1,2024.2.4,60.041020024438566,2025-02-12 14h32.24.064470 +0000,
cube_r.png,0.1,-0.31,invalid,23,23,0,down,3.3476298000023235,None,space,0.41149830000358634,None,,,,,0,23,23,23,,,,,199.44590130000142,,,,,,,,,,,,,199.430302400011,199.44590130000142,199.44590130000142,199.44590130000142,202.80976340000052,,,,202.81575060001342,202.82735530000355,202.82735530000355,202.87578400000348,202.87602110000444,202.8924917000113,202.8924917000113,202.8924917000113,202.95897510000214,203.30944720000844,,,,,,,,down,3.3476298000023235,None,space,0.41149830000358634,None,,,,,,,,,,,,,,,P102,001,2025-02-12_14h32.16.314,posner_endo_new1,2024.2.4,60.041020024438566,2025-02-12 14h32.24.064470 +0000,
cube_r.png,0.1,0.31,valid,24,24,0,down,3.804146700000274,None,space,0.3835843999986537,None,,,,,0,24,24,24,,,,,203.32514220000303,,,,,,,,,,,,,203.30962950001413,203.32514220000303,203.32514220000303,203.32514220000303,207.13870430001407,,,,207.1449161000055,207.15635220000695,207.15635220000695,207.20470130001195,207.20494330000656,207.22129600000335,207.22129600000335,207.22129600000335,207.28796220000368,207.62175380000554,,,,,,,,down,3.804146700000274,None,space,0.3835843999986537,None,,,,,,,,,,,,,,,P102,001,2025-02-12_14h32.16.314,posner_endo_new1,2024.2.4,60.041020024438566,2025-02-12 14h32.24.064470 +0000,
cube_r.png,0.1,-0.31,invalid,25,25,0,down,4.268121699991752,None,space,0.42989319999469444,None,,,,,0,25,25,25,,,,,207.63750970001274,,,,,,,,,,,,,207.6219393000065,207.63750970001274,207.63750970001274,207.63750970001274,211.91731140000047,,,,211.9233377000055,211.93474490000517,211.93474490000517,211.9833110000036,211.98355080001056,211.9996514000086,211.9996514000086,211.9996514000086,212.0665020000015,212.43385140001192,,,,,,,,down,4.268121699991752,None,space,0.42989319999469444,None,,,,,,,,,,,,,,,P102,001,2025-02-12_14h32.16.314,posner_endo_new1,2024.2.4,60.041020024438566,2025-02-12 14h32.24.064470 +0000,
cube_l.png,0.1,-0.31,valid,26,26,0,down,4.1435788000089815,None,space,0.4106204000127036,None,,,,,0,26,26,26,,,,,212.44944610001403,,,,,,,,,,,,,212.43403080001008,212.44944610001403,212.44944610001403,212.44944610001403,216.5959254000045,,,,216.60228180000558,216.61387910001213,216.61387910001213,216.66181540000252,216.66205110000737,216.678424800004,216.678424800004,216.678424800004,216.7615230000083,217.09538300000713,,,,,,,,down,4.1435788000089815,None,space,0.4106204000127036,None,,,,,,,,,,,,,,,P102,001,2025-02-12_14h32.16.314,posner_endo_new1,2024.2.4,60.041020024438566,2025-02-12 14h32.24.064470 +0000,
cube_r.png,0.1,0.31,valid,27,27,0,down,4.546994499993161,None,space,0.45532510000339244,None,,,,,0,27,27,27,,,,,217.11114630001248,,,,,,,,,,,,,217.0955643000052,217.11114630001248,217.11114630001248,217.11114630001248,221.67398170000524,,,,221.6800346000091,221.6915035000129,221.6915035000129,221.7397850000125,221.74002830000245,221.76139660000626,221.76139660000626,221.76139660000626,221.82636820001062,222.22356550001132,,,,,,,,down,4.546994499993161,None,space,0.45532510000339244,None,,,,,,,,,,,,,,,P102,001,2025-02-12_14h32.16.314,posner_endo_new1,2024.2.4,60.041020024438566,2025-02-12 14h32.24.064470 +0000,
cube_r.png,0.1,10,catch,28,28,0,down,3.58613849998801,None,None,,,,,,,0,28,28,28,,,,,222.23941910000576,,,,,,,,,,,,,222.22375240000838,222.23941910000576,222.23941910000576,222.23941910000576,225.8367319000099,,,,225.8427423000103,225.854342000006,225.854342000006,225.9022924000019,225.9025285000098,225.9187707000092,225.9187707000092,225.9187707000092,226.00203370000236,228.91623070000787,,,,228.01685090000683,228.93243520001124,228.93243520001124,228.93243520001124,down,3.58613849998801,None,None,,,,,,,,,,,,,,,,,P102,001,2025-02-12_14h32.16.314,posner_endo_new1,2024.2.4,60.041020024438566,2025-02-12 14h32.24.064470 +0000,
cube_r.png,0.1,0.31,valid,29,29,0,down,1.7250511000020197,None,space,0.3831495000049472,None,,,,,0,29,29,29,,,,,228.93243520001124,,,,,,,,,,,,,228.91640170000028,228.93243520001124,228.93243520001124,228.93243520001124,230.6645564000064,,,,230.6707088000112,230.68215040001087,230.68215040001087,230.73074300000735,230.73097810000763,230.74717050000618,230.74717050000618,230.74717050000618,230.81370070000412,231.13113640001393,,,,,,,,down,1.7250511000020197,None,space,0.3831495000049472,None,,,,,,,,,,,,,,,P102,001,2025-02-12_14h32.16.314,posner_endo_new1,2024.2.4,60.041020024438566,2025-02-12 14h32.24.064470 +0000,
cube_r.png,0.1,0.31,valid,30,30,0,down,4.846717799999169,None,space,0.412681200003135,None,,,,,0,30,30,30,,,,,231.14683590001368,,,,,,,,,,,,,231.13132090000727,231.14683590001368,231.14683590001368,231.14683590001368,236.00929560000077,,,,236.015413000001,236.02681380001013,236.02681380001013,236.0750881000131,236.07532680001168,236.09175370000594,236.09175370000594,236.09175370000594,236.15830890000507,236.5088814000046,,,,,,,,down,4.846717799999169,None,space,0.412681200003135,None,,,,,,,,,,,,,,,P102,001,2025-02-12_14h32.16.314,posner_endo_new1,2024.2.4,60.041020024438566,2025-02-12 14h32.24.064470 +0000,
cube_l.png,0.1,-0.31,valid,31,31,0,down,3.756947800007765,None,space,0.4208764000068186,None,,,,,0,31,31,31,,,,,236.52451210000436,,,,,,,,,,,,,236.5090632000065,236.52451210000436,236.52451210000436,236.52451210000436,240.2881849000114,,,,240.29421330000332,240.3059717000142,240.3059717000142,240.35397390001162,240.35421110001334,240.3707762000122,240.3707762000122,240.3707762000122,240.43730910000158,240.80449790001148,,,,,,,,down,3.756947800007765,None,space,0.4208764000068186,None,,,,,,,,,,,,,,,P102,001,2025-02-12_14h32.16.314,posner_endo_new1,2024.2.4,60.041020024438566,2025-02-12 14h32.24.064470 +0000,
cube_r.png,0.1,0.31,valid,32,32,0,down,4.252841299996362,None,space,0.5525256999972044,None,,,,,0,32,32,32,,,,,240.82026020000922,,,,,,,,,,,,,240.80467890000727,240.82026020000922,240.82026020000922,240.82026020000922,245.08322820000467,,,,245.08918370000902,245.1007227000082,245.1007227000082,245.14922790000855,245.149464800008,245.1656906999997,245.1656906999997,245.1656906999997,245.23240850000002,245.7327057000075,,,,,,,,down,4.252841299996362,None,space,0.5525256999972044,None,,,,,,,,,,,,,,,P102,001,2025-02-12_14h32.16.314,posner_endo_new1,2024.2.4,60.041020024438566,2025-02-12 14h32.24.064470 +0000,
cube_r.png,0.1,-0.31,invalid,33,33,0,down,4.084792400011793,None,space,0.4025063000008231,None,,,,,0,33,33,33,,,,,245.748485300006,,,,,,,,,,,,,245.7328925000038,245.748485300006,245.748485300006,245.748485300006,249.84511190000921,,,,249.8513452000043,249.8631846000062,249.8631846000062,249.91114900000684,249.91139620001195,249.92749830000685,249.92749830000685,249.92749830000685,250.0107827000029,250.34469790000003,,,,,,,,down,4.084792400011793,None,space,0.4025063000008231,None,,,,,,,,,,,,,,,P102,001,2025-02-12_14h32.16.314,posner_endo_new1,2024.2.4,60.041020024438566,2025-02-12 14h32.24.064470 +0000,
cube_r.png,0.1,10,catch,34,34,0,down,4.056720399996266,None,None,,,,,,,0,34,34,34,,,,,250.36052240000572,,,,,,,,,,,,,250.3448788000096,250.36052240000572,250.36052240000572,250.36052240000572,254.4240056000126,,,,254.42994730001374,254.4412461000029,254.4412461000029,254.48963390001154,254.48987340000167,254.50607770000352,254.50607770000352,254.50607770000352,254.58949500000745,257.50379090000934,,,,256.603972900004,257.51974390000396,257.51974390000396,257.51974390000396,down,4.056720399996266,None,None,,,,,,,,,,,,,,,,,P102,001,2025-02-12_14h32.16.314,posner_endo_new1,2024.2.4,60.041020024438566,2025-02-12 14h32.24.064470 +0000,
cube_r.png,0.1,0.31,valid,35,35,0,down,1.009857800003374,None,space,0.4381537000008393,None,,,,,0,35,35,35,,,,,257.51974390000396,,,,,,,,,,,,,257.50396460000775,257.51974390000396,257.51974390000396,257.51974390000396,258.5362698000099,,,,258.5421977000078,258.5536592999997,258.5536592999997,258.6022482000117,258.60249060000933,258.6186495000002,258.6186495000002,258.6186495000002,258.685390300001,259.06918300001416,,,,,,,,down,1.009857800003374,None,space,0.4381537000008393,None,,,,,,,,,,,,,,,P102,001,2025-02-12_14h32.16.314,posner_endo_new1,2024.2.4,60.041020024438566,2025-02-12 14h32.24.064470 +0000,
cube_r.png,0.1,-0.31,invalid,36,36,0,down,3.644573900004616,None,space,0.40768770000431687,None,,,,,0,36,36,36,,,,,259.08498630000395,,,,,,,,,,,,,259.0693648000015,259.08498630000395,259.08498630000395,259.08498630000395,262.73224100000516,,,,262.73817970001255,262.74949590000324,262.74949590000324,262.7979151000036,262.798151400013,262.81462660001125,262.81462660001125,262.81462660001125,262.89769250000245,263.2315640000015,,,,,,,,down,3.644573900004616,None,space,0.40768770000431687,None,,,,,,,,,,,,,,,P102,001,2025-02-12_14h32.16.314,posner_endo_new1,2024.2.4,60.041020024438566,2025-02-12 14h32.24.064470 +0000,
cube_l.png,0.1,0.31,invalid,37,37,0,down,4.3631098000041675,None,space,0.49779080000007525,None,,,,,0,37,37,37,,,,,263.2473941000062,,,,,,,,,,,,,263.2317455000011,263.2473941000062,263.2473941000062,263.2473941000062,267.626994700011,,,,267.6330042000045,267.6445678000018,267.6445678000018,267.69303950000904,267.69327400000475,267.7094155000086,267.7094155000086,267.7094155000086,267.77617400001327,268.20980580001196,,,,,,,,down,4.3631098000041675,None,space,0.49779080000007525,None,,,,,,,,,,,,,,,P102,001,2025-02-12_14h32.16.314,posner_endo_new1,2024.2.4,60.041020024438566,2025-02-12 14h32.24.064470 +0000,
cube_l.png,0.1,0.31,invalid,38,38,0,down,4.1439228000090225,None,space,0.5255965999967884,None,,,,,0,38,38,38,,,,,268.22560790000716,,,,,,,,,,,,,268.20998570001393,268.22560790000716,268.22560790000716,268.22560790000716,272.3723161000089,,,,272.3782815000013,272.389851800006,272.389851800006,272.4380523,272.43829330000153,272.4544712000061,272.4544712000061,272.4544712000061,272.5378005000093,272.98797080000804,,,,,,,,down,4.1439228000090225,None,space,0.5255965999967884,None,,,,,,,,,,,,,,,P102,001,2025-02-12_14h32.16.314,posner_endo_new1,2024.2.4,60.041020024438566,2025-02-12 14h32.24.064470 +0000,
cube_r.png,0.1,0.31,valid,39,39,0,down,3.9257269999943674,None,space,0.41264479998790193,None,,,,,0,39,39,39,,,,,273.00401760000386,,,,,,,,,,,,,272.98815310001373,273.00401760000386,273.00401760000386,273.00401760000386,276.93421620001027,,,,276.94023600000946,276.9517196000088,276.9517196000088,277.00015520000306,277.00039880000986,277.01637010001286,277.01637010001286,277.01637010001286,277.09967470000265,277.4337618999998,,,,,,,,down,3.9257269999943674,None,space,0.41264479998790193,None,,,,,,,,,,,,,,,P102,001,2025-02-12_14h32.16.314,posner_endo_new1,2024.2.4,60.041020024438566,2025-02-12 14h32.24.064470 +0000,
cube_l.png,0.1,0.31,invalid,40,40,0,down,4.711599500005832,None,space,0.44400850000965875,None,,,,,0,40,40,40,,,,,277.44944920000853,,,,,,,,,,,,,277.43395870001405,277.44944920000853,277.44944920000853,277.44944920000853,282.1622427000111,,,,282.1682545000076,282.17981970000255,282.17981970000255,282.22785550000845,282.2280929000117,282.24458740001137,282.24458740001137,282.24458740001137,282.32781790000445,282.694822400008,,,,,,,,down,4.711599500005832,None,space,0.44400850000965875,None,,,,,,,,,,,,,,,P102,001,2025-02-12_14h32.16.314,posner_endo_new1,2024.2.4,60.041020024438566,2025-02-12 14h32.24.064470 +0000,
cube_l.png,0.1,10,catch,41,41,0,down,4.29857980000088,None,None,,,,,,,0,41,41,41,,,,,282.7107381000096,,,,,,,,,,,,,282.6950024000107,282.7107381000096,282.7107381000096,282.7107381000096,287.0241173000104,,,,287.0337043000036,287.0440399000072,287.0440399000072,287.08983210001315,287.0901561000064,287.10607080000045,287.10607080000045,287.10607080000045,287.1895011000015,290.1038744000107,,,,289.20407410000917,290.1196817000018,290.1196817000018,290.1196817000018,down,4.29857980000088,None,None,,,,,,,,,,,,,,,,,P102,001,2025-02-12_14h32.16.314,posner_endo_new1,2024.2.4,60.041020024438566,2025-02-12 14h32.24.064470 +0000,
cube_l.png,0.1,-0.31,valid,42,42,0,down,1.321663399998215,None,space,0.458218300002045,None,,,,,0,42,42,42,,,,,290.1196817000018,,,,,,,,,,,,,290.1041183000052,290.1196817000018,290.1196817000018,290.1196817000018,291.4529547000129,,,,291.46246360000805,291.4726495000068,291.4726495000068,291.518702500005,291.51901820000785,291.5350399000017,291.5350399000017,291.5350399000017,291.61843490001047,292.0023862000089,,,,,,,,down,1.321663399998215,None,space,0.458218300002045,None,,,,,,,,,,,,,,,P102,001,2025-02-12_14h32.16.314,posner_endo_new1,2024.2.4,60.041020024438566,2025-02-12 14h32.24.064470 +0000,
cube_l.png,0.1,10,catch,43,43,0,down,3.9603696999984095,None,None,,,,,,,0,43,43,43,,,,,292.01796230000036,,,,,,,,,,,,,292.00264250001055,292.01796230000036,292.01796230000036,292.01796230000036,295.9817817000003,,,,295.99136980000185,296.0015536000137,296.0015536000137,296.04732610000065,296.0476425000088,296.063767700005,296.063767700005,296.063767700005,296.14701790000254,299.06133540000883,,,,298.1616506999999,299.0773249000049,299.0773249000049,299.0773249000049,down,3.9603696999984095,None,None,,,,,,,,,,,,,,,,,P102,001,2025-02-12_14h32.16.314,posner_endo_new1,2024.2.4,60.041020024438566,2025-02-12 14h32.24.064470 +0000,
cube_l.png,0.1,0.31,invalid,44,44,0,down,0.9323409000062384,None,space,0.42173640000692103,None,,,,,0,44,44,44,,,,,299.0773249000049,,,,,,,,,,,,,299.06157870001334,299.0773249000049,299.0773249000049,299.0773249000049,300.01106640000944,,,,300.02057250001235,300.03096930000174,300.03096930000174,300.07654080000066,300.0768642000039,300.09301350000896,300.09301350000896,300.09301350000896,300.176302900014,300.52702000000863,,,,,,,,down,0.9323409000062384,None,space,0.42173640000692103,None,,,,,,,,,,,,,,,P102,001,2025-02-12_14h32.16.314,posner_endo_new1,2024.2.4,60.041020024438566,2025-02-12 14h32.24.064470 +0000,
cube_l.png,0.1,0.31,invalid,45,45,0,down,4.7626894999993965,None,space,0.5393908000114607,None,,,,,0,45,45,45,,,,,300.5424815000006,,,,,,,,,,,,,300.5272813000047,300.5424815000006,300.5424815000006,300.5424815000006,305.32209450000664,,,,305.33163760000025,305.34155660000397,305.34155660000397,305.3878215000004,305.38814470000216,305.4041823000007,305.4041823000007,305.4041823000007,305.48757970001316,305.95457840000745,,,,,,,,down,4.7626894999993965,None,space,0.5393908000114607,None,,,,,,,,,,,,,,,P102,001,2025-02-12_14h32.16.314,posner_endo_new1,2024.2.4,60.041020024438566,2025-02-12 14h32.24.064470 +0000,
cube_r.png,0.1,0.31,valid,46,46,0,down,3.975217499988503,None,space,0.43458029998873826,None,,,,,0,46,46,46,,,,,305.97037600001204,,,,,,,,,,,,,305.9548371000128,305.97037600001204,305.97037600001204,305.97037600001204,309.95052920001035,,,,309.960127000013,309.97029720000864,309.97029720000864,310.01637300000584,310.01669510001375,310.0328062000044,310.0328062000044,310.0328062000044,310.11606360001315,310.483378600009,,,,,,,,down,3.975217499988503,None,space,0.43458029998873826,None,,,,,,,,,,,,,,,P102,001,2025-02-12_14h32.16.314,posner_endo_new1,2024.2.4,60.041020024438566,2025-02-12 14h32.24.064470 +0000,
cube_l.png,0.1,-0.31,valid,47,47,0,down,4.478273700005957,None,space,0.400160400007735,None,,,,,0,47,47,47,,,,,310.4990242000058,,,,,,,,,,,,,310.4836351000122,310.4990242000058,310.4990242000058,310.4990242000058,314.97905930000707,,,,314.98861850000685,314.9988732000056,314.9988732000056,315.04461840000295,315.0449341000058,315.06097020000743,315.06097020000743,315.06097020000743,315.1441962000099,315.4783107000112,,,,,,,,down,4.478273700005957,None,space,0.400160400007735,None,,,,,,,,,,,,,,,P102,001,2025-02-12_14h32.16.314,posner_endo_new1,2024.2.4,60.041020024438566,2025-02-12 14h32.24.064470 +0000,
cube_r.png,0.1,-0.31,invalid,48,48,0,down,4.251517800003057,None,space,0.4724640999920666,None,,,,,0,48,48,48,,,,,315.4938009000034,,,,,,,,,,,,,315.47857010000735,315.4938009000034,315.4938009000034,315.4938009000034,319.75729030001094,,,,319.76574729999993,319.77582640000037,319.77582640000037,319.82290920001105,319.8231502000126,319.8392745000019,319.8392745000019,319.8392745000019,319.92277080001077,320.32304610000574,,,,,,,,down,4.251517800003057,None,space,0.4724640999920666,None,,,,,,,,,,,,,,,P102,001,2025-02-12_14h32.16.314,posner_endo_new1,2024.2.4,60.041020024438566,2025-02-12 14h32.24.064470 +0000,
cube_r.png,0.1,10,catch,49,49,0,down,4.150070700008655,None,None,,,,,,,0,49,49,49,,,,,320.33906170001137,,,,,,,,,,,,,320.32322510000085,320.33906170001137,320.33906170001137,320.33906170001137,324.5021090000082,,,,324.50847610000346,324.52009140000155,324.52009140000155,324.5680168000108,324.5682566000032,324.58450260000245,324.58450260000245,324.58450260000245,324.667780600008,327.582052400001,,,,326.6824273000093,327.59812000000966,327.59812000000966,327.59812000000966,down,4.150070700008655,None,None,,,,,,,,,,,,,,,,,P102,001,2025-02-12_14h32.16.314,posner_endo_new1,2024.2.4,60.041020024438566,2025-02-12 14h32.24.064470 +0000,
cube_l.png,0.1,-0.31,valid,50,50,0,down,1.635358500003349,None,space,0.3738983999937773,None,,,,,0,50,50,50,,,,,327.59812000000966,,,,,,,,,,,,,327.582224200014,327.59812000000966,327.59812000000966,327.59812000000966,329.2472900000139,,,,329.25325240001257,329.2645269000059,329.2645269000059,329.31330760000856,329.3135423000058,329.3298274000117,329.3298274000117,329.3298274000117,329.3964382000122,329.7134012000024,,,,,,,,down,1.635358500003349,None,space,0.3738983999937773,None,,,,,,,,,,,,,,,P102,001,2025-02-12_14h32.16.314,posner_endo_new1,2024.2.4,60.041020024438566,2025-02-12 14h32.24.064470 +0000,
cube_l.png,0.1,-0.31,valid,51,51,0,down,4.6242039000062505,None,space,0.43924669999978505,None,,,,,0,51,51,51,,,,,329.72928690000845,,,,,,,,,,,,,329.71358260000125,329.72928690000845,329.72928690000845,329.72928690000845,334.35881200000586,,,,334.36485390001326,334.3764375000028,334.3764375000028,334.42452980000235,334.4247680000117,334.4412793000083,334.4412793000083,334.4412793000083,334.5243263000011,334.89149030001136,,,,,,,,down,4.6242039000062505,None,space,0.43924669999978505,None,,,,,,,,,,,,,,,P102,001,2025-02-12_14h32.16.314,posner_endo_new1,2024.2.4,60.041020024438566,2025-02-12 14h32.24.064470 +0000,
cube_r.png,0.1,-0.31,invalid,52,52,0,down,4.101912899990566,None,space,0.47244089999003336,None,,,,,0,52,52,52,,,,,334.9074524000025,,,,,,,,,,,,,334.8916689000034,334.9074524000025,334.9074524000025,334.9074524000025,339.0205674000026,,,,339.026497800005,339.0379816000059,339.0379816000059,339.086501200014,339.0867355000082,339.102964900012,339.102964900012,339.102964900012,339.16967640000803,339.5863631000102,,,,,,,,down,4.101912899990566,None,space,0.47244089999003336,None,,,,,,,,,,,,,,,P102,001,2025-02-12_14h32.16.314,posner_endo_new1,2024.2.4,60.041020024438566,2025-02-12 14h32.24.064470 +0000,
cube_l.png,0.1,-0.31,valid,53,53,0,down,5.142976799994358,None,space,0.35529659999883734,None,,,,,0,53,53,53,,,,,339.60254660001374,,,,,,,,,,,,,339.5865457000036,339.60254660001374,339.60254660001374,339.60254660001374,344.7481795000058,,,,344.7541295000119,344.76554620001116,344.76554620001116,344.81414700001187,344.81438690000505,344.83046750001085,344.83046750001085,344.83046750001085,344.9136748000019,345.19772080000257,,,,,,,,down,5.142976799994358,None,space,0.35529659999883734,None,,,,,,,,,,,,,,,P102,001,2025-02-12_14h32.16.314,posner_endo_new1,2024.2.4,60.041020024438566,2025-02-12 14h32.24.064470 +0000,
cube_r.png,0.1,10,catch,54,54,0,down,5.32342190000054,None,None,,,,,,,0,54,54,54,,,,,345.21350760001224,,,,,,,,,,,,,345.19790360001207,345.21350760001224,345.21350760001224,345.21350760001224,350.5422092000081,,,,350.5482250000059,350.5597761000099,350.5597761000099,350.6081850000046,350.60842210000555,350.6246031000046,350.6246031000046,350.6246031000046,350.7079401000083,353.6222134000127,,,,352.7224414000084,353.6381356000056,353.6381356000056,353.6381356000056,down,5.32342190000054,None,None,,,,,,,,,,,,,,,,,P102,001,2025-02-12_14h32.16.314,posner_endo_new1,2024.2.4,60.041020024438566,2025-02-12 14h32.24.064470 +0000,
cube_l.png,0.1,0.31,invalid,55,55,0,down,3.7949287999945227,None,space,0.616388199996436,None,,,,,0,55,55,55,,,,,353.6381356000056,,,,,,,,,,,,,353.6223846000066,353.6381356000056,353.6381356000056,353.6381356000056,357.43529970000964,,,,357.4412599000061,357.45278300000064,357.45278300000064,357.50093170000764,357.50116870000784,357.51752040001156,357.51752040001156,357.51752040001156,357.6008198000054,358.13472240000556,,,,,,,,down,3.7949287999945227,None,space,0.616388199996436,None,,,,,,,,,,,,,,,P102,001,2025-02-12_14h32.16.314,posner_endo_new1,2024.2.4,60.041020024438566,2025-02-12 14h32.24.064470 +0000,
cube_l.png,0.1,-0.31,valid,56,56,0,down,4.283269999999902,None,space,0.4049873000039952,None,,,,,0,56,56,56,,,,,358.1501384000003,,,,,,,,,,,,,358.1349057000043,358.1501384000003,358.1501384000003,358.1501384000003,362.4465990000026,,,,362.4525341000117,362.4642198000074,362.4642198000074,362.51249730000563,362.51273530001345,362.5290901000117,362.5290901000117,362.5290901000117,362.59560300000885,362.94599660001404,,,,,,,,down,4.283269999999902,None,space,0.4049873000039952,None,,,,,,,,,,,,,,,P102,001,2025-02-12_14h32.16.314,posner_endo_new1,2024.2.4,60.041020024438566,2025-02-12 14h32.24.064470 +0000,
cube_r.png,0.1,0.31,valid,57,57,0,down,2.6392099000076996,None,space,0.4220791999978246,None,,,,,0,57,57,57,,,,,362.96197740000207,,,,,,,,,,,,,362.9461810000066,362.96197740000207,362.96197740000207,362.96197740000207,365.6100151000137,,,,365.61602360001416,365.6275583000097,365.6275583000097,365.67605410001124,365.676292300006,365.6924866000045,365.6924866000045,365.6924866000045,365.7590271000081,366.12632960001065,,,,,,,,down,2.6392099000076996,None,space,0.4220791999978246,None,,,,,,,,,,,,,,,P102,001,2025-02-12_14h32.16.314,posner_endo_new1,2024.2.4,60.041020024438566,2025-02-12 14h32.24.064470 +0000,
cube_r.png,0.1,-0.31,invalid,58,58,0,down,4.283143699998618,None,space,0.42343199999595527,None,,,,,0,58,58,58,,,,,366.142027400012,,,,,,,,,,,,,366.1265100000019,366.142027400012,366.142027400012,366.142027400012,370.43839030001254,,,,370.4443382000027,370.45573210000293,370.45573210000293,370.5042631000106,370.50450520000595,370.52087900000333,370.52087900000333,370.52087900000333,370.5873877000122,370.95455810001295,,,,,,,,down,4.283143699998618,None,space,0.42343199999595527,None,,,,,,,,,,,,,,,P102,001,2025-02-12_14h32.16.314,posner_endo_new1,2024.2.4,60.041020024438566,2025-02-12 14h32.24.064470 +0000,
cube_l.png,0.1,0.31,invalid,59,59,0,down,4.3032608999928925,None,space,0.4664714000100503,None,,,,,0,59,59,59,,,,,370.9703942000051,,,,,,,,,,,,,370.95473710000806,370.9703942000051,370.9703942000051,370.9703942000051,375.28342500000144,,,,375.28936310000427,375.30083770000783,375.30083770000783,375.3496978000039,375.3499351000064,375.36583640000026,375.36583640000026,375.36583640000026,375.43265200000315,375.83312360000855,,,,,,,,down,4.3032608999928925,None,space,0.4664714000100503,None,,,,,,,,,,,,,,,P102,001,2025-02-12_14h32.16.314,posner_endo_new1,2024.2.4,60.041020024438566,2025-02-12 14h32.24.064470 +0000,
,,,,,,,,,,,,,,,,,,,,,,,,,,,,,,,,,,,,,,,,,,,,,,,,,,,,,,,,,,,,,,,,,,,,,375.83324430001085,375.8487343000015,375.8487343000015,435.85413370000606,441.34962270001415,space,65.49660519999452,None,,,,,,,P102,001,2025-02-12_14h32.16.314,posner_endo_new1,2024.2.4,60.041020024438566,2025-02-12 14h32.24.064470 +0000,
,,,,,,,,,,,,,,,,,,,,,,,,,,,,,,,,,,441.34969920000003,441.3650789000094,444.37903150000784,444.3461116000108,,,,,,,,,,,,,,,,,,,,,,,,,,,,,,,,,,,,,,,,,,,,,,P102,001,2025-02-12_14h32.16.314,posner_endo_new1,2024.2.4,60.041020024438566,2025-02-12 14h32.24.064470 +0000,
cube_l.png,0.1,10,catch,0,0,0,up,5.110219199996209,None,None,,,,,,,,,,,0,0,0,0,444.37903150000784,,,,,,,,,,,,,444.3698703000118,444.37903150000784,444.37903150000784,444.37903150000784,449.49145610000414,,,,449.50158110000484,449.51181510000606,449.51181510000606,449.55697900000087,449.5573044000048,449.5734608000057,449.5734608000057,449.5734608000057,449.65669710001384,452.5711006000056,,,,451.6713377000124,452.5869931000052,452.5869931000052,452.5869931000052,,,,,,,,,,,,,,,up,5.110219199996209,None,None,,,P102,001,2025-02-12_14h32.16.314,posner_endo_new1,2024.2.4,60.041020024438566,2025-02-12 14h32.24.064470 +0000,
cube_l.png,0.1,10,catch,1,1,0,up,1.5028310999914538,None,None,,,,,,,,,,,0,1,1,1,452.5869931000052,,,,,,,,,,,,,452.5713461000123,452.5869931000052,452.5869931000052,452.5869931000052,454.10307110000576,,,,454.11252250001417,454.1227927,454.1227927,454.1687799000065,454.1690940000117,454.1853909000056,454.1853909000056,454.1853909000056,454.2684842000017,457.1829749000026,,,,456.2832350000099,457.19889300000796,457.19889300000796,457.19889300000796,,,,,,,,,,,,,,,up,1.5028310999914538,None,None,,,P102,001,2025-02-12_14h32.16.314,posner_endo_new1,2024.2.4,60.041020024438566,2025-02-12 14h32.24.064470 +0000,
cube_l.png,0.1,0.31,invalid,2,2,0,up,1.6426071000023512,None,space,0.4320120000047609,None,,,,,,,,,0,2,2,2,457.19889300000796,,,,,,,,,,,,,457.183222800013,457.19889300000796,457.19889300000796,457.19889300000796,458.8483491000079,,,,458.85789510000905,458.8681578000105,458.8681578000105,458.91405230000964,458.91437310000765,458.9304461000138,458.9304461000138,458.9304461000138,459.01374240001314,459.3646490000101,,,,,,,,,,,,,,,,,,,,,,up,1.6426071000023512,None,space,0.4320120000047609,None,P102,001,2025-02-12_14h32.16.314,posner_endo_new1,2024.2.4,60.041020024438566,2025-02-12 14h32.24.064470 +0000,
cube_l.png,0.1,0.31,invalid,3,3,0,up,4.629108699999051,None,space,0.43036209999991115,None,,,,,,,,,0,3,3,3,459.3800770000089,,,,,,,,,,,,,459.36491670001124,459.3800770000089,459.3800770000089,459.3800770000089,464.02633640001295,,,,464.03587980000884,464.0458756000007,464.0458756000007,464.0921139000129,464.09242950000043,464.1086559000105,464.1086559000105,464.1086559000105,464.1918463000038,464.5426820000139,,,,,,,,,,,,,,,,,,,,,,up,4.629108699999051,None,space,0.43036209999991115,None,P102,001,2025-02-12_14h32.16.314,posner_endo_new1,2024.2.4,60.041020024438566,2025-02-12 14h32.24.064470 +0000,
cube_l.png,0.1,-0.31,valid,4,4,0,up,4.370929700002307,None,space,0.39473060000455007,None,,,,,,,,,0,4,4,4,464.55800160000217,,,,,,,,,,,,,464.54295780000393,464.55800160000217,464.55800160000217,464.55800160000217,468.93808920000447,,,,468.9476801000128,468.9580319000088,468.9580319000088,469.00379930000054,469.00412260000303,469.0201820000075,469.0201820000075,469.0201820000075,469.10343990000547,469.42090470000403,,,,,,,,,,,,,,,,,,,,,,up,4.370929700002307,None,space,0.39473060000455007,None,P102,001,2025-02-12_14h32.16.314,posner_endo_new1,2024.2.4,60.041020024438566,2025-02-12 14h32.24.064470 +0000,
cube_r.png,0.1,-0.31,invalid,5,5,0,up,4.364445499988506,None,space,0.4063222999975551,None,,,,,,,,,0,5,5,5,469.436472100002,,,,,,,,,,,,,469.4211689000076,469.436472100002,469.436472100002,469.436472100002,473.8164214999997,,,,473.8259364000114,473.8361380000133,473.8361380000133,473.88200640000287,473.8823212000134,473.89856300000974,473.89856300000974,473.89856300000974,473.98180340000545,474.31589440000243,,,,,,,,,,,,,,,,,,,,,,up,4.364445499988506,None,space,0.4063222999975551,None,P102,001,2025-02-12_14h32.16.314,posner_endo_new1,2024.2.4,60.041020024438566,2025-02-12 14h32.24.064470 +0000,
cube_r.png,0.1,0.31,valid,6,6,0,up,4.054235799994785,None,space,0.3614475000067614,None,,,,,,,,,0,6,6,6,474.3314334000024,,,,,,,,,,,,,474.31616820000636,474.3314334000024,474.3314334000024,474.3314334000024,478.39502330000687,,,,478.404672500008,478.414952200008,478.414952200008,478.4606693000096,478.46098500001244,478.47724920000474,478.47724920000474,478.47724920000474,478.56038350000745,478.84459340000467,,,,,,,,,,,,,,,,,,,,,,up,4.054235799994785,None,space,0.3614475000067614,None,P102,001,2025-02-12_14h32.16.314,posner_endo_new1,2024.2.4,60.041020024438566,2025-02-12 14h32.24.064470 +0000,
cube_r.png,0.1,-0.31,invalid,7,7,0,up,4.060761600005208,None,space,0.4421707999863429,None,,,,,,,,,0,7,7,7,478.8602455000073,,,,,,,,,,,,,478.84486480000487,478.8602455000073,478.8602455000073,478.8602455000073,482.92370550001215,,,,482.93318830001226,482.94359370000893,482.94359370000893,482.98942770001304,482.98974680001265,483.0057913000055,483.0057913000055,483.0057913000055,483.0892653000046,483.4567481000122,,,,,,,,,,,,,,,,,,,,,,up,4.060761600005208,None,space,0.4421707999863429,None,P102,001,2025-02-12_14h32.16.314,posner_endo_new1,2024.2.4,60.041020024438566,2025-02-12 14h32.24.064470 +0000,
cube_l.png,0.1,-0.31,valid,8,8,0,up,4.585675899987109,None,space,0.42044410000380594,None,,,,,,,,,0,8,8,8,483.47222810001404,,,,,,,,,,,,,483.45702100000926,483.47222810001404,483.47222810001404,483.47222810001404,488.0684573000035,,,,488.0779695000092,488.0882117000001,488.0882117000001,488.1341296000028,488.1344473000063,488.1505912000139,488.1505912000139,488.1505912000139,488.23380280000856,488.58467210001254,,,,,,,,,,,,,,,,,,,,,,up,4.585675899987109,None,space,0.42044410000380594,None,P102,001,2025-02-12_14h32.16.314,posner_endo_new1,2024.2.4,60.041020024438566,2025-02-12 14h32.24.064470 +0000,
cube_r.png,0.1,-0.31,invalid,9,9,0,up,3.9132222999905935,None,space,0.42978960000618827,None,,,,,,,,,0,9,9,9,488.6002495000139,,,,,,,,,,,,,488.5849513000139,488.6002495000139,488.6002495000139,488.6002495000139,492.53041660001327,,,,492.5399337000126,492.54998200001137,492.54998200001137,492.59627180000825,492.5965952000115,492.6127600000036,492.6127600000036,492.6127600000036,492.69603430001007,493.04676250000193,,,,,,,,,,,,,,,,,,,,,,up,3.9132222999905935,None,space,0.42978960000618827,None,P102,001,2025-02-12_14h32.16.314,posner_endo_new1,2024.2.4,60.041020024438566,2025-02-12 14h32.24.064470 +0000,
cube_l.png,0.1,0.31,invalid,10,10,0,up,4.323169299997971,None,space,0.42493850000028033,None,,,,,,,,,0,10,10,10,493.0622327000019,,,,,,,,,,,,,493.0470287000062,493.0622327000019,493.0622327000019,493.0622327000019,497.3923896000051,,,,497.401981300005,497.41220960000646,497.41220960000646,497.4580062000023,497.45832930000324,497.47440190000634,497.47440190000634,497.47440190000634,497.5576827000041,497.9084217000054,,,,,,,,,,,,,,,,,,,,,,up,4.323169299997971,None,space,0.42493850000028033,None,P102,001,2025-02-12_14h32.16.314,posner_endo_new1,2024.2.4,60.041020024438566,2025-02-12 14h32.24.064470 +0000,
cube_r.png,0.1,-0.31,invalid,11,11,0,up,4.684942299994873,None,space,0.45822169999883045,None,,,,,,,,,0,11,11,11,497.9240184000082,,,,,,,,,,,,,497.90868500000215,497.9240184000082,497.9240184000082,497.9240184000082,502.6203048000025,,,,502.62973590000183,502.6398940000072,502.6398940000072,502.6859051000065,502.68622210000467,502.70246180001413,502.70246180001413,502.70246180001413,502.7856510000129,503.16975939999975,,,,,,,,,,,,,,,,,,,,,,up,4.684942299994873,None,space,0.45822169999883045,None,P102,001,2025-02-12_14h32.16.314,posner_endo_new1,2024.2.4,60.041020024438566,2025-02-12 14h32.24.064470 +0000,
cube_r.png,0.1,0.31,valid,12,12,0,up,4.48012700000254,None,space,0.3783948999916902,None,,,,,,,,,0,12,12,12,503.1853062000009,,,,,,,,,,,,,503.1700251000002,503.1853062000009,503.1853062000009,503.1853062000009,507.6818207000033,,,,507.69141390000004,507.70170560000406,507.70170560000406,507.74731020000763,507.7476322000002,507.76398580000387,507.76398580000387,507.76398580000387,507.84711800000514,508.1481430000131,,,,,,,,,,,,,,,,,,,,,,up,4.48012700000254,None,space,0.3783948999916902,None,P102,001,2025-02-12_14h32.16.314,posner_endo_new1,2024.2.4,60.041020024438566,2025-02-12 14h32.24.064470 +0000,
cube_l.png,0.1,10,catch,13,13,0,up,4.534062500009895,None,None,,,,,,,,,,,0,13,13,13,508.16360640000494,,,,,,,,,,,,,508.1484111000027,508.16360640000494,508.16360640000494,508.16360640000494,512.7100192000071,,,,512.7195169000042,512.7299224000017,512.7299224000017,512.7756590000063,512.7759757000022,512.7920832000091,512.7920832000091,512.7920832000091,512.8753201000072,515.7898077000136,,,,514.8900357000093,515.8056438000058,515.8056438000058,515.8056438000058,,,,,,,,,,,,,,,up,4.534062500009895,None,None,,,P102,001,2025-02-12_14h32.16.314,posner_endo_new1,2024.2.4,60.041020024438566,2025-02-12 14h32.24.064470 +0000,
cube_r.png,0.1,-0.31,invalid,14,14,0,up,2.579719000001205,None,space,0.5625517000007676,None,,,,,,,,,0,14,14,14,515.8056438000058,,,,,,,,,,,,,515.7900548000034,515.8056438000058,515.8056438000058,515.8056438000058,518.3875421000121,,,,518.3958762000111,518.4059041,518.4059041,518.4530522000132,518.4532870000112,518.4696027000027,518.4696027000027,518.4696027000027,518.5527985000081,519.036720700009,,,,,,,,,,,,,,,,,,,,,,up,2.579719000001205,None,space,0.5625517000007676,None,P102,001,2025-02-12_14h32.16.314,posner_endo_new1,2024.2.4,60.041020024438566,2025-02-12 14h32.24.064470 +0000,
cube_l.png,0.1,-0.31,valid,15,15,0,up,10.444560500007356,None,space,0.39433890000509564,None,,,,,,,,,0,15,15,15,519.0523448000022,,,,,,,,,,,,,519.036903500004,519.0523448000022,519.0523448000022,519.0523448000022,529.5091436000075,,,,529.5155497000087,529.5271778000024,529.5271778000024,529.5751106000098,529.5753511000075,529.5917132000031,529.5917132000031,529.5917132000031,529.6749137000006,529.9918556000048,,,,,,,,,,,,,,,,,,,,,,up,10.444560500007356,None,space,0.39433890000509564,None,P102,001,2025-02-12_14h32.16.314,posner_endo_new1,2024.2.4,60.041020024438566,2025-02-12 14h32.24.064470 +0000,
cube_r.png,0.1,10,catch,16,16,0,up,4.641618900001049,None,None,,,,,,,,,,,0,16,16,16,530.0077616000053,,,,,,,,,,,,,529.992044300001,530.0077616000053,530.0077616000053,530.0077616000053,534.6539149000018,,,,534.6602845000016,534.6718388000008,534.6718388000008,534.7199874000071,534.7202308000124,534.7362518000009,534.7362518000009,534.7362518000009,534.8195900000137,537.7337191000115,,,,536.8341688000073,537.7500448000064,537.7500448000064,537.7500448000064,,,,,,,,,,,,,,,up,4.641618900001049,None,None,,,P102,001,2025-02-12_14h32.16.314,posner_endo_new1,2024.2.4,60.041020024438566,2025-02-12 14h32.24.064470 +0000,
cube_r.png,0.1,10,catch,17,17,0,up,1.9068516999977874,None,None,,,,,,,,,,,0,17,17,17,537.7500448000064,,,,,,,,,,,,,537.7339122000121,537.7500448000064,537.7500448000064,537.7500448000064,539.665479000003,,,,539.671493700007,539.6829169000121,539.6829169000121,539.7314130000013,539.7316506000061,539.747735500001,539.747735500001,539.747735500001,539.8144071000133,542.7453666000074,,,,541.8290903000016,542.7614973000018,542.7614973000018,542.7614973000018,,,,,,,,,,,,,,,up,1.9068516999977874,None,None,,,P102,001,2025-02-12_14h32.16.314,posner_endo_new1,2024.2.4,60.041020024438566,2025-02-12 14h32.24.064470 +0000,
cube_l.png,0.1,0.31,invalid,18,18,0,up,2.0641275999951176,None,space,0.4980082999973092,None,,,,,,,,,0,18,18,18,542.7614973000018,,,,,,,,,,,,,542.7455434000003,542.7614973000018,542.7614973000018,542.7614973000018,544.8270344000048,,,,544.8329317000025,544.8446504000021,544.8446504000021,544.8926172000065,544.8928494000138,544.9092999000131,544.9092999000131,544.9092999000131,544.992542500011,545.4095450000023,,,,,,,,,,,,,,,,,,,,,,up,2.0641275999951176,None,space,0.4980082999973092,None,P102,001,2025-02-12_14h32.16.314,posner_endo_new1,2024.2.4,60.041020024438566,2025-02-12 14h32.24.064470 +0000,
cube_l.png,0.1,10,catch,19,19,0,up,4.695929399997112,None,None,,,,,,,,,,,0,19,19,19,545.4253463000059,,,,,,,,,,,,,545.4097269000049,545.4253463000059,545.4253463000059,545.4253463000059,550.1380386000092,,,,550.1442045000003,550.1554572000023,550.1554572000023,550.203889700002,550.2041263000137,550.2204004000087,550.2204004000087,550.2204004000087,550.2870209000102,553.2178870000062,,,,552.3015309000039,553.2340743000095,553.2340743000095,553.2340743000095,,,,,,,,,,,,,,,up,4.695929399997112,None,None,,,P102,001,2025-02-12_14h32.16.314,posner_endo_new1,2024.2.4,60.041020024438566,2025-02-12 14h32.24.064470 +0000,
cube_l.png,0.1,0.31,invalid,20,20,0,up,1.7276576000003843,None,space,0.44621429999824613,None,,,,,,,,,0,20,20,20,553.2340743000095,,,,,,,,,,,,,553.2180596000107,553.2340743000095,553.2340743000095,553.2340743000095,554.9665194000117,,,,554.9725100000069,554.9840419000102,554.9840419000102,555.032329300011,555.0325656000059,555.048747000008,555.048747000008,555.048747000008,555.1320632000134,555.4991002000024,,,,,,,,,,,,,,,,,,,,,,up,1.7276576000003843,None,space,0.44621429999824613,None,P102,001,2025-02-12_14h32.16.314,posner_endo_new1,2024.2.4,60.041020024438566,2025-02-12 14h32.24.064470 +0000,
cube_l.png,0.1,-0.31,valid,21,21,0,up,4.023271700003534,None,space,0.48786949999339413,None,,,,,,,,,0,21,21,21,555.5151635000075,,,,,,,,,,,,,555.4992915000039,555.5151635000075,555.5151635000075,555.5151635000075,559.5452259000012,,,,559.5511723000091,559.5626559000084,559.5626559000084,559.6108976000105,559.6111339000054,559.627493500011,559.627493500011,559.627493500011,559.7106963000115,560.1277215000009,,,,,,,,,,,,,,,,,,,,,,up,4.023271700003534,None,space,0.48786949999339413,None,P102,001,2025-02-12_14h32.16.314,posner_endo_new1,2024.2.4,60.041020024438566,2025-02-12 14h32.24.064470 +0000,
cube_r.png,0.1,0.31,valid,22,22,0,up,4.545294600000489,None,space,0.4690466000029119,None,,,,,,,,,0,22,22,22,560.143599700008,,,,,,,,,,,,,560.1279076000064,560.143599700008,560.143599700008,560.143599700008,564.6899126000062,,,,564.6959776000003,564.7075736000115,564.7075736000115,564.7555450000073,564.755779500003,564.7722313000122,564.7722313000122,564.7722313000122,564.8391486000037,565.256063000008,,,,,,,,,,,,,,,,,,,,,,up,4.545294600000489,None,space,0.4690466000029119,None,P102,001,2025-02-12_14h32.16.314,posner_endo_new1,2024.2.4,60.041020024438566,2025-02-12 14h32.24.064470 +0000,
cube_r.png,0.1,-0.31,invalid,23,23,0,up,4.033715699988534,None,space,0.4502910000010161,None,,,,,,,,,0,23,23,23,565.2717498000129,,,,,,,,,,,,,565.2562499000051,565.2717498000129,565.2717498000129,565.2717498000129,569.3183710000012,,,,569.324452300003,569.3361181000073,569.3361181000073,569.384358100011,569.3846075000038,569.4009153000079,569.4009153000079,569.4009153000079,569.4674884000124,569.8679346999998,,,,,,,,,,,,,,,,,,,,,,up,4.033715699988534,None,space,0.4502910000010161,None,P102,001,2025-02-12_14h32.16.314,posner_endo_new1,2024.2.4,60.041020024438566,2025-02-12 14h32.24.064470 +0000,
cube_r.png,0.1,0.31,valid,24,24,0,up,3.813947900009225,None,space,0.39942319999681786,None,,,,,,,,,0,24,24,24,569.8835764000105,,,,,,,,,,,,,569.8681230000075,569.8835764000105,569.8835764000105,569.8835764000105,573.7137340000045,,,,573.7196690000128,573.7312350000138,573.7312350000138,573.7797427000041,573.7799771000136,573.7964634000091,573.7964634000091,573.7964634000091,573.8627856000094,574.196826000014,,,,,,,,,,,,,,,,,,,,,,up,3.813947900009225,None,space,0.39942319999681786,None,P102,001,2025-02-12_14h32.16.314,posner_endo_new1,2024.2.4,60.041020024438566,2025-02-12 14h32.24.064470 +0000,
cube_r.png,0.1,-0.31,invalid,25,25,0,up,3.6284070999972755,None,space,0.3920510999887483,None,,,,,,,,,0,25,25,25,574.2127563000104,,,,,,,,,,,,,574.1970149000117,574.2127563000104,574.2127563000104,574.2127563000104,577.8431263000093,,,,577.8490859000012,577.8607105000119,577.8607105000119,577.9089122000005,577.909149500003,577.9253850000096,577.9253850000096,577.9253850000096,577.9920716000051,578.3255806000088,,,,,,,,,,,,,,,,,,,,,,up,3.6284070999972755,None,space,0.3920510999887483,None,P102,001,2025-02-12_14h32.16.314,posner_endo_new1,2024.2.4,60.041020024438566,2025-02-12 14h32.24.064470 +0000,
cube_l.png,0.1,-0.31,valid,26,26,0,up,5.051150100000086,None,space,0.4616439000092214,None,,,,,,,,,0,26,26,26,578.3417377000005,,,,,,,,,,,,,578.3257655000052,578.3417377000005,578.3417377000005,578.3417377000005,583.4040057000093,,,,583.4100143000105,583.421456400014,583.421456400014,583.4699631000112,583.4702002000122,583.4863810000097,583.4863810000097,583.4863810000097,583.5529151000082,583.9535986000119,,,,,,,,,,,,,,,,,,,,,,up,5.051150100000086,None,space,0.4616439000092214,None,P102,001,2025-02-12_14h32.16.314,posner_endo_new1,2024.2.4,60.041020024438566,2025-02-12 14h32.24.064470 +0000,
cube_r.png,0.1,0.31,valid,27,27,0,up,4.551941800003988,None,space,0.4173624999966705,None,,,,,,,,,0,27,27,27,583.9693598000013,,,,,,,,,,,,,583.9537916000118,583.9693598000013,583.9693598000013,583.9693598000013,588.5321220000042,,,,588.5383227000129,588.5499103000038,588.5499103000038,588.5980337000074,588.5982826000109,588.614465000006,588.614465000006,588.614465000006,588.6976536000002,589.0481601000065,,,,,,,,,,,,,,,,,,,,,,up,4.551941800003988,None,space,0.4173624999966705,None,P102,001,2025-02-12_14h32.16.314,posner_endo_new1,2024.2.4,60.041020024438566,2025-02-12 14h32.24.064470 +0000,
cube_r.png,0.1,10,catch,28,28,0,up,4.784981999997399,None,None,,,,,,,,,,,0,28,28,28,589.0641121000081,,,,,,,,,,,,,589.0483440000098,589.0641121000081,589.0641121000081,589.0641121000081,593.8598801000044,,,,593.8658452000091,593.8773032000026,593.8773032000026,593.9260102000117,593.9262558000046,593.9424534000136,593.9424534000136,593.9424534000136,594.0089537000022,596.9398910000018,,,,596.0236323000136,596.9560178000102,596.9560178000102,596.9560178000102,,,,,,,,,,,,,,,up,4.784981999997399,None,None,,,P102,001,2025-02-12_14h32.16.314,posner_endo_new1,2024.2.4,60.041020024438566,2025-02-12 14h32.24.064470 +0000,
cube_r.png,0.1,0.31,valid,29,29,0,up,1.829039800009923,None,space,0.49015159999544267,None,,,,,,,,,0,29,29,29,596.9560178000102,,,,,,,,,,,,,596.9400620000088,596.9560178000102,596.9560178000102,596.9560178000102,598.7880820999999,,,,598.7940305000084,598.8055067000096,598.8055067000096,598.8542173000023,598.8544597,598.8707078000007,598.8707078000007,598.8707078000007,598.9372754000069,599.370794100003,,,,,,,,,,,,,,,,,,,,,,up,1.829039800009923,None,space,0.49015159999544267,None,P102,001,2025-02-12_14h32.16.314,posner_endo_new1,2024.2.4,60.041020024438566,2025-02-12 14h32.24.064470 +0000,
cube_r.png,0.1,0.31,valid,30,30,0,up,4.406692699994892,None,space,0.43367359999683686,None,,,,,,,,,0,30,30,30,599.3868944000133,,,,,,,,,,,,,599.3709879000089,599.3868944000133,599.3868944000133,599.3868944000133,603.7996631000133,,,,603.8087604000029,603.8199391000089,603.8199391000089,603.8657864000124,603.8662932000007,603.8821588000137,603.8821588000137,603.8821588000137,603.9487729000102,604.3333464000025,,,,,,,,,,,,,,,,,,,,,,up,4.406692699994892,None,space,0.43367359999683686,None,P102,001,2025-02-12_14h32.16.314,posner_endo_new1,2024.2.4,60.041020024438566,2025-02-12 14h32.24.064470 +0000,
cube_l.png,0.1,-0.31,valid,31,31,0,up,4.52500819999841,None,space,0.45268070000747684,None,,,,,,,,,0,31,31,31,604.3483643000072,,,,,,,,,,,,,604.3338026000129,604.3483643000072,604.3483643000072,604.3483643000072,608.8784492000123,,,,608.8898547999997,608.900289600002,608.900289600002,608.9439295000047,608.9442938000138,608.960386900013,608.960386900013,608.960386900013,609.0436459000048,609.4277678000071,,,,,,,,,,,,,,,,,,,,,,up,4.52500819999841,None,space,0.45268070000747684,None,P102,001,2025-02-12_14h32.16.314,posner_endo_new1,2024.2.4,60.041020024438566,2025-02-12 14h32.24.064470 +0000,
cube_r.png,0.1,0.31,valid,32,32,0,up,4.173553799992078,None,space,0.4159444000106305,None,,,,,,,,,0,32,32,32,609.4432603000023,,,,,,,,,,,,,609.4280803000001,609.4432603000023,609.4432603000023,609.4432603000023,613.6234756000049,,,,613.6346825000073,613.6450545000116,613.6450545000116,613.6891473000142,613.6895043000113,613.7056033000117,613.7056033000117,613.7056033000117,613.7887807000079,614.1228120000014,,,,,,,,,,,,,,,,,,,,,,up,4.173553799992078,None,space,0.4159444000106305,None,P102,001,2025-02-12_14h32.16.314,posner_endo_new1,2024.2.4,60.041020024438566,2025-02-12 14h32.24.064470 +0000,
cube_r.png,0.1,-0.31,invalid,33,33,0,up,4.998942699996405,None,space,0.4267366999993101,None,,,,,,,,,0,33,33,33,614.1383866000106,,,,,,,,,,,,,614.1230318000016,614.1383866000106,614.1383866000106,614.1383866000106,619.1508672000055,,,,619.1581409000064,619.1697727000137,619.1697727000137,619.2166263000108,619.2168885000137,619.2332775000104,619.2332775000104,619.2332775000104,619.3164999,619.6670180000074,,,,,,,,,,,,,,,,,,,,,,up,4.998942699996405,None,space,0.4267366999993101,None,P102,001,2025-02-12_14h32.16.314,posner_endo_new1,2024.2.4,60.041020024438566,2025-02-12 14h32.24.064470 +0000,
cube_r.png,0.1,10,catch,34,34,0,up,5.27060530000017,None,None,,,,,,,,,,,0,34,34,34,619.6827008000109,,,,,,,,,,,,,619.6672255000012,619.6827008000109,619.6827008000109,619.6827008000109,624.961604600001,,,,624.968900900014,624.9919479000091,624.9919479000091,625.027419200007,625.027685500012,625.044003700008,625.044003700008,625.044003700008,625.1271330000018,628.0413800000097,,,,627.1418485000031,628.0575908000028,628.0575908000028,628.0575908000028,,,,,,,,,,,,,,,up,5.27060530000017,None,None,,,P102,001,2025-02-12_14h32.16.314,posner_endo_new1,2024.2.4,60.041020024438566,2025-02-12 14h32.24.064470 +0000,
cube_r.png,0.1,0.31,valid,35,35,0,up,2.4635306999989552,None,space,0.4165093000046909,None,,,,,,,,,0,35,35,35,628.0575908000028,,,,,,,,,,,,,628.0415765000071,628.0575908000028,628.0575908000028,628.0575908000028,630.5227779000124,,,,630.530170900005,630.5413033000077,630.5413033000077,630.5886711000057,630.588929000005,630.6049214000086,630.6049214000086,630.6049214000086,630.688132100011,631.0223365000129,,,,,,,,,,,,,,,,,,,,,,up,2.4635306999989552,None,space,0.4165093000046909,None,P102,001,2025-02-12_14h32.16.314,posner_endo_new1,2024.2.4,60.041020024438566,2025-02-12 14h32.24.064470 +0000,
cube_r.png,0.1,-0.31,invalid,36,36,0,up,5.083762599999318,None,space,0.4691861999890534,None,,,,,,,,,0,36,36,36,631.0377323000139,,,,,,,,,,,,,631.02255590001,631.0377323000139,631.0377323000139,631.0377323000139,636.1333232000034,,,,636.1406268000137,636.152428100002,636.152428100002,636.199294200007,636.1995688000025,636.2158490000002,636.2158490000002,636.2158490000002,636.282441000003,636.6996045000124,,,,,,,,,,,,,,,,,,,,,,up,5.083762599999318,None,space,0.4691861999890534,None,P102,001,2025-02-12_14h32.16.314,posner_endo_new1,2024.2.4,60.041020024438566,2025-02-12 14h32.24.064470 +0000,
cube_l.png,0.1,0.31,invalid,37,37,0,up,4.86271860000852,None,space,0.40951189999759663,None,,,,,,,,,0,37,37,37,636.715365600001,,,,,,,,,,,,,636.6998135000031,636.715365600001,636.715365600001,636.715365600001,641.594591000001,,,,641.6018146000133,641.6133257000038,641.6133257000038,641.6604658000142,641.6607283000048,641.67673620001,641.67673620001,641.67673620001,641.7600929000037,642.0940747000132,,,,,,,,,,,,,,,,,,,,,,up,4.86271860000852,None,space,0.40951189999759663,None,P102,001,2025-02-12_14h32.16.314,posner_endo_new1,2024.2.4,60.041020024438566,2025-02-12 14h32.24.064470 +0000,
cube_l.png,0.1,0.31,invalid,38,38,0,up,5.012048699994921,None,space,0.41981760000635404,None,,,,,,,,,0,38,38,38,642.1097452000104,,,,,,,,,,,,,642.0942860000068,642.1097452000104,642.1097452000104,642.1097452000104,647.1387901000126,,,,647.1460637000127,647.1574570000084,647.1574570000084,647.2046630000114,647.2049319000071,647.2211142000015,647.2211142000015,647.2211142000015,647.2877814000094,647.6548911000136,,,,,,,,,,,,,,,,,,,,,,up,5.012048699994921,None,space,0.41981760000635404,None,P102,001,2025-02-12_14h32.16.314,posner_endo_new1,2024.2.4,60.041020024438566,2025-02-12 14h32.24.064470 +0000,
cube_r.png,0.1,0.31,valid,39,39,0,up,4.8665807000070345,None,space,0.4242928000021493,None,,,,,,,,,0,39,39,39,647.670815800011,,,,,,,,,,,,,647.6551059000049,647.670815800011,647.670815800011,647.670815800011,652.5499726000126,,,,652.557292100013,652.5688149000052,652.5688149000052,652.615848100002,652.6161093000119,652.6323220000049,652.6323220000049,652.6323220000049,652.715881000011,653.0664251000126,,,,,,,,,,,,,,,,,,,,,,up,4.8665807000070345,None,space,0.4242928000021493,None,P102,001,2025-02-12_14h32.16.314,posner_endo_new1,2024.2.4,60.041020024438566,2025-02-12 14h32.24.064470 +0000,
cube_l.png,0.1,0.31,invalid,40,40,0,up,5.663747600003262,None,space,0.47385120000399183,None,,,,,,,,,0,40,40,40,653.0818671000015,,,,,,,,,,,,,653.0666362000047,653.0818671000015,653.0818671000015,653.0818671000015,658.7603844000114,,,,658.7676949000015,658.790557100001,658.790557100001,658.826204500001,658.8264631000056,658.842733100013,658.842733100013,658.842733100013,658.925974400001,659.3264227000036,,,,,,,,,,,,,,,,,,,,,,up,5.663747600003262,None,space,0.47385120000399183,None,P102,001,2025-02-12_14h32.16.314,posner_endo_new1,2024.2.4,60.041020024438566,2025-02-12 14h32.24.064470 +0000,
cube_l.png,0.1,10,catch,41,41,0,up,4.546808699989924,None,None,,,,,,,,,,,0,41,41,41,659.3421671000106,,,,,,,,,,,,,659.3266334000073,659.3421671000106,659.3421671000106,659.3421671000106,663.9051302000007,,,,663.9123961000005,663.9237889000069,663.9237889000069,663.9709102000052,663.9711827000137,663.9874372000049,663.9874372000049,663.9874372000049,664.0706802000059,666.985010000004,,,,666.0852573000011,667.0009755000065,667.0009755000065,667.0009755000065,,,,,,,,,,,,,,,up,4.546808699989924,None,None,,,P102,001,2025-02-12_14h32.16.314,posner_endo_new1,2024.2.4,60.041020024438566,2025-02-12 14h32.24.064470 +0000,
cube_l.png,0.1,-0.31,valid,42,42,0,up,2.103837900009239,None,space,0.4516144999943208,None,,,,,,,,,0,42,42,42,667.0009755000065,,,,,,,,,,,,,666.9852053000068,667.0009755000065,667.0009755000065,667.0009755000065,669.1164167000097,,,,669.1238044000056,669.135185200008,669.135185200008,669.1822975000105,669.1825567000051,669.1988648000115,669.1988648000115,669.1988648000115,669.2819749000046,669.6658335000102,,,,,,,,,,,,,,,,,,,,,,up,2.103837900009239,None,space,0.4516144999943208,None,P102,001,2025-02-12_14h32.16.314,posner_endo_new1,2024.2.4,60.041020024438566,2025-02-12 14h32.24.064470 +0000,
cube_l.png,0.1,10,catch,43,43,0,up,4.087540299995453,None,None,,,,,,,,,,,0,43,43,43,669.6815574000066,,,,,,,,,,,,,669.6660480999999,669.6815574000066,669.6815574000066,669.6815574000066,673.7782850000076,,,,673.7856509000121,673.8086988000141,673.8086988000141,673.8442181999999,673.8444815000112,673.8607511000009,673.8607511000009,673.8607511000009,673.943860600004,676.8581622000056,,,,675.9585320000042,676.8743107000046,676.8743107000046,676.8743107000046,,,,,,,,,,,,,,,up,4.087540299995453,None,None,,,P102,001,2025-02-12_14h32.16.314,posner_endo_new1,2024.2.4,60.041020024438566,2025-02-12 14h32.24.064470 +0000,
cube_l.png,0.1,0.31,invalid,44,44,0,up,1.303174200002104,None,space,0.42698469999595545,None,,,,,,,,,0,44,44,44,676.8743107000046,,,,,,,,,,,,,676.8583583,676.8743107000046,676.8743107000046,676.8743107000046,678.1905046000029,,,,678.1977654000075,678.2092109000077,678.2092109000077,678.2561390000046,678.2563951000047,678.2727472000115,678.2727472000115,678.2727472000115,678.3396427000116,678.7065156000026,,,,,,,,,,,,,,,,,,,,,,up,1.303174200002104,None,space,0.42698469999595545,None,P102,001,2025-02-12_14h32.16.314,posner_endo_new1,2024.2.4,60.041020024438566,2025-02-12 14h32.24.064470 +0000,
cube_l.png,0.1,0.31,invalid,45,45,0,up,4.775019099994097,None,space,0.4012825999961933,None,,,,,,,,,0,45,45,45,678.7220446000138,,,,,,,,,,,,,678.7067285000085,678.7220446000138,678.7220446000138,678.7220446000138,683.5016538000054,,,,683.5080826000049,683.5196561000048,683.5196561000048,683.567598300011,683.567841400014,683.5839037000114,683.5839037000114,683.5839037000114,683.6674106000137,684.0010586999997,,,,,,,,,,,,,,,,,,,,,,up,4.775019099994097,None,space,0.4012825999961933,None,P102,001,2025-02-12_14h32.16.314,posner_endo_new1,2024.2.4,60.041020024438566,2025-02-12 14h32.24.064470 +0000,
cube_r.png,0.1,0.31,valid,46,46,0,up,4.665007899995544,None,space,0.4137162000115495,None,,,,,,,,,0,46,46,46,684.0169866000069,,,,,,,,,,,,,684.0012417000107,684.0169866000069,684.0169866000069,684.0169866000069,688.6961209000001,,,,688.7027605000039,688.7143172000069,688.7143172000069,688.7620860000025,688.7623289000039,688.7787917000096,688.7787917000096,688.7787917000096,688.8452366000129,689.195807600001,,,,,,,,,,,,,,,,,,,,,,up,4.665007899995544,None,space,0.4137162000115495,None,P102,001,2025-02-12_14h32.16.314,posner_endo_new1,2024.2.4,60.041020024438566,2025-02-12 14h32.24.064470 +0000,
cube_l.png,0.1,-0.31,valid,47,47,0,up,5.614409400004661,None,space,0.38688430000911467,None,,,,,,,,,0,47,47,47,689.2116786000115,,,,,,,,,,,,,689.1959961000102,689.2116786000115,689.2116786000115,689.2116786000115,694.8403410000028,,,,694.8468364,694.8586738000013,694.8586738000013,694.905911400012,694.906149500006,694.9223597000091,694.9223597000091,694.9223597000091,695.0056735000107,695.3227121000091,,,,,,,,,,,,,,,,,,,,,,up,5.614409400004661,None,space,0.38688430000911467,None,P102,001,2025-02-12_14h32.16.314,posner_endo_new1,2024.2.4,60.041020024438566,2025-02-12 14h32.24.064470 +0000,
cube_r.png,0.1,-0.31,invalid,48,48,0,up,5.022396300002583,None,space,0.3719779000093695,None,,,,,,,,,0,48,48,48,695.3391082000016,,,,,,,,,,,,,695.3228994000092,695.3391082000016,695.3391082000016,695.3391082000016,700.3676703000092,,,,700.3745382000052,700.3863060000003,700.3863060000003,700.4335006000038,700.4337396000046,700.4502211000072,700.4502211000072,700.4502211000072,700.5168484000023,700.8339438000112,,,,,,,,,,,,,,,,,,,,,,up,5.022396300002583,None,space,0.3719779000093695,None,P102,001,2025-02-12_14h32.16.314,posner_endo_new1,2024.2.4,60.041020024438566,2025-02-12 14h32.24.064470 +0000,
cube_r.png,0.1,10,catch,49,49,0,up,4.927795600000536,None,None,,,,,,,,,,,0,49,49,49,700.8498726000107,,,,,,,,,,,,,700.8341297000006,700.8498726000107,700.8498726000107,700.8498726000107,705.779223000005,,,,705.7887754000112,705.798929800003,705.798929800003,705.8446789000009,705.844980400012,705.8612139000033,705.8612139000033,705.8612139000033,705.9445552000107,708.8587936000113,,,,707.9591696000134,708.8748403000063,708.8748403000063,708.8748403000063,,,,,,,,,,,,,,,up,4.927795600000536,None,None,,,P102,001,2025-02-12_14h32.16.314,posner_endo_new1,2024.2.4,60.041020024438566,2025-02-12 14h32.24.064470 +0000,
cube_l.png,0.1,-0.31,valid,50,50,0,up,1.2064253999997163,None,space,0.4845409999979893,None,,,,,,,,,0,50,50,50,708.8748403000063,,,,,,,,,,,,,708.859022900011,708.8748403000063,708.8748403000063,708.8748403000063,710.09123060001,,,,710.1005678000074,710.110797100002,710.110797100002,710.1570325000066,710.1573344000062,710.1736917000089,710.1736917000089,710.1736917000089,710.2568453000131,710.6741230000043,,,,,,,,,,,,,,,,,,,,,,up,1.2064253999997163,None,space,0.4845409999979893,None,P102,001,2025-02-12_14h32.16.314,posner_endo_new1,2024.2.4,60.041020024438566,2025-02-12 14h32.24.064470 +0000,
cube_l.png,0.1,-0.31,valid,51,51,0,up,3.8159548999974504,None,space,0.4821446999994805,None,,,,,,,,,0,51,51,51,710.6896637000027,,,,,,,,,,,,,710.674371400004,710.6896637000027,710.6896637000027,710.6896637000027,714.5200689000048,,,,714.5292030000128,714.5393356000131,714.5393356000131,714.5857138000138,714.5860100999998,714.6023331000033,714.6023331000033,714.6023331000033,714.6855058000074,715.0862952000025,,,,,,,,,,,,,,,,,,,,,,up,3.8159548999974504,None,space,0.4821446999994805,None,P102,001,2025-02-12_14h32.16.314,posner_endo_new1,2024.2.4,60.041020024438566,2025-02-12 14h32.24.064470 +0000,
cube_r.png,0.1,-0.31,invalid,52,52,0,up,5.276543700005277,None,space,0.4006660000013653,None,,,,,,,,,0,52,52,52,715.1018768000067,,,,,,,,,,,,,715.0865432999999,715.1018768000067,715.1018768000067,715.1018768000067,720.3808550000103,,,,720.3898743000027,720.4000860000087,720.4000860000087,720.446325900004,720.4466404000123,720.4629979000019,720.4629979000019,720.4629979000019,720.5463235000061,720.8801249000098,,,,,,,,,,,,,,,,,,,,,,up,5.276543700005277,None,space,0.4006660000013653,None,P102,001,2025-02-12_14h32.16.314,posner_endo_new1,2024.2.4,60.041020024438566,2025-02-12 14h32.24.064470 +0000,
cube_l.png,0.1,-0.31,valid,53,53,0,up,5.025549300000421,None,space,0.5375371999980416,None,,,,,,,,,0,53,53,53,720.8959692000062,,,,,,,,,,,,,720.8803740000003,720.8959692000062,720.8959692000062,720.8959692000062,725.9251648000063,,,,725.934258600013,725.944198600002,725.944198600002,725.9909390000103,725.9911807000026,726.0071992000012,726.0071992000012,726.0071992000012,726.0906300000061,726.5575771000003,,,,,,,,,,,,,,,,,,,,,,up,5.025549300000421,None,space,0.5375371999980416,None,P102,001,2025-02-12_14h32.16.314,posner_endo_new1,2024.2.4,60.041020024438566,2025-02-12 14h32.24.064470 +0000,
cube_r.png,0.1,10,catch,54,54,0,up,4.028172800011816,None,None,,,,,,,,,,,0,54,54,54,726.5734659000009,,,,,,,,,,,,,726.5577610000037,726.5734659000009,726.5734659000009,726.5734659000009,730.603543300007,,,,730.6097616000043,730.6212054000061,730.6212054000061,730.6693996000104,730.6696370000136,730.6859619000024,730.6859619000024,730.6859619000024,730.7690503000049,733.6835311000032,,,,732.7838312000094,733.6993399000057,733.6993399000057,733.6993399000057,,,,,,,,,,,,,,,up,4.028172800011816,None,None,,,P102,001,2025-02-12_14h32.16.314,posner_endo_new1,2024.2.4,60.041020024438566,2025-02-12 14h32.24.064470 +0000,
cube_l.png,0.1,0.31,invalid,55,55,0,up,0.7101158000004943,None,space,0.46534239999891724,None,,,,,,,,,0,55,55,55,733.6993399000057,,,,,,,,,,,,,733.6837054000061,733.6993399000057,733.6993399000057,733.6993399000057,734.4160757000063,,,,734.42223560001,734.4340616000118,734.4340616000118,734.4820111000008,734.4822447000042,734.4988103000069,734.4988103000069,734.4988103000069,734.565128000002,734.9657656000054,,,,,,,,,,,,,,,,,,,,,,up,0.7101158000004943,None,space,0.46534239999891724,None,P102,001,2025-02-12_14h32.16.314,posner_endo_new1,2024.2.4,60.041020024438566,2025-02-12 14h32.24.064470 +0000,
cube_l.png,0.1,-0.31,valid,56,56,0,up,4.332295900007011,None,space,0.40359069999249186,None,,,,,,,,,0,56,56,56,734.9816392000066,,,,,,,,,,,,,734.9659496000095,734.9816392000066,734.9816392000066,734.9816392000066,739.3277595000109,,,,739.3342499999999,739.3461297000031,739.3461297000031,739.3937771000055,739.3940147000103,739.4101888000005,739.4101888000005,739.4101888000005,739.4935200000036,739.8273827000085,,,,,,,,,,,,,,,,,,,,,,up,4.332295900007011,None,space,0.40359069999249186,None,P102,001,2025-02-12_14h32.16.314,posner_endo_new1,2024.2.4,60.041020024438566,2025-02-12 14h32.24.064470 +0000,
cube_r.png,0.1,0.31,valid,57,57,0,up,3.76625219998823,None,space,0.45321310000144877,None,,,,,,,,,0,57,57,57,739.8431872000074,,,,,,,,,,,,,739.8275643000088,739.8431872000074,739.8431872000074,739.8431872000074,743.6233403000078,,,,743.6294032000005,743.6408899000089,743.6408899000089,743.6893108000077,743.6895553000068,743.7058714000013,743.7058714000013,743.7058714000013,743.7725124999997,744.1729328000074,,,,,,,,,,,,,,,,,,,,,,up,3.76625219998823,None,space,0.45321310000144877,None,P102,001,2025-02-12_14h32.16.314,posner_endo_new1,2024.2.4,60.041020024438566,2025-02-12 14h32.24.064470 +0000,
cube_r.png,0.1,-0.31,invalid,58,58,0,up,4.293289499997627,None,space,0.3815753999951994,None,,,,,,,,,0,58,58,58,744.188701600011,,,,,,,,,,,,,744.1731178000045,744.188701600011,744.188701600011,744.188701600011,748.4850026000058,,,,748.4911842000001,748.5028871000104,748.5028871000104,748.5509389000072,748.5511754000036,748.5676243000053,748.5676243000053,748.5676243000053,748.6341504000011,748.9513933000126,,,,,,,,,,,,,,,,,,,,,,up,4.293289499997627,None,space,0.3815753999951994,None,P102,001,2025-02-12_14h32.16.314,posner_endo_new1,2024.2.4,60.041020024438566,2025-02-12 14h32.24.064470 +0000,
cube_l.png,0.1,0.31,invalid,59,59,0,up,3.874578399991151,None,space,0.3936572999955388,None,,,,,,,,,0,59,59,59,748.9671538000111,,,,,,,,,,,,,748.9515774000029,748.9671538000111,748.9671538000111,748.9671538000111,752.8474369000032,,,,752.853563800003,752.8650744000042,752.8650744000042,752.913321400003,752.9135590000078,752.9297717000009,752.9297717000009,752.9297717000009,753.0131326000119,753.3302261000063,,,,,,,,,,,,,,,,,,,,,,up,3.874578399991151,None,space,0.3936572999955388,None,P102,001,2025-02-12_14h32.16.314,posner_endo_new1,2024.2.4,60.041020024438566,2025-02-12 14h32.24.064470 +0000,
