cue_img,cue_soa,target_x,trial,thisN,thisTrialN,thisRepN,key_control2.keys,key_control2.rt,key_control2.duration,key_resp.keys,key_resp.rt,key_resp.duration,practice.thisRepN,practice.thisTrialN,practice.thisN,practice.thisIndex,block1.thisRepN,block1.thisTrialN,block1.thisN,block1.thisIndex,block2.thisRepN,block2.thisTrialN,block2.thisN,block2.thisIndex,thisRow.t,notes,instructions.started,instructions_txt.started,key_control.started,instructions.stopped,key_control.keys,key_control.rt,key_control.duration,ready.started,ready_txt.started,ready_txt.stopped,ready.stopped,fix.started,fixation.started,key_control2.started,fixation_cross.started,fix.stopped,practice.key_control2.keys,practice.key_control2.rt,practice.key_control2.duration,cue.started,cube.started,fixation_cross_cue.started,cue.stopped,target.started,fixation_target.started,fixation_cross_target.started,key_resp.started,star.started,target.stopped,practice.key_resp.keys,practice.key_resp.rt,practice.key_resp.duration,star.stopped,fixation_target.stopped,fixation_cross_target.stopped,key_resp.stopped,block1.key_control2.keys,block1.key_control2.rt,block1.key_control2.duration,block1.key_resp.keys,block1.key_resp.rt,block1.key_resp.duration,break_2.started,text.started,key_control3.started,text.stopped,break_2.stopped,key_control3.keys,key_control3.rt,key_control3.duration,block2.key_control2.keys,block2.key_control2.rt,block2.key_control2.duration,block2.key_resp.keys,block2.key_resp.rt,block2.key_resp.duration,participant,session,date,expName,psychopyVersion,frameRate,expStart,
,,,,,,,,,,,,,,,,,,,,,,,,,,,0.007608100000652485,0.029076899998472072,0.029076899998472072,18.43309059999592,up,18.388902500009863,None,,,,,,,,,,,,,,,,,,,,,,,,,,,,,,,,,,,,,,,,,,,,,,,,,,P103,001,2025-02-12_15h25.30.679,posner_endo_new1,2024.2.4,59.962966874129805,2025-02-12 15h25.39.897264 +0000,
,,,,,,,,,,,,,,,,,,,,,,,,,,,,,,,,,,18.433133099999395,18.445844599991688,21.45569419999083,21.426974100002553,,,,,,,,,,,,,,,,,,,,,,,,,,,,,,,,,,,,,,,,,,,,,,P103,001,2025-02-12_15h25.30.679,posner_endo_new1,2024.2.4,59.962966874129805,2025-02-12 15h25.39.897264 +0000,
cube_l.png,0.1,-0.31,valid,0,0,0,up,41.322376399999484,None,space,0.7818470999918645,None,0,0,0,0,,,,,,,,,21.45569419999083,,,,,,,,,,,,,21.442349699995248,21.45569419999083,21.45569419999083,21.45569419999083,62.785104099995806,up,41.322376399999484,None,62.799041299993405,62.80962790000194,62.80962790000194,62.850806099988404,62.85104049999791,62.86760839998897,62.86760839998897,62.86760839998897,62.95066550000047,63.65093189998879,space,0.7818470999918645,None,,,,,,,,,,,,,,,,,,,,,,,,,P103,001,2025-02-12_15h25.30.679,posner_endo_new1,2024.2.4,59.962966874129805,2025-02-12 15h25.39.897264 +0000,
cube_l.png,0.1,0.31,invalid,1,1,0,up,5.390973000001395,None,space,0.49756889999844134,None,0,1,1,1,,,,,,,,,63.66673379999702,,,,,,,,,,,,,63.65110279999499,63.66673379999702,63.66673379999702,63.66673379999702,69.06189549999544,up,5.390973000001395,None,69.06899189999967,69.08057510000071,69.08057510000071,69.1274670999992,69.12770079998882,69.144218299989,69.144218299989,69.144218299989,69.2110202999902,69.6445692999987,space,0.49756889999844134,None,,,,,,,,,,,,,,,,,,,,,,,,,P103,001,2025-02-12_15h25.30.679,posner_endo_new1,2024.2.4,59.962966874129805,2025-02-12 15h25.39.897264 +0000,
cube_r.png,0.1,-0.31,invalid,2,2,0,up,6.733810899997479,None,space,0.5093312000099104,None,0,2,2,2,,,,,,,,,69.66068889999588,,,,,,,,,,,,,69.64474269999482,69.66068889999588,69.66068889999588,69.66068889999588,76.40690399998857,up,6.733810899997479,None,76.43144369999936,76.44197499999427,76.44197499999427,76.47023310000077,76.47057459999633,76.48679479998827,76.48679479998827,76.48679479998827,76.56970709998859,77.00426889999653,space,0.5093312000099104,None,,,,,,,,,,,,,,,,,,,,,,,,,P103,001,2025-02-12_15h25.30.679,posner_endo_new1,2024.2.4,59.962966874129805,2025-02-12 15h25.39.897264 +0000,
cube_r.png,0.1,10,catch,3,3,0,up,6.045978900001501,None,None,,,0,3,3,3,,,,,,,,,77.01964929999667,,,,,,,,,,,,,77.0045403999975,77.01964929999667,77.01964929999667,77.01964929999667,83.08281429999624,up,6.045978900001501,None,83.10606789999292,83.11780979999457,83.11780979999457,83.14657810000062,83.14697879999585,83.16301519999979,83.16301519999979,83.16301519999979,83.24628110000049,86.16054179999628,None,,,85.26085099999909,86.17655279999599,86.17655279999599,86.17655279999599,,,,,,,,,,,,,,,,,,,,,P103,001,2025-02-12_15h25.30.679,posner_endo_new1,2024.2.4,59.962966874129805,2025-02-12 15h25.39.897264 +0000,
cube_l.png,0.1,-0.31,valid,4,4,0,up,4.865488499999628,None,space,0.39825070000370033,None,0,4,4,4,,,,,,,,,86.17655279999599,,,,,,,,,,,,,86.16074389999267,86.17655279999599,86.17655279999599,86.17655279999599,91.05592149999575,up,4.865488499999628,None,91.06439559999853,91.07473729999037,91.07473729999037,91.12216629998875,91.12274130000151,91.13858519999485,91.13858519999485,91.13858519999485,91.20512749999762,91.54029179998906,space,0.39825070000370033,None,,,,,,,,,,,,,,,,,,,,,,,,,P103,001,2025-02-12_15h25.30.679,posner_endo_new1,2024.2.4,59.962966874129805,2025-02-12 15h25.39.897264 +0000,
cube_l.png,0.1,0.31,invalid,5,5,0,up,6.855544500009273,None,space,0.5091165000048932,None,0,5,5,5,,,,,,,,,91.55480659999012,,,,,,,,,,,,,91.54075799998827,91.55480659999012,91.55480659999012,91.55480659999012,98.41644709999673,up,6.855544500009273,None,98.43562419999216,98.4471623999998,98.4471623999998,98.48119249999581,98.48154839999916,98.49760269999388,98.49760269999388,98.49760269999388,98.58062639999844,99.01511819999723,space,0.5091165000048932,None,,,,,,,,,,,,,,,,,,,,,,,,,P103,001,2025-02-12_15h25.30.679,posner_endo_new1,2024.2.4,59.962966874129805,2025-02-12 15h25.39.897264 +0000,
cube_r.png,0.1,-0.31,invalid,6,6,0,up,8.259154600003967,None,space,0.616256199995405,None,0,6,6,6,,,,,,,,,99.03037609999592,,,,,,,,,,,,,99.01540059999388,99.03037609999592,99.03037609999592,99.03037609999592,107.30657380000048,up,8.259154600003967,None,107.31868840000243,107.32875849999255,107.32875849999255,107.37178729999869,107.3720472999994,107.38857779999671,107.38857779999671,107.38857779999671,107.4717929999897,108.00594229999115,space,0.616256199995405,None,,,,,,,,,,,,,,,,,,,,,,,,,P103,001,2025-02-12_15h25.30.679,posner_endo_new1,2024.2.4,59.962966874129805,2025-02-12 15h25.39.897264 +0000,
cube_r.png,0.1,0.31,valid,7,7,0,up,7.684842000002391,None,space,0.5378205000015441,None,0,7,7,7,,,,,,,,,108.02089459999115,,,,,,,,,,,,,108.00614240000141,108.02089459999115,108.02089459999115,108.02089459999115,115.71446760000254,up,7.684842000002391,None,115.72597200000018,115.7362526999932,115.7362526999932,115.78013829998963,115.78049679999822,115.79631029999291,115.79631029999291,115.79631029999291,115.87959050000063,116.3465092999977,space,0.5378205000015441,None,,,,,,,,,,,,,,,,,,,,,,,,,P103,001,2025-02-12_15h25.30.679,posner_endo_new1,2024.2.4,59.962966874129805,2025-02-12 15h25.39.897264 +0000,
cube_l.png,0.1,-0.31,valid,8,8,0,up,6.446865500009153,None,space,0.3915710000001127,None,0,8,8,8,,,,,,,,,116.36268589999236,,,,,,,,,,,,,116.34670039999764,116.36268589999236,116.36268589999236,116.36268589999236,122.82551879998937,up,6.446865500009153,None,122.84598139999434,122.8559258999885,122.8559258999885,122.88928679999663,122.8896980999998,122.90565960000094,122.90565960000094,122.90565960000094,122.98890070000198,123.30692269999417,space,0.3915710000001127,None,,,,,,,,,,,,,,,,,,,,,,,,,P103,001,2025-02-12_15h25.30.679,posner_endo_new1,2024.2.4,59.962966874129805,2025-02-12 15h25.39.897264 +0000,
cube_r.png,0.1,-0.31,invalid,9,9,0,up,6.537363700001151,None,space,0.3401066000078572,None,0,9,9,9,,,,,,,,,123.32188949998817,,,,,,,,,,,,,123.30724999999802,123.32188949998817,123.32188949998817,123.32188949998817,129.86621719998948,up,6.537363700001151,None,129.8749286999955,129.88518299999123,129.88518299999123,129.93196960000205,129.93225889999303,129.94849139999133,129.94849139999133,129.94849139999133,130.0320356000011,130.29922200000146,space,0.3401066000078572,None,,,,,,,,,,,,,,,,,,,,,,,,,P103,001,2025-02-12_15h25.30.679,posner_endo_new1,2024.2.4,59.962966874129805,2025-02-12 15h25.39.897264 +0000,
cube_r.png,0.1,0.31,valid,10,10,0,up,7.127009399991948,None,space,0.37499470000329893,None,0,10,10,10,,,,,,,,,130.31497179999133,,,,,,,,,,,,,130.29943769999954,130.31497179999133,130.31497179999133,130.31497179999133,137.45855270000175,up,7.127009399991948,None,137.46695849999378,137.47741599999426,137.47741599999426,137.5246793999977,137.5252555999905,137.54108229999838,137.54108229999838,137.54108229999838,137.607708800002,137.92597599999863,space,0.37499470000329893,None,,,,,,,,,,,,,,,,,,,,,,,,,P103,001,2025-02-12_15h25.30.679,posner_endo_new1,2024.2.4,59.962966874129805,2025-02-12 15h25.39.897264 +0000,
,,,,,,,,,,,,,,,,,,,,,,,,,,,,,,,,,,137.92626849999942,137.94065959998989,140.97541739999724,140.9212503000017,,,,,,,,,,,,,,,,,,,,,,,,,,,,,,,,,,,,,,,,,,,,,,P103,001,2025-02-12_15h25.30.679,posner_endo_new1,2024.2.4,59.962966874129805,2025-02-12 15h25.39.897264 +0000,
cube_l.png,0.1,10,catch,0,0,0,up,5.434795699999086,None,None,,,,,,,0,0,0,0,,,,,140.97541739999724,,,,,,,,,,,,,140.96619939999073,140.97541739999724,140.97541739999724,140.97541739999724,146.41616759999306,,,,146.42579609999666,146.43615300000238,146.43615300000238,146.482056199995,146.48240129998885,146.49827019999793,146.49827019999793,146.49827019999793,146.5817890999897,149.49596989998827,,,,148.59609679999994,149.51221950000036,149.51221950000036,149.51221950000036,up,5.434795699999086,None,None,,,,,,,,,,,,,,,,,P103,001,2025-02-12_15h25.30.679,posner_endo_new1,2024.2.4,59.962966874129805,2025-02-12 15h25.39.897264 +0000,
cube_l.png,0.1,10,catch,1,1,0,up,4.2739188999985345,None,None,,,,,,,0,1,1,1,,,,,149.51221950000036,,,,,,,,,,,,,149.49620999999752,149.51221950000036,149.51221950000036,149.51221950000036,153.79199829998834,,,,153.80176979998942,153.81208499999775,153.81208499999775,153.8579139999929,153.85823430000164,153.87415589999,153.87415589999,153.87415589999,153.95722489999025,156.8716218999907,,,,155.9720532999927,156.88752139999997,156.88752139999997,156.88752139999997,up,4.2739188999985345,None,None,,,,,,,,,,,,,,,,,P103,001,2025-02-12_15h25.30.679,posner_endo_new1,2024.2.4,59.962966874129805,2025-02-12 15h25.39.897264 +0000,
cube_l.png,0.1,0.31,invalid,2,2,0,up,5.1394130000117,None,space,0.5501075999927707,None,,,,,0,2,2,2,,,,,156.88752139999997,,,,,,,,,,,,,156.87185909999243,156.88752139999997,156.88752139999997,156.88752139999997,162.03336309999577,,,,162.04297949999454,162.05326819999027,162.05326819999027,162.09945239999797,162.09976649998862,162.11560039999313,162.11560039999313,162.11560039999313,162.19917379999242,162.66681199999584,,,,,,,,up,5.1394130000117,None,space,0.5501075999927707,None,,,,,,,,,,,,,,,P103,001,2025-02-12_15h25.30.679,posner_endo_new1,2024.2.4,59.962966874129805,2025-02-12 15h25.39.897264 +0000,
cube_l.png,0.1,0.31,invalid,3,3,0,up,7.007766700000502,None,space,0.49468819999310654,None,,,,,0,3,3,3,,,,,162.6817352999933,,,,,,,,,,,,,162.66706809999596,162.6817352999933,162.6817352999933,162.6817352999933,169.69264769999427,,,,169.7021825999982,169.71253479999723,169.71253479999723,169.75820679999015,169.7585357999924,169.774405499993,169.774405499993,169.774405499993,169.85791849999805,170.27536249998957,,,,,,,,up,7.007766700000502,None,space,0.49468819999310654,None,,,,,,,,,,,,,,,P103,001,2025-02-12_15h25.30.679,posner_endo_new1,2024.2.4,59.962966874129805,2025-02-12 15h25.39.897264 +0000,
cube_l.png,0.1,-0.31,valid,4,4,0,up,6.790715099996305,None,space,0.4292145000072196,None,,,,,0,4,4,4,,,,,170.29084149999835,,,,,,,,,,,,,170.27561749999586,170.29084149999835,170.29084149999835,170.29084149999835,177.08503659999405,,,,177.09462389998953,177.10489779998898,177.10489779998898,177.1503592999943,177.15068130000145,177.1671090000018,177.1671090000018,177.1671090000018,177.2504115999909,177.60086179999053,,,,,,,,up,6.790715099996305,None,space,0.4292145000072196,None,,,,,,,,,,,,,,,P103,001,2025-02-12_15h25.30.679,posner_endo_new1,2024.2.4,59.962966874129805,2025-02-12 15h25.39.897264 +0000,
cube_r.png,0.1,-0.31,invalid,5,5,0,up,6.825604999990901,None,space,0.4314982000068994,None,,,,,0,5,5,5,,,,,177.61646520000068,,,,,,,,,,,,,177.60111719999986,177.61646520000068,177.61646520000068,177.61646520000068,184.44429619998846,,,,184.45386979999603,184.46439629999804,184.46439629999804,184.50948490000155,184.50981049999245,184.52634269998816,184.52634269998816,184.52634269998816,184.60925049999787,184.9600286999921,,,,,,,,up,6.825604999990901,None,space,0.4314982000068994,None,,,,,,,,,,,,,,,P103,001,2025-02-12_15h25.30.679,posner_endo_new1,2024.2.4,59.962966874129805,2025-02-12 15h25.39.897264 +0000,
cube_r.png,0.1,0.31,valid,6,6,0,up,8.15392170000996,None,space,0.3407073999987915,None,,,,,0,6,6,6,,,,,184.97591169999214,,,,,,,,,,,,,184.9602842000022,184.97591169999214,184.97591169999214,184.97591169999214,193.1350209999946,,,,193.1448864999984,193.15495849998842,193.15495849998842,193.20091780000075,193.20123169998988,193.21717419999186,193.21717419999186,193.21717419999186,193.28380160000233,193.5682664999913,,,,,,,,up,8.15392170000996,None,space,0.3407073999987915,None,,,,,,,,,,,,,,,P103,001,2025-02-12_15h25.30.679,posner_endo_new1,2024.2.4,59.962966874129805,2025-02-12 15h25.39.897264 +0000,
cube_r.png,0.1,-0.31,invalid,7,7,0,up,7.578153700000257,None,space,0.4062179000029573,None,,,,,0,7,7,7,,,,,193.58329179999419,,,,,,,,,,,,,193.56852939999953,193.58329179999419,193.58329179999419,193.58329179999419,201.1767938999983,,,,201.18631999999343,201.19671099999687,201.19671099999687,201.24247149999428,201.24278950000007,201.2590865999955,201.2590865999955,201.2590865999955,201.32546379999258,201.6763101999968,,,,,,,,up,7.578153700000257,None,space,0.4062179000029573,None,,,,,,,,,,,,,,,P103,001,2025-02-12_15h25.30.679,posner_endo_new1,2024.2.4,59.962966874129805,2025-02-12 15h25.39.897264 +0000,
cube_l.png,0.1,-0.31,valid,8,8,0,up,8.277288600002066,None,space,0.42389200000616256,None,,,,,0,8,8,8,,,,,201.6921844000026,,,,,,,,,,,,,201.67657179999514,201.6921844000026,201.6921844000026,201.6921844000026,209.98648999999568,,,,210.00962399999844,210.02120699999796,210.02120699999796,210.04990939999698,210.05027469999914,210.0664512999938,210.0664512999938,210.0664512999938,210.14982609999424,210.50064079998992,,,,,,,,up,8.277288600002066,None,space,0.42389200000616256,None,,,,,,,,,,,,,,,P103,001,2025-02-12_15h25.30.679,posner_endo_new1,2024.2.4,59.962966874129805,2025-02-12 15h25.39.897264 +0000,
cube_r.png,0.1,-0.31,invalid,9,9,0,up,6.605004900004133,None,space,0.4181109000055585,None,,,,,0,9,9,9,,,,,210.51643849999527,,,,,,,,,,,,,210.5009310000023,210.51643849999527,210.51643849999527,210.51643849999527,217.12748969999666,,,,217.1365247999929,217.14637389998825,217.14637389998825,217.1930324999994,217.19328389999282,217.20910419999564,217.20910419999564,217.20910419999564,217.2924670999928,217.6441710999934,,,,,,,,up,6.605004900004133,None,space,0.4181109000055585,None,,,,,,,,,,,,,,,P103,001,2025-02-12_15h25.30.679,posner_endo_new1,2024.2.4,59.962966874129805,2025-02-12 15h25.39.897264 +0000,
cube_l.png,0.1,0.31,invalid,10,10,0,up,7.239044299989473,None,space,0.4543889000051422,None,,,,,0,10,10,10,,,,,217.65906359998917,,,,,,,,,,,,,217.64461989999108,217.65906359998917,217.65906359998917,217.65906359998917,224.90259810000134,,,,224.9140131000022,224.92425619999995,224.92425619999995,224.9683776999882,224.96865019999677,224.98473739999463,224.98473739999463,224.98473739999463,225.06822349999857,225.4516663999966,,,,,,,,up,7.239044299989473,None,space,0.4543889000051422,None,,,,,,,,,,,,,,,P103,001,2025-02-12_15h25.30.679,posner_endo_new1,2024.2.4,59.962966874129805,2025-02-12 15h25.39.897264 +0000,
cube_r.png,0.1,-0.31,invalid,11,11,0,up,7.022625999990851,None,space,0.45845800000824966,None,,,,,0,11,11,11,,,,,225.46773619999294,,,,,,,,,,,,,225.4518676000007,225.46773619999294,225.46773619999294,225.46773619999294,232.49533689999953,,,,232.50697930000024,232.5172714999935,232.5172714999935,232.560779499996,232.56113279999408,232.57685199999833,232.57685199999833,232.57685199999833,232.66049199999543,233.0443605999899,,,,,,,,up,7.022625999990851,None,space,0.45845800000824966,None,,,,,,,,,,,,,,,P103,001,2025-02-12_15h25.30.679,posner_endo_new1,2024.2.4,59.962966874129805,2025-02-12 15h25.39.897264 +0000,
cube_r.png,0.1,0.31,valid,12,12,0,up,6.693682000011904,None,space,0.4363817999983439,None,,,,,0,12,12,12,,,,,233.05970509999315,,,,,,,,,,,,,233.04465389999677,233.05970509999315,233.05970509999315,233.05970509999315,239.75477059998957,,,,239.76614989999507,239.77652390000003,239.77652390000003,239.81987919998937,239.82012889999896,239.8364419999998,239.8364419999998,239.8364419999998,239.91960639999888,240.28694729998824,,,,,,,,up,6.693682000011904,None,space,0.4363817999983439,None,,,,,,,,,,,,,,,P103,001,2025-02-12_15h25.30.679,posner_endo_new1,2024.2.4,59.962966874129805,2025-02-12 15h25.39.897264 +0000,
cube_l.png,0.1,10,catch,13,13,0,up,7.466956300006132,None,None,,,,,,,0,13,13,13,,,,,240.3024804000015,,,,,,,,,,,,,240.2872428999981,240.3024804000015,240.3024804000015,240.3024804000015,247.7791664999968,,,,247.79086999999708,247.80113219999475,247.80113219999475,247.84514579999086,247.84540239999478,247.8611552999937,247.8611552999937,247.8611552999937,247.94478039999376,250.86021469999105,,,,249.95971019999706,250.87539309999556,250.87539309999556,250.87539309999556,up,7.466956300006132,None,None,,,,,,,,,,,,,,,,,P103,001,2025-02-12_15h25.30.679,posner_endo_new1,2024.2.4,59.962966874129805,2025-02-12 15h25.39.897264 +0000,
cube_r.png,0.1,-0.31,invalid,14,14,0,up,5.846809900001972,None,space,0.4147614999965299,None,,,,,0,14,14,14,,,,,250.87539309999556,,,,,,,,,,,,,250.86077049998858,250.87539309999556,250.87539309999556,250.87539309999556,256.73867710000195,,,,256.7622427999886,256.7722367999959,256.7722367999959,256.8021621999942,256.80251860000135,256.81864029999997,256.81864029999997,256.81864029999997,256.90204939999967,257.23645879999094,,,,,,,,up,5.846809900001972,None,space,0.4147614999965299,None,,,,,,,,,,,,,,,P103,001,2025-02-12_15h25.30.679,posner_endo_new1,2024.2.4,59.962966874129805,2025-02-12 15h25.39.897264 +0000,
cube_l.png,0.1,-0.31,valid,15,15,0,up,8.237655099990661,None,space,0.43000739999115467,None,,,,,0,15,15,15,,,,,257.2518138000014,,,,,,,,,,,,,257.23675179999555,257.2518138000014,257.2518138000014,257.2518138000014,265.49448139999004,,,,265.5060993999941,265.5164967000019,265.5164967000019,265.5604599999933,265.56072680000216,265.5763794999948,265.5763794999948,265.5763794999948,265.6602608999965,266.0107369999896,,,,,,,,up,8.237655099990661,None,space,0.43000739999115467,None,,,,,,,,,,,,,,,P103,001,2025-02-12_15h25.30.679,posner_endo_new1,2024.2.4,59.962966874129805,2025-02-12 15h25.39.897264 +0000,
cube_r.png,0.1,10,catch,16,16,0,up,7.783436200013966,None,space,0.30327889999898616,None,,,,,0,16,16,16,,,,,266.02643319999333,,,,,,,,,,,,,266.0109446999995,266.02643319999333,266.02643319999333,266.02643319999333,273.8192593999993,,,,273.8307954999909,273.8410712999903,273.8410712999903,273.885008799989,273.8853674999991,273.9015278000006,273.9015278000006,273.9015278000006,273.98476059999666,274.21923639999295,,,,,,,,up,7.783436200013966,None,space,0.30327889999898616,None,,,,,,,,,,,,,,,P103,001,2025-02-12_15h25.30.679,posner_endo_new1,2024.2.4,59.962966874129805,2025-02-12 15h25.39.897264 +0000,
cube_r.png,0.1,10,catch,17,17,0,up,8.102660300006391,None,None,,,,,,,0,17,17,17,,,,,274.23472349999065,,,,,,,,,,,,,274.2195259,274.23472349999065,274.23472349999065,274.23472349999065,282.3439828999981,,,,282.35460759999114,282.36427829999593,282.36427829999593,282.40951509999286,282.4097686999885,282.42631789999723,282.42631789999723,282.42631789999723,282.5096801999898,285.4248096999945,,,,284.5242448999925,285.4400642999972,285.4400642999972,285.4400642999972,up,8.102660300006391,None,None,,,,,,,,,,,,,,,,,P103,001,2025-02-12_15h25.30.679,posner_endo_new1,2024.2.4,59.962966874129805,2025-02-12 15h25.39.897264 +0000,
cube_l.png,0.1,0.31,invalid,18,18,0,up,5.530355399998371,None,space,0.6368160000129137,None,,,,,0,18,18,18,,,,,285.4400642999972,,,,,,,,,,,,,285.42538539999805,285.4400642999972,285.4400642999972,285.4400642999972,290.9850243999972,,,,290.9944567999919,291.0054437999934,291.0054437999934,291.05066409999563,291.05111970000144,291.0672207000025,291.0672207000025,291.0672207000025,291.15060639999865,291.7175809999899,,,,,,,,up,5.530355399998371,None,space,0.6368160000129137,None,,,,,,,,,,,,,,,P103,001,2025-02-12_15h25.30.679,posner_endo_new1,2024.2.4,59.962966874129805,2025-02-12 15h25.39.897264 +0000,
cube_l.png,0.1,10,catch,19,19,0,up,8.276325799990445,None,None,,,,,,,0,19,19,19,,,,,291.7330280000024,,,,,,,,,,,,,291.717843099992,291.7330280000024,291.7330280000024,291.7330280000024,300.02586789999623,,,,300.0354835999897,300.04561000000103,300.04561000000103,300.0914377000008,300.0917599999957,300.10818159999326,300.10818159999326,300.10818159999326,300.19100679999974,303.1052920999937,,,,302.205741999991,303.12172699999064,303.12172699999064,303.12172699999064,up,8.276325799990445,None,None,,,,,,,,,,,,,,,,,P103,001,2025-02-12_15h25.30.679,posner_endo_new1,2024.2.4,59.962966874129805,2025-02-12 15h25.39.897264 +0000,
cube_l.png,0.1,0.31,invalid,20,20,0,up,5.799906000000192,None,space,0.5120508999971207,None,,,,,0,20,20,20,,,,,303.12172699999064,,,,,,,,,,,,,303.1055321999884,303.12172699999064,303.12172699999064,303.12172699999064,308.933226299996,,,,308.94275200000266,308.9530691999971,308.9530691999971,308.9988127999968,308.9991311999911,309.01534759999777,309.01534759999777,309.01534759999777,309.09860579999804,309.53276599998935,,,,,,,,up,5.799906000000192,None,space,0.5120508999971207,None,,,,,,,,,,,,,,,P103,001,2025-02-12_15h25.30.679,posner_endo_new1,2024.2.4,59.962966874129805,2025-02-12 15h25.39.897264 +0000,
cube_l.png,0.1,-0.31,valid,21,21,0,up,9.398054099990986,None,space,0.4026549999980489,None,,,,,0,21,21,21,,,,,309.5481725999998,,,,,,,,,,,,,309.5330208999949,309.5481725999998,309.5481725999998,309.5481725999998,318.9566435000015,,,,318.96609059999173,318.9764623999945,318.9764623999945,319.02190999999584,319.02224189999106,319.0386264999979,319.0386264999979,319.0386264999979,319.12191239999083,319.4559492999979,,,,,,,,up,9.398054099990986,None,space,0.4026549999980489,None,,,,,,,,,,,,,,,P103,001,2025-02-12_15h25.30.679,posner_endo_new1,2024.2.4,59.962966874129805,2025-02-12 15h25.39.897264 +0000,
cube_r.png,0.1,0.31,valid,22,22,0,up,9.46626099999412,None,space,0.4603990000032354,None,,,,,0,22,22,22,,,,,319.4716144999984,,,,,,,,,,,,,319.45621160000155,319.4716144999984,319.4716144999984,319.4716144999984,328.94645489999675,,,,328.9559717999946,328.96625060000224,328.96625060000224,329.0117222999979,329.01204419998976,329.0283605000004,329.0283605000004,329.0283605000004,329.1114896999934,329.49585809999553,,,,,,,,up,9.46626099999412,None,space,0.4603990000032354,None,,,,,,,,,,,,,,,P103,001,2025-02-12_15h25.30.679,posner_endo_new1,2024.2.4,59.962966874129805,2025-02-12 15h25.39.897264 +0000,
cube_r.png,0.1,-0.31,invalid,23,23,0,up,8.235004799993476,None,space,0.46623380000528414,None,,,,,0,23,23,23,,,,,329.51147579999815,,,,,,,,,,,,,329.4961145999987,329.51147579999815,329.51147579999815,329.51147579999815,337.7541382999916,,,,337.7636851999996,337.77407129999483,337.77407129999483,337.8194147999893,337.8197332999989,337.8361287000007,337.8361287000007,337.8361287000007,337.91913979999663,338.3053502999974,,,,,,,,up,8.235004799993476,None,space,0.46623380000528414,None,,,,,,,,,,,,,,,P103,001,2025-02-12_15h25.30.679,posner_endo_new1,2024.2.4,59.962966874129805,2025-02-12 15h25.39.897264 +0000,
cube_r.png,0.1,0.31,valid,24,24,0,up,7.355040900001768,None,space,0.42518429999472573,None,,,,,0,24,24,24,,,,,338.3196694999933,,,,,,,,,,,,,338.30594589999237,338.3196694999933,338.3196694999933,338.3196694999933,345.6809049000003,,,,345.7034450999927,345.7163976000011,345.7163976000011,345.74450980000256,345.74487059999956,345.76102429999446,345.76102429999446,345.76102429999446,345.8443297999911,346.19530209999357,,,,,,,,up,7.355040900001768,None,space,0.42518429999472573,None,,,,,,,,,,,,,,,P103,001,2025-02-12_15h25.30.679,posner_endo_new1,2024.2.4,59.962966874129805,2025-02-12 15h25.39.897264 +0000,
cube_r.png,0.1,-0.31,invalid,25,25,0,up,8.471216199992341,None,space,0.41786129999672994,None,,,,,0,25,25,25,,,,,346.21086439999635,,,,,,,,,,,,,346.1956022999948,346.21086439999635,346.21086439999635,346.21086439999635,354.6864959999948,,,,354.69791239999176,354.7082115999947,354.7082115999947,354.75198159999854,354.7522479999898,354.7686645999929,354.7686645999929,354.7686645999929,354.8520270000008,355.20250189999933,,,,,,,,up,8.471216199992341,None,space,0.41786129999672994,None,,,,,,,,,,,,,,,P103,001,2025-02-12_15h25.30.679,posner_endo_new1,2024.2.4,59.962966874129805,2025-02-12 15h25.39.897264 +0000,
cube_l.png,0.1,-0.31,valid,26,26,0,up,8.47150210000109,None,space,0.5405049999972107,None,,,,,0,26,26,26,,,,,355.21846219999134,,,,,,,,,,,,,355.20270609999716,355.21846219999134,355.21846219999134,355.21846219999134,363.69604249999975,,,,363.71620319999056,363.7268705999886,363.7268705999886,363.75965310000174,363.76010769999993,363.77606879999803,363.77606879999803,363.77606879999803,363.85937099999865,364.32661109999754,,,,,,,,up,8.47150210000109,None,space,0.5405049999972107,None,,,,,,,,,,,,,,,P103,001,2025-02-12_15h25.30.679,posner_endo_new1,2024.2.4,59.962966874129805,2025-02-12 15h25.39.897264 +0000,
cube_r.png,0.1,0.31,valid,27,27,0,up,7.603351300000213,None,space,0.5786369999987073,None,,,,,0,27,27,27,,,,,364.3424809999997,,,,,,,,,,,,,364.3268669999961,364.3424809999997,364.3424809999997,364.3424809999997,371.9519459000003,,,,371.9613182999892,371.97167439998884,371.97167439998884,372.01781059999485,372.0181390999933,372.03423379999003,372.03423379999003,372.03423379999003,372.1175050999882,372.61819419999665,,,,,,,,up,7.603351300000213,None,space,0.5786369999987073,None,,,,,,,,,,,,,,,P103,001,2025-02-12_15h25.30.679,posner_endo_new1,2024.2.4,59.962966874129805,2025-02-12 15h25.39.897264 +0000,
cube_r.png,0.1,10,catch,28,28,0,up,0.10421950000454672,None,None,,,,,,,0,28,28,28,,,,,372.63361779999104,,,,,,,,,,,,,372.61845789999643,372.63361779999104,372.63361779999104,372.63361779999104,372.7515788000019,,,,372.7610631999996,372.7712498999899,372.7712498999899,372.8168912999972,372.81720959999075,372.83369629998924,372.83369629998924,372.83369629998924,372.91669079998974,375.8309700999962,,,,374.93142379999335,375.84712829999626,375.84712829999626,375.84712829999626,up,0.10421950000454672,None,None,,,,,,,,,,,,,,,,,P103,001,2025-02-12_15h25.30.679,posner_endo_new1,2024.2.4,59.962966874129805,2025-02-12 15h25.39.897264 +0000,
cube_r.png,0.1,0.31,valid,29,29,0,up,5.794960799990804,None,space,0.6047764999966603,None,,,,,0,29,29,29,,,,,375.84712829999626,,,,,,,,,,,,,375.8312139999907,375.84712829999626,375.84712829999626,375.84712829999626,381.65910319999966,,,,381.66859580000164,381.67865059999167,381.67865059999167,381.7244587000023,381.7247798999888,381.741386099995,381.741386099995,381.741386099995,381.82414060000156,382.3580234999972,,,,,,,,up,5.794960799990804,None,space,0.6047764999966603,None,,,,,,,,,,,,,,,P103,001,2025-02-12_15h25.30.679,posner_endo_new1,2024.2.4,59.962966874129805,2025-02-12 15h25.39.897264 +0000,
cube_r.png,0.1,0.31,valid,30,30,0,up,8.163726500002667,None,space,0.4334041999973124,None,,,,,0,30,30,30,,,,,382.37388829998963,,,,,,,,,,,,,382.35828200000105,382.37388829998963,382.37388829998963,382.37388829998963,390.54970579998917,,,,390.5591471999942,390.56951869999466,390.56951869999466,390.6154491999914,390.6157727999962,390.63218600000255,390.63218600000255,390.63218600000255,390.7150649999967,391.08296529999643,,,,,,,,up,8.163726500002667,None,space,0.4334041999973124,None,,,,,,,,,,,,,,,P103,001,2025-02-12_15h25.30.679,posner_endo_new1,2024.2.4,59.962966874129805,2025-02-12 15h25.39.897264 +0000,
cube_l.png,0.1,-0.31,valid,31,31,0,up,8.048124599998118,None,space,0.4172190999961458,None,,,,,0,31,31,31,,,,,391.0982684999908,,,,,,,,,,,,,391.08322469999257,391.0982684999908,391.0982684999908,391.0982684999908,399.1578792999935,,,,399.1673781999998,399.17773209999723,399.17773209999723,399.22328779999225,399.2236084999895,399.23995459999423,399.23995459999423,399.23995459999423,399.323009499989,399.6736813999887,,,,,,,,up,8.048124599998118,None,space,0.4172190999961458,None,,,,,,,,,,,,,,,P103,001,2025-02-12_15h25.30.679,posner_endo_new1,2024.2.4,59.962966874129805,2025-02-12 15h25.39.897264 +0000,
cube_r.png,0.1,0.31,valid,32,32,0,up,7.553567800001474,None,space,0.4414711999997962,None,,,,,0,32,32,32,,,,,399.6892819999921,,,,,,,,,,,,,399.6739365999965,399.6892819999921,399.6892819999921,399.6892819999921,407.2497008999926,,,,407.25917569999,407.269409799992,407.269409799992,407.3152955999976,407.3156125999958,407.3314277000027,407.3314277000027,407.3314277000027,407.4147776999889,407.78207929999917,,,,,,,,up,7.553567800001474,None,space,0.4414711999997962,None,,,,,,,,,,,,,,,P103,001,2025-02-12_15h25.30.679,posner_endo_new1,2024.2.4,59.962966874129805,2025-02-12 15h25.39.897264 +0000,
cube_r.png,0.1,-0.31,invalid,33,33,0,up,8.77230180001061,None,space,0.3383944000088377,None,,,,,0,33,33,33,,,,,407.79776989998936,,,,,,,,,,,,,407.78233349999937,407.79776989998936,407.79776989998936,407.79776989998936,416.57341839998844,,,,416.58286249999946,416.59336379999877,416.59336379999877,416.63883939999505,416.63917460000084,416.6555182000011,416.6555182000011,416.6555182000011,416.7387693999917,417.0059940999927,,,,,,,,up,8.77230180001061,None,space,0.3383944000088377,None,,,,,,,,,,,,,,,P103,001,2025-02-12_15h25.30.679,posner_endo_new1,2024.2.4,59.962966874129805,2025-02-12 15h25.39.897264 +0000,
cube_r.png,0.1,10,catch,34,34,0,up,9.435774900004617,None,None,,,,,,,0,34,34,34,,,,,417.0217776999925,,,,,,,,,,,,,417.00625880000007,417.0217776999925,417.0217776999925,417.0217776999925,426.46332619999885,,,,426.4728332999948,426.4831731000013,426.4831731000013,426.5290085000015,426.52932699999656,426.5450750000018,426.5450750000018,426.5450750000018,426.62845129999914,429.5429589999985,,,,428.6432225999888,429.55904349999037,429.55904349999037,429.55904349999037,up,9.435774900004617,None,None,,,,,,,,,,,,,,,,,P103,001,2025-02-12_15h25.30.679,posner_endo_new1,2024.2.4,59.962966874129805,2025-02-12 15h25.39.897264 +0000,
cube_r.png,0.1,0.31,valid,35,35,0,up,5.427491199996439,None,space,0.5397323000070173,None,,,,,0,35,35,35,,,,,429.55904349999037,,,,,,,,,,,,,429.54320010000083,429.55904349999037,429.55904349999037,429.55904349999037,434.9879045999987,,,,434.99595329999283,435.0067936999985,435.0067936999985,435.0534986999992,435.05382469999313,435.07001129999117,435.07001129999117,435.07001129999117,435.15298669999174,435.6204732999904,,,,,,,,up,5.427491199996439,None,space,0.5397323000070173,None,,,,,,,,,,,,,,,P103,001,2025-02-12_15h25.30.679,posner_endo_new1,2024.2.4,59.962966874129805,2025-02-12 15h25.39.897264 +0000,
cube_r.png,0.1,-0.31,invalid,36,36,0,up,8.445835600010469,None,space,0.4463831000030041,None,,,,,0,36,36,36,,,,,435.6357658999914,,,,,,,,,,,,,435.6207474999974,435.6357658999914,435.6357658999914,435.6357658999914,444.0950335999951,,,,444.1045584999956,444.11489879999135,444.11489879999135,444.1606020999898,444.160916599998,444.17738739999186,444.17738739999186,444.17738739999186,444.2604074999981,444.62793069999316,,,,,,,,up,8.445835600010469,None,space,0.4463831000030041,None,,,,,,,,,,,,,,,P103,001,2025-02-12_15h25.30.679,posner_endo_new1,2024.2.4,59.962966874129805,2025-02-12 15h25.39.897264 +0000,
cube_l.png,0.1,0.31,invalid,37,37,0,up,7.638995100001921,None,space,0.5434415000054287,None,,,,,0,37,37,37,,,,,444.643253199989,,,,,,,,,,,,,444.628186499991,444.643253199989,444.643253199989,444.643253199989,452.28687849998823,,,,452.29631489999883,452.3067095000006,452.3067095000006,452.35238309999113,452.352699199997,452.36873149999883,452.36873149999883,452.36873149999883,452.4522334999929,452.9195694999944,,,,,,,,up,7.638995100001921,None,space,0.5434415000054287,None,,,,,,,,,,,,,,,P103,001,2025-02-12_15h25.30.679,posner_endo_new1,2024.2.4,59.962966874129805,2025-02-12 15h25.39.897264 +0000,
cube_l.png,0.1,0.31,invalid,38,38,0,up,8.92376899998635,None,space,0.5079540000006091,None,,,,,0,38,38,38,,,,,452.93478869998944,,,,,,,,,,,,,452.9198252999922,452.93478869998944,452.93478869998944,452.93478869998944,461.8604989000014,,,,461.8702549000009,461.8806334999972,461.8806334999972,461.92578469999717,461.92610139999306,461.94223919999786,461.94223919999786,461.94223919999786,462.0254977000004,462.4595699999918,,,,,,,,up,8.92376899998635,None,space,0.5079540000006091,None,,,,,,,,,,,,,,,P103,001,2025-02-12_15h25.30.679,posner_endo_new1,2024.2.4,59.962966874129805,2025-02-12 15h25.39.897264 +0000,
cube_r.png,0.1,0.31,valid,39,39,0,up,9.590409600001294,None,space,0.5317757000011625,None,,,,,0,39,39,39,,,,,462.47530879999977,,,,,,,,,,,,,462.4598235000012,462.47530879999977,462.47530879999977,462.47530879999977,472.066820299995,,,,472.0763225999981,472.0867236999911,472.0867236999911,472.13201799998933,472.13233310000214,472.1489178999909,472.1489178999909,472.1489178999909,472.23180379999394,472.6824837999884,,,,,,,,up,9.590409600001294,None,space,0.5317757000011625,None,,,,,,,,,,,,,,,P103,001,2025-02-12_15h25.30.679,posner_endo_new1,2024.2.4,59.962966874129805,2025-02-12 15h25.39.897264 +0000,
cube_l.png,0.1,0.31,invalid,40,40,0,up,7.943431599996984,None,space,0.51950909999141,None,,,,,0,40,40,40,,,,,472.6982246999978,,,,,,,,,,,,,472.68274550000206,472.6982246999978,472.6982246999978,472.6982246999978,480.65744759999507,,,,480.6669439999969,480.6771979999903,480.6771979999903,480.7235374000011,480.7238536999939,480.73991479999677,480.73991479999677,480.73991479999677,480.82291609999083,481.2735437999945,,,,,,,,up,7.943431599996984,None,space,0.51950909999141,None,,,,,,,,,,,,,,,P103,001,2025-02-12_15h25.30.679,posner_endo_new1,2024.2.4,59.962966874129805,2025-02-12 15h25.39.897264 +0000,
cube_l.png,0.1,10,catch,41,41,0,up,7.8809792999963975,None,None,,,,,,,0,41,41,41,,,,,481.28947499999776,,,,,,,,,,,,,481.27380119999,481.28947499999776,481.28947499999776,481.28947499999776,489.18234849999135,,,,489.19198499999766,489.2023515999899,489.2023515999899,489.2481764999975,489.2484953999956,489.2646146999905,489.2646146999905,489.2646146999905,489.3478532000008,492.26220659998944,,,,491.3621667999978,492.27791569998953,492.27791569998953,492.27791569998953,up,7.8809792999963975,None,None,,,,,,,,,,,,,,,,,P103,001,2025-02-12_15h25.30.679,posner_endo_new1,2024.2.4,59.962966874129805,2025-02-12 15h25.39.897264 +0000,
cube_l.png,0.1,-0.31,valid,42,42,0,up,5.740536199999042,None,space,0.40467139999964274,None,,,,,0,42,42,42,,,,,492.27791569998953,,,,,,,,,,,,,492.26244189999125,492.27791569998953,492.27791569998953,492.27791569998953,498.0232468999893,,,,498.0327787999995,498.0430723999889,498.0430723999889,498.08870169999136,498.089020799991,498.1056414999912,498.1056414999912,498.1056414999912,498.18853020000097,498.52285329998995,,,,,,,,up,5.740536199999042,None,space,0.40467139999964274,None,,,,,,,,,,,,,,,P103,001,2025-02-12_15h25.30.679,posner_endo_new1,2024.2.4,59.962966874129805,2025-02-12 15h25.39.897264 +0000,
cube_l.png,0.1,10,catch,43,43,0,up,9.8955178999895,None,None,,,,,,,0,43,43,43,,,,,498.5381608000025,,,,,,,,,,,,,498.52310320000106,498.5381608000025,498.5381608000025,498.5381608000025,508.44768810000096,,,,508.47002569999313,508.48232270000153,508.48232270000153,508.51167279999936,508.51212129999476,508.5281410999887,508.5281410999887,508.5281410999887,508.61122039999464,511.5257101999887,,,,510.6257498999912,511.5417757999967,511.5417757999967,511.5417757999967,up,9.8955178999895,None,None,,,,,,,,,,,,,,,,,P103,001,2025-02-12_15h25.30.679,posner_endo_new1,2024.2.4,59.962966874129805,2025-02-12 15h25.39.897264 +0000,
cube_l.png,0.1,0.31,invalid,44,44,0,up,6.308617500006221,None,space,0.5452129000041168,None,,,,,0,44,44,44,,,,,511.5417757999967,,,,,,,,,,,,,511.52594949999184,511.5417757999967,511.5417757999967,511.5417757999967,517.853311599989,,,,517.8628991000005,517.8731848000025,517.8731848000025,517.9189112999884,517.9192291999934,517.9349915999919,517.9349915999919,517.9349915999919,518.0185436999891,518.4854775999993,,,,,,,,up,6.308617500006221,None,space,0.5452129000041168,None,,,,,,,,,,,,,,,P103,001,2025-02-12_15h25.30.679,posner_endo_new1,2024.2.4,59.962966874129805,2025-02-12 15h25.39.897264 +0000,
cube_l.png,0.1,0.31,invalid,45,45,0,up,9.30852920000325,None,space,0.5177432999917073,None,,,,,0,45,45,45,,,,,518.5015209999983,,,,,,,,,,,,,518.4857360999886,518.5015209999983,518.5015209999983,518.5015209999983,527.8260229000007,,,,527.835583299995,527.8459139999904,527.8459139999904,527.8918202999921,527.8921409999894,527.9083501999994,527.9083501999994,527.9083501999994,527.9916277000011,528.4422082999954,,,,,,,,up,9.30852920000325,None,space,0.5177432999917073,None,,,,,,,,,,,,,,,P103,001,2025-02-12_15h25.30.679,posner_endo_new1,2024.2.4,59.962966874129805,2025-02-12 15h25.39.897264 +0000,
cube_r.png,0.1,0.31,valid,46,46,0,up,10.511624700011453,None,space,0.4052081000118051,None,,,,,0,46,46,46,,,,,528.4580243999953,,,,,,,,,,,,,528.442461300001,528.4580243999953,528.4580243999953,528.4580243999953,538.9813883000024,,,,538.9908242999954,539.0011724999931,539.0011724999931,539.0468939999992,539.0472111999989,539.0634754999919,539.0634754999919,539.0634754999919,539.1468611000018,539.4809539999987,,,,,,,,up,10.511624700011453,None,space,0.4052081000118051,None,,,,,,,,,,,,,,,P103,001,2025-02-12_15h25.30.679,posner_endo_new1,2024.2.4,59.962966874129805,2025-02-12 15h25.39.897264 +0000,
cube_l.png,0.1,-0.31,valid,47,47,0,up,7.8898474000015995,None,space,0.3515761000016937,None,,,,,0,47,47,47,,,,,539.4965751999989,,,,,,,,,,,,,539.481205899996,539.4965751999989,539.4965751999989,539.4965751999989,547.3894178999908,,,,547.3988785999973,547.4092576999974,547.4092576999974,547.4551772999985,547.4554979999957,547.4714610999945,547.4714610999945,547.4714610999945,547.5549343999883,547.838829699991,,,,,,,,up,7.8898474000015995,None,space,0.3515761000016937,None,,,,,,,,,,,,,,,P103,001,2025-02-12_15h25.30.679,posner_endo_new1,2024.2.4,59.962966874129805,2025-02-12 15h25.39.897264 +0000,
cube_r.png,0.1,-0.31,invalid,48,48,0,up,10.6197714000009,None,space,0.36019359999045264,None,,,,,0,48,48,48,,,,,547.8546149999893,,,,,,,,,,,,,547.8390861999942,547.8546149999893,547.8546149999893,547.8546149999893,558.4780965999962,,,,558.4876048000006,558.497919699992,558.497919699992,558.5437392000022,558.5440572999942,558.5604631999886,558.5604631999886,558.5604631999886,558.6435582999984,558.9277421000006,,,,,,,,up,10.6197714000009,None,space,0.36019359999045264,None,,,,,,,,,,,,,,,P103,001,2025-02-12_15h25.30.679,posner_endo_new1,2024.2.4,59.962966874129805,2025-02-12 15h25.39.897264 +0000,
cube_r.png,0.1,10,catch,49,49,0,up,9.1071157999977,None,None,,,,,,,0,49,49,49,,,,,558.943300599989,,,,,,,,,,,,,558.9279913999926,558.943300599989,558.943300599989,558.943300599989,568.0519115999923,,,,568.0614964999986,568.0718183999998,568.0718183999998,568.1171546999976,568.1174757999979,568.133946499991,568.133946499991,568.133946499991,568.216901199994,571.1314096999995,,,,570.2317545999977,571.1471480999899,571.1471480999899,571.1471480999899,up,9.1071157999977,None,None,,,,,,,,,,,,,,,,,P103,001,2025-02-12_15h25.30.679,posner_endo_new1,2024.2.4,59.962966874129805,2025-02-12 15h25.39.897264 +0000,
cube_l.png,0.1,-0.31,valid,50,50,0,up,6.9914801999984775,None,space,0.407024400003138,None,,,,,0,50,50,50,,,,,571.1471480999899,,,,,,,,,,,,,571.1316517999949,571.1471480999899,571.1471480999899,571.1471480999899,578.1412928999925,,,,578.1508032999991,578.161142500001,578.161142500001,578.2070746999962,578.2073923999997,578.2235603000008,578.2235603000008,578.2235603000008,578.3069734000019,578.6407219999965,,,,,,,,up,6.9914801999984775,None,space,0.407024400003138,None,,,,,,,,,,,,,,,P103,001,2025-02-12_15h25.30.679,posner_endo_new1,2024.2.4,59.962966874129805,2025-02-12 15h25.39.897264 +0000,
cube_l.png,0.1,-0.31,valid,51,51,0,up,8.218291799988947,None,space,0.4879419000062626,None,,,,,0,51,51,51,,,,,578.6561517999944,,,,,,,,,,,,,578.6409828999895,578.6561517999944,578.6561517999944,578.6561517999944,586.8822602,,,,586.8918523999891,586.9020758999977,586.9020758999977,586.9482503999898,586.9485738999938,586.9643857999909,586.9643857999909,586.9643857999909,587.0476188999892,587.4653896999953,,,,,,,,up,8.218291799988947,None,space,0.4879419000062626,None,,,,,,,,,,,,,,,P103,001,2025-02-12_15h25.30.679,posner_endo_new1,2024.2.4,59.962966874129805,2025-02-12 15h25.39.897264 +0000,
cube_r.png,0.1,-0.31,invalid,52,52,0,up,9.057650000002468,None,space,0.5066721999901347,None,,,,,0,52,52,52,,,,,587.4806122000009,,,,,,,,,,,,,587.4656399999949,587.4806122000009,587.4806122000009,587.4806122000009,596.5394930999901,,,,596.5490321999969,596.5592826999928,596.5592826999928,596.6049805999937,596.6052989000018,596.621270299991,596.621270299991,596.621270299991,596.7043923999881,597.1387220999895,,,,,,,,up,9.057650000002468,None,space,0.5066721999901347,None,,,,,,,,,,,,,,,P103,001,2025-02-12_15h25.30.679,posner_endo_new1,2024.2.4,59.962966874129805,2025-02-12 15h25.39.897264 +0000,
cube_l.png,0.1,-0.31,valid,53,53,0,up,8.448017700007767,None,space,0.44448440000996925,None,,,,,0,53,53,53,,,,,597.1542648999894,,,,,,,,,,,,,597.1389785999927,597.1542648999894,597.1542648999894,597.1542648999894,605.6133190999972,,,,605.6230060999951,605.6332631999976,605.6332631999976,605.6790263000003,605.6793461999914,605.6955968999973,605.6955968999973,605.6955968999973,605.7787506000022,606.1459599999944,,,,,,,,up,8.448017700007767,None,space,0.44448440000996925,None,,,,,,,,,,,,,,,P103,001,2025-02-12_15h25.30.679,posner_endo_new1,2024.2.4,59.962966874129805,2025-02-12 15h25.39.897264 +0000,
cube_r.png,0.1,10,catch,54,54,0,up,7.544634300007601,None,None,,,,,,,0,54,54,54,,,,,606.1616940999957,,,,,,,,,,,,,606.1462165999983,606.1616940999957,606.1616940999957,606.1616940999957,613.721663999997,,,,613.7312196999992,613.7415990000009,613.7415990000009,613.7871088999964,613.7874331999919,613.8039564999926,613.8039564999926,613.8039564999926,613.8871270999953,616.8013709999941,,,,615.9014465999935,616.8172527999996,616.8172527999996,616.8172527999996,up,7.544634300007601,None,None,,,,,,,,,,,,,,,,,P103,001,2025-02-12_15h25.30.679,posner_endo_new1,2024.2.4,59.962966874129805,2025-02-12 15h25.39.897264 +0000,
cube_l.png,0.1,0.31,invalid,55,55,0,up,5.88922260000254,None,space,0.5555822999886004,None,,,,,0,55,55,55,,,,,616.8172527999996,,,,,,,,,,,,,616.8016096999927,616.8172527999996,616.8172527999996,616.8172527999996,622.7124014000001,,,,622.7220603999885,622.7324999999983,622.7324999999983,622.7781447000016,622.7784678000025,622.7948289999913,622.7948289999913,622.7948289999913,622.8779510000022,623.3618639999913,,,,,,,,up,5.88922260000254,None,space,0.5555822999886004,None,,,,,,,,,,,,,,,P103,001,2025-02-12_15h25.30.679,posner_endo_new1,2024.2.4,59.962966874129805,2025-02-12 15h25.39.897264 +0000,
cube_l.png,0.1,-0.31,valid,56,56,0,up,7.296819299997878,None,space,0.43939440000394825,None,,,,,0,56,56,56,,,,,623.3774837999954,,,,,,,,,,,,,623.3621136000002,623.3774837999954,623.3774837999954,623.3774837999954,630.6874128999916,,,,630.6969199000014,630.7073302999925,630.7073302999925,630.7532628999907,630.7535877999908,630.7699288000003,630.7699288000003,630.7699288000003,630.8364968999958,631.2205630999961,,,,,,,,up,7.296819299997878,None,space,0.43939440000394825,None,,,,,,,,,,,,,,,P103,001,2025-02-12_15h25.30.679,posner_endo_new1,2024.2.4,59.962966874129805,2025-02-12 15h25.39.897264 +0000,
cube_r.png,0.1,0.31,valid,57,57,0,up,7.070530899989535,None,space,0.7154415999975754,None,,,,,0,57,57,57,,,,,631.2360329999938,,,,,,,,,,,,,631.2208130999934,631.2360329999938,631.2360329999938,631.2360329999938,638.3130486000009,,,,638.3225160000002,638.3328298999986,638.3328298999986,638.378679100002,638.3789974999963,638.395080199989,638.395080199989,638.395080199989,638.4784529000026,639.1125767999911,,,,,,,,up,7.070530899989535,None,space,0.7154415999975754,None,,,,,,,,,,,,,,,P103,001,2025-02-12_15h25.30.679,posner_endo_new1,2024.2.4,59.962966874129805,2025-02-12 15h25.39.897264 +0000,
cube_r.png,0.1,-0.31,invalid,58,58,0,up,8.266045199998189,None,space,0.3947269999916898,None,,,,,0,58,58,58,,,,,639.1276804999943,,,,,,,,,,,,,639.1128293999936,639.1276804999943,639.1276804999943,639.1276804999943,647.4037074999942,,,,647.4132329999993,647.4236214999983,647.4236214999983,647.4695582999993,647.4698879999924,647.4858698999888,647.4858698999888,647.4858698999888,647.5524154000013,647.886666099992,,,,,,,,up,8.266045199998189,None,space,0.3947269999916898,None,,,,,,,,,,,,,,,P103,001,2025-02-12_15h25.30.679,posner_endo_new1,2024.2.4,59.962966874129805,2025-02-12 15h25.39.897264 +0000,
cube_l.png,0.1,0.31,invalid,59,59,0,up,8.275684300009743,None,space,0.5315533999964828,None,,,,,0,59,59,59,,,,,647.9019862999994,,,,,,,,,,,,,647.8869169999962,647.9019862999994,647.9019862999994,647.9019862999994,656.1950298000011,,,,656.2045510999887,656.2146170999913,656.2146170999913,656.2606343999942,656.2609578999982,656.2769485999888,656.2769485999888,656.2769485999888,656.3600067999942,656.8106835999934,,,,,,,,up,8.275684300009743,None,space,0.5315533999964828,None,,,,,,,,,,,,,,,P103,001,2025-02-12_15h25.30.679,posner_endo_new1,2024.2.4,59.962966874129805,2025-02-12 15h25.39.897264 +0000,
,,,,,,,,,,,,,,,,,,,,,,,,,,,,,,,,,,,,,,,,,,,,,,,,,,,,,,,,,,,,,,,,,,,,,656.8108460999938,656.8263796999963,656.8263796999963,716.8314988999919,751.8301349999965,space,94.99955190000765,None,,,,,,,P103,001,2025-02-12_15h25.30.679,posner_endo_new1,2024.2.4,59.962966874129805,2025-02-12 15h25.39.897264 +0000,
,,,,,,,,,,,,,,,,,,,,,,,,,,,,,,,,,,751.8302127999923,751.8458256000013,754.8594045999926,754.8265926999884,,,,,,,,,,,,,,,,,,,,,,,,,,,,,,,,,,,,,,,,,,,,,,P103,001,2025-02-12_15h25.30.679,posner_endo_new1,2024.2.4,59.962966874129805,2025-02-12 15h25.39.897264 +0000,
cube_l.png,0.1,10,catch,0,0,0,down,2.1110811999969883,None,None,,,,,,,,,,,0,0,0,0,754.8594045999926,,,,,,,,,,,,,754.8502900999883,754.8594045999926,754.8594045999926,754.8594045999926,756.9748481999995,,,,756.9808590999892,756.9923261999938,756.9923261999938,757.0408383999893,757.0410809999885,757.0575097999972,757.0575097999972,757.0575097999972,757.1236961999966,760.0560609999957,,,,759.1388945999934,760.0712476999906,760.0712476999906,760.0712476999906,,,,,,,,,,,,,,,down,2.1110811999969883,None,None,,,P103,001,2025-02-12_15h25.30.679,posner_endo_new1,2024.2.4,59.962966874129805,2025-02-12 15h25.39.897264 +0000,
cube_l.png,0.1,10,catch,1,1,0,down,7.0993299999972805,None,None,,,,,,,,,,,0,1,1,1,760.0712476999906,,,,,,,,,,,,,760.0566426000005,760.0712476999906,760.0712476999906,760.0712476999906,767.1833998999937,,,,767.2058543999883,767.2183471000026,767.2183471000026,767.2467265000014,767.2470930999989,767.263328999994,767.263328999994,767.263328999994,767.3467564999883,770.2610120000027,,,,769.3612420999998,770.2770149999997,770.2770149999997,770.2770149999997,,,,,,,,,,,,,,,down,7.0993299999972805,None,None,,,P103,001,2025-02-12_15h25.30.679,posner_endo_new1,2024.2.4,59.962966874129805,2025-02-12 15h25.39.897264 +0000,
cube_l.png,0.1,0.31,invalid,2,2,0,down,7.141336000000592,None,space,0.5126470999966841,None,,,,,,,,,0,2,2,2,770.2770149999997,,,,,,,,,,,,,770.2612986000022,770.2770149999997,770.2770149999997,770.2770149999997,777.421267999991,,,,777.4326743999991,777.4428961999947,777.4428961999947,777.4867361999932,777.4869978999923,777.502793599997,777.502793599997,777.502793599997,777.5863555999968,778.0198544000013,,,,,,,,,,,,,,,,,,,,,,down,7.141336000000592,None,space,0.5126470999966841,None,P103,001,2025-02-12_15h25.30.679,posner_endo_new1,2024.2.4,59.962966874129805,2025-02-12 15h25.39.897264 +0000,
cube_l.png,0.1,0.31,invalid,3,3,0,down,19.350092499997118,None,space,0.5209740999998758,None,,,,,,,,,0,3,3,3,778.0358504999895,,,,,,,,,,,,,778.0200595999922,778.0358504999895,778.0358504999895,778.0358504999895,797.4000222999894,,,,797.4084677999926,797.418949400002,797.418949400002,797.4660842000012,797.4663741999975,797.4826496999885,797.4826496999885,797.4826496999885,797.5489626999915,798.0161525000003,,,,,,,,,,,,,,,,,,,,,,down,19.350092499997118,None,space,0.5209740999998758,None,P103,001,2025-02-12_15h25.30.679,posner_endo_new1,2024.2.4,59.962966874129805,2025-02-12 15h25.39.897264 +0000,
cube_l.png,0.1,-0.31,valid,4,4,0,down,8.666328799998155,None,space,0.43498610000824556,None,,,,,,,,,0,4,4,4,798.0317654999963,,,,,,,,,,,,,798.0163859999884,798.0317654999963,798.0317654999963,798.0317654999963,806.7073202999891,,,,806.7132920000004,806.7249314999935,806.7249314999935,806.7733416999981,806.7735773000022,806.7899042999925,806.7899042999925,806.7899042999925,806.8564386999933,807.2400837999885,,,,,,,,,,,,,,,,,,,,,,down,8.666328799998155,None,space,0.43498610000824556,None,P103,001,2025-02-12_15h25.30.679,posner_endo_new1,2024.2.4,59.962966874129805,2025-02-12 15h25.39.897264 +0000,
cube_r.png,0.1,-0.31,invalid,5,5,0,down,8.986788000009255,None,space,0.519435499998508,None,,,,,,,,,0,5,5,5,807.2558874999959,,,,,,,,,,,,,807.2402633999882,807.2558874999959,807.2558874999959,807.2558874999959,816.2496873999917,,,,816.2685185000009,816.2792257999972,816.2792257999972,816.3135092000011,816.3139676999999,816.3298734999989,816.3298734999989,816.3298734999989,816.413161599994,816.8642389000015,,,,,,,,,,,,,,,,,,,,,,down,8.986788000009255,None,space,0.519435499998508,None,P103,001,2025-02-12_15h25.30.679,posner_endo_new1,2024.2.4,59.962966874129805,2025-02-12 15h25.39.897264 +0000,
cube_r.png,0.1,0.31,valid,6,6,0,down,10.194356599997263,None,space,0.9171963999979198,None,,,,,,,,,0,6,6,6,816.8794007999968,,,,,,,,,,,,,816.8646191000007,816.8794007999968,816.8794007999968,816.8794007999968,827.0868117999926,,,,827.096412999992,827.1068895999924,827.1068895999924,827.1524708999932,827.1528219999891,827.1690648999938,827.1690648999938,827.1690648999938,827.2522915000009,828.1024590000015,,,,,,,,,,,,,,,,,,,,,,down,10.194356599997263,None,space,0.9171963999979198,None,P103,001,2025-02-12_15h25.30.679,posner_endo_new1,2024.2.4,59.962966874129805,2025-02-12 15h25.39.897264 +0000,
cube_r.png,0.1,-0.31,invalid,7,7,0,down,7.9087940999888815,None,space,0.4844532999995863,None,,,,,,,,,0,7,7,7,828.1180079999904,,,,,,,,,,,,,828.1027181999962,828.1180079999904,828.1180079999904,828.1180079999904,836.0441208999982,,,,836.0536127999949,836.0636052999907,836.0636052999907,836.1097465999919,836.1100645999977,836.1264652999962,836.1264652999962,836.1264652999962,836.2094568999892,836.626688999997,,,,,,,,,,,,,,,,,,,,,,down,7.9087940999888815,None,space,0.4844532999995863,None,P103,001,2025-02-12_15h25.30.679,posner_endo_new1,2024.2.4,59.962966874129805,2025-02-12 15h25.39.897264 +0000,
cube_l.png,0.1,-0.31,valid,8,8,0,down,8.192561800009571,None,space,0.3860229999991134,None,,,,,,,,,0,8,8,8,836.6424976999988,,,,,,,,,,,,,836.6269528999983,836.6424976999988,836.6424976999988,836.6424976999988,844.8516452999902,,,,844.8610793999978,844.8711305999896,844.8711305999896,844.9173241999961,844.9176415999973,844.9339570000011,844.9339570000011,844.9339570000011,845.0170978999959,845.3348547999922,,,,,,,,,,,,,,,,,,,,,,down,8.192561800009571,None,space,0.3860229999991134,None,P103,001,2025-02-12_15h25.30.679,posner_endo_new1,2024.2.4,59.962966874129805,2025-02-12 15h25.39.897264 +0000,
cube_r.png,0.1,-0.31,invalid,9,9,0,down,8.123948599997675,None,space,0.4056235000025481,None,,,,,,,,,0,9,9,9,845.3503081999952,,,,,,,,,,,,,845.3351207999949,845.3503081999952,845.3503081999952,845.3503081999952,853.4763165999902,,,,853.4858730999986,853.4963199999911,853.4963199999911,853.5422071999928,853.5425256000017,853.5583415000001,853.5583415000001,853.5583415000001,853.6420152999926,853.9763005999994,,,,,,,,,,,,,,,,,,,,,,down,8.123948599997675,None,space,0.4056235000025481,None,P103,001,2025-02-12_15h25.30.679,posner_endo_new1,2024.2.4,59.962966874129805,2025-02-12 15h25.39.897264 +0000,
cube_l.png,0.1,0.31,invalid,10,10,0,down,7.836175899996306,None,space,0.3387335000006715,None,,,,,,,,,0,10,10,10,853.9913285999937,,,,,,,,,,,,,853.9765679999982,853.9913285999937,853.9913285999937,853.9913285999937,861.834906899996,,,,861.844431199992,861.854860099993,861.854860099993,861.9003608999919,861.9006807999976,861.9168884999963,861.9168884999963,861.9168884999963,861.9998869999981,862.2671539000003,,,,,,,,,,,,,,,,,,,,,,down,7.836175899996306,None,space,0.3387335000006715,None,P103,001,2025-02-12_15h25.30.679,posner_endo_new1,2024.2.4,59.962966874129805,2025-02-12 15h25.39.897264 +0000,
cube_r.png,0.1,-0.31,invalid,11,11,0,down,8.543826499997522,None,space,0.391134300007252,None,,,,,,,,,0,11,11,11,862.2828070999967,,,,,,,,,,,,,862.2674147999933,862.2828070999967,862.2828070999967,862.2828070999967,870.8420113999891,,,,870.8514890999941,870.8618903999886,870.8618903999886,870.9074835999927,870.9078033999976,870.9242642000027,870.9242642000027,870.9242642000027,871.0071772999945,871.3247854999936,,,,,,,,,,,,,,,,,,,,,,down,8.543826499997522,None,space,0.391134300007252,None,P103,001,2025-02-12_15h25.30.679,posner_endo_new1,2024.2.4,59.962966874129805,2025-02-12 15h25.39.897264 +0000,
cube_r.png,0.1,0.31,valid,12,12,0,down,9.437396200009971,None,space,0.481855899997754,None,,,,,,,,,0,12,12,12,871.3403190999961,,,,,,,,,,,,,871.3250431999913,871.3403190999961,871.3403190999961,871.3403190999961,880.7821476999961,,,,880.7916440999979,880.8020214999997,880.8020214999997,880.8472877999884,880.8476088000025,880.8637330999918,880.8637330999918,880.8637330999918,880.9472658000013,881.3478319999995,,,,,,,,,,,,,,,,,,,,,,down,9.437396200009971,None,space,0.481855899997754,None,P103,001,2025-02-12_15h25.30.679,posner_endo_new1,2024.2.4,59.962966874129805,2025-02-12 15h25.39.897264 +0000,
cube_l.png,0.1,10,catch,13,13,0,down,7.943274599994766,None,None,,,,,,,,,,,0,13,13,13,881.3636072999943,,,,,,,,,,,,,881.3480916999979,881.3636072999943,881.3636072999943,881.3636072999943,889.322922899999,,,,889.3323633999971,889.3427984000009,889.3427984000009,889.3885517000017,889.3888767999888,889.4050010999927,889.4050010999927,889.4050010999927,889.4885198999982,892.4027976999932,,,,891.503223599997,892.4188530999963,892.4188530999963,892.4188530999963,,,,,,,,,,,,,,,down,7.943274599994766,None,None,,,P103,001,2025-02-12_15h25.30.679,posner_endo_new1,2024.2.4,59.962966874129805,2025-02-12 15h25.39.897264 +0000,
cube_r.png,0.1,-0.31,invalid,14,14,0,down,6.071885700002895,None,space,0.42734520000522025,None,,,,,,,,,0,14,14,14,892.4188530999963,,,,,,,,,,,,,892.4030407999962,892.4188530999963,892.4188530999963,892.4188530999963,898.4968375999888,,,,898.5063865999982,898.5165617000021,898.5165617000021,898.5625340999977,898.562851900002,898.5792494999914,898.5792494999914,898.5792494999914,898.6456588000001,899.0129931999982,,,,,,,,,,,,,,,,,,,,,,down,6.071885700002895,None,space,0.42734520000522025,None,P103,001,2025-02-12_15h25.30.679,posner_endo_new1,2024.2.4,59.962966874129805,2025-02-12 15h25.39.897264 +0000,
cube_l.png,0.1,-0.31,valid,15,15,0,down,10.492984399999841,None,space,0.3431096999993315,None,,,,,,,,,0,15,15,15,899.0289620999974,,,,,,,,,,,,,899.0132508999959,899.0289620999974,899.0289620999974,899.0289620999974,909.5354713999986,,,,909.5450409999903,909.5553892999887,909.5553892999887,909.6011946999934,909.601514199996,909.6178084999992,909.6178084999992,909.6178084999992,909.701376099998,909.9686992999923,,,,,,,,,,,,,,,,,,,,,,down,10.492984399999841,None,space,0.3431096999993315,None,P103,001,2025-02-12_15h25.30.679,posner_endo_new1,2024.2.4,59.962966874129805,2025-02-12 15h25.39.897264 +0000,
cube_r.png,0.1,10,catch,16,16,0,down,11.513709999999264,None,None,,,,,,,,,,,0,16,16,16,909.9841103999934,,,,,,,,,,,,,909.9689607999899,909.9841103999934,909.9841103999934,909.9841103999934,921.5066596999968,,,,921.5161324999935,921.5264431999967,921.5264431999967,921.5726272999891,921.5729495999985,921.5887967000017,921.5887967000017,921.5887967000017,921.6554168000002,924.5868741000013,,,,923.6699986000021,924.6027408999944,924.6027408999944,924.6027408999944,,,,,,,,,,,,,,,down,11.513709999999264,None,None,,,P103,001,2025-02-12_15h25.30.679,posner_endo_new1,2024.2.4,59.962966874129805,2025-02-12 15h25.39.897264 +0000,
cube_r.png,0.1,10,catch,17,17,0,down,7.087386799990782,None,None,,,,,,,,,,,0,17,17,17,924.6027408999944,,,,,,,,,,,,,924.5871172999905,924.6027408999944,924.6027408999944,924.6027408999944,931.6964606999973,,,,931.7047249000025,931.7149546,931.7149546,931.7619971999957,931.762237899995,931.7788289000018,931.7788289000018,931.7788289000018,931.8620730999974,934.777333799997,,,,933.8768510999944,934.7925507999898,934.7925507999898,934.7925507999898,,,,,,,,,,,,,,,down,7.087386799990782,None,None,,,P103,001,2025-02-12_15h25.30.679,posner_endo_new1,2024.2.4,59.962966874129805,2025-02-12 15h25.39.897264 +0000,
cube_l.png,0.1,0.31,invalid,18,18,0,down,5.561393800002406,None,space,0.5655119000002742,None,,,,,,,,,0,18,18,18,934.7925507999898,,,,,,,,,,,,,934.7779142999934,934.7925507999898,934.7925507999898,934.7925507999898,940.3564309999929,,,,940.3760358,940.3863634000008,940.3863634000008,940.4196625999903,940.4200716999912,940.4361804999935,940.4361804999935,940.4361804999935,940.5195652999973,941.003389199992,,,,,,,,,,,,,,,,,,,,,,down,5.561393800002406,None,space,0.5655119000002742,None,P103,001,2025-02-12_15h25.30.679,posner_endo_new1,2024.2.4,59.962966874129805,2025-02-12 15h25.39.897264 +0000,
cube_l.png,0.1,10,catch,19,19,0,down,10.431381000002148,None,None,,,,,,,,,,,0,19,19,19,941.0191449999984,,,,,,,,,,,,,941.0036188999948,941.0191449999984,941.0191449999984,941.0191449999984,951.4612971999886,,,,951.4795804999885,951.4901883999992,951.4901883999992,951.5251396999956,951.5256021999958,951.5415601999994,951.5415601999994,951.5415601999994,951.6247787999891,954.5394647999929,,,,953.6395851999987,954.5550920999958,954.5550920999958,954.5550920999958,,,,,,,,,,,,,,,down,10.431381000002148,None,None,,,P103,001,2025-02-12_15h25.30.679,posner_endo_new1,2024.2.4,59.962966874129805,2025-02-12 15h25.39.897264 +0000,
cube_l.png,0.1,0.31,invalid,20,20,0,down,5.430899600003613,None,space,0.7067520999989938,None,,,,,,,,,0,20,20,20,954.5550920999958,,,,,,,,,,,,,954.5397233999975,954.5550920999958,954.5550920999958,954.5550920999958,960.0008412000025,,,,960.0104011999938,960.0207697000005,960.0207697000005,960.0664161000022,960.0667388000002,960.0831819000014,960.0831819000014,960.0831819000014,960.1662818999903,960.8001470000017,,,,,,,,,,,,,,,,,,,,,,down,5.430899600003613,None,space,0.7067520999989938,None,P103,001,2025-02-12_15h25.30.679,posner_endo_new1,2024.2.4,59.962966874129805,2025-02-12 15h25.39.897264 +0000,
cube_l.png,0.1,-0.31,valid,21,21,0,down,8.098447299998952,None,space,0.4066941000055522,None,,,,,,,,,0,21,21,21,960.8157198999979,,,,,,,,,,,,,960.8004095999931,960.8157198999979,960.8157198999979,960.8157198999979,968.9248660000012,,,,968.9344603999925,968.9447469000006,968.9447469000006,968.9905621999933,968.9908844999882,969.0071949999983,969.0071949999983,969.0071949999983,969.0735414999945,969.4247423999914,,,,,,,,,,,,,,,,,,,,,,down,8.098447299998952,None,space,0.4066941000055522,None,P103,001,2025-02-12_15h25.30.679,posner_endo_new1,2024.2.4,59.962966874129805,2025-02-12 15h25.39.897264 +0000,
cube_r.png,0.1,0.31,valid,22,22,0,down,7.690149200003361,None,space,0.4441428999998607,None,,,,,,,,,0,22,22,22,969.4398796999885,,,,,,,,,,,,,969.4250024999928,969.4398796999885,969.4398796999885,969.4398796999885,977.1335014999931,,,,977.1430020999978,977.1533685999893,977.1533685999893,977.1987349999981,977.1990577999968,977.2155606000015,977.2155606000015,977.2155606000015,977.2988117999921,977.6659164000012,,,,,,,,,,,,,,,,,,,,,,down,7.690149200003361,None,space,0.4441428999998607,None,P103,001,2025-02-12_15h25.30.679,posner_endo_new1,2024.2.4,59.962966874129805,2025-02-12 15h25.39.897264 +0000,
cube_r.png,0.1,-0.31,invalid,23,23,0,down,8.15204950000043,None,space,0.48133909999160096,None,,,,,,,,,0,23,23,23,977.6816986999911,,,,,,,,,,,,,977.6661774999957,977.6816986999911,977.6816986999911,977.6816986999911,985.8411758000002,,,,985.8507581000013,985.8611367999983,985.8611367999983,985.9067180999991,985.9070356000011,985.923315699998,985.923315699998,985.923315699998,986.0064693999884,986.4069933999999,,,,,,,,,,,,,,,,,,,,,,down,8.15204950000043,None,space,0.48133909999160096,None,P103,001,2025-02-12_15h25.30.679,posner_endo_new1,2024.2.4,59.962966874129805,2025-02-12 15h25.39.897264 +0000,
cube_r.png,0.1,0.31,valid,24,24,0,down,7.491962900006911,None,space,0.33525220000592526,None,,,,,,,,,0,24,24,24,986.4225436999986,,,,,,,,,,,,,986.4072594999889,986.4225436999986,986.4225436999986,986.4225436999986,993.916309799999,,,,993.9258881999995,993.9361619999981,993.9361619999981,993.9817014,993.9820171999891,993.9983071000024,993.9983071000024,993.9983071000024,994.0813194999937,994.3490306000022,,,,,,,,,,,,,,,,,,,,,,down,7.491962900006911,None,space,0.33525220000592526,None,P103,001,2025-02-12_15h25.30.679,posner_endo_new1,2024.2.4,59.962966874129805,2025-02-12 15h25.39.897264 +0000,
cube_r.png,0.1,-0.31,invalid,25,25,0,down,7.557492300009471,None,space,0.4228438999998616,None,,,,,,,,,0,25,25,25,994.3643488999951,,,,,,,,,,,,,994.3492906999891,994.3643488999951,994.3643488999951,994.3643488999951,1001.9247701999993,,,,1001.9336722000007,1001.9435106000019,1001.9435106000019,1001.9901820999949,1001.9904234999995,1002.0064477999986,1002.0064477999986,1002.0064477999986,1002.0902069000003,1002.4406073999999,,,,,,,,,,,,,,,,,,,,,,down,7.557492300009471,None,space,0.4228438999998616,None,P103,001,2025-02-12_15h25.30.679,posner_endo_new1,2024.2.4,59.962966874129805,2025-02-12 15h25.39.897264 +0000,
cube_l.png,0.1,-0.31,valid,26,26,0,down,8.057457999995677,None,space,0.4061565000010887,None,,,,,,,,,0,26,26,26,1002.4565552999993,,,,,,,,,,,,,1002.4407886999979,1002.4565552999993,1002.4565552999993,1002.4565552999993,1010.5177648999961,,,,1010.5402504999947,1010.5518740999978,1010.5518740999978,1010.581159399997,1010.5815008999925,1010.5977171999984,1010.5977171999984,1010.5977171999984,1010.681354100001,1011.0151261999999,,,,,,,,,,,,,,,,,,,,,,down,8.057457999995677,None,space,0.4061565000010887,None,P103,001,2025-02-12_15h25.30.679,posner_endo_new1,2024.2.4,59.962966874129805,2025-02-12 15h25.39.897264 +0000,
cube_r.png,0.1,0.31,valid,27,27,0,down,7.636548800001037,None,space,0.4783247000013944,None,,,,,,,,,0,27,27,27,1011.0309846000018,,,,,,,,,,,,,1011.0154073000012,1011.0309846000018,1011.0309846000018,1011.0309846000018,1018.6743523999903,,,,1018.6852369999979,1018.6954894999944,1018.6954894999944,1018.7400138999947,1018.740352599998,1018.7563986999885,1018.7563986999885,1018.7563986999885,1018.8393491999886,1019.2406549000007,,,,,,,,,,,,,,,,,,,,,,down,7.636548800001037,None,space,0.4783247000013944,None,P103,001,2025-02-12_15h25.30.679,posner_endo_new1,2024.2.4,59.962966874129805,2025-02-12 15h25.39.897264 +0000,
cube_r.png,0.1,10,catch,28,28,0,down,7.514041200003703,None,None,,,,,,,,,,,0,28,28,28,1019.2561242999946,,,,,,,,,,,,,1019.2409465999954,1019.2561242999946,1019.2561242999946,1019.2561242999946,1026.7823623000004,,,,1026.7928840999957,1026.803238099994,1026.803238099994,1026.8479892999894,1026.8483358999947,1026.8643914999993,1026.8643914999993,1026.8643914999993,1026.9478799999924,1029.8621174,,,,1028.9626397999964,1029.8783173999982,1029.8783173999982,1029.8783173999982,,,,,,,,,,,,,,,down,7.514041200003703,None,None,,,P103,001,2025-02-12_15h25.30.679,posner_endo_new1,2024.2.4,59.962966874129805,2025-02-12 15h25.39.897264 +0000,
cube_r.png,0.1,0.31,valid,29,29,0,down,5.612001900008181,None,space,0.4848838000034448,None,,,,,,,,,0,29,29,29,1029.8783173999982,,,,,,,,,,,,,1029.8624117,1029.8783173999982,1029.8783173999982,1029.8783173999982,1035.5068194999913,,,,1035.5176647999906,1035.527480299992,1035.527480299992,1035.5727632999915,1035.5731164000026,1035.5894490999926,1035.5894490999926,1035.5894490999926,1035.6724352999881,1036.0898247000005,,,,,,,,,,,,,,,,,,,,,,down,5.612001900008181,None,space,0.4848838000034448,None,P103,001,2025-02-12_15h25.30.679,posner_endo_new1,2024.2.4,59.962966874129805,2025-02-12 15h25.39.897264 +0000,
cube_r.png,0.1,0.31,valid,30,30,0,down,8.169103799998993,None,space,0.4604946000035852,None,,,,,,,,,0,30,30,30,1036.1051150999992,,,,,,,,,,,,,1036.0901133000007,1036.1051150999992,1036.1051150999992,1036.1051150999992,1044.2815770000016,,,,1044.2924848999974,1044.302805799991,1044.302805799991,1044.3466339000006,1044.346974999993,1044.363488099989,1044.363488099989,1044.363488099989,1044.4465727999923,1044.8306763,,,,,,,,,,,,,,,,,,,,,,down,8.169103799998993,None,space,0.4604946000035852,None,P103,001,2025-02-12_15h25.30.679,posner_endo_new1,2024.2.4,59.962966874129805,2025-02-12 15h25.39.897264 +0000,
cube_l.png,0.1,-0.31,valid,31,31,0,down,7.932367899993551,None,space,0.4251514000061434,None,,,,,,,,,0,31,31,31,1044.8461664999923,,,,,,,,,,,,,1044.8309612000012,1044.8461664999923,1044.8461664999923,1044.8461664999923,1052.789432199992,,,,1052.800283699995,1052.8104512999998,1052.8104512999998,1052.8548546999955,1052.8551977000025,1052.871163799995,1052.871163799995,1052.871163799995,1052.9544463999919,1053.3055762000004,,,,,,,,,,,,,,,,,,,,,,down,7.932367899993551,None,space,0.4251514000061434,None,P103,001,2025-02-12_15h25.30.679,posner_endo_new1,2024.2.4,59.962966874129805,2025-02-12 15h25.39.897264 +0000,
cube_r.png,0.1,0.31,valid,32,32,0,down,7.881492700005765,None,space,0.3608842999965418,None,,,,,,,,,0,32,32,32,1053.3206624000013,,,,,,,,,,,,,1053.3058559999918,1053.3206624000013,1053.3206624000013,1053.3206624000013,1061.214032799995,,,,1061.2249422000023,1061.235059899991,1061.235059899991,1061.2793478999956,1061.2796947999886,1061.2960079999903,1061.2960079999903,1061.2960079999903,1061.3791004999948,1061.6639599999908,,,,,,,,,,,,,,,,,,,,,,down,7.881492700005765,None,space,0.3608842999965418,None,P103,001,2025-02-12_15h25.30.679,posner_endo_new1,2024.2.4,59.962966874129805,2025-02-12 15h25.39.897264 +0000,
cube_r.png,0.1,-0.31,invalid,33,33,0,down,9.299056900010328,None,space,0.48643870001251344,None,,,,,,,,,0,33,33,33,1061.6792362999986,,,,,,,,,,,,,1061.6642570999975,1061.6792362999986,1061.6792362999986,1061.6792362999986,1070.9874909999926,,,,1070.9960938000004,1071.0063793000008,1071.0063793000008,1071.0530861000007,1071.0533336999943,1071.0695374999923,1071.0695374999923,1071.0695374999923,1071.1529685999994,1071.5701252,,,,,,,,,,,,,,,,,,,,,,down,9.299056900010328,None,space,0.48643870001251344,None,P103,001,2025-02-12_15h25.30.679,posner_endo_new1,2024.2.4,59.962966874129805,2025-02-12 15h25.39.897264 +0000,
cube_r.png,0.1,10,catch,34,34,0,down,8.777010599995265,None,None,,,,,,,,,,,0,34,34,34,1071.5851785999985,,,,,,,,,,,,,1071.5703202000004,1071.5851785999985,1071.5851785999985,1071.5851785999985,1080.3772651999898,,,,1080.3859620000003,1080.3962305999885,1080.3962305999885,1080.4432513999927,1080.4435546999885,1080.4599591000006,1080.4599591000006,1080.4599591000006,1080.542924399997,1083.4576271999977,,,,1082.5577159999957,1083.4731971,1083.4731971,1083.4731971,,,,,,,,,,,,,,,down,8.777010599995265,None,None,,,P103,001,2025-02-12_15h25.30.679,posner_endo_new1,2024.2.4,59.962966874129805,2025-02-12 15h25.39.897264 +0000,
cube_r.png,0.1,0.31,valid,35,35,0,down,6.153617699994356,None,space,0.46282739999878686,None,,,,,,,,,0,35,35,35,1083.4731971,,,,,,,,,,,,,1083.4578490999993,1083.4731971,1083.4731971,1083.4731971,1089.6366100000014,,,,1089.6563473999995,1089.6666531999945,1089.6666531999945,1089.7003791000025,1089.7007974000007,1089.7167906999966,1089.7167906999966,1089.7167906999966,1089.8001023999968,1090.1844311000023,,,,,,,,,,,,,,,,,,,,,,down,6.153617699994356,None,space,0.46282739999878686,None,P103,001,2025-02-12_15h25.30.679,posner_endo_new1,2024.2.4,59.962966874129805,2025-02-12 15h25.39.897264 +0000,
cube_r.png,0.1,-0.31,invalid,36,36,0,down,9.482867400001851,None,space,0.6389412999997148,None,,,,,,,,,0,36,36,36,1090.199714199989,,,,,,,,,,,,,1090.1847814999928,1090.199714199989,1090.199714199989,1090.199714199989,1099.691265100002,,,,1099.703892999998,1099.7140875999903,1099.7140875999903,1099.7567374999926,1099.7571387999924,1099.7732002999983,1099.7732002999983,1099.7732002999983,1099.856417099989,1100.4239055999933,,,,,,,,,,,,,,,,,,,,,,down,9.482867400001851,None,space,0.6389412999997148,None,P103,001,2025-02-12_15h25.30.679,posner_endo_new1,2024.2.4,59.962966874129805,2025-02-12 15h25.39.897264 +0000,
cube_l.png,0.1,0.31,invalid,37,37,0,down,8.178551300006802,None,space,0.45289479999337345,None,,,,,,,,,0,37,37,37,1100.4392481999967,,,,,,,,,,,,,1100.424253899997,1100.4392481999967,1100.4392481999967,1100.4392481999967,1108.6316687999933,,,,1108.6381068999908,1108.6497460999963,1108.6497460999963,1108.6978622000024,1108.6980976999912,1108.7143466999987,1108.7143466999987,1108.7143466999987,1108.7807818,1109.183392299994,,,,,,,,,,,,,,,,,,,,,,down,8.178551300006802,None,space,0.45289479999337345,None,P103,001,2025-02-12_15h25.30.679,posner_endo_new1,2024.2.4,59.962966874129805,2025-02-12 15h25.39.897264 +0000,
cube_l.png,0.1,0.31,invalid,38,38,0,down,9.628824899991741,None,space,0.5130153000063729,None,,,,,,,,,0,38,38,38,1109.1975324999948,,,,,,,,,,,,,1109.1839983999962,1109.1975324999948,1109.1975324999948,1109.1975324999948,1118.840149800002,,,,1118.8637393999961,1118.876101499991,1118.876101499991,1118.9037062999996,1118.904065099996,1118.9205288999947,1118.9205288999947,1118.9205288999947,1119.0034694999922,1119.4382699999987,,,,,,,,,,,,,,,,,,,,,,down,9.628824899991741,None,space,0.5130153000063729,None,P103,001,2025-02-12_15h25.30.679,posner_endo_new1,2024.2.4,59.962966874129805,2025-02-12 15h25.39.897264 +0000,
cube_r.png,0.1,0.31,valid,39,39,0,down,9.604877000005217,None,space,0.9315279000002192,None,,,,,,,,,0,39,39,39,1119.453156699994,,,,,,,,,,,,,1119.4385795999988,1119.453156699994,1119.453156699994,1119.453156699994,1129.0615888999891,,,,1129.0732927999925,1129.0835847999988,1129.0835847999988,1129.1269930999988,1129.127351499992,1129.1431968999968,1129.1431968999968,1129.1431968999968,1129.2267155000009,1130.0770376,,,,,,,,,,,,,,,,,,,,,,down,9.604877000005217,None,space,0.9315279000002192,None,P103,001,2025-02-12_15h25.30.679,posner_endo_new1,2024.2.4,59.962966874129805,2025-02-12 15h25.39.897264 +0000,
cube_l.png,0.1,0.31,invalid,40,40,0,down,8.517535099992529,None,space,0.367743499999051,None,,,,,,,,,0,40,40,40,1130.0923888999969,,,,,,,,,,,,,1130.0773367999936,1130.0923888999969,1130.0923888999969,1130.0923888999969,1138.6177524999948,,,,1138.6250606999965,1138.6367439000023,1138.6367439000023,1138.6838915999979,1138.684401599996,1138.7002686999913,1138.7002686999913,1138.7002686999913,1138.7668982999894,1139.0850370999979,,,,,,,,,,,,,,,,,,,,,,down,8.517535099992529,None,space,0.367743499999051,None,P103,001,2025-02-12_15h25.30.679,posner_endo_new1,2024.2.4,59.962966874129805,2025-02-12 15h25.39.897264 +0000,
cube_l.png,0.1,10,catch,41,41,0,down,8.358882000000449,None,None,,,,,,,,,,,0,41,41,41,1139.0998360999947,,,,,,,,,,,,,1139.085479100002,1139.0998360999947,1139.0998360999947,1139.0998360999947,1147.4611767000024,,,,1147.4837663999933,1147.4963739999948,1147.4963739999948,1147.524338999996,1147.5246743000025,1147.5408242999983,1147.5408242999983,1147.5408242999983,1147.624263699996,1150.5389748000016,,,,1149.6390698999894,1150.5549669999891,1150.5549669999891,1150.5549669999891,,,,,,,,,,,,,,,down,8.358882000000449,None,None,,,P103,001,2025-02-12_15h25.30.679,posner_endo_new1,2024.2.4,59.962966874129805,2025-02-12 15h25.39.897264 +0000,
cube_l.png,0.1,-0.31,valid,42,42,0,down,7.127417600000626,None,space,0.5310473999998067,None,,,,,,,,,0,42,42,42,1150.5549669999891,,,,,,,,,,,,,1150.5392256999912,1150.5549669999891,1150.5549669999891,1150.5549669999891,1157.7000652999996,,,,1157.722500799995,1157.7321985000017,1157.7321985000017,1157.7639554999914,1157.7643153999961,1157.7807365999906,1157.7807365999906,1157.7807365999906,1157.8637593999883,1158.314953299996,,,,,,,,,,,,,,,,,,,,,,down,7.127417600000626,None,space,0.5310473999998067,None,P103,001,2025-02-12_15h25.30.679,posner_endo_new1,2024.2.4,59.962966874129805,2025-02-12 15h25.39.897264 +0000,
cube_l.png,0.1,10,catch,43,43,0,down,9.951493100001244,None,None,,,,,,,,,,,0,43,43,43,1158.330311999991,,,,,,,,,,,,,1158.315245699996,1158.330311999991,1158.330311999991,1158.330311999991,1168.2878206999885,,,,1168.2992758999899,1168.3096201000008,1168.3096201000008,1168.3534813000006,1168.3537440999935,1168.3699199999974,1168.3699199999974,1168.3699199999974,1168.4529549,1171.3686372999946,,,,1170.4681861999998,1171.3838968999917,1171.3838968999917,1171.3838968999917,,,,,,,,,,,,,,,down,9.951493100001244,None,None,,,P103,001,2025-02-12_15h25.30.679,posner_endo_new1,2024.2.4,59.962966874129805,2025-02-12 15h25.39.897264 +0000,
cube_l.png,0.1,0.31,invalid,44,44,0,down,6.170510299998568,None,space,0.48689159999776166,None,,,,,,,,,0,44,44,44,1171.3838968999917,,,,,,,,,,,,,1171.3692077000014,1171.3838968999917,1171.3838968999917,1171.3838968999917,1177.5634253000026,,,,1177.5843913999997,1177.5949560000008,1177.5949560000008,1177.6269631999894,1177.6273285999923,1177.6434455999988,1177.6434455999988,1177.6434455999988,1177.7267979999888,1178.1442802999954,,,,,,,,,,,,,,,,,,,,,,down,6.170510299998568,None,space,0.48689159999776166,None,P103,001,2025-02-12_15h25.30.679,posner_endo_new1,2024.2.4,59.962966874129805,2025-02-12 15h25.39.897264 +0000,
cube_l.png,0.1,0.31,invalid,45,45,0,down,8.546420599988778,None,space,0.46240399999078363,None,,,,,,,,,0,45,45,45,1178.1599681999942,,,,,,,,,,,,,1178.1445880999963,1178.1599681999942,1178.1599681999942,1178.1599681999942,1186.718983999992,,,,1186.7315207999927,1186.7417289000005,1186.7417289000005,1186.7844866999949,1186.7848870000016,1186.8008248999977,1186.8008248999977,1186.8008248999977,1186.8840420999913,1187.2686354999896,,,,,,,,,,,,,,,,,,,,,,down,8.546420599988778,None,space,0.46240399999078363,None,P103,001,2025-02-12_15h25.30.679,posner_endo_new1,2024.2.4,59.962966874129805,2025-02-12 15h25.39.897264 +0000,
cube_r.png,0.1,0.31,valid,46,46,0,down,8.982115899998462,None,space,0.35511370000313036,None,,,,,,,,,0,46,46,46,1187.2840275999915,,,,,,,,,,,,,1187.2689690999978,1187.2840275999915,1187.2840275999915,1187.2840275999915,1196.2755131000013,,,,1196.2833182999893,1196.2944870999927,1196.2944870999927,1196.3415513999935,1196.3420696999965,1196.3579495000013,1196.3579495000013,1196.3579495000013,1196.4411901999993,1196.7260543000011,,,,,,,,,,,,,,,,,,,,,,down,8.982115899998462,None,space,0.35511370000313036,None,P103,001,2025-02-12_15h25.30.679,posner_endo_new1,2024.2.4,59.962966874129805,2025-02-12 15h25.39.897264 +0000,
cube_l.png,0.1,-0.31,valid,47,47,0,down,9.10957739999867,None,space,0.5577028999978211,None,,,,,,,,,0,47,47,47,1196.7409202999988,,,,,,,,,,,,,1196.7264956,1196.7409202999988,1196.7409202999988,1196.7409202999988,1205.866256399997,,,,1205.8758742999926,1205.8857482000021,1205.8857482000021,1205.9318614999938,1205.9321288999927,1205.94822559999,1205.94822559999,1205.94822559999,1206.0315070999932,1206.5147289000015,,,,,,,,,,,,,,,,,,,,,,down,9.10957739999867,None,space,0.5577028999978211,None,P103,001,2025-02-12_15h25.30.679,posner_endo_new1,2024.2.4,59.962966874129805,2025-02-12 15h25.39.897264 +0000,
cube_r.png,0.1,-0.31,invalid,48,48,0,down,7.983011400006944,None,space,0.4690640000044368,None,,,,,,,,,0,48,48,48,1206.5310687999881,,,,,,,,,,,,,1206.5149288999964,1206.5310687999881,1206.5310687999881,1206.5310687999881,1214.5255405999924,,,,1214.546081099994,1214.5567249000014,1214.5567249000014,1214.5893376999884,1214.589785899996,1214.6058650999912,1214.6058650999912,1214.6058650999912,1214.6891658999957,1215.0896691999951,,,,,,,,,,,,,,,,,,,,,,down,7.983011400006944,None,space,0.4690640000044368,None,P103,001,2025-02-12_15h25.30.679,posner_endo_new1,2024.2.4,59.962966874129805,2025-02-12 15h25.39.897264 +0000,
cube_r.png,0.1,10,catch,49,49,0,down,8.728725299995858,None,None,,,,,,,,,,,0,49,49,49,1215.105584399993,,,,,,,,,,,,,1215.0899395000015,1215.105584399993,1215.105584399993,1215.105584399993,1223.8476824999962,,,,1223.8572915999976,1223.8676063999883,1223.8676063999883,1223.913075599994,1223.9133961999905,1223.9298031999933,1223.9298031999933,1223.9298031999933,1224.012833899993,1226.9272060999938,,,,1226.0277626000025,1226.9434656999947,1226.9434656999947,1226.9434656999947,,,,,,,,,,,,,,,down,8.728725299995858,None,None,,,P103,001,2025-02-12_15h25.30.679,posner_endo_new1,2024.2.4,59.962966874129805,2025-02-12 15h25.39.897264 +0000,
cube_l.png,0.1,-0.31,valid,50,50,0,down,7.338891400009743,None,space,0.3923871000006329,None,,,,,,,,,0,50,50,50,1226.9434656999947,,,,,,,,,,,,,1226.9274489999952,1226.9434656999947,1226.9434656999947,1226.9434656999947,1234.2872511999885,,,,1234.296850300001,1234.306985099989,1234.306985099989,1234.3524487999966,1234.352767199991,1234.3688126999914,1234.3688126999914,1234.3688126999914,1234.4523878999898,1234.769498499998,,,,,,,,,,,,,,,,,,,,,,down,7.338891400009743,None,space,0.3923871000006329,None,P103,001,2025-02-12_15h25.30.679,posner_endo_new1,2024.2.4,59.962966874129805,2025-02-12 15h25.39.897264 +0000,
cube_l.png,0.1,-0.31,valid,51,51,0,down,10.281088199990336,None,space,0.4671639000007417,None,,,,,,,,,0,51,51,51,1234.7851744999934,,,,,,,,,,,,,1234.769769599996,1234.7851744999934,1234.7851744999934,1234.7851744999934,1245.0759450999903,,,,1245.0898727000022,1245.1022164000024,1245.1022164000024,1245.1416023999918,1245.142052700001,1245.1578909999953,1245.1578909999953,1245.1578909999953,1245.241369299998,1245.6420118999959,,,,,,,,,,,,,,,,,,,,,,down,10.281088199990336,None,space,0.4671639000007417,None,P103,001,2025-02-12_15h25.30.679,posner_endo_new1,2024.2.4,59.962966874129805,2025-02-12 15h25.39.897264 +0000,
cube_r.png,0.1,-0.31,invalid,52,52,0,down,9.233479100003024,None,space,0.3827138000051491,None,,,,,,,,,0,52,52,52,1245.6573757000006,,,,,,,,,,,,,1245.6422752999933,1245.6573757000006,1245.6573757000006,1245.6573757000006,1254.8992899000004,,,,1254.9088196999946,1254.9189872999996,1254.9189872999996,1254.9649836999888,1254.9653096999973,1254.9810809999908,1254.9810809999908,1254.9810809999908,1255.0642700000026,1255.3657476999942,,,,,,,,,,,,,,,,,,,,,,down,9.233479100003024,None,space,0.3827138000051491,None,P103,001,2025-02-12_15h25.30.679,posner_endo_new1,2024.2.4,59.962966874129805,2025-02-12 15h25.39.897264 +0000,
cube_l.png,0.1,-0.31,valid,53,53,0,down,10.581986500008497,None,space,0.3606744999997318,None,,,,,,,,,0,53,53,53,1255.380795399993,,,,,,,,,,,,,1255.3660125000024,1255.380795399993,1255.380795399993,1255.380795399993,1265.971338599993,,,,1265.980978099993,1265.9913762999931,1265.9913762999931,1266.0369033999887,1266.037221199993,1266.053028800001,1266.053028800001,1266.053028800001,1266.1363910999935,1266.4208246999915,,,,,,,,,,,,,,,,,,,,,,down,10.581986500008497,None,space,0.3606744999997318,None,P103,001,2025-02-12_15h25.30.679,posner_endo_new1,2024.2.4,59.962966874129805,2025-02-12 15h25.39.897264 +0000,
cube_r.png,0.1,10,catch,54,54,0,down,9.41455460000725,None,None,,,,,,,,,,,0,54,54,54,1266.4363734999934,,,,,,,,,,,,,1266.4210834999976,1266.4363734999934,1266.4363734999934,1266.4363734999934,1275.8612519000017,,,,1275.8708394999994,1275.8812712999934,1275.8812712999934,1275.9267096999974,1275.9270348999999,1275.9433390999911,1275.9433390999911,1275.9433390999911,1276.0262545000005,1278.9408262999932,,,,1278.0408205999993,1278.956941299999,1278.956941299999,1278.956941299999,,,,,,,,,,,,,,,down,9.41455460000725,None,None,,,P103,001,2025-02-12_15h25.30.679,posner_endo_new1,2024.2.4,59.962966874129805,2025-02-12 15h25.39.897264 +0000,
cube_l.png,0.1,0.31,invalid,55,55,0,down,7.061746499995934,None,space,0.5575414000049932,None,,,,,,,,,0,55,55,55,1278.956941299999,,,,,,,,,,,,,1278.941075099996,1278.956941299999,1278.956941299999,1278.956941299999,1286.0341147,,,,1286.043692399995,1286.0540357999998,1286.0540357999998,1286.0994720000017,1286.0997971999896,1286.1159753999964,1286.1159753999964,1286.1159753999964,1286.199407299995,1286.6834203999897,,,,,,,,,,,,,,,,,,,,,,down,7.061746499995934,None,space,0.5575414000049932,None,P103,001,2025-02-12_15h25.30.679,posner_endo_new1,2024.2.4,59.962966874129805,2025-02-12 15h25.39.897264 +0000,
cube_l.png,0.1,-0.31,valid,56,56,0,down,9.335817899991525,None,space,0.4699513000086881,None,,,,,,,,,0,56,56,56,1286.6986838000012,,,,,,,,,,,,,1286.6836900999915,1286.6986838000012,1286.6986838000012,1286.6986838000012,1296.0405971,,,,1296.0501168999908,1296.0605534999922,1296.0605534999922,1296.1060519999883,1296.1063789999898,1296.122409299991,1296.122409299991,1296.122409299991,1296.205821999989,1296.6066914999974,,,,,,,,,,,,,,,,,,,,,,down,9.335817899991525,None,space,0.4699513000086881,None,P103,001,2025-02-12_15h25.30.679,posner_endo_new1,2024.2.4,59.962966874129805,2025-02-12 15h25.39.897264 +0000,
cube_r.png,0.1,0.31,valid,57,57,0,down,9.411942100006854,None,space,0.36657469999045134,None,,,,,,,,,0,57,57,57,1296.621867599999,,,,,,,,,,,,,1296.6069504999905,1296.621867599999,1296.621867599999,1296.621867599999,1306.0467184000008,,,,1306.0562217999977,1306.0664601000026,1306.0664601000026,1306.1123056999932,1306.1126241999882,1306.1291902999947,1306.1291902999947,1306.1291902999947,1306.1957045000017,1306.5129930999974,,,,,,,,,,,,,,,,,,,,,,down,9.411942100006854,None,space,0.36657469999045134,None,P103,001,2025-02-12_15h25.30.679,posner_endo_new1,2024.2.4,59.962966874129805,2025-02-12 15h25.39.897264 +0000,
cube_r.png,0.1,-0.31,invalid,58,58,0,down,8.857846300001256,None,space,0.39189620000252035,None,,,,,,,,,0,58,58,58,1306.5284525000025,,,,,,,,,,,,,1306.5132542999927,1306.5284525000025,1306.5284525000025,1306.5284525000025,1315.3873900999897,,,,1315.3970215000008,1315.4074298999913,1315.4074298999913,1315.4531271000014,1315.453457999989,1315.4693370999885,1315.4693370999885,1315.4693370999885,1315.5528118999937,1315.87001649999,,,,,,,,,,,,,,,,,,,,,,down,8.857846300001256,None,space,0.39189620000252035,None,P103,001,2025-02-12_15h25.30.679,posner_endo_new1,2024.2.4,59.962966874129805,2025-02-12 15h25.39.897264 +0000,
cube_l.png,0.1,0.31,invalid,59,59,0,down,9.244243499997538,None,space,0.5818017999990843,None,,,,,,,,,0,59,59,59,1315.885826999991,,,,,,,,,,,,,1315.870279900002,1315.885826999991,1315.885826999991,1315.885826999991,1325.1439046000014,,,,1325.153212099991,1325.1631127,1325.1631127,1325.209806599989,1325.21004369999,1325.2261784000002,1325.2261784000002,1325.2261784000002,1325.3096719999885,1325.8099253999972,,,,,,,,,,,,,,,,,,,,,,down,9.244243499997538,None,space,0.5818017999990843,None,P103,001,2025-02-12_15h25.30.679,posner_endo_new1,2024.2.4,59.962966874129805,2025-02-12 15h25.39.897264 +0000,
