cue_img,cue_soa,target_x,trial,thisN,thisTrialN,thisRepN,key_control2.keys,key_control2.rt,key_control2.duration,key_resp.keys,key_resp.rt,key_resp.duration,practice.thisRepN,practice.thisTrialN,practice.thisN,practice.thisIndex,block1.thisRepN,block1.thisTrialN,block1.thisN,block1.thisIndex,block2.thisRepN,block2.thisTrialN,block2.thisN,block2.thisIndex,thisRow.t,notes,instructions.started,instructions_txt.started,key_control.started,instructions.stopped,key_control.keys,key_control.rt,key_control.duration,ready.started,ready_txt.started,ready_txt.stopped,ready.stopped,fix.started,fixation.started,key_control2.started,fixation_cross.started,fix.stopped,practice.key_control2.keys,practice.key_control2.rt,practice.key_control2.duration,cue.started,cube.started,fixation_cross_cue.started,cue.stopped,target.started,fixation_target.started,fixation_cross_target.started,key_resp.started,star.started,target.stopped,practice.key_resp.keys,practice.key_resp.rt,practice.key_resp.duration,star.stopped,fixation_target.stopped,fixation_cross_target.stopped,key_resp.stopped,block1.key_control2.keys,block1.key_control2.rt,block1.key_control2.duration,block1.key_resp.keys,block1.key_resp.rt,block1.key_resp.duration,break_2.started,text.started,key_control3.started,text.stopped,break_2.stopped,key_control3.keys,key_control3.rt,key_control3.duration,block2.key_control2.keys,block2.key_control2.rt,block2.key_control2.duration,block2.key_resp.keys,block2.key_resp.rt,block2.key_resp.duration,participant,session,date,expName,psychopyVersion,frameRate,expStart,
,,,,,,,,,,,,,,,,,,,,,,,,,,,0.007597199990414083,0.026112199993804097,0.026112199993804097,27.836903100003838,up,27.80049359999248,None,,,,,,,,,,,,,,,,,,,,,,,,,,,,,,,,,,,,,,,,,,,,,,,,,,P104,001,2025-02-12_17h02.34.779,posner_endo_new1,2024.2.4,60.11392791942074,2025-02-12 17h02.42.762941 +0000,
,,,,,,,,,,,,,,,,,,,,,,,,,,,,,,,,,,27.836969600000884,27.848852800001623,30.87037039999268,30.830236900001182,,,,,,,,,,,,,,,,,,,,,,,,,,,,,,,,,,,,,,,,,,,,,,P104,001,2025-02-12_17h02.34.779,posner_endo_new1,2024.2.4,60.11392791942074,2025-02-12 17h02.42.762941 +0000,
cube_l.png,0.1,-0.31,valid,0,0,0,down,13.339908399997512,None,space,0.38570469999103807,None,0,0,0,0,,,,,,,,,30.87037039999268,,,,,,,,,,,,,30.858543700000155,30.87037039999268,30.87037039999268,30.87037039999268,44.21586640000169,down,13.339908399997512,None,44.230954799990286,44.24206299999787,44.24206299999787,44.281783400001586,44.28202739999688,44.298131199990166,44.298131199990166,44.298131199990166,44.380967299992335,44.69798489999084,space,0.38570469999103807,None,,,,,,,,,,,,,,,,,,,,,,,,,P104,001,2025-02-12_17h02.34.779,posner_endo_new1,2024.2.4,60.11392791942074,2025-02-12 17h02.42.762941 +0000,
cube_l.png,0.1,0.31,invalid,1,1,0,down,8.112309499992989,None,space,0.37329550000140443,None,0,1,1,1,,,,,,,,,44.714344599997276,,,,,,,,,,,,,44.69816109999374,44.714344599997276,44.714344599997276,44.714344599997276,52.8423000999901,down,8.112309499992989,None,52.86739579999994,52.87957429999369,52.87957429999369,52.9057613999903,52.90612250000413,52.92212419999123,52.92212419999123,52.92212419999123,53.00560489999771,53.30657240000437,space,0.37329550000140443,None,,,,,,,,,,,,,,,,,,,,,,,,,P104,001,2025-02-12_17h02.34.779,posner_endo_new1,2024.2.4,60.11392791942074,2025-02-12 17h02.42.762941 +0000,
cube_r.png,0.1,-0.31,invalid,2,2,0,down,7.856372800000827,None,space,0.42076039999665227,None,0,2,2,2,,,,,,,,,53.322381599995424,,,,,,,,,,,,,53.306769299990265,53.322381599995424,53.322381599995424,53.322381599995424,61.18423990000156,down,7.856372800000827,None,61.209115199992084,61.221442499998375,61.221442499998375,61.2472390000039,61.24760989999049,61.26386589999311,61.26386589999311,61.26386589999311,61.34727879999264,61.69829729999765,space,0.42076039999665227,None,,,,,,,,,,,,,,,,,,,,,,,,,P104,001,2025-02-12_17h02.34.779,posner_endo_new1,2024.2.4,60.11392791942074,2025-02-12 17h02.42.762941 +0000,
cube_r.png,0.1,10,catch,3,3,0,down,7.265226799994707,None,None,,,0,3,3,3,,,,,,,,,61.71345559999463,,,,,,,,,,,,,61.69860699999845,61.71345559999463,61.71345559999463,61.71345559999463,68.99042249999184,down,7.265226799994707,None,69.00277209999331,69.01311569999962,69.01311569999962,69.05645010000444,69.05670099999406,69.07277410000097,69.07277410000097,69.07277410000097,69.13897759999963,72.07140159999835,None,,,71.15432790000341,72.08665979999932,72.08665979999932,72.08665979999932,,,,,,,,,,,,,,,,,,,,,P104,001,2025-02-12_17h02.34.779,posner_endo_new1,2024.2.4,60.11392791942074,2025-02-12 17h02.42.762941 +0000,
cube_l.png,0.1,-0.31,valid,4,4,0,down,3.8917447999992874,None,space,0.3945022000116296,None,0,4,4,4,,,,,,,,,72.08665979999932,,,,,,,,,,,,,72.07192259999283,72.08665979999932,72.08665979999932,72.08665979999932,75.98529509999207,down,3.8917447999992874,None,76.00804489999427,76.01865060000273,76.01865060000273,76.04915429999528,76.04951099999016,76.06568030000199,76.06568030000199,76.06568030000199,76.14885529999447,76.46617780000088,space,0.3945022000116296,None,,,,,,,,,,,,,,,,,,,,,,,,,P104,001,2025-02-12_17h02.34.779,posner_endo_new1,2024.2.4,60.11392791942074,2025-02-12 17h02.42.762941 +0000,
cube_l.png,0.1,0.31,invalid,5,5,0,down,4.352289000002202,None,space,0.37044639998930506,None,0,5,5,5,,,,,,,,,76.48193690000335,,,,,,,,,,,,,76.46644540000125,76.48193690000335,76.48193690000335,76.48193690000335,80.84489870000107,down,4.352289000002202,None,80.85569149999355,80.86618080000335,80.86618080000335,80.91091429999506,80.91126389999408,80.92705959999876,80.92705959999876,80.92705959999876,81.01067229999171,81.311237300004,space,0.37044639998930506,None,,,,,,,,,,,,,,,,,,,,,,,,,P104,001,2025-02-12_17h02.34.779,posner_endo_new1,2024.2.4,60.11392791942074,2025-02-12 17h02.42.762941 +0000,
cube_r.png,0.1,-0.31,invalid,6,6,0,down,3.5088951000070665,None,space,0.4033936000050744,None,0,6,6,6,,,,,,,,,81.32663329999195,,,,,,,,,,,,,81.31151119999413,81.32663329999195,81.32663329999195,81.32663329999195,84.8406638000015,down,3.5088951000070665,None,84.84716019999178,84.85871649999171,84.85871649999171,84.90679649999947,84.90703349999967,84.92292270000326,84.92292270000326,84.92292270000326,85.00597299999208,85.34231520000321,space,0.4033936000050744,None,,,,,,,,,,,,,,,,,,,,,,,,,P104,001,2025-02-12_17h02.34.779,posner_endo_new1,2024.2.4,60.11392791942074,2025-02-12 17h02.42.762941 +0000,
cube_r.png,0.1,0.31,valid,7,7,0,down,4.158694600002491,None,space,0.3645532000082312,None,0,7,7,7,,,,,,,,,85.35647329999483,,,,,,,,,,,,,85.34290309999778,85.35647329999483,85.35647329999483,85.35647329999483,89.52162010000029,down,4.158694600002491,None,89.54197029999341,89.552222600003,89.552222600003,89.58506159999524,89.58546449999267,89.60142890000134,89.60142890000134,89.60142890000134,89.68478199999663,89.96884539999883,space,0.3645532000082312,None,,,,,,,,,,,,,,,,,,,,,,,,,P104,001,2025-02-12_17h02.34.779,posner_endo_new1,2024.2.4,60.11392791942074,2025-02-12 17h02.42.762941 +0000,
cube_l.png,0.1,-0.31,valid,8,8,0,down,6.514452199990046,None,space,0.3661483000032604,None,0,8,8,8,,,,,,,,,89.98460850000265,,,,,,,,,,,,,89.96907110000029,89.98460850000265,89.98460850000265,89.98460850000265,96.51233869999123,down,6.514452199990046,None,96.52075830000103,96.53091809999023,96.53091809999023,96.57831199999782,96.57886270000017,96.59478040000249,96.59478040000249,96.59478040000249,96.67792279999412,96.96332509999047,space,0.3661483000032604,None,,,,,,,,,,,,,,,,,,,,,,,,,P104,001,2025-02-12_17h02.34.779,posner_endo_new1,2024.2.4,60.11392791942074,2025-02-12 17h02.42.762941 +0000,
cube_r.png,0.1,-0.31,invalid,9,9,0,down,7.4814418999885675,None,space,0.38189520000014454,None,0,9,9,9,,,,,,,,,96.9776528999937,,,,,,,,,,,,,96.96378930000355,96.9776528999937,96.9776528999937,96.9776528999937,104.47185539999919,down,7.4814418999885675,None,104.49060570000438,104.50214169999526,104.50214169999526,104.53632699999434,104.53667249999125,104.55307470000116,104.55307470000116,104.55307470000116,104.63622879999457,104.93729170000006,space,0.38189520000014454,None,,,,,,,,,,,,,,,,,,,,,,,,,P104,001,2025-02-12_17h02.34.779,posner_endo_new1,2024.2.4,60.11392791942074,2025-02-12 17h02.42.762941 +0000,
cube_r.png,0.1,0.31,valid,10,10,0,down,5.433898400006001,None,space,0.29868490000080783,None,0,10,10,10,,,,,,,,,104.95272190000105,,,,,,,,,,,,,104.93756039999425,104.95272190000105,104.95272190000105,104.95272190000105,110.39805319999869,down,5.433898400006001,None,110.40919569999096,110.41943039999751,110.41943039999751,110.46387110000069,110.46421689999988,110.48020029999316,110.48020029999316,110.48020029999316,110.5633669999952,110.7812164999923,space,0.29868490000080783,None,,,,,,,,,,,,,,,,,,,,,,,,,P104,001,2025-02-12_17h02.34.779,posner_endo_new1,2024.2.4,60.11392791942074,2025-02-12 17h02.42.762941 +0000,
,,,,,,,,,,,,,,,,,,,,,,,,,,,,,,,,,,110.78139160000137,110.7968331000011,113.8119955000002,113.77743659999396,,,,,,,,,,,,,,,,,,,,,,,,,,,,,,,,,,,,,,,,,,,,,,P104,001,2025-02-12_17h02.34.779,posner_endo_new1,2024.2.4,60.11392791942074,2025-02-12 17h02.42.762941 +0000,
cube_l.png,0.1,10,catch,0,0,0,down,1.2942536000045948,None,None,,,,,,,0,0,0,0,,,,,113.8119955000002,,,,,,,,,,,,,113.80275639999309,113.8119955000002,113.8119955000002,113.8119955000002,115.11034489999292,,,,115.12141279999923,115.1317463000014,115.1317463000014,115.17551859999367,115.1758647999959,115.19229029999406,115.19229029999406,115.19229029999406,115.2754763999983,118.18986899999436,,,,117.29002220000257,118.20590669999365,118.20590669999365,118.20590669999365,down,1.2942536000045948,None,None,,,,,,,,,,,,,,,,,P104,001,2025-02-12_17h02.34.779,posner_endo_new1,2024.2.4,60.11392791942074,2025-02-12 17h02.42.762941 +0000,
cube_l.png,0.1,10,catch,1,1,0,down,3.5648671999952057,None,None,,,,,,,0,1,1,1,,,,,118.20590669999365,,,,,,,,,,,,,118.19013200000336,118.20590669999365,118.20590669999365,118.20590669999365,121.78672649999498,,,,121.79781750000257,121.80809299999964,121.80809299999964,121.85228219999408,121.85263110000233,121.86883199999284,121.86883199999284,121.86883199999284,121.95196510000096,124.86659249999502,,,,123.9664105999982,124.88241170000401,124.88241170000401,124.88241170000401,down,3.5648671999952057,None,None,,,,,,,,,,,,,,,,,P104,001,2025-02-12_17h02.34.779,posner_endo_new1,2024.2.4,60.11392791942074,2025-02-12 17h02.42.762941 +0000,
cube_l.png,0.1,0.31,invalid,2,2,0,down,3.1279180999990785,None,space,0.3530331999936607,None,,,,,0,2,2,2,,,,,124.88241170000401,,,,,,,,,,,,,124.86686139999074,124.88241170000401,124.88241170000401,124.88241170000401,128.01346989999,,,,128.02463269999134,128.03489460000128,128.03489460000128,128.07934090000344,128.07968349999283,128.09539210000366,128.09539210000366,128.09539210000366,128.1790054000012,128.46317859999544,,,,,,,,down,3.1279180999990785,None,space,0.3530331999936607,None,,,,,,,,,,,,,,,P104,001,2025-02-12_17h02.34.779,posner_endo_new1,2024.2.4,60.11392791942074,2025-02-12 17h02.42.762941 +0000,
cube_l.png,0.1,0.31,invalid,3,3,0,down,6.67595099999744,None,space,0.33422730000165757,None,,,,,0,3,3,3,,,,,128.47835849999683,,,,,,,,,,,,,128.46346630000335,128.47835849999683,128.47835849999683,128.47835849999683,135.15654979999817,,,,135.16778570000315,135.17804030000116,135.17804030000116,135.22156949999044,135.22191249999742,135.2381958999904,135.2381958999904,135.2381958999904,135.32171200000448,135.58891849999782,,,,,,,,down,6.67595099999744,None,space,0.33422730000165757,None,,,,,,,,,,,,,,,P104,001,2025-02-12_17h02.34.779,posner_endo_new1,2024.2.4,60.11392791942074,2025-02-12 17h02.42.762941 +0000,
cube_l.png,0.1,-0.31,valid,4,4,0,down,6.070070000001579,None,space,0.4382418000022881,None,,,,,0,4,4,4,,,,,135.60487729999295,,,,,,,,,,,,,135.58920919999946,135.60487729999295,135.60487729999295,135.60487729999295,141.68277659999148,,,,141.6896648999973,141.7013611000002,141.7013611000002,141.74876329999825,141.74900060000073,141.76476320000074,141.76476320000074,141.76476320000074,141.84794929999043,142.21548410000105,,,,,,,,down,6.070070000001579,None,space,0.4382418000022881,None,,,,,,,,,,,,,,,P104,001,2025-02-12_17h02.34.779,posner_endo_new1,2024.2.4,60.11392791942074,2025-02-12 17h02.42.762941 +0000,
cube_r.png,0.1,-0.31,invalid,5,5,0,down,5.756070300005376,None,space,0.5397545000014361,None,,,,,0,5,5,5,,,,,142.23084380000364,,,,,,,,,,,,,142.21566220000386,142.23084380000364,142.23084380000364,142.23084380000364,147.99502760000178,,,,148.01368899999943,148.02390770000056,148.02390770000056,148.05857670000114,148.05901179999637,148.07500159999472,148.07500159999472,148.07500159999472,148.15835469999,148.6260212999914,,,,,,,,down,5.756070300005376,None,space,0.5397545000014361,None,,,,,,,,,,,,,,,P104,001,2025-02-12_17h02.34.779,posner_endo_new1,2024.2.4,60.11392791942074,2025-02-12 17h02.42.762941 +0000,
cube_r.png,0.1,0.31,valid,6,6,0,down,4.897952300001634,None,space,0.30676300000050105,None,,,,,0,6,6,6,,,,,148.64108780000242,,,,,,,,,,,,,148.62635130000126,148.64108780000242,148.64108780000242,148.64108780000242,153.5541865999985,,,,153.56694639999478,153.5770962999959,153.5770962999959,153.61947320000036,153.61988659999042,153.63606239999353,153.63606239999353,153.63606239999353,153.71917219999887,153.9536708999949,,,,,,,,down,4.897952300001634,None,space,0.30676300000050105,None,,,,,,,,,,,,,,,P104,001,2025-02-12_17h02.34.779,posner_endo_new1,2024.2.4,60.11392791942074,2025-02-12 17h02.42.762941 +0000,
cube_r.png,0.1,-0.31,invalid,7,7,0,down,6.265194299994619,None,space,0.37746669999614824,None,,,,,0,7,7,7,,,,,153.96903829999792,,,,,,,,,,,,,153.95402069999545,153.96903829999792,153.96903829999792,153.96903829999792,160.24720779999916,,,,160.25983680000354,160.27002039999934,160.27002039999934,160.31253319999087,160.31280639999022,160.3291295999952,160.3291295999952,160.3291295999952,160.41237900000124,160.71352849999676,,,,,,,,down,6.265194299994619,None,space,0.37746669999614824,None,,,,,,,,,,,,,,,P104,001,2025-02-12_17h02.34.779,posner_endo_new1,2024.2.4,60.11392791942074,2025-02-12 17h02.42.762941 +0000,
cube_l.png,0.1,-0.31,valid,8,8,0,down,6.481437800001004,None,space,0.42865070000698324,None,,,,,0,8,8,8,,,,,160.72904219999327,,,,,,,,,,,,,160.7137548000028,160.72904219999327,160.72904219999327,160.72904219999327,167.22525299999688,,,,167.24442279999494,167.25514459999977,167.25514459999977,167.2891391000012,167.28961029999482,167.30547690000094,167.30547690000094,167.30547690000094,167.38880889999564,167.73924029999762,,,,,,,,down,6.481437800001004,None,space,0.42865070000698324,None,,,,,,,,,,,,,,,P104,001,2025-02-12_17h02.34.779,posner_endo_new1,2024.2.4,60.11392791942074,2025-02-12 17h02.42.762941 +0000,
cube_r.png,0.1,-0.31,invalid,9,9,0,down,7.551480599999195,None,space,0.4437865999934729,None,,,,,0,9,9,9,,,,,167.75533699999505,,,,,,,,,,,,,167.73947859999316,167.75533699999505,167.75533699999505,167.75533699999505,175.31532999999763,,,,175.32404520000273,175.3342288999993,175.3342288999993,175.3805613000004,175.38086489999841,175.39704070000153,175.39704070000153,175.39704070000153,175.48037180000392,175.84765979999793,,,,,,,,down,7.551480599999195,None,space,0.4437865999934729,None,,,,,,,,,,,,,,,P104,001,2025-02-12_17h02.34.779,posner_endo_new1,2024.2.4,60.11392791942074,2025-02-12 17h02.42.762941 +0000,
cube_l.png,0.1,0.31,invalid,10,10,0,down,6.659154399996623,None,space,0.38196199999947567,None,,,,,0,10,10,10,,,,,175.86347179999575,,,,,,,,,,,,,175.84791169999517,175.86347179999575,175.86347179999575,175.86347179999575,182.52473299999838,,,,182.5336427000002,182.5439680999989,182.5439680999989,182.58981499999936,182.59012749999238,182.6065660000022,182.6065660000022,182.6065660000022,182.68960650000372,182.9904652999976,,,,,,,,down,6.659154399996623,None,space,0.38196199999947567,None,,,,,,,,,,,,,,,P104,001,2025-02-12_17h02.34.779,posner_endo_new1,2024.2.4,60.11392791942074,2025-02-12 17h02.42.762941 +0000,
cube_r.png,0.1,-0.31,invalid,11,11,0,down,6.564884699997492,None,space,0.3797453000006499,None,,,,,0,11,11,11,,,,,183.00594229999115,,,,,,,,,,,,,182.9907041999977,183.00594229999115,183.00594229999115,183.00594229999115,189.58405089999724,,,,189.59921659999236,189.6117374000023,189.6117374000023,189.64940979999665,189.64981760000228,189.66588580000098,189.66588580000098,189.66588580000098,189.74925449999864,190.04976789999637,,,,,,,,down,6.564884699997492,None,space,0.3797453000006499,None,,,,,,,,,,,,,,,P104,001,2025-02-12_17h02.34.779,posner_endo_new1,2024.2.4,60.11392791942074,2025-02-12 17h02.42.762941 +0000,
cube_r.png,0.1,0.31,valid,12,12,0,down,4.961508699998376,None,space,0.3844724000082351,None,,,,,0,12,12,12,,,,,190.0653958000039,,,,,,,,,,,,,190.05000570000266,190.0653958000039,190.0653958000039,190.0653958000039,195.0282167999976,,,,195.03706600000442,195.04730949999066,195.04730949999066,195.09373619999678,195.09403829999792,195.11056829999143,195.11056829999143,195.11056829999143,195.1934753999958,195.51090059999842,,,,,,,,down,4.961508699998376,None,space,0.3844724000082351,None,,,,,,,,,,,,,,,P104,001,2025-02-12_17h02.34.779,posner_endo_new1,2024.2.4,60.11392791942074,2025-02-12 17h02.42.762941 +0000,
cube_l.png,0.1,10,catch,13,13,0,down,4.1324469999963185,None,None,,,,,,,0,13,13,13,,,,,195.52663849999954,,,,,,,,,,,,,195.51114639999287,195.52663849999954,195.52663849999954,195.52663849999954,199.67346389999148,,,,199.682287299991,199.69263469999714,199.69263469999714,199.7394379000034,199.74000379999052,199.75593939999817,199.75593939999817,199.75593939999817,199.8224399000028,202.75390719999268,,,,201.83706069999607,202.76944560000265,202.76944560000265,202.76944560000265,down,4.1324469999963185,None,None,,,,,,,,,,,,,,,,,P104,001,2025-02-12_17h02.34.779,posner_endo_new1,2024.2.4,60.11392791942074,2025-02-12 17h02.42.762941 +0000,
cube_r.png,0.1,-0.31,invalid,14,14,0,down,0.8731723999953829,None,space,0.4386845999979414,None,,,,,0,14,14,14,,,,,202.76944560000265,,,,,,,,,,,,,202.75435679999646,202.76944560000265,202.76944560000265,202.76944560000265,203.65380050000385,,,,203.67217750000418,203.6836203999992,203.6836203999992,203.71837489999598,203.71875790000195,203.73490529999253,203.73490529999253,203.73490529999253,203.81831529999909,204.18556790000002,,,,,,,,down,0.8731723999953829,None,space,0.4386845999979414,None,,,,,,,,,,,,,,,P104,001,2025-02-12_17h02.34.779,posner_endo_new1,2024.2.4,60.11392791942074,2025-02-12 17h02.42.762941 +0000,
cube_l.png,0.1,-0.31,valid,15,15,0,down,5.27386739999929,None,space,0.34143630000471603,None,,,,,0,15,15,15,,,,,204.2009146999917,,,,,,,,,,,,,204.1858690999943,204.2009146999917,204.2009146999917,204.2009146999917,209.4800663999922,,,,209.49154239999189,209.50186789999134,209.50186789999134,209.54584039999463,209.54610549999052,209.56246639999154,209.56246639999154,209.56246639999154,209.62866669999494,209.91315849999955,,,,,,,,down,5.27386739999929,None,space,0.34143630000471603,None,,,,,,,,,,,,,,,P104,001,2025-02-12_17h02.34.779,posner_endo_new1,2024.2.4,60.11392791942074,2025-02-12 17h02.42.762941 +0000,
cube_r.png,0.1,10,catch,16,16,0,down,6.242423599993344,None,None,,,,,,,0,16,16,16,,,,,209.92854660000012,,,,,,,,,,,,,209.91336799999408,209.92854660000012,209.92854660000012,209.92854660000012,216.17457390000345,,,,216.19313549999788,216.20474889999605,216.20474889999605,216.23862540000118,216.23893079999834,216.25526309999987,216.25526309999987,216.25526309999987,216.33862959999533,219.2530820999964,,,,218.35308729999815,219.26888360000157,219.26888360000157,219.26888360000157,down,6.242423599993344,None,None,,,,,,,,,,,,,,,,,P104,001,2025-02-12_17h02.34.779,posner_endo_new1,2024.2.4,60.11392791942074,2025-02-12 17h02.42.762941 +0000,
cube_r.png,0.1,10,catch,17,17,0,down,2.678176200002781,None,None,,,,,,,0,17,17,17,,,,,219.26888360000157,,,,,,,,,,,,,219.25329729999066,219.26888360000157,219.26888360000157,219.26888360000157,221.95085799999651,,,,221.95894769999722,221.9694298999966,221.9694298999966,222.01606219999667,222.01629949999915,222.03293149999809,222.03293149999809,222.03293149999809,222.116297200002,225.03163420000055,,,,224.1311771000037,225.04691989999264,225.04691989999264,225.04691989999264,down,2.678176200002781,None,None,,,,,,,,,,,,,,,,,P104,001,2025-02-12_17h02.34.779,posner_endo_new1,2024.2.4,60.11392791942074,2025-02-12 17h02.42.762941 +0000,
cube_l.png,0.1,0.31,invalid,18,18,0,down,6.8922679999959655,None,space,0.34664769998926204,None,,,,,0,18,18,18,,,,,225.04691989999264,,,,,,,,,,,,,225.03217769999173,225.04691989999264,225.04691989999264,225.04691989999264,231.94249390000186,,,,231.96491629999946,231.9772393000021,231.9772393000021,232.0063070000033,232.00666739999724,232.0224351999932,232.0224351999932,232.0224351999932,232.1061439999903,232.37350549999974,,,,,,,,down,6.8922679999959655,None,space,0.34664769998926204,None,,,,,,,,,,,,,,,P104,001,2025-02-12_17h02.34.779,posner_endo_new1,2024.2.4,60.11392791942074,2025-02-12 17h02.42.762941 +0000,
cube_l.png,0.1,10,catch,19,19,0,down,5.7815864000003785,None,None,,,,,,,0,19,19,19,,,,,232.38879240000097,,,,,,,,,,,,,232.3738081999909,232.38879240000097,232.38879240000097,232.38879240000097,238.18434429999616,,,,238.19288139999844,238.20270999999775,238.20270999999775,238.2502508000034,238.25077919999603,238.26634170000034,238.26634170000034,238.26634170000034,238.34961530000146,241.2642896000034,,,,240.3638712999964,241.28002629999537,241.28002629999537,241.28002629999537,down,5.7815864000003785,None,None,,,,,,,,,,,,,,,,,P104,001,2025-02-12_17h02.34.779,posner_endo_new1,2024.2.4,60.11392791942074,2025-02-12 17h02.42.762941 +0000,
cube_l.png,0.1,0.31,invalid,20,20,0,down,6.914817700002459,None,space,0.37263360001088586,None,,,,,0,20,20,20,,,,,241.28002629999537,,,,,,,,,,,,,241.264565999998,241.28002629999537,241.28002629999537,241.28002629999537,248.2074619999912,,,,248.21892279999156,248.22931419999804,248.22931419999804,248.27302670000063,248.2733859,248.2894934999931,248.2894934999931,248.2894934999931,248.37267599999905,248.67376520000107,,,,,,,,down,6.914817700002459,None,space,0.37263360001088586,None,,,,,,,,,,,,,,,P104,001,2025-02-12_17h02.34.779,posner_endo_new1,2024.2.4,60.11392791942074,2025-02-12 17h02.42.762941 +0000,
cube_l.png,0.1,-0.31,valid,21,21,0,down,8.442287800004124,None,space,0.37338909998652525,None,,,,,0,21,21,21,,,,,248.6887504000042,,,,,,,,,,,,,248.6740654000023,248.6887504000042,248.6887504000042,248.6887504000042,257.1484191999916,,,,257.1599404000008,257.16992200000095,257.16992200000095,257.2135441999999,257.2139004999917,257.23039280000376,257.23039280000376,257.23039280000376,257.3135680999985,257.61438250000356,,,,,,,,down,8.442287800004124,None,space,0.37338909998652525,None,,,,,,,,,,,,,,,P104,001,2025-02-12_17h02.34.779,posner_endo_new1,2024.2.4,60.11392791942074,2025-02-12 17h02.42.762941 +0000,
cube_r.png,0.1,0.31,valid,22,22,0,down,6.677152799995383,None,space,0.3574016000056872,None,,,,,0,22,22,22,,,,,257.6296397999977,,,,,,,,,,,,,257.61468610000156,257.6296397999977,257.6296397999977,257.6296397999977,264.3241001999995,,,,264.3356480999937,264.3456617999909,264.3456617999909,264.3896701999911,264.39003189999494,264.406473199997,264.406473199997,264.406473199997,264.4892625999928,264.77381649999006,,,,,,,,down,6.677152799995383,None,space,0.3574016000056872,None,,,,,,,,,,,,,,,P104,001,2025-02-12_17h02.34.779,posner_endo_new1,2024.2.4,60.11392791942074,2025-02-12 17h02.42.762941 +0000,
cube_r.png,0.1,-0.31,invalid,23,23,0,down,6.46981739999319,None,space,0.35386339999968186,None,,,,,0,23,23,23,,,,,264.78924939999706,,,,,,,,,,,,,264.77411339999526,264.78924939999706,264.78924939999706,264.78924939999706,271.2671352000034,,,,271.27852880000137,271.28889119999076,271.28889119999076,271.332542499993,271.3329027,271.3493546999962,271.3493546999962,271.3493546999962,271.43237450000015,271.7164519999933,,,,,,,,down,6.46981739999319,None,space,0.35386339999968186,None,,,,,,,,,,,,,,,P104,001,2025-02-12_17h02.34.779,posner_endo_new1,2024.2.4,60.11392791942074,2025-02-12 17h02.42.762941 +0000,
cube_r.png,0.1,0.31,valid,24,24,0,down,6.8863137000007555,None,space,0.345203799995943,None,,,,,0,24,24,24,,,,,271.73194579999836,,,,,,,,,,,,,271.716746399994,271.73194579999836,271.73194579999836,271.73194579999836,278.626589099993,,,,278.63817639999615,278.64856220000365,278.64856220000365,278.69195789999503,278.69231919999584,278.7081471999991,278.7081471999991,278.7081471999991,278.7913191999978,279.059500000003,,,,,,,,down,6.8863137000007555,None,space,0.345203799995943,None,,,,,,,,,,,,,,,P104,001,2025-02-12_17h02.34.779,posner_endo_new1,2024.2.4,60.11392791942074,2025-02-12 17h02.42.762941 +0000,
cube_r.png,0.1,-0.31,invalid,25,25,0,down,6.832344599999487,None,space,0.667029399992316,None,,,,,0,25,25,25,,,,,279.07437069999287,,,,,,,,,,,,,279.0598003999912,279.07437069999287,279.07437069999287,279.07437069999287,285.91900719999103,,,,285.9304900999996,285.9409064999927,285.9409064999927,285.9845032000012,285.984767499991,286.0005719000037,286.0005719000037,286.0005719000037,286.08416659999057,286.6843810999999,,,,,,,,down,6.832344599999487,None,space,0.667029399992316,None,,,,,,,,,,,,,,,P104,001,2025-02-12_17h02.34.779,posner_endo_new1,2024.2.4,60.11392791942074,2025-02-12 17h02.42.762941 +0000,
cube_l.png,0.1,-0.31,valid,26,26,0,down,4.614504500001203,None,space,0.4003637000132585,None,,,,,0,26,26,26,,,,,286.6998719999974,,,,,,,,,,,,,286.68468920000305,286.6998719999974,286.6998719999974,286.6998719999974,291.3297010999959,,,,291.3410750999901,291.3513832000026,291.3513832000026,291.3956259999977,291.39598639999167,291.41204189999553,291.41204189999553,291.41204189999553,291.4951755999937,291.8294326000032,,,,,,,,down,4.614504500001203,None,space,0.4003637000132585,None,,,,,,,,,,,,,,,P104,001,2025-02-12_17h02.34.779,posner_endo_new1,2024.2.4,60.11392791942074,2025-02-12 17h02.42.762941 +0000,
cube_r.png,0.1,0.31,valid,27,27,0,down,6.126371100006509,None,space,0.3614291999983834,None,,,,,0,27,27,27,,,,,291.8446313000022,,,,,,,,,,,,,291.82973119999224,291.8446313000022,291.8446313000022,291.8446313000022,297.973139099995,,,,297.9819242999947,297.99182100000326,297.99182100000326,298.03875599999446,298.03901710000355,298.05523659999017,298.05523659999017,298.05523659999017,298.1388702999975,298.42238519999955,,,,,,,,down,6.126371100006509,None,space,0.3614291999983834,None,,,,,,,,,,,,,,,P104,001,2025-02-12_17h02.34.779,posner_endo_new1,2024.2.4,60.11392791942074,2025-02-12 17h02.42.762941 +0000,
cube_r.png,0.1,10,catch,28,28,0,down,4.413585399990552,None,None,,,,,,,0,28,28,28,,,,,298.43816599999263,,,,,,,,,,,,,298.4225846000045,298.43816599999263,298.43816599999263,298.43816599999263,302.86825990000216,,,,302.87915419999626,302.8893728999974,302.8893728999974,302.93373289999727,302.9340813000017,302.9501848999935,302.9501848999935,302.9501848999935,303.0335599999962,305.94797120000294,,,,305.0478109999967,305.96343829999387,305.96343829999387,305.96343829999387,down,4.413585399990552,None,None,,,,,,,,,,,,,,,,,P104,001,2025-02-12_17h02.34.779,posner_endo_new1,2024.2.4,60.11392791942074,2025-02-12 17h02.42.762941 +0000,
cube_r.png,0.1,0.31,valid,29,29,0,down,2.919166099993163,None,space,0.43872879999980796,None,,,,,0,29,29,29,,,,,305.96343829999387,,,,,,,,,,,,,305.9482393999933,305.96343829999387,305.96343829999387,305.96343829999387,308.8950188000017,,,,308.90553309999814,308.9159837000043,308.9159837000043,308.9611220999941,308.96146710000176,308.9775202000019,308.9775202000019,308.9775202000019,309.0606220999907,309.42822829999204,,,,,,,,down,2.919166099993163,None,space,0.43872879999980796,None,,,,,,,,,,,,,,,P104,001,2025-02-12_17h02.34.779,posner_endo_new1,2024.2.4,60.11392791942074,2025-02-12 17h02.42.762941 +0000,
cube_r.png,0.1,0.31,valid,30,30,0,down,5.375299199993606,None,space,0.37926539999898523,None,,,,,0,30,30,30,,,,,309.4432641000021,,,,,,,,,,,,,309.428511399994,309.4432641000021,309.4432641000021,309.4432641000021,314.8224063999951,,,,314.83330569999816,314.8434610999975,314.8434610999975,314.8882756999956,314.88862179999705,314.90441029999056,314.90441029999056,314.90441029999056,314.988033799993,315.2888979999989,,,,,,,,down,5.375299199993606,None,space,0.37926539999898523,None,,,,,,,,,,,,,,,P104,001,2025-02-12_17h02.34.779,posner_endo_new1,2024.2.4,60.11392791942074,2025-02-12 17h02.42.762941 +0000,
cube_l.png,0.1,-0.31,valid,31,31,0,down,9.586685399990529,None,space,0.41301580000435933,None,,,,,0,31,31,31,,,,,315.30428499999107,,,,,,,,,,,,,315.2891826999985,315.30428499999107,315.30428499999107,315.30428499999107,324.89577160000044,,,,324.9066048999957,324.9168531000032,324.9168531000032,324.96132819999184,324.9616756000032,324.97771869999997,324.97771869999997,324.97771869999997,325.0610832999955,325.3951325999951,,,,,,,,down,9.586685399990529,None,space,0.41301580000435933,None,,,,,,,,,,,,,,,P104,001,2025-02-12_17h02.34.779,posner_endo_new1,2024.2.4,60.11392791942074,2025-02-12 17h02.42.762941 +0000,
cube_r.png,0.1,0.31,valid,32,32,0,down,7.520050600011018,None,space,0.40713550000509713,None,,,,,0,32,32,32,,,,,325.41066839999985,,,,,,,,,,,,,325.3954137999972,325.41066839999985,325.41066839999985,325.41066839999985,332.9373126999999,,,,332.9482214000018,332.9585561999993,332.9585561999993,333.00300339999376,333.00334559999465,333.0194307999918,333.0194307999918,333.0194307999918,333.10244069999317,333.4369388999912,,,,,,,,down,7.520050600011018,None,space,0.40713550000509713,None,,,,,,,,,,,,,,,P104,001,2025-02-12_17h02.34.779,posner_endo_new1,2024.2.4,60.11392791942074,2025-02-12 17h02.42.762941 +0000,
cube_r.png,0.1,-0.31,invalid,33,33,0,down,4.374151500000153,None,space,0.34142130000691395,None,,,,,0,33,33,33,,,,,333.45243360000313,,,,,,,,,,,,,333.4372230000008,333.45243360000313,333.45243360000313,333.45243360000313,337.83204559999285,,,,337.84257159999106,337.85293339999043,337.85293339999043,337.8980248000007,337.898380899991,337.9141529000044,337.9141529000044,337.9141529000044,337.99767260000226,338.2651426999946,,,,,,,,down,4.374151500000153,None,space,0.34142130000691395,None,,,,,,,,,,,,,,,P104,001,2025-02-12_17h02.34.779,posner_endo_new1,2024.2.4,60.11392791942074,2025-02-12 17h02.42.762941 +0000,
cube_r.png,0.1,10,catch,34,34,0,down,4.946207699991646,None,None,,,,,,,0,34,34,34,,,,,338.28089130000444,,,,,,,,,,,,,338.2654210000037,338.28089130000444,338.28089130000444,338.28089130000444,343.2436309999903,,,,343.2521624999936,343.2619937999989,343.2619937999989,343.3092267000029,343.309745999999,343.32555870000215,343.32555870000215,343.32555870000215,343.40880540000217,346.32342499999504,,,,345.42360719999124,346.33896369999275,346.33896369999275,346.33896369999275,down,4.946207699991646,None,None,,,,,,,,,,,,,,,,,P104,001,2025-02-12_17h02.34.779,posner_endo_new1,2024.2.4,60.11392791942074,2025-02-12 17h02.42.762941 +0000,
cube_r.png,0.1,0.31,valid,35,35,0,down,2.1758547000063118,None,space,0.5352935000119032,None,,,,,0,35,35,35,,,,,346.33896369999275,,,,,,,,,,,,,346.3237017999927,346.33896369999275,346.33896369999275,346.33896369999275,348.52157050000096,,,,348.5318557999999,348.54150469999877,348.54150469999877,348.58697619999293,348.58722839999245,348.60340809999616,348.60340809999616,348.60340809999616,348.68694459999097,349.1534718999901,,,,,,,,down,2.1758547000063118,None,space,0.5352935000119032,None,,,,,,,,,,,,,,,P104,001,2025-02-12_17h02.34.779,posner_endo_new1,2024.2.4,60.11392791942074,2025-02-12 17h02.42.762941 +0000,
cube_r.png,0.1,-0.31,invalid,36,36,0,down,8.690118999991682,None,space,0.6917953999945894,None,,,,,0,36,36,36,,,,,349.1696874000045,,,,,,,,,,,,,349.1536635999946,349.1696874000045,349.1696874000045,349.1696874000045,357.8619805999915,,,,357.87349800000084,357.883837699992,357.883837699992,357.9274349999905,357.92770040000323,357.9439321999962,357.9439321999962,357.9439321999962,358.02720929999487,358.6441477000044,,,,,,,,down,8.690118999991682,None,space,0.6917953999945894,None,,,,,,,,,,,,,,,P104,001,2025-02-12_17h02.34.779,posner_endo_new1,2024.2.4,60.11392791942074,2025-02-12 17h02.42.762941 +0000,
cube_l.png,0.1,0.31,invalid,37,37,0,down,4.470868699994753,None,space,0.36981899999955203,None,,,,,0,37,37,37,,,,,358.65994139999384,,,,,,,,,,,,,358.64435400000366,358.65994139999384,358.65994139999384,358.65994139999384,363.13972490000015,,,,363.15104299999075,363.16129809999256,363.16129809999256,363.20551169999817,363.20587639999576,363.2219119999936,363.2219119999936,363.2219119999936,363.30484440000146,363.6062477999949,,,,,,,,down,4.470868699994753,None,space,0.36981899999955203,None,,,,,,,,,,,,,,,P104,001,2025-02-12_17h02.34.779,posner_endo_new1,2024.2.4,60.11392791942074,2025-02-12 17h02.42.762941 +0000,
cube_l.png,0.1,0.31,invalid,38,38,0,down,5.109979200002272,None,space,0.3441807999915909,None,,,,,0,38,38,38,,,,,363.62122319999617,,,,,,,,,,,,,363.606549899996,363.62122319999617,363.62122319999617,363.62122319999617,368.7339359000034,,,,368.7453545000026,368.7557531999919,368.7557531999919,368.79935939999996,368.79963110000244,368.81614029999764,368.81614029999764,368.81614029999764,368.8994942999998,369.16683909999847,,,,,,,,down,5.109979200002272,None,space,0.3441807999915909,None,,,,,,,,,,,,,,,P104,001,2025-02-12_17h02.34.779,posner_endo_new1,2024.2.4,60.11392791942074,2025-02-12 17h02.42.762941 +0000,
cube_r.png,0.1,0.31,valid,39,39,0,down,5.1642492999963,None,space,0.3577575000090292,None,,,,,0,39,39,39,,,,,369.1822036999947,,,,,,,,,,,,,369.16704539999773,369.1822036999947,369.1822036999947,369.1822036999947,374.36130829999456,,,,374.3685783999972,374.38045689999126,374.38045689999126,374.4271025999915,374.4275554999913,374.44359379999514,374.44359379999514,374.44359379999514,374.526778200001,374.81088589999126,,,,,,,,down,5.1642492999963,None,space,0.3577575000090292,None,,,,,,,,,,,,,,,P104,001,2025-02-12_17h02.34.779,posner_endo_new1,2024.2.4,60.11392791942074,2025-02-12 17h02.42.762941 +0000,
cube_l.png,0.1,0.31,invalid,40,40,0,down,3.9042528999998467,None,space,0.3776298000011593,None,,,,,0,40,40,40,,,,,374.8267924999964,,,,,,,,,,,,,374.8111443999951,374.8267924999964,374.8267924999964,374.8267924999964,378.74051069999405,,,,378.75002379999205,378.7603567999904,378.7603567999904,378.8059571999911,378.80627839999215,378.82257099999697,378.82257099999697,378.82257099999697,378.9057831999962,379.20676639999147,,,,,,,,down,3.9042528999998467,None,space,0.3776298000011593,None,,,,,,,,,,,,,,,P104,001,2025-02-12_17h02.34.779,posner_endo_new1,2024.2.4,60.11392791942074,2025-02-12 17h02.42.762941 +0000,
cube_l.png,0.1,10,catch,41,41,0,down,6.748704999990878,None,None,,,,,,,0,41,41,41,,,,,379.22194459999446,,,,,,,,,,,,,379.2070273999998,379.22194459999446,379.22194459999446,379.22194459999446,385.9825725999981,,,,385.9889234000002,386.0005417999928,386.0005417999928,386.04873369999405,386.0489624000038,386.06522009999026,386.06522009999026,386.06522009999026,386.1486135000014,389.06398599999375,,,,388.1631030999997,389.0791332999943,389.0791332999943,389.0791332999943,down,6.748704999990878,None,None,,,,,,,,,,,,,,,,,P104,001,2025-02-12_17h02.34.779,posner_endo_new1,2024.2.4,60.11392791942074,2025-02-12 17h02.42.762941 +0000,
cube_l.png,0.1,-0.31,valid,42,42,0,down,5.291677000001073,None,space,0.3999820000026375,None,,,,,0,42,42,42,,,,,389.0791332999943,,,,,,,,,,,,,389.0645313999994,389.0791332999943,389.0791332999943,389.0791332999943,394.37617489999684,,,,394.3988909000036,394.4088080999936,394.4088080999936,394.439767799995,394.4401152999926,394.4564224999922,394.4564224999922,394.4564224999922,394.5398709000001,394.85767179999675,,,,,,,,down,5.291677000001073,None,space,0.3999820000026375,None,,,,,,,,,,,,,,,P104,001,2025-02-12_17h02.34.779,posner_endo_new1,2024.2.4,60.11392791942074,2025-02-12 17h02.42.762941 +0000,
cube_l.png,0.1,10,catch,43,43,0,down,6.370864500000607,None,None,,,,,,,0,43,43,43,,,,,394.8725401999982,,,,,,,,,,,,,394.8579505999951,394.8725401999982,394.8725401999982,394.8725401999982,401.250824200004,,,,401.26180690000183,401.27210509999713,401.27210509999713,401.31620040000416,401.3165433999966,401.3328890999983,401.3328890999983,401.3328890999983,401.4158482999919,404.3315150999988,,,,403.43106550000084,404.3468329000025,404.3468329000025,404.3468329000025,down,6.370864500000607,None,None,,,,,,,,,,,,,,,,,P104,001,2025-02-12_17h02.34.779,posner_endo_new1,2024.2.4,60.11392791942074,2025-02-12 17h02.42.762941 +0000,
cube_l.png,0.1,0.31,invalid,44,44,0,down,4.311608600008185,None,space,0.41438620000553783,None,,,,,0,44,44,44,,,,,404.3468329000025,,,,,,,,,,,,,404.33208439999726,404.3468329000025,404.3468329000025,404.3468329000025,408.66170409999904,,,,408.6818043999956,408.69212540000444,408.69212540000444,408.72532969999884,408.72573239999474,408.74171170000045,408.74171170000045,408.74171170000045,408.8249391999998,409.1595165000035,,,,,,,,down,4.311608600008185,None,space,0.41438620000553783,None,,,,,,,,,,,,,,,P104,001,2025-02-12_17h02.34.779,posner_endo_new1,2024.2.4,60.11392791942074,2025-02-12 17h02.42.762941 +0000,
cube_l.png,0.1,0.31,invalid,45,45,0,down,6.364471900000353,None,space,0.3990456000028644,None,,,,,0,45,45,45,,,,,409.17469600000186,,,,,,,,,,,,,409.15985149999324,409.17469600000186,409.17469600000186,409.17469600000186,415.552814900002,,,,415.5611709999939,415.57124619999377,415.57124619999377,415.6186266000004,415.6191986999911,415.6350284999935,415.6350284999935,415.6350284999935,415.7182393999974,416.036815799991,,,,,,,,down,6.364471900000353,None,space,0.3990456000028644,None,,,,,,,,,,,,,,,P104,001,2025-02-12_17h02.34.779,posner_endo_new1,2024.2.4,60.11392791942074,2025-02-12 17h02.42.762941 +0000,
cube_r.png,0.1,0.31,valid,46,46,0,down,6.431115500003216,None,space,0.36415379999380093,None,,,,,0,46,46,46,,,,,416.0512755999953,,,,,,,,,,,,,416.0373111999943,416.0512755999953,416.0512755999953,416.0512755999953,422.4966180999909,,,,422.51491949999763,422.5264218999946,422.5264218999946,422.5615398999944,422.5620962999965,422.5779709999915,422.5779709999915,422.5779709999915,422.66116989999136,422.9463870000036,,,,,,,,down,6.431115500003216,None,space,0.36415379999380093,None,,,,,,,,,,,,,,,P104,001,2025-02-12_17h02.34.779,posner_endo_new1,2024.2.4,60.11392791942074,2025-02-12 17h02.42.762941 +0000,
cube_l.png,0.1,-0.31,valid,47,47,0,down,6.210155000007944,None,space,0.36952110000129323,None,,,,,0,47,47,47,,,,,422.96085419999145,,,,,,,,,,,,,422.946861599994,422.96085419999145,422.96085419999145,422.96085419999145,429.17338870000094,,,,429.191837499995,429.2035646000004,429.2035646000004,429.23763750000217,429.2379409999994,429.2542428000015,429.2542428000015,429.2542428000015,429.33762320000096,429.63840879999043,,,,,,,,down,6.210155000007944,None,space,0.36952110000129323,None,,,,,,,,,,,,,,,P104,001,2025-02-12_17h02.34.779,posner_endo_new1,2024.2.4,60.11392791942074,2025-02-12 17h02.42.762941 +0000,
cube_r.png,0.1,-0.31,invalid,48,48,0,down,4.869227799994405,None,space,0.4112569999997504,None,,,,,0,48,48,48,,,,,429.6538576000021,,,,,,,,,,,,,429.63865120000264,429.6538576000021,429.6538576000021,429.6538576000021,434.5344857000018,,,,434.55263609999383,434.56403860000137,434.56403860000137,434.59915049999836,434.5994709999941,434.6156506999978,434.6156506999978,434.6156506999978,434.698567799991,435.0327502,,,,,,,,down,4.869227799994405,None,space,0.4112569999997504,None,,,,,,,,,,,,,,,P104,001,2025-02-12_17h02.34.779,posner_endo_new1,2024.2.4,60.11392791942074,2025-02-12 17h02.42.762941 +0000,
cube_r.png,0.1,10,catch,49,49,0,down,5.731653499999084,None,None,,,,,,,0,49,49,49,,,,,435.04822339999373,,,,,,,,,,,,,435.0330088999908,435.04822339999373,435.04822339999373,435.04822339999373,440.7935288000008,,,,440.80315079999855,440.8134222999943,440.8134222999943,440.8593043000001,440.8596273000003,440.8759359999967,440.8759359999967,440.8759359999967,440.95877729999484,443.8733009999996,,,,442.97345399999176,443.8892763999902,443.8892763999902,443.8892763999902,down,5.731653499999084,None,None,,,,,,,,,,,,,,,,,P104,001,2025-02-12_17h02.34.779,posner_endo_new1,2024.2.4,60.11392791942074,2025-02-12 17h02.42.762941 +0000,
cube_l.png,0.1,-0.31,valid,50,50,0,down,2.3135313000093447,None,space,0.3240556000091601,None,,,,,0,50,50,50,,,,,443.8892763999902,,,,,,,,,,,,,443.8735441000026,443.8892763999902,443.8892763999902,443.8892763999902,446.2047306000022,,,,446.21429160000116,446.22457569999096,446.22457569999096,446.27042919999803,446.27074749999156,446.28676930000074,446.28676930000074,446.28676930000074,446.3702152999904,446.62110589999065,,,,,,,,down,2.3135313000093447,None,space,0.3240556000091601,None,,,,,,,,,,,,,,,P104,001,2025-02-12_17h02.34.779,posner_endo_new1,2024.2.4,60.11392791942074,2025-02-12 17h02.42.762941 +0000,
cube_l.png,0.1,-0.31,valid,51,51,0,down,5.821316400004434,None,space,0.34332119999453425,None,,,,,0,51,51,51,,,,,446.6369185999938,,,,,,,,,,,,,446.62136109999847,446.6369185999938,446.6369185999938,446.6369185999938,452.4647735000035,,,,452.47432890000346,452.48468209999555,452.48468209999555,452.5304352999956,452.5307518000045,452.5472444000043,452.5472444000043,452.5472444000043,452.61352590000024,452.89808549999725,,,,,,,,down,5.821316400004434,None,space,0.34332119999453425,None,,,,,,,,,,,,,,,P104,001,2025-02-12_17h02.34.779,posner_endo_new1,2024.2.4,60.11392791942074,2025-02-12 17h02.42.762941 +0000,
cube_r.png,0.1,-0.31,invalid,52,52,0,down,6.145799899997655,None,space,0.4071074999956181,None,,,,,0,52,52,52,,,,,452.91326049999043,,,,,,,,,,,,,452.89834020000126,452.91326049999043,452.91326049999043,452.91326049999043,459.07501289999345,,,,459.08454870000423,459.0948428999982,459.0948428999982,459.14048940000066,459.1408073999919,459.15697640000144,459.15697640000144,459.15697640000144,459.2402887999924,459.5744605999935,,,,,,,,down,6.145799899997655,None,space,0.4071074999956181,None,,,,,,,,,,,,,,,P104,001,2025-02-12_17h02.34.779,posner_endo_new1,2024.2.4,60.11392791942074,2025-02-12 17h02.42.762941 +0000,
cube_l.png,0.1,-0.31,valid,53,53,0,down,6.132756000006339,None,space,0.4160762999963481,None,,,,,0,53,53,53,,,,,459.59003379999194,,,,,,,,,,,,,459.57471629999054,459.59003379999194,459.59003379999194,459.59003379999194,465.73471000000427,,,,465.74448989999655,465.75472199999786,465.75472199999786,465.80053799999587,465.8008637000021,465.8167606999923,465.8167606999923,465.8167606999923,465.90010769999935,466.23437350000313,,,,,,,,down,6.132756000006339,None,space,0.4160762999963481,None,,,,,,,,,,,,,,,P104,001,2025-02-12_17h02.34.779,posner_endo_new1,2024.2.4,60.11392791942074,2025-02-12 17h02.42.762941 +0000,
cube_r.png,0.1,10,catch,54,54,0,down,5.849131800001487,None,None,,,,,,,0,54,54,54,,,,,466.25006679999933,,,,,,,,,,,,,466.23462659999495,466.25006679999933,466.25006679999933,466.25006679999933,472.11141399999906,,,,472.12098649999825,472.13113979999616,472.13113979999616,472.1770364999975,472.17735840000387,472.19379910000134,472.19379910000134,472.19379910000134,472.276847000001,475.191430699997,,,,474.2913456999959,475.20745149999857,475.20745149999857,475.20745149999857,down,5.849131800001487,None,None,,,,,,,,,,,,,,,,,P104,001,2025-02-12_17h02.34.779,posner_endo_new1,2024.2.4,60.11392791942074,2025-02-12 17h02.42.762941 +0000,
cube_l.png,0.1,0.31,invalid,55,55,0,down,1.2268534999893745,None,space,0.39802120000240393,None,,,,,0,55,55,55,,,,,475.20745149999857,,,,,,,,,,,,,475.19167699999525,475.20745149999857,475.20745149999857,475.20745149999857,476.4407530000026,,,,476.44986969999445,476.45967309999105,476.45967309999105,476.506215100002,476.50645459999214,476.5226530999935,476.5226530999935,476.5226530999935,476.60592069999257,476.9232961999951,,,,,,,,down,1.2268534999893745,None,space,0.39802120000240393,None,,,,,,,,,,,,,,,P104,001,2025-02-12_17h02.34.779,posner_endo_new1,2024.2.4,60.11392791942074,2025-02-12 17h02.42.762941 +0000,
cube_l.png,0.1,-0.31,valid,56,56,0,down,6.904670199990505,None,space,0.37790289999975357,None,,,,,0,56,56,56,,,,,476.93871319999744,,,,,,,,,,,,,476.92347439999867,476.93871319999744,476.93871319999744,476.93871319999744,483.85157820000313,,,,483.8740570999944,483.88645740000356,483.88645740000356,483.9149292999937,483.9152957000042,483.9313798999938,483.9313798999938,483.9313798999938,484.0149851000024,484.31600189999153,,,,,,,,down,6.904670199990505,None,space,0.37790289999975357,None,,,,,,,,,,,,,,,P104,001,2025-02-12_17h02.34.779,posner_endo_new1,2024.2.4,60.11392791942074,2025-02-12 17h02.42.762941 +0000,
cube_r.png,0.1,0.31,valid,57,57,0,down,5.895395300001837,None,space,0.37167589999444317,None,,,,,0,57,57,57,,,,,484.33151879999787,,,,,,,,,,,,,484.31629819999216,484.33151879999787,484.33151879999787,484.33151879999787,490.24303070000315,,,,490.25306809999165,490.2657204999996,490.2657204999996,490.3092217999947,490.30992179999885,490.3255599999975,490.3255599999975,490.3255599999975,490.392168499995,490.71104759999434,,,,,,,,down,5.895395300001837,None,space,0.37167589999444317,None,,,,,,,,,,,,,,,P104,001,2025-02-12_17h02.34.779,posner_endo_new1,2024.2.4,60.11392791942074,2025-02-12 17h02.42.762941 +0000,
cube_r.png,0.1,-0.31,invalid,58,58,0,down,5.525343600005726,None,space,0.33387639999273233,None,,,,,0,58,58,58,,,,,490.7254829000012,,,,,,,,,,,,,490.7116285999946,490.7254829000012,490.7254829000012,490.7254829000012,496.2553143999976,,,,496.27789339999435,496.288264399991,496.288264399991,496.3188688999944,496.31921180000063,496.33562689999235,496.33562689999235,496.33562689999235,496.418826299996,496.6866941000044,,,,,,,,down,5.525343600005726,None,space,0.33387639999273233,None,,,,,,,,,,,,,,,P104,001,2025-02-12_17h02.34.779,posner_endo_new1,2024.2.4,60.11392791942074,2025-02-12 17h02.42.762941 +0000,
cube_l.png,0.1,0.31,invalid,59,59,0,down,6.500427799997851,None,space,0.30424779999884777,None,,,,,0,59,59,59,,,,,496.702079900002,,,,,,,,,,,,,496.686970499999,496.702079900002,496.702079900002,496.702079900002,503.2129638999904,,,,503.2236896999966,503.2340669999976,503.2340669999976,503.27897899999516,503.2793232999975,503.2953198000032,503.2953198000032,503.2953198000032,503.37834559999465,503.6126737000013,,,,,,,,down,6.500427799997851,None,space,0.30424779999884777,None,,,,,,,,,,,,,,,P104,001,2025-02-12_17h02.34.779,posner_endo_new1,2024.2.4,60.11392791942074,2025-02-12 17h02.42.762941 +0000,
,,,,,,,,,,,,,,,,,,,,,,,,,,,,,,,,,,,,,,,,,,,,,,,,,,,,,,,,,,,,,,,,,,,,,503.61285189999035,503.6282521999965,503.6282521999965,563.6337301000021,565.7658667999931,space,62.135107699999935,None,,,,,,,P104,001,2025-02-12_17h02.34.779,posner_endo_new1,2024.2.4,60.11392791942074,2025-02-12 17h02.42.762941 +0000,
,,,,,,,,,,,,,,,,,,,,,,,,,,,,,,,,,,565.7659413999936,565.7811108000024,568.795180599991,568.7624362999923,,,,,,,,,,,,,,,,,,,,,,,,,,,,,,,,,,,,,,,,,,,,,,P104,001,2025-02-12_17h02.34.779,posner_endo_new1,2024.2.4,60.11392791942074,2025-02-12 17h02.42.762941 +0000,
cube_l.png,0.1,10,catch,0,0,0,up,20.18384739999601,None,None,,,,,,,,,,,0,0,0,0,568.795180599991,,,,,,,,,,,,,568.7861682999937,568.795180599991,568.795180599991,568.795180599991,588.9921312999941,,,,589.001994899998,589.0123538999906,589.0123538999906,589.0577197999955,589.0580493000016,589.0743292999978,589.0743292999978,589.0743292999978,589.1575174000027,592.0718741000019,,,,591.1718118999997,592.0876218999911,592.0876218999911,592.0876218999911,,,,,,,,,,,,,,,up,20.18384739999601,None,None,,,P104,001,2025-02-12_17h02.34.779,posner_endo_new1,2024.2.4,60.11392791942074,2025-02-12 17h02.42.762941 +0000,
cube_l.png,0.1,10,catch,1,1,0,up,3.5875913000054425,None,None,,,,,,,,,,,0,1,1,1,592.0876218999911,,,,,,,,,,,,,592.0721201999986,592.0876218999911,592.0876218999911,592.0876218999911,595.6852112999914,,,,595.6947039999941,595.7050477000012,595.7050477000012,595.751008399995,595.751337099995,595.7672118999908,595.7672118999908,595.7672118999908,595.8503897999908,598.7649853999901,,,,597.8652920000022,598.7809071999945,598.7809071999945,598.7809071999945,,,,,,,,,,,,,,,up,3.5875913000054425,None,None,,,P104,001,2025-02-12_17h02.34.779,posner_endo_new1,2024.2.4,60.11392791942074,2025-02-12 17h02.42.762941 +0000,
cube_l.png,0.1,0.31,invalid,2,2,0,up,5.206119700000272,None,space,0.41244329999608453,None,,,,,,,,,0,2,2,2,598.7809071999945,,,,,,,,,,,,,598.7652323999937,598.7809071999945,598.7809071999945,598.7809071999945,603.9934405999957,,,,604.0032978999952,604.0136543999979,604.0136543999979,604.058755399994,604.0590807999979,604.07558959999,604.07558959999,604.07558959999,604.1588596999936,604.4928074999916,,,,,,,,,,,,,,,,,,,,,,up,5.206119700000272,None,space,0.41244329999608453,None,P104,001,2025-02-12_17h02.34.779,posner_endo_new1,2024.2.4,60.11392791942074,2025-02-12 17h02.42.762941 +0000,
cube_l.png,0.1,0.31,invalid,3,3,0,up,6.878779300008318,None,space,0.4392281000036746,None,,,,,,,,,0,3,3,3,604.5081929000007,,,,,,,,,,,,,604.4930743000004,604.5081929000007,604.5081929000007,604.5081929000007,611.402305399999,,,,611.4119358000025,611.4223121999967,611.4223121999967,611.4681711000012,611.4684898999985,611.4847223999968,611.4847223999968,611.4847223999968,611.5676490999904,611.935287100001,,,,,,,,,,,,,,,,,,,,,,up,6.878779300008318,None,space,0.4392281000036746,None,P104,001,2025-02-12_17h02.34.779,posner_endo_new1,2024.2.4,60.11392791942074,2025-02-12 17h02.42.762941 +0000,
cube_l.png,0.1,-0.31,valid,4,4,0,up,7.259895199997118,None,space,0.40969260000565555,None,,,,,,,,,0,4,4,4,611.9506170999957,,,,,,,,,,,,,611.9355581999989,611.9506170999957,611.9506170999957,611.9506170999957,619.2278457999928,,,,619.2374199999904,619.2473306000029,619.2473306000029,619.2931771000003,619.2935061000026,619.3098656999937,619.3098656999937,619.3098656999937,619.3931217999925,619.7272988999903,,,,,,,,,,,,,,,,,,,,,,up,7.259895199997118,None,space,0.40969260000565555,None,P104,001,2025-02-12_17h02.34.779,posner_endo_new1,2024.2.4,60.11392791942074,2025-02-12 17h02.42.762941 +0000,
cube_r.png,0.1,-0.31,invalid,5,5,0,up,7.524949200000265,None,space,0.3381368999980623,None,,,,,,,,,0,5,5,5,619.742972299995,,,,,,,,,,,,,619.7275697000005,619.742972299995,619.742972299995,619.742972299995,627.2694867999962,,,,627.279013899999,627.2893111000012,627.2893111000012,627.3352765000018,627.3355969999975,627.3517575000005,627.3517575000005,627.3517575000005,627.4352184000018,627.7025760999968,,,,,,,,,,,,,,,,,,,,,,up,7.524949200000265,None,space,0.3381368999980623,None,P104,001,2025-02-12_17h02.34.779,posner_endo_new1,2024.2.4,60.11392791942074,2025-02-12 17h02.42.762941 +0000,
cube_r.png,0.1,0.31,valid,6,6,0,up,7.508768999992753,None,space,0.3162899000017205,None,,,,,,,,,0,6,6,6,627.7178123999911,,,,,,,,,,,,,627.7028415999957,627.7178123999911,627.7178123999911,627.7178123999911,635.2280479000037,,,,635.2376320999902,635.2480038999929,635.2480038999929,635.2939318999997,635.2942559999938,635.3102227999916,635.3102227999916,635.3102227999916,635.3932534999913,635.6277061000001,,,,,,,,,,,,,,,,,,,,,,up,7.508768999992753,None,space,0.3162899000017205,None,P104,001,2025-02-12_17h02.34.779,posner_endo_new1,2024.2.4,60.11392791942074,2025-02-12 17h02.42.762941 +0000,
cube_r.png,0.1,-0.31,invalid,7,7,0,up,8.047643400001107,None,space,0.32295780000276864,None,,,,,,,,,0,7,7,7,635.6431111999991,,,,,,,,,,,,,635.6279663000023,635.6431111999991,635.6431111999991,635.6431111999991,643.70305679999,,,,643.7126838999975,643.7230561000033,643.7230561000033,643.7684548999969,643.7687827000045,643.7847361000022,643.7847361000022,643.7847361000022,643.8682836999942,644.1189230000018,,,,,,,,,,,,,,,,,,,,,,up,8.047643400001107,None,space,0.32295780000276864,None,P104,001,2025-02-12_17h02.34.779,posner_endo_new1,2024.2.4,60.11392791942074,2025-02-12 17h02.42.762941 +0000,
cube_l.png,0.1,-0.31,valid,8,8,0,up,7.300400499996613,None,space,0.30275829999300186,None,,,,,,,,,0,8,8,8,644.1344739999913,,,,,,,,,,,,,644.1191851999902,644.1344739999913,644.1344739999913,644.1344739999913,651.446625800003,,,,651.4689041999954,651.479161700001,651.479161700001,651.5103126000031,651.5107214000018,651.5268136999948,651.5268136999948,651.5268136999948,651.6099876999942,651.8445951000031,,,,,,,,,,,,,,,,,,,,,,up,7.300400499996613,None,space,0.30275829999300186,None,P104,001,2025-02-12_17h02.34.779,posner_endo_new1,2024.2.4,60.11392791942074,2025-02-12 17h02.42.762941 +0000,
cube_r.png,0.1,-0.31,invalid,9,9,0,up,8.215080599999055,None,space,0.27721260000544135,None,,,,,,,,,0,9,9,9,651.859712599995,,,,,,,,,,,,,651.8449331000011,651.859712599995,651.859712599995,651.859712599995,660.0857696000021,,,,660.0940572999971,660.1045649000007,660.1045649000007,660.1517143999954,660.152233300003,660.1681529999914,660.1681529999914,660.1681529999914,660.251468699993,660.4531786000007,,,,,,,,,,,,,,,,,,,,,,up,8.215080599999055,None,space,0.27721260000544135,None,P104,001,2025-02-12_17h02.34.779,posner_endo_new1,2024.2.4,60.11392791942074,2025-02-12 17h02.42.762941 +0000,
cube_l.png,0.1,0.31,invalid,10,10,0,up,7.439128600002732,None,space,0.2801656999945408,None,,,,,,,,,0,10,10,10,660.4678478999995,,,,,,,,,,,,,660.4536259000015,660.4678478999995,660.4678478999995,660.4678478999995,667.911592199991,,,,667.9229755999986,667.9332531999971,667.9332531999971,667.9766147999908,667.9768829999957,667.9935370000021,667.9935370000021,667.9935370000021,668.0765037999954,668.2775888000033,,,,,,,,,,,,,,,,,,,,,,up,7.439128600002732,None,space,0.2801656999945408,None,P104,001,2025-02-12_17h02.34.779,posner_endo_new1,2024.2.4,60.11392791942074,2025-02-12 17h02.42.762941 +0000,
cube_r.png,0.1,-0.31,invalid,11,11,0,up,6.406106399997952,None,space,0.48962350000510924,None,,,,,,,,,0,11,11,11,668.2932709000015,,,,,,,,,,,,,668.2777974999917,668.2932709000015,668.2932709000015,668.2932709000015,674.7063734999974,,,,674.7251357999921,674.735791500003,674.735791500003,674.7699890999938,674.770445999995,674.7864774999907,674.7864774999907,674.7864774999907,674.8696282000019,675.2871041000035,,,,,,,,,,,,,,,,,,,,,,up,6.406106399997952,None,space,0.48962350000510924,None,P104,001,2025-02-12_17h02.34.779,posner_endo_new1,2024.2.4,60.11392791942074,2025-02-12 17h02.42.762941 +0000,
cube_r.png,0.1,0.31,valid,12,12,0,up,7.532274900004268,None,space,0.339928699992015,None,,,,,,,,,0,12,12,12,675.3028254999954,,,,,,,,,,,,,675.2873645999935,675.3028254999954,675.3028254999954,675.3028254999954,682.8457571000035,,,,682.8520783999993,682.8637019000016,682.8637019000016,682.9118415999983,682.9120838999952,682.9283292000036,682.9283292000036,682.9283292000036,682.995021900002,683.2786180999974,,,,,,,,,,,,,,,,,,,,,,up,7.532274900004268,None,space,0.339928699992015,None,P104,001,2025-02-12_17h02.34.779,posner_endo_new1,2024.2.4,60.11392791942074,2025-02-12 17h02.42.762941 +0000,
cube_l.png,0.1,10,catch,13,13,0,up,7.39608639999642,None,None,,,,,,,,,,,0,13,13,13,683.2946265999926,,,,,,,,,,,,,683.2787998999993,683.2946265999926,683.2946265999926,683.2946265999926,690.7064439999958,,,,690.7292243999982,690.7418682999996,690.7418682999996,690.769965200001,690.7703122999956,690.7865027999942,690.7865027999942,690.7865027999942,690.870141899999,693.7845336000028,,,,692.8844756000035,693.8001430000004,693.8001430000004,693.8001430000004,,,,,,,,,,,,,,,up,7.39608639999642,None,None,,,P104,001,2025-02-12_17h02.34.779,posner_endo_new1,2024.2.4,60.11392791942074,2025-02-12 17h02.42.762941 +0000,
cube_r.png,0.1,-0.31,invalid,14,14,0,up,4.314222400003928,None,space,0.413806000011391,None,,,,,,,,,0,14,14,14,693.8001430000004,,,,,,,,,,,,,693.7848130999919,693.8001430000004,693.8001430000004,693.8001430000004,698.1303055000026,,,,698.1414626000042,698.1517841000023,698.1517841000023,698.1960909000045,698.1964410999935,698.2125738000032,698.2125738000032,698.2125738000032,698.2958251999953,698.6300284000026,,,,,,,,,,,,,,,,,,,,,,up,4.314222400003928,None,space,0.413806000011391,None,P104,001,2025-02-12_17h02.34.779,posner_endo_new1,2024.2.4,60.11392791942074,2025-02-12 17h02.42.762941 +0000,
cube_l.png,0.1,-0.31,valid,15,15,0,up,6.949584399990272,None,space,0.3815586999990046,None,,,,,,,,,0,15,15,15,698.6455196000024,,,,,,,,,,,,,698.630324999991,698.6455196000024,698.6455196000024,698.6455196000024,705.606249000004,,,,705.617202399997,705.6274639999901,705.6274639999901,705.6719396999979,705.6722879000008,705.6884046999912,705.6884046999912,705.6884046999912,705.771688599998,706.0724307999917,,,,,,,,,,,,,,,,,,,,,,up,6.949584399990272,None,space,0.3815586999990046,None,P104,001,2025-02-12_17h02.34.779,posner_endo_new1,2024.2.4,60.11392791942074,2025-02-12 17h02.42.762941 +0000,
cube_r.png,0.1,10,catch,16,16,0,up,6.666823399995337,None,None,,,,,,,,,,,0,16,16,16,706.0876262999955,,,,,,,,,,,,,706.0727163999982,706.0876262999955,706.0876262999955,706.0876262999955,712.7655146000034,,,,712.7766351000027,712.7870052999933,712.7870052999933,712.8310868999979,712.8314369,712.8476586000033,712.8476586000033,712.8476586000033,712.9309307999938,715.8451592999918,,,,714.9456027999986,715.8609998000029,715.8609998000029,715.8609998000029,,,,,,,,,,,,,,,up,6.666823399995337,None,None,,,P104,001,2025-02-12_17h02.34.779,posner_endo_new1,2024.2.4,60.11392791942074,2025-02-12 17h02.42.762941 +0000,
cube_r.png,0.1,10,catch,17,17,0,up,4.749849400002859,None,None,,,,,,,,,,,0,17,17,17,715.8609998000029,,,,,,,,,,,,,715.8454287999921,715.8609998000029,715.8609998000029,715.8609998000029,720.6258371000004,,,,720.6487016000028,720.6587322999985,720.6587322999985,720.6894051999989,720.6897717999964,720.7061111999938,720.7061111999938,720.7061111999938,720.7892126999941,723.7037105999916,,,,722.8039222999942,723.7197668000008,723.7197668000008,723.7197668000008,,,,,,,,,,,,,,,up,4.749849400002859,None,None,,,P104,001,2025-02-12_17h02.34.779,posner_endo_new1,2024.2.4,60.11392791942074,2025-02-12 17h02.42.762941 +0000,
cube_l.png,0.1,0.31,invalid,18,18,0,up,4.523124200000893,None,space,0.3971408999932464,None,,,,,,,,,0,18,18,18,723.7197668000008,,,,,,,,,,,,,723.7039972999919,723.7197668000008,723.7197668000008,723.7197668000008,728.2496561000007,,,,728.2611393999978,728.2713606000034,728.2713606000034,728.3153234999918,728.3156855999987,728.3319304000033,728.3319304000033,728.3319304000033,728.4150625000038,728.7323552000016,,,,,,,,,,,,,,,,,,,,,,up,4.523124200000893,None,space,0.3971408999932464,None,P104,001,2025-02-12_17h02.34.779,posner_endo_new1,2024.2.4,60.11392791942074,2025-02-12 17h02.42.762941 +0000,
cube_l.png,0.1,10,catch,19,19,0,up,7.3108285000053,None,None,,,,,,,,,,,0,19,19,19,728.7476438000012,,,,,,,,,,,,,728.7325637000031,728.7476438000012,728.7476438000012,728.7476438000012,736.0744394999929,,,,736.0818511999969,736.0933933999913,736.0933933999913,736.1407814999984,736.1412901000003,736.1570901999949,736.1570901999949,736.1570901999949,736.2237048999959,739.1548084999959,,,,738.2381243999989,739.1704211000033,739.1704211000033,739.1704211000033,,,,,,,,,,,,,,,up,7.3108285000053,None,None,,,P104,001,2025-02-12_17h02.34.779,posner_endo_new1,2024.2.4,60.11392791942074,2025-02-12 17h02.42.762941 +0000,
cube_l.png,0.1,0.31,invalid,20,20,0,up,4.568543499990483,None,space,0.3832933999947272,None,,,,,,,,,0,20,20,20,739.1704211000033,,,,,,,,,,,,,739.1550883000018,739.1704211000033,739.1704211000033,739.1704211000033,743.7503250000009,,,,743.7618150999915,743.7723088999919,743.7723088999919,743.8162836999982,743.8165463000041,743.8322948999994,743.8322948999994,743.8322948999994,743.9155491999991,744.2167042999936,,,,,,,,,,,,,,,,,,,,,,up,4.568543499990483,None,space,0.3832933999947272,None,P104,001,2025-02-12_17h02.34.779,posner_endo_new1,2024.2.4,60.11392791942074,2025-02-12 17h02.42.762941 +0000,
cube_l.png,0.1,-0.31,valid,21,21,0,up,7.970294099999592,None,space,0.3742553000047337,None,,,,,,,,,0,21,21,21,744.2321467000002,,,,,,,,,,,,,744.2169171999994,744.2321467000002,744.2321467000002,744.2321467000002,752.208805000002,,,,752.2202774000034,752.2306138999993,752.2306138999993,752.2741978999984,752.274463099995,752.2903091999906,752.2903091999906,752.2903091999906,752.3739618999971,752.6742429000005,,,,,,,,,,,,,,,,,,,,,,up,7.970294099999592,None,space,0.3742553000047337,None,P104,001,2025-02-12_17h02.34.779,posner_endo_new1,2024.2.4,60.11392791942074,2025-02-12 17h02.42.762941 +0000,
cube_r.png,0.1,0.31,valid,22,22,0,up,5.9614988999965135,None,space,0.3569180000049528,None,,,,,,,,,0,22,22,22,752.6898695999989,,,,,,,,,,,,,752.6744494000013,752.6898695999989,752.6898695999989,752.6898695999989,758.6684305999952,,,,758.6799193000043,758.6898569999903,758.6898569999903,758.7343374999909,758.7346948999912,758.7503833999945,758.7503833999945,758.7503833999945,758.833990500003,759.1182369000016,,,,,,,,,,,,,,,,,,,,,,up,5.9614988999965135,None,space,0.3569180000049528,None,P104,001,2025-02-12_17h02.34.779,posner_endo_new1,2024.2.4,60.11392791942074,2025-02-12 17h02.42.762941 +0000,
cube_r.png,0.1,-0.31,invalid,23,23,0,up,14.525582400005078,None,space,0.4699551999947289,None,,,,,,,,,0,23,23,23,759.1333190000005,,,,,,,,,,,,,759.1185375999921,759.1333190000005,759.1333190000005,759.1333190000005,773.6699593999947,,,,773.6816313000018,773.6919570000027,773.6919570000027,773.7355074999941,773.7358861999965,773.7517651999951,773.7517651999951,773.7517651999951,773.8352939000033,774.2361695,,,,,,,,,,,,,,,,,,,,,,up,14.525582400005078,None,space,0.4699551999947289,None,P104,001,2025-02-12_17h02.34.779,posner_endo_new1,2024.2.4,60.11392791942074,2025-02-12 17h02.42.762941 +0000,
cube_r.png,0.1,0.31,valid,24,24,0,up,8.615528900001664,None,space,0.36356440000236034,None,,,,,,,,,0,24,24,24,774.2512575000001,,,,,,,,,,,,,774.2364783999947,774.2512575000001,774.2512575000001,774.2512575000001,782.8769657999947,,,,782.8883786999941,782.8986478000006,782.8986478000006,782.9424517000007,782.9427152999997,782.9591673999967,782.9591673999967,782.9591673999967,783.0422774000035,783.3263422000018,,,,,,,,,,,,,,,,,,,,,,up,8.615528900001664,None,space,0.36356440000236034,None,P104,001,2025-02-12_17h02.34.779,posner_endo_new1,2024.2.4,60.11392791942074,2025-02-12 17h02.42.762941 +0000,
cube_r.png,0.1,-0.31,invalid,25,25,0,up,6.348185300012119,None,space,0.3550666000082856,None,,,,,,,,,0,25,25,25,783.3421317000029,,,,,,,,,,,,,783.3265512999933,783.3421317000029,783.3421317000029,783.3421317000029,789.703213899993,,,,789.7147856999945,789.7274029999971,789.7274029999971,789.7695902999985,789.7702611999994,789.7859438000014,789.7859438000014,789.7859438000014,789.8525348999974,790.154744799991,,,,,,,,,,,,,,,,,,,,,,up,6.348185300012119,None,space,0.3550666000082856,None,P104,001,2025-02-12_17h02.34.779,posner_endo_new1,2024.2.4,60.11392791942074,2025-02-12 17h02.42.762941 +0000,
cube_l.png,0.1,-0.31,valid,26,26,0,up,5.497570599996834,None,space,0.3158594999986235,None,,,,,,,,,0,26,26,26,790.169115800003,,,,,,,,,,,,,790.1553543999908,790.169115800003,790.169115800003,790.169115800003,795.6822970999929,,,,795.7050440000021,795.7169212000008,795.7169212000008,795.746077799995,795.7464236999949,795.7627347999951,795.7627347999951,795.7627347999951,795.8461048000026,796.0806748000032,,,,,,,,,,,,,,,,,,,,,,up,5.497570599996834,None,space,0.3158594999986235,None,P104,001,2025-02-12_17h02.34.779,posner_endo_new1,2024.2.4,60.11392791942074,2025-02-12 17h02.42.762941 +0000,
cube_r.png,0.1,0.31,valid,27,27,0,up,5.7392183000047226,None,space,0.3492853999923682,None,,,,,,,,,0,27,27,27,796.0958899999969,,,,,,,,,,,,,796.0809666999994,796.0958899999969,796.0958899999969,796.0958899999969,801.8409690999979,,,,801.852049699999,801.8622203999985,801.8622203999985,801.9064223000023,801.906765199994,801.9230729999981,801.9230729999981,801.9230729999981,802.006498200004,802.2742393999943,,,,,,,,,,,,,,,,,,,,,,up,5.7392183000047226,None,space,0.3492853999923682,None,P104,001,2025-02-12_17h02.34.779,posner_endo_new1,2024.2.4,60.11392791942074,2025-02-12 17h02.42.762941 +0000,
cube_r.png,0.1,10,catch,28,28,0,up,6.257559299992863,None,None,,,,,,,,,,,0,28,28,28,802.2892737999937,,,,,,,,,,,,,802.2745311000035,802.2892737999937,802.2892737999937,802.2892737999937,808.5509623999969,,,,808.5621060999983,808.5723781999986,808.5723781999986,808.6164998000022,808.6167458999989,808.6331984999997,808.6331984999997,808.6331984999997,808.7162032999913,811.6315839000017,,,,810.7310469999939,811.646912199998,811.646912199998,811.646912199998,,,,,,,,,,,,,,,up,6.257559299992863,None,None,,,P104,001,2025-02-12_17h02.34.779,posner_endo_new1,2024.2.4,60.11392791942074,2025-02-12 17h02.42.762941 +0000,
cube_r.png,0.1,0.31,valid,29,29,0,up,3.7716879999934463,None,space,0.34400349999486934,None,,,,,,,,,0,29,29,29,811.646912199998,,,,,,,,,,,,,811.6321670000034,811.646912199998,811.646912199998,811.646912199998,815.428751200001,,,,815.4499658999994,815.4598822999978,815.4598822999978,815.4924936000025,815.4928766999947,815.5093291999947,815.5093291999947,815.5093291999947,815.5924667999934,815.8601890999998,,,,,,,,,,,,,,,,,,,,,,up,3.7716879999934463,None,space,0.34400349999486934,None,P104,001,2025-02-12_17h02.34.779,posner_endo_new1,2024.2.4,60.11392791942074,2025-02-12 17h02.42.762941 +0000,
cube_r.png,0.1,0.31,valid,30,30,0,up,6.487769200000912,None,space,0.3556873999914387,None,,,,,,,,,0,30,30,30,815.8753931999963,,,,,,,,,,,,,815.8605048000027,815.8753931999963,815.8753931999963,815.8753931999963,822.3700418999942,,,,822.3807675999997,822.3904638999957,822.3904638999957,822.4356668999972,822.4359184999921,822.452429500001,822.452429500001,822.452429500001,822.5357288999949,822.8205058000021,,,,,,,,,,,,,,,,,,,,,,up,6.487769200000912,None,space,0.3556873999914387,None,P104,001,2025-02-12_17h02.34.779,posner_endo_new1,2024.2.4,60.11392791942074,2025-02-12 17h02.42.762941 +0000,
cube_l.png,0.1,-0.31,valid,31,31,0,up,10.103469099994982,None,space,0.3371610999893164,None,,,,,,,,,0,31,31,31,822.8352173000021,,,,,,,,,,,,,822.820999299991,822.8352173000021,822.8352173000021,822.8352173000021,832.9438167999906,,,,832.9620613000006,832.9739430999907,832.9739430999907,833.0078842999937,833.0081823999935,833.0245236999908,833.0245236999908,833.0245236999908,833.1076710999914,833.3751679999987,,,,,,,,,,,,,,,,,,,,,,up,10.103469099994982,None,space,0.3371610999893164,None,P104,001,2025-02-12_17h02.34.779,posner_endo_new1,2024.2.4,60.11392791942074,2025-02-12 17h02.42.762941 +0000,
cube_r.png,0.1,0.31,valid,32,32,0,up,7.331995000000461,None,space,0.2766030999919167,None,,,,,,,,,0,32,32,32,833.3906927999924,,,,,,,,,,,,,833.375417999996,833.3906927999924,833.3906927999924,833.3906927999924,840.7355122000008,,,,840.7540611000004,840.7655819999927,840.7655819999927,840.7999831999914,840.8003010999964,840.8169326999923,840.8169326999923,840.8169326999923,840.8997219000012,841.1009975999914,,,,,,,,,,,,,,,,,,,,,,up,7.331995000000461,None,space,0.2766030999919167,None,P104,001,2025-02-12_17h02.34.779,posner_endo_new1,2024.2.4,60.11392791942074,2025-02-12 17h02.42.762941 +0000,
cube_r.png,0.1,-0.31,invalid,33,33,0,up,7.574421600002097,None,space,0.28919630000018515,None,,,,,,,,,0,33,33,33,841.1162539999932,,,,,,,,,,,,,841.1012726999907,841.1162539999932,841.1162539999932,841.1162539999932,848.6928325000044,,,,848.7024059999967,848.7127116999909,848.7127116999909,848.7585696000024,848.7588912999927,848.7752676999953,848.7752676999953,848.7752676999953,848.8585404999903,849.0760087999952,,,,,,,,,,,,,,,,,,,,,,up,7.574421600002097,None,space,0.28919630000018515,None,P104,001,2025-02-12_17h02.34.779,posner_endo_new1,2024.2.4,60.11392791942074,2025-02-12 17h02.42.762941 +0000,
cube_r.png,0.1,10,catch,34,34,0,up,5.9755892999965,None,None,,,,,,,,,,,0,34,34,34,849.0917806999933,,,,,,,,,,,,,849.0762692999997,849.0917806999933,849.0917806999933,849.0917806999933,855.0701220999908,,,,855.0795433000021,855.0893369999976,855.0893369999976,855.1357338999951,855.1359903999983,855.1522843999992,855.1522843999992,855.1522843999992,855.2355509999907,858.1497334000014,,,,857.2498133999907,858.1653921999969,858.1653921999969,858.1653921999969,,,,,,,,,,,,,,,up,5.9755892999965,None,None,,,P104,001,2025-02-12_17h02.34.779,posner_endo_new1,2024.2.4,60.11392791942074,2025-02-12 17h02.42.762941 +0000,
cube_r.png,0.1,0.31,valid,35,35,0,up,3.773409100002027,None,space,0.4972766999999294,None,,,,,,,,,0,35,35,35,858.1653921999969,,,,,,,,,,,,,858.1499043999938,858.1653921999969,858.1653921999969,858.1653921999969,861.9461317999958,,,,861.9548188999906,861.965119799992,861.965119799992,862.0120651000034,862.0126173000026,862.0284168999933,862.0284168999933,862.0284168999933,862.1117197999993,862.5302154999954,,,,,,,,,,,,,,,,,,,,,,up,3.773409100002027,None,space,0.4972766999999294,None,P104,001,2025-02-12_17h02.34.779,posner_endo_new1,2024.2.4,60.11392791942074,2025-02-12 17h02.42.762941 +0000,
cube_r.png,0.1,-0.31,invalid,36,36,0,up,7.114340200001607,None,space,0.35794780000287574,None,,,,,,,,,0,36,36,36,862.544593899991,,,,,,,,,,,,,862.5307345000037,862.544593899991,862.544593899991,862.544593899991,869.6725519000029,,,,869.690099200001,869.7003526000044,869.7003526000044,869.7372910999984,869.7376670999947,869.7538725999912,869.7538725999912,869.7538725999912,869.837045799999,870.1212291999982,,,,,,,,,,,,,,,,,,,,,,up,7.114340200001607,None,space,0.35794780000287574,None,P104,001,2025-02-12_17h02.34.779,posner_endo_new1,2024.2.4,60.11392791942074,2025-02-12 17h02.42.762941 +0000,
cube_l.png,0.1,0.31,invalid,37,37,0,up,6.698241200007033,None,space,0.3375430000014603,None,,,,,,,,,0,37,37,37,870.136659900003,,,,,,,,,,,,,870.1215287999948,870.136659900003,870.136659900003,870.136659900003,876.8476571999927,,,,876.8591061999905,876.869451999999,876.869451999999,876.913346100002,876.9137039999914,876.9295619999903,876.9295619999903,876.9295619999903,877.0131446000014,877.2799491999904,,,,,,,,,,,,,,,,,,,,,,up,6.698241200007033,None,space,0.3375430000014603,None,P104,001,2025-02-12_17h02.34.779,posner_endo_new1,2024.2.4,60.11392791942074,2025-02-12 17h02.42.762941 +0000,
cube_l.png,0.1,0.31,invalid,38,38,0,up,7.699188899990986,None,space,0.37490969999635126,None,,,,,,,,,0,38,38,38,877.295747199998,,,,,,,,,,,,,877.2801590000017,877.295747199998,877.295747199998,877.295747199998,885.0055126999941,,,,885.0128079999995,885.0242407999904,885.0242407999904,885.0716697000025,885.0721916999901,885.0880914000008,885.0880914000008,885.0880914000008,885.1546955999947,885.4729829999997,,,,,,,,,,,,,,,,,,,,,,up,7.699188899990986,None,space,0.37490969999635126,None,P104,001,2025-02-12_17h02.34.779,posner_endo_new1,2024.2.4,60.11392791942074,2025-02-12 17h02.42.762941 +0000,
cube_r.png,0.1,0.31,valid,39,39,0,up,7.635637700004736,None,space,0.4400748000043677,None,,,,,,,,,0,39,39,39,885.487630100004,,,,,,,,,,,,,885.4734415999992,885.487630100004,885.487630100004,885.487630100004,893.1312053000001,,,,893.1426643000013,893.153040499994,893.153040499994,893.1966672999988,893.1970266999997,893.2129438999982,893.2129438999982,893.2129438999982,893.296509199994,893.6639004000026,,,,,,,,,,,,,,,,,,,,,,up,7.635637700004736,None,space,0.4400748000043677,None,P104,001,2025-02-12_17h02.34.779,posner_endo_new1,2024.2.4,60.11392791942074,2025-02-12 17h02.42.762941 +0000,
cube_l.png,0.1,0.31,invalid,40,40,0,up,8.38006770001084,None,space,0.38111190000199713,None,,,,,,,,,0,40,40,40,893.6790745000035,,,,,,,,,,,,,893.6642067999928,893.6790745000035,893.6790745000035,893.6790745000035,902.0719536999968,,,,902.0832200000004,902.0935090999992,902.0935090999992,902.1374849999993,902.1378427000018,902.1538640999934,902.1538640999934,902.1538640999934,902.2370702999906,902.5381058999919,,,,,,,,,,,,,,,,,,,,,,up,8.38006770001084,None,space,0.38111190000199713,None,P104,001,2025-02-12_17h02.34.779,posner_endo_new1,2024.2.4,60.11392791942074,2025-02-12 17h02.42.762941 +0000,
cube_l.png,0.1,10,catch,41,41,0,up,6.033924700008356,None,None,,,,,,,,,,,0,41,41,41,902.5534940999933,,,,,,,,,,,,,902.5384073000023,902.5534940999933,902.5534940999933,902.5534940999933,908.5984411999962,,,,908.6098532000033,908.6201834999956,908.6201834999956,908.6640444999939,908.6643191999901,908.6805621999956,908.6805621999956,908.6805621999956,908.7638908999943,911.6781185,,,,910.7782682999969,911.6939397999959,911.6939397999959,911.6939397999959,,,,,,,,,,,,,,,up,6.033924700008356,None,None,,,P104,001,2025-02-12_17h02.34.779,posner_endo_new1,2024.2.4,60.11392791942074,2025-02-12 17h02.42.762941 +0000,
cube_l.png,0.1,-0.31,valid,42,42,0,up,4.276743199996417,None,space,0.3186851999926148,None,,,,,,,,,0,42,42,42,911.6939397999959,,,,,,,,,,,,,911.6784101999947,911.6939397999959,911.6939397999959,911.6939397999959,915.9745658000029,,,,915.9830604000017,915.9930955000018,915.9930955000018,916.0401529999945,916.0406797000032,916.0563727999979,916.0563727999979,916.0563727999979,916.1397048999934,916.3912284999969,,,,,,,,,,,,,,,,,,,,,,up,4.276743199996417,None,space,0.3186851999926148,None,P104,001,2025-02-12_17h02.34.779,posner_endo_new1,2024.2.4,60.11392791942074,2025-02-12 17h02.42.762941 +0000,
cube_l.png,0.1,10,catch,43,43,0,up,6.476547999991453,None,None,,,,,,,,,,,0,43,43,43,916.4060634999914,,,,,,,,,,,,,916.3916699999972,916.4060634999914,916.4060634999914,916.4060634999914,922.8840437000035,,,,922.8954532999924,922.9057363000029,922.9057363000029,922.9495071999991,922.9497700999927,922.965858399999,922.965858399999,922.965858399999,923.0491650999902,925.963696699997,,,,925.0638389999949,925.9793921999953,925.9793921999953,925.9793921999953,,,,,,,,,,,,,,,up,6.476547999991453,None,None,,,P104,001,2025-02-12_17h02.34.779,posner_endo_new1,2024.2.4,60.11392791942074,2025-02-12 17h02.42.762941 +0000,
cube_l.png,0.1,0.31,invalid,44,44,0,up,5.71954900000128,None,space,0.3688455000083195,None,,,,,,,,,0,44,44,44,925.9793921999953,,,,,,,,,,,,,925.9639781000005,925.9793921999953,925.9793921999953,925.9793921999953,931.7084497000033,,,,931.720136399992,931.7304521000042,931.7304521000042,931.7740027999971,931.7743595999927,931.7900377999904,931.7900377999904,931.7900377999904,931.8733102999977,932.174549000003,,,,,,,,,,,,,,,,,,,,,,up,5.71954900000128,None,space,0.3688455000083195,None,P104,001,2025-02-12_17h02.34.779,posner_endo_new1,2024.2.4,60.11392791942074,2025-02-12 17h02.42.762941 +0000,
cube_l.png,0.1,0.31,invalid,45,45,0,up,7.277196000010008,None,space,0.39325819999794476,None,,,,,,,,,0,45,45,45,932.1897395999986,,,,,,,,,,,,,932.174860500003,932.1897395999986,932.1897395999986,932.1897395999986,939.4829651000036,,,,939.4903025999956,939.5015211999998,939.5015211999998,939.5492642000027,939.5497788999928,939.5657665000035,939.5657665000035,939.5657665000035,939.6324836999993,939.9666125999938,,,,,,,,,,,,,,,,,,,,,,up,7.277196000010008,None,space,0.39325819999794476,None,P104,001,2025-02-12_17h02.34.779,posner_endo_new1,2024.2.4,60.11392791942074,2025-02-12 17h02.42.762941 +0000,
cube_r.png,0.1,0.31,valid,46,46,0,up,7.708868200003053,None,space,0.40982549999898765,None,,,,,,,,,0,46,46,46,939.9817290999927,,,,,,,,,,,,,939.9669203999947,939.9817290999927,939.9817290999927,939.9817290999927,947.6921898,,,,947.7035681999987,947.7140116999944,947.7140116999944,947.7575664000033,947.7579356999922,947.7737124999985,947.7737124999985,947.7737124999985,947.8573465999943,948.1915883000038,,,,,,,,,,,,,,,,,,,,,,up,7.708868200003053,None,space,0.40982549999898765,None,P104,001,2025-02-12_17h02.34.779,posner_endo_new1,2024.2.4,60.11392791942074,2025-02-12 17h02.42.762941 +0000,
cube_l.png,0.1,-0.31,valid,47,47,0,up,7.124761999992188,None,space,0.3258454000024358,None,,,,,,,,,0,47,47,47,948.2065621999936,,,,,,,,,,,,,948.1918928999949,948.2065621999936,948.2065621999936,948.2065621999936,955.3360513999942,,,,955.3585372999951,955.3711123999965,955.3711123999965,955.3993281000003,955.3996860999905,955.4161822000024,955.4161822000024,955.4161822000024,955.4993325999967,955.7502556999971,,,,,,,,,,,,,,,,,,,,,,up,7.124761999992188,None,space,0.3258454000024358,None,P104,001,2025-02-12_17h02.34.779,posner_endo_new1,2024.2.4,60.11392791942074,2025-02-12 17h02.42.762941 +0000,
cube_r.png,0.1,-0.31,invalid,48,48,0,up,7.837085199993453,None,space,0.24295299999357667,None,,,,,,,,,0,48,48,48,955.7659004000016,,,,,,,,,,,,,955.7505664999917,955.7659004000016,955.7659004000016,955.7659004000016,963.6083274999983,,,,963.6156343000039,963.6269568999996,963.6269568999996,963.6746176000015,963.6751393000013,963.6909994000016,963.6909994000016,963.6909994000016,963.7576239999908,963.9425731999945,,,,,,,,,,,,,,,,,,,,,,up,7.837085199993453,None,space,0.24295299999357667,None,P104,001,2025-02-12_17h02.34.779,posner_endo_new1,2024.2.4,60.11392791942074,2025-02-12 17h02.42.762941 +0000,
cube_r.png,0.1,10,catch,49,49,0,up,7.229163100011647,None,None,,,,,,,,,,,0,49,49,49,963.9574327000009,,,,,,,,,,,,,963.9430202999938,963.9574327000009,963.9574327000009,963.9574327000009,971.2009854999924,,,,971.2112560999958,971.221111699997,971.221111699997,971.2667962999985,971.2670578999969,971.2832947999996,971.2832947999996,971.2832947999996,971.350191599995,974.2814486999996,,,,973.3645640000032,974.2969487999944,974.2969487999944,974.2969487999944,,,,,,,,,,,,,,,up,7.229163100011647,None,None,,,P104,001,2025-02-12_17h02.34.779,posner_endo_new1,2024.2.4,60.11392791942074,2025-02-12 17h02.42.762941 +0000,
cube_l.png,0.1,-0.31,valid,50,50,0,up,4.001946999997017,None,space,0.32543640000221785,None,,,,,,,,,0,50,50,50,974.2969487999944,,,,,,,,,,,,,974.2819006999925,974.2969487999944,974.2969487999944,974.2969487999944,978.3115281999926,,,,978.3297522999928,978.3412010000029,978.3412010000029,978.3761644000042,978.3765209999983,978.392413900001,978.392413900001,978.392413900001,978.476084199996,978.7269567999901,,,,,,,,,,,,,,,,,,,,,,up,4.001946999997017,None,space,0.32543640000221785,None,P104,001,2025-02-12_17h02.34.779,posner_endo_new1,2024.2.4,60.11392791942074,2025-02-12 17h02.42.762941 +0000,
cube_l.png,0.1,-0.31,valid,51,51,0,up,5.436814000000595,None,space,0.4358524999988731,None,,,,,,,,,0,51,51,51,978.7420397999958,,,,,,,,,,,,,978.727255699996,978.7420397999958,978.7420397999958,978.7420397999958,984.1878450999939,,,,984.1993105000001,984.2097596999956,984.2097596999956,984.2535925999982,984.2539544000028,984.2700385999924,984.2700385999924,984.2700385999924,984.3533138999919,984.7208742999937,,,,,,,,,,,,,,,,,,,,,,up,5.436814000000595,None,space,0.4358524999988731,None,P104,001,2025-02-12_17h02.34.779,posner_endo_new1,2024.2.4,60.11392791942074,2025-02-12 17h02.42.762941 +0000,
cube_r.png,0.1,-0.31,invalid,52,52,0,up,6.83520819999103,None,space,0.37082229999941774,None,,,,,,,,,0,52,52,52,984.7361642000033,,,,,,,,,,,,,984.7211761999934,984.7361642000033,984.7361642000033,984.7361642000033,991.5814301999926,,,,991.5995994999976,991.6109665999975,991.6109665999975,991.6454417999921,991.6457512999914,991.6622402999928,991.6622402999928,991.6622402999928,991.7454586999957,992.0473686000041,,,,,,,,,,,,,,,,,,,,,,up,6.83520819999103,None,space,0.37082229999941774,None,P104,001,2025-02-12_17h02.34.779,posner_endo_new1,2024.2.4,60.11392791942074,2025-02-12 17h02.42.762941 +0000,
cube_l.png,0.1,-0.31,valid,53,53,0,up,7.933170699994662,None,space,0.38514589999977034,None,,,,,,,,,0,53,53,53,992.06212029999,,,,,,,,,,,,,992.047859600003,992.06212029999,992.06212029999,992.06212029999,1000.0060983000003,,,,1000.024339800002,1000.0358637000027,1000.0358637000027,1000.0707011999912,1000.0710262999928,1000.0869432000036,1000.0869432000036,1000.0869432000036,1000.1702921999968,1000.4877854999941,,,,,,,,,,,,,,,,,,,,,,up,7.933170699994662,None,space,0.38514589999977034,None,P104,001,2025-02-12_17h02.34.779,posner_endo_new1,2024.2.4,60.11392791942074,2025-02-12 17h02.42.762941 +0000,
cube_r.png,0.1,10,catch,54,54,0,up,5.627692299996852,None,None,,,,,,,,,,,0,54,54,54,1000.5030946999905,,,,,,,,,,,,,1000.4880697000044,1000.5030946999905,1000.5030946999905,1000.5030946999905,1006.1321431999968,,,,1006.1417293999984,1006.1521024999965,1006.1521024999965,1006.19755479999,1006.197877899991,1006.2139680999971,1006.2139680999971,1006.2139680999971,1006.2972393999953,1009.2118021999922,,,,1008.3120612999919,1009.2279252000008,1009.2279252000008,1009.2279252000008,,,,,,,,,,,,,,,up,5.627692299996852,None,None,,,P104,001,2025-02-12_17h02.34.779,posner_endo_new1,2024.2.4,60.11392791942074,2025-02-12 17h02.42.762941 +0000,
cube_l.png,0.1,0.31,invalid,55,55,0,up,3.6549607000051765,None,space,0.4173612000013236,None,,,,,,,,,0,55,55,55,1009.2279252000008,,,,,,,,,,,,,1009.2120505999919,1009.2279252000008,1009.2279252000008,1009.2279252000008,1012.8915815999935,,,,1012.9011612000031,1012.9113854000025,1012.9113854000025,1012.9574597000028,1012.9577826000022,1012.9741597999964,1012.9741597999964,1012.9741597999964,1013.0569932999933,1013.407680999997,,,,,,,,,,,,,,,,,,,,,,up,3.6549607000051765,None,space,0.4173612000013236,None,P104,001,2025-02-12_17h02.34.779,posner_endo_new1,2024.2.4,60.11392791942074,2025-02-12 17h02.42.762941 +0000,
cube_l.png,0.1,-0.31,valid,56,56,0,up,9.131344400011585,None,space,0.4005413000122644,None,,,,,,,,,0,56,56,56,1013.4237126999942,,,,,,,,,,,,,1013.4079452000005,1013.4237126999942,1013.4237126999942,1013.4237126999942,1022.565194499999,,,,1022.5747177000012,1022.5851511999936,1022.5851511999936,1022.6309088999988,1022.6312324000028,1022.6475082999968,1022.6475082999968,1022.6475082999968,1022.7307034999976,1023.0648273999977,,,,,,,,,,,,,,,,,,,,,,up,9.131344400011585,None,space,0.4005413000122644,None,P104,001,2025-02-12_17h02.34.779,posner_endo_new1,2024.2.4,60.11392791942074,2025-02-12 17h02.42.762941 +0000,
cube_r.png,0.1,0.31,valid,57,57,0,up,5.706412899991847,None,space,0.4274435999977868,None,,,,,,,,,0,57,57,57,1023.0802054999949,,,,,,,,,,,,,1023.0650910999975,1023.0802054999949,1023.0802054999949,1023.0802054999949,1028.7919423999992,,,,1028.801477599991,1028.8118767999986,1028.8118767999986,1028.8576238999958,1028.8579537999904,1028.8742934000038,1028.8742934000038,1028.8742934000038,1028.957671199998,1029.308350899999,,,,,,,,,,,,,,,,,,,,,,up,5.706412899991847,None,space,0.4274435999977868,None,P104,001,2025-02-12_17h02.34.779,posner_endo_new1,2024.2.4,60.11392791942074,2025-02-12 17h02.42.762941 +0000,
cube_r.png,0.1,-0.31,invalid,58,58,0,up,7.175349600001937,None,space,0.4001706999988528,None,,,,,,,,,0,58,58,58,1029.323916399997,,,,,,,,,,,,,1029.3086132000026,1029.323916399997,1029.323916399997,1029.323916399997,1036.501175700003,,,,1036.5110205999954,1036.5213245999912,1036.5213245999912,1036.5663746999926,1036.5666956999921,1036.5831431999977,1036.5831431999977,1036.5831431999977,1036.666459400003,1037.0004646000016,,,,,,,,,,,,,,,,,,,,,,up,7.175349600001937,None,space,0.4001706999988528,None,P104,001,2025-02-12_17h02.34.779,posner_endo_new1,2024.2.4,60.11392791942074,2025-02-12 17h02.42.762941 +0000,
cube_l.png,0.1,0.31,invalid,59,59,0,up,6.266631699996651,None,space,0.33736199999111705,None,,,,,,,,,0,59,59,59,1037.0162215000018,,,,,,,,,,,,,1037.000731299995,1037.0162215000018,1037.0162215000018,1037.0162215000018,1043.293837499994,,,,1043.3018912999978,1043.3125392999937,1043.3125392999937,1043.3596885000006,1043.3599287999969,1043.3763190000027,1043.3763190000027,1043.3763190000027,1043.4593039000029,1043.7276844000007,,,,,,,,,,,,,,,,,,,,,,up,6.266631699996651,None,space,0.33736199999111705,None,P104,001,2025-02-12_17h02.34.779,posner_endo_new1,2024.2.4,60.11392791942074,2025-02-12 17h02.42.762941 +0000,
