cue_img,cue_soa,target_x,trial,thisN,thisTrialN,thisRepN,key_control2.keys,key_control2.rt,key_control2.duration,key_resp.keys,key_resp.rt,key_resp.duration,practice.thisRepN,practice.thisTrialN,practice.thisN,practice.thisIndex,block1.thisRepN,block1.thisTrialN,block1.thisN,block1.thisIndex,block2.thisRepN,block2.thisTrialN,block2.thisN,block2.thisIndex,thisRow.t,notes,instructions.started,instructions_txt.started,key_control.started,instructions.stopped,key_control.keys,key_control.rt,key_control.duration,ready.started,ready_txt.started,ready_txt.stopped,ready.stopped,fix.started,fixation.started,key_control2.started,fixation_cross.started,fix.stopped,practice.key_control2.keys,practice.key_control2.rt,practice.key_control2.duration,cue.started,cube.started,fixation_cross_cue.started,cue.stopped,target.started,fixation_target.started,fixation_cross_target.started,key_resp.started,star.started,target.stopped,practice.key_resp.keys,practice.key_resp.rt,practice.key_resp.duration,star.stopped,fixation_target.stopped,fixation_cross_target.stopped,key_resp.stopped,block1.key_control2.keys,block1.key_control2.rt,block1.key_control2.duration,block1.key_resp.keys,block1.key_resp.rt,block1.key_resp.duration,break_2.started,text.started,key_control3.started,text.stopped,break_2.stopped,key_control3.keys,key_control3.rt,key_control3.duration,block2.key_control2.keys,block2.key_control2.rt,block2.key_control2.duration,block2.key_resp.keys,block2.key_resp.rt,block2.key_resp.duration,participant,session,date,expName,psychopyVersion,frameRate,expStart,
,,,,,,,,,,,,,,,,,,,,,,,,,,,0.0075681000000003,0.029224200000001588,0.029224200000001588,129.68513710000002,up,129.6434676,None,,,,,,,,,,,,,,,,,,,,,,,,,,,,,,,,,,,,,,,,,,,,,,,,,,P105,001,2025-02-13_09h54.33.311,posner_endo_new1,2024.2.4,59.96275113899174,2025-02-13 09h54.41.674052 +0000,
,,,,,,,,,,,,,,,,,,,,,,,,,,,,,,,,,,129.6852156,129.6991034,132.72197039999998,132.68122010000002,,,,,,,,,,,,,,,,,,,,,,,,,,,,,,,,,,,,,,,,,,,,,,P105,001,2025-02-13_09h54.33.311,posner_endo_new1,2024.2.4,59.96275113899174,2025-02-13 09h54.41.674052 +0000,
cube_l.png,0.1,-0.31,valid,0,0,0,up,11.222638700000005,None,space,0.5080803000000174,None,0,0,0,0,,,,,,,,,132.72197039999998,,,,,,,,,,,,,132.7088584,132.72197039999998,132.72197039999998,132.72197039999998,143.95262180000003,up,11.222638700000005,None,143.9971316,144.0080956,144.0080956,144.0083169,144.00864940000002,144.0212548,144.0212548,144.0212548,144.11832300000003,144.53453489999998,space,0.5080803000000174,None,,,,,,,,,,,,,,,,,,,,,,,,,P105,001,2025-02-13_09h54.33.311,posner_endo_new1,2024.2.4,59.96275113899174,2025-02-13 09h54.41.674052 +0000,
cube_l.png,0.1,0.31,invalid,1,1,0,up,4.345297699999946,None,space,0.41929879999997866,None,0,1,1,1,,,,,,,,,144.55082930000003,,,,,,,,,,,,,144.53470620000002,144.55082930000003,144.55082930000003,144.55082930000003,148.89946550000002,up,4.345297699999946,None,148.92191200000002,148.93413050000004,148.93413050000004,148.963436,148.9637942,148.97962139999998,148.97962139999998,148.97962139999998,149.0627468,149.41352010000003,space,0.41929879999997866,None,,,,,,,,,,,,,,,,,,,,,,,,,P105,001,2025-02-13_09h54.33.311,posner_endo_new1,2024.2.4,59.96275113899174,2025-02-13 09h54.41.674052 +0000,
cube_r.png,0.1,-0.31,invalid,2,2,0,up,4.715572100000031,None,space,0.506009199999994,None,0,2,2,2,,,,,,,,,149.42935420000003,,,,,,,,,,,,,149.41380430000004,149.42935420000003,149.42935420000003,149.42935420000003,154.15873750000003,up,4.715572100000031,None,154.172171,154.1824593,154.1824593,154.22461270000002,154.2249776,154.2408183,154.2408183,154.2408183,154.32422460000004,154.75814760000003,space,0.506009199999994,None,,,,,,,,,,,,,,,,,,,,,,,,,P105,001,2025-02-13_09h54.33.311,posner_endo_new1,2024.2.4,59.96275113899174,2025-02-13 09h54.41.674052 +0000,
cube_r.png,0.1,10,catch,3,3,0,up,7.003361899999959,None,None,,,0,3,3,3,,,,,,,,,154.77364470000003,,,,,,,,,,,,,154.7584362,154.77364470000003,154.77364470000003,154.77364470000003,161.7862824,up,7.003361899999959,None,161.8063671,161.81659790000003,161.81659790000003,161.8498722,161.850279,161.86620720000002,161.86620720000002,161.86620720000002,161.94940250000002,164.86392790000002,None,,,163.9641368,164.87985960000003,164.87985960000003,164.87985960000003,,,,,,,,,,,,,,,,,,,,,P105,001,2025-02-13_09h54.33.311,posner_endo_new1,2024.2.4,59.96275113899174,2025-02-13 09h54.41.674052 +0000,
cube_l.png,0.1,-0.31,valid,4,4,0,up,4.552264999999977,None,space,0.4263243999999986,None,0,4,4,4,,,,,,,,,164.87985960000003,,,,,,,,,,,,,164.8642269,164.87985960000003,164.87985960000003,164.87985960000003,169.4432023,up,4.552264999999977,None,169.45568680000002,169.4658561,169.4658561,169.5085815,169.50899530000004,169.52498510000004,169.52498510000004,169.52498510000004,169.6083526,169.95931590000004,space,0.4263243999999986,None,,,,,,,,,,,,,,,,,,,,,,,,,P105,001,2025-02-13_09h54.33.311,posner_endo_new1,2024.2.4,59.96275113899174,2025-02-13 09h54.41.674052 +0000,
cube_l.png,0.1,0.31,invalid,5,5,0,up,6.554176299999995,None,space,0.4587444000000005,None,0,5,5,5,,,,,,,,,169.9746184,,,,,,,,,,,,,169.95963110000002,169.9746184,169.9746184,169.9746184,176.53782669999998,up,6.554176299999995,None,176.5597901,176.5714987,176.5714987,176.6012075,176.60155860000003,176.6177085,176.6177085,176.6177085,176.7015161,177.0851692,space,0.4587444000000005,None,,,,,,,,,,,,,,,,,,,,,,,,,P105,001,2025-02-13_09h54.33.311,posner_endo_new1,2024.2.4,59.96275113899174,2025-02-13 09h54.41.674052 +0000,
cube_r.png,0.1,-0.31,invalid,6,6,0,up,5.243716000000006,None,space,0.8576747999999839,None,0,6,6,6,,,,,,,,,177.10115310000003,,,,,,,,,,,,,177.0854445,177.10115310000003,177.10115310000003,177.10115310000003,182.34721990000003,up,5.243716000000006,None,182.35630650000002,182.3662213,182.3662213,182.41196730000001,182.4122205,182.42898739999998,182.42898739999998,182.42898739999998,182.5121782,183.2955576,space,0.8576747999999839,None,,,,,,,,,,,,,,,,,,,,,,,,,P105,001,2025-02-13_09h54.33.311,posner_endo_new1,2024.2.4,59.96275113899174,2025-02-13 09h54.41.674052 +0000,
cube_r.png,0.1,0.31,valid,7,7,0,up,3.8422786999999516,None,space,0.34616039999997383,None,0,7,7,7,,,,,,,,,183.3108843,,,,,,,,,,,,,183.29574840000004,183.3108843,183.3108843,183.3108843,187.1579754,up,3.8422786999999516,None,187.16472750000003,187.1764425,187.1764425,187.22371379999998,187.22396300000003,187.24060430000003,187.24060430000003,187.24060430000003,187.32376500000004,187.59143440000003,space,0.34616039999997383,None,,,,,,,,,,,,,,,,,,,,,,,,,P105,001,2025-02-13_09h54.33.311,posner_endo_new1,2024.2.4,59.96275113899174,2025-02-13 09h54.41.674052 +0000,
cube_l.png,0.1,-0.31,valid,8,8,0,up,5.522741800000006,None,space,0.3062178999999787,None,0,8,8,8,,,,,,,,,187.60719340000003,,,,,,,,,,,,,187.59161620000003,187.60719340000003,187.60719340000003,187.60719340000003,193.1376315,up,5.522741800000006,None,193.15713140000003,193.1678442,193.1678442,193.2011996,193.20164700000004,193.217554,193.217554,193.217554,193.3008218,193.5355513,space,0.3062178999999787,None,,,,,,,,,,,,,,,,,,,,,,,,,P105,001,2025-02-13_09h54.33.311,posner_endo_new1,2024.2.4,59.96275113899174,2025-02-13 09h54.41.674052 +0000,
cube_r.png,0.1,-0.31,invalid,9,9,0,up,5.186255700000004,None,space,0.46151720000000296,None,0,9,9,9,,,,,,,,,193.5506931,,,,,,,,,,,,,193.5359161,193.5506931,193.5506931,193.5506931,198.7465646,up,5.186255700000004,None,198.7559599,198.76642780000003,198.76642780000003,198.8119658,198.81228199999998,198.8284584,198.8284584,198.8284584,198.9120926,199.29621989999998,space,0.46151720000000296,None,,,,,,,,,,,,,,,,,,,,,,,,,P105,001,2025-02-13_09h54.33.311,posner_endo_new1,2024.2.4,59.96275113899174,2025-02-13 09h54.41.674052 +0000,
cube_r.png,0.1,0.31,valid,10,10,0,up,7.849086699999987,None,space,0.4031889999999976,None,0,10,10,10,,,,,,,,,199.3113285,,,,,,,,,,,,,199.29646810000003,199.3113285,199.3113285,199.3113285,207.1714561,up,7.849086699999987,None,207.1808992,207.1911561,207.1911561,207.23709890000003,207.23742070000003,207.25320600000003,207.25320600000003,207.25320600000003,207.3364639,207.67045640000003,space,0.4031889999999976,None,,,,,,,,,,,,,,,,,,,,,,,,,P105,001,2025-02-13_09h54.33.311,posner_endo_new1,2024.2.4,59.96275113899174,2025-02-13 09h54.41.674052 +0000,
,,,,,,,,,,,,,,,,,,,,,,,,,,,,,,,,,,207.67061820000004,207.68657489999998,210.71853240000002,210.6670075,,,,,,,,,,,,,,,,,,,,,,,,,,,,,,,,,,,,,,,,,,,,,,P105,001,2025-02-13_09h54.33.311,posner_endo_new1,2024.2.4,59.96275113899174,2025-02-13 09h54.41.674052 +0000,
cube_l.png,0.1,10,catch,0,0,0,up,13.442298100000016,None,None,,,,,,,0,0,0,0,,,,,210.71853240000002,,,,,,,,,,,,,210.70903520000002,210.71853240000002,210.71853240000002,210.71853240000002,224.17229120000002,,,,224.1947513,224.20723320000002,224.20723320000002,224.23583159999998,224.236154,224.25237600000003,224.25237600000003,224.25237600000003,224.3356897,227.2514408,,,,226.3509204,227.2666663,227.2666663,227.2666663,up,13.442298100000016,None,None,,,,,,,,,,,,,,,,,P105,001,2025-02-13_09h54.33.311,posner_endo_new1,2024.2.4,59.96275113899174,2025-02-13 09h54.41.674052 +0000,
cube_l.png,0.1,10,catch,1,1,0,up,2.181532499999946,None,None,,,,,,,0,1,1,1,,,,,227.2666663,,,,,,,,,,,,,227.2520035,227.2666663,227.2666663,227.2666663,229.45061630000004,,,,229.47258420000003,229.48653130000002,229.48653130000002,229.51388430000003,229.514247,229.53045830000002,229.53045830000002,229.53045830000002,229.61372040000003,232.52822170000002,,,,231.62838650000003,232.54447350000004,232.54447350000004,232.54447350000004,up,2.181532499999946,None,None,,,,,,,,,,,,,,,,,P105,001,2025-02-13_09h54.33.311,posner_endo_new1,2024.2.4,59.96275113899174,2025-02-13 09h54.41.674052 +0000,
cube_l.png,0.1,0.31,invalid,2,2,0,up,2.8001215999999545,None,space,0.38239129999999477,None,,,,,0,2,2,2,,,,,232.54447350000004,,,,,,,,,,,,,232.52850440000003,232.54447350000004,232.54447350000004,232.54447350000004,235.36072560000002,,,,235.3827389,235.39435400000002,235.39435400000002,235.4245527,235.42491030000002,235.44095450000003,235.44095450000003,235.44095450000003,235.5247205,235.82579350000003,,,,,,,,up,2.8001215999999545,None,space,0.38239129999999477,None,,,,,,,,,,,,,,,P105,001,2025-02-13_09h54.33.311,posner_endo_new1,2024.2.4,59.96275113899174,2025-02-13 09h54.41.674052 +0000,
cube_l.png,0.1,0.31,invalid,3,3,0,up,6.504267200000015,None,space,0.3978157999999894,None,,,,,0,3,3,3,,,,,235.84105750000003,,,,,,,,,,,,,235.82609330000003,235.84105750000003,235.84105750000003,235.84105750000003,242.35398930000002,,,,242.3758752,242.38808410000001,242.38808410000001,242.4172512,242.4175697,242.43384980000002,242.43384980000002,242.43384980000002,242.51759800000002,242.83483920000003,,,,,,,,up,6.504267200000015,None,space,0.3978157999999894,None,,,,,,,,,,,,,,,P105,001,2025-02-13_09h54.33.311,posner_endo_new1,2024.2.4,59.96275113899174,2025-02-13 09h54.41.674052 +0000,
cube_l.png,0.1,-0.31,valid,4,4,0,up,7.9030660999999895,None,space,0.31260289999994484,None,,,,,0,4,4,4,,,,,242.8505258,,,,,,,,,,,,,242.83510770000004,242.8505258,242.8505258,242.8505258,250.76029470000003,,,,250.77414800000003,250.78501440000002,250.78501440000002,250.82552650000002,250.82582150000002,250.84192060000004,250.84192060000004,250.84192060000004,250.92534039999998,251.1593444,,,,,,,,up,7.9030660999999895,None,space,0.31260289999994484,None,,,,,,,,,,,,,,,P105,001,2025-02-13_09h54.33.311,posner_endo_new1,2024.2.4,59.96275113899174,2025-02-13 09h54.41.674052 +0000,
cube_r.png,0.1,-0.31,invalid,5,5,0,up,8.217374300000017,None,space,0.3708230000000299,None,,,,,0,5,5,5,,,,,251.1748905,,,,,,,,,,,,,251.15958849999998,251.1748905,251.1748905,251.1748905,259.401638,,,,259.41549810000004,259.4261929,259.4261929,259.46661470000004,259.4669208,259.4831802,259.4831802,259.4831802,259.56637720000003,259.8670731,,,,,,,,up,8.217374300000017,None,space,0.3708230000000299,None,,,,,,,,,,,,,,,P105,001,2025-02-13_09h54.33.311,posner_endo_new1,2024.2.4,59.96275113899174,2025-02-13 09h54.41.674052 +0000,
cube_r.png,0.1,0.31,valid,6,6,0,up,7.558342799999991,None,space,0.39387640000001056,None,,,,,0,6,6,6,,,,,259.8826717,,,,,,,,,,,,,259.8673141,259.8826717,259.8826717,259.8826717,267.4448572,,,,267.4656662,267.4762318,267.4762318,267.50853870000003,267.50899830000003,267.5249648,267.5249648,267.5249648,267.6082399,267.9261082,,,,,,,,up,7.558342799999991,None,space,0.39387640000001056,None,,,,,,,,,,,,,,,P105,001,2025-02-13_09h54.33.311,posner_endo_new1,2024.2.4,59.96275113899174,2025-02-13 09h54.41.674052 +0000,
cube_r.png,0.1,-0.31,invalid,7,7,0,up,9.25136299999997,None,space,0.3296247999999764,None,,,,,0,7,7,7,,,,,267.9413395,,,,,,,,,,,,,267.92649520000003,267.9413395,267.9413395,267.9413395,277.1997328,,,,277.2092169,277.2192847,277.2192847,277.2655093,277.2658379,277.2819225,277.2819225,277.2819225,277.3648693,277.615817,,,,,,,,up,9.25136299999997,None,space,0.3296247999999764,None,,,,,,,,,,,,,,,P105,001,2025-02-13_09h54.33.311,posner_endo_new1,2024.2.4,59.96275113899174,2025-02-13 09h54.41.674052 +0000,
cube_l.png,0.1,-0.31,valid,8,8,0,up,10.729437399999995,None,space,0.2698229000000083,None,,,,,0,8,8,8,,,,,277.6314267,,,,,,,,,,,,,277.616079,277.6314267,277.6314267,277.6314267,288.3734643,,,,288.3955449,288.4080597,288.4080597,288.437393,288.4377151,288.45358020000003,288.45358020000003,288.45358020000003,288.5370558,288.7376919,,,,,,,,up,10.729437399999995,None,space,0.2698229000000083,None,,,,,,,,,,,,,,,P105,001,2025-02-13_09h54.33.311,posner_endo_new1,2024.2.4,59.96275113899174,2025-02-13 09h54.41.674052 +0000,
cube_r.png,0.1,-0.31,invalid,9,9,0,up,8.847453499999972,None,space,0.38198209999995925,None,,,,,0,9,9,9,,,,,288.7532777,,,,,,,,,,,,,288.73795110000003,288.7532777,288.7532777,288.7532777,297.6139082,,,,297.6359614,297.6489426,297.6489426,297.6780601,297.678408,297.6942854,297.6942854,297.6942854,297.777766,298.0784599,,,,,,,,up,8.847453499999972,None,space,0.38198209999995925,None,,,,,,,,,,,,,,,P105,001,2025-02-13_09h54.33.311,posner_endo_new1,2024.2.4,59.96275113899174,2025-02-13 09h54.41.674052 +0000,
cube_l.png,0.1,0.31,invalid,10,10,0,up,9.194809399999997,None,space,0.3991065999999819,None,,,,,0,10,10,10,,,,,298.0938449,,,,,,,,,,,,,298.0787512,298.0938449,298.0938449,298.0938449,307.3021872,,,,307.3090401,307.3207519,307.3207519,307.3678183,307.3681735,307.3846845,307.3846845,307.3846845,307.4675695,307.78514970000003,,,,,,,,up,9.194809399999997,None,space,0.3991065999999819,None,,,,,,,,,,,,,,,P105,001,2025-02-13_09h54.33.311,posner_endo_new1,2024.2.4,59.96275113899174,2025-02-13 09h54.41.674052 +0000,
cube_r.png,0.1,-0.31,invalid,11,11,0,up,7.471844499999975,None,space,0.3683049999999639,None,,,,,0,11,11,11,,,,,307.8006508,,,,,,,,,,,,,307.78543690000004,307.8006508,307.8006508,307.8006508,315.27934400000004,,,,315.3018217,315.3141172,315.3141172,315.3434481,315.3438082,315.35991160000003,315.35991160000003,315.35991160000003,315.4428385,315.7436411,,,,,,,,up,7.471844499999975,None,space,0.3683049999999639,None,,,,,,,,,,,,,,,P105,001,2025-02-13_09h54.33.311,posner_endo_new1,2024.2.4,59.96275113899174,2025-02-13 09h54.41.674052 +0000,
cube_r.png,0.1,0.31,valid,12,12,0,up,7.617313299999978,None,space,0.2611492999999996,None,,,,,0,12,12,12,,,,,315.7592933,,,,,,,,,,,,,315.74393480000003,315.7592933,315.7592933,315.7592933,323.3853482,,,,323.392563,323.4043964,323.4043964,323.4515402,323.45179740000003,323.46786130000004,323.46786130000004,323.46786130000004,323.5512729,323.7351283,,,,,,,,up,7.617313299999978,None,space,0.2611492999999996,None,,,,,,,,,,,,,,,P105,001,2025-02-13_09h54.33.311,posner_endo_new1,2024.2.4,59.96275113899174,2025-02-13 09h54.41.674052 +0000,
cube_l.png,0.1,10,catch,13,13,0,up,9.505479800000046,None,space,0.27408510000003616,None,,,,,0,13,13,13,,,,,323.7510406,,,,,,,,,,,,,323.7353356,323.7510406,323.7510406,323.7510406,333.2611667,,,,333.28312,333.2936138,333.2936138,333.3244604,333.32482020000003,333.3409961,333.3409961,333.3409961,333.4243946,333.625721,,,,,,,,up,9.505479800000046,None,space,0.27408510000003616,None,,,,,,,,,,,,,,,P105,001,2025-02-13_09h54.33.311,posner_endo_new1,2024.2.4,59.96275113899174,2025-02-13 09h54.41.674052 +0000,
cube_r.png,0.1,-0.31,invalid,14,14,0,up,6.799367999999959,None,space,0.406454999999994,None,,,,,0,14,14,14,,,,,333.6408886,,,,,,,,,,,,,333.62601820000003,333.6408886,333.6408886,333.6408886,340.451725,,,,340.4585884,340.4701875,340.4701875,340.5169542,340.5172028,340.5335907,340.5335907,340.5335907,340.6168195,340.9506968,,,,,,,,up,6.799367999999959,None,space,0.406454999999994,None,,,,,,,,,,,,,,,P105,001,2025-02-13_09h54.33.311,posner_endo_new1,2024.2.4,59.96275113899174,2025-02-13 09h54.41.674052 +0000,
cube_l.png,0.1,-0.31,valid,15,15,0,up,4.162260100000026,None,space,0.40884529999999586,None,,,,,0,15,15,15,,,,,340.9670496,,,,,,,,,,,,,340.9508905,340.9670496,340.9670496,340.9670496,345.1314352,,,,345.1495893,345.1610704,345.1610704,345.1956881,345.1960024,345.2122623,345.2122623,345.2122623,345.2954993,345.6299747,,,,,,,,up,4.162260100000026,None,space,0.40884529999999586,None,,,,,,,,,,,,,,,P105,001,2025-02-13_09h54.33.311,posner_endo_new1,2024.2.4,59.96275113899174,2025-02-13 09h54.41.674052 +0000,
cube_r.png,0.1,10,catch,16,16,0,up,5.3235636,None,None,,,,,,,0,16,16,16,,,,,345.6451505,,,,,,,,,,,,,345.630246,345.6451505,345.6451505,345.6451505,350.9740534,,,,350.9831691,350.9933515,350.9933515,351.0399766,351.0402222,351.0565775,351.0565775,351.0565775,351.1397635,354.0551418,,,,353.15464330000003,354.0704554,354.0704554,354.0704554,up,5.3235636,None,None,,,,,,,,,,,,,,,,,P105,001,2025-02-13_09h54.33.311,posner_endo_new1,2024.2.4,59.96275113899174,2025-02-13 09h54.41.674052 +0000,
cube_r.png,0.1,10,catch,17,17,0,up,4.2823869999999715,None,None,,,,,,,0,17,17,17,,,,,354.0704554,,,,,,,,,,,,,354.055694,354.0704554,354.0704554,354.0704554,358.36843,,,,358.3909052,358.4018971,358.4018971,358.4322124,358.4326088,358.4487565,358.4487565,358.4487565,358.5319126,361.44648,,,,360.5466624,361.4622068,361.4622068,361.4622068,up,4.2823869999999715,None,None,,,,,,,,,,,,,,,,,P105,001,2025-02-13_09h54.33.311,posner_endo_new1,2024.2.4,59.96275113899174,2025-02-13 09h54.41.674052 +0000,
cube_l.png,0.1,0.31,invalid,18,18,0,up,2.0429010999999946,None,space,0.44934180000001334,None,,,,,0,18,18,18,,,,,361.4622068,,,,,,,,,,,,,361.4467896,361.4622068,361.4622068,361.4622068,363.5113075,,,,363.5173491,363.5292215,363.5292215,363.5770623,363.57729820000003,363.5936656,363.5936656,363.5936656,363.6766873,364.0464117,,,,,,,,up,2.0429010999999946,None,space,0.44934180000001334,None,,,,,,,,,,,,,,,P105,001,2025-02-13_09h54.33.311,posner_endo_new1,2024.2.4,59.96275113899174,2025-02-13 09h54.41.674052 +0000,
cube_l.png,0.1,10,catch,19,19,0,up,7.844535800000017,None,None,,,,,,,0,19,19,19,,,,,364.0608363,,,,,,,,,,,,,364.04702230000004,364.0608363,364.0608363,364.0608363,371.9212873,,,,371.9439869,371.9562247,371.9562247,371.9851853,371.98558330000003,372.0014764,372.0014764,372.0014764,372.0847125,375.00046960000003,,,,374.09993180000004,375.0156892,375.0156892,375.0156892,up,7.844535800000017,None,None,,,,,,,,,,,,,,,,,P105,001,2025-02-13_09h54.33.311,posner_endo_new1,2024.2.4,59.96275113899174,2025-02-13 09h54.41.674052 +0000,
cube_l.png,0.1,0.31,invalid,20,20,0,up,4.1848426000000245,None,space,0.3811551999999665,None,,,,,0,20,20,20,,,,,375.0156892,,,,,,,,,,,,,375.0010523,375.0156892,375.0156892,375.0156892,379.21381460000003,,,,379.2358434,379.2484893,379.2484893,379.2780391,379.2783865,379.2942499,379.2942499,379.2942499,379.37756110000004,379.678636,,,,,,,,up,4.1848426000000245,None,space,0.3811551999999665,None,,,,,,,,,,,,,,,P105,001,2025-02-13_09h54.33.311,posner_endo_new1,2024.2.4,59.96275113899174,2025-02-13 09h54.41.674052 +0000,
cube_l.png,0.1,-0.31,valid,21,21,0,up,6.002398700000015,None,space,0.3578413999999839,None,,,,,0,21,21,21,,,,,379.6941784,,,,,,,,,,,,,379.6789193,379.6941784,379.6941784,379.6941784,385.7053521,,,,385.7113331,385.722752,385.722752,385.7709304,385.7711738,385.7877873,385.7877873,385.7877873,385.87130840000003,386.1548436,,,,,,,,up,6.002398700000015,None,space,0.3578413999999839,None,,,,,,,,,,,,,,,P105,001,2025-02-13_09h54.33.311,posner_endo_new1,2024.2.4,59.96275113899174,2025-02-13 09h54.41.674052 +0000,
cube_r.png,0.1,0.31,valid,22,22,0,up,3.6299755000000005,None,space,0.3953109999999924,None,,,,,0,22,22,22,,,,,386.1709037,,,,,,,,,,,,,386.1550278,386.1709037,386.1709037,386.1709037,389.8034624,,,,389.8255228,389.8377971,389.8377971,389.86675130000003,389.8670949,389.8833583,389.8833583,389.8833583,389.9666208,390.2840115,,,,,,,,up,3.6299755000000005,None,space,0.3953109999999924,None,,,,,,,,,,,,,,,P105,001,2025-02-13_09h54.33.311,posner_endo_new1,2024.2.4,59.96275113899174,2025-02-13 09h54.41.674052 +0000,
cube_r.png,0.1,-0.31,invalid,23,23,0,up,6.812784800000031,None,space,0.35936380000003965,None,,,,,0,23,23,23,,,,,390.2999997,,,,,,,,,,,,,390.284293,390.2999997,390.2999997,390.2999997,397.1288368,,,,397.15101630000004,397.1616639,397.1616639,397.19259800000003,397.19295420000003,397.2093081,397.2093081,397.2093081,397.29293920000003,397.57718470000003,,,,,,,,up,6.812784800000031,None,space,0.35936380000003965,None,,,,,,,,,,,,,,,P105,001,2025-02-13_09h54.33.311,posner_endo_new1,2024.2.4,59.96275113899174,2025-02-13 09h54.41.674052 +0000,
cube_r.png,0.1,0.31,valid,24,24,0,up,7.232930900000042,None,space,0.3613339000000906,None,,,,,0,24,24,24,,,,,397.59230310000004,,,,,,,,,,,,,397.5774833,397.59230310000004,397.59230310000004,397.59230310000004,404.8358824,,,,404.84714549999995,404.85739870000003,404.85739870000003,404.90180690000005,404.90216920000006,404.9180065,404.9180065,404.9180065,404.9847461,405.28555539999996,,,,,,,,up,7.232930900000042,None,space,0.3613339000000906,None,,,,,,,,,,,,,,,P105,001,2025-02-13_09h54.33.311,posner_endo_new1,2024.2.4,59.96275113899174,2025-02-13 09h54.41.674052 +0000,
cube_r.png,0.1,-0.31,invalid,25,25,0,up,6.45124839999994,None,space,0.6133392000000413,None,,,,,0,25,25,25,,,,,405.301307,,,,,,,,,,,,,405.2858561,405.301307,405.301307,405.301307,411.76177160000003,,,,411.76908099999997,411.7810678,411.7810678,411.8280196,411.8285365,411.84433889999997,411.84433889999997,411.84433889999997,411.910955,412.46239510000004,,,,,,,,up,6.45124839999994,None,space,0.6133392000000413,None,,,,,,,,,,,,,,,P105,001,2025-02-13_09h54.33.311,posner_endo_new1,2024.2.4,59.96275113899174,2025-02-13 09h54.41.674052 +0000,
cube_l.png,0.1,-0.31,valid,26,26,0,up,5.66015630000004,None,space,0.36199440000007144,None,,,,,0,26,26,26,,,,,412.47708719999997,,,,,,,,,,,,,412.4628426,412.47708719999997,412.47708719999997,412.47708719999997,418.1393138,,,,418.15053430000006,418.1608732,418.1608732,418.20460800000006,418.20498060000006,418.22113500000006,418.22113500000006,418.22113500000006,418.3046771,418.58905999999996,,,,,,,,up,5.66015630000004,None,space,0.36199440000007144,None,,,,,,,,,,,,,,,P105,001,2025-02-13_09h54.33.311,posner_endo_new1,2024.2.4,59.96275113899174,2025-02-13 09h54.41.674052 +0000,
cube_r.png,0.1,0.31,valid,27,27,0,up,9.773048000000017,None,space,0.3019660999999587,None,,,,,0,27,27,27,,,,,418.6040053,,,,,,,,,,,,,418.5893553,418.6040053,418.6040053,418.6040053,428.3804724,,,,428.4026671,428.41511929999996,428.41511929999996,428.44390560000005,428.4441834,428.46023829999996,428.46023829999996,428.46023829999996,428.54368630000005,428.77817469999997,,,,,,,,up,9.773048000000017,None,space,0.3019660999999587,None,,,,,,,,,,,,,,,P105,001,2025-02-13_09h54.33.311,posner_endo_new1,2024.2.4,59.96275113899174,2025-02-13 09h54.41.674052 +0000,
cube_r.png,0.1,10,catch,28,28,0,up,4.223258600000008,None,None,,,,,,,0,28,28,28,,,,,428.7939211,,,,,,,,,,,,,428.77838549999996,428.7939211,428.7939211,428.7939211,433.02371580000005,,,,433.03091250000006,433.042754,433.042754,433.0892224,433.08948390000006,433.10613300000006,433.10613300000006,433.10613300000006,433.1889719,436.10372620000004,,,,435.2035129,436.11919230000007,436.11919230000007,436.11919230000007,up,4.223258600000008,None,None,,,,,,,,,,,,,,,,,P105,001,2025-02-13_09h54.33.311,posner_endo_new1,2024.2.4,59.96275113899174,2025-02-13 09h54.41.674052 +0000,
cube_r.png,0.1,0.31,valid,29,29,0,up,0.4414259000000129,None,space,0.33546179999996184,None,,,,,0,29,29,29,,,,,436.11919230000007,,,,,,,,,,,,,436.10392329999996,436.11919230000007,436.11919230000007,436.11919230000007,436.5699023,,,,436.5770673,436.58883069999996,436.58883069999996,436.6361827,436.6364415,436.65208609999996,436.65208609999996,436.65208609999996,436.73585929999996,437.00314799999995,,,,,,,,up,0.4414259000000129,None,space,0.33546179999996184,None,,,,,,,,,,,,,,,P105,001,2025-02-13_09h54.33.311,posner_endo_new1,2024.2.4,59.96275113899174,2025-02-13 09h54.41.674052 +0000,
cube_r.png,0.1,0.31,valid,30,30,0,up,5.446323100000086,None,space,0.3462968000000046,None,,,,,0,30,30,30,,,,,437.0183007,,,,,,,,,,,,,437.00335090000004,437.0183007,437.0183007,437.0183007,442.48039769999997,,,,442.48764910000006,442.4993752,442.4993752,442.54652400000003,442.5467859,442.5627079,442.5627079,442.5627079,442.6293093,442.91386919999997,,,,,,,,up,5.446323100000086,None,space,0.3462968000000046,None,,,,,,,,,,,,,,,P105,001,2025-02-13_09h54.33.311,posner_endo_new1,2024.2.4,59.96275113899174,2025-02-13 09h54.41.674052 +0000,
cube_l.png,0.1,-0.31,valid,31,31,0,up,5.079810800000018,None,space,0.4091113999999152,None,,,,,0,31,31,31,,,,,442.9295004,,,,,,,,,,,,,442.91407780000003,442.9295004,442.9295004,442.9295004,448.02525470000006,,,,448.03258180000006,448.04392049999996,448.04392049999996,448.09061130000003,448.09087200000005,448.10751980000003,448.10751980000003,448.10751980000003,448.1902733,448.5243681,,,,,,,,up,5.079810800000018,None,space,0.4091113999999152,None,,,,,,,,,,,,,,,P105,001,2025-02-13_09h54.33.311,posner_endo_new1,2024.2.4,59.96275113899174,2025-02-13 09h54.41.674052 +0000,
cube_r.png,0.1,0.31,valid,32,32,0,up,3.6851155999999037,None,space,0.3659873000000289,None,,,,,0,32,32,32,,,,,448.53982149999996,,,,,,,,,,,,,448.5245795,448.53982149999996,448.53982149999996,448.53982149999996,452.23850150000004,,,,452.2564025,452.2682299,452.2682299,452.30339970000006,452.30376100000007,452.31960699999996,452.31960699999996,452.31960699999996,452.40314100000006,452.6876583,,,,,,,,up,3.6851155999999037,None,space,0.3659873000000289,None,,,,,,,,,,,,,,,P105,001,2025-02-13_09h54.33.311,posner_endo_new1,2024.2.4,59.96275113899174,2025-02-13 09h54.41.674052 +0000,
cube_r.png,0.1,-0.31,invalid,33,33,0,up,2.522548400000005,None,space,0.33178350000002865,None,,,,,0,33,33,33,,,,,452.70248380000004,,,,,,,,,,,,,452.68795130000007,452.70248380000004,452.70248380000004,452.70248380000004,455.23485639999996,,,,455.2459843,455.25651980000004,455.25651980000004,455.3004828,455.30085909999997,455.31642890000006,455.31642890000006,455.31642890000006,455.4000306,455.6510599,,,,,,,,up,2.522548400000005,None,space,0.33178350000002865,None,,,,,,,,,,,,,,,P105,001,2025-02-13_09h54.33.311,posner_endo_new1,2024.2.4,59.96275113899174,2025-02-13 09h54.41.674052 +0000,
cube_r.png,0.1,10,catch,34,34,0,up,3.34238670000002,None,None,,,,,,,0,34,34,34,,,,,455.66653660000003,,,,,,,,,,,,,455.65136179999996,455.66653660000003,455.66653660000003,455.66653660000003,459.01408510000005,,,,459.02536260000005,459.03571070000004,459.03571070000004,459.079401,459.07975619999996,459.0961693,459.0961693,459.0961693,459.17916759999997,462.09374770000005,,,,461.1942721,462.10987660000006,462.10987660000006,462.10987660000006,up,3.34238670000002,None,None,,,,,,,,,,,,,,,,,P105,001,2025-02-13_09h54.33.311,posner_endo_new1,2024.2.4,59.96275113899174,2025-02-13 09h54.41.674052 +0000,
cube_r.png,0.1,0.31,valid,35,35,0,up,4.7390428999999585,None,space,0.44351819999997133,None,,,,,0,35,35,35,,,,,462.10987660000006,,,,,,,,,,,,,462.0940212,462.10987660000006,462.10987660000006,462.10987660000006,466.85788110000004,,,,466.8773167,466.8879318,466.8879318,466.92161060000007,466.9220598,466.9379436,466.9379436,466.9379436,467.0211453,467.3889218,,,,,,,,up,4.7390428999999585,None,space,0.44351819999997133,None,,,,,,,,,,,,,,,P105,001,2025-02-13_09h54.33.311,posner_endo_new1,2024.2.4,59.96275113899174,2025-02-13 09h54.41.674052 +0000,
cube_r.png,0.1,-0.31,invalid,36,36,0,up,2.588852000000088,None,space,0.40151730000002317,None,,,,,0,36,36,36,,,,,467.4039165,,,,,,,,,,,,,467.38918789999997,467.4039165,467.4039165,467.4039165,470.0029043,,,,470.01230790000005,470.02244579999996,470.02244579999996,470.06816910000003,470.06848470000006,470.08507490000005,470.08507490000005,470.08507490000005,470.16784690000003,470.5020864,,,,,,,,up,2.588852000000088,None,space,0.40151730000002317,None,,,,,,,,,,,,,,,P105,001,2025-02-13_09h54.33.311,posner_endo_new1,2024.2.4,59.96275113899174,2025-02-13 09h54.41.674052 +0000,
cube_l.png,0.1,0.31,invalid,37,37,0,up,5.292317400000002,None,space,0.4206097999999656,None,,,,,0,37,37,37,,,,,470.51790280000006,,,,,,,,,,,,,470.5023452,470.51790280000006,470.51790280000006,470.51790280000006,475.81334740000005,,,,475.8226944,475.83302810000004,475.83302810000004,475.87884790000004,475.87917139999996,475.89536260000006,475.89536260000006,475.89536260000006,475.9786175,476.32932,,,,,,,,up,5.292317400000002,None,space,0.4206097999999656,None,,,,,,,,,,,,,,,P105,001,2025-02-13_09h54.33.311,posner_endo_new1,2024.2.4,59.96275113899174,2025-02-13 09h54.41.674052 +0000,
cube_l.png,0.1,0.31,invalid,38,38,0,up,9.551801400000045,None,space,0.38335430000006454,None,,,,,0,38,38,38,,,,,476.34530220000005,,,,,,,,,,,,,476.32958590000004,476.34530220000005,476.34530220000005,476.34530220000005,485.90301289999996,,,,485.91248809999996,485.92299210000004,485.92299210000004,485.9685274,485.9688438,485.9854605,485.9854605,485.9854605,486.06827749999997,486.38577260000005,,,,,,,,up,9.551801400000045,None,space,0.38335430000006454,None,,,,,,,,,,,,,,,P105,001,2025-02-13_09h54.33.311,posner_endo_new1,2024.2.4,59.96275113899174,2025-02-13 09h54.41.674052 +0000,
cube_r.png,0.1,0.31,valid,39,39,0,up,6.935075999999981,None,space,0.3372342000000117,None,,,,,0,39,39,39,,,,,486.40129830000006,,,,,,,,,,,,,486.3860381,486.40129830000006,486.40129830000006,486.40129830000006,493.3453678,,,,493.35136330000006,493.3630606,493.3630606,493.41098719999997,493.4112257,493.42784910000006,493.42784910000006,493.42784910000006,493.5111176,493.78005179999997,,,,,,,,up,6.935075999999981,None,space,0.3372342000000117,None,,,,,,,,,,,,,,,P105,001,2025-02-13_09h54.33.311,posner_endo_new1,2024.2.4,59.96275113899174,2025-02-13 09h54.41.674052 +0000,
cube_l.png,0.1,0.31,invalid,40,40,0,up,11.270877400000018,None,space,0.31829190000007657,None,,,,,0,40,40,40,,,,,493.79462229999996,,,,,,,,,,,,,493.78063430000003,493.79462229999996,493.79462229999996,493.79462229999996,505.0687889,,,,505.09068600000006,505.10194340000004,505.10194340000004,505.13285779999995,505.133211,505.1490578,505.1490578,505.1490578,505.23258519999996,505.48341710000005,,,,,,,,up,11.270877400000018,None,space,0.31829190000007657,None,,,,,,,,,,,,,,,P105,001,2025-02-13_09h54.33.311,posner_endo_new1,2024.2.4,59.96275113899174,2025-02-13 09h54.41.674052 +0000,
cube_l.png,0.1,10,catch,41,41,0,up,5.557635499999947,None,None,,,,,,,0,41,41,41,,,,,505.49904740000005,,,,,,,,,,,,,505.48371590000005,505.49904740000005,505.49904740000005,505.49904740000005,511.0607673,,,,511.0668027,511.07856210000006,511.07856210000006,511.12613030000006,511.1263703,511.1429219,511.1429219,511.1429219,511.20944030000004,514.1404259,,,,513.2242996,514.1565621,514.1565621,514.1565621,up,5.557635499999947,None,None,,,,,,,,,,,,,,,,,P105,001,2025-02-13_09h54.33.311,posner_endo_new1,2024.2.4,59.96275113899174,2025-02-13 09h54.41.674052 +0000,
cube_l.png,0.1,-0.31,valid,42,42,0,up,5.900815200000011,None,space,0.37933029999999235,None,,,,,0,42,42,42,,,,,514.1565621,,,,,,,,,,,,,514.1405984999999,514.1565621,514.1565621,514.1565621,520.0681662999999,,,,520.0740903,520.0856620999999,520.0856620999999,520.1339383,520.1341774,520.1505175,520.1505175,520.1505175,520.2333964,520.5344958,,,,,,,,up,5.900815200000011,None,space,0.37933029999999235,None,,,,,,,,,,,,,,,P105,001,2025-02-13_09h54.33.311,posner_endo_new1,2024.2.4,59.96275113899174,2025-02-13 09h54.41.674052 +0000,
cube_l.png,0.1,10,catch,43,43,0,up,12.026838899999916,None,space,0.3190349999999853,None,,,,,0,43,43,43,,,,,520.5500705999999,,,,,,,,,,,,,520.5346755999999,520.5500705999999,520.5500705999999,520.5500705999999,532.5904021,,,,532.6125109,532.6247980999999,532.6247980999999,532.654334,532.6547856999999,532.6707372,532.6707372,532.6707372,532.7540313999999,533.0053402,,,,,,,,up,12.026838899999916,None,space,0.3190349999999853,None,,,,,,,,,,,,,,,P105,001,2025-02-13_09h54.33.311,posner_endo_new1,2024.2.4,59.96275113899174,2025-02-13 09h54.41.674052 +0000,
cube_l.png,0.1,0.31,invalid,44,44,0,up,3.3162940999999364,None,space,0.38994820000004893,None,,,,,0,44,44,44,,,,,533.0204518999999,,,,,,,,,,,,,533.0057204,533.0204518999999,533.0204518999999,533.0204518999999,536.3518184999999,,,,536.3611172,536.3713789999999,536.3713789999999,536.4169876999999,536.4173133999999,536.4336186999999,536.4336186999999,536.4336186999999,536.5167884,536.8346323,,,,,,,,up,3.3162940999999364,None,space,0.38994820000004893,None,,,,,,,,,,,,,,,P105,001,2025-02-13_09h54.33.311,posner_endo_new1,2024.2.4,59.96275113899174,2025-02-13 09h54.41.674052 +0000,
cube_l.png,0.1,0.31,invalid,45,45,0,up,2.3593638000000965,None,space,0.7128016000000343,None,,,,,0,45,45,45,,,,,536.8497497999999,,,,,,,,,,,,,536.8348900999999,536.8497497999999,536.8497497999999,536.8497497999999,539.2151411,,,,539.2243914,539.2346966,539.2346966,539.2811578,539.2814741999999,539.2972354999999,539.2972354999999,539.2972354999999,539.3807098,540.0142861999999,,,,,,,,up,2.3593638000000965,None,space,0.7128016000000343,None,,,,,,,,,,,,,,,P105,001,2025-02-13_09h54.33.311,posner_endo_new1,2024.2.4,59.96275113899174,2025-02-13 09h54.41.674052 +0000,
cube_r.png,0.1,0.31,valid,46,46,0,up,5.018675799999983,None,space,0.36110489999998663,None,,,,,0,46,46,46,,,,,540.0298681999999,,,,,,,,,,,,,540.0145501999999,540.0298681999999,540.0298681999999,540.0298681999999,545.0593044999999,,,,545.0686688,545.079069,545.079069,545.1247429,545.1250636999999,545.1413544,545.1413544,545.1413544,545.2245231999999,545.5086061,,,,,,,,up,5.018675799999983,None,space,0.36110489999998663,None,,,,,,,,,,,,,,,P105,001,2025-02-13_09h54.33.311,posner_endo_new1,2024.2.4,59.96275113899174,2025-02-13 09h54.41.674052 +0000,
cube_l.png,0.1,-0.31,valid,47,47,0,up,9.236914699999943,None,space,0.4519120999999586,None,,,,,0,47,47,47,,,,,545.5242962,,,,,,,,,,,,,545.5088632,545.5242962,545.5242962,545.5242962,554.7658508,,,,554.7757002,554.7881092,554.7881092,554.8323062999999,554.833004,554.8486279,554.8486279,554.8486279,554.9151787999999,555.3173440999999,,,,,,,,up,9.236914699999943,None,space,0.4519120999999586,None,,,,,,,,,,,,,,,P105,001,2025-02-13_09h54.33.311,posner_endo_new1,2024.2.4,59.96275113899174,2025-02-13 09h54.41.674052 +0000,
cube_r.png,0.1,-0.31,invalid,48,48,0,up,9.717800200000056,None,space,0.482741400000009,None,,,,,0,48,48,48,,,,,555.3314971,,,,,,,,,,,,,555.3179339999999,555.3314971,555.3314971,555.3314971,565.0555134,,,,565.0645999,565.0746273,565.0746273,565.1215735999999,565.1218372999999,565.1371936999999,565.1371936999999,565.1371936999999,565.2212208,565.6216204,,,,,,,,up,9.717800200000056,None,space,0.482741400000009,None,,,,,,,,,,,,,,,P105,001,2025-02-13_09h54.33.311,posner_endo_new1,2024.2.4,59.96275113899174,2025-02-13 09h54.41.674052 +0000,
cube_r.png,0.1,10,catch,49,49,0,up,6.524010999999973,None,None,,,,,,,0,49,49,49,,,,,565.6373327,,,,,,,,,,,,,565.6217942,565.6373327,565.6373327,565.6373327,572.1667001,,,,572.1889169,572.2012219999999,572.2012219999999,572.230912,572.2312754,572.2472197,572.2472197,572.2472197,572.3306163999999,575.2457952999999,,,,574.3453516999999,575.2611030999999,575.2611030999999,575.2611030999999,up,6.524010999999973,None,None,,,,,,,,,,,,,,,,,P105,001,2025-02-13_09h54.33.311,posner_endo_new1,2024.2.4,59.96275113899174,2025-02-13 09h54.41.674052 +0000,
cube_l.png,0.1,-0.31,valid,50,50,0,up,2.3319905000000745,None,space,0.42935610000006363,None,,,,,0,50,50,50,,,,,575.2611030999999,,,,,,,,,,,,,575.2463422999999,575.2611030999999,575.2611030999999,575.2611030999999,577.6109717999999,,,,577.633058,577.6428684,577.6428684,577.6749047,577.6753027,577.6912868,577.6912868,577.6912868,577.7745441,578.1255967,,,,,,,,up,2.3319905000000745,None,space,0.42935610000006363,None,,,,,,,,,,,,,,,P105,001,2025-02-13_09h54.33.311,posner_endo_new1,2024.2.4,59.96275113899174,2025-02-13 09h54.41.674052 +0000,
cube_l.png,0.1,-0.31,valid,51,51,0,up,3.115854899999931,None,space,0.4163081000000375,None,,,,,0,51,51,51,,,,,578.1409236,,,,,,,,,,,,,578.1259292999999,578.1409236,578.1409236,578.1409236,581.2739925,,,,581.294761,581.3045963,581.3045963,581.3377934,581.3381941,581.3543492,581.3543492,581.3543492,581.4374954,581.7716505999999,,,,,,,,up,3.115854899999931,None,space,0.4163081000000375,None,,,,,,,,,,,,,,,P105,001,2025-02-13_09h54.33.311,posner_endo_new1,2024.2.4,59.96275113899174,2025-02-13 09h54.41.674052 +0000,
cube_r.png,0.1,-0.31,invalid,52,52,0,up,6.6859772999999905,None,space,0.38331189999996695,None,,,,,0,52,52,52,,,,,581.7871399999999,,,,,,,,,,,,,581.7718795999999,581.7871399999999,581.7871399999999,581.7871399999999,588.4816936999999,,,,588.4876193,588.4992490999999,588.4992490999999,588.5472821,588.5475210999999,588.5638739999999,588.5638739999999,588.5638739999999,588.6473545,588.9643649,,,,,,,,up,6.6859772999999905,None,space,0.38331189999996695,None,,,,,,,,,,,,,,,P105,001,2025-02-13_09h54.33.311,posner_endo_new1,2024.2.4,59.96275113899174,2025-02-13 09h54.41.674052 +0000,
cube_l.png,0.1,-0.31,valid,53,53,0,up,2.3167490999999245,None,space,0.5285637999999153,None,,,,,0,53,53,53,,,,,588.9798572999999,,,,,,,,,,,,,588.9645502999999,588.9798572999999,588.9798572999999,588.9798572999999,591.3120038999999,,,,591.3179256,591.3295932999999,591.3295932999999,591.3775112,591.3777517999999,591.3944945,591.3944945,591.3944945,591.4771050999999,591.9276130999999,,,,,,,,up,2.3167490999999245,None,space,0.5285637999999153,None,,,,,,,,,,,,,,,P105,001,2025-02-13_09h54.33.311,posner_endo_new1,2024.2.4,59.96275113899174,2025-02-13 09h54.41.674052 +0000,
cube_r.png,0.1,10,catch,54,54,0,up,2.5781372000000147,None,None,,,,,,,0,54,54,54,,,,,591.9434937,,,,,,,,,,,,,591.9277904999999,591.9434937,591.9434937,591.9434937,594.5254398999999,,,,594.5313385999999,594.5429411,594.5429411,594.5908691999999,594.5911054999999,594.6078202,594.6078202,594.6078202,594.6744603,597.6053890999999,,,,596.6887866999999,597.6211313,597.6211313,597.6211313,up,2.5781372000000147,None,None,,,,,,,,,,,,,,,,,P105,001,2025-02-13_09h54.33.311,posner_endo_new1,2024.2.4,59.96275113899174,2025-02-13 09h54.41.674052 +0000,
cube_l.png,0.1,0.31,invalid,55,55,0,up,0.09264250000001084,None,space,0.41816049999999905,None,,,,,0,55,55,55,,,,,597.6211313,,,,,,,,,,,,,597.6057571,597.6211313,597.6211313,597.6211313,597.722492,,,,597.7362776,597.7467905,597.7467905,597.7878893,597.7883369,597.8043488999999,597.8043488999999,597.8043488999999,597.887445,598.2386227999999,,,,,,,,up,0.09264250000001084,None,space,0.41816049999999905,None,,,,,,,,,,,,,,,P105,001,2025-02-13_09h54.33.311,posner_endo_new1,2024.2.4,59.96275113899174,2025-02-13 09h54.41.674052 +0000,
cube_l.png,0.1,-0.31,valid,56,56,0,up,2.8832981000000473,None,space,0.44296190000000024,None,,,,,0,56,56,56,,,,,598.2537008999999,,,,,,,,,,,,,598.238881,598.2537008999999,598.2537008999999,598.2537008999999,601.1521392,,,,601.1614986,601.1719115,601.1719115,601.2178389999999,601.2181597,601.2339536999999,601.2339536999999,601.2339536999999,601.3176426,601.6847707,,,,,,,,up,2.8832981000000473,None,space,0.44296190000000024,None,,,,,,,,,,,,,,,P105,001,2025-02-13_09h54.33.311,posner_endo_new1,2024.2.4,59.96275113899174,2025-02-13 09h54.41.674052 +0000,
cube_r.png,0.1,0.31,valid,57,57,0,up,2.116778599999975,None,space,0.35095400000000154,None,,,,,0,57,57,57,,,,,601.7002044,,,,,,,,,,,,,601.6850308999999,601.7002044,601.7002044,601.7002044,603.8328038999999,,,,603.8421065,603.8521685,603.8521685,603.8981421,603.8984578,603.9149003,603.9149003,603.9149003,603.9978368,604.2820204999999,,,,,,,,up,2.116778599999975,None,space,0.35095400000000154,None,,,,,,,,,,,,,,,P105,001,2025-02-13_09h54.33.311,posner_endo_new1,2024.2.4,59.96275113899174,2025-02-13 09h54.41.674052 +0000,
cube_r.png,0.1,-0.31,invalid,58,58,0,up,2.5592772999999625,None,space,0.5170540999999957,None,,,,,0,58,58,58,,,,,604.2975716999999,,,,,,,,,,,,,604.2822795999999,604.2975716999999,604.2975716999999,604.2975716999999,606.8630566999999,,,,606.8725552999999,606.8828136,606.8828136,606.9287703,606.9290864999999,606.944805,606.944805,606.944805,607.0280502999999,607.4791732,,,,,,,,up,2.5592772999999625,None,space,0.5170540999999957,None,,,,,,,,,,,,,,,P105,001,2025-02-13_09h54.33.311,posner_endo_new1,2024.2.4,59.96275113899174,2025-02-13 09h54.41.674052 +0000,
cube_l.png,0.1,0.31,invalid,59,59,0,up,3.747193799999991,None,space,0.3507266999999956,None,,,,,0,59,59,59,,,,,607.4942067,,,,,,,,,,,,,607.4794264,607.4942067,607.4942067,607.4942067,611.2580727,,,,611.2737019,611.2854656,611.2854656,611.3240027999999,611.3246785,611.3409137,611.3409137,611.3409137,611.407431,611.7095736,,,,,,,,up,3.747193799999991,None,space,0.3507266999999956,None,,,,,,,,,,,,,,,P105,001,2025-02-13_09h54.33.311,posner_endo_new1,2024.2.4,59.96275113899174,2025-02-13 09h54.41.674052 +0000,
,,,,,,,,,,,,,,,,,,,,,,,,,,,,,,,,,,,,,,,,,,,,,,,,,,,,,,,,,,,,,,,,,,,,,611.7099469999999,611.7251593999999,611.7251593999999,671.7291041999999,698.6206923,space,86.88457349999999,None,,,,,,,P105,001,2025-02-13_09h54.33.311,posner_endo_new1,2024.2.4,59.96275113899174,2025-02-13 09h54.41.674052 +0000,
,,,,,,,,,,,,,,,,,,,,,,,,,,,,,,,,,,698.6208565999999,698.634966,701.6704348,701.6165298,,,,,,,,,,,,,,,,,,,,,,,,,,,,,,,,,,,,,,,,,,,,,,P105,001,2025-02-13_09h54.33.311,posner_endo_new1,2024.2.4,59.96275113899174,2025-02-13 09h54.41.674052 +0000,
cube_l.png,0.1,10,catch,0,0,0,down,6.834996100000012,None,None,,,,,,,,,,,0,0,0,0,701.6704348,,,,,,,,,,,,,701.661696,701.6704348,701.6704348,701.6704348,708.5092824999999,,,,708.5189756999999,708.5291479,708.5291479,708.5744986,708.5748179,708.5909124,708.5909124,708.5909124,708.6742072999999,711.5884825999999,,,,710.68881,711.6045373,711.6045373,711.6045373,,,,,,,,,,,,,,,down,6.834996100000012,None,None,,,P105,001,2025-02-13_09h54.33.311,posner_endo_new1,2024.2.4,59.96275113899174,2025-02-13 09h54.41.674052 +0000,
cube_l.png,0.1,10,catch,1,1,0,down,2.6451792999999952,None,None,,,,,,,,,,,0,1,1,1,711.6045373,,,,,,,,,,,,,711.5887262,711.6045373,711.6045373,711.6045373,714.255056,,,,714.2772336999999,714.2899087999999,714.2899087999999,714.3189302,714.3192696,714.3352322,714.3352322,714.3352322,714.4183819,717.3332671,,,,716.4332840999999,717.3490922,717.3490922,717.3490922,,,,,,,,,,,,,,,down,2.6451792999999952,None,None,,,P105,001,2025-02-13_09h54.33.311,posner_endo_new1,2024.2.4,59.96275113899174,2025-02-13 09h54.41.674052 +0000,
cube_l.png,0.1,0.31,invalid,2,2,0,down,2.132583699999941,None,space,0.3708730999999261,None,,,,,,,,,0,2,2,2,717.3490922,,,,,,,,,,,,,717.3335356,717.3490922,717.3490922,717.3490922,719.4977782,,,,719.5062710999999,719.5164959,719.5164959,719.5632784999999,719.5635278999999,719.5796690999999,719.5796690999999,719.5796690999999,719.6634335,719.9633266999999,,,,,,,,,,,,,,,,,,,,,,down,2.132583699999941,None,space,0.3708730999999261,None,P105,001,2025-02-13_09h54.33.311,posner_endo_new1,2024.2.4,59.96275113899174,2025-02-13 09h54.41.674052 +0000,
cube_l.png,0.1,0.31,invalid,3,3,0,down,6.166187799999989,None,space,0.3120772999999417,None,,,,,,,,,0,3,3,3,719.9796848999999,,,,,,,,,,,,,719.9635214,719.9796848999999,719.9796848999999,719.9796848999999,726.1592201999999,,,,726.1811885,726.1934388,726.1934388,726.2230004999999,726.2233623,726.2395786999999,726.2395786999999,726.2395786999999,726.3229693,726.5572651,,,,,,,,,,,,,,,,,,,,,,down,6.166187799999989,None,space,0.3120772999999417,None,P105,001,2025-02-13_09h54.33.311,posner_endo_new1,2024.2.4,59.96275113899174,2025-02-13 09h54.41.674052 +0000,
cube_l.png,0.1,-0.31,valid,4,4,0,down,6.892305699999952,None,space,0.5200000999999475,None,,,,,,,,,0,4,4,4,726.5729951999999,,,,,,,,,,,,,726.5575613,726.5729951999999,726.5729951999999,726.5729951999999,733.4686557,,,,733.4911993999999,733.5034849,733.5034849,733.5324708999999,733.5329204,733.5489054999999,733.5489054999999,733.5489054999999,733.6321838,734.0833657999999,,,,,,,,,,,,,,,,,,,,,,down,6.892305699999952,None,space,0.5200000999999475,None,P105,001,2025-02-13_09h54.33.311,posner_endo_new1,2024.2.4,59.96275113899174,2025-02-13 09h54.41.674052 +0000,
cube_r.png,0.1,-0.31,invalid,5,5,0,down,6.6066514000000325,None,space,0.3025973000000022,None,,,,,,,,,0,5,5,5,734.0982978,,,,,,,,,,,,,734.0837613,734.0982978,734.0982978,734.0982978,740.7092726,,,,740.7187723,740.7292825,740.7292825,740.7749190999999,740.7752423,740.7914323,740.7914323,740.7914323,740.8580493999999,741.1087778,,,,,,,,,,,,,,,,,,,,,,down,6.6066514000000325,None,space,0.3025973000000022,None,P105,001,2025-02-13_09h54.33.311,posner_endo_new1,2024.2.4,59.96275113899174,2025-02-13 09h54.41.674052 +0000,
cube_r.png,0.1,0.31,valid,6,6,0,down,2.741294299999936,None,space,0.3877531000000545,None,,,,,,,,,0,6,6,6,741.1243393999999,,,,,,,,,,,,,741.1090449,741.1243393999999,741.1243393999999,741.1243393999999,743.8731001,,,,743.8824185,743.8929125999999,743.8929125999999,743.9387337999999,743.9390467999999,743.9547987999999,743.9547987999999,743.9547987999999,744.0384206,744.3556024999999,,,,,,,,,,,,,,,,,,,,,,down,2.741294299999936,None,space,0.3877531000000545,None,P105,001,2025-02-13_09h54.33.311,posner_endo_new1,2024.2.4,59.96275113899174,2025-02-13 09h54.41.674052 +0000,
cube_r.png,0.1,-0.31,invalid,7,7,0,down,5.486829299999954,None,space,0.28527840000003835,None,,,,,,,,,0,7,7,7,744.3710613,,,,,,,,,,,,,744.3558608999999,744.3710613,744.3710613,744.3710613,749.8668164,,,,749.8763131999999,749.8866551,749.8866551,749.9321630999999,749.9324770999999,749.9487214999999,749.9487214999999,749.9487214999999,750.0319793,750.2494742,,,,,,,,,,,,,,,,,,,,,,down,5.486829299999954,None,space,0.28527840000003835,None,P105,001,2025-02-13_09h54.33.311,posner_endo_new1,2024.2.4,59.96275113899174,2025-02-13 09h54.41.674052 +0000,
cube_l.png,0.1,-0.31,valid,8,8,0,down,2.080141299999923,None,space,0.32785820000003696,None,,,,,,,,,0,8,8,8,750.2650206,,,,,,,,,,,,,750.2497384,750.2650206,750.2650206,750.2650206,752.3473338,,,,752.3555418,752.3660304,752.3660304,752.4134257999999,752.4136648,752.4296942999999,752.4296942999999,752.4296942999999,752.4959723999999,752.763709,,,,,,,,,,,,,,,,,,,,,,down,2.080141299999923,None,space,0.32785820000003696,None,P105,001,2025-02-13_09h54.33.311,posner_endo_new1,2024.2.4,59.96275113899174,2025-02-13 09h54.41.674052 +0000,
cube_r.png,0.1,-0.31,invalid,9,9,0,down,2.31051709999997,None,space,0.2848450999999841,None,,,,,,,,,0,9,9,9,752.7789416999999,,,,,,,,,,,,,752.7638926,752.7789416999999,752.7789416999999,752.7789416999999,755.0943616999999,,,,755.1006076,755.1122995999999,755.1122995999999,755.1603756,755.1606144,755.1772053,755.1772053,755.1772053,755.2436866999999,755.4769935999999,,,,,,,,,,,,,,,,,,,,,,down,2.31051709999997,None,space,0.2848450999999841,None,P105,001,2025-02-13_09h54.33.311,posner_endo_new1,2024.2.4,59.96275113899174,2025-02-13 09h54.41.674052 +0000,
cube_l.png,0.1,0.31,invalid,10,10,0,down,4.955662500000017,None,space,0.34808480000003783,None,,,,,,,,,0,10,10,10,755.4935304999999,,,,,,,,,,,,,755.4771797999999,755.4935304999999,755.4935304999999,755.4935304999999,760.4558694,,,,760.4621668,760.4738289999999,760.4738289999999,760.5218745999999,760.5221153,760.537873,760.537873,760.537873,760.6215771999999,760.8887199999999,,,,,,,,,,,,,,,,,,,,,,down,4.955662500000017,None,space,0.34808480000003783,None,P105,001,2025-02-13_09h54.33.311,posner_endo_new1,2024.2.4,59.96275113899174,2025-02-13 09h54.41.674052 +0000,
cube_r.png,0.1,-0.31,invalid,11,11,0,down,5.792888800000014,None,space,0.4245799000000261,None,,,,,,,,,0,11,11,11,760.9044889999999,,,,,,,,,,,,,760.8889049999999,760.9044889999999,760.9044889999999,760.9044889999999,766.6991862,,,,766.7054832,766.7171962,766.7171962,766.7652324,766.7654709,766.7814142,766.7814142,766.7814142,766.8481042,767.2151107999999,,,,,,,,,,,,,,,,,,,,,,down,5.792888800000014,None,space,0.4245799000000261,None,P105,001,2025-02-13_09h54.33.311,posner_endo_new1,2024.2.4,59.96275113899174,2025-02-13 09h54.41.674052 +0000,
cube_r.png,0.1,0.31,valid,12,12,0,down,1.683265399999982,None,space,0.3543967000000521,None,,,,,,,,,0,12,12,12,767.2314275,,,,,,,,,,,,,767.2152924,767.2314275,767.2314275,767.2314275,768.9305981,,,,768.9365651999999,768.9482339,768.9482339,768.9965572,768.9968001999999,769.012846,769.012846,769.012846,769.0963313999999,769.3798502999999,,,,,,,,,,,,,,,,,,,,,,down,1.683265399999982,None,space,0.3543967000000521,None,P105,001,2025-02-13_09h54.33.311,posner_endo_new1,2024.2.4,59.96275113899174,2025-02-13 09h54.41.674052 +0000,
cube_l.png,0.1,10,catch,13,13,0,down,5.2375749999999925,None,space,0.2975996000000123,None,,,,,,,,,0,13,13,13,769.3961068,,,,,,,,,,,,,769.3800312,769.3961068,769.3961068,769.3961068,774.6415198999999,,,,774.6475147,774.6592728999999,774.6592728999999,774.7068125,774.707049,774.7239089999999,774.7239089999999,774.7239089999999,774.8070951,775.0241738,,,,,,,,,,,,,,,,,,,,,,down,5.2375749999999925,None,space,0.2975996000000123,None,P105,001,2025-02-13_09h54.33.311,posner_endo_new1,2024.2.4,59.96275113899174,2025-02-13 09h54.41.674052 +0000,
cube_r.png,0.1,-0.31,invalid,14,14,0,down,2.096901799999955,None,space,0.3960038999999824,None,,,,,,,,,0,14,14,14,775.040072,,,,,,,,,,,,,775.0243611,775.040072,775.040072,775.040072,777.1385872,,,,777.1444885999999,777.1560445,777.1560445,777.2043127999999,777.2045486,777.2210326999999,777.2210326999999,777.2210326999999,777.2878400999999,777.6218240999999,,,,,,,,,,,,,,,,,,,,,,down,2.096901799999955,None,space,0.3960038999999824,None,P105,001,2025-02-13_09h54.33.311,posner_endo_new1,2024.2.4,59.96275113899174,2025-02-13 09h54.41.674052 +0000,
cube_l.png,0.1,-0.31,valid,15,15,0,down,3.2283186999999316,None,space,0.390679099999943,None,,,,,,,,,0,15,15,15,777.6370903,,,,,,,,,,,,,777.6220050999999,777.6370903,777.6370903,777.6370903,780.8703148999999,,,,780.8891739999999,780.899781,780.899781,780.9341217,780.934577,780.9504409,780.9504409,780.9504409,781.0336585,781.3516575,,,,,,,,,,,,,,,,,,,,,,down,3.2283186999999316,None,space,0.390679099999943,None,P105,001,2025-02-13_09h54.33.311,posner_endo_new1,2024.2.4,59.96275113899174,2025-02-13 09h54.41.674052 +0000,
cube_r.png,0.1,10,catch,16,16,0,down,5.938711799999965,None,None,,,,,,,,,,,0,16,16,16,781.3666347999999,,,,,,,,,,,,,781.3520469,781.3666347999999,781.3666347999999,781.3666347999999,787.3137197,,,,787.3345663,787.3449241999999,787.3449241999999,787.3774943999999,787.3778509,787.3940581999999,787.3940581999999,787.3940581999999,787.4771088,790.3918703999999,,,,789.4917279,790.4074075999999,790.4074075999999,790.4074075999999,,,,,,,,,,,,,,,down,5.938711799999965,None,None,,,P105,001,2025-02-13_09h54.33.311,posner_endo_new1,2024.2.4,59.96275113899174,2025-02-13 09h54.41.674052 +0000,
cube_r.png,0.1,10,catch,17,17,0,down,4.130673600000023,None,None,,,,,,,,,,,0,17,17,17,790.4074075999999,,,,,,,,,,,,,790.3921564,790.4074075999999,790.4074075999999,790.4074075999999,794.553952,,,,794.5617599999999,794.5725926,794.5725926,794.6203776,794.6209289,794.6367128999999,794.6367128999999,794.6367128999999,794.7032819,797.6347896999999,,,,796.7179087,797.6503177999999,797.6503177999999,797.6503177999999,,,,,,,,,,,,,,,down,4.130673600000023,None,None,,,P105,001,2025-02-13_09h54.33.311,posner_endo_new1,2024.2.4,59.96275113899174,2025-02-13 09h54.41.674052 +0000,
cube_l.png,0.1,0.31,invalid,18,18,0,down,4.8069313000000875,None,space,0.45357990000002246,None,,,,,,,,,0,18,18,18,797.6503177999999,,,,,,,,,,,,,797.6352436,797.6503177999999,797.6503177999999,797.6503177999999,802.4629933,,,,802.469124,802.4809855,802.4809855,802.5285336999999,802.5287797999999,802.5453606,802.5453606,802.5453606,802.6285038999999,803.0121995,,,,,,,,,,,,,,,,,,,,,,down,4.8069313000000875,None,space,0.45357990000002246,None,P105,001,2025-02-13_09h54.33.311,posner_endo_new1,2024.2.4,59.96275113899174,2025-02-13 09h54.41.674052 +0000,
cube_l.png,0.1,10,catch,19,19,0,down,4.5257963000000245,None,None,,,,,,,,,,,0,19,19,19,803.0282013,,,,,,,,,,,,,803.0123818999999,803.0282013,803.0282013,803.0282013,807.5580461999999,,,,807.5643162,807.5764079999999,807.5764079999999,807.6233874999999,807.6236306,807.6401039,807.6401039,807.6401039,807.7232316,810.6372207,,,,809.7379354999999,810.6539014,810.6539014,810.6539014,,,,,,,,,,,,,,,down,4.5257963000000245,None,None,,,P105,001,2025-02-13_09h54.33.311,posner_endo_new1,2024.2.4,59.96275113899174,2025-02-13 09h54.41.674052 +0000,
cube_l.png,0.1,0.31,invalid,20,20,0,down,0.3077050000000554,None,space,0.42510520000007546,None,,,,,,,,,0,20,20,20,810.6539014,,,,,,,,,,,,,810.6373937,810.6539014,810.6539014,810.6539014,810.9710269,,,,810.9770262,810.9886257,810.9886257,811.0368239,811.0370594999999,811.0531834,811.0531834,811.0531834,811.136499,811.4870434,,,,,,,,,,,,,,,,,,,,,,down,0.3077050000000554,None,space,0.42510520000007546,None,P105,001,2025-02-13_09h54.33.311,posner_endo_new1,2024.2.4,59.96275113899174,2025-02-13 09h54.41.674052 +0000,
cube_l.png,0.1,-0.31,valid,21,21,0,down,5.402487399999927,None,space,0.3990548999998964,None,,,,,,,,,0,21,21,21,811.5028315,,,,,,,,,,,,,811.4872217999999,811.5028315,811.5028315,811.5028315,816.9145351999999,,,,816.9227241,816.9335662999999,816.9335662999999,816.9805457,816.9809905999999,816.9970897,816.9970897,816.9970897,817.0802256999999,817.3983029999999,,,,,,,,,,,,,,,,,,,,,,down,5.402487399999927,None,space,0.3990548999998964,None,P105,001,2025-02-13_09h54.33.311,posner_endo_new1,2024.2.4,59.96275113899174,2025-02-13 09h54.41.674052 +0000,
cube_r.png,0.1,0.31,valid,22,22,0,down,3.8444544999999835,None,space,0.5185228999999936,None,,,,,,,,,0,22,22,22,817.4132387,,,,,,,,,,,,,817.3986861999999,817.4132387,817.4132387,817.4132387,821.2607664999999,,,,821.2701341999999,821.2804566,821.2804566,821.3263283,821.3266413,821.3423717,821.3423717,821.3423717,821.4256744999999,821.8768096,,,,,,,,,,,,,,,,,,,,,,down,3.8444544999999835,None,space,0.5185228999999936,None,P105,001,2025-02-13_09h54.33.311,posner_endo_new1,2024.2.4,59.96275113899174,2025-02-13 09h54.41.674052 +0000,
cube_r.png,0.1,-0.31,invalid,23,23,0,down,3.894039899999939,None,space,0.35164750000001277,None,,,,,,,,,0,23,23,23,821.8918431,,,,,,,,,,,,,821.8770711,821.8918431,821.8918431,821.8918431,825.7893916999999,,,,825.7988561999999,825.8092067,825.8092067,825.8551024,825.8554204,825.8711376,825.8711376,825.8711376,825.9543155,826.2384440999999,,,,,,,,,,,,,,,,,,,,,,down,3.894039899999939,None,space,0.35164750000001277,None,P105,001,2025-02-13_09h54.33.311,posner_endo_new1,2024.2.4,59.96275113899174,2025-02-13 09h54.41.674052 +0000,
cube_r.png,0.1,0.31,valid,24,24,0,down,6.155101100000024,None,space,0.39490760000001046,None,,,,,,,,,0,24,24,24,826.2540586,,,,,,,,,,,,,826.2387172,826.2540586,826.2540586,826.2540586,832.4156313999999,,,,832.4245106999999,832.43455,832.43455,832.4814998999999,832.4817468,832.4978589,832.4978589,832.4978589,832.5812692,832.8981392,,,,,,,,,,,,,,,,,,,,,,down,6.155101100000024,None,space,0.39490760000001046,None,P105,001,2025-02-13_09h54.33.311,posner_endo_new1,2024.2.4,59.96275113899174,2025-02-13 09h54.41.674052 +0000,
cube_r.png,0.1,-0.31,invalid,25,25,0,down,5.71156540000004,None,space,0.3750336000000516,None,,,,,,,,,0,25,25,25,832.9140291,,,,,,,,,,,,,832.8983251,832.9140291,832.9140291,832.9140291,838.6428457,,,,838.6566257999999,838.6675280999999,838.6675280999999,838.7081389,838.7084441,838.7247788999999,838.7247788999999,838.7247788999999,838.8081841,839.1086283999999,,,,,,,,,,,,,,,,,,,,,,down,5.71156540000004,None,space,0.3750336000000516,None,P105,001,2025-02-13_09h54.33.311,posner_endo_new1,2024.2.4,59.96275113899174,2025-02-13 09h54.41.674052 +0000,
cube_l.png,0.1,-0.31,valid,26,26,0,down,5.493348500000025,None,space,0.378736799999956,None,,,,,,,,,0,26,26,26,839.1242493,,,,,,,,,,,,,839.1088767,839.1242493,839.1242493,839.1242493,844.6197268,,,,844.6283583,844.6385018,844.6385018,844.6852803999999,844.685583,844.7017945,844.7017945,844.7017945,844.7850383,845.0859107,,,,,,,,,,,,,,,,,,,,,,down,5.493348500000025,None,space,0.378736799999956,None,P105,001,2025-02-13_09h54.33.311,posner_endo_new1,2024.2.4,59.96275113899174,2025-02-13 09h54.41.674052 +0000,
cube_r.png,0.1,0.31,valid,27,27,0,down,6.252341599999909,None,space,0.4256184000000758,None,,,,,,,,,0,27,27,27,845.1014457,,,,,,,,,,,,,845.0861543999999,845.1014457,845.1014457,845.1014457,851.3649775,,,,851.3862347999999,851.3965412,851.3965412,851.4286609999999,851.4290749999999,851.4449302999999,851.4449302999999,851.4449302999999,851.5282374999999,851.879324,,,,,,,,,,,,,,,,,,,,,,down,6.252341599999909,None,space,0.4256184000000758,None,P105,001,2025-02-13_09h54.33.311,posner_endo_new1,2024.2.4,59.96275113899174,2025-02-13 09h54.41.674052 +0000,
cube_r.png,0.1,10,catch,28,28,0,down,8.403237199999921,None,space,0.26775950000001103,None,,,,,,,,,0,28,28,28,851.8944712,,,,,,,,,,,,,851.8796646999999,851.8944712,851.8944712,851.8944712,860.3032023999999,,,,860.3093710999999,860.3210034,860.3210034,860.3694436,860.3696834,860.3860477999999,860.3860477999999,860.3860477999999,860.4527407999999,860.6699904999999,,,,,,,,,,,,,,,,,,,,,,down,8.403237199999921,None,space,0.26775950000001103,None,P105,001,2025-02-13_09h54.33.311,posner_endo_new1,2024.2.4,59.96275113899174,2025-02-13 09h54.41.674052 +0000,
cube_r.png,0.1,0.31,valid,29,29,0,down,8.260261599999922,None,space,0.4938238999999385,None,,,,,,,,,0,29,29,29,860.6853527999999,,,,,,,,,,,,,860.6701721999999,860.6853527999999,860.6853527999999,860.6853527999999,868.9620718,,,,868.9761798999999,868.9863402999999,868.9863402999999,869.0276732,869.0279688999999,869.0442069,869.0442069,869.0442069,869.126902,869.5441708,,,,,,,,,,,,,,,,,,,,,,down,8.260261599999922,None,space,0.4938238999999385,None,P105,001,2025-02-13_09h54.33.311,posner_endo_new1,2024.2.4,59.96275113899174,2025-02-13 09h54.41.674052 +0000,
cube_r.png,0.1,0.31,valid,30,30,0,down,4.85785599999997,None,space,0.42034019999994143,None,,,,,,,,,0,30,30,30,869.5598349999999,,,,,,,,,,,,,869.5444189,869.5598349999999,869.5598349999999,869.5598349999999,874.4224597,,,,874.4285285,874.4400251,874.4400251,874.4886528999999,874.4888997999999,874.5047705999999,874.5047705999999,874.5047705999999,874.5717205999999,874.9387749,,,,,,,,,,,,,,,,,,,,,,down,4.85785599999997,None,space,0.42034019999994143,None,P105,001,2025-02-13_09h54.33.311,posner_endo_new1,2024.2.4,59.96275113899174,2025-02-13 09h54.41.674052 +0000,
cube_l.png,0.1,-0.31,valid,31,31,0,down,6.710626599999955,None,space,0.49662289999992026,None,,,,,,,,,0,31,31,31,874.9547268,,,,,,,,,,,,,874.9389557999999,874.9547268,874.9547268,874.9547268,881.6819456999999,,,,881.6880573,881.6997723999999,881.6997723999999,881.7475506,881.7477881,881.7643756,881.7643756,881.7643756,881.8310398,882.2650785999999,,,,,,,,,,,,,,,,,,,,,,down,6.710626599999955,None,space,0.49662289999992026,None,P105,001,2025-02-13_09h54.33.311,posner_endo_new1,2024.2.4,59.96275113899174,2025-02-13 09h54.41.674052 +0000,
cube_r.png,0.1,0.31,valid,32,32,0,down,3.80938900000001,None,space,0.5802737999999863,None,,,,,,,,,0,32,32,32,882.2800794999999,,,,,,,,,,,,,882.2652658,882.2800794999999,882.2800794999999,882.2800794999999,886.0940010999999,,,,886.1000257999999,886.1116955,886.1116955,886.1599358,886.1601736,886.1766369,886.1766369,886.1766369,886.2432366999999,886.7601305,,,,,,,,,,,,,,,,,,,,,,down,3.80938900000001,None,space,0.5802737999999863,None,P105,001,2025-02-13_09h54.33.311,posner_endo_new1,2024.2.4,59.96275113899174,2025-02-13 09h54.41.674052 +0000,
cube_r.png,0.1,-0.31,invalid,33,33,0,down,5.793845899999951,None,space,0.5447345999999698,None,,,,,,,,,0,33,33,33,886.7759563999999,,,,,,,,,,,,,886.7603207,886.7759563999999,886.7759563999999,886.7759563999999,892.5729779,,,,892.5954148,892.6080085,892.6080085,892.6368798,892.6372365999999,892.6529367999999,892.6529367999999,892.6529367999999,892.7366331,893.2041034,,,,,,,,,,,,,,,,,,,,,,down,5.793845899999951,None,space,0.5447345999999698,None,P105,001,2025-02-13_09h54.33.311,posner_endo_new1,2024.2.4,59.96275113899174,2025-02-13 09h54.41.674052 +0000,
cube_r.png,0.1,10,catch,34,34,0,down,4.158758499999976,None,None,,,,,,,,,,,0,34,34,34,893.2189763,,,,,,,,,,,,,893.2044002,893.2189763,893.2189763,893.2189763,897.3828471999999,,,,897.3940672,897.4044871,897.4044871,897.4485222999999,897.4488822,897.4649459,897.4649459,897.4649459,897.548002,900.4628071,,,,899.5628352,900.4785781999999,900.4785781999999,900.4785781999999,,,,,,,,,,,,,,,down,4.158758499999976,None,None,,,P105,001,2025-02-13_09h54.33.311,posner_endo_new1,2024.2.4,59.96275113899174,2025-02-13 09h54.41.674052 +0000,
cube_r.png,0.1,0.31,valid,35,35,0,down,1.042722700000013,None,space,0.36737489999995887,None,,,,,,,,,0,35,35,35,900.4785781999999,,,,,,,,,,,,,900.4630856,900.4785781999999,900.4785781999999,900.4785781999999,901.5287483999999,,,,901.5400695,901.5506319,901.5506319,901.5942799,901.5946404,901.6107447999999,901.6107447999999,901.6107447999999,901.6941565999999,901.9947085,,,,,,,,,,,,,,,,,,,,,,down,1.042722700000013,None,space,0.36737489999995887,None,P105,001,2025-02-13_09h54.33.311,posner_endo_new1,2024.2.4,59.96275113899174,2025-02-13 09h54.41.674052 +0000,
cube_r.png,0.1,-0.31,invalid,36,36,0,down,6.295100300000058,None,space,0.3583198999999695,None,,,,,,,,,0,36,36,36,902.0103224,,,,,,,,,,,,,901.9950305,902.0103224,902.0103224,902.0103224,908.3219803,,,,908.3333203,908.3438112,908.3438112,908.3874347,908.3878009,908.4039348,908.4039348,908.4039348,908.4869745999999,908.7712952999999,,,,,,,,,,,,,,,,,,,,,,down,6.295100300000058,None,space,0.3583198999999695,None,P105,001,2025-02-13_09h54.33.311,posner_endo_new1,2024.2.4,59.96275113899174,2025-02-13 09h54.41.674052 +0000,
cube_l.png,0.1,0.31,invalid,37,37,0,down,4.399560600000086,None,space,0.3301252999999633,None,,,,,,,,,0,37,37,37,908.7865946999999,,,,,,,,,,,,,908.7715956,908.7865946999999,908.7865946999999,908.7865946999999,913.1997285999998,,,,913.2071908,913.2184642,913.2184642,913.2654740999999,913.2658317,913.2822102,913.2822102,913.2822102,913.3651952,913.6167845,,,,,,,,,,,,,,,,,,,,,,down,4.399560600000086,None,space,0.3301252999999633,None,P105,001,2025-02-13_09h54.33.311,posner_endo_new1,2024.2.4,59.96275113899174,2025-02-13 09h54.41.674052 +0000,
cube_l.png,0.1,0.31,invalid,38,38,0,down,5.602332800000113,None,space,0.32213550000005853,None,,,,,,,,,0,38,38,38,913.6315301,,,,,,,,,,,,,913.6170849999999,913.6315301,913.6315301,913.6315301,919.2442497,,,,919.2554929,919.2659965,919.2659965,919.3096885,919.3100519,919.3257974999999,919.3257974999999,919.3257974999999,919.4090196,919.6601163,,,,,,,,,,,,,,,,,,,,,,down,5.602332800000113,None,space,0.32213550000005853,None,P105,001,2025-02-13_09h54.33.311,posner_endo_new1,2024.2.4,59.96275113899174,2025-02-13 09h54.41.674052 +0000,
cube_r.png,0.1,0.31,valid,39,39,0,down,1.8700948000000608,None,space,0.3600128999999015,None,,,,,,,,,0,39,39,39,919.675692,,,,,,,,,,,,,919.6604293999999,919.675692,919.675692,919.675692,921.5583695,,,,921.5695916,921.5800715999999,921.5800715999999,921.6239495,921.6243084999999,921.6401882,921.6401882,921.6401882,921.7236828,922.0080283,,,,,,,,,,,,,,,,,,,,,,down,1.8700948000000608,None,space,0.3600128999999015,None,P105,001,2025-02-13_09h54.33.311,posner_endo_new1,2024.2.4,59.96275113899174,2025-02-13 09h54.41.674052 +0000,
cube_l.png,0.1,0.31,invalid,40,40,0,down,8.890739000000167,None,space,0.34781180000004497,None,,,,,,,,,0,40,40,40,922.0231736999999,,,,,,,,,,,,,922.0083365,922.0231736999999,922.0231736999999,922.0231736999999,930.9154114,,,,930.9266941999999,930.9370595,930.9370595,930.9811035,930.9814612999999,930.9971665999999,930.9971665999999,930.9971665999999,931.0804251,931.3481280999999,,,,,,,,,,,,,,,,,,,,,,down,8.890739000000167,None,space,0.34781180000004497,None,P105,001,2025-02-13_09h54.33.311,posner_endo_new1,2024.2.4,59.96275113899174,2025-02-13 09h54.41.674052 +0000,
cube_l.png,0.1,10,catch,41,41,0,down,4.5579300000001695,None,space,0.3785854999998719,None,,,,,,,,,0,41,41,41,931.3636503999999,,,,,,,,,,,,,931.3484252999999,931.3636503999999,931.3636503999999,931.3636503999999,935.9267410999998,,,,935.9380383999999,935.9483611999999,935.9483611999999,935.9924578,935.9928138999999,936.0089627,936.0089627,936.0089627,936.0922395,936.3931178999999,,,,,,,,,,,,,,,,,,,,,,down,4.5579300000001695,None,space,0.3785854999998719,None,P105,001,2025-02-13_09h54.33.311,posner_endo_new1,2024.2.4,59.96275113899174,2025-02-13 09h54.41.674052 +0000,
cube_l.png,0.1,-0.31,valid,42,42,0,down,6.80142909999995,None,space,0.39129929999990054,None,,,,,,,,,0,42,42,42,936.4083309999999,,,,,,,,,,,,,936.3934325,936.4083309999999,936.4083309999999,936.4083309999999,943.2193636,,,,943.2307738,943.2410895,943.2410895,943.2851946999999,943.2855648,943.3013796,943.3013796,943.3013796,943.384659,943.7021173,,,,,,,,,,,,,,,,,,,,,,down,6.80142909999995,None,space,0.39129929999990054,None,P105,001,2025-02-13_09h54.33.311,posner_endo_new1,2024.2.4,59.96275113899174,2025-02-13 09h54.41.674052 +0000,
cube_l.png,0.1,10,catch,43,43,0,down,2.5960291999999754,None,None,,,,,,,,,,,0,43,43,43,943.7176506999999,,,,,,,,,,,,,943.7024154000001,943.7176506999999,943.7176506999999,943.7176506999999,946.3161909999999,,,,946.3275114999999,946.3378170999999,946.3378170999999,946.3816873999999,946.3820461,946.3982570000001,946.3982570000001,946.3982570000001,946.4814741,949.3961789,,,,948.4960776999999,949.4120922,949.4120922,949.4120922,,,,,,,,,,,,,,,down,2.5960291999999754,None,None,,,P105,001,2025-02-13_09h54.33.311,posner_endo_new1,2024.2.4,59.96275113899174,2025-02-13 09h54.41.674052 +0000,
cube_l.png,0.1,0.31,invalid,44,44,0,down,21.50119800000016,None,space,0.33189169999991464,None,,,,,,,,,0,44,44,44,949.4120922,,,,,,,,,,,,,949.3964716,949.4120922,949.4120922,949.4120922,970.9238077999998,,,,970.9309753,970.9427321999999,970.9427321999999,970.9900673,970.9903274999999,971.0060371,971.0060371,971.0060371,971.0732438,971.3406066,,,,,,,,,,,,,,,,,,,,,,down,21.50119800000016,None,space,0.33189169999991464,None,P105,001,2025-02-13_09h54.33.311,posner_endo_new1,2024.2.4,59.96275113899174,2025-02-13 09h54.41.674052 +0000,
cube_l.png,0.1,0.31,invalid,45,45,0,down,9.021648899999946,None,space,0.5511391000000003,None,,,,,,,,,0,45,45,45,971.3557907,,,,,,,,,,,,,971.3408207,971.3557907,971.3557907,971.3557907,980.3808769,,,,980.3880770999999,980.3998449000001,980.3998449000001,980.4469672,980.4472245,980.4635934999999,980.4635934999999,980.4635934999999,980.5297549,981.0305684,,,,,,,,,,,,,,,,,,,,,,down,9.021648899999946,None,space,0.5511391000000003,None,P105,001,2025-02-13_09h54.33.311,posner_endo_new1,2024.2.4,59.96275113899174,2025-02-13 09h54.41.674052 +0000,
cube_r.png,0.1,0.31,valid,46,46,0,down,5.843987100000049,None,space,0.43465599999990445,None,,,,,,,,,0,46,46,46,981.0458621,,,,,,,,,,,,,981.0307742,981.0458621,981.0458621,981.0458621,986.8909251999999,,,,986.8981494,986.9098308,986.9098308,986.9567012,986.9569649,986.9735922,986.9735922,986.9735922,987.0400044999999,987.4236535,,,,,,,,,,,,,,,,,,,,,,down,5.843987100000049,None,space,0.43465599999990445,None,P105,001,2025-02-13_09h54.33.311,posner_endo_new1,2024.2.4,59.96275113899174,2025-02-13 09h54.41.674052 +0000,
cube_l.png,0.1,-0.31,valid,47,47,0,down,7.665640100000019,None,space,0.38436320000005253,None,,,,,,,,,0,47,47,47,987.4398042,,,,,,,,,,,,,987.4238614999999,987.4398042,987.4398042,987.4398042,995.1164428,,,,995.1276499999999,995.1379970999999,995.1379970999999,995.1820370999999,995.1824021,995.1982444,995.1982444,995.1982444,995.2815215999999,995.5993673,,,,,,,,,,,,,,,,,,,,,,down,7.665640100000019,None,space,0.38436320000005253,None,P105,001,2025-02-13_09h54.33.311,posner_endo_new1,2024.2.4,59.96275113899174,2025-02-13 09h54.41.674052 +0000,
cube_r.png,0.1,-0.31,invalid,48,48,0,down,5.787019099999952,None,space,0.4338290999999117,None,,,,,,,,,0,48,48,48,995.6145182999999,,,,,,,,,,,,,995.5996820999999,995.6145182999999,995.6145182999999,995.6145182999999,1001.409797,,,,1001.417919,1001.4282366,1001.4282366,1001.4754909999999,1001.4760099,1001.4919302999999,1001.4919302999999,1001.4919302999999,1001.5751605999999,1001.9430453,,,,,,,,,,,,,,,,,,,,,,down,5.787019099999952,None,space,0.4338290999999117,None,P105,001,2025-02-13_09h54.33.311,posner_endo_new1,2024.2.4,59.96275113899174,2025-02-13 09h54.41.674052 +0000,
cube_r.png,0.1,10,catch,49,49,0,down,5.043499199999815,None,None,,,,,,,,,,,0,49,49,49,1001.9581128,,,,,,,,,,,,,1001.9434850999999,1001.9581128,1001.9581128,1001.9581128,1007.0041001,,,,1007.0152705999999,1007.0258930999998,1007.0258930999998,1007.0701139,1007.0704693999999,1007.0864130999998,1007.0864130999998,1007.0864130999998,1007.1698068000001,1010.0840653,,,,1009.1837822,1010.0996404999999,1010.0996404999999,1010.0996404999999,,,,,,,,,,,,,,,down,5.043499199999815,None,None,,,P105,001,2025-02-13_09h54.33.311,posner_endo_new1,2024.2.4,59.96275113899174,2025-02-13 09h54.41.674052 +0000,
cube_l.png,0.1,-0.31,valid,50,50,0,down,2.350407599999926,None,space,0.650615499999958,None,,,,,,,,,0,50,50,50,1010.0996404999999,,,,,,,,,,,,,1010.0843461,1010.0996404999999,1010.0996404999999,1010.0996404999999,1012.4654418999999,,,,1012.4765689999999,1012.4870667999999,1012.4870667999999,1012.5310399,1012.5313968,1012.5472591,1012.5472591,1012.5472591,1012.6306801999999,1013.2148820999998,,,,,,,,,,,,,,,,,,,,,,down,2.350407599999926,None,space,0.650615499999958,None,P105,001,2025-02-13_09h54.33.311,posner_endo_new1,2024.2.4,59.96275113899174,2025-02-13 09h54.41.674052 +0000,
cube_l.png,0.1,-0.31,valid,51,51,0,down,4.0519809999998415,None,space,0.4364112999999179,None,,,,,,,,,0,51,51,51,1013.2297842999999,,,,,,,,,,,,,1013.2151876999999,1013.2297842999999,1013.2297842999999,1013.2297842999999,1017.2935454999999,,,,1017.3046165000001,1017.3150905999998,1017.3150905999998,1017.3590300999999,1017.3593880999999,1017.3761165999999,1017.3761165999999,1017.3761165999999,1017.4588406,1017.8268618,,,,,,,,,,,,,,,,,,,,,,down,4.0519809999998415,None,space,0.4364112999999179,None,P105,001,2025-02-13_09h54.33.311,posner_endo_new1,2024.2.4,59.96275113899174,2025-02-13 09h54.41.674052 +0000,
cube_r.png,0.1,-0.31,invalid,52,52,0,down,12.21559400000001,None,space,0.35778529999993225,None,,,,,,,,,0,52,52,52,1017.8418234999999,,,,,,,,,,,,,1017.8271614999999,1017.8418234999999,1017.8418234999999,1017.8418234999999,1030.0638204,,,,1030.0750031,1030.0854322,1030.0854322,1030.1294691,1030.1298248,1030.1458292,1030.1458292,1030.1458292,1030.2127490999999,1030.5138728,,,,,,,,,,,,,,,,,,,,,,down,12.21559400000001,None,space,0.35778529999993225,None,P105,001,2025-02-13_09h54.33.311,posner_endo_new1,2024.2.4,59.96275113899174,2025-02-13 09h54.41.674052 +0000,
cube_l.png,0.1,-0.31,valid,53,53,0,down,6.016841999999997,None,space,0.3142116999999871,None,,,,,,,,,0,53,53,53,1030.528826,,,,,,,,,,,,,1030.5141762,1030.528826,1030.528826,1030.528826,1036.5588975,,,,1036.577805,1036.5883691,1036.5883691,1036.6227675999999,1036.6232244999999,1036.6391881,1036.6391881,1036.6391881,1036.7224420999999,1036.9572355,,,,,,,,,,,,,,,,,,,,,,down,6.016841999999997,None,space,0.3142116999999871,None,P105,001,2025-02-13_09h54.33.311,posner_endo_new1,2024.2.4,59.96275113899174,2025-02-13 09h54.41.674052 +0000,
cube_r.png,0.1,10,catch,54,54,0,down,6.254087000000027,None,None,,,,,,,,,,,0,54,54,54,1036.9721425999999,,,,,,,,,,,,,1036.9576284,1036.9721425999999,1036.9721425999999,1036.9721425999999,1043.2356063,,,,1043.2575431999999,1043.2703829,1043.2703829,1043.2991413,1043.2994589,1043.3156586,1043.3156586,1043.3156586,1043.3992705,1046.3131262,,,,1045.4134903,1046.3292695999999,1046.3292695999999,1046.3292695999999,,,,,,,,,,,,,,,down,6.254087000000027,None,None,,,P105,001,2025-02-13_09h54.33.311,posner_endo_new1,2024.2.4,59.96275113899174,2025-02-13 09h54.41.674052 +0000,
cube_l.png,0.1,0.31,invalid,55,55,0,down,0.9682616999998572,None,space,0.4180446000000302,None,,,,,,,,,0,55,55,55,1046.3292695999999,,,,,,,,,,,,,1046.3133731,1046.3292695999999,1046.3292695999999,1046.3292695999999,1047.3130287,,,,1047.3223432,1047.3327904999999,1047.3327904999999,1047.3786524,1047.3789748,1047.3947888999999,1047.3947888999999,1047.3947888999999,1047.4780437,1047.8287799,,,,,,,,,,,,,,,,,,,,,,down,0.9682616999998572,None,space,0.4180446000000302,None,P105,001,2025-02-13_09h54.33.311,posner_endo_new1,2024.2.4,59.96275113899174,2025-02-13 09h54.41.674052 +0000,
cube_l.png,0.1,-0.31,valid,56,56,0,down,8.437453800000185,None,space,0.36571230000004107,None,,,,,,,,,0,56,56,56,1047.8442955,,,,,,,,,,,,,1047.8290399999998,1047.8442955,1047.8442955,1047.8442955,1056.2889128,,,,1056.3108997,1056.3222004,1056.3222004,1056.352396,1056.3527625,1056.3688531,1056.3688531,1056.3688531,1056.452445,1056.7368531,,,,,,,,,,,,,,,,,,,,,,down,8.437453800000185,None,space,0.36571230000004107,None,P105,001,2025-02-13_09h54.33.311,posner_endo_new1,2024.2.4,59.96275113899174,2025-02-13 09h54.41.674052 +0000,
cube_r.png,0.1,0.31,valid,57,57,0,down,4.585530599999856,None,space,0.39788210000006075,None,,,,,,,,,0,57,57,57,1056.7522858,,,,,,,,,,,,,1056.7371531,1056.7522858,1056.7522858,1056.7522858,1061.3487854999998,,,,1061.3574221,1061.3673875,1061.3673875,1061.4144715,1061.4147327,1061.4308858,1061.4308858,1061.4308858,1061.514156,1061.8308908,,,,,,,,,,,,,,,,,,,,,,down,4.585530599999856,None,space,0.39788210000006075,None,P105,001,2025-02-13_09h54.33.311,posner_endo_new1,2024.2.4,59.96275113899174,2025-02-13 09h54.41.674052 +0000,
cube_r.png,0.1,-0.31,invalid,58,58,0,down,6.587520300000051,None,space,0.41845499999999447,None,,,,,,,,,0,58,58,58,1061.8472417,,,,,,,,,,,,,1061.8310984,1061.8472417,1061.8472417,1061.8472417,1068.441738,,,,1068.4529223,1068.463196,1068.463196,1068.5072221,1068.5075878,1068.5233498999999,1068.5233498999999,1068.5233498999999,1068.606968,1068.9577557999999,,,,,,,,,,,,,,,,,,,,,,down,6.587520300000051,None,space,0.41845499999999447,None,P105,001,2025-02-13_09h54.33.311,posner_endo_new1,2024.2.4,59.96275113899174,2025-02-13 09h54.41.674052 +0000,
cube_l.png,0.1,0.31,invalid,59,59,0,down,4.636637999999948,None,space,0.39176550000001953,None,,,,,,,,,0,59,59,59,1068.9731061999998,,,,,,,,,,,,,1068.9580643,1068.9731061999998,1068.9731061999998,1068.9731061999998,1073.619706,,,,1073.6279069,1073.6380735,1073.6380735,1073.6850312,1073.6853971,1073.7015294999999,1073.7015294999999,1073.7015294999999,1073.7850237,1074.1024152,,,,,,,,,,,,,,,,,,,,,,down,4.636637999999948,None,space,0.39176550000001953,None,P105,001,2025-02-13_09h54.33.311,posner_endo_new1,2024.2.4,59.96275113899174,2025-02-13 09h54.41.674052 +0000,
