cue_img,cue_soa,target_x,trial,thisN,thisTrialN,thisRepN,key_control2.keys,key_control2.rt,key_control2.duration,key_resp.keys,key_resp.rt,key_resp.duration,practice.thisRepN,practice.thisTrialN,practice.thisN,practice.thisIndex,block1.thisRepN,block1.thisTrialN,block1.thisN,block1.thisIndex,block2.thisRepN,block2.thisTrialN,block2.thisN,block2.thisIndex,thisRow.t,notes,instructions.started,instructions_txt.started,key_control.started,instructions.stopped,key_control.keys,key_control.rt,key_control.duration,ready.started,ready_txt.started,ready_txt.stopped,ready.stopped,fix.started,fixation.started,key_control2.started,fixation_cross.started,fix.stopped,practice.key_control2.keys,practice.key_control2.rt,practice.key_control2.duration,cue.started,cube.started,fixation_cross_cue.started,cue.stopped,target.started,fixation_target.started,fixation_cross_target.started,key_resp.started,star.started,target.stopped,practice.key_resp.keys,practice.key_resp.rt,practice.key_resp.duration,star.stopped,fixation_target.stopped,fixation_cross_target.stopped,key_resp.stopped,block1.key_control2.keys,block1.key_control2.rt,block1.key_control2.duration,block1.key_resp.keys,block1.key_resp.rt,block1.key_resp.duration,break_2.started,text.started,key_control3.started,text.stopped,break_2.stopped,key_control3.keys,key_control3.rt,key_control3.duration,block2.key_control2.keys,block2.key_control2.rt,block2.key_control2.duration,block2.key_resp.keys,block2.key_resp.rt,block2.key_resp.duration,participant,session,date,expName,psychopyVersion,frameRate,expStart,
,,,,,,,,,,,,,,,,,,,,,,,,,,,0.007442999999511812,0.02304109999931825,0.02304109999931825,670.9723635999999,up,670.9386953000003,None,,,,,,,,,,,,,,,,,,,,,,,,,,,,,,,,,,,,,,,,,,,,,,,,,,P106,001,2025-02-13_11h09.30.810,posner_endo_new1,2024.2.4,60.02364931786706,2025-02-13 11h09.37.888904 +0000,
,,,,,,,,,,,,,,,,,,,,,,,,,,,,,,,,,,670.9724225999998,670.9879892999998,673.9880954,673.9687893,,,,,,,,,,,,,,,,,,,,,,,,,,,,,,,,,,,,,,,,,,,,,,P106,001,2025-02-13_11h09.30.810,posner_endo_new1,2024.2.4,60.02364931786706,2025-02-13 11h09.37.888904 +0000,
cube_l.png,0.1,-0.31,valid,0,0,0,down,14.261643099999674,None,space,0.6032437000003483,None,0,0,0,0,,,,,,,,,673.9880954,,,,,,,,,,,,,673.976259,673.9880954,673.9880954,673.9880954,688.2550229999997,down,14.261643099999674,None,688.2686785999995,688.2795139999998,688.2795139999998,688.320608,688.3209159999997,688.3372406999997,688.3372406999997,688.3372406999997,688.4203961999992,688.9541925999993,space,0.6032437000003483,None,,,,,,,,,,,,,,,,,,,,,,,,,P106,001,2025-02-13_11h09.30.810,posner_endo_new1,2024.2.4,60.02364931786706,2025-02-13 11h09.37.888904 +0000,
cube_l.png,0.1,0.31,invalid,1,1,0,down,19.743549799999528,None,space,0.5335976999995182,None,0,1,1,1,,,,,,,,,688.9698916999996,,,,,,,,,,,,,688.9544465999998,688.9698916999996,688.9698916999996,688.9698916999996,708.7174681999995,down,19.743549799999528,None,708.7264879999993,708.7366106999998,708.7366106999998,708.7831375999995,708.7834365999997,708.7997074999994,708.7997074999994,708.7997074999994,708.8828512,709.3500904999992,space,0.5335976999995182,None,,,,,,,,,,,,,,,,,,,,,,,,,P106,001,2025-02-13_11h09.30.810,posner_endo_new1,2024.2.4,60.02364931786706,2025-02-13 11h09.37.888904 +0000,
cube_r.png,0.1,-0.31,invalid,2,2,0,down,10.25202360000003,None,space,0.4904413000003842,None,0,2,2,2,,,,,,,,,709.3657162,,,,,,,,,,,,,709.3503226999992,709.3657162,709.3657162,709.3657162,719.6231081999995,down,10.25202360000003,None,719.6317902999999,719.6420025999996,719.6420025999996,719.6885659999998,719.6888708999995,719.7052555,719.7052555,719.7052555,719.7884568999998,720.2055936999996,space,0.4904413000003842,None,,,,,,,,,,,,,,,,,,,,,,,,,P106,001,2025-02-13_11h09.30.810,posner_endo_new1,2024.2.4,60.02364931786706,2025-02-13 11h09.37.888904 +0000,
cube_r.png,0.1,10,catch,3,3,0,down,10.076451800000541,None,None,,,0,3,3,3,,,,,,,,,720.2212832999994,,,,,,,,,,,,,720.2058336,720.2212832999994,720.2212832999994,720.2212832999994,730.3120153,down,10.076451800000541,None,730.3206508999992,730.3309027999994,730.3309027999994,730.3777680999992,730.3780627999995,730.3942168999993,730.3942168999993,730.3942168999993,730.4773702999992,733.3917765999995,None,,,732.4920734999996,733.4077586999992,733.4077586999992,733.4077586999992,,,,,,,,,,,,,,,,,,,,,P106,001,2025-02-13_11h09.30.810,posner_endo_new1,2024.2.4,60.02364931786706,2025-02-13 11h09.37.888904 +0000,
cube_l.png,0.1,-0.31,valid,4,4,0,down,6.810531000000083,None,space,0.3877220000003945,None,0,4,4,4,,,,,,,,,733.4077586999992,,,,,,,,,,,,,733.3919879999994,733.4077586999992,733.4077586999992,733.4077586999992,740.2349907999997,down,6.810531000000083,None,740.2436229999994,740.2536864999993,740.2536864999993,740.3009232999993,740.3012290999995,740.3173025999995,740.3173025999995,740.3173025999995,740.4007300999992,740.7181039999996,space,0.3877220000003945,None,,,,,,,,,,,,,,,,,,,,,,,,,P106,001,2025-02-13_11h09.30.810,posner_endo_new1,2024.2.4,60.02364931786706,2025-02-13 11h09.37.888904 +0000,
cube_l.png,0.1,0.31,invalid,5,5,0,down,10.220344300000761,None,space,0.47097930000018096,None,0,5,5,5,,,,,,,,,740.7336251999996,,,,,,,,,,,,,740.7183307999994,740.7336251999996,740.7336251999996,740.7336251999996,750.9576613999998,down,10.220344300000761,None,750.9663954999996,750.9766456999996,750.9766456999996,751.0233834999999,751.0236791999996,751.0397524999998,751.0397524999998,751.0397524999998,751.1230645999995,751.5235315999998,space,0.47097930000018096,None,,,,,,,,,,,,,,,,,,,,,,,,,P106,001,2025-02-13_11h09.30.810,posner_endo_new1,2024.2.4,60.02364931786706,2025-02-13 11h09.37.888904 +0000,
cube_r.png,0.1,-0.31,invalid,6,6,0,down,12.406717400000161,None,space,0.4375070999994932,None,0,6,6,6,,,,,,,,,751.5392665999998,,,,,,,,,,,,,751.5237635999993,751.5392665999998,751.5392665999998,751.5392665999998,763.9608828999999,down,12.406717400000161,None,763.9696588999996,763.9803855,763.9803855,764.0266501999995,764.0269495999992,764.0431179999996,764.0431179999996,764.0431179999996,764.1264683999998,764.4936124999995,space,0.4375070999994932,None,,,,,,,,,,,,,,,,,,,,,,,,,P106,001,2025-02-13_11h09.30.810,posner_endo_new1,2024.2.4,60.02364931786706,2025-02-13 11h09.37.888904 +0000,
cube_r.png,0.1,0.31,valid,7,7,0,down,11.13275109999995,None,space,0.5066845999999714,None,0,7,7,7,,,,,,,,,764.5093635999992,,,,,,,,,,,,,764.4938468999999,764.5093635999992,764.5093635999992,764.5093635999992,775.6489944999994,down,11.13275109999995,None,775.6567193999999,775.667547,775.667547,775.7147485999994,775.7149845999993,775.7312583999992,775.7312583999992,775.7312583999992,775.8145511999992,776.2481540999997,space,0.5066845999999714,None,,,,,,,,,,,,,,,,,,,,,,,,,P106,001,2025-02-13_11h09.30.810,posner_endo_new1,2024.2.4,60.02364931786706,2025-02-13 11h09.37.888904 +0000,
cube_l.png,0.1,-0.31,valid,8,8,0,down,22.578534799999943,None,space,0.3372088000005533,None,0,8,8,8,,,,,,,,,776.2640296999998,,,,,,,,,,,,,776.2483253,776.2640296999998,776.2640296999998,776.2640296999998,798.8583241999995,down,22.578534799999943,None,798.8651770999995,798.8768645,798.8768645,798.9243730999997,798.9246126999997,798.9408851999997,798.9408851999997,798.9408851999997,799.0074513999998,799.2914008999996,space,0.3372088000005533,None,,,,,,,,,,,,,,,,,,,,,,,,,P106,001,2025-02-13_11h09.30.810,posner_endo_new1,2024.2.4,60.02364931786706,2025-02-13 11h09.37.888904 +0000,
cube_r.png,0.1,-0.31,invalid,9,9,0,down,9.062471599999299,None,space,0.3902186999994228,None,0,9,9,9,,,,,,,,,799.3070471999999,,,,,,,,,,,,,799.2915737999992,799.3070471999999,799.3070471999999,799.3070471999999,808.3818208999992,down,9.062471599999299,None,808.3882085999994,808.3996903999996,808.3996903999996,808.4478214999999,808.4480541999992,808.4644611999993,808.4644611999993,808.4644611999993,808.5309506999993,808.8648255999997,space,0.3902186999994228,None,,,,,,,,,,,,,,,,,,,,,,,,,P106,001,2025-02-13_11h09.30.810,posner_endo_new1,2024.2.4,60.02364931786706,2025-02-13 11h09.37.888904 +0000,
cube_r.png,0.1,0.31,valid,10,10,0,down,10.13734469999963,None,space,0.3894467000000077,None,0,10,10,10,,,,,,,,,808.8807322999992,,,,,,,,,,,,,808.8649959999993,808.8807322999992,808.8807322999992,808.8807322999992,819.0210278999994,down,10.13734469999963,None,819.0269725999997,819.0386075999995,819.0386075999995,819.0869095999997,819.0871425999994,819.1035678999997,819.1035678999997,819.1035678999997,819.1701377999998,819.5038563999997,space,0.3894467000000077,None,,,,,,,,,,,,,,,,,,,,,,,,,P106,001,2025-02-13_11h09.30.810,posner_endo_new1,2024.2.4,60.02364931786706,2025-02-13 11h09.37.888904 +0000,
,,,,,,,,,,,,,,,,,,,,,,,,,,,,,,,,,,819.5039700999996,819.5197032999995,822.5228152,822.5003768999995,,,,,,,,,,,,,,,,,,,,,,,,,,,,,,,,,,,,,,,,,,,,,,P106,001,2025-02-13_11h09.30.810,posner_endo_new1,2024.2.4,60.02364931786706,2025-02-13 11h09.37.888904 +0000,
cube_l.png,0.1,10,catch,0,0,0,down,12.5991997000001,None,None,,,,,,,0,0,0,0,,,,,822.5228152,,,,,,,,,,,,,822.5141703999998,822.5228152,822.5228152,822.5228152,835.1378996999993,,,,835.1445530999999,835.1561861999999,835.1561861999999,835.2038218999996,835.2040632999997,835.2204191999999,835.2204191999999,835.2204191999999,835.2869979999996,838.2177078999994,,,,837.3016978999995,838.2340227999994,838.2340227999994,838.2340227999994,down,12.5991997000001,None,None,,,,,,,,,,,,,,,,,P106,001,2025-02-13_11h09.30.810,posner_endo_new1,2024.2.4,60.02364931786706,2025-02-13 11h09.37.888904 +0000,
cube_l.png,0.1,10,catch,1,1,0,down,5.912235499999952,None,None,,,,,,,0,1,1,1,,,,,838.2340227999994,,,,,,,,,,,,,838.2178785999995,838.2340227999994,838.2340227999994,838.2340227999994,844.1622592999993,,,,844.1683822999994,844.1800570999994,844.1800570999994,844.2281045999998,844.2283417999997,844.2445502,844.2445502,844.2445502,844.3277902999998,847.242056,,,,846.342423,847.2582135999992,847.2582135999992,847.2582135999992,down,5.912235499999952,None,None,,,,,,,,,,,,,,,,,P106,001,2025-02-13_11h09.30.810,posner_endo_new1,2024.2.4,60.02364931786706,2025-02-13 11h09.37.888904 +0000,
cube_l.png,0.1,0.31,invalid,2,2,0,down,5.832137399999738,None,space,0.36795680000068387,None,,,,,0,2,2,2,,,,,847.2582135999992,,,,,,,,,,,,,847.2422241999993,847.2582135999992,847.2582135999992,847.2582135999992,853.1029018999998,,,,853.1090095,853.1203804999996,853.1203804999996,853.1688193,853.1690615999996,853.1852826999993,853.1852826999993,853.1852826999993,853.2520376999992,853.5690918,,,,,,,,down,5.832137399999738,None,space,0.36795680000068387,None,,,,,,,,,,,,,,,P106,001,2025-02-13_11h09.30.810,posner_endo_new1,2024.2.4,60.02364931786706,2025-02-13 11h09.37.888904 +0000,
cube_l.png,0.1,0.31,invalid,3,3,0,down,10.553275100000064,None,space,0.34505039999930887,None,,,,,0,3,3,3,,,,,853.5851475999998,,,,,,,,,,,,,853.5692734999993,853.5851475999998,853.5851475999998,853.5851475999998,864.1416524999995,,,,864.1480207999994,864.1595971999996,864.1595971999996,864.2075273,864.2077602999998,864.2241273,864.2241273,864.2241273,864.2907031999994,864.5744826999999,,,,,,,,down,10.553275100000064,None,space,0.34505039999930887,None,,,,,,,,,,,,,,,P106,001,2025-02-13_11h09.30.810,posner_endo_new1,2024.2.4,60.02364931786706,2025-02-13 11h09.37.888904 +0000,
cube_l.png,0.1,-0.31,valid,4,4,0,down,11.091867299999649,None,space,0.352023299999928,None,,,,,0,4,4,4,,,,,864.5903576000001,,,,,,,,,,,,,864.5746710999993,864.5903576000001,864.5903576000001,864.5903576000001,875.6965353999994,,,,875.7025971999992,875.7140703999994,875.7140703999994,875.7624220999996,875.7626554999997,875.7789075999999,875.7789075999999,875.7789075999999,875.8455564999995,876.1460533999998,,,,,,,,down,11.091867299999649,None,space,0.352023299999928,None,,,,,,,,,,,,,,,P106,001,2025-02-13_11h09.30.810,posner_endo_new1,2024.2.4,60.02364931786706,2025-02-13 11h09.37.888904 +0000,
cube_r.png,0.1,-0.31,invalid,5,5,0,down,9.95959689999927,None,space,0.37283799999931944,None,,,,,0,5,5,5,,,,,876.1621458999998,,,,,,,,,,,,,876.1462377999997,876.1621458999998,876.1621458999998,876.1621458999998,886.1358958000001,,,,886.1420255999992,886.1537343,886.1537343,886.2018512999994,886.2020918999997,886.2183886999992,886.2183886999992,886.2183886999992,886.2849257999997,886.6020823999997,,,,,,,,down,9.95959689999927,None,space,0.37283799999931944,None,,,,,,,,,,,,,,,P106,001,2025-02-13_11h09.30.810,posner_endo_new1,2024.2.4,60.02364931786706,2025-02-13 11h09.37.888904 +0000,
cube_r.png,0.1,0.31,valid,6,6,0,down,9.776834999999664,None,space,0.3114564999996219,None,,,,,0,6,6,6,,,,,886.6179655999995,,,,,,,,,,,,,886.6022600999995,886.6179655999995,886.6179655999995,886.6179655999995,896.4087323999993,,,,896.4147901999995,896.4263791999992,896.4263791999992,896.4746257999996,896.4748635999995,896.4910301999998,896.4910301999998,896.4910301999998,896.5578066999997,896.8085152999993,,,,,,,,down,9.776834999999664,None,space,0.3114564999996219,None,,,,,,,,,,,,,,,P106,001,2025-02-13_11h09.30.810,posner_endo_new1,2024.2.4,60.02364931786706,2025-02-13 11h09.37.888904 +0000,
cube_r.png,0.1,-0.31,invalid,7,7,0,down,11.489718799999537,None,space,0.34752989999924466,None,,,,,0,7,7,7,,,,,896.8240481999992,,,,,,,,,,,,,896.8087019999994,896.8240481999992,896.8240481999992,896.8240481999992,908.3297819,,,,908.3359962999994,908.3477192,908.3477192,908.3958631999994,908.3961006999998,908.4123131999995,908.4123131999995,908.4123131999995,908.4789254999996,908.7627526999995,,,,,,,,down,11.489718799999537,None,space,0.34752989999924466,None,,,,,,,,,,,,,,,P106,001,2025-02-13_11h09.30.810,posner_endo_new1,2024.2.4,60.02364931786706,2025-02-13 11h09.37.888904 +0000,
cube_l.png,0.1,-0.31,valid,8,8,0,down,10.647307600000204,None,space,0.379046300000482,None,,,,,0,8,8,8,,,,,908.7787297999994,,,,,,,,,,,,,908.7629387999996,908.7787297999994,908.7787297999994,908.7787297999994,919.4350924999999,,,,919.4415892999996,919.4531853999997,919.4531853999997,919.5010364999998,919.5012744999995,919.5175568999994,919.5175568999994,919.5175568999994,919.5841366999994,919.9014135999996,,,,,,,,down,10.647307600000204,None,space,0.379046300000482,None,,,,,,,,,,,,,,,P106,001,2025-02-13_11h09.30.810,posner_endo_new1,2024.2.4,60.02364931786706,2025-02-13 11h09.37.888904 +0000,
cube_r.png,0.1,-0.31,invalid,9,9,0,down,9.3331677999995,None,space,0.38027899999997317,None,,,,,0,9,9,9,,,,,919.9172048999999,,,,,,,,,,,,,919.9015974999993,919.9172048999999,919.9172048999999,919.9172048999999,929.2593425999994,,,,929.2759540999996,929.2871800999992,929.2871800999992,929.3244007999992,929.3247010999994,929.3408747999993,929.3408747999993,929.3408747999993,929.4239567999994,929.7249736999993,,,,,,,,down,9.3331677999995,None,space,0.38027899999997317,None,,,,,,,,,,,,,,,P106,001,2025-02-13_11h09.30.810,posner_endo_new1,2024.2.4,60.02364931786706,2025-02-13 11h09.37.888904 +0000,
cube_l.png,0.1,0.31,invalid,10,10,0,down,10.198083199999928,None,space,0.5052709999999934,None,,,,,0,10,10,10,,,,,929.7404898999994,,,,,,,,,,,,,929.7252245,929.7404898999994,929.7404898999994,929.7404898999994,939.9479511,,,,939.9595560999996,939.9699100999997,939.9699100999997,940.0134595,940.0138278999993,940.0300166999996,940.0300166999996,940.0300166999996,940.1131195999997,940.5473015999996,,,,,,,,down,10.198083199999928,None,space,0.5052709999999934,None,,,,,,,,,,,,,,,P106,001,2025-02-13_11h09.30.810,posner_endo_new1,2024.2.4,60.02364931786706,2025-02-13 11h09.37.888904 +0000,
cube_r.png,0.1,-0.31,invalid,11,11,0,down,2.391406100000495,None,space,0.47181060000002617,None,,,,,0,11,11,11,,,,,940.5627415999998,,,,,,,,,,,,,940.5475996999994,940.5627415999998,940.5627415999998,940.5627415999998,942.9614826999996,,,,942.9696641,942.9801490999998,942.9801490999998,943.0270345999998,943.0272972999992,943.0433118999999,943.0433118999999,943.0433118999999,943.1268110999999,943.5272771999998,,,,,,,,down,2.391406100000495,None,space,0.47181060000002617,None,,,,,,,,,,,,,,,P106,001,2025-02-13_11h09.30.810,posner_endo_new1,2024.2.4,60.02364931786706,2025-02-13 11h09.37.888904 +0000,
cube_r.png,0.1,0.31,valid,12,12,0,down,8.730913700000201,None,space,0.34404559999984485,None,,,,,0,12,12,12,,,,,943.5430622999993,,,,,,,,,,,,,943.5274802999993,943.5430622999993,943.5430622999993,943.5430622999993,952.2848965999992,,,,952.2922138999993,952.3035659999996,952.3035659999996,952.3508938999994,952.3511570000001,952.3670831999998,952.3670831999998,952.3670831999998,952.4339792999999,952.7178767999994,,,,,,,,down,8.730913700000201,None,space,0.34404559999984485,None,,,,,,,,,,,,,,,P106,001,2025-02-13_11h09.30.810,posner_endo_new1,2024.2.4,60.02364931786706,2025-02-13 11h09.37.888904 +0000,
cube_l.png,0.1,10,catch,13,13,0,down,10.036934800000381,None,None,,,,,,,0,13,13,13,,,,,952.7336741999998,,,,,,,,,,,,,952.7180933,952.7336741999998,952.7336741999998,952.7336741999998,962.7742871999999,,,,962.7817425999992,962.7928663999992,962.7928663999992,962.8400825999997,962.8406018999995,962.8565402999993,962.8565402999993,962.8565402999993,962.9397511999996,965.8543284999996,,,,964.9544442999995,965.8702668999995,965.8702668999995,965.8702668999995,down,10.036934800000381,None,None,,,,,,,,,,,,,,,,,P106,001,2025-02-13_11h09.30.810,posner_endo_new1,2024.2.4,60.02364931786706,2025-02-13 11h09.37.888904 +0000,
cube_r.png,0.1,-0.31,invalid,14,14,0,down,8.259827200000473,None,space,0.3799122000000352,None,,,,,0,14,14,14,,,,,965.8702668999995,,,,,,,,,,,,,965.8545959999992,965.8702668999995,965.8702668999995,965.8702668999995,974.1462849999998,,,,974.1572719999995,974.1676404,974.1676404,974.2118660999995,974.2122088999995,974.2281424999992,974.2281424999992,974.2281424999992,974.3116055,974.6127222999994,,,,,,,,down,8.259827200000473,None,space,0.3799122000000352,None,,,,,,,,,,,,,,,P106,001,2025-02-13_11h09.30.810,posner_endo_new1,2024.2.4,60.02364931786706,2025-02-13 11h09.37.888904 +0000,
cube_l.png,0.1,-0.31,valid,15,15,0,down,9.270014700000502,None,space,0.37687039999946137,None,,,,,0,15,15,15,,,,,974.6279790999997,,,,,,,,,,,,,974.6130095999997,974.6279790999997,974.6279790999997,974.6279790999997,983.9031609999993,,,,983.9139372,983.9243076999992,983.9243076999992,983.9685663999999,983.9689107999993,983.9848849999998,983.9848849999998,983.9848849999998,984.0683092999998,984.3692457999996,,,,,,,,down,9.270014700000502,None,space,0.37687039999946137,None,,,,,,,,,,,,,,,P106,001,2025-02-13_11h09.30.810,posner_endo_new1,2024.2.4,60.02364931786706,2025-02-13 11h09.37.888904 +0000,
cube_r.png,0.1,10,catch,16,16,0,down,23.025236700000278,None,None,,,,,,,0,16,16,16,,,,,984.3847216999993,,,,,,,,,,,,,984.3695342999999,984.3847216999993,984.3847216999993,984.3847216999993,1007.4123172999998,,,,1007.4233113,1007.4335174999997,1007.4335174999997,1007.4779731999997,1007.4783118999994,1007.4944059,1007.4944059,1007.4944059,1007.5776292,1010.4920790999995,,,,1009.5922747999994,1010.5079188,1010.5079188,1010.5079188,down,23.025236700000278,None,None,,,,,,,,,,,,,,,,,P106,001,2025-02-13_11h09.30.810,posner_endo_new1,2024.2.4,60.02364931786706,2025-02-13 11h09.37.888904 +0000,
cube_r.png,0.1,10,catch,17,17,0,down,5.790790099999867,None,None,,,,,,,0,17,17,17,,,,,1010.5079188,,,,,,,,,,,,,1010.4923438999995,1010.5079188,1010.5079188,1010.5079188,1016.3033597999993,,,,1016.3141673,1016.3244052999999,1016.3244052999999,1016.3688773999993,1016.3692199999996,1016.3854051999997,1016.3854051999997,1016.3854051999997,1016.4685489999993,1019.3829481999992,,,,1018.4832172999995,1019.3988741999992,1019.3988741999992,1019.3988741999992,down,5.790790099999867,None,None,,,,,,,,,,,,,,,,,P106,001,2025-02-13_11h09.30.810,posner_endo_new1,2024.2.4,60.02364931786706,2025-02-13 11h09.37.888904 +0000,
cube_l.png,0.1,0.31,invalid,18,18,0,down,12.547736099999383,None,space,0.3993689999997514,None,,,,,0,18,18,18,,,,,1019.3988741999992,,,,,,,,,,,,,1019.3832173999999,1019.3988741999992,1019.3988741999992,1019.3988741999992,1031.9540150999992,,,,1031.9649241999996,1031.9752909,1031.9752909,1032.0195539999995,1032.0198953999998,1032.0359904999996,1032.0359904999996,1032.0359904999996,1032.1192109999993,1032.4369958999996,,,,,,,,down,12.547736099999383,None,space,0.3993689999997514,None,,,,,,,,,,,,,,,P106,001,2025-02-13_11h09.30.810,posner_endo_new1,2024.2.4,60.02364931786706,2025-02-13 11h09.37.888904 +0000,
cube_l.png,0.1,10,catch,19,19,0,down,8.518899599999713,None,None,,,,,,,0,19,19,19,,,,,1032.4523108999992,,,,,,,,,,,,,1032.4372819999999,1032.4523108999992,1032.4523108999992,1032.4523108999992,1040.9780418,,,,1040.9888746999995,1040.9991388999997,1040.9991388999997,1041.0436577,1041.0439965999994,1041.0601152999998,1041.0601152999998,1041.0601152999998,1041.1433301999996,1044.0578311,,,,1043.1578831999996,1044.0736666999992,1044.0736666999992,1044.0736666999992,down,8.518899599999713,None,None,,,,,,,,,,,,,,,,,P106,001,2025-02-13_11h09.30.810,posner_endo_new1,2024.2.4,60.02364931786706,2025-02-13 11h09.37.888904 +0000,
cube_l.png,0.1,0.31,invalid,20,20,0,down,6.0246609000005265,None,space,0.45985060000020894,None,,,,,0,20,20,20,,,,,1044.0736666999992,,,,,,,,,,,,,1044.0580946999999,1044.0736666999992,1044.0736666999992,1044.0736666999992,1050.1020910999996,,,,1050.112878,1050.1232605999994,1050.1232605999994,1050.1677003999994,1050.1680430999995,1050.1841219999997,1050.1841219999997,1050.1841219999997,1050.2673730999995,1050.6514826999992,,,,,,,,down,6.0246609000005265,None,space,0.45985060000020894,None,,,,,,,,,,,,,,,P106,001,2025-02-13_11h09.30.810,posner_endo_new1,2024.2.4,60.02364931786706,2025-02-13 11h09.37.888904 +0000,
cube_l.png,0.1,-0.31,valid,21,21,0,down,8.21520689999943,None,space,0.4576801000002888,None,,,,,0,21,21,21,,,,,1050.6669051999997,,,,,,,,,,,,,1050.6517642,1050.6669051999997,1050.6669051999997,1050.6669051999997,1058.8930670999998,,,,1058.9038500999995,1058.9140966999994,1058.9140966999994,1058.9586887999994,1058.9590355999999,1058.9751051999992,1058.9751051999992,1058.9751051999992,1059.0584228999996,1059.4424979999994,,,,,,,,down,8.21520689999943,None,space,0.4576801000002888,None,,,,,,,,,,,,,,,P106,001,2025-02-13_11h09.30.810,posner_endo_new1,2024.2.4,60.02364931786706,2025-02-13 11h09.37.888904 +0000,
cube_r.png,0.1,0.31,valid,22,22,0,down,12.232664600000135,None,space,0.37152120000064315,None,,,,,0,22,22,22,,,,,1059.4579380999994,,,,,,,,,,,,,1059.4427903999995,1059.4579380999994,1059.4579380999994,1059.4579380999994,1071.6966441999994,,,,1071.7074511,1071.7177444999998,1071.7177444999998,1071.7622081,1071.762554,1071.7788132999995,1071.7788132999995,1071.7788132999995,1071.8619065999992,1072.1628290999997,,,,,,,,down,12.232664600000135,None,space,0.37152120000064315,None,,,,,,,,,,,,,,,P106,001,2025-02-13_11h09.30.810,posner_endo_new1,2024.2.4,60.02364931786706,2025-02-13 11h09.37.888904 +0000,
cube_r.png,0.1,-0.31,invalid,23,23,0,down,10.904191599999649,None,space,0.3792543999998088,None,,,,,0,23,23,23,,,,,1072.1782219999996,,,,,,,,,,,,,1072.1631142999995,1072.1782219999996,1072.1782219999996,1072.1782219999996,1083.0850057999996,,,,1083.0960553999994,1083.1064426999992,1083.1064426999992,1083.1506907999992,1083.1510301999997,1083.1670285999999,1083.1670285999999,1083.1670285999999,1083.2503480999994,1083.5513315999997,,,,,,,,down,10.904191599999649,None,space,0.3792543999998088,None,,,,,,,,,,,,,,,P106,001,2025-02-13_11h09.30.810,posner_endo_new1,2024.2.4,60.02364931786706,2025-02-13 11h09.37.888904 +0000,
cube_r.png,0.1,0.31,valid,24,24,0,down,11.099984699999368,None,space,0.3123664999993707,None,,,,,0,24,24,24,,,,,1083.5666888999995,,,,,,,,,,,,,1083.5516183,1083.5666888999995,1083.5666888999995,1083.5666888999995,1094.6730650999998,,,,1094.6839169999994,1094.6943174999997,1094.6943174999997,1094.7387159999998,1094.7390562,1094.7552704,1094.7552704,1094.7552704,1094.8384582999997,1095.0730402999998,,,,,,,,down,11.099984699999368,None,space,0.3123664999993707,None,,,,,,,,,,,,,,,P106,001,2025-02-13_11h09.30.810,posner_endo_new1,2024.2.4,60.02364931786706,2025-02-13 11h09.37.888904 +0000,
cube_r.png,0.1,-0.31,invalid,25,25,0,down,12.850430700000288,None,space,0.4114553999997952,None,,,,,0,25,25,25,,,,,1095.0882659,,,,,,,,,,,,,1095.0733255999994,1095.0882659,1095.0882659,1095.0882659,1107.9427166999994,,,,1107.9488538999994,1107.9604664999997,1107.9604664999997,1108.0086544999995,1108.0088896999996,1108.0249617999998,1108.0249617999998,1108.0249617999998,1108.1082385999998,1108.4420845999994,,,,,,,,down,12.850430700000288,None,space,0.4114553999997952,None,,,,,,,,,,,,,,,P106,001,2025-02-13_11h09.30.810,posner_endo_new1,2024.2.4,60.02364931786706,2025-02-13 11h09.37.888904 +0000,
cube_l.png,0.1,-0.31,valid,26,26,0,down,8.840887700000167,None,space,0.3604563999997481,None,,,,,0,26,26,26,,,,,1108.4580157,,,,,,,,,,,,,1108.4422649999997,1108.4580157,1108.4580157,1108.4580157,1117.2998269999998,,,,1117.3058007,1117.3175462,1117.3175462,1117.3655062999997,1117.3657430999992,1117.3820610999992,1117.3820610999992,1117.3820610999992,1117.4652701999994,1117.7491462999997,,,,,,,,down,8.840887700000167,None,space,0.3604563999997481,None,,,,,,,,,,,,,,,P106,001,2025-02-13_11h09.30.810,posner_endo_new1,2024.2.4,60.02364931786706,2025-02-13 11h09.37.888904 +0000,
cube_r.png,0.1,0.31,valid,27,27,0,down,8.365996300000006,None,space,0.3179080999998405,None,,,,,0,27,27,27,,,,,1117.7650009,,,,,,,,,,,,,1117.7493264999994,1117.7650009,1117.7650009,1117.7650009,1126.1407282,,,,1126.1467650999994,1126.1581741,1126.1581741,1126.2065963999994,1126.2068425999996,1126.2230719999998,1126.2230719999998,1126.2230719999998,1126.2898402,1126.5569897999994,,,,,,,,down,8.365996300000006,None,space,0.3179080999998405,None,,,,,,,,,,,,,,,P106,001,2025-02-13_11h09.30.810,posner_endo_new1,2024.2.4,60.02364931786706,2025-02-13 11h09.37.888904 +0000,
cube_r.png,0.1,10,catch,28,28,0,down,8.870413499999813,None,None,,,,,,,0,28,28,28,,,,,1126.5726882999998,,,,,,,,,,,,,1126.5571729999992,1126.5726882999998,1126.5726882999998,1126.5726882999998,1135.4477985999993,,,,1135.4538035999994,1135.4653282999998,1135.4653282999998,1135.5137937999998,1135.5140286999995,1135.5302689,1135.5302689,1135.5302689,1135.6135034,1138.5275747999995,,,,1137.6281489999992,1138.5440076999994,1138.5440076999994,1138.5440076999994,down,8.870413499999813,None,None,,,,,,,,,,,,,,,,,P106,001,2025-02-13_11h09.30.810,posner_endo_new1,2024.2.4,60.02364931786706,2025-02-13 11h09.37.888904 +0000,
cube_r.png,0.1,0.31,valid,29,29,0,down,8.219128400000045,None,space,0.32049779999942984,None,,,,,0,29,29,29,,,,,1138.5440076999994,,,,,,,,,,,,,1138.5277461999995,1138.5440076999994,1138.5440076999994,1138.5440076999994,1146.769539,,,,1146.7755982999997,1146.7871532,1146.7871532,1146.8355216,1146.8357588,1146.8519496,1146.8519496,1146.8519496,1146.9184327999992,1147.1855925,,,,,,,,down,8.219128400000045,None,space,0.32049779999942984,None,,,,,,,,,,,,,,,P106,001,2025-02-13_11h09.30.810,posner_endo_new1,2024.2.4,60.02364931786706,2025-02-13 11h09.37.888904 +0000,
cube_r.png,0.1,0.31,valid,30,30,0,down,9.257281799999873,None,space,0.40406849999999395,None,,,,,0,30,30,30,,,,,1147.2015978,,,,,,,,,,,,,1147.1857720999997,1147.2015978,1147.2015978,1147.2015978,1156.4598006999995,,,,1156.4659806999998,1156.4776833999995,1156.4776833999995,1156.5257288999992,1156.5259665999993,1156.5421468999994,1156.5421468999994,1156.5421468999994,1156.6252486999992,1156.9593640999992,,,,,,,,down,9.257281799999873,None,space,0.40406849999999395,None,,,,,,,,,,,,,,,P106,001,2025-02-13_11h09.30.810,posner_endo_new1,2024.2.4,60.02364931786706,2025-02-13 11h09.37.888904 +0000,
cube_l.png,0.1,-0.31,valid,31,31,0,down,9.123928300000443,None,space,0.28800629999932426,None,,,,,0,31,31,31,,,,,1156.9750179999992,,,,,,,,,,,,,1156.9595439999994,1156.9750179999992,1156.9750179999992,1156.9750179999992,1166.1003129,,,,1166.1082741999999,1166.1185501,1166.1185501,1166.1657450999992,1166.1659789999994,1166.1822962999995,1166.1822962999995,1166.1822962999995,1166.2654765999996,1166.4827700999995,,,,,,,,down,9.123928300000443,None,space,0.28800629999932426,None,,,,,,,,,,,,,,,P106,001,2025-02-13_11h09.30.810,posner_endo_new1,2024.2.4,60.02364931786706,2025-02-13 11h09.37.888904 +0000,
cube_r.png,0.1,0.31,valid,32,32,0,down,10.543978499999866,None,space,0.3017490000001999,None,,,,,0,32,32,32,,,,,1166.4986446999992,,,,,,,,,,,,,1166.4829501999993,1166.4986446999992,1166.4986446999992,1166.4986446999992,1177.0553553,,,,1177.0617570999993,1177.0732411999998,1177.0732411999998,1177.1211637999995,1177.1213992999992,1177.1379276999996,1177.1379276999996,1177.1379276999996,1177.2210858999997,1177.4549779999998,,,,,,,,down,10.543978499999866,None,space,0.3017490000001999,None,,,,,,,,,,,,,,,P106,001,2025-02-13_11h09.30.810,posner_endo_new1,2024.2.4,60.02364931786706,2025-02-13 11h09.37.888904 +0000,
cube_r.png,0.1,-0.31,invalid,33,33,0,down,11.860275000000001,None,space,0.34061859999928856,None,,,,,0,33,33,33,,,,,1177.4708351,,,,,,,,,,,,,1177.4551582999993,1177.4708351,1177.4708351,1177.4708351,1189.3427383999997,,,,1189.3488296999994,1189.3601891999997,1189.3601891999997,1189.4085325999995,1189.4087772999992,1189.4252287,1189.4252287,1189.4252287,1189.4917889999997,1189.7756165,,,,,,,,down,11.860275000000001,None,space,0.34061859999928856,None,,,,,,,,,,,,,,,P106,001,2025-02-13_11h09.30.810,posner_endo_new1,2024.2.4,60.02364931786706,2025-02-13 11h09.37.888904 +0000,
cube_r.png,0.1,10,catch,34,34,0,down,2.347083799999382,None,None,,,,,,,0,34,34,34,,,,,1189.7915420999998,,,,,,,,,,,,,1189.7757954999997,1189.7915420999998,1189.7915420999998,1189.7915420999998,1192.1401727999992,,,,1192.1461697999994,1192.1578311999992,1192.1578311999992,1192.2059805,1192.2064328999995,1192.2220074999996,1192.2220074999996,1192.2220074999996,1192.3052509,1195.2199389999996,,,,1194.3201601,1195.2359749999996,1195.2359749999996,1195.2359749999996,down,2.347083799999382,None,None,,,,,,,,,,,,,,,,,P106,001,2025-02-13_11h09.30.810,posner_endo_new1,2024.2.4,60.02364931786706,2025-02-13 11h09.37.888904 +0000,
cube_r.png,0.1,0.31,valid,35,35,0,down,6.23096440000063,None,space,0.35689800000000105,None,,,,,0,35,35,35,,,,,1195.2359749999996,,,,,,,,,,,,,1195.2201794999992,1195.2359749999996,1195.2359749999996,1195.2359749999996,1201.4810118999994,,,,1201.4905970999998,1201.5008240999996,1201.5008240999996,1201.5463326,1201.5466453999998,1201.5628213,1201.5628213,1201.5628213,1201.6461967999994,1201.9302027999993,,,,,,,,down,6.23096440000063,None,space,0.35689800000000105,None,,,,,,,,,,,,,,,P106,001,2025-02-13_11h09.30.810,posner_endo_new1,2024.2.4,60.02364931786706,2025-02-13 11h09.37.888904 +0000,
cube_r.png,0.1,-0.31,invalid,36,36,0,down,19.512554699999782,None,space,0.30747150000024703,None,,,,,0,36,36,36,,,,,1201.9457149,,,,,,,,,,,,,1201.9304587999995,1201.9457149,1201.9457149,1201.9457149,1221.4603638999997,,,,1221.4700721,1221.4803647999997,1221.4803647999997,1221.5259416999997,1221.5262620999993,1221.5424236999997,1221.5424236999997,1221.5424236999997,1221.6256096999996,1221.8598511999999,,,,,,,,down,19.512554699999782,None,space,0.30747150000024703,None,,,,,,,,,,,,,,,P106,001,2025-02-13_11h09.30.810,posner_endo_new1,2024.2.4,60.02364931786706,2025-02-13 11h09.37.888904 +0000,
cube_l.png,0.1,0.31,invalid,37,37,0,down,19.231652499999655,None,space,0.30706629999986035,None,,,,,0,37,37,37,,,,,1221.8753370999993,,,,,,,,,,,,,1221.8601098999998,1221.8753370999993,1221.8753370999993,1221.8753370999993,1241.1235692999999,,,,1241.1332708999998,1241.1432983999994,1241.1432983999994,1241.1891103999997,1241.1894275999994,1241.2057028999998,1241.2057028999998,1241.2057028999998,1241.2887732,1241.5231268999996,,,,,,,,down,19.231652499999655,None,space,0.30706629999986035,None,,,,,,,,,,,,,,,P106,001,2025-02-13_11h09.30.810,posner_endo_new1,2024.2.4,60.02364931786706,2025-02-13 11h09.37.888904 +0000,
cube_l.png,0.1,0.31,invalid,38,38,0,down,9.424230100000386,None,space,0.35731180000038876,None,,,,,0,38,38,38,,,,,1241.5385751999993,,,,,,,,,,,,,1241.5233914,1241.5385751999993,1241.5385751999993,1241.5385751999993,1250.9801713999996,,,,1250.9898937999997,1250.9999109,1250.9999109,1251.0457262,1251.0460524999999,1251.0622469,1251.0622469,1251.0622469,1251.1454132,1251.4296617999998,,,,,,,,down,9.424230100000386,None,space,0.35731180000038876,None,,,,,,,,,,,,,,,P106,001,2025-02-13_11h09.30.810,posner_endo_new1,2024.2.4,60.02364931786706,2025-02-13 11h09.37.888904 +0000,
cube_r.png,0.1,0.31,valid,39,39,0,down,11.973851199999444,None,space,0.3455773000005138,None,,,,,0,39,39,39,,,,,1251.4451915,,,,,,,,,,,,,1251.4299265,1251.4451915,1251.4451915,1251.4451915,1263.4340161999999,,,,1263.4435952999993,1263.4539267999999,1263.4539267999999,1263.4996326,1263.4999549999993,1263.5163258999992,1263.5163258999992,1263.5163258999992,1263.5993965999996,1263.8671070999999,,,,,,,,down,11.973851199999444,None,space,0.3455773000005138,None,,,,,,,,,,,,,,,P106,001,2025-02-13_11h09.30.810,posner_endo_new1,2024.2.4,60.02364931786706,2025-02-13 11h09.37.888904 +0000,
cube_l.png,0.1,0.31,invalid,40,40,0,down,15.463919099999657,None,space,0.3798406999994768,None,,,,,0,40,40,40,,,,,1263.8824298,,,,,,,,,,,,,1263.8673667999992,1263.8824298,1263.8824298,1263.8824298,1279.3511773999999,,,,1279.3607439999996,1279.3709927,1279.3709927,1279.4167361999998,1279.4170543999999,1279.4331871999993,1279.4331871999993,1279.4331871999993,1279.5166110999999,1279.8175488999996,,,,,,,,down,15.463919099999657,None,space,0.3798406999994768,None,,,,,,,,,,,,,,,P106,001,2025-02-13_11h09.30.810,posner_endo_new1,2024.2.4,60.02364931786706,2025-02-13 11h09.37.888904 +0000,
cube_l.png,0.1,10,catch,41,41,0,down,21.84217119999994,None,None,,,,,,,0,41,41,41,,,,,1279.8328816999992,,,,,,,,,,,,,1279.8178068999996,1279.8328816999992,1279.8328816999992,1279.8328816999992,1301.6782321,,,,1301.6878324999998,1301.6981241999993,1301.6981241999993,1301.7438261999996,1301.7441458999992,1301.7604452999994,1301.7604452999994,1301.7604452999994,1301.8436488999996,1304.7581088999996,,,,1303.8582452,1304.7740460999994,1304.7740460999994,1304.7740460999994,down,21.84217119999994,None,None,,,,,,,,,,,,,,,,,P106,001,2025-02-13_11h09.30.810,posner_endo_new1,2024.2.4,60.02364931786706,2025-02-13 11h09.37.888904 +0000,
cube_l.png,0.1,-0.31,valid,42,42,0,down,6.797078800000236,None,space,0.3505224000000453,None,,,,,0,42,42,42,,,,,1304.7740460999994,,,,,,,,,,,,,1304.7583492999993,1304.7740460999994,1304.7740460999994,1304.7740460999994,1311.5848008999992,,,,1311.5943204999994,1311.6046756999995,1311.6046756999995,1311.6505889999999,1311.6508996999992,1311.6668381,1311.6668381,1311.6668381,1311.7502227999994,1312.0344261,,,,,,,,down,6.797078800000236,None,space,0.3505224000000453,None,,,,,,,,,,,,,,,P106,001,2025-02-13_11h09.30.810,posner_endo_new1,2024.2.4,60.02364931786706,2025-02-13 11h09.37.888904 +0000,
cube_l.png,0.1,10,catch,43,43,0,down,13.99242090000007,None,None,,,,,,,0,43,43,43,,,,,1312.0499336999992,,,,,,,,,,,,,1312.0346842999998,1312.0499336999992,1312.0499336999992,1312.0499336999992,1326.0532828999994,,,,1326.0627335999998,1326.0731282999996,1326.0731282999996,1326.1191455999997,1326.1194689999993,1326.1356063999992,1326.1356063999992,1326.1356063999992,1326.2187897999993,1329.1331652999997,,,,1328.2334323999994,1329.1491290999993,1329.1491290999993,1329.1491290999993,down,13.99242090000007,None,None,,,,,,,,,,,,,,,,,P106,001,2025-02-13_11h09.30.810,posner_endo_new1,2024.2.4,60.02364931786706,2025-02-13 11h09.37.888904 +0000,
cube_l.png,0.1,0.31,invalid,44,44,0,down,5.862269199999901,None,space,0.3583180000005086,None,,,,,0,44,44,44,,,,,1329.1491290999993,,,,,,,,,,,,,1329.1334081999994,1329.1491290999993,1329.1491290999993,1329.1491290999993,1335.0275106999998,,,,1335.0363183999998,1335.0461102999998,1335.0461102999998,1335.0930820999993,1335.0933132999999,1335.1096521999998,1335.1096521999998,1335.1096521999998,1335.1928527999999,1335.4766604999995,,,,,,,,down,5.862269199999901,None,space,0.3583180000005086,None,,,,,,,,,,,,,,,P106,001,2025-02-13_11h09.30.810,posner_endo_new1,2024.2.4,60.02364931786706,2025-02-13 11h09.37.888904 +0000,
cube_l.png,0.1,0.31,invalid,45,45,0,down,9.838657300000705,None,space,0.37768400000004476,None,,,,,0,45,45,45,,,,,1335.4926239999995,,,,,,,,,,,,,1335.4768385999996,1335.4926239999995,1335.4926239999995,1335.4926239999995,1345.3337128999992,,,,1345.3400707,1345.3516543999995,1345.3516543999995,1345.3993198999997,1345.3995533999996,1345.4159151999993,1345.4159151999993,1345.4159151999993,1345.4991207999992,1345.7997710999998,,,,,,,,down,9.838657300000705,None,space,0.37768400000004476,None,,,,,,,,,,,,,,,P106,001,2025-02-13_11h09.30.810,posner_endo_new1,2024.2.4,60.02364931786706,2025-02-13 11h09.37.888904 +0000,
cube_r.png,0.1,0.31,valid,46,46,0,down,8.396856299999854,None,space,0.29613570000037726,None,,,,,0,46,46,46,,,,,1345.8151822,,,,,,,,,,,,,1345.7999505999996,1345.8151822,1345.8151822,1345.8151822,1354.2242354,,,,1354.2306154999997,1354.2421613999995,1354.2421613999995,1354.2901662999993,1354.2904020999995,1354.3067019,1354.3067019,1354.3067019,1354.3732387999999,1354.6073168999992,,,,,,,,down,8.396856299999854,None,space,0.29613570000037726,None,,,,,,,,,,,,,,,P106,001,2025-02-13_11h09.30.810,posner_endo_new1,2024.2.4,60.02364931786706,2025-02-13 11h09.37.888904 +0000,
cube_l.png,0.1,-0.31,valid,47,47,0,down,9.09145559999979,None,space,0.3937243000000308,None,,,,,0,47,47,47,,,,,1354.6230182999998,,,,,,,,,,,,,1354.6074937999992,1354.6230182999998,1354.6230182999998,1354.6230182999998,1363.7312623999997,,,,1363.7372771999999,1363.7485351999994,1363.7485351999994,1363.7971195,1363.7973546999992,1363.8136151999997,1363.8136151999997,1363.8136151999997,1363.8970745999995,1364.2141945999992,,,,,,,,down,9.09145559999979,None,space,0.3937243000000308,None,,,,,,,,,,,,,,,P106,001,2025-02-13_11h09.30.810,posner_endo_new1,2024.2.4,60.02364931786706,2025-02-13 11h09.37.888904 +0000,
cube_r.png,0.1,-0.31,invalid,48,48,0,down,8.460793999999623,None,space,0.26343090000045777,None,,,,,0,48,48,48,,,,,1364.2299334999998,,,,,,,,,,,,,1364.2143791999997,1364.2299334999998,1364.2299334999998,1364.2299334999998,1372.7053615999994,,,,1372.7114048999993,1372.7229416,1372.7229416,1372.7715721999994,1372.771812,1372.7877835999998,1372.7877835999998,1372.7877835999998,1372.8545324999996,1373.0553211999995,,,,,,,,down,8.460793999999623,None,space,0.26343090000045777,None,,,,,,,,,,,,,,,P106,001,2025-02-13_11h09.30.810,posner_endo_new1,2024.2.4,60.02364931786706,2025-02-13 11h09.37.888904 +0000,
cube_r.png,0.1,10,catch,49,49,0,down,5.5000152000002345,None,None,,,,,,,0,49,49,49,,,,,1373.0709557999999,,,,,,,,,,,,,1373.0554972999998,1373.0709557999999,1373.0709557999999,1373.0709557999999,1378.5831340999994,,,,1378.5945392999993,1378.6048892,1378.6048892,1378.6486200999998,1378.6489788,1378.6651297999997,1378.6651297999997,1378.6651297999997,1378.7484463,1381.6627982999998,,,,1380.7630655999992,1381.6787759,1381.6787759,1381.6787759,down,5.5000152000002345,None,None,,,,,,,,,,,,,,,,,P106,001,2025-02-13_11h09.30.810,posner_endo_new1,2024.2.4,60.02364931786706,2025-02-13 11h09.37.888904 +0000,
cube_l.png,0.1,-0.31,valid,50,50,0,down,4.308410300000105,None,space,0.36930240000037884,None,,,,,0,50,50,50,,,,,1381.6787759,,,,,,,,,,,,,1381.6630726999992,1381.6787759,1381.6787759,1381.6787759,1385.9920225999995,,,,1385.9980741,1386.0096248,1386.0096248,1386.0579106999994,1386.0581487,1386.0741804,1386.0741804,1386.0741804,1386.1575006999992,1386.4580207999998,,,,,,,,down,4.308410300000105,None,space,0.36930240000037884,None,,,,,,,,,,,,,,,P106,001,2025-02-13_11h09.30.810,posner_endo_new1,2024.2.4,60.02364931786706,2025-02-13 11h09.37.888904 +0000,
cube_l.png,0.1,-0.31,valid,51,51,0,down,11.04138949999924,None,space,0.2788784000003943,None,,,,,0,51,51,51,,,,,1386.4739056999997,,,,,,,,,,,,,1386.4581988999998,1386.4739056999997,1386.4739056999997,1386.4739056999997,1397.5302930999997,,,,1397.5399994999998,1397.5503424999997,1397.5503424999997,1397.5960144,1397.5963382999998,1397.6125120999995,1397.6125120999995,1397.6125120999995,1397.6957219999995,1397.8966050999998,,,,,,,,down,11.04138949999924,None,space,0.2788784000003943,None,,,,,,,,,,,,,,,P106,001,2025-02-13_11h09.30.810,posner_endo_new1,2024.2.4,60.02364931786706,2025-02-13 11h09.37.888904 +0000,
cube_r.png,0.1,-0.31,invalid,52,52,0,down,9.56300839999949,None,space,0.2958662999999433,None,,,,,0,52,52,52,,,,,1397.9121716,,,,,,,,,,,,,1397.8968596999994,1397.9121716,1397.9121716,1397.9121716,1407.4865454,,,,1407.4929887999997,1407.5046739,1407.5046739,1407.5524071999998,1407.5526425999997,1407.5690108999997,1407.5690108999997,1407.5690108999997,1407.6355993999996,1407.8695368999997,,,,,,,,down,9.56300839999949,None,space,0.2958662999999433,None,,,,,,,,,,,,,,,P106,001,2025-02-13_11h09.30.810,posner_endo_new1,2024.2.4,60.02364931786706,2025-02-13 11h09.37.888904 +0000,
cube_l.png,0.1,-0.31,valid,53,53,0,down,9.182036700000026,None,space,0.3056674999997995,None,,,,,0,53,53,53,,,,,1407.8853375999997,,,,,,,,,,,,,1407.8697204,1407.8853375999997,1407.8853375999997,1407.8853375999997,1417.0769961999995,,,,1417.0859990999998,1417.0958149999997,1417.0958149999997,1417.1424938,1417.1427306999994,1417.1591598999994,1417.1591598999994,1417.1591598999994,1417.2424618999994,1417.4761800999995,,,,,,,,down,9.182036700000026,None,space,0.3056674999997995,None,,,,,,,,,,,,,,,P106,001,2025-02-13_11h09.30.810,posner_endo_new1,2024.2.4,60.02364931786706,2025-02-13 11h09.37.888904 +0000,
cube_r.png,0.1,10,catch,54,54,0,down,5.199660799999947,None,None,,,,,,,0,54,54,54,,,,,1417.4920094,,,,,,,,,,,,,1417.4763573,1417.4920094,1417.4920094,1417.4920094,1422.7043733,,,,1422.7107355999997,1422.7223316999998,1422.7223316999998,1422.7700557999997,1422.7702929999996,1422.7867313999996,1422.7867313999996,1422.7867313999996,1422.8533260999993,1425.7840926,,,,1424.8680250999996,1425.8003595999999,1425.8003595999999,1425.8003595999999,down,5.199660799999947,None,None,,,,,,,,,,,,,,,,,P106,001,2025-02-13_11h09.30.810,posner_endo_new1,2024.2.4,60.02364931786706,2025-02-13 11h09.37.888904 +0000,
cube_l.png,0.1,0.31,invalid,55,55,0,down,6.618189800000437,None,space,0.3276125000002139,None,,,,,0,55,55,55,,,,,1425.8003595999999,,,,,,,,,,,,,1425.7842658,1425.8003595999999,1425.8003595999999,1425.8003595999999,1432.4276504,,,,1432.4341117999993,1432.4457515999993,1432.4457515999993,1432.4935066999997,1432.4937418,1432.5101593999998,1432.5101593999998,1432.5101593999998,1432.5934129999996,1432.8440507999994,,,,,,,,down,6.618189800000437,None,space,0.3276125000002139,None,,,,,,,,,,,,,,,P106,001,2025-02-13_11h09.30.810,posner_endo_new1,2024.2.4,60.02364931786706,2025-02-13 11h09.37.888904 +0000,
cube_l.png,0.1,-0.31,valid,56,56,0,down,10.471296400000028,None,space,0.7076484999997774,None,,,,,0,56,56,56,,,,,1432.8598348999994,,,,,,,,,,,,,1432.8442286999998,1432.8598348999994,1432.8598348999994,1432.8598348999994,1443.3332825999996,,,,1443.3397071999998,1443.3515136999995,1443.3515136999995,1443.3991499999993,1443.3993885999998,1443.4157493999992,1443.4157493999992,1443.4157493999992,1443.4823532999999,1444.1322660999995,,,,,,,,down,10.471296400000028,None,space,0.7076484999997774,None,,,,,,,,,,,,,,,P106,001,2025-02-13_11h09.30.810,posner_endo_new1,2024.2.4,60.02364931786706,2025-02-13 11h09.37.888904 +0000,
cube_r.png,0.1,0.31,valid,57,57,0,down,6.951164799999788,None,space,0.44417040000007546,None,,,,,0,57,57,57,,,,,1444.1483374999998,,,,,,,,,,,,,1444.1324415999998,1444.1483374999998,1444.1483374999998,1444.1483374999998,1451.1086313999995,,,,1451.1150272999994,1451.12662,1451.12662,1451.1746549999998,1451.1748887999993,1451.1909161999993,1451.1909161999993,1451.1909161999993,1451.2576555999995,1451.6413712999993,,,,,,,,down,6.951164799999788,None,space,0.44417040000007546,None,,,,,,,,,,,,,,,P106,001,2025-02-13_11h09.30.810,posner_endo_new1,2024.2.4,60.02364931786706,2025-02-13 11h09.37.888904 +0000,
cube_r.png,0.1,-0.31,invalid,58,58,0,down,16.17778360000011,None,space,0.26110890000018117,None,,,,,0,58,58,58,,,,,1451.6572717999998,,,,,,,,,,,,,1451.6415491999996,1451.6572717999998,1451.6572717999998,1451.6572717999998,1467.8414718999993,,,,1467.8480532999993,1467.8595294999996,1467.8595294999996,1467.9074529999998,1467.9076923999992,1467.9241954999998,1467.9241954999998,1467.9241954999998,1467.9905875999993,1468.1912776999998,,,,,,,,down,16.17778360000011,None,space,0.26110890000018117,None,,,,,,,,,,,,,,,P106,001,2025-02-13_11h09.30.810,posner_endo_new1,2024.2.4,60.02364931786706,2025-02-13 11h09.37.888904 +0000,
cube_l.png,0.1,0.31,invalid,59,59,0,down,11.276181299999735,None,space,0.2940464000002976,None,,,,,0,59,59,59,,,,,1468.2068995,,,,,,,,,,,,,1468.1914584999995,1468.2068995,1468.2068995,1468.2068995,1479.4964373999992,,,,1479.5028963999994,1479.5144848999998,1479.5144848999998,1479.5620964999998,1479.5623314999993,1479.5787014999996,1479.5787014999996,1479.5787014999996,1479.6619959,1479.8793378999999,,,,,,,,down,11.276181299999735,None,space,0.2940464000002976,None,,,,,,,,,,,,,,,P106,001,2025-02-13_11h09.30.810,posner_endo_new1,2024.2.4,60.02364931786706,2025-02-13 11h09.37.888904 +0000,
,,,,,,,,,,,,,,,,,,,,,,,,,,,,,,,,,,,,,,,,,,,,,,,,,,,,,,,,,,,,,,,,,,,,,1479.8794548999995,1479.8950583999995,1479.8950583999995,1539.9003341999996,1589.8007732999995,space,109.9002631000003,None,,,,,,,P106,001,2025-02-13_11h09.30.810,posner_endo_new1,2024.2.4,60.02364931786706,2025-02-13 11h09.37.888904 +0000,
,,,,,,,,,,,,,,,,,,,,,,,,,,,,,,,,,,1589.8008666999995,1589.8162071999996,1592.8339035,1592.7970806999992,,,,,,,,,,,,,,,,,,,,,,,,,,,,,,,,,,,,,,,,,,,,,,P106,001,2025-02-13_11h09.30.810,posner_endo_new1,2024.2.4,60.02364931786706,2025-02-13 11h09.37.888904 +0000,
cube_l.png,0.1,10,catch,0,0,0,up,24.217406399999163,None,None,,,,,,,,,,,0,0,0,0,1592.8339035,,,,,,,,,,,,,1592.8250976999998,1592.8339035,1592.8339035,1592.8339035,1617.0558576999993,,,,1617.0622147999993,1617.0739113,1617.0739113,1617.1216129999993,1617.1218552999999,1617.1383422,1617.1383422,1617.1383422,1617.2215361999997,1620.1356339999993,,,,1619.236073,1620.1517795999998,1620.1517795999998,1620.1517795999998,,,,,,,,,,,,,,,up,24.217406399999163,None,None,,,P106,001,2025-02-13_11h09.30.810,posner_endo_new1,2024.2.4,60.02364931786706,2025-02-13 11h09.37.888904 +0000,
cube_l.png,0.1,10,catch,1,1,0,up,3.2515384000007543,None,None,,,,,,,,,,,0,1,1,1,1620.1517795999998,,,,,,,,,,,,,1620.1358075999997,1620.1517795999998,1620.1517795999998,1620.1517795999998,1623.4160642999996,,,,1623.4221265999995,1623.4335697999995,1623.4335697999995,1623.4821493999998,1623.4823858,1623.4983060999994,1623.4983060999994,1623.4983060999994,1623.5815835999992,1626.496059,,,,1625.5961518999993,1626.5119826,1626.5119826,1626.5119826,,,,,,,,,,,,,,,up,3.2515384000007543,None,None,,,P106,001,2025-02-13_11h09.30.810,posner_endo_new1,2024.2.4,60.02364931786706,2025-02-13 11h09.37.888904 +0000,
cube_l.png,0.1,0.31,invalid,2,2,0,up,4.571500899999592,None,space,0.5250721000002159,None,,,,,,,,,0,2,2,2,1626.5119826,,,,,,,,,,,,,1626.4962317,1626.5119826,1626.5119826,1626.5119826,1631.0914211,,,,1631.0973729999996,1631.1090908999995,1631.1090908999995,1631.1573088999994,1631.1575481999998,1631.1739393999997,1631.1739393999997,1631.1739393999997,1631.240342,1631.7073784999993,,,,,,,,,,,,,,,,,,,,,,up,4.571500899999592,None,space,0.5250721000002159,None,P106,001,2025-02-13_11h09.30.810,posner_endo_new1,2024.2.4,60.02364931786706,2025-02-13 11h09.37.888904 +0000,
cube_l.png,0.1,0.31,invalid,3,3,0,up,9.264249099999688,None,space,0.38429360000009183,None,,,,,,,,,0,3,3,3,1631.7233453999997,,,,,,,,,,,,,1631.7075627999993,1631.7233453999997,1631.7233453999997,1631.7233453999997,1640.9978139999994,,,,1641.0038071,1641.015485,1641.015485,1641.0638423,1641.0640765999997,1641.0803072999997,1641.0803072999997,1641.0803072999997,1641.1469064999992,1641.4811760999992,,,,,,,,,,,,,,,,,,,,,,up,9.264249099999688,None,space,0.38429360000009183,None,P106,001,2025-02-13_11h09.30.810,posner_endo_new1,2024.2.4,60.02364931786706,2025-02-13 11h09.37.888904 +0000,
cube_l.png,0.1,-0.31,valid,4,4,0,up,7.290271100000609,None,space,0.3704797000000326,None,,,,,,,,,0,4,4,4,1641.4968353999993,,,,,,,,,,,,,1641.4813636999997,1641.4968353999993,1641.4968353999993,1641.4968353999993,1648.7905775999998,,,,1648.8017762999998,1648.8122507999997,1648.8122507999997,1648.8559086999994,1648.8562649999994,1648.8723924999995,1648.8723924999995,1648.8723924999995,1648.9556065999996,1649.2566412999995,,,,,,,,,,,,,,,,,,,,,,up,7.290271100000609,None,space,0.3704797000000326,None,P106,001,2025-02-13_11h09.30.810,posner_endo_new1,2024.2.4,60.02364931786706,2025-02-13 11h09.37.888904 +0000,
cube_r.png,0.1,-0.31,invalid,5,5,0,up,15.922908000000461,None,space,0.2878909000000931,None,,,,,,,,,0,5,5,5,1649.2719902999997,,,,,,,,,,,,,1649.2569473999993,1649.2719902999997,1649.2719902999997,1649.2719902999997,1665.2069010999994,,,,1665.2174108,1665.2270724,1665.2270724,1665.2723976999996,1665.2726466999993,1665.2890097,1665.2890097,1665.2890097,1665.3721266999992,1665.5895576999992,,,,,,,,,,,,,,,,,,,,,,up,15.922908000000461,None,space,0.2878909000000931,None,P106,001,2025-02-13_11h09.30.810,posner_endo_new1,2024.2.4,60.02364931786706,2025-02-13 11h09.37.888904 +0000,
cube_r.png,0.1,0.31,valid,6,6,0,up,19.894794199999524,None,space,0.305176400000164,None,,,,,,,,,0,6,6,6,1665.6051230999992,,,,,,,,,,,,,1665.5897584999993,1665.6051230999992,1665.6051230999992,1665.6051230999992,1685.5025569,,,,1685.5095002999997,1685.521025,1685.521025,1685.5681449999993,1685.5685986999997,1685.5845878999999,1685.5845878999999,1685.5845878999999,1685.6678693999993,1685.9025907999994,,,,,,,,,,,,,,,,,,,,,,up,19.894794199999524,None,space,0.305176400000164,None,P106,001,2025-02-13_11h09.30.810,posner_endo_new1,2024.2.4,60.02364931786706,2025-02-13 11h09.37.888904 +0000,
cube_r.png,0.1,-0.31,invalid,7,7,0,up,10.325961700000335,None,space,0.3892842000004748,None,,,,,,,,,0,7,7,7,1685.9175958999995,,,,,,,,,,,,,1685.9029769999997,1685.9175958999995,1685.9175958999995,1685.9175958999995,1696.2581060999992,,,,1696.2640868999997,1696.2756675,1696.2756675,1696.324095,1696.3243333,1696.3404679999994,1696.3404679999994,1696.3404679999994,1696.4072649999998,1696.7407956999996,,,,,,,,,,,,,,,,,,,,,,up,10.325961700000335,None,space,0.3892842000004748,None,P106,001,2025-02-13_11h09.30.810,posner_endo_new1,2024.2.4,60.02364931786706,2025-02-13 11h09.37.888904 +0000,
cube_l.png,0.1,-0.31,valid,8,8,0,up,12.93413529999998,None,space,0.30900349999956234,None,,,,,,,,,0,8,8,8,1696.7569334,,,,,,,,,,,,,1696.7409803,1696.7569334,1696.7569334,1696.7569334,1709.694536,,,,1709.7007790999996,1709.7123280999995,1709.7123280999995,1709.7603939,1709.7606293,1709.7768121,1709.7768121,1709.7768121,1709.8601375999997,1710.0940333999997,,,,,,,,,,,,,,,,,,,,,,up,12.93413529999998,None,space,0.30900349999956234,None,P106,001,2025-02-13_11h09.30.810,posner_endo_new1,2024.2.4,60.02364931786706,2025-02-13 11h09.37.888904 +0000,
cube_r.png,0.1,-0.31,invalid,9,9,0,up,21.7016808999997,None,space,0.3982454000006328,None,,,,,,,,,0,9,9,9,1710.1099104999994,,,,,,,,,,,,,1710.0942190999995,1710.1099104999994,1710.1099104999994,1710.1099104999994,1731.8218271999995,,,,1731.8281326999995,1731.8397308999993,1731.8397308999993,1731.8876786,1731.8879156999992,1731.904243,1731.904243,1731.904243,1731.9874203999998,1732.3047238999998,,,,,,,,,,,,,,,,,,,,,,up,21.7016808999997,None,space,0.3982454000006328,None,P106,001,2025-02-13_11h09.30.810,posner_endo_new1,2024.2.4,60.02364931786706,2025-02-13 11h09.37.888904 +0000,
cube_l.png,0.1,0.31,invalid,10,10,0,up,18.786928100000296,None,space,0.44353210000008403,None,,,,,,,,,0,10,10,10,1732.3204484999997,,,,,,,,,,,,,1732.304908,1732.3204484999997,1732.3204484999997,1732.3204484999997,1751.1187043999998,,,,1751.1249578999996,1751.1365787999994,1751.1365787999994,1751.1847504999996,1751.1849875999997,1751.2012646999992,1751.2012646999992,1751.2012646999992,1751.2678723,1751.6515219999992,,,,,,,,,,,,,,,,,,,,,,up,18.786928100000296,None,space,0.44353210000008403,None,P106,001,2025-02-13_11h09.30.810,posner_endo_new1,2024.2.4,60.02364931786706,2025-02-13 11h09.37.888904 +0000,
cube_r.png,0.1,-0.31,invalid,11,11,0,up,3.216815100000531,None,space,1.4009605000001102,None,,,,,,,,,0,11,11,11,1751.6673547,,,,,,,,,,,,,1751.6517078999996,1751.6673547,1751.6673547,1751.6673547,1754.898303,,,,1754.9044999999996,1754.9161076,1754.9161076,1754.9641153999992,1754.9643542999993,1754.9806795999993,1754.9806795999993,1754.9806795999993,1755.0471946999996,1756.3966296999997,,,,,,,,,,,,,,,,,,,,,,up,3.216815100000531,None,space,1.4009605000001102,None,P106,001,2025-02-13_11h09.30.810,posner_endo_new1,2024.2.4,60.02364931786706,2025-02-13 11h09.37.888904 +0000,
cube_r.png,0.1,0.31,valid,12,12,0,up,9.423392200000308,None,space,0.33250150000003487,None,,,,,,,,,0,12,12,12,1756.4126516999995,,,,,,,,,,,,,1756.3968133999997,1756.4126516999995,1756.4126516999995,1756.4126516999995,1765.8371177,,,,1765.8434032999994,1765.8550519,1765.8550519,1765.9028642999992,1765.9031003,1765.9195856999995,1765.9195856999995,1765.9195856999995,1766.0027787,1766.2531491,,,,,,,,,,,,,,,,,,,,,,up,9.423392200000308,None,space,0.33250150000003487,None,P106,001,2025-02-13_11h09.30.810,posner_endo_new1,2024.2.4,60.02364931786706,2025-02-13 11h09.37.888904 +0000,
cube_l.png,0.1,10,catch,13,13,0,up,18.678789000000506,None,space,0.3205064999992828,None,,,,,,,,,0,13,13,13,1766.2691314999993,,,,,,,,,,,,,1766.2533328,1766.2691314999993,1766.2691314999993,1766.2691314999993,1784.9511242999997,,,,1784.9573271,1784.9689356999997,1784.9689356999997,1785.0167698999994,1785.0170081999995,1785.0332155999995,1785.0332155999995,1785.0332155999995,1785.1166183999994,1785.3671425999992,,,,,,,,,,,,,,,,,,,,,,up,18.678789000000506,None,space,0.3205064999992828,None,P106,001,2025-02-13_11h09.30.810,posner_endo_new1,2024.2.4,60.02364931786706,2025-02-13 11h09.37.888904 +0000,
cube_r.png,0.1,-0.31,invalid,14,14,0,up,9.756913700000041,None,space,0.37424250000003667,None,,,,,,,,,0,14,14,14,1785.3830094999994,,,,,,,,,,,,,1785.3673328999994,1785.3830094999994,1785.3830094999994,1785.3830094999994,1795.1407265999997,,,,1795.1467868999998,1795.1585011999996,1795.1585011999996,1795.2063923999995,1795.2066277999993,1795.2229380999997,1795.2229380999997,1795.2229380999997,1795.2895409999992,1795.6067668999995,,,,,,,,,,,,,,,,,,,,,,up,9.756913700000041,None,space,0.37424250000003667,None,P106,001,2025-02-13_11h09.30.810,posner_endo_new1,2024.2.4,60.02364931786706,2025-02-13 11h09.37.888904 +0000,
cube_l.png,0.1,-0.31,valid,15,15,0,up,4.357393999999658,None,space,0.7080200999998851,None,,,,,,,,,0,15,15,15,1795.6225066999996,,,,,,,,,,,,,1795.6069505999994,1795.6225066999996,1795.6225066999996,1795.6225066999996,1799.9856333999996,,,,1799.9916500999998,1800.0030932999998,1800.0030932999998,1800.0511841999996,1800.0516309999994,1800.0680071999996,1800.0680071999996,1800.0680071999996,1800.1512684,1800.7850165,,,,,,,,,,,,,,,,,,,,,,up,4.357393999999658,None,space,0.7080200999998851,None,P106,001,2025-02-13_11h09.30.810,posner_endo_new1,2024.2.4,60.02364931786706,2025-02-13 11h09.37.888904 +0000,
cube_r.png,0.1,10,catch,16,16,0,up,37.3557952000001,None,None,,,,,,,,,,,0,16,16,16,1800.8005641999998,,,,,,,,,,,,,1800.7852752999997,1800.8005641999998,1800.8005641999998,1800.8005641999998,1838.1634091999995,,,,1838.1730547999996,1838.1833418999995,1838.1833418999995,1838.2291663999995,1838.2294862999997,1838.2457453999996,1838.2457453999996,1838.2457453999996,1838.3289055999994,1841.2432908,,,,1840.3434459,1841.2592202999995,1841.2592202999995,1841.2592202999995,,,,,,,,,,,,,,,up,37.3557952000001,None,None,,,P106,001,2025-02-13_11h09.30.810,posner_endo_new1,2024.2.4,60.02364931786706,2025-02-13 11h09.37.888904 +0000,
cube_r.png,0.1,10,catch,17,17,0,up,6.208748899999591,None,None,,,,,,,,,,,0,17,17,17,1841.2592202999995,,,,,,,,,,,,,1841.2435425999993,1841.2592202999995,1841.2592202999995,1841.2592202999995,1847.4707085,,,,1847.4803932999994,1847.4905678999994,1847.4905678999994,1847.5363683999994,1847.5366804999994,1847.5527660999996,1847.5527660999996,1847.5527660999996,1847.636109,1850.5503377999994,,,,1849.6506246999998,1850.5663822999995,1850.5663822999995,1850.5663822999995,,,,,,,,,,,,,,,up,6.208748899999591,None,None,,,P106,001,2025-02-13_11h09.30.810,posner_endo_new1,2024.2.4,60.02364931786706,2025-02-13 11h09.37.888904 +0000,
cube_l.png,0.1,0.31,invalid,18,18,0,up,4.988869099999647,None,space,0.6565409000004365,None,,,,,,,,,0,18,18,18,1850.5663822999995,,,,,,,,,,,,,1850.5505819,1850.5663822999995,1850.5663822999995,1850.5663822999995,1855.5624057999994,,,,1855.5719405999998,1855.5821855999993,1855.5821855999993,1855.6280086999996,1855.6283274999996,1855.6445375999992,1855.6445375999992,1855.6445375999992,1855.7278217999992,1856.3116358999996,,,,,,,,,,,,,,,,,,,,,,up,4.988869099999647,None,space,0.6565409000004365,None,P106,001,2025-02-13_11h09.30.810,posner_endo_new1,2024.2.4,60.02364931786706,2025-02-13 11h09.37.888904 +0000,
cube_l.png,0.1,10,catch,19,19,0,up,8.292499500000304,None,None,,,,,,,,,,,0,19,19,19,1856.3270964999992,,,,,,,,,,,,,1856.3118975999996,1856.3270964999992,1856.3270964999992,1856.3270964999992,1864.6365100999992,,,,1864.6460878999997,1864.6561345,1864.6561345,1864.7021003999998,1864.7024142999999,1864.7185725,1864.7185725,1864.7185725,1864.8018536999998,1867.7161792999996,,,,1866.8164867999994,1867.7321032999998,1867.7321032999998,1867.7321032999998,,,,,,,,,,,,,,,up,8.292499500000304,None,None,,,P106,001,2025-02-13_11h09.30.810,posner_endo_new1,2024.2.4,60.02364931786706,2025-02-13 11h09.37.888904 +0000,
cube_l.png,0.1,0.31,invalid,20,20,0,up,7.28805149999971,None,space,0.47371859999930166,None,,,,,,,,,0,20,20,20,1867.7321032999998,,,,,,,,,,,,,1867.7164266999998,1867.7321032999998,1867.7321032999998,1867.7321032999998,1875.0260849999995,,,,1875.0354929999994,1875.0453402999992,1875.0453402999992,1875.0914039999998,1875.0916416999999,1875.1079150999994,1875.1079150999994,1875.1079150999994,1875.1909728,1875.5915089,,,,,,,,,,,,,,,,,,,,,,up,7.28805149999971,None,space,0.47371859999930166,None,P106,001,2025-02-13_11h09.30.810,posner_endo_new1,2024.2.4,60.02364931786706,2025-02-13 11h09.37.888904 +0000,
cube_l.png,0.1,-0.31,valid,21,21,0,up,9.700364799999988,None,space,0.4089851999997336,None,,,,,,,,,0,21,21,21,1875.6073643999998,,,,,,,,,,,,,1875.5917098,1875.6073643999998,1875.6073643999998,1875.6073643999998,1885.3148933999992,,,,1885.3209407999993,1885.3324223,1885.3324223,1885.3807635999992,1885.3809985999997,1885.3974801999993,1885.3974801999993,1885.3974801999993,1885.4639713999995,1885.8144728999996,,,,,,,,,,,,,,,,,,,,,,up,9.700364799999988,None,space,0.4089851999997336,None,P106,001,2025-02-13_11h09.30.810,posner_endo_new1,2024.2.4,60.02364931786706,2025-02-13 11h09.37.888904 +0000,
cube_r.png,0.1,0.31,valid,22,22,0,up,9.573892100000194,None,space,0.3782783999995445,None,,,,,,,,,0,22,22,22,1885.8304898999995,,,,,,,,,,,,,1885.8146652999994,1885.8304898999995,1885.8304898999995,1885.8304898999995,1895.4212619,,,,1895.4273280999996,1895.4387305,1895.4387305,1895.4869747999992,1895.4872128999996,1895.5037343999993,1895.5037343999993,1895.5037343999993,1895.5703553999992,1895.8875894999992,,,,,,,,,,,,,,,,,,,,,,up,9.573892100000194,None,space,0.3782783999995445,None,P106,001,2025-02-13_11h09.30.810,posner_endo_new1,2024.2.4,60.02364931786706,2025-02-13 11h09.37.888904 +0000,
cube_r.png,0.1,-0.31,invalid,23,23,0,up,5.996550299999399,None,space,0.37749390000044514,None,,,,,,,,,0,23,23,23,1895.903421,,,,,,,,,,,,,1895.8877742999994,1895.903421,1895.903421,1895.903421,1901.9147286999996,,,,1901.9207825999993,1901.9324379,1901.9324379,1901.9803881999997,1901.9808330999995,1901.9968120999993,1901.9968120999993,1901.9968120999993,1902.0638741999992,1902.3811308999993,,,,,,,,,,,,,,,,,,,,,,up,5.996550299999399,None,space,0.37749390000044514,None,P106,001,2025-02-13_11h09.30.810,posner_endo_new1,2024.2.4,60.02364931786706,2025-02-13 11h09.37.888904 +0000,
cube_r.png,0.1,0.31,valid,24,24,0,up,7.895421299999725,None,space,0.3844835999998395,None,,,,,,,,,0,24,24,24,1902.3967365999997,,,,,,,,,,,,,1902.3813866,1902.3967365999997,1902.3967365999997,1902.3967365999997,1910.3064017999995,,,,1910.3151877,1910.3255083999993,1910.3255083999993,1910.3720202999993,1910.3723205999995,1910.3886617999997,1910.3886617999997,1910.3886617999997,1910.4718334999998,1910.7892218999996,,,,,,,,,,,,,,,,,,,,,,up,7.895421299999725,None,space,0.3844835999998395,None,P106,001,2025-02-13_11h09.30.810,posner_endo_new1,2024.2.4,60.02364931786706,2025-02-13 11h09.37.888904 +0000,
cube_r.png,0.1,-0.31,invalid,25,25,0,up,7.655096299999968,None,space,0.3621545000005426,None,,,,,,,,,0,25,25,25,1910.8048088999994,,,,,,,,,,,,,1910.7894671999993,1910.8048088999994,1910.8048088999994,1910.8048088999994,1918.4647829999994,,,,1918.4734621999996,1918.4839222,1918.4839222,1918.5304956999998,1918.5307985,1918.5469315999999,1918.5469315999999,1918.5469315999999,1918.6302410999997,1918.9143965999992,,,,,,,,,,,,,,,,,,,,,,up,7.655096299999968,None,space,0.3621545000005426,None,P106,001,2025-02-13_11h09.30.810,posner_endo_new1,2024.2.4,60.02364931786706,2025-02-13 11h09.37.888904 +0000,
cube_l.png,0.1,-0.31,valid,26,26,0,up,8.874182499999733,None,space,0.3784078999997291,None,,,,,,,,,0,26,26,26,1918.9298302999996,,,,,,,,,,,,,1918.9146449,1918.9298302999996,1918.9298302999996,1918.9298302999996,1927.8052899999993,,,,1927.8140682999992,1927.8243772999995,1927.8243772999995,1927.8708993999999,1927.8712028,1927.8874606,1927.8874606,1927.8874606,1927.9706105999994,1928.2713998999998,,,,,,,,,,,,,,,,,,,,,,up,8.874182499999733,None,space,0.3784078999997291,None,P106,001,2025-02-13_11h09.30.810,posner_endo_new1,2024.2.4,60.02364931786706,2025-02-13 11h09.37.888904 +0000,
cube_r.png,0.1,0.31,valid,27,27,0,up,6.028650600000219,None,space,0.37930969999979425,None,,,,,,,,,0,27,27,27,1928.2869083999994,,,,,,,,,,,,,1928.2716506999996,1928.2869083999994,1928.2869083999994,1928.2869083999994,1934.3318751999996,,,,1934.3405785999994,1934.3505593999998,1934.3505593999998,1934.3975455999998,1934.3978466999997,1934.4140284999994,1934.4140284999994,1934.4140284999994,1934.4972871,1934.7981438999996,,,,,,,,,,,,,,,,,,,,,,up,6.028650600000219,None,space,0.37930969999979425,None,P106,001,2025-02-13_11h09.30.810,posner_endo_new1,2024.2.4,60.02364931786706,2025-02-13 11h09.37.888904 +0000,
cube_r.png,0.1,10,catch,28,28,0,up,7.374012699999184,None,None,,,,,,,,,,,0,28,28,28,1934.8137161999994,,,,,,,,,,,,,1934.7983941999992,1934.8137161999994,1934.8137161999994,1934.8137161999994,1942.1905735999999,,,,1942.199294,1942.2095848,1942.2095848,1942.2561219,1942.2564192999998,1942.2726395999998,1942.2726395999998,1942.2726395999998,1942.3558725999992,1945.2701883,,,,1944.3705382999997,1945.2862176999997,1945.2862176999997,1945.2862176999997,,,,,,,,,,,,,,,up,7.374012699999184,None,None,,,P106,001,2025-02-13_11h09.30.810,posner_endo_new1,2024.2.4,60.02364931786706,2025-02-13 11h09.37.888904 +0000,
cube_r.png,0.1,0.31,valid,29,29,0,up,5.373320599999715,None,space,0.3340139000001727,None,,,,,,,,,0,29,29,29,1945.2862176999997,,,,,,,,,,,,,1945.2704172999993,1945.2862176999997,1945.2862176999997,1945.2862176999997,1950.6653720999993,,,,1950.6741714999998,1950.6844256999993,1950.6844256999993,1950.7308948999998,1950.7311977999998,1950.7474002,1950.7474002,1950.7474002,1950.8306447999994,1951.0980495999993,,,,,,,,,,,,,,,,,,,,,,up,5.373320599999715,None,space,0.3340139000001727,None,P106,001,2025-02-13_11h09.30.810,posner_endo_new1,2024.2.4,60.02364931786706,2025-02-13 11h09.37.888904 +0000,
cube_r.png,0.1,0.31,valid,30,30,0,up,8.082726499999808,None,space,0.4409766999997373,None,,,,,,,,,0,30,30,30,1951.1137214,,,,,,,,,,,,,1951.0983029,1951.1137214,1951.1137214,1951.1137214,1959.2063585999995,,,,1959.2148527999998,1959.2250071999997,1959.2250071999997,1959.2720475999995,1959.2722833999997,1959.2886751999995,1959.2886751999995,1959.2886751999995,1959.3718008999995,1959.7388475999996,,,,,,,,,,,,,,,,,,,,,,up,8.082726499999808,None,space,0.4409766999997373,None,P106,001,2025-02-13_11h09.30.810,posner_endo_new1,2024.2.4,60.02364931786706,2025-02-13 11h09.37.888904 +0000,
cube_l.png,0.1,-0.31,valid,31,31,0,up,7.37733339999977,None,space,0.30055219999940164,None,,,,,,,,,0,31,31,31,1959.7548314999995,,,,,,,,,,,,,1959.7390294999996,1959.7548314999995,1959.7548314999995,1959.7548314999995,1967.1481046,,,,1967.1541613,1967.1660906999996,1967.1660906999996,1967.2139410999998,1967.2141757999998,1967.2304629999999,1967.2304629999999,1967.2304629999999,1967.3137317,1967.5478651999993,,,,,,,,,,,,,,,,,,,,,,up,7.37733339999977,None,space,0.30055219999940164,None,P106,001,2025-02-13_11h09.30.810,posner_endo_new1,2024.2.4,60.02364931786706,2025-02-13 11h09.37.888904 +0000,
cube_r.png,0.1,0.31,valid,32,32,0,up,9.656061399999999,None,space,0.38545979999980773,None,,,,,,,,,0,32,32,32,1967.5635103999994,,,,,,,,,,,,,1967.5480515,1967.5635103999994,1967.5635103999994,1967.5635103999994,1977.2212986999994,,,,1977.2273381999994,1977.2388484999992,1977.2388484999992,1977.2870043999992,1977.2872426999993,1977.3034872999997,1977.3034872999997,1977.3034872999997,1977.3866492999996,1977.7041240999997,,,,,,,,,,,,,,,,,,,,,,up,9.656061399999999,None,space,0.38545979999980773,None,P106,001,2025-02-13_11h09.30.810,posner_endo_new1,2024.2.4,60.02364931786706,2025-02-13 11h09.37.888904 +0000,
cube_r.png,0.1,-0.31,invalid,33,33,0,up,11.860378599999422,None,space,0.35354020000067976,None,,,,,,,,,0,33,33,33,1977.7196799999992,,,,,,,,,,,,,1977.7043189999995,1977.7196799999992,1977.7196799999992,1977.7196799999992,1989.5918087999999,,,,1989.5979368999997,1989.6095220999996,1989.6095220999996,1989.6576293999997,1989.6578676,1989.6742086999993,1989.6742086999993,1989.6742086999993,1989.7410235999996,1990.0415076999998,,,,,,,,,,,,,,,,,,,,,,up,11.860378599999422,None,space,0.35354020000067976,None,P106,001,2025-02-13_11h09.30.810,posner_endo_new1,2024.2.4,60.02364931786706,2025-02-13 11h09.37.888904 +0000,
cube_r.png,0.1,10,catch,34,34,0,up,22.2105947,None,space,0.3235725000004095,None,,,,,,,,,0,34,34,34,1990.0571108999993,,,,,,,,,,,,,1990.0416891999994,1990.0571108999993,1990.0571108999993,1990.0571108999993,2012.2691717999996,,,,2012.2790194999998,2012.2890309999993,2012.2890309999993,2012.3345262999992,2012.3348518999992,2012.3511567999994,2012.3511567999994,2012.3511567999994,2012.4342764999992,2012.6852659999995,,,,,,,,,,,,,,,,,,,,,,up,22.2105947,None,space,0.3235725000004095,None,P106,001,2025-02-13_11h09.30.810,posner_endo_new1,2024.2.4,60.02364931786706,2025-02-13 11h09.37.888904 +0000,
cube_r.png,0.1,0.31,valid,35,35,0,up,11.823524299999917,None,space,0.35319669999989856,None,,,,,,,,,0,35,35,35,2012.7007218999997,,,,,,,,,,,,,2012.6855250999997,2012.7007218999997,2012.7007218999997,2012.7007218999997,2024.5396883999992,,,,2024.5493110999996,2024.5597217999994,2024.5597217999994,2024.6053072999994,2024.6056312,2024.6218512999994,2024.6218512999994,2024.6218512999994,2024.7051102999994,2024.9891669999997,,,,,,,,,,,,,,,,,,,,,,up,11.823524299999917,None,space,0.35319669999989856,None,P106,001,2025-02-13_11h09.30.810,posner_endo_new1,2024.2.4,60.02364931786706,2025-02-13 11h09.37.888904 +0000,
cube_r.png,0.1,-0.31,invalid,36,36,0,up,8.455439100000149,None,space,0.3080516999998508,None,,,,,,,,,0,36,36,36,2025.0047325999994,,,,,,,,,,,,,2024.9894408,2025.0047325999994,2025.0047325999994,2025.0047325999994,2033.4641445999996,,,,2033.4737067999995,2033.4841987999998,2033.4841987999998,2033.5295862999992,2033.5299009999999,2033.5459665999997,2033.5459665999997,2033.5459665999997,2033.6294629999993,2033.8635083999998,,,,,,,,,,,,,,,,,,,,,,up,8.455439100000149,None,space,0.3080516999998508,None,P106,001,2025-02-13_11h09.30.810,posner_endo_new1,2024.2.4,60.02364931786706,2025-02-13 11h09.37.888904 +0000,
cube_l.png,0.1,0.31,invalid,37,37,0,up,11.982043399999384,None,space,0.32082010000067385,None,,,,,,,,,0,37,37,37,2033.8790455999997,,,,,,,,,,,,,2033.8637804999998,2033.8790455999997,2033.8790455999997,2033.8790455999997,2045.8679884999992,,,,2045.8776445999993,2045.8883843999993,2045.8883843999993,2045.9335965999999,2045.9339125999995,2045.9499948999992,2045.9499948999992,2045.9499948999992,2046.0333332999999,2046.2843073999993,,,,,,,,,,,,,,,,,,,,,,up,11.982043399999384,None,space,0.32082010000067385,None,P106,001,2025-02-13_11h09.30.810,posner_endo_new1,2024.2.4,60.02364931786706,2025-02-13 11h09.37.888904 +0000,
cube_l.png,0.1,0.31,invalid,38,38,0,up,8.096728900000016,None,space,0.3960910000005242,None,,,,,,,,,0,38,38,38,2046.2996030999993,,,,,,,,,,,,,2046.2845715999993,2046.2996030999993,2046.2996030999993,2046.2996030999993,2054.408905699999,,,,2054.4152206999997,2054.4268628,2054.4268628,2054.4749035999994,2054.475144,2054.491379599999,2054.491379599999,2054.491379599999,2054.5578926999997,2054.891626899999,,,,,,,,,,,,,,,,,,,,,,up,8.096728900000016,None,space,0.3960910000005242,None,P106,001,2025-02-13_11h09.30.810,posner_endo_new1,2024.2.4,60.02364931786706,2025-02-13 11h09.37.888904 +0000,
cube_r.png,0.1,0.31,valid,39,39,0,up,21.056418199999825,None,space,0.40057440000055067,None,,,,,,,,,0,39,39,39,2054.9075761999993,,,,,,,,,,,,,2054.8918160999992,2054.9075761999993,2054.9075761999993,2054.9075761999993,2075.9701397,,,,2075.9763091999994,2075.987824399999,2075.987824399999,2076.0360498,2076.0362879999993,2076.052668099999,2076.052668099999,2076.052668099999,2076.119394099999,2076.4696577999994,,,,,,,,,,,,,,,,,,,,,,up,21.056418199999825,None,space,0.40057440000055067,None,P106,001,2025-02-13_11h09.30.810,posner_endo_new1,2024.2.4,60.02364931786706,2025-02-13 11h09.37.888904 +0000,
cube_l.png,0.1,0.31,invalid,40,40,0,up,7.111078400000224,None,space,0.4434317999994164,None,,,,,,,,,0,40,40,40,2076.4855392,,,,,,,,,,,,,2076.4698437999996,2076.4855392,2076.4855392,2076.4855392,2083.6123994,,,,2083.6184421,2083.6300803999993,2083.6300803999993,2083.6783652999993,2083.6786021999997,2083.6947833999993,2083.6947833999993,2083.6947833999993,2083.7780292999996,2084.1450471999997,,,,,,,,,,,,,,,,,,,,,,up,7.111078400000224,None,space,0.4434317999994164,None,P106,001,2025-02-13_11h09.30.810,posner_endo_new1,2024.2.4,60.02364931786706,2025-02-13 11h09.37.888904 +0000,
cube_l.png,0.1,10,catch,41,41,0,up,12.15522299999975,None,None,,,,,,,,,,,0,41,41,41,2084.160992599999,,,,,,,,,,,,,2084.1452345999996,2084.160992599999,2084.160992599999,2084.160992599999,2096.3327347999993,,,,2096.338858599999,2096.3502438999994,2096.3502438999994,2096.3985702,2096.3988061,2096.4152085999995,2096.4152085999995,2096.4152085999995,2096.4818133,2099.4125022999997,,,,2098.4962915999995,2099.4287907,2099.4287907,2099.4287907,,,,,,,,,,,,,,,up,12.15522299999975,None,None,,,P106,001,2025-02-13_11h09.30.810,posner_endo_new1,2024.2.4,60.02364931786706,2025-02-13 11h09.37.888904 +0000,
cube_l.png,0.1,-0.31,valid,42,42,0,up,5.087436199999502,None,space,0.7075028999997812,None,,,,,,,,,0,42,42,42,2099.4287907,,,,,,,,,,,,,2099.4126809,2099.4287907,2099.4287907,2099.4287907,2104.5241649,,,,2104.5304122,2104.5419746,2104.5419746,2104.5902434,2104.5904763999997,2104.6068393999994,2104.6068393999994,2104.6068393999994,2104.6734663999996,2105.323675899999,,,,,,,,,,,,,,,,,,,,,,up,5.087436199999502,None,space,0.7075028999997812,None,P106,001,2025-02-13_11h09.30.810,posner_endo_new1,2024.2.4,60.02364931786706,2025-02-13 11h09.37.888904 +0000,
cube_l.png,0.1,10,catch,43,43,0,up,16.288844400000016,None,space,0.40097900000000664,None,,,,,,,,,0,43,43,43,2105.3394554999995,,,,,,,,,,,,,2105.3238582999993,2105.3394554999995,2105.3394554999995,2105.3394554999995,2121.6401349999996,,,,2121.6463126,2121.6579984,2121.6579984,2121.7060636999995,2121.706298599999,2121.7226575999994,2121.7226575999994,2121.7226575999994,2121.8059199,2122.1396895,,,,,,,,,,,,,,,,,,,,,,up,16.288844400000016,None,space,0.40097900000000664,None,P106,001,2025-02-13_11h09.30.810,posner_endo_new1,2024.2.4,60.02364931786706,2025-02-13 11h09.37.888904 +0000,
cube_l.png,0.1,0.31,invalid,44,44,0,up,7.249095999999554,None,space,0.35721749999993335,None,,,,,,,,,0,44,44,44,2122.1555456999995,,,,,,,,,,,,,2122.1398753999993,2122.1555456999995,2122.1555456999995,2122.1555456999995,2129.4155542999997,,,,2129.4216737999996,2129.4332783,2129.4332783,2129.4814571999996,2129.4816972,2129.4980302999993,2129.4980302999993,2129.4980302999993,2129.5645835999994,2129.8651715999995,,,,,,,,,,,,,,,,,,,,,,up,7.249095999999554,None,space,0.35721749999993335,None,P106,001,2025-02-13_11h09.30.810,posner_endo_new1,2024.2.4,60.02364931786706,2025-02-13 11h09.37.888904 +0000,
cube_l.png,0.1,0.31,invalid,45,45,0,up,6.243263000000297,None,space,0.3216638999992938,None,,,,,,,,,0,45,45,45,2129.8809764,,,,,,,,,,,,,2129.8653639999993,2129.8809764,2129.8809764,2129.8809764,2136.1254510999997,,,,2136.1315103999996,2136.143057099999,2136.143057099999,2136.1913164999996,2136.1915495999992,2136.2079834999995,2136.2079834999995,2136.2079834999995,2136.2744127999995,2136.5415581999996,,,,,,,,,,,,,,,,,,,,,,up,6.243263000000297,None,space,0.3216638999992938,None,P106,001,2025-02-13_11h09.30.810,posner_endo_new1,2024.2.4,60.02364931786706,2025-02-13 11h09.37.888904 +0000,
cube_r.png,0.1,0.31,valid,46,46,0,up,10.126800799999728,None,space,0.4293244999998933,None,,,,,,,,,0,46,46,46,2136.5574294999997,,,,,,,,,,,,,2136.5417422,2136.5574294999997,2136.5574294999997,2136.5574294999997,2146.6978707,,,,2146.7040719999995,2146.7156307999994,2146.7156307999994,2146.763608699999,2146.764050399999,2146.7800414999992,2146.7800414999992,2146.7800414999992,2146.8469097999996,2147.2144488999993,,,,,,,,,,,,,,,,,,,,,,up,10.126800799999728,None,space,0.4293244999998933,None,P106,001,2025-02-13_11h09.30.810,posner_endo_new1,2024.2.4,60.02364931786706,2025-02-13 11h09.37.888904 +0000,
cube_l.png,0.1,-0.31,valid,47,47,0,up,7.062326600000233,None,space,0.28482480000002397,None,,,,,,,,,0,47,47,47,2147.2299250999995,,,,,,,,,,,,,2147.2147166999994,2147.2299250999995,2147.2299250999995,2147.2299250999995,2154.307090699999,,,,2154.3166244999993,2154.3268565999997,2154.3268565999997,2154.3727925999992,2154.373121899999,2154.3892535999994,2154.3892535999994,2154.3892535999994,2154.4725541999996,2154.6900767999996,,,,,,,,,,,,,,,,,,,,,,up,7.062326600000233,None,space,0.28482480000002397,None,P106,001,2025-02-13_11h09.30.810,posner_endo_new1,2024.2.4,60.02364931786706,2025-02-13 11h09.37.888904 +0000,
cube_r.png,0.1,-0.31,invalid,48,48,0,up,5.561979100000826,None,space,0.4000935000003665,None,,,,,,,,,0,48,48,48,2154.7056576999994,,,,,,,,,,,,,2154.6903538999995,2154.7056576999994,2154.7056576999994,2154.7056576999994,2160.2842726999997,,,,2160.293771299999,2160.3036659,2160.3036659,2160.3500385999996,2160.3503559,2160.3665364999997,2160.3665364999997,2160.3665364999997,2160.4498680999995,2160.7838963999993,,,,,,,,,,,,,,,,,,,,,,up,5.561979100000826,None,space,0.4000935000003665,None,P106,001,2025-02-13_11h09.30.810,posner_endo_new1,2024.2.4,60.02364931786706,2025-02-13 11h09.37.888904 +0000,
cube_r.png,0.1,10,catch,49,49,0,up,4.636443200000031,None,None,,,,,,,,,,,0,49,49,49,2160.7995174,,,,,,,,,,,,,2160.7841590999997,2160.7995174,2160.7995174,2160.7995174,2165.4458200999998,,,,2165.4552693999995,2165.4656007999993,2165.4656007999993,2165.5113862999997,2165.5117021999995,2165.5279038,2165.5279038,2165.5279038,2165.6111846999993,2168.5255675999997,,,,2167.6257808,2168.5415195999994,2168.5415195999994,2168.5415195999994,,,,,,,,,,,,,,,up,4.636443200000031,None,None,,,P106,001,2025-02-13_11h09.30.810,posner_endo_new1,2024.2.4,60.02364931786706,2025-02-13 11h09.37.888904 +0000,
cube_l.png,0.1,-0.31,valid,50,50,0,up,4.374986999999237,None,space,0.3896275999995851,None,,,,,,,,,0,50,50,50,2168.5415195999994,,,,,,,,,,,,,2168.5258151999997,2168.5415195999994,2168.5415195999994,2168.5415195999994,2172.9214592999997,,,,2172.9310029999997,2172.9412377,2172.9412377,2172.9869632,2172.9872793999994,2173.0036526999993,2173.0036526999993,2173.0036526999993,2173.0867695999996,2173.4041793999995,,,,,,,,,,,,,,,,,,,,,,up,4.374986999999237,None,space,0.3896275999995851,None,P106,001,2025-02-13_11h09.30.810,posner_endo_new1,2024.2.4,60.02364931786706,2025-02-13 11h09.37.888904 +0000,
cube_l.png,0.1,-0.31,valid,51,51,0,up,8.376669299999776,None,space,0.308916599999975,None,,,,,,,,,0,51,51,51,2173.4198331999996,,,,,,,,,,,,,2173.4044547999993,2173.4198331999996,2173.4198331999996,2173.4198331999996,2181.8123800999992,,,,2181.8219344,2181.8321190999995,2181.8321190999995,2181.8779709,2181.8782979999996,2181.8944689,2181.8944689,2181.8944689,2181.9777306999995,2182.2118603,,,,,,,,,,,,,,,,,,,,,,up,8.376669299999776,None,space,0.308916599999975,None,P106,001,2025-02-13_11h09.30.810,posner_endo_new1,2024.2.4,60.02364931786706,2025-02-13 11h09.37.888904 +0000,
cube_r.png,0.1,-0.31,invalid,52,52,0,up,5.976723700000548,None,space,0.5952643999999054,None,,,,,,,,,0,52,52,52,2182.2276551999994,,,,,,,,,,,,,2182.2121235999994,2182.2276551999994,2182.2276551999994,2182.2276551999994,2188.2059383999995,,,,2188.2156947999993,2188.2259196999994,2188.2259196999994,2188.2715713999996,2188.2718824999993,2188.2879196999993,2188.2879196999993,2188.2879196999993,2188.3713193999993,2188.8885206999994,,,,,,,,,,,,,,,,,,,,,,up,5.976723700000548,None,space,0.5952643999999054,None,P106,001,2025-02-13_11h09.30.810,posner_endo_new1,2024.2.4,60.02364931786706,2025-02-13 11h09.37.888904 +0000,
cube_l.png,0.1,-0.31,valid,53,53,0,up,13.156150300000263,None,space,0.4438622999996369,None,,,,,,,,,0,53,53,53,2188.904071,,,,,,,,,,,,,2188.8887847999995,2188.904071,2188.904071,2188.904071,2202.0749720999993,,,,2202.0845842,2202.0947962,2202.0947962,2202.1406272999993,2202.1409672,2202.157136,2202.157136,2202.157136,2202.2403963999996,2202.6079405,,,,,,,,,,,,,,,,,,,,,,up,13.156150300000263,None,space,0.4438622999996369,None,P106,001,2025-02-13_11h09.30.810,posner_endo_new1,2024.2.4,60.02364931786706,2025-02-13 11h09.37.888904 +0000,
cube_r.png,0.1,10,catch,54,54,0,up,4.989291900000353,None,None,,,,,,,,,,,0,54,54,54,2202.6233293999994,,,,,,,,,,,,,2202.6082100999993,2202.6233293999994,2202.6233293999994,2202.6233293999994,2207.6192093,,,,2207.6286653999996,2207.6389646,2207.6389646,2207.6850507999998,2207.6853664,2207.7014714999996,2207.7014714999996,2207.7014714999996,2207.7847529,2210.699104699999,,,,2209.7993958999996,2210.7150665,2210.7150665,2210.7150665,,,,,,,,,,,,,,,up,4.989291900000353,None,None,,,P106,001,2025-02-13_11h09.30.810,posner_endo_new1,2024.2.4,60.02364931786706,2025-02-13 11h09.37.888904 +0000,
cube_l.png,0.1,0.31,invalid,55,55,0,up,2.1858056000000943,None,space,0.45268190000024333,None,,,,,,,,,0,55,55,55,2210.7150665,,,,,,,,,,,,,2210.6993512999998,2210.7150665,2210.7150665,2210.7150665,2212.913933,,,,2212.9234919,2212.9337575,2212.9337575,2212.9797442999998,2212.9800572999993,2212.9960723999993,2212.9960723999993,2212.9960723999993,2213.0792541,2213.463302599999,,,,,,,,,,,,,,,,,,,,,,up,2.1858056000000943,None,space,0.45268190000024333,None,P106,001,2025-02-13_11h09.30.810,posner_endo_new1,2024.2.4,60.02364931786706,2025-02-13 11h09.37.888904 +0000,
cube_l.png,0.1,-0.31,valid,56,56,0,up,9.621556199999759,None,space,0.3336607000001095,None,,,,,,,,,0,56,56,56,2213.4789124,,,,,,,,,,,,,2213.4635708999995,2213.4789124,2213.4789124,2213.4789124,2223.1035603,,,,2223.1130808,2223.123413099999,2223.123413099999,2223.169134399999,2223.1694528999997,2223.1855921999995,2223.1855921999995,2223.1855921999995,2223.2689020999997,2223.5362810999995,,,,,,,,,,,,,,,,,,,,,,up,9.621556199999759,None,space,0.3336607000001095,None,P106,001,2025-02-13_11h09.30.810,posner_endo_new1,2024.2.4,60.02364931786706,2025-02-13 11h09.37.888904 +0000,
cube_r.png,0.1,0.31,valid,57,57,0,up,4.060969999999543,None,space,0.5730285999998159,None,,,,,,,,,0,57,57,57,2223.5519365,,,,,,,,,,,,,2223.5365438999997,2223.5519365,2223.5519365,2223.5519365,2227.6157421999997,,,,2227.6255097999992,2227.6357820999992,2227.6357820999992,2227.6812909,2227.6816055,2227.6977914,2227.6977914,2227.6977914,2227.781098199999,2228.2814595,,,,,,,,,,,,,,,,,,,,,,up,4.060969999999543,None,space,0.5730285999998159,None,P106,001,2025-02-13_11h09.30.810,posner_endo_new1,2024.2.4,60.02364931786706,2025-02-13 11h09.37.888904 +0000,
cube_r.png,0.1,-0.31,invalid,58,58,0,up,7.9395237999997335,None,space,0.3842998999998599,None,,,,,,,,,0,58,58,58,2228.2971302999995,,,,,,,,,,,,,2228.2817238,2228.2971302999995,2228.2971302999995,2228.2971302999995,2236.2402107999997,,,,2236.2497463,2236.2599393,2236.2599393,2236.3057463999994,2236.3060643999997,2236.3222456999993,2236.3222456999993,2236.3222456999993,2236.4054385,2236.7230077999993,,,,,,,,,,,,,,,,,,,,,,up,7.9395237999997335,None,space,0.3842998999998599,None,P106,001,2025-02-13_11h09.30.810,posner_endo_new1,2024.2.4,60.02364931786706,2025-02-13 11h09.37.888904 +0000,
cube_l.png,0.1,0.31,invalid,59,59,0,up,6.673896699999204,None,space,0.5019118000000162,None,,,,,,,,,0,59,59,59,2236.7385448999994,,,,,,,,,,,,,2236.7232713999992,2236.7385448999994,2236.7385448999994,2236.7385448999994,2243.4161927999994,,,,2243.4259094999998,2243.4360781999994,2243.4360781999994,2243.4821303,2243.4824516999997,2243.4983005999993,2243.4983005999993,2243.4983005999993,2243.5816073999995,2244.0156356999996,,,,,,,,,,,,,,,,,,,,,,up,6.673896699999204,None,space,0.5019118000000162,None,P106,001,2025-02-13_11h09.30.810,posner_endo_new1,2024.2.4,60.02364931786706,2025-02-13 11h09.37.888904 +0000,
