cue_img,cue_soa,target_x,trial,thisN,thisTrialN,thisRepN,key_control2.keys,key_control2.rt,key_control2.duration,key_resp.keys,key_resp.rt,key_resp.duration,practice.thisRepN,practice.thisTrialN,practice.thisN,practice.thisIndex,block1.thisRepN,block1.thisTrialN,block1.thisN,block1.thisIndex,block2.thisRepN,block2.thisTrialN,block2.thisN,block2.thisIndex,thisRow.t,notes,instructions.started,instructions_txt.started,key_control.started,instructions.stopped,key_control.keys,key_control.rt,key_control.duration,ready.started,ready_txt.started,ready_txt.stopped,ready.stopped,fix.started,fixation.started,key_control2.started,fixation_cross.started,fix.stopped,practice.key_control2.keys,practice.key_control2.rt,practice.key_control2.duration,cue.started,cube.started,fixation_cross_cue.started,cue.stopped,target.started,fixation_target.started,fixation_cross_target.started,key_resp.started,star.started,target.stopped,practice.key_resp.keys,practice.key_resp.rt,practice.key_resp.duration,star.stopped,fixation_target.stopped,fixation_cross_target.stopped,key_resp.stopped,block1.key_control2.keys,block1.key_control2.rt,block1.key_control2.duration,block1.key_resp.keys,block1.key_resp.rt,block1.key_resp.duration,break_2.started,text.started,key_control3.started,text.stopped,break_2.stopped,key_control3.keys,key_control3.rt,key_control3.duration,block2.key_control2.keys,block2.key_control2.rt,block2.key_control2.duration,block2.key_resp.keys,block2.key_resp.rt,block2.key_resp.duration,participant,session,date,expName,psychopyVersion,frameRate,expStart,
,,,,,,,,,,,,,,,,,,,,,,,,,,,0.0075617999991663964,0.019507999999405,0.019507999999405,311.40526280000086,up,311.3818096999985,None,,,,,,,,,,,,,,,,,,,,,,,,,,,,,,,,,,,,,,,,,,,,,,,,,,P107,001,2025-02-13_12h38.22.497,posner_endo_new1,2024.2.4,60.02173987442377,2025-02-13 12h38.43.081737 +0000,
,,,,,,,,,,,,,,,,,,,,,,,,,,,,,,,,,,311.40531179999925,311.41813209999964,314.41858160000083,314.3989137000008,,,,,,,,,,,,,,,,,,,,,,,,,,,,,,,,,,,,,,,,,,,,,,P107,001,2025-02-13_12h38.22.497,posner_endo_new1,2024.2.4,60.02173987442377,2025-02-13 12h38.43.081737 +0000,
cube_l.png,0.1,-0.31,valid,0,0,0,up,4.838465099999667,None,space,0.16310109999903943,None,0,0,0,0,,,,,,,,,314.41858160000083,,,,,,,,,,,,,314.4062950999996,314.41858160000083,314.41858160000083,314.41858160000083,319.2611935999994,up,4.838465099999667,None,319.2756090999992,319.28654649999953,319.28654649999953,319.32698159999927,319.32720770000014,319.34343609999996,319.34343609999996,319.34343609999996,319.42660869999963,319.5110648000009,space,0.16310109999903943,None,,,,,,,,,,,,,,,,,,,,,,,,,P107,001,2025-02-13_12h38.22.497,posner_endo_new1,2024.2.4,60.02173987442377,2025-02-13 12h38.43.081737 +0000,
cube_l.png,0.1,0.31,invalid,1,1,0,up,5.778589800000191,None,space,0.45434819999900355,None,0,1,1,1,,,,,,,,,319.5265746999994,,,,,,,,,,,,,319.5113072000004,319.5265746999994,319.5265746999994,319.5265746999994,325.32168359999923,up,5.778589800000191,None,325.33158750000075,325.3414690999998,325.3414690999998,325.3873258000003,325.38762549999956,325.40386279999984,325.40386279999984,325.40386279999984,325.48709679999956,325.87105279999923,space,0.45434819999900355,None,,,,,,,,,,,,,,,,,,,,,,,,,P107,001,2025-02-13_12h38.22.497,posner_endo_new1,2024.2.4,60.02173987442377,2025-02-13 12h38.43.081737 +0000,
cube_r.png,0.1,-0.31,invalid,2,2,0,up,6.330098599999474,None,space,0.3653603999991901,None,0,2,2,2,,,,,,,,,325.8867317999993,,,,,,,,,,,,,325.8712983000005,325.8867317999993,325.8867317999993,325.8867317999993,332.23131850000027,up,6.330098599999474,None,332.2406283,332.2508078999999,332.2508078999999,332.29687190000004,332.2971722000002,332.3134449999998,332.3134449999998,332.3134449999998,332.39667240000017,332.6807817000008,space,0.3653603999991901,None,,,,,,,,,,,,,,,,,,,,,,,,,P107,001,2025-02-13_12h38.22.497,posner_endo_new1,2024.2.4,60.02173987442377,2025-02-13 12h38.43.081737 +0000,
cube_r.png,0.1,10,catch,3,3,0,up,6.3763639999997395,None,None,,,0,3,3,3,,,,,,,,,332.6963986999999,,,,,,,,,,,,,332.6810251000006,332.6963986999999,332.6963986999999,332.6963986999999,339.0744732000003,up,6.3763639999997395,None,339.08383669999967,339.0940179999998,339.0940179999998,339.1400620000004,339.1403614999999,339.1564897999997,339.1564897999997,339.1564897999997,339.2396427999993,342.1541548999994,None,,,341.25433619999967,342.1699036000009,342.1699036000009,342.1699036000009,,,,,,,,,,,,,,,,,,,,,P107,001,2025-02-13_12h38.22.497,posner_endo_new1,2024.2.4,60.02173987442377,2025-02-13 12h38.43.081737 +0000,
cube_l.png,0.1,-0.31,valid,4,4,0,up,3.824019900001076,None,space,0.2610122999994928,None,0,4,4,4,,,,,,,,,342.1699036000009,,,,,,,,,,,,,342.1543865000003,342.1699036000009,342.1699036000009,342.1699036000009,346.0006998000008,up,3.824019900001076,None,346.01014249999935,346.02050039999995,346.02050039999995,346.0662155000009,346.06653990000086,346.0827448,346.0827448,346.0827448,346.1660376,346.35024089999933,space,0.2610122999994928,None,,,,,,,,,,,,,,,,,,,,,,,,,P107,001,2025-02-13_12h38.22.497,posner_endo_new1,2024.2.4,60.02173987442377,2025-02-13 12h38.43.081737 +0000,
cube_l.png,0.1,0.31,invalid,5,5,0,up,8.307390400001168,None,space,0.39787969999997586,None,0,5,5,5,,,,,,,,,346.3657973999998,,,,,,,,,,,,,346.35048760000063,346.3657973999998,346.3657973999998,346.3657973999998,354.6751155000002,up,8.307390400001168,None,354.68428219999987,354.69366230000014,354.69366230000014,354.74075240000093,354.7409754,354.75718249999954,354.75718249999954,354.75718249999954,354.8405180999998,355.15760430000046,space,0.39787969999997586,None,,,,,,,,,,,,,,,,,,,,,,,,,P107,001,2025-02-13_12h38.22.497,posner_endo_new1,2024.2.4,60.02173987442377,2025-02-13 12h38.43.081737 +0000,
cube_r.png,0.1,-0.31,invalid,6,6,0,up,11.22776359999989,None,space,0.2966882999990048,None,0,6,6,6,,,,,,,,,355.1735719999997,,,,,,,,,,,,,355.15776630000073,355.1735719999997,355.1735719999997,355.1735719999997,366.4128705999992,up,11.22776359999989,None,366.4192000999992,366.4308512000007,366.4308512000007,366.47859939999944,366.4791005999996,366.49506570000085,366.49506570000085,366.49506570000085,366.5783181000006,366.7965038000002,space,0.2966882999990048,None,,,,,,,,,,,,,,,,,,,,,,,,,P107,001,2025-02-13_12h38.22.497,posner_endo_new1,2024.2.4,60.02173987442377,2025-02-13 12h38.43.081737 +0000,
cube_r.png,0.1,0.31,valid,7,7,0,up,5.0623161000003165,None,space,0.31943150000006426,None,0,7,7,7,,,,,,,,,366.81140400000004,,,,,,,,,,,,,366.79692670000077,366.81140400000004,366.81140400000004,366.81140400000004,371.89117140000053,up,5.0623161000003165,None,371.90760000000046,371.9182134999992,371.9182134999992,371.9564336000003,371.9569272000008,371.9727874,371.9727874,371.9727874,372.0560910999993,372.30772439999964,space,0.31943150000006426,None,,,,,,,,,,,,,,,,,,,,,,,,,P107,001,2025-02-13_12h38.22.497,posner_endo_new1,2024.2.4,60.02173987442377,2025-02-13 12h38.43.081737 +0000,
cube_l.png,0.1,-0.31,valid,8,8,0,up,4.9987917999987985,None,space,0.27482340000096883,None,0,8,8,8,,,,,,,,,372.3224838999995,,,,,,,,,,,,,372.3081388999999,372.3224838999995,372.3224838999995,372.3224838999995,377.33555669999987,up,4.9987917999987985,None,377.34682299999986,377.3571953999999,377.3571953999999,377.4008346999999,377.40119349999986,377.4173315000007,377.4173315000007,377.4173315000007,377.50069090000034,377.7018277999996,space,0.27482340000096883,None,,,,,,,,,,,,,,,,,,,,,,,,,P107,001,2025-02-13_12h38.22.497,posner_endo_new1,2024.2.4,60.02173987442377,2025-02-13 12h38.43.081737 +0000,
cube_r.png,0.1,-0.31,invalid,9,9,0,up,9.675287899999603,None,space,0.6135924999998679,None,0,9,9,9,,,,,,,,,377.71720730000015,,,,,,,,,,,,,377.70211870000094,377.71720730000015,377.71720730000015,377.71720730000015,387.4080563000007,up,9.675287899999603,None,387.4153323999999,387.4266583000008,387.4266583000008,387.4738646000005,387.47412299999996,387.49046799999996,387.49046799999996,387.49046799999996,387.5736558000008,388.1072851000008,space,0.6135924999998679,None,,,,,,,,,,,,,,,,,,,,,,,,,P107,001,2025-02-13_12h38.22.497,posner_endo_new1,2024.2.4,60.02173987442377,2025-02-13 12h38.43.081737 +0000,
cube_r.png,0.1,0.31,valid,10,10,0,up,5.317380000000412,None,space,0.24261480000131996,None,0,10,10,10,,,,,,,,,388.12319019999995,,,,,,,,,,,,,388.1074848999997,388.12319019999995,388.12319019999995,388.12319019999995,393.4518439000003,up,5.317380000000412,None,393.4590728999992,393.47085589999915,393.47085589999915,393.51761409999926,393.51787350000086,393.5341152000001,393.5341152000001,393.5341152000001,393.6009902000005,393.7848264999993,space,0.24261480000131996,None,,,,,,,,,,,,,,,,,,,,,,,,,P107,001,2025-02-13_12h38.22.497,posner_endo_new1,2024.2.4,60.02173987442377,2025-02-13 12h38.43.081737 +0000,
,,,,,,,,,,,,,,,,,,,,,,,,,,,,,,,,,,393.7849578999994,393.8005266,396.80751109999983,396.7813566999994,,,,,,,,,,,,,,,,,,,,,,,,,,,,,,,,,,,,,,,,,,,,,,P107,001,2025-02-13_12h38.22.497,posner_endo_new1,2024.2.4,60.02173987442377,2025-02-13 12h38.43.081737 +0000,
cube_l.png,0.1,10,catch,0,0,0,up,6.336978999999701,None,space,0.30619710000064515,None,,,,,0,0,0,0,,,,,396.80751109999983,,,,,,,,,,,,,396.79872520000026,396.80751109999983,396.80751109999983,396.80751109999983,403.1587141,,,,403.16589209999984,403.1774337000006,403.1774337000006,403.2245616,403.2248115000002,403.2409946000007,403.2409946000007,403.2409946000007,403.3242783000005,403.5582133000007,,,,,,,,up,6.336978999999701,None,space,0.30619710000064515,None,,,,,,,,,,,,,,,P107,001,2025-02-13_12h38.22.497,posner_endo_new1,2024.2.4,60.02173987442377,2025-02-13 12h38.43.081737 +0000,
cube_l.png,0.1,10,catch,1,1,0,up,4.066651699999056,None,None,,,,,,,0,1,1,1,,,,,403.57397219999984,,,,,,,,,,,,,403.5584080999997,403.57397219999984,403.57397219999984,403.57397219999984,407.65405830000054,,,,407.6610861999998,407.67286969999986,407.67286969999986,407.71983030000047,407.7200752000008,407.7364166999996,407.7364166999996,407.7364166999996,407.8029736999997,410.73402329999954,,,,409.81732290000036,410.7500196000001,410.7500196000001,410.7500196000001,up,4.066651699999056,None,None,,,,,,,,,,,,,,,,,P107,001,2025-02-13_12h38.22.497,posner_endo_new1,2024.2.4,60.02173987442377,2025-02-13 12h38.43.081737 +0000,
cube_l.png,0.1,0.31,invalid,2,2,0,up,6.531136499999775,None,space,0.4133184000002075,None,,,,,0,2,2,2,,,,,410.7500196000001,,,,,,,,,,,,,410.7342157000003,410.7500196000001,410.7500196000001,410.7500196000001,417.29421510000066,,,,417.30155600000035,417.3245643999999,417.3245643999999,417.3597750000008,417.36003039999923,417.37648640000043,417.37648640000043,417.37648640000043,417.4598074000005,417.7937187999996,,,,,,,,up,6.531136499999775,None,space,0.4133184000002075,None,,,,,,,,,,,,,,,P107,001,2025-02-13_12h38.22.497,posner_endo_new1,2024.2.4,60.02173987442377,2025-02-13 12h38.43.081737 +0000,
cube_l.png,0.1,0.31,invalid,3,3,0,up,17.334939599999416,None,space,0.3374364000010246,None,,,,,0,3,3,3,,,,,417.8096409000009,,,,,,,,,,,,,417.7939251000007,417.8096409000009,417.8096409000009,417.8096409000009,435.15922820000014,,,,435.1663031999997,435.1780615000007,435.1780615000007,435.2252329999992,435.2254764999998,435.24171340000066,435.24171340000066,435.24171340000066,435.30826890000026,435.5923992000007,,,,,,,,up,17.334939599999416,None,space,0.3374364000010246,None,,,,,,,,,,,,,,,P107,001,2025-02-13_12h38.22.497,posner_endo_new1,2024.2.4,60.02173987442377,2025-02-13 12h38.43.081737 +0000,
cube_l.png,0.1,-0.31,valid,4,4,0,up,8.185226800000237,None,space,0.4034934000010253,None,,,,,0,4,4,4,,,,,435.60803940000005,,,,,,,,,,,,,435.5926025000008,435.60803940000005,435.60803940000005,435.60803940000005,443.8003540999998,,,,443.80737989999943,443.81913449999956,443.81913449999956,443.86617359999946,443.8664162999994,443.88275989999966,443.88275989999966,443.88275989999966,443.9492795999995,444.2999655000003,,,,,,,,up,8.185226800000237,None,space,0.4034934000010253,None,,,,,,,,,,,,,,,P107,001,2025-02-13_12h38.22.497,posner_endo_new1,2024.2.4,60.02173987442377,2025-02-13 12h38.43.081737 +0000,
cube_r.png,0.1,-0.31,invalid,5,5,0,up,9.901122200000827,None,space,0.32659609999973327,None,,,,,0,5,5,5,,,,,444.3156761000009,,,,,,,,,,,,,444.3001626000005,444.3156761000009,444.3156761000009,444.3156761000009,454.2229685000002,,,,454.23009830000046,454.24161079999976,454.24161079999976,454.28928760000053,454.2895284999995,454.30537790000017,454.30537790000017,454.30537790000017,454.37211240000033,454.63935010000023,,,,,,,,up,9.901122200000827,None,space,0.32659609999973327,None,,,,,,,,,,,,,,,P107,001,2025-02-13_12h38.22.497,posner_endo_new1,2024.2.4,60.02173987442377,2025-02-13 12h38.43.081737 +0000,
cube_r.png,0.1,0.31,valid,6,6,0,up,15.641492499999003,None,space,0.4938185999999405,None,,,,,0,6,6,6,,,,,454.6553146999995,,,,,,,,,,,,,454.63954580000063,454.6553146999995,454.6553146999995,454.6553146999995,470.30675279999923,,,,470.3138302999996,470.3254287,470.3254287,470.3726867000005,470.37293019999925,470.38905709999926,470.38905709999926,470.38905709999926,470.47217439999986,470.88959050000085,,,,,,,,up,15.641492499999003,None,space,0.4938185999999405,None,,,,,,,,,,,,,,,P107,001,2025-02-13_12h38.22.497,posner_endo_new1,2024.2.4,60.02173987442377,2025-02-13 12h38.43.081737 +0000,
cube_r.png,0.1,-0.31,invalid,7,7,0,up,3.6242060999993555,None,space,0.455468899999687,None,,,,,0,7,7,7,,,,,470.90502620000007,,,,,,,,,,,,,470.8897930000003,470.90502620000007,470.90502620000007,470.90502620000007,474.53588619999937,,,,474.54282179999973,474.5545628,474.5545628,474.60150409999915,474.60199509999984,474.61792290000085,474.61792290000085,474.61792290000085,474.7011588999994,475.08598390000043,,,,,,,,up,3.6242060999993555,None,space,0.455468899999687,None,,,,,,,,,,,,,,,P107,001,2025-02-13_12h38.22.497,posner_endo_new1,2024.2.4,60.02173987442377,2025-02-13 12h38.43.081737 +0000,
cube_l.png,0.1,-0.31,valid,8,8,0,up,5.004500499999267,None,space,0.3613138999990042,None,,,,,0,8,8,8,,,,,475.10074990000066,,,,,,,,,,,,,475.0864227000002,475.10074990000066,475.10074990000066,475.10074990000066,480.1137491999998,,,,480.12478829999964,480.13515349999943,480.13515349999943,480.1793388999995,480.1796799999993,480.1957892999999,480.1957892999999,480.1957892999999,480.2790688999994,480.56327919999967,,,,,,,,up,5.004500499999267,None,space,0.3613138999990042,None,,,,,,,,,,,,,,,P107,001,2025-02-13_12h38.22.497,posner_endo_new1,2024.2.4,60.02173987442377,2025-02-13 12h38.43.081737 +0000,
cube_r.png,0.1,-0.31,invalid,9,9,0,up,15.05459300000075,None,space,0.5106245999995735,None,,,,,0,9,9,9,,,,,480.57873870000003,,,,,,,,,,,,,480.56356570000025,480.57873870000003,480.57873870000003,480.57873870000003,495.6477623999999,,,,495.6565938999993,495.6664959000009,495.6664959000009,495.7135008999994,495.7137328000008,495.7297902999999,495.7297902999999,495.7297902999999,495.81304660000023,496.2469849000008,,,,,,,,up,15.05459300000075,None,space,0.5106245999995735,None,,,,,,,,,,,,,,,P107,001,2025-02-13_12h38.22.497,posner_endo_new1,2024.2.4,60.02173987442377,2025-02-13 12h38.43.081737 +0000,
cube_l.png,0.1,0.31,invalid,10,10,0,up,7.298735600001237,None,space,0.3143899999995483,None,,,,,0,10,10,10,,,,,496.2624727000002,,,,,,,,,,,,,496.2471741999998,496.2624727000002,496.2624727000002,496.2624727000002,503.5727747000001,,,,503.5794229999992,503.5916359999992,503.5916359999992,503.63847329999953,503.63898789999985,503.6549236999999,503.6549236999999,503.6549236999999,503.73814420000053,503.97316710000086,,,,,,,,up,7.298735600001237,None,space,0.3143899999995483,None,,,,,,,,,,,,,,,P107,001,2025-02-13_12h38.22.497,posner_endo_new1,2024.2.4,60.02173987442377,2025-02-13 12h38.43.081737 +0000,
cube_r.png,0.1,-0.31,invalid,11,11,0,up,12.293601900000795,None,space,0.2760324999999284,None,,,,,0,11,11,11,,,,,503.9878829999998,,,,,,,,,,,,,503.97360330000083,503.9878829999998,503.9878829999998,503.9878829999998,516.2933494000008,,,,516.3044401999996,516.3148065000005,516.3148065000005,516.3589742999993,516.3593115999993,516.3753338000006,516.3753338000006,516.3753338000006,516.4588031999992,516.6597413,,,,,,,,up,12.293601900000795,None,space,0.2760324999999284,None,,,,,,,,,,,,,,,P107,001,2025-02-13_12h38.22.497,posner_endo_new1,2024.2.4,60.02173987442377,2025-02-13 12h38.43.081737 +0000,
cube_r.png,0.1,0.31,valid,12,12,0,up,3.4543116000004375,None,space,0.4465970000001107,None,,,,,0,12,12,12,,,,,516.6752142999994,,,,,,,,,,,,,516.6600285000004,516.6752142999994,516.6752142999994,516.6752142999994,520.1395929000009,,,,520.1508205999999,520.1611001000001,520.1611001000001,520.2050550999993,520.2054122000009,520.2216449000007,520.2216449000007,520.2216449000007,520.3048285000004,520.6725062000005,,,,,,,,up,3.4543116000004375,None,space,0.4465970000001107,None,,,,,,,,,,,,,,,P107,001,2025-02-13_12h38.22.497,posner_endo_new1,2024.2.4,60.02173987442377,2025-02-13 12h38.43.081737 +0000,
cube_l.png,0.1,10,catch,13,13,0,up,8.553238799999235,None,None,,,,,,,0,13,13,13,,,,,520.6877616000002,,,,,,,,,,,,,520.6728158000005,520.6877616000002,520.6877616000002,520.6877616000002,529.2469328999996,,,,529.2569524999999,529.2667576000003,529.2667576000003,529.3123792999995,529.3126343000004,529.3289808000009,529.3289808000009,529.3289808000009,529.4120027999998,532.3264364000006,,,,531.4269089000009,532.3424797000007,532.3424797000007,532.3424797000007,up,8.553238799999235,None,None,,,,,,,,,,,,,,,,,P107,001,2025-02-13_12h38.22.497,posner_endo_new1,2024.2.4,60.02173987442377,2025-02-13 12h38.43.081737 +0000,
cube_r.png,0.1,-0.31,invalid,14,14,0,up,11.34632700000111,None,space,0.4076252000013483,None,,,,,0,14,14,14,,,,,532.3424797000007,,,,,,,,,,,,,532.3266089000008,532.3424797000007,532.3424797000007,532.3424797000007,543.6983115000003,,,,543.7050326999997,543.7168622000008,543.7168622000008,543.7641796000007,543.7644,543.7807530999999,543.7807530999999,543.7807530999999,543.8473092999993,544.1976396999999,,,,,,,,up,11.34632700000111,None,space,0.4076252000013483,None,,,,,,,,,,,,,,,P107,001,2025-02-13_12h38.22.497,posner_endo_new1,2024.2.4,60.02173987442377,2025-02-13 12h38.43.081737 +0000,
cube_l.png,0.1,-0.31,valid,15,15,0,up,71.25196190000133,None,space,0.9826166999991983,None,,,,,0,15,15,15,,,,,544.2136654000005,,,,,,,,,,,,,544.1978115000002,544.2136654000005,544.2136654000005,544.2136654000005,615.4749085999993,,,,615.4820693000001,615.4939427000008,615.4939427000008,615.5408697000003,615.541131,615.5575786999998,615.5575786999998,615.5575786999998,615.6240643000001,616.5573249999998,,,,,,,,up,71.25196190000133,None,space,0.9826166999991983,None,,,,,,,,,,,,,,,P107,001,2025-02-13_12h38.22.497,posner_endo_new1,2024.2.4,60.02173987442377,2025-02-13 12h38.43.081737 +0000,
cube_r.png,0.1,10,catch,16,16,0,up,9.204003900000316,None,None,,,,,,,0,16,16,16,,,,,616.5729848999999,,,,,,,,,,,,,616.5575262000002,616.5729848999999,616.5729848999999,616.5729848999999,625.7812138999998,,,,625.7883416000004,625.7998905000004,625.7998905000004,625.8469366999998,625.8474430000006,625.8634113000007,625.8634113000007,625.8634113000007,625.9466604000008,628.8614586000003,,,,627.9613164000002,628.8770662999996,628.8770662999996,628.8770662999996,up,9.204003900000316,None,None,,,,,,,,,,,,,,,,,P107,001,2025-02-13_12h38.22.497,posner_endo_new1,2024.2.4,60.02173987442377,2025-02-13 12h38.43.081737 +0000,
cube_r.png,0.1,10,catch,17,17,0,up,3.9083248999995703,None,None,,,,,,,0,17,17,17,,,,,628.8770662999996,,,,,,,,,,,,,628.8618783000002,628.8770662999996,628.8770662999996,628.8770662999996,632.7912665999993,,,,632.8025044000005,632.8128450000004,632.8128450000004,632.8564279999991,632.8566881999996,632.8730637000008,632.8730637000008,632.8730637000008,632.9562607999997,635.8704904000006,,,,634.9708862000007,635.8866349,635.8866349,635.8866349,up,3.9083248999995703,None,None,,,,,,,,,,,,,,,,,P107,001,2025-02-13_12h38.22.497,posner_endo_new1,2024.2.4,60.02173987442377,2025-02-13 12h38.43.081737 +0000,
cube_l.png,0.1,0.31,invalid,18,18,0,up,4.426970999998957,None,space,0.4817456000000675,None,,,,,0,18,18,18,,,,,635.8866349,,,,,,,,,,,,,635.8706808000006,635.8866349,635.8866349,635.8866349,640.3164737999996,,,,640.3237164999991,640.3351356000003,640.3351356000003,640.3822786000001,640.3825459,640.3986201999996,640.3986201999996,640.3986201999996,640.481925,640.8825471,,,,,,,,up,4.426970999998957,None,space,0.4817456000000675,None,,,,,,,,,,,,,,,P107,001,2025-02-13_12h38.22.497,posner_endo_new1,2024.2.4,60.02173987442377,2025-02-13 12h38.43.081737 +0000,
cube_l.png,0.1,10,catch,19,19,0,up,4.334838199998558,None,None,,,,,,,0,19,19,19,,,,,640.8980972000008,,,,,,,,,,,,,640.8827540000002,640.8980972000008,640.8980972000008,640.8980972000008,645.2446445999994,,,,645.2518813000006,645.2633418999994,645.2633418999994,645.3104495000007,645.3107067000001,645.3270439000007,645.3270439000007,645.3270439000007,645.4101891000009,648.3243686999995,,,,647.4249648999994,648.3406971999993,648.3406971999993,648.3406971999993,up,4.334838199998558,None,None,,,,,,,,,,,,,,,,,P107,001,2025-02-13_12h38.22.497,posner_endo_new1,2024.2.4,60.02173987442377,2025-02-13 12h38.43.081737 +0000,
cube_l.png,0.1,0.31,invalid,20,20,0,up,5.22118170000067,None,space,0.3505396999989898,None,,,,,0,20,20,20,,,,,648.3406971999993,,,,,,,,,,,,,648.3245640000005,648.3406971999993,648.3406971999993,648.3406971999993,653.5693922999999,,,,653.5766029999995,653.5882825000008,653.5882825000008,653.6352248999992,653.6354800999998,653.6518077000001,653.6518077000001,653.6518077000001,653.7185233,654.0190483999995,,,,,,,,up,5.22118170000067,None,space,0.3505396999989898,None,,,,,,,,,,,,,,,P107,001,2025-02-13_12h38.22.497,posner_endo_new1,2024.2.4,60.02173987442377,2025-02-13 12h38.43.081737 +0000,
cube_l.png,0.1,-0.31,valid,21,21,0,up,17.86226279999937,None,space,0.38967390000107116,None,,,,,0,21,21,21,,,,,654.0346970999999,,,,,,,,,,,,,654.0192557999999,654.0346970999999,654.0346970999999,654.0346970999999,671.9007072000004,,,,671.9079951999993,671.9195080999998,671.9195080999998,671.9666397000001,671.9669058,671.9829843000007,671.9829843000007,671.9829843000007,672.0662690000008,672.3834798999997,,,,,,,,up,17.86226279999937,None,space,0.38967390000107116,None,,,,,,,,,,,,,,,P107,001,2025-02-13_12h38.22.497,posner_endo_new1,2024.2.4,60.02173987442377,2025-02-13 12h38.43.081737 +0000,
cube_r.png,0.1,0.31,valid,22,22,0,up,7.250333900001351,None,space,0.3201324999990902,None,,,,,0,22,22,22,,,,,672.3992751999995,,,,,,,,,,,,,672.3837089999997,672.3992751999995,672.3992751999995,672.3992751999995,679.6593305999995,,,,679.6666189000007,679.6782769000001,679.6782769000001,679.7252325000009,679.7254871999994,679.7418682000007,679.7418682000007,679.7418682000007,679.8083174000003,680.0757028999997,,,,,,,,up,7.250333900001351,None,space,0.3201324999990902,None,,,,,,,,,,,,,,,P107,001,2025-02-13_12h38.22.497,posner_endo_new1,2024.2.4,60.02173987442377,2025-02-13 12h38.43.081737 +0000,
cube_r.png,0.1,-0.31,invalid,23,23,0,up,8.718009500000335,None,space,0.3661839000014879,None,,,,,0,23,23,23,,,,,680.0916070999992,,,,,,,,,,,,,680.0759120999992,680.0916070999992,680.0916070999992,680.0916070999992,688.8168562999999,,,,688.8240800000003,688.8471014000006,688.8471014000006,688.8826649999992,688.8829272000003,688.8991645000006,688.8991645000006,688.8991645000006,688.9823856000003,689.2664624999998,,,,,,,,up,8.718009500000335,None,space,0.3661839000014879,None,,,,,,,,,,,,,,,P107,001,2025-02-13_12h38.22.497,posner_endo_new1,2024.2.4,60.02173987442377,2025-02-13 12h38.43.081737 +0000,
cube_r.png,0.1,0.31,valid,24,24,0,up,6.392528800000946,None,space,0.4741174000009778,None,,,,,0,24,24,24,,,,,689.2820967999996,,,,,,,,,,,,,689.2666697999994,689.2820967999996,689.2820967999996,689.2820967999996,695.6763740999995,,,,695.6834292999993,695.6950680000009,695.6950680000009,695.7421302999992,695.7423756999997,695.7588582000008,695.7588582000008,695.7588582000008,695.8254846,696.2426876000009,,,,,,,,up,6.392528800000946,None,space,0.4741174000009778,None,,,,,,,,,,,,,,,P107,001,2025-02-13_12h38.22.497,posner_endo_new1,2024.2.4,60.02173987442377,2025-02-13 12h38.43.081737 +0000,
cube_r.png,0.1,-0.31,invalid,25,25,0,up,9.214645300000484,None,space,0.33739299999979266,None,,,,,0,25,25,25,,,,,696.2582566000001,,,,,,,,,,,,,696.2428827000003,696.2582566000001,696.2582566000001,696.2582566000001,705.4830753000006,,,,705.4903111000003,705.5018001000008,705.5018001000008,705.5490487999996,705.5493096000009,705.5653230999997,705.5653230999997,705.5653230999997,705.6486783,705.9159829,,,,,,,,up,9.214645300000484,None,space,0.33739299999979266,None,,,,,,,,,,,,,,,P107,001,2025-02-13_12h38.22.497,posner_endo_new1,2024.2.4,60.02173987442377,2025-02-13 12h38.43.081737 +0000,
cube_l.png,0.1,-0.31,valid,26,26,0,up,15.486246300000857,None,space,0.30431989999851794,None,,,,,0,26,26,26,,,,,705.9316543000004,,,,,,,,,,,,,705.9161894999997,705.9316543000004,705.9316543000004,705.9316543000004,721.4334323999992,,,,721.4406909000008,721.4523792,721.4523792,721.4991745000007,721.4994217000003,721.5160474999993,721.5160474999993,721.5160474999993,721.5993464999992,721.8329997000001,,,,,,,,up,15.486246300000857,None,space,0.30431989999851794,None,,,,,,,,,,,,,,,P107,001,2025-02-13_12h38.22.497,posner_endo_new1,2024.2.4,60.02173987442377,2025-02-13 12h38.43.081737 +0000,
cube_r.png,0.1,0.31,valid,27,27,0,up,23.76046369999858,None,space,0.43791830000009213,None,,,,,0,27,27,27,,,,,721.8487550000009,,,,,,,,,,,,,721.8331983999997,721.8487550000009,721.8487550000009,721.8487550000009,745.6254112000006,,,,745.6326427000004,745.6441596000004,745.6441596000004,745.6911524000006,745.6914058000002,745.7077995,745.7077995,745.7077995,745.774281,746.1581151999999,,,,,,,,up,23.76046369999858,None,space,0.43791830000009213,None,,,,,,,,,,,,,,,P107,001,2025-02-13_12h38.22.497,posner_endo_new1,2024.2.4,60.02173987442377,2025-02-13 12h38.43.081737 +0000,
cube_r.png,0.1,10,catch,28,28,0,up,6.2358936999989965,None,None,,,,,,,0,28,28,28,,,,,746.1738495999998,,,,,,,,,,,,,746.1583150000006,746.1738495999998,746.1738495999998,746.1738495999998,752.4183114999996,,,,752.4253996999996,752.4371563999994,752.4371563999994,752.4844312999994,752.4846753000002,752.5008603999995,752.5008603999995,752.5008603999995,752.5843122999995,755.4984554000002,,,,754.5985306999992,755.5144364000007,755.5144364000007,755.5144364000007,up,6.2358936999989965,None,None,,,,,,,,,,,,,,,,,P107,001,2025-02-13_12h38.22.497,posner_endo_new1,2024.2.4,60.02173987442377,2025-02-13 12h38.43.081737 +0000,
cube_r.png,0.1,0.31,valid,29,29,0,up,3.5753038999991986,None,space,0.4344588999992993,None,,,,,0,29,29,29,,,,,755.5144364000007,,,,,,,,,,,,,755.4986398000001,755.5144364000007,755.5144364000007,755.5144364000007,759.0949947999998,,,,759.1020143000005,759.1135596999993,759.1135596999993,759.1607820999998,759.1612714000003,759.1771678999994,759.1771678999994,759.1771678999994,759.2604341999995,759.6284379000008,,,,,,,,up,3.5753038999991986,None,space,0.4344588999992993,None,,,,,,,,,,,,,,,P107,001,2025-02-13_12h38.22.497,posner_endo_new1,2024.2.4,60.02173987442377,2025-02-13 12h38.43.081737 +0000,
cube_r.png,0.1,0.31,valid,30,30,0,up,8.52617040000041,None,space,0.451394400000936,None,,,,,0,30,30,30,,,,,759.6433777999991,,,,,,,,,,,,,759.6288791000006,759.6433777999991,759.6433777999991,759.6433777999991,768.1860596999995,,,,768.1970744999999,768.2070746999998,768.2070746999998,768.2516439999999,768.2519835000003,768.2680653000007,768.2680653000007,768.2680653000007,768.3513394000001,768.7354642999999,,,,,,,,up,8.52617040000041,None,space,0.451394400000936,None,,,,,,,,,,,,,,,P107,001,2025-02-13_12h38.22.497,posner_endo_new1,2024.2.4,60.02173987442377,2025-02-13 12h38.43.081737 +0000,
cube_l.png,0.1,-0.31,valid,31,31,0,up,11.323658100000102,None,space,0.47862420000092243,None,,,,,0,31,31,31,,,,,768.7508307999997,,,,,,,,,,,,,768.7357530000008,768.7508307999997,768.7508307999997,768.7508307999997,780.0906574,,,,780.1018292999997,780.1121390000008,780.1121390000008,780.1560475999995,780.1564032999995,780.1726214000009,780.1726214000009,780.1726214000009,780.2558840000002,780.6567572999993,,,,,,,,up,11.323658100000102,None,space,0.47862420000092243,None,,,,,,,,,,,,,,,P107,001,2025-02-13_12h38.22.497,posner_endo_new1,2024.2.4,60.02173987442377,2025-02-13 12h38.43.081737 +0000,
cube_r.png,0.1,0.31,valid,32,32,0,up,15.913492399999086,None,space,0.3300792000009096,None,,,,,0,32,32,32,,,,,780.6720318000007,,,,,,,,,,,,,780.6570537000007,780.6720318000007,780.6720318000007,780.6720318000007,796.5906066999996,,,,796.6017575999995,796.6121244000005,796.6121244000005,796.6559345000005,796.6562833000007,796.6722921,796.6722921,796.6722921,796.7554784000004,797.0068819000007,,,,,,,,up,15.913492399999086,None,space,0.3300792000009096,None,,,,,,,,,,,,,,,P107,001,2025-02-13_12h38.22.497,posner_endo_new1,2024.2.4,60.02173987442377,2025-02-13 12h38.43.081737 +0000,
cube_r.png,0.1,-0.31,invalid,33,33,0,up,10.627301200000147,None,space,0.3431994000002305,None,,,,,0,33,33,33,,,,,797.0220841000009,,,,,,,,,,,,,797.0071850999993,797.0220841000009,797.0220841000009,797.0220841000009,807.6623596000009,,,,807.6735446999992,807.6838664000006,807.6838664000006,807.7277876999997,807.7280525999995,807.7444194,807.7444194,807.7444194,807.8276772999998,808.0948888000003,,,,,,,,up,10.627301200000147,None,space,0.3431994000002305,None,,,,,,,,,,,,,,,P107,001,2025-02-13_12h38.22.497,posner_endo_new1,2024.2.4,60.02173987442377,2025-02-13 12h38.43.081737 +0000,
cube_r.png,0.1,10,catch,34,34,0,up,4.011548099999345,None,None,,,,,,,0,34,34,34,,,,,808.1105375000006,,,,,,,,,,,,,808.0950936000008,808.1105375000006,808.1105375000006,808.1105375000006,812.1241673999994,,,,812.1313301999999,812.1429752999993,812.1429752999993,812.1899649999996,812.1902097999991,812.206467,812.206467,812.206467,812.2900546000001,815.2039523000003,,,,814.3042351000004,815.2201358999991,815.2201358999991,815.2201358999991,up,4.011548099999345,None,None,,,,,,,,,,,,,,,,,P107,001,2025-02-13_12h38.22.497,posner_endo_new1,2024.2.4,60.02173987442377,2025-02-13 12h38.43.081737 +0000,
cube_r.png,0.1,0.31,valid,35,35,0,up,6.805740700001479,None,space,0.3760266999997839,None,,,,,0,35,35,35,,,,,815.2201358999991,,,,,,,,,,,,,815.2041551000002,815.2201358999991,815.2201358999991,815.2201358999991,822.0306786000001,,,,822.0376895999998,822.0493846999998,822.0493846999998,822.0964483000007,822.0966927999998,822.1130534000004,822.1130534000004,822.1130534000004,822.1963986999999,822.4968403999992,,,,,,,,up,6.805740700001479,None,space,0.3760266999997839,None,,,,,,,,,,,,,,,P107,001,2025-02-13_12h38.22.497,posner_endo_new1,2024.2.4,60.02173987442377,2025-02-13 12h38.43.081737 +0000,
cube_r.png,0.1,-0.31,invalid,36,36,0,up,7.233511300000828,None,space,0.4006260000005568,None,,,,,0,36,36,36,,,,,822.5126450000007,,,,,,,,,,,,,822.4970462000001,822.5126450000007,822.5126450000007,822.5126450000007,829.7559927999991,,,,829.7632797999995,829.7747835000009,829.7747835000009,829.8219547999997,829.8222108999998,829.8384566999994,829.8384566999994,829.8384566999994,829.9049642999998,830.2556385999997,,,,,,,,up,7.233511300000828,None,space,0.4006260000005568,None,,,,,,,,,,,,,,,P107,001,2025-02-13_12h38.22.497,posner_endo_new1,2024.2.4,60.02173987442377,2025-02-13 12h38.43.081737 +0000,
cube_l.png,0.1,0.31,invalid,37,37,0,up,5.242357600000105,None,space,0.3364096999994217,None,,,,,0,37,37,37,,,,,830.2713585000001,,,,,,,,,,,,,830.2558480999996,830.2713585000001,830.2713585000001,830.2713585000001,835.5169076999991,,,,835.5241564000007,835.5355029000002,835.5355029000002,835.5828268999994,835.5830850999992,835.5992929999993,835.5992929999993,835.5992929999993,835.6657682999994,835.9498070999998,,,,,,,,up,5.242357600000105,None,space,0.3364096999994217,None,,,,,,,,,,,,,,,P107,001,2025-02-13_12h38.22.497,posner_endo_new1,2024.2.4,60.02173987442377,2025-02-13 12h38.43.081737 +0000,
cube_l.png,0.1,0.31,invalid,38,38,0,up,4.236145299999407,None,space,0.43416380000053323,None,,,,,0,38,38,38,,,,,835.9654991999996,,,,,,,,,,,,,835.9500184000008,835.9654991999996,835.9654991999996,835.9654991999996,840.2120792000005,,,,840.2193358999994,840.2309435999996,840.2309435999996,840.2778964000008,840.2781531,840.2944774000007,840.2944774000007,840.2944774000007,840.3777467,840.7449235000004,,,,,,,,up,4.236145299999407,None,space,0.43416380000053323,None,,,,,,,,,,,,,,,P107,001,2025-02-13_12h38.22.497,posner_endo_new1,2024.2.4,60.02173987442377,2025-02-13 12h38.43.081737 +0000,
cube_r.png,0.1,0.31,valid,39,39,0,up,9.009517299999061,None,space,0.3373178999991069,None,,,,,0,39,39,39,,,,,840.7605774999993,,,,,,,,,,,,,840.7451304999995,840.7605774999993,840.7605774999993,840.7605774999993,849.7856530000008,,,,849.7929132999998,849.8043570000009,849.8043570000009,849.8514825999991,849.8517401999998,849.8679895000005,849.8679895000005,849.8679895000005,849.9511980999996,850.2184892000005,,,,,,,,up,9.009517299999061,None,space,0.3373178999991069,None,,,,,,,,,,,,,,,P107,001,2025-02-13_12h38.22.497,posner_endo_new1,2024.2.4,60.02173987442377,2025-02-13 12h38.43.081737 +0000,
cube_l.png,0.1,0.31,invalid,40,40,0,up,19.247381499999392,None,space,0.41535189999922295,None,,,,,0,40,40,40,,,,,850.2343192000008,,,,,,,,,,,,,850.2186966000008,850.2343192000008,850.2343192000008,850.2343192000008,869.484246,,,,869.5075459,869.5203497000002,869.5203497000002,869.5476352000005,869.5479372000009,869.5641047000008,869.5641047000008,869.5641047000008,869.6478227000007,869.9820115000002,,,,,,,,up,19.247381499999392,None,space,0.41535189999922295,None,,,,,,,,,,,,,,,P107,001,2025-02-13_12h38.22.497,posner_endo_new1,2024.2.4,60.02173987442377,2025-02-13 12h38.43.081737 +0000,
cube_l.png,0.1,10,catch,41,41,0,up,14.868096899999728,None,None,,,,,,,0,41,41,41,,,,,869.9973401999996,,,,,,,,,,,,,869.9822709,869.9973401999996,869.9973401999996,869.9973401999996,884.8687740999994,,,,884.8912579999997,884.9035371000009,884.9035371000009,884.9319677000003,884.9323609000003,884.9484917000009,884.9484917000009,884.9484917000009,885.0317207999997,887.946205100001,,,,887.0462996999995,887.9620362999995,887.9620362999995,887.9620362999995,up,14.868096899999728,None,None,,,,,,,,,,,,,,,,,P107,001,2025-02-13_12h38.22.497,posner_endo_new1,2024.2.4,60.02173987442377,2025-02-13 12h38.43.081737 +0000,
cube_l.png,0.1,-0.31,valid,42,42,0,up,0.16720189999978174,None,space,0.39733589999923424,None,,,,,0,42,42,42,,,,,887.9620362999995,,,,,,,,,,,,,887.9465299000003,887.9620362999995,887.9620362999995,887.9620362999995,888.1464345000004,,,,888.1589602999993,888.1687204000009,888.1687204000009,888.2121979000003,888.2124676000003,888.2289101000006,888.2289101000006,888.2289101000006,888.3121274000005,888.6293139999998,,,,,,,,up,0.16720189999978174,None,space,0.39733589999923424,None,,,,,,,,,,,,,,,P107,001,2025-02-13_12h38.22.497,posner_endo_new1,2024.2.4,60.02173987442377,2025-02-13 12h38.43.081737 +0000,
cube_l.png,0.1,10,catch,43,43,0,up,4.764791800000239,None,None,,,,,,,0,43,43,43,,,,,888.6450894999998,,,,,,,,,,,,,888.6295301000009,888.6450894999998,888.6450894999998,888.6450894999998,893.4245050000009,,,,893.4370192000006,893.4471525000008,893.4471525000008,893.4902906000007,893.4905627000007,893.5066277999995,893.5066277999995,893.5066277999995,893.5898357000005,896.5042522000003,,,,895.6045467999993,896.5203170999994,896.5203170999994,896.5203170999994,up,4.764791800000239,None,None,,,,,,,,,,,,,,,,,P107,001,2025-02-13_12h38.22.497,posner_endo_new1,2024.2.4,60.02173987442377,2025-02-13 12h38.43.081737 +0000,
cube_l.png,0.1,0.31,invalid,44,44,0,up,0.5056472000014764,None,space,0.3651296000007278,None,,,,,0,44,44,44,,,,,896.5203170999994,,,,,,,,,,,,,896.5044553999996,896.5203170999994,896.5203170999994,896.5203170999994,897.0372303000004,,,,897.0449425000006,897.0559967999998,897.0559967999998,897.1032469000002,897.1035195999993,897.1198660000009,897.1198660000009,897.1198660000009,897.1863986000008,897.4869331000009,,,,,,,,up,0.5056472000014764,None,space,0.3651296000007278,None,,,,,,,,,,,,,,,P107,001,2025-02-13_12h38.22.497,posner_endo_new1,2024.2.4,60.02173987442377,2025-02-13 12h38.43.081737 +0000,
cube_l.png,0.1,0.31,invalid,45,45,0,up,3.8508115999993606,None,space,0.34343839999928605,None,,,,,0,45,45,45,,,,,897.5026708000005,,,,,,,,,,,,,897.4871516999992,897.5026708000005,897.5026708000005,897.5026708000005,901.3663135999996,,,,901.3769709000007,901.3866598000004,901.3866598000004,901.4322677,901.4325124000006,901.4488409000005,901.4488409000005,901.4488409000005,901.5317381999994,901.7990972999996,,,,,,,,up,3.8508115999993606,None,space,0.34343839999928605,None,,,,,,,,,,,,,,,P107,001,2025-02-13_12h38.22.497,posner_endo_new1,2024.2.4,60.02173987442377,2025-02-13 12h38.43.081737 +0000,
cube_r.png,0.1,0.31,valid,46,46,0,up,3.499504800000068,None,space,0.3520215000007738,None,,,,,0,46,46,46,,,,,901.8148347000006,,,,,,,,,,,,,901.7992919999997,901.8148347000006,901.8148347000006,901.8148347000006,905.3289734000009,,,,905.3419694000004,905.3542557000001,905.3542557000001,905.3951563999999,905.3958210000001,905.4115192000008,905.4115192000008,905.4115192000008,905.4781287999995,905.7803635,,,,,,,,up,3.499504800000068,None,space,0.3520215000007738,None,,,,,,,,,,,,,,,P107,001,2025-02-13_12h38.22.497,posner_endo_new1,2024.2.4,60.02173987442377,2025-02-13 12h38.43.081737 +0000,
cube_l.png,0.1,-0.31,valid,47,47,0,up,3.7750859999996464,None,space,0.49853970000003756,None,,,,,0,47,47,47,,,,,905.7944910999995,,,,,,,,,,,,,905.7809582000009,905.7944910999995,905.7944910999995,905.7944910999995,909.5764958,,,,909.5965128999997,909.6070006000009,909.6070006000009,909.6401547999994,909.6405825000002,909.6565931999994,909.6565931999994,909.6565931999994,909.7402841999992,910.1574189000003,,,,,,,,up,3.7750859999996464,None,space,0.49853970000003756,None,,,,,,,,,,,,,,,P107,001,2025-02-13_12h38.22.497,posner_endo_new1,2024.2.4,60.02173987442377,2025-02-13 12h38.43.081737 +0000,
cube_r.png,0.1,-0.31,invalid,48,48,0,up,3.7247901000009733,None,space,0.4570029999995313,None,,,,,0,48,48,48,,,,,910.1730984999995,,,,,,,,,,,,,910.1576490000007,910.1730984999995,910.1730984999995,910.1730984999995,913.9037946000008,,,,913.9133466999992,913.9235509999999,913.9235509999999,913.9692711000007,913.9695732,913.9858717999996,913.9858717999996,913.9858717999996,914.0691440999999,914.4530883000007,,,,,,,,up,3.7247901000009733,None,space,0.4570029999995313,None,,,,,,,,,,,,,,,P107,001,2025-02-13_12h38.22.497,posner_endo_new1,2024.2.4,60.02173987442377,2025-02-13 12h38.43.081737 +0000,
cube_r.png,0.1,10,catch,49,49,0,up,3.237130800000159,None,None,,,,,,,0,49,49,49,,,,,914.4686703000007,,,,,,,,,,,,,914.4533346999997,914.4686703000007,914.4686703000007,914.4686703000007,917.7164123999992,,,,917.7255292999998,917.7352582000003,917.7352582000003,917.7820620000002,917.7822962000009,917.7986627000009,917.7986627000009,917.7986627000009,917.8819514999996,920.7962227000007,,,,919.8965564999999,920.8125206000004,920.8125206000004,920.8125206000004,up,3.237130800000159,None,None,,,,,,,,,,,,,,,,,P107,001,2025-02-13_12h38.22.497,posner_endo_new1,2024.2.4,60.02173987442377,2025-02-13 12h38.43.081737 +0000,
cube_l.png,0.1,-0.31,valid,50,50,0,up,0.5569219999997586,None,space,0.40690510000058566,None,,,,,0,50,50,50,,,,,920.8125206000004,,,,,,,,,,,,,920.7963925000004,920.8125206000004,920.8125206000004,920.8125206000004,921.3791333999998,,,,921.3888788000004,921.4004010999997,921.4004010999997,921.4451585999996,921.4457143,921.4615467000003,921.4615467000003,921.4615467000003,921.5447588000006,921.8797844000001,,,,,,,,up,0.5569219999997586,None,space,0.40690510000058566,None,,,,,,,,,,,,,,,P107,001,2025-02-13_12h38.22.497,posner_endo_new1,2024.2.4,60.02173987442377,2025-02-13 12h38.43.081737 +0000,
cube_l.png,0.1,-0.31,valid,51,51,0,up,2.6756372999989253,None,space,0.4813283000003139,None,,,,,0,51,51,51,,,,,921.8944410999993,,,,,,,,,,,,,921.8802637999997,921.8944410999993,921.8944410999993,921.8944410999993,924.5771026999992,,,,924.5946485999993,924.6049428000006,924.6049428000006,924.6418663000004,924.6422191000001,924.6584371999998,924.6584371999998,924.6584371999998,924.7415973999996,925.1433942999993,,,,,,,,up,2.6756372999989253,None,space,0.4813283000003139,None,,,,,,,,,,,,,,,P107,001,2025-02-13_12h38.22.497,posner_endo_new1,2024.2.4,60.02173987442377,2025-02-13 12h38.43.081737 +0000,
cube_r.png,0.1,-0.31,invalid,52,52,0,up,2.5482936999997037,None,space,0.5002397000007477,None,,,,,0,52,52,52,,,,,925.1577682000006,,,,,,,,,,,,,925.1438792999998,925.1577682000006,925.1577682000006,925.1577682000006,927.7236102000006,,,,927.7416481,927.7525815000008,927.7525815000008,927.7886964000008,927.7890471999999,927.8050487,927.8050487,927.8050487,927.8883819000002,928.3220411000002,,,,,,,,up,2.5482936999997037,None,space,0.5002397000007477,None,,,,,,,,,,,,,,,P107,001,2025-02-13_12h38.22.497,posner_endo_new1,2024.2.4,60.02173987442377,2025-02-13 12h38.43.081737 +0000,
cube_l.png,0.1,-0.31,valid,53,53,0,up,21.703782200000205,None,space,0.3112283999998908,None,,,,,0,53,53,53,,,,,928.3377992000005,,,,,,,,,,,,,928.3222456000003,928.3377992000005,928.3377992000005,928.3377992000005,950.0496963000005,,,,950.0568932000006,950.0685068999992,950.0685068999992,950.1157832999997,950.1160283000008,950.1322075000007,950.1322075000007,950.1322075000007,950.1990289999994,950.4496765000004,,,,,,,,up,21.703782200000205,None,space,0.3112283999998908,None,,,,,,,,,,,,,,,P107,001,2025-02-13_12h38.22.497,posner_endo_new1,2024.2.4,60.02173987442377,2025-02-13 12h38.43.081737 +0000,
cube_r.png,0.1,10,catch,54,54,0,up,7.632263100000273,None,None,,,,,,,0,54,54,54,,,,,950.4653281999999,,,,,,,,,,,,,950.4498672999998,950.4653281999999,950.4653281999999,950.4653281999999,958.1084444999997,,,,958.1158517999993,958.1272413999995,958.1272413999995,958.1742983999993,958.1748511000005,958.1906729999992,958.1906729999992,958.1906729999992,958.2739084999994,961.1886482999998,,,,960.2885064000002,961.2042739999997,961.2042739999997,961.2042739999997,up,7.632263100000273,None,None,,,,,,,,,,,,,,,,,P107,001,2025-02-13_12h38.22.497,posner_endo_new1,2024.2.4,60.02173987442377,2025-02-13 12h38.43.081737 +0000,
cube_l.png,0.1,0.31,invalid,55,55,0,up,2.517871899999591,None,space,0.3846540000013192,None,,,,,0,55,55,55,,,,,961.2042739999997,,,,,,,,,,,,,961.1891016000009,961.2042739999997,961.2042739999997,961.2042739999997,963.7368970999996,,,,963.7549166999997,963.7662576000002,963.7662576000002,963.8017560000008,963.8020983999995,963.8183260000005,963.8183260000005,963.8183260000005,963.9015156000005,964.2190140999992,,,,,,,,up,2.517871899999591,None,space,0.3846540000013192,None,,,,,,,,,,,,,,,P107,001,2025-02-13_12h38.22.497,posner_endo_new1,2024.2.4,60.02173987442377,2025-02-13 12h38.43.081737 +0000,
cube_l.png,0.1,-0.31,valid,56,56,0,up,4.679336699999112,None,space,0.4127384000003076,None,,,,,0,56,56,56,,,,,964.2345581999998,,,,,,,,,,,,,964.2192976000006,964.2345581999998,964.2345581999998,964.2345581999998,968.9313875999997,,,,968.9494696000002,968.9603279999992,968.9603279999992,968.9964206999994,968.9969662000003,969.0129321999993,969.0129321999993,969.0129321999993,969.0961920000009,969.4313920000004,,,,,,,,up,4.679336699999112,None,space,0.4127384000003076,None,,,,,,,,,,,,,,,P107,001,2025-02-13_12h38.22.497,posner_endo_new1,2024.2.4,60.02173987442377,2025-02-13 12h38.43.081737 +0000,
cube_r.png,0.1,0.31,valid,57,57,0,up,3.6443629000004876,None,space,0.5177037000012206,None,,,,,0,57,57,57,,,,,969.4458286000008,,,,,,,,,,,,,969.4318643000006,969.4458286000008,969.4458286000008,969.4458286000008,973.0941624999996,,,,973.1123031000006,973.1237416000004,973.1237416000004,973.1589535000003,973.1595039000003,973.1753515,973.1753515,973.1753515,973.2585890000009,973.7100659000007,,,,,,,,up,3.6443629000004876,None,space,0.5177037000012206,None,,,,,,,,,,,,,,,P107,001,2025-02-13_12h38.22.497,posner_endo_new1,2024.2.4,60.02173987442377,2025-02-13 12h38.43.081737 +0000,
cube_r.png,0.1,-0.31,invalid,58,58,0,up,2.5094148999996833,None,space,0.393933699999252,None,,,,,0,58,58,58,,,,,973.7247652000005,,,,,,,,,,,,,973.7105415999995,973.7247652000005,973.7247652000005,973.7247652000005,976.2409033000004,,,,976.2586905000007,976.2701579999994,976.2701579999994,976.3056811999995,976.3062224000005,976.3221346000009,976.3221346000009,976.3221346000009,976.4053991000001,976.7240786000002,,,,,,,,up,2.5094148999996833,None,space,0.393933699999252,None,,,,,,,,,,,,,,,P107,001,2025-02-13_12h38.22.497,posner_endo_new1,2024.2.4,60.02173987442377,2025-02-13 12h38.43.081737 +0000,
cube_l.png,0.1,0.31,invalid,59,59,0,up,3.5034117000013794,None,space,0.3331008999994083,None,,,,,0,59,59,59,,,,,976.7383623000005,,,,,,,,,,,,,976.7245657000003,976.7383623000005,976.7383623000005,976.7383623000005,980.2520600000007,,,,980.2579170999998,980.2695103000005,980.2695103000005,980.3181265000003,980.3183449000007,980.3347658999992,980.3347658999992,980.3347658999992,980.4013773000006,980.6685909000007,,,,,,,,up,3.5034117000013794,None,space,0.3331008999994083,None,,,,,,,,,,,,,,,P107,001,2025-02-13_12h38.22.497,posner_endo_new1,2024.2.4,60.02173987442377,2025-02-13 12h38.43.081737 +0000,
,,,,,,,,,,,,,,,,,,,,,,,,,,,,,,,,,,,,,,,,,,,,,,,,,,,,,,,,,,,,,,,,,,,,,980.6687008999997,980.6843116,980.6843116,1040.6896923000004,1125.8038749000007,space,145.11737039999934,None,,,,,,,P107,001,2025-02-13_12h38.22.497,posner_endo_new1,2024.2.4,60.02173987442377,2025-02-13 12h38.43.081737 +0000,
,,,,,,,,,,,,,,,,,,,,,,,,,,,,,,,,,,1125.8039592999994,1125.8194870000007,1128.8335370000004,1128.8002321999993,,,,,,,,,,,,,,,,,,,,,,,,,,,,,,,,,,,,,,,,,,,,,,P107,001,2025-02-13_12h38.22.497,posner_endo_new1,2024.2.4,60.02173987442377,2025-02-13 12h38.43.081737 +0000,
cube_l.png,0.1,10,catch,0,0,0,down,8.065038099999583,None,None,,,,,,,,,,,0,0,0,0,1128.8335370000004,,,,,,,,,,,,,1128.8242972000007,1128.8335370000004,1128.8335370000004,1128.8335370000004,1136.9086141999996,,,,1136.9147862999998,1136.9265269999996,1136.9265269999996,1136.9746493000002,1136.9748789999994,1136.9914073,1136.9914073,1136.9914073,1137.0579971999996,1139.9888981999993,,,,1139.0723670999996,1140.004927,1140.004927,1140.004927,,,,,,,,,,,,,,,down,8.065038099999583,None,None,,,P107,001,2025-02-13_12h38.22.497,posner_endo_new1,2024.2.4,60.02173987442377,2025-02-13 12h38.43.081737 +0000,
cube_l.png,0.1,10,catch,1,1,0,down,0.5248153000011371,None,space,0.3256667000005109,None,,,,,,,,,0,1,1,1,1140.004927,,,,,,,,,,,,,1139.9891368000008,1140.004927,1140.004927,1140.004927,1140.5386803000001,,,,1140.5479063000002,1140.5581218999996,1140.5581218999996,1140.6044672999997,1140.6047710000003,1140.6209356,1140.6209356,1140.6209356,1140.7042177999992,1140.9549411999997,,,,,,,,,,,,,,,,,,,,,,down,0.5248153000011371,None,space,0.3256667000005109,None,P107,001,2025-02-13_12h38.22.497,posner_endo_new1,2024.2.4,60.02173987442377,2025-02-13 12h38.43.081737 +0000,
cube_l.png,0.1,0.31,invalid,2,2,0,down,3.335718700000143,None,space,0.48932459999923594,None,,,,,,,,,0,2,2,2,1140.970550600001,,,,,,,,,,,,,1140.9552034999997,1140.970550600001,1140.970550600001,1140.970550600001,1144.3182051000003,,,,1144.3273525999994,1144.3375213,1144.3375213,1144.3838725000005,1144.3841699000004,1144.4004077999998,1144.4004077999998,1144.4004077999998,1144.4836899000002,1144.9011494999995,,,,,,,,,,,,,,,,,,,,,,down,3.335718700000143,None,space,0.48932459999923594,None,P107,001,2025-02-13_12h38.22.497,posner_endo_new1,2024.2.4,60.02173987442377,2025-02-13 12h38.43.081737 +0000,
cube_l.png,0.1,0.31,invalid,3,3,0,down,2.7499840000000404,None,space,0.38905960000010964,None,,,,,,,,,0,3,3,3,1144.916553000001,,,,,,,,,,,,,1144.9014024000007,1144.916553000001,1144.916553000001,1144.916553000001,1147.6811300000008,,,,1147.6871095999995,1147.6986732000005,1147.6986732000005,1147.7470173000002,1147.7472381000007,1147.7637011999996,1147.7637011999996,1147.7637011999996,1147.8301941999998,1148.1639317999998,,,,,,,,,,,,,,,,,,,,,,down,2.7499840000000404,None,space,0.38905960000010964,None,P107,001,2025-02-13_12h38.22.497,posner_endo_new1,2024.2.4,60.02173987442377,2025-02-13 12h38.43.081737 +0000,
cube_l.png,0.1,-0.31,valid,4,4,0,down,5.36574759999894,None,space,0.47960280000006605,None,,,,,,,,,0,4,4,4,1148.1799458000005,,,,,,,,,,,,,1148.1641058999994,1148.1799458000005,1148.1799458000005,1148.1799458000005,1153.5583824999994,,,,1153.5644460000003,1153.5761163000006,1153.5761163000006,1153.6245892000006,1153.6248123999994,1153.640878100001,1153.640878100001,1153.640878100001,1153.7076515999997,1154.1258746000003,,,,,,,,,,,,,,,,,,,,,,down,5.36574759999894,None,space,0.47960280000006605,None,P107,001,2025-02-13_12h38.22.497,posner_endo_new1,2024.2.4,60.02173987442377,2025-02-13 12h38.43.081737 +0000,
cube_r.png,0.1,-0.31,invalid,5,5,0,down,2.6694827000010264,None,space,0.4125495999996929,None,,,,,,,,,0,5,5,5,1154.1403744,,,,,,,,,,,,,1154.1263576000001,1154.1403744,1154.1403744,1154.1403744,1156.8228786,,,,1156.8408216000007,1156.852105,1156.852105,1156.8877463000008,1156.8880489000003,1156.9043402000007,1156.9043402000007,1156.9043402000007,1156.9875415000006,1157.3215543999995,,,,,,,,,,,,,,,,,,,,,,down,2.6694827000010264,None,space,0.4125495999996929,None,P107,001,2025-02-13_12h38.22.497,posner_endo_new1,2024.2.4,60.02173987442377,2025-02-13 12h38.43.081737 +0000,
cube_r.png,0.1,0.31,valid,6,6,0,down,2.8972159000004467,None,space,0.4105587000012747,None,,,,,,,,,0,6,6,6,1157.3372003999993,,,,,,,,,,,,,1157.3218201,1157.3372003999993,1157.3372003999993,1157.3372003999993,1160.2362921000004,,,,1160.2541815999994,1160.2654862,1160.2654862,1160.3010245999994,1160.3015639000005,1160.3174510000008,1160.3174510000008,1160.3174510000008,1160.4006790999993,1160.7358820999998,,,,,,,,,,,,,,,,,,,,,,down,2.8972159000004467,None,space,0.4105587000012747,None,P107,001,2025-02-13_12h38.22.497,posner_endo_new1,2024.2.4,60.02173987442377,2025-02-13 12h38.43.081737 +0000,
cube_r.png,0.1,-0.31,invalid,7,7,0,down,2.572256200000993,None,space,0.3759609000007913,None,,,,,,,,,0,7,7,7,1160.7503087000005,,,,,,,,,,,,,1160.7363633000004,1160.7503087000005,1160.7503087000005,1160.7503087000005,1163.3329023000006,,,,1163.3508292000006,1163.3621447999994,1163.3621447999994,1163.3978601,1163.3981980999997,1163.4143781000002,1163.4143781000002,1163.4143781000002,1163.4976339999994,1163.7984166000006,,,,,,,,,,,,,,,,,,,,,,down,2.572256200000993,None,space,0.3759609000007913,None,P107,001,2025-02-13_12h38.22.497,posner_endo_new1,2024.2.4,60.02173987442377,2025-02-13 12h38.43.081737 +0000,
cube_l.png,0.1,-0.31,valid,8,8,0,down,3.7162561000004644,None,space,0.3384237000009307,None,,,,,,,,,0,8,8,8,1163.8139668000003,,,,,,,,,,,,,1163.7987066999995,1163.8139668000003,1163.8139668000003,1163.8139668000003,1167.5445897000009,,,,1167.5557798999998,1167.566197,1167.566197,1167.6102102000004,1167.6105499999994,1167.6267748999999,1167.6267748999999,1167.6267748999999,1167.7100661999993,1167.9775546,,,,,,,,,,,,,,,,,,,,,,down,3.7162561000004644,None,space,0.3384237000009307,None,P107,001,2025-02-13_12h38.22.497,posner_endo_new1,2024.2.4,60.02173987442377,2025-02-13 12h38.43.081737 +0000,
cube_r.png,0.1,-0.31,invalid,9,9,0,down,3.273108299999876,None,space,0.3608270000004268,None,,,,,,,,,0,9,9,9,1167.9930208000005,,,,,,,,,,,,,1167.9778583999996,1167.9930208000005,1167.9930208000005,1167.9930208000005,1171.2741666000002,,,,1171.2853579999992,1171.2957575,1171.2957575,1171.3398023000009,1171.3401465999996,1171.3562127000005,1171.3562127000005,1171.3562127000005,1171.4392800000005,1171.7237444999992,,,,,,,,,,,,,,,,,,,,,,down,3.273108299999876,None,space,0.3608270000004268,None,P107,001,2025-02-13_12h38.22.497,posner_endo_new1,2024.2.4,60.02173987442377,2025-02-13 12h38.43.081737 +0000,
cube_l.png,0.1,0.31,invalid,10,10,0,down,3.470500400000674,None,space,0.3422798999999941,None,,,,,,,,,0,10,10,10,1171.7391736000009,,,,,,,,,,,,,1171.7240406,1171.7391736000009,1171.7391736000009,1171.7391736000009,1175.2200536,,,,1175.2311508000003,1175.2414630999992,1175.2414630999992,1175.2856446000005,1175.2859829999998,1175.3022554,1175.3022554,1175.3022554,1175.3852454999997,1175.6530672999997,,,,,,,,,,,,,,,,,,,,,,down,3.470500400000674,None,space,0.3422798999999941,None,P107,001,2025-02-13_12h38.22.497,posner_endo_new1,2024.2.4,60.02173987442377,2025-02-13 12h38.43.081737 +0000,
cube_r.png,0.1,-0.31,invalid,11,11,0,down,3.222033099998953,None,space,0.3312212000000727,None,,,,,,,,,0,11,11,11,1175.6684236,,,,,,,,,,,,,1175.6533617000005,1175.6684236,1175.6684236,1175.6684236,1178.8997223000006,,,,1178.9081459000008,1178.9183169000007,1178.9183169000007,1178.9652807000002,1178.9655232000005,1178.9818307000005,1178.9818307000005,1178.9818307000005,1179.0651006999997,1179.3154599999998,,,,,,,,,,,,,,,,,,,,,,down,3.222033099998953,None,space,0.3312212000000727,None,P107,001,2025-02-13_12h38.22.497,posner_endo_new1,2024.2.4,60.02173987442377,2025-02-13 12h38.43.081737 +0000,
cube_r.png,0.1,0.31,valid,12,12,0,down,3.1749763999996503,None,space,0.2531770999994478,None,,,,,,,,,0,12,12,12,1179.3313608999997,,,,,,,,,,,,,1179.3156729999992,1179.3313608999997,1179.3313608999997,1179.3313608999997,1182.5123005000005,,,,1182.5194699000003,1182.5311622999998,1182.5311622999998,1182.5782596999998,1182.5785022,1182.5948035000001,1182.5948035000001,1182.5948035000001,1182.6613285999993,1182.8620394000009,,,,,,,,,,,,,,,,,,,,,,down,3.1749763999996503,None,space,0.2531770999994478,None,P107,001,2025-02-13_12h38.22.497,posner_endo_new1,2024.2.4,60.02173987442377,2025-02-13 12h38.43.081737 +0000,
cube_l.png,0.1,10,catch,13,13,0,down,3.3326286999999866,None,None,,,,,,,,,,,0,13,13,13,1182.8777762000009,,,,,,,,,,,,,1182.8622362000006,1182.8777762000009,1182.8777762000009,1182.8777762000009,1186.2250356000004,,,,1186.2321035999994,1186.2440256999998,1186.2440256999998,1186.2909896,1186.2914884000002,1186.3074498999995,1186.3074498999995,1186.3074498999995,1186.3907440999992,1189.3053904000008,,,,1188.4055203000007,1189.3212010999996,1189.3212010999996,1189.3212010999996,,,,,,,,,,,,,,,down,3.3326286999999866,None,None,,,P107,001,2025-02-13_12h38.22.497,posner_endo_new1,2024.2.4,60.02173987442377,2025-02-13 12h38.43.081737 +0000,
cube_r.png,0.1,-0.31,invalid,14,14,0,down,0.1778002999999444,None,space,0.39727900000070804,None,,,,,,,,,0,14,14,14,1189.3212010999996,,,,,,,,,,,,,1189.3056808000001,1189.3212010999996,1189.3212010999996,1189.3212010999996,1189.5055668999994,,,,1189.5168111000003,1189.5270691999995,1189.5270691999995,1189.5712533000005,1189.5716049999992,1189.5876540999998,1189.5876540999998,1189.5876540999998,1189.6709121999993,1189.9882168000004,,,,,,,,,,,,,,,,,,,,,,down,0.1778002999999444,None,space,0.39727900000070804,None,P107,001,2025-02-13_12h38.22.497,posner_endo_new1,2024.2.4,60.02173987442377,2025-02-13 12h38.43.081737 +0000,
cube_l.png,0.1,-0.31,valid,15,15,0,down,4.366951699999845,None,space,0.3741288999990502,None,,,,,,,,,0,15,15,15,1190.003715500001,,,,,,,,,,,,,1189.9884321999998,1190.003715500001,1190.003715500001,1190.003715500001,1194.3834716000001,,,,1194.3907897000008,1194.4026331999994,1194.4026331999994,1194.4493911000009,1194.4496517000007,1194.4657685000002,1194.4657685000002,1194.4657685000002,1194.5489720999994,1194.8497014000004,,,,,,,,,,,,,,,,,,,,,,down,4.366951699999845,None,space,0.3741288999990502,None,P107,001,2025-02-13_12h38.22.497,posner_endo_new1,2024.2.4,60.02173987442377,2025-02-13 12h38.43.081737 +0000,
cube_r.png,0.1,10,catch,16,16,0,down,3.08901220000007,None,None,,,,,,,,,,,0,16,16,16,1194.8654102,,,,,,,,,,,,,1194.8499112999998,1194.8654102,1194.8654102,1194.8654102,1197.9631157000003,,,,1197.9704462000009,1197.9822975999996,1197.9822975999996,1198.0290888,1198.0293490000004,1198.0457922000005,1198.0457922000005,1198.0457922000005,1198.1122140000007,1201.0429408,,,,1200.1270576000006,1201.0591581000008,1201.0591581000008,1201.0591581000008,,,,,,,,,,,,,,,down,3.08901220000007,None,None,,,P107,001,2025-02-13_12h38.22.497,posner_endo_new1,2024.2.4,60.02173987442377,2025-02-13 12h38.43.081737 +0000,
cube_r.png,0.1,10,catch,17,17,0,down,0.8386213999983738,None,None,,,,,,,,,,,0,17,17,17,1201.0591581000008,,,,,,,,,,,,,1201.0431253999996,1201.0591581000008,1201.0591581000008,1201.0591581000008,1201.9093131000009,,,,1201.9163790000002,1201.9281174000007,1201.9281174000007,1201.9749933000003,1201.9752398,1201.9915600999993,1201.9915600999993,1201.9915600999993,1202.0749247000003,1204.9891666000003,,,,1204.0893964000006,1205.0051215000003,1205.0051215000003,1205.0051215000003,,,,,,,,,,,,,,,down,0.8386213999983738,None,None,,,P107,001,2025-02-13_12h38.22.497,posner_endo_new1,2024.2.4,60.02173987442377,2025-02-13 12h38.43.081737 +0000,
cube_l.png,0.1,0.31,invalid,18,18,0,down,1.173379300000306,None,space,0.4006795000004786,None,,,,,,,,,0,18,18,18,1205.0051215000003,,,,,,,,,,,,,1204.9893716000006,1205.0051215000003,1205.0051215000003,1205.0051215000003,1206.1882134999996,,,,1206.1955825000005,1206.2069038999998,1206.2069038999998,1206.2539319999996,1206.2541990999998,1206.2705709000002,1206.2705709000002,1206.2705709000002,1206.3537649999998,1206.6875619000002,,,,,,,,,,,,,,,,,,,,,,down,1.173379300000306,None,space,0.4006795000004786,None,P107,001,2025-02-13_12h38.22.497,posner_endo_new1,2024.2.4,60.02173987442377,2025-02-13 12h38.43.081737 +0000,
cube_l.png,0.1,10,catch,19,19,0,down,3.434538999999859,None,None,,,,,,,,,,,0,19,19,19,1206.7033522000002,,,,,,,,,,,,,1206.6877686000007,1206.7033522000002,1206.7033522000002,1206.7033522000002,1210.1507008999997,,,,1210.1577840999998,1210.1692777999997,1210.1692777999997,1210.2165377000001,1210.2170396000001,1210.232995800001,1210.232995800001,1210.232995800001,1210.3161903,1213.2310558000008,,,,1212.3309117000008,1213.2468078000002,1213.2468078000002,1213.2468078000002,,,,,,,,,,,,,,,down,3.434538999999859,None,None,,,P107,001,2025-02-13_12h38.22.497,posner_endo_new1,2024.2.4,60.02173987442377,2025-02-13 12h38.43.081737 +0000,
cube_l.png,0.1,0.31,invalid,20,20,0,down,0.635287299999618,None,space,0.4934721999998146,None,,,,,,,,,0,20,20,20,1213.2468078000002,,,,,,,,,,,,,1213.2313443000003,1213.2468078000002,1213.2468078000002,1213.2468078000002,1213.8971777000006,,,,1213.9083640999997,1213.9186425999997,1213.9186425999997,1213.9629542000002,1213.9632963999993,1213.9792785999998,1213.9792785999998,1213.9792785999998,1214.0626482999996,1214.4798821000004,,,,,,,,,,,,,,,,,,,,,,down,0.635287299999618,None,space,0.4934721999998146,None,P107,001,2025-02-13_12h38.22.497,posner_endo_new1,2024.2.4,60.02173987442377,2025-02-13 12h38.43.081737 +0000,
cube_l.png,0.1,-0.31,valid,21,21,0,down,2.7794106999990618,None,space,0.37158420000014303,None,,,,,,,,,0,21,21,21,1214.4954787000006,,,,,,,,,,,,,1214.4801814000002,1214.4954787000006,1214.4954787000006,1214.4954787000006,1217.2772781999993,,,,1217.2884531,1217.2988951999996,1217.2988951999996,1217.3427264000002,1217.3430764000004,1217.3592896999999,1217.3592896999999,1217.3592896999999,1217.4425339000009,1217.7432556999993,,,,,,,,,,,,,,,,,,,,,,down,2.7794106999990618,None,space,0.37158420000014303,None,P107,001,2025-02-13_12h38.22.497,posner_endo_new1,2024.2.4,60.02173987442377,2025-02-13 12h38.43.081737 +0000,
cube_r.png,0.1,0.31,valid,22,22,0,down,5.372604000000138,None,space,0.6185010999997758,None,,,,,,,,,0,22,22,22,1217.7588741,,,,,,,,,,,,,1217.7435461999994,1217.7588741,1217.7588741,1217.7588741,1223.1377407,,,,1223.1448755000001,1223.1682562999995,1223.1682562999995,1223.2034108999997,1223.2039581999998,1223.2198872000008,1223.2198872000008,1223.2198872000008,1223.3030913999992,1223.8545472999995,,,,,,,,,,,,,,,,,,,,,,down,5.372604000000138,None,space,0.6185010999997758,None,P107,001,2025-02-13_12h38.22.497,posner_endo_new1,2024.2.4,60.02173987442377,2025-02-13 12h38.43.081737 +0000,
cube_r.png,0.1,-0.31,invalid,23,23,0,down,6.220668299998579,None,space,0.45355209999979706,None,,,,,,,,,0,23,23,23,1223.8692157000005,,,,,,,,,,,,,1223.8550271999993,1223.8692157000005,1223.8692157000005,1223.8692157000005,1230.0985314000009,,,,1230.1167901000008,1230.1281794999995,1230.1281794999995,1230.1630459000007,1230.1636029000001,1230.1794105999998,1230.1794105999998,1230.1794105999998,1230.2627078000005,1230.6475673999994,,,,,,,,,,,,,,,,,,,,,,down,6.220668299998579,None,space,0.45355209999979706,None,P107,001,2025-02-13_12h38.22.497,posner_endo_new1,2024.2.4,60.02173987442377,2025-02-13 12h38.43.081737 +0000,
cube_r.png,0.1,0.31,valid,24,24,0,down,5.564479900000151,None,space,0.3703431999983877,None,,,,,,,,,0,24,24,24,1230.6622585999994,,,,,,,,,,,,,1230.6480654000006,1230.6622585999994,1230.6622585999994,1230.6622585999994,1236.2417674000008,,,,1236.2598746999993,1236.2717976000004,1236.2717976000004,1236.3066854000008,1236.3070315999994,1236.3232358000005,1236.3232358000005,1236.3232358000005,1236.4063981,1236.7073213999993,,,,,,,,,,,,,,,,,,,,,,down,5.564479900000151,None,space,0.3703431999983877,None,P107,001,2025-02-13_12h38.22.497,posner_endo_new1,2024.2.4,60.02173987442377,2025-02-13 12h38.43.081737 +0000,
cube_r.png,0.1,-0.31,invalid,25,25,0,down,6.695979000000079,None,space,0.4536110999997618,None,,,,,,,,,0,25,25,25,1236.7227736999994,,,,,,,,,,,,,1236.7076202999997,1236.7227736999994,1236.7227736999994,1236.7227736999994,1243.4337718999996,,,,1243.4449366999997,1243.4552499000001,1243.4552499000001,1243.4994656,1243.499812600001,1243.5158721999996,1243.5158721999996,1243.5158721999996,1243.5991190000004,1243.9833426000005,,,,,,,,,,,,,,,,,,,,,,down,6.695979000000079,None,space,0.4536110999997618,None,P107,001,2025-02-13_12h38.22.497,posner_endo_new1,2024.2.4,60.02173987442377,2025-02-13 12h38.43.081737 +0000,
cube_l.png,0.1,-0.31,valid,26,26,0,down,12.34013959999902,None,space,0.3604907999997522,None,,,,,,,,,0,26,26,26,1243.9986169000003,,,,,,,,,,,,,1243.9836347,1243.9986169000003,1243.9986169000003,1243.9986169000003,1256.3537128000007,,,,1256.3649743999995,1256.3752925999997,1256.3752925999997,1256.4194671999994,1256.4198140999997,1256.4361891000008,1256.4361891000008,1256.4361891000008,1256.5192681999997,1256.803597,,,,,,,,,,,,,,,,,,,,,,down,12.34013959999902,None,space,0.3604907999997522,None,P107,001,2025-02-13_12h38.22.497,posner_endo_new1,2024.2.4,60.02173987442377,2025-02-13 12h38.43.081737 +0000,
cube_r.png,0.1,0.31,valid,27,27,0,down,4.607620400000087,None,space,0.37195710000014515,None,,,,,,,,,0,27,27,27,1256.8189029999994,,,,,,,,,,,,,1256.8038959000005,1256.8189029999994,1256.8189029999994,1256.8189029999994,1261.4321696999996,,,,1261.4433532000003,1261.4536706,1261.4536706,1261.4975307999994,1261.4978687999992,1261.5140761000002,1261.5140761000002,1261.5140761000002,1261.5972590000001,1261.8979230999994,,,,,,,,,,,,,,,,,,,,,,down,4.607620400000087,None,space,0.37195710000014515,None,P107,001,2025-02-13_12h38.22.497,posner_endo_new1,2024.2.4,60.02173987442377,2025-02-13 12h38.43.081737 +0000,
cube_r.png,0.1,10,catch,28,28,0,down,4.4967638999987685,None,None,,,,,,,,,,,0,28,28,28,1261.9137983,,,,,,,,,,,,,1261.8981258000003,1261.9137983,1261.9137983,1261.9137983,1266.4265794999992,,,,1266.4336533999995,1266.4454540999996,1266.4454540999996,1266.4923457000004,1266.4925894000007,1266.5091169999996,1266.5091169999996,1266.5091169999996,1266.5923284,1269.5065675999995,,,,1268.6069017999998,1269.5227264000005,1269.5227264000005,1269.5227264000005,,,,,,,,,,,,,,,down,4.4967638999987685,None,None,,,P107,001,2025-02-13_12h38.22.497,posner_endo_new1,2024.2.4,60.02173987442377,2025-02-13 12h38.43.081737 +0000,
cube_r.png,0.1,0.31,valid,29,29,0,down,0.9915785000011965,None,space,0.37323619999915536,None,,,,,,,,,0,29,29,29,1269.5227264000005,,,,,,,,,,,,,1269.5067560999996,1269.5227264000005,1269.5227264000005,1269.5227264000005,1270.5221913999994,,,,1270.5292752000005,1270.5409658000008,1270.5409658000008,1270.5883402,1270.5885887999993,1270.6049782999999,1270.6049782999999,1270.6049782999999,1270.6713419999996,1270.9884471000005,,,,,,,,,,,,,,,,,,,,,,down,0.9915785000011965,None,space,0.37323619999915536,None,P107,001,2025-02-13_12h38.22.497,posner_endo_new1,2024.2.4,60.02173987442377,2025-02-13 12h38.43.081737 +0000,
cube_r.png,0.1,0.31,valid,30,30,0,down,3.3980929999997898,None,space,0.3980374999991909,None,,,,,,,,,0,30,30,30,1271.0043148000004,,,,,,,,,,,,,1270.9886526999999,1271.0043148000004,1271.0043148000004,1271.0043148000004,1274.418437800001,,,,1274.4255094,1274.4373151,1274.4373151,1274.4843521999992,1274.4845967,1274.5008794999994,1274.5008794999994,1274.5008794999994,1274.5840491,1274.9014435000008,,,,,,,,,,,,,,,,,,,,,,down,3.3980929999997898,None,space,0.3980374999991909,None,P107,001,2025-02-13_12h38.22.497,posner_endo_new1,2024.2.4,60.02173987442377,2025-02-13 12h38.43.081737 +0000,
cube_l.png,0.1,-0.31,valid,31,31,0,down,3.6451106000004074,None,space,0.4049981999996817,None,,,,,,,,,0,31,31,31,1274.9173523000009,,,,,,,,,,,,,1274.9016419,1274.9173523000009,1274.9173523000009,1274.9173523000009,1278.5650848999994,,,,1278.5814307,1278.5924020000002,1278.5924020000002,1278.6300033999996,1278.6302761999996,1278.6465974000002,1278.6465974000002,1278.6465974000002,1278.729832000001,1279.0638099000007,,,,,,,,,,,,,,,,,,,,,,down,3.6451106000004074,None,space,0.4049981999996817,None,P107,001,2025-02-13_12h38.22.497,posner_endo_new1,2024.2.4,60.02173987442377,2025-02-13 12h38.43.081737 +0000,
cube_r.png,0.1,0.31,valid,32,32,0,down,2.658669299999019,None,space,0.3526711000013165,None,,,,,,,,,0,32,32,32,1279.0794590999994,,,,,,,,,,,,,1279.0640414000009,1279.0794590999994,1279.0794590999994,1279.0794590999994,1281.7444359,,,,1281.753676800001,1281.7636820000007,1281.7636820000007,1281.8101530999993,1281.810461000001,1281.8265745999997,1281.8265745999997,1281.8265745999997,1281.9098940999993,1282.1941671000004,,,,,,,,,,,,,,,,,,,,,,down,2.658669299999019,None,space,0.3526711000013165,None,P107,001,2025-02-13_12h38.22.497,posner_endo_new1,2024.2.4,60.02173987442377,2025-02-13 12h38.43.081737 +0000,
cube_r.png,0.1,-0.31,invalid,33,33,0,down,2.79298209999979,None,space,0.44129049999901326,None,,,,,,,,,0,33,33,33,1282.2096127999994,,,,,,,,,,,,,1282.1944306999994,1282.2096127999994,1282.2096127999994,1282.2096127999994,1285.0078537000009,,,,1285.0170529999996,1285.0272089999999,1285.0272089999999,1285.0734200999996,1285.0737408000005,1285.0900884999992,1285.0900884999992,1285.0900884999992,1285.1732479000002,1285.5406805000002,,,,,,,,,,,,,,,,,,,,,,down,2.79298209999979,None,space,0.44129049999901326,None,P107,001,2025-02-13_12h38.22.497,posner_endo_new1,2024.2.4,60.02173987442377,2025-02-13 12h38.43.081737 +0000,
cube_r.png,0.1,10,catch,34,34,0,down,2.7661657000007835,None,None,,,,,,,,,,,0,34,34,34,1285.5561294,,,,,,,,,,,,,1285.5409337,1285.5561294,1285.5561294,1285.5561294,1288.3377600000003,,,,1288.3457350999997,1288.3563730000005,1288.3563730000005,1288.4033655999992,1288.4035891000003,1288.4199953000007,1288.4199953000007,1288.4199953000007,1288.5031340000005,1291.4174626000004,,,,1290.5177846000006,1291.4335317999994,1291.4335317999994,1291.4335317999994,,,,,,,,,,,,,,,down,2.7661657000007835,None,None,,,P107,001,2025-02-13_12h38.22.497,posner_endo_new1,2024.2.4,60.02173987442377,2025-02-13 12h38.43.081737 +0000,
cube_r.png,0.1,0.31,valid,35,35,0,down,0.7605007999991358,None,space,0.37565129999893543,None,,,,,,,,,0,35,35,35,1291.4335317999994,,,,,,,,,,,,,1291.4176341000002,1291.4335317999994,1291.4335317999994,1291.4335317999994,1292.2001495000004,,,,1292.2059135,1292.2173199999997,1292.2173199999997,1292.2660863,1292.2665904000005,1292.2824595000002,1292.2824595000002,1292.2824595000002,1292.3657714,1292.6672149999995,,,,,,,,,,,,,,,,,,,,,,down,0.7605007999991358,None,space,0.37565129999893543,None,P107,001,2025-02-13_12h38.22.497,posner_endo_new1,2024.2.4,60.02173987442377,2025-02-13 12h38.43.081737 +0000,
cube_r.png,0.1,-0.31,invalid,36,36,0,down,3.384478800000579,None,space,0.5380523999992874,None,,,,,,,,,0,36,36,36,1292.6821528,,,,,,,,,,,,,1292.6676578999995,1292.6821528,1292.6821528,1292.6821528,1296.0798921000005,,,,1296.0878818,1296.0983785000008,1296.0983785000008,1296.1457050000008,1296.1459379000007,1296.1620490999994,1296.1620490999994,1296.1620490999994,1296.245324900001,1296.7121805999996,,,,,,,,,,,,,,,,,,,,,,down,3.384478800000579,None,space,0.5380523999992874,None,P107,001,2025-02-13_12h38.22.497,posner_endo_new1,2024.2.4,60.02173987442377,2025-02-13 12h38.43.081737 +0000,
cube_l.png,0.1,0.31,invalid,37,37,0,down,3.24997219999932,None,space,0.347822300000189,None,,,,,,,,,0,37,37,37,1296.7281220000004,,,,,,,,,,,,,1296.7123732,1296.7281220000004,1296.7281220000004,1296.7281220000004,1299.9923314999996,,,,1299.9990392,1300.0108125000006,1300.0108125000006,1300.0582195000006,1300.0584550000003,1300.0746952999998,1300.0746952999998,1300.0746952999998,1300.1412068000009,1300.4252049999996,,,,,,,,,,,,,,,,,,,,,,down,3.24997219999932,None,space,0.347822300000189,None,P107,001,2025-02-13_12h38.22.497,posner_endo_new1,2024.2.4,60.02173987442377,2025-02-13 12h38.43.081737 +0000,
cube_l.png,0.1,0.31,invalid,38,38,0,down,3.089589799999885,None,space,0.4087282000000414,None,,,,,,,,,0,38,38,38,1300.4409450000003,,,,,,,,,,,,,1300.4253915999998,1300.4409450000003,1300.4409450000003,1300.4409450000003,1303.5383832000007,,,,1303.5450870999994,1303.5566756000007,1303.5566756000007,1303.6045054999995,1303.6049953000002,1303.6209013000007,1303.6209013000007,1303.6209013000007,1303.6874981,1304.0388586999998,,,,,,,,,,,,,,,,,,,,,,down,3.089589799999885,None,space,0.4087282000000414,None,P107,001,2025-02-13_12h38.22.497,posner_endo_new1,2024.2.4,60.02173987442377,2025-02-13 12h38.43.081737 +0000,
cube_r.png,0.1,0.31,valid,39,39,0,down,6.644646700000521,None,space,0.3414639000002353,None,,,,,,,,,0,39,39,39,1304.0538020999993,,,,,,,,,,,,,1304.0393034999997,1304.0538020999993,1304.0538020999993,1304.0538020999993,1310.7154042000002,,,,1310.7317946999992,1310.742341700001,1310.742341700001,1310.7805215000008,1310.781022700001,1310.7969193999998,1310.7969193999998,1310.7969193999998,1310.8803060999999,1311.1482871999997,,,,,,,,,,,,,,,,,,,,,,down,6.644646700000521,None,space,0.3414639000002353,None,P107,001,2025-02-13_12h38.22.497,posner_endo_new1,2024.2.4,60.02173987442377,2025-02-13 12h38.43.081737 +0000,
cube_l.png,0.1,0.31,invalid,40,40,0,down,2.6155107999984466,None,space,0.4661742999996932,None,,,,,,,,,0,40,40,40,1311.1632086000009,,,,,,,,,,,,,1311.1487281999998,1311.1632086000009,1311.1632086000009,1311.1632086000009,1313.7952385999997,,,,1313.8063094000008,1313.8163349000006,1313.8163349000006,1313.8607233999992,1313.8610630000003,1313.8773438999997,1313.8773438999997,1313.8773438999997,1313.9604866999998,1314.3446992000008,,,,,,,,,,,,,,,,,,,,,,down,2.6155107999984466,None,space,0.4661742999996932,None,P107,001,2025-02-13_12h38.22.497,posner_endo_new1,2024.2.4,60.02173987442377,2025-02-13 12h38.43.081737 +0000,
cube_l.png,0.1,10,catch,41,41,0,down,3.7149738000007346,None,None,,,,,,,,,,,0,41,41,41,1314.3600869000002,,,,,,,,,,,,,1314.3449899999996,1314.3600869000002,1314.3600869000002,1314.3600869000002,1318.0908213999992,,,,1318.1018841000005,1318.1121648999997,1318.1121648999997,1318.1563231,1318.1565702999997,1318.1728746000008,1318.1728746000008,1318.1728746000008,1318.2561881000001,1321.1704088000006,,,,1320.2707083999994,1321.1868274000008,1321.1868274000008,1321.1868274000008,,,,,,,,,,,,,,,down,3.7149738000007346,None,None,,,P107,001,2025-02-13_12h38.22.497,posner_endo_new1,2024.2.4,60.02173987442377,2025-02-13 12h38.43.081737 +0000,
cube_l.png,0.1,-0.31,valid,42,42,0,down,1.6638207999985752,None,space,0.31402260000140814,None,,,,,,,,,0,42,42,42,1321.1868274000008,,,,,,,,,,,,,1321.1705942000008,1321.1868274000008,1321.1868274000008,1321.1868274000008,1322.8525544000004,,,,1322.8596797999999,1322.8709753999992,1322.8709753999992,1322.9180741,1322.91856,1322.9345204,1322.9345204,1322.9345204,1323.0177638999994,1323.2525870999998,,,,,,,,,,,,,,,,,,,,,,down,1.6638207999985752,None,space,0.31402260000140814,None,P107,001,2025-02-13_12h38.22.497,posner_endo_new1,2024.2.4,60.02173987442377,2025-02-13 12h38.43.081737 +0000,
cube_l.png,0.1,10,catch,43,43,0,down,3.566732999999658,None,space,0.29755569999906584,None,,,,,,,,,0,43,43,43,1323.267510400001,,,,,,,,,,,,,1323.2530174000003,1323.267510400001,1323.267510400001,1323.267510400001,1326.8489042,,,,1326.8650608000007,1326.8761477999997,1326.8761477999997,1326.9139706000005,1326.9144708999993,1326.9304257000003,1326.9304257000003,1326.9304257000003,1327.0136844999997,1327.2320571,,,,,,,,,,,,,,,,,,,,,,down,3.566732999999658,None,space,0.29755569999906584,None,P107,001,2025-02-13_12h38.22.497,posner_endo_new1,2024.2.4,60.02173987442377,2025-02-13 12h38.43.081737 +0000,
cube_l.png,0.1,0.31,invalid,44,44,0,down,3.260119999999006,None,space,0.3959725000004255,None,,,,,,,,,0,44,44,44,1327.2467395000003,,,,,,,,,,,,,1327.2324903999997,1327.2467395000003,1327.2467395000003,1327.2467395000003,1330.5116402999993,,,,1330.5226186,1330.5330328,1330.5330328,1330.5770637000005,1330.5774044999998,1330.5935556999993,1330.5935556999993,1330.5935556999993,1330.6767908000002,1330.9944099000004,,,,,,,,,,,,,,,,,,,,,,down,3.260119999999006,None,space,0.3959725000004255,None,P107,001,2025-02-13_12h38.22.497,posner_endo_new1,2024.2.4,60.02173987442377,2025-02-13 12h38.43.081737 +0000,
cube_l.png,0.1,0.31,invalid,45,45,0,down,3.1368388999999297,None,space,0.3665342000003875,None,,,,,,,,,0,45,45,45,1331.0098065999991,,,,,,,,,,,,,1330.9947083000006,1331.0098065999991,1331.0098065999991,1331.0098065999991,1334.1576929000003,,,,1334.1687201000004,1334.1789487000005,1334.1789487000005,1334.2233708000003,1334.2237155000003,1334.2398384000007,1334.2398384000007,1334.2398384000007,1334.3231008000002,1334.607549800001,,,,,,,,,,,,,,,,,,,,,,down,3.1368388999999297,None,space,0.3665342000003875,None,P107,001,2025-02-13_12h38.22.497,posner_endo_new1,2024.2.4,60.02173987442377,2025-02-13 12h38.43.081737 +0000,
cube_r.png,0.1,0.31,valid,46,46,0,down,3.884008699998958,None,space,0.43449560000044585,None,,,,,,,,,0,46,46,46,1334.6226865000008,,,,,,,,,,,,,1334.6078395000004,1334.6226865000008,1334.6226865000008,1334.6226865000008,1338.5201164999999,,,,1338.5311356999991,1338.5413927999998,1338.5413927999998,1338.5854643000002,1338.5858079000009,1338.6020482000004,1338.6020482000004,1338.6020482000004,1338.6852605999993,1339.0527870999995,,,,,,,,,,,,,,,,,,,,,,down,3.884008699998958,None,space,0.43449560000044585,None,P107,001,2025-02-13_12h38.22.497,posner_endo_new1,2024.2.4,60.02173987442377,2025-02-13 12h38.43.081737 +0000,
cube_l.png,0.1,-0.31,valid,47,47,0,down,3.4541635000005044,None,space,0.4275870000001305,None,,,,,,,,,0,47,47,47,1339.0681796999997,,,,,,,,,,,,,1339.0530792999998,1339.0681796999997,1339.0681796999997,1339.0681796999997,1342.5324122000002,,,,1342.5435971999996,1342.5539200000003,1342.5539200000003,1342.5981088000008,1342.5984599999992,1342.6146074999997,1342.6146074999997,1342.6146074999997,1342.6978617999994,1343.0486402999995,,,,,,,,,,,,,,,,,,,,,,down,3.4541635000005044,None,space,0.4275870000001305,None,P107,001,2025-02-13_12h38.22.497,posner_endo_new1,2024.2.4,60.02173987442377,2025-02-13 12h38.43.081737 +0000,
cube_r.png,0.1,-0.31,invalid,48,48,0,down,3.4418958999995084,None,space,0.454242299998441,None,,,,,,,,,0,48,48,48,1343.0641438000002,,,,,,,,,,,,,1343.0489405999997,1343.0641438000002,1343.0641438000002,1343.0641438000002,1346.5116968999992,,,,1346.5188937000003,1346.5303122000005,1346.5303122000005,1346.5772517999994,1346.5775052000008,1346.5938640999993,1346.5938640999993,1346.5938640999993,1346.6771726000006,1347.0608296999999,,,,,,,,,,,,,,,,,,,,,,down,3.4418958999995084,None,space,0.454242299998441,None,P107,001,2025-02-13_12h38.22.497,posner_endo_new1,2024.2.4,60.02173987442377,2025-02-13 12h38.43.081737 +0000,
cube_r.png,0.1,10,catch,49,49,0,down,3.3175840999992943,None,None,,,,,,,,,,,0,49,49,49,1347.0767751000003,,,,,,,,,,,,,1347.0610359999991,1347.0767751000003,1347.0767751000003,1347.0767751000003,1350.4072410000008,,,,1350.4145852000001,1350.4264330000005,1350.4264330000005,1350.4733359000002,1350.4736116000004,1350.4897414000006,1350.4897414000006,1350.4897414000006,1350.5561622999994,1353.4873816,,,,1352.5709951000008,1353.5033793999992,1353.5033793999992,1353.5033793999992,,,,,,,,,,,,,,,down,3.3175840999992943,None,None,,,P107,001,2025-02-13_12h38.22.497,posner_endo_new1,2024.2.4,60.02173987442377,2025-02-13 12h38.43.081737 +0000,
cube_l.png,0.1,-0.31,valid,50,50,0,down,0.915410300000076,None,space,0.31940750000103435,None,,,,,,,,,0,50,50,50,1353.5033793999992,,,,,,,,,,,,,1353.4875831000008,1353.5033793999992,1353.5033793999992,1353.5033793999992,1354.4200550999994,,,,1354.427231400001,1354.4390186,1354.4390186,1354.4858354000007,1354.4860953999996,1354.5024847999994,1354.5024847999994,1354.5024847999994,1354.5857914000007,1354.8362232,,,,,,,,,,,,,,,,,,,,,,down,0.915410300000076,None,space,0.31940750000103435,None,P107,001,2025-02-13_12h38.22.497,posner_endo_new1,2024.2.4,60.02173987442377,2025-02-13 12h38.43.081737 +0000,
cube_l.png,0.1,-0.31,valid,51,51,0,down,2.574339800001326,None,space,0.3992307000007713,None,,,,,,,,,0,51,51,51,1354.8520208999998,,,,,,,,,,,,,1354.836431400001,1354.8520208999998,1354.8520208999998,1354.8520208999998,1357.4334669,,,,1357.4404587000008,1357.4521101999999,1357.4521101999999,1357.4995273999994,1357.4997710000007,1357.5159012999993,1357.5159012999993,1357.5159012999993,1357.582672300001,1357.9166072999997,,,,,,,,,,,,,,,,,,,,,,down,2.574339800001326,None,space,0.3992307000007713,None,P107,001,2025-02-13_12h38.22.497,posner_endo_new1,2024.2.4,60.02173987442377,2025-02-13 12h38.43.081737 +0000,
cube_r.png,0.1,-0.31,invalid,52,52,0,down,2.942320500000278,None,space,0.3795998999994481,None,,,,,,,,,0,52,52,52,1357.9321013000008,,,,,,,,,,,,,1357.9168050999997,1357.9321013000008,1357.9321013000008,1357.9321013000008,1360.8801471999996,,,,1360.887217900001,1360.8991165999996,1360.8991165999996,1360.9459714999994,1360.9462172000003,1360.9624968999997,1360.9624968999997,1360.9624968999997,1361.0291297000003,1361.3464313999993,,,,,,,,,,,,,,,,,,,,,,down,2.942320500000278,None,space,0.3795998999994481,None,P107,001,2025-02-13_12h38.22.497,posner_endo_new1,2024.2.4,60.02173987442377,2025-02-13 12h38.43.081737 +0000,
cube_l.png,0.1,-0.31,valid,53,53,0,down,2.7122271999996883,None,space,0.3585952000012185,None,,,,,,,,,0,53,53,53,1361.3622161999992,,,,,,,,,,,,,1361.3466301999997,1361.3622161999992,1361.3622161999992,1361.3622161999992,1364.0769868999996,,,,1364.0840286000002,1364.0957042999999,1364.0957042999999,1364.1426568999996,1364.1431505,1364.1590589000007,1364.1590589000007,1364.1590589000007,1364.2423161000006,1364.5271933999993,,,,,,,,,,,,,,,,,,,,,,down,2.7122271999996883,None,space,0.3585952000012185,None,P107,001,2025-02-13_12h38.22.497,posner_endo_new1,2024.2.4,60.02173987442377,2025-02-13 12h38.43.081737 +0000,
cube_r.png,0.1,10,catch,54,54,0,down,2.9490802999989683,None,None,,,,,,,,,,,0,54,54,54,1364.5420305999996,,,,,,,,,,,,,1364.5276319000004,1364.5420305999996,1364.5420305999996,1364.5420305999996,1367.5069705999995,,,,1367.5161976,1367.5260039999994,1367.5260039999994,1367.5725559000002,1367.5727963999998,1367.5892181,1367.5892181,1367.5892181,1367.6721906999992,1370.5865735000007,,,,1369.6869155000004,1370.6026884999992,1370.6026884999992,1370.6026884999992,,,,,,,,,,,,,,,down,2.9490802999989683,None,None,,,P107,001,2025-02-13_12h38.22.497,posner_endo_new1,2024.2.4,60.02173987442377,2025-02-13 12h38.43.081737 +0000,
cube_l.png,0.1,0.31,invalid,55,55,0,down,0.5606511000005412,None,space,0.3213266000002477,None,,,,,,,,,0,55,55,55,1370.6026884999992,,,,,,,,,,,,,1370.5867603000006,1370.6026884999992,1370.6026884999992,1370.6026884999992,1371.1695175999994,,,,1371.1763893999996,1371.1880990000009,1371.1880990000009,1371.2353342999995,1371.235588900001,1371.2518172,1371.2518172,1371.2518172,1371.3187206000002,1371.5857754000008,,,,,,,,,,,,,,,,,,,,,,down,0.5606511000005412,None,space,0.3213266000002477,None,P107,001,2025-02-13_12h38.22.497,posner_endo_new1,2024.2.4,60.02173987442377,2025-02-13 12h38.43.081737 +0000,
cube_l.png,0.1,-0.31,valid,56,56,0,down,3.1287260000008246,None,space,0.3827414999996108,None,,,,,,,,,0,56,56,56,1371.6019190999996,,,,,,,,,,,,,1371.5859725999999,1371.6019190999996,1371.6019190999996,1371.6019190999996,1374.7325713999999,,,,1374.7392598999995,1374.7511132,1374.7511132,1374.7985786999998,1374.7988120999999,1374.8149324000005,1374.8149324000005,1374.8149324000005,1374.8982178000006,1375.1990188,,,,,,,,,,,,,,,,,,,,,,down,3.1287260000008246,None,space,0.3827414999996108,None,P107,001,2025-02-13_12h38.22.497,posner_endo_new1,2024.2.4,60.02173987442377,2025-02-13 12h38.43.081737 +0000,
cube_r.png,0.1,0.31,valid,57,57,0,down,3.0602600000001985,None,space,0.33852219999971567,None,,,,,,,,,0,57,57,57,1375.2148245999997,,,,,,,,,,,,,1375.1992073000001,1375.2148245999997,1375.2148245999997,1375.2148245999997,1378.2788719,,,,1378.2904913000002,1378.3027717999994,1378.3027717999994,1378.3451798999995,1378.345828900001,1378.3615891000009,1378.3615891000009,1378.3615891000009,1378.4281613999992,1378.7136143999996,,,,,,,,,,,,,,,,,,,,,,down,3.0602600000001985,None,space,0.33852219999971567,None,P107,001,2025-02-13_12h38.22.497,posner_endo_new1,2024.2.4,60.02173987442377,2025-02-13 12h38.43.081737 +0000,
cube_r.png,0.1,-0.31,invalid,58,58,0,down,2.9222728999993706,None,space,0.34721970000100555,None,,,,,,,,,0,58,58,58,1378.7280174000007,,,,,,,,,,,,,1378.7142167000002,1378.7280174000007,1378.7280174000007,1378.7280174000007,1381.6607289000003,,,,1381.6826122000002,1381.6948494999997,1381.6948494999997,1381.7244618000004,1381.7248877000002,1381.7409229000004,1381.7409229000004,1381.7409229000004,1381.8241538999991,1382.0920953000004,,,,,,,,,,,,,,,,,,,,,,down,2.9222728999993706,None,space,0.34721970000100555,None,P107,001,2025-02-13_12h38.22.497,posner_endo_new1,2024.2.4,60.02173987442377,2025-02-13 12h38.43.081737 +0000,
cube_l.png,0.1,0.31,invalid,59,59,0,down,2.919910100001289,None,space,0.39017339999918477,None,,,,,,,,,0,59,59,59,1382.1071952000002,,,,,,,,,,,,,1382.092469700001,1382.1071952000002,1382.1071952000002,1382.1071952000002,1385.0389333000003,,,,1385.0481175999994,1385.0583332999995,1385.0583332999995,1385.1046012999996,1385.1049000000003,1385.1211397999996,1385.1211397999996,1385.1211397999996,1385.2043797999995,1385.5217083000007,,,,,,,,,,,,,,,,,,,,,,down,2.919910100001289,None,space,0.39017339999918477,None,P107,001,2025-02-13_12h38.22.497,posner_endo_new1,2024.2.4,60.02173987442377,2025-02-13 12h38.43.081737 +0000,
