cue_img,cue_soa,target_x,trial,thisN,thisTrialN,thisRepN,key_control2.keys,key_control2.rt,key_control2.duration,key_resp.keys,key_resp.rt,key_resp.duration,practice.thisRepN,practice.thisTrialN,practice.thisN,practice.thisIndex,block1.thisRepN,block1.thisTrialN,block1.thisN,block1.thisIndex,block2.thisRepN,block2.thisTrialN,block2.thisN,block2.thisIndex,thisRow.t,notes,instructions.started,instructions_txt.started,key_control.started,instructions.stopped,key_control.keys,key_control.rt,key_control.duration,ready.started,ready_txt.started,ready_txt.stopped,ready.stopped,fix.started,fixation.started,key_control2.started,fixation_cross.started,fix.stopped,practice.key_control2.keys,practice.key_control2.rt,practice.key_control2.duration,cue.started,cube.started,fixation_cross_cue.started,cue.stopped,target.started,fixation_target.started,fixation_cross_target.started,key_resp.started,star.started,target.stopped,practice.key_resp.keys,practice.key_resp.rt,practice.key_resp.duration,star.stopped,fixation_target.stopped,fixation_cross_target.stopped,key_resp.stopped,block1.key_control2.keys,block1.key_control2.rt,block1.key_control2.duration,block1.key_resp.keys,block1.key_resp.rt,block1.key_resp.duration,break_2.started,text.started,key_control3.started,text.stopped,break_2.stopped,key_control3.keys,key_control3.rt,key_control3.duration,block2.key_control2.keys,block2.key_control2.rt,block2.key_control2.duration,block2.key_resp.keys,block2.key_resp.rt,block2.key_resp.duration,participant,session,date,expName,psychopyVersion,frameRate,expStart,
,,,,,,,,,,,,,,,,,,,,,,,,,,,0.007517799998822738,0.02352669999891077,0.02352669999891077,3362.3425451000003,up,3362.309282799999,None,,,,,,,,,,,,,,,,,,,,,,,,,,,,,,,,,,,,,,,,,,,,,,,,,,P108,001,2025-02-13_13h20.53.901,posner_endo_new1,2024.2.4,59.99152919617801,2025-02-13 13h21.02.582059 +0000,
,,,,,,,,,,,,,,,,,,,,,,,,,,,,,,,,,,3362.3425972999994,3362.3554979,3365.3553412,3365.3363031999997,,,,,,,,,,,,,,,,,,,,,,,,,,,,,,,,,,,,,,,,,,,,,,P108,001,2025-02-13_13h20.53.901,posner_endo_new1,2024.2.4,59.99152919617801,2025-02-13 13h21.02.582059 +0000,
cube_l.png,0.1,-0.31,valid,0,0,0,down,19.449614400000428,None,space,1.2525812000003498,None,0,0,0,0,,,,,,,,,3365.3553412,,,,,,,,,,,,,3365.3437685999997,3365.3553412,3365.3553412,3365.3553412,3384.816772099999,down,19.449614400000428,None,3384.8288648999987,3384.838868699999,3384.838868699999,3384.8826236999994,3384.8828663999993,3384.8991019999994,3384.8991019999994,3384.8991019999994,3384.9658136,3386.1652923,space,1.2525812000003498,None,,,,,,,,,,,,,,,,,,,,,,,,,P108,001,2025-02-13_13h20.53.901,posner_endo_new1,2024.2.4,59.99152919617801,2025-02-13 13h21.02.582059 +0000,
cube_l.png,0.1,0.31,invalid,1,1,0,down,5.847729600000093,None,space,0.4081923999983701,None,0,1,1,1,,,,,,,,,3386.1811983999996,,,,,,,,,,,,,3386.1654648999993,3386.1811983999996,3386.1811983999996,3386.1811983999996,3392.0426637,down,5.847729600000093,None,3392.0487022999987,3392.0601179999994,3392.0601179999994,3392.1083626,3392.108811,3392.1247920999995,3392.1247920999995,3392.1247920999995,3392.2080542000003,3392.5424286999987,space,0.4081923999983701,None,,,,,,,,,,,,,,,,,,,,,,,,,P108,001,2025-02-13_13h20.53.901,posner_endo_new1,2024.2.4,59.99152919617801,2025-02-13 13h21.02.582059 +0000,
cube_r.png,0.1,-0.31,invalid,2,2,0,down,6.566645700000663,None,space,0.3966194999993604,None,0,2,2,2,,,,,,,,,3392.5580026999996,,,,,,,,,,,,,3392.5426571999997,3392.5580026999996,3392.5580026999996,3392.5580026999996,3399.1356617,down,6.566645700000663,None,3399.1442638999997,3399.1545263999997,3399.1545263999997,3399.2014640999987,3399.201765,3399.217960599999,3399.217960599999,3399.217960599999,3399.3012294,3399.6186842999996,space,0.3966194999993604,None,,,,,,,,,,,,,,,,,,,,,,,,,P108,001,2025-02-13_13h20.53.901,posner_endo_new1,2024.2.4,59.99152919617801,2025-02-13 13h21.02.582059 +0000,
cube_r.png,0.1,10,catch,3,3,0,down,2.2425851999996667,None,None,,,0,3,3,3,,,,,,,,,3399.6341197,,,,,,,,,,,,,3399.6189185000003,3399.6341197,3399.6341197,3399.6341197,3401.8827850999987,down,2.2425851999996667,None,3401.8912120999994,3401.9012747999986,3401.9012747999986,3401.948591999999,3401.948897299999,3401.9650715999996,3401.9650715999996,3401.9650715999996,3402.048322999999,3404.962691999999,None,,,3404.0628619,3404.9786000999993,3404.9786000999993,3404.9786000999993,,,,,,,,,,,,,,,,,,,,,P108,001,2025-02-13_13h20.53.901,posner_endo_new1,2024.2.4,59.99152919617801,2025-02-13 13h21.02.582059 +0000,
cube_l.png,0.1,-0.31,valid,4,4,0,down,1.9141248000014457,None,space,0.31796120000035444,None,0,4,4,4,,,,,,,,,3404.9786000999993,,,,,,,,,,,,,3404.9629074000004,3404.9786000999993,3404.9786000999993,3404.9786000999993,3406.8946042999996,down,1.9141248000014457,None,3406.9033003000004,3406.9134845999997,3406.9134845999997,3406.9601695,3406.9604732999996,3406.9766201,3406.9766201,3406.9766201,3407.059927099999,3407.3106742,space,0.31796120000035444,None,,,,,,,,,,,,,,,,,,,,,,,,,P108,001,2025-02-13_13h20.53.901,posner_endo_new1,2024.2.4,59.99152919617801,2025-02-13 13h21.02.582059 +0000,
cube_l.png,0.1,0.31,invalid,5,5,0,down,6.8384662000007665,None,space,0.33803099999931874,None,0,5,5,5,,,,,,,,,3407.3262847999995,,,,,,,,,,,,,3407.310908399999,3407.3262847999995,3407.3262847999995,3407.3262847999995,3414.1703161999994,down,6.8384662000007665,None,3414.178940599999,3414.1891620999995,3414.1891620999995,3414.236008599999,3414.2363048999996,3414.252572199999,3414.252572199999,3414.252572199999,3414.3357338999995,3414.6031973999998,space,0.33803099999931874,None,,,,,,,,,,,,,,,,,,,,,,,,,P108,001,2025-02-13_13h20.53.901,posner_endo_new1,2024.2.4,59.99152919617801,2025-02-13 13h21.02.582059 +0000,
cube_r.png,0.1,-0.31,invalid,6,6,0,down,7.265281899999536,None,space,0.36503239999910875,None,0,6,6,6,,,,,,,,,3414.6189071999997,,,,,,,,,,,,,3414.6034218000004,3414.6189071999997,3414.6189071999997,3414.6189071999997,3421.8956739999994,down,7.265281899999536,None,3421.9042011,3421.9143907,3421.9143907,3421.9615818,3421.9618821000004,3421.9779836999987,3421.9779836999987,3421.9779836999987,3422.061268899999,3422.3453981000002,space,0.36503239999910875,None,,,,,,,,,,,,,,,,,,,,,,,,,P108,001,2025-02-13_13h20.53.901,posner_endo_new1,2024.2.4,59.99152919617801,2025-02-13 13h21.02.582059 +0000,
cube_r.png,0.1,0.31,valid,7,7,0,down,6.259908400001223,None,space,0.4193349999986822,None,0,7,7,7,,,,,,,,,3422.3608585,,,,,,,,,,,,,3422.3456313999995,3422.3608585,3422.3608585,3422.3608585,3428.6223161999987,down,6.259908400001223,None,3428.6309664,3428.6412038,3428.6412038,3428.6878825000003,3428.6881863,3428.704455699999,3428.704455699999,3428.704455699999,3428.7878266999996,3429.1383597000004,space,0.4193349999986822,None,,,,,,,,,,,,,,,,,,,,,,,,,P108,001,2025-02-13_13h20.53.901,posner_endo_new1,2024.2.4,59.99152919617801,2025-02-13 13h21.02.582059 +0000,
cube_l.png,0.1,-0.31,valid,8,8,0,down,6.882789100000082,None,space,0.3577330999996775,None,0,8,8,8,,,,,,,,,3429.1540556,,,,,,,,,,,,,3429.1385892,3429.1540556,3429.1540556,3429.1540556,3436.0479149000003,down,6.882789100000082,None,3436.0565294999997,3436.0668382999993,3436.0668382999993,3436.1136198000004,3436.1139219999986,3436.1301545999995,3436.1301545999995,3436.1301545999995,3436.213439199999,3436.4974949999996,space,0.3577330999996775,None,,,,,,,,,,,,,,,,,,,,,,,,,P108,001,2025-02-13_13h20.53.901,posner_endo_new1,2024.2.4,59.99152919617801,2025-02-13 13h21.02.582059 +0000,
cube_r.png,0.1,-0.31,invalid,9,9,0,down,6.467639300000883,None,space,0.2527016999993066,None,0,9,9,9,,,,,,,,,3436.5131354999994,,,,,,,,,,,,,3436.497731199999,3436.5131354999994,3436.5131354999994,3436.5131354999994,3442.9907599999988,down,6.467639300000883,None,3442.9993089,3443.0094479,3443.0094479,3443.0565447999998,3443.0568423999994,3443.0731326999994,3443.0731326999994,3443.0731326999994,3443.1563004,3443.3405416999994,space,0.2527016999993066,None,,,,,,,,,,,,,,,,,,,,,,,,,P108,001,2025-02-13_13h20.53.901,posner_endo_new1,2024.2.4,59.99152919617801,2025-02-13 13h21.02.582059 +0000,
cube_r.png,0.1,0.31,valid,10,10,0,down,7.056662500001039,None,space,0.2568114000005153,None,0,10,10,10,,,,,,,,,3443.3561197,,,,,,,,,,,,,3443.3407735,3443.3561197,3443.3561197,3443.3561197,3450.4166160000004,down,7.056662500001039,None,3450.4252187,3450.4355139,3450.4355139,3450.482319999999,3450.482618599999,3450.4988199,3450.4988199,3450.4988199,3450.5820977999992,3450.766249099999,space,0.2568114000005153,None,,,,,,,,,,,,,,,,,,,,,,,,,P108,001,2025-02-13_13h20.53.901,posner_endo_new1,2024.2.4,59.99152919617801,2025-02-13 13h21.02.582059 +0000,
,,,,,,,,,,,,,,,,,,,,,,,,,,,,,,,,,,3450.766398599999,3450.7818233,3453.7913830999987,3453.7625907,,,,,,,,,,,,,,,,,,,,,,,,,,,,,,,,,,,,,,,,,,,,,,P108,001,2025-02-13_13h20.53.901,posner_endo_new1,2024.2.4,59.99152919617801,2025-02-13 13h21.02.582059 +0000,
cube_l.png,0.1,10,catch,0,0,0,down,8.32606719999967,None,None,,,,,,,0,0,0,0,,,,,3453.7913830999987,,,,,,,,,,,,,3453.7823284999995,3453.7913830999987,3453.7913830999987,3453.7913830999987,3462.121220199999,,,,3462.1271694999996,3462.1387629,3462.1387629,3462.1870660000004,3462.1873060999988,3462.2036647999994,3462.2036647999994,3462.2036647999994,3462.287097999999,3465.2010360000004,,,,3464.3014114999987,3465.217155099999,3465.217155099999,3465.217155099999,down,8.32606719999967,None,None,,,,,,,,,,,,,,,,,P108,001,2025-02-13_13h20.53.901,posner_endo_new1,2024.2.4,59.99152919617801,2025-02-13 13h21.02.582059 +0000,
cube_l.png,0.1,10,catch,1,1,0,down,1.9958540000006906,None,None,,,,,,,0,1,1,1,,,,,3465.217155099999,,,,,,,,,,,,,3465.2012048999986,3465.217155099999,3465.217155099999,3465.217155099999,3467.2159469,,,,3467.2218835000003,3467.2335876999987,3467.2335876999987,3467.2817949,3467.2820319,3467.298319399999,3467.298319399999,3467.298319399999,3467.3816048999997,3470.295621899999,,,,3469.3962168999988,3470.3119886000004,3470.3119886000004,3470.3119886000004,down,1.9958540000006906,None,None,,,,,,,,,,,,,,,,,P108,001,2025-02-13_13h20.53.901,posner_endo_new1,2024.2.4,59.99152919617801,2025-02-13 13h21.02.582059 +0000,
cube_l.png,0.1,0.31,invalid,2,2,0,down,4.452359999999317,None,space,0.3471389000005729,None,,,,,0,2,2,2,,,,,3470.3119886000004,,,,,,,,,,,,,3470.29579,3470.3119886000004,3470.3119886000004,3470.3119886000004,3474.7748383,,,,3474.7808661,3474.7925398999996,3474.7925398999996,3474.840610699999,3474.8408462999996,3474.8573087999994,3474.8573087999994,3474.8573087999994,3474.923874599999,3475.2077744,,,,,,,,down,4.452359999999317,None,space,0.3471389000005729,None,,,,,,,,,,,,,,,P108,001,2025-02-13_13h20.53.901,posner_endo_new1,2024.2.4,59.99152919617801,2025-02-13 13h21.02.582059 +0000,
cube_l.png,0.1,0.31,invalid,3,3,0,down,2.893651799999134,None,space,0.6047674999990704,None,,,,,0,3,3,3,,,,,3475.2235695,,,,,,,,,,,,,3475.207954199999,3475.2235695,3475.2235695,3475.2235695,3478.1214929,,,,3478.127473299999,3478.139014799999,3478.139014799999,3478.187373499999,3478.187609299999,3478.2037693,3478.2037693,3478.2037693,3478.2704751,3478.8205633,,,,,,,,down,2.893651799999134,None,space,0.6047674999990704,None,,,,,,,,,,,,,,,P108,001,2025-02-13_13h20.53.901,posner_endo_new1,2024.2.4,59.99152919617801,2025-02-13 13h21.02.582059 +0000,
cube_l.png,0.1,-0.31,valid,4,4,0,down,5.232581100000971,None,space,0.2445181999992201,None,,,,,0,4,4,4,,,,,3478.8365648,,,,,,,,,,,,,3478.820748599999,3478.8365648,3478.8365648,3478.8365648,3484.082193799999,,,,3484.0915300999986,3484.1017756,3484.1017756,3484.1479203,3484.148243399999,3484.164477999999,3484.164477999999,3484.164477999999,3484.2476702999993,3484.4154492,,,,,,,,down,5.232581100000971,None,space,0.2445181999992201,None,,,,,,,,,,,,,,,P108,001,2025-02-13_13h20.53.901,posner_endo_new1,2024.2.4,59.99152919617801,2025-02-13 13h21.02.582059 +0000,
cube_r.png,0.1,-0.31,invalid,5,5,0,down,5.781784099999641,None,space,0.24394790000042121,None,,,,,0,5,5,5,,,,,3484.4308485,,,,,,,,,,,,,3484.4157048999987,3484.4308485,3484.4308485,3484.4308485,3490.226065699999,,,,3490.2338946,3490.2444613999996,3490.2444613999996,3490.2916613999987,3490.2921902,3490.3079997999994,3490.3079997999994,3490.3079997999994,3490.3912676,3490.559797099999,,,,,,,,down,5.781784099999641,None,space,0.24394790000042121,None,,,,,,,,,,,,,,,P108,001,2025-02-13_13h20.53.901,posner_endo_new1,2024.2.4,59.99152919617801,2025-02-13 13h21.02.582059 +0000,
cube_r.png,0.1,0.31,valid,6,6,0,down,5.222917300001427,None,space,0.4313497000002826,None,,,,,0,6,6,6,,,,,3490.5744182,,,,,,,,,,,,,3490.5602851999993,3490.5744182,3490.5744182,3490.5744182,3495.803707199999,,,,3495.813257,3495.8229938000004,3495.8229938000004,3495.8693249999997,3495.8695793999996,3495.8856552999987,3495.8856552999987,3495.8856552999987,3495.969163399999,3496.3195538,,,,,,,,down,5.222917300001427,None,space,0.4313497000002826,None,,,,,,,,,,,,,,,P108,001,2025-02-13_13h20.53.901,posner_endo_new1,2024.2.4,59.99152919617801,2025-02-13 13h21.02.582059 +0000,
cube_r.png,0.1,-0.31,invalid,7,7,0,down,9.029438499999742,None,space,0.27868909999961033,None,,,,,0,7,7,7,,,,,3496.3355530999997,,,,,,,,,,,,,3496.3197468,3496.3355530999997,3496.3355530999997,3496.3355530999997,3505.376892799999,,,,3505.383603,3505.3953997999997,3505.3953997999997,3505.442825099999,3505.4430691,3505.459207,3505.459207,3505.459207,3505.5260132000003,3505.743113499999,,,,,,,,down,9.029438499999742,None,space,0.27868909999961033,None,,,,,,,,,,,,,,,P108,001,2025-02-13_13h20.53.901,posner_endo_new1,2024.2.4,59.99152919617801,2025-02-13 13h21.02.582059 +0000,
cube_l.png,0.1,-0.31,valid,8,8,0,down,6.862199600000167,None,space,0.23165579999840702,None,,,,,0,8,8,8,,,,,3505.759032599999,,,,,,,,,,,,,3505.7433041000004,3505.759032599999,3505.759032599999,3505.759032599999,3512.6363389,,,,3512.64301,3512.6549939999986,3512.6549939999986,3512.7020673999996,3512.7023117999997,3512.7186592999988,3512.7186592999988,3512.7186592999988,3512.8018587999995,3512.9525051,,,,,,,,down,6.862199600000167,None,space,0.23165579999840702,None,,,,,,,,,,,,,,,P108,001,2025-02-13_13h20.53.901,posner_endo_new1,2024.2.4,59.99152919617801,2025-02-13 13h21.02.582059 +0000,
cube_r.png,0.1,-0.31,invalid,9,9,0,down,7.1168598999993264,None,space,0.14268660000016098,None,,,,,0,9,9,9,,,,,3512.9683547000004,,,,,,,,,,,,,3512.952691299999,3512.9683547000004,3512.9683547000004,3512.9683547000004,3520.0950415999996,,,,3520.101671799999,3520.1133128,3520.1133128,3520.1609842999987,3520.1612308999993,3520.1776339999997,3520.1776339999997,3520.1776339999997,3520.2442911,3520.3283498,,,,,,,,down,7.1168598999993264,None,space,0.14268660000016098,None,,,,,,,,,,,,,,,P108,001,2025-02-13_13h20.53.901,posner_endo_new1,2024.2.4,59.99152919617801,2025-02-13 13h21.02.582059 +0000,
cube_l.png,0.1,0.31,invalid,10,10,0,down,3.588895099999718,None,space,0.3362390000002051,None,,,,,0,10,10,10,,,,,3520.344145199999,,,,,,,,,,,,,3520.328542899999,3520.344145199999,3520.344145199999,3520.344145199999,3523.9413633000004,,,,3523.9479761000002,3523.9597262999996,3523.9597262999996,3524.0072499,3524.007491299999,3524.0237051000004,3524.0237051000004,3524.0237051000004,3524.1070182999993,3524.3742067999992,,,,,,,,down,3.588895099999718,None,space,0.3362390000002051,None,,,,,,,,,,,,,,,P108,001,2025-02-13_13h20.53.901,posner_endo_new1,2024.2.4,59.99152919617801,2025-02-13 13h21.02.582059 +0000,
cube_r.png,0.1,-0.31,invalid,11,11,0,down,4.814480299999559,None,space,0.31455629999982193,None,,,,,0,11,11,11,,,,,3524.3900684,,,,,,,,,,,,,3524.3743840999996,3524.3900684,3524.3900684,3524.3900684,3529.2191693000004,,,,3529.2251292,3529.236700899999,3529.236700899999,3529.2851711000003,3529.285412899999,3529.3015161999992,3529.3015161999992,3529.3015161999992,3529.368203599999,3529.6187515,,,,,,,,down,4.814480299999559,None,space,0.31455629999982193,None,,,,,,,,,,,,,,,P108,001,2025-02-13_13h20.53.901,posner_endo_new1,2024.2.4,59.99152919617801,2025-02-13 13h21.02.582059 +0000,
cube_r.png,0.1,0.31,valid,12,12,0,down,5.6748797000000195,None,space,0.25853689999894414,None,,,,,0,12,12,12,,,,,3529.634555299999,,,,,,,,,,,,,3529.6189330999987,3529.634555299999,3529.634555299999,3529.634555299999,3535.3130996,,,,3535.3190987,3535.3306218999987,3535.3306218999987,3535.3789374999997,3535.3791739999997,3535.3954637999996,3535.3954637999996,3535.3954637999996,3535.4786409999997,3535.6626658999994,,,,,,,,down,5.6748797000000195,None,space,0.25853689999894414,None,,,,,,,,,,,,,,,P108,001,2025-02-13_13h20.53.901,posner_endo_new1,2024.2.4,59.99152919617801,2025-02-13 13h21.02.582059 +0000,
cube_l.png,0.1,10,catch,13,13,0,down,6.166326200000185,None,None,,,,,,,0,13,13,13,,,,,3535.6784150999993,,,,,,,,,,,,,3535.6628454,3535.6784150999993,3535.6784150999993,3535.6784150999993,3541.8564086999995,,,,3541.8624578,3541.873980299999,3541.873980299999,3541.9221223000004,3541.9223571,3541.9388242999994,3541.9388242999994,3541.9388242999994,3542.022057799999,3544.936182399999,,,,3544.0367029999998,3544.9524177999992,3544.9524177999992,3544.9524177999992,down,6.166326200000185,None,None,,,,,,,,,,,,,,,,,P108,001,2025-02-13_13h20.53.901,posner_endo_new1,2024.2.4,59.99152919617801,2025-02-13 13h21.02.582059 +0000,
cube_r.png,0.1,-0.31,invalid,14,14,0,down,1.9324797999997827,None,space,0.3202622999997402,None,,,,,0,14,14,14,,,,,3544.9524177999992,,,,,,,,,,,,,3544.9363507,3544.9524177999992,3544.9524177999992,3544.9524177999992,3546.9011348000004,,,,3546.907066599999,3546.9187211999997,3546.9187211999997,3546.9670251999996,3546.9672613000002,3546.9835853999994,3546.9835853999994,3546.9835853999994,3547.050100799999,3547.3175978,,,,,,,,down,1.9324797999997827,None,space,0.3202622999997402,None,,,,,,,,,,,,,,,P108,001,2025-02-13_13h20.53.901,posner_endo_new1,2024.2.4,59.99152919617801,2025-02-13 13h21.02.582059 +0000,
cube_l.png,0.1,-0.31,valid,15,15,0,down,5.928133199999138,None,space,0.36930199999915203,None,,,,,0,15,15,15,,,,,3547.333260899999,,,,,,,,,,,,,3547.3177784,3547.333260899999,3547.333260899999,3547.333260899999,3553.278004599999,,,,3553.2839870999996,3553.295441299999,3553.295441299999,3553.3438155999993,3553.3440505,3553.3604204999992,3553.3604204999992,3553.3604204999992,3553.443685099999,3553.7439445,,,,,,,,down,5.928133199999138,None,space,0.36930199999915203,None,,,,,,,,,,,,,,,P108,001,2025-02-13_13h20.53.901,posner_endo_new1,2024.2.4,59.99152919617801,2025-02-13 13h21.02.582059 +0000,
cube_r.png,0.1,10,catch,16,16,0,down,4.860741100001178,None,space,0.3499740999995993,None,,,,,0,16,16,16,,,,,3553.7600857999987,,,,,,,,,,,,,3553.7441290999996,3553.7600857999987,3553.7600857999987,3553.7600857999987,3558.6225932999987,,,,3558.6285688999997,3558.640137999999,3558.640137999999,3558.688381,3558.688618099999,3558.704995599999,3558.704995599999,3558.704995599999,3558.7715823,3559.0719750999997,,,,,,,,down,4.860741100001178,None,space,0.3499740999995993,None,,,,,,,,,,,,,,,P108,001,2025-02-13_13h20.53.901,posner_endo_new1,2024.2.4,59.99152919617801,2025-02-13 13h21.02.582059 +0000,
cube_r.png,0.1,10,catch,17,17,0,down,4.660714999999982,None,None,,,,,,,0,17,17,17,,,,,3559.087864199999,,,,,,,,,,,,,3559.072158699999,3559.087864199999,3559.087864199999,3559.087864199999,3563.7506983000003,,,,3563.7567015999994,3563.7683457000003,3563.7683457000003,3563.816511199999,3563.816748899999,3563.833069299999,3563.833069299999,3563.833069299999,3563.916376899999,3566.8305877000003,,,,3565.9308557000004,3566.846598099999,3566.846598099999,3566.846598099999,down,4.660714999999982,None,None,,,,,,,,,,,,,,,,,P108,001,2025-02-13_13h20.53.901,posner_endo_new1,2024.2.4,59.99152919617801,2025-02-13 13h21.02.582059 +0000,
cube_l.png,0.1,0.31,invalid,18,18,0,down,2.438675699999294,None,space,0.4730995999998413,None,,,,,0,18,18,18,,,,,3566.846598099999,,,,,,,,,,,,,3566.830756199999,3566.846598099999,3566.846598099999,3566.846598099999,3569.2948933999996,,,,3569.3009559,3569.3125026999987,3569.3125026999987,3569.3608896999995,3569.361127799999,3569.3775102,3569.3775102,3569.3775102,3569.4440283000004,3569.8611323999994,,,,,,,,down,2.438675699999294,None,space,0.4730995999998413,None,,,,,,,,,,,,,,,P108,001,2025-02-13_13h20.53.901,posner_endo_new1,2024.2.4,59.99152919617801,2025-02-13 13h21.02.582059 +0000,
cube_l.png,0.1,10,catch,19,19,0,down,4.071486799999548,None,None,,,,,,,0,19,19,19,,,,,3569.8769206999987,,,,,,,,,,,,,3569.8613171999987,3569.8769206999987,3569.8769206999987,3569.8769206999987,3573.9568027999994,,,,3573.962769399999,3573.9743105,3573.9743105,3574.022708999999,3574.0229452999993,3574.0392446999995,3574.0392446999995,3574.0392446999995,3574.1225541999993,3577.0366897999993,,,,3576.1370682999986,3577.0528068999993,3577.0528068999993,3577.0528068999993,down,4.071486799999548,None,None,,,,,,,,,,,,,,,,,P108,001,2025-02-13_13h20.53.901,posner_endo_new1,2024.2.4,59.99152919617801,2025-02-13 13h21.02.582059 +0000,
cube_l.png,0.1,0.31,invalid,20,20,0,down,1.6563622000012401,None,space,0.38495679999869026,None,,,,,0,20,20,20,,,,,3577.0528068999993,,,,,,,,,,,,,3577.036859599999,3577.0528068999993,3577.0528068999993,3577.0528068999993,3578.718776399999,,,,3578.724812299999,3578.736454099999,3578.736454099999,3578.784470999999,3578.784705099999,3578.8011064,3578.8011064,3578.8011064,3578.8843631,3579.2013652999995,,,,,,,,down,1.6563622000012401,None,space,0.38495679999869026,None,,,,,,,,,,,,,,,P108,001,2025-02-13_13h20.53.901,posner_endo_new1,2024.2.4,59.99152919617801,2025-02-13 13h21.02.582059 +0000,
cube_l.png,0.1,-0.31,valid,21,21,0,down,4.995198399999936,None,space,0.3981714000001375,None,,,,,0,21,21,21,,,,,3579.2176044999997,,,,,,,,,,,,,3579.2015426,3579.2176044999997,3579.2176044999997,3579.2176044999997,3584.2298166,,,,3584.2357739,3584.2471891999994,3584.2471891999994,3584.2956978,3584.2959465000004,3584.312055799999,3584.312055799999,3584.312055799999,3584.395230099999,3584.7125159999996,,,,,,,,down,4.995198399999936,None,space,0.3981714000001375,None,,,,,,,,,,,,,,,P108,001,2025-02-13_13h20.53.901,posner_endo_new1,2024.2.4,59.99152919617801,2025-02-13 13h21.02.582059 +0000,
cube_r.png,0.1,0.31,valid,22,22,0,down,5.084656999999424,None,space,0.283754999998564,None,,,,,0,22,22,22,,,,,3584.7283754,,,,,,,,,,,,,3584.712698899999,3584.7283754,3584.7283754,3584.7283754,3589.824162499999,,,,3589.832478999999,3589.8425688999996,3589.8425688999996,3589.8898212999993,3589.8900569999987,3589.9064564,3589.9064564,3589.9064564,3589.9896255999993,3590.206886599999,,,,,,,,down,5.084656999999424,None,space,0.283754999998564,None,,,,,,,,,,,,,,,P108,001,2025-02-13_13h20.53.901,posner_endo_new1,2024.2.4,59.99152919617801,2025-02-13 13h21.02.582059 +0000,
cube_r.png,0.1,-0.31,invalid,23,23,0,down,3.1019827000000078,None,space,0.3059241999999358,None,,,,,0,23,23,23,,,,,3590.222696499999,,,,,,,,,,,,,3590.2070645000003,3590.222696499999,3590.222696499999,3590.222696499999,3593.3370087999992,,,,3593.3433386999986,3593.354940199999,3593.354940199999,3593.4029861,3593.403221499999,3593.4194946999996,3593.4194946999996,3593.4194946999996,3593.4859708000004,3593.7367354999988,,,,,,,,down,3.1019827000000078,None,space,0.3059241999999358,None,,,,,,,,,,,,,,,P108,001,2025-02-13_13h20.53.901,posner_endo_new1,2024.2.4,59.99152919617801,2025-02-13 13h21.02.582059 +0000,
cube_r.png,0.1,0.31,valid,24,24,0,down,4.716208899999401,None,space,0.3233444999987114,None,,,,,0,24,24,24,,,,,3593.7524643999986,,,,,,,,,,,,,3593.7369101000004,3593.7524643999986,3593.7524643999986,3593.7524643999986,3598.4817188999987,,,,3598.4879506999987,3598.4996833999994,3598.4996833999994,3598.547634999999,3598.5478728999988,3598.5642098999997,3598.5642098999997,3598.5642098999997,3598.6307834,3598.8978035,,,,,,,,down,4.716208899999401,None,space,0.3233444999987114,None,,,,,,,,,,,,,,,P108,001,2025-02-13_13h20.53.901,posner_endo_new1,2024.2.4,59.99152919617801,2025-02-13 13h21.02.582059 +0000,
cube_r.png,0.1,-0.31,invalid,25,25,0,down,3.6192537999995693,None,space,0.44077499999912106,None,,,,,0,25,25,25,,,,,3598.9138573,,,,,,,,,,,,,3598.8979851999993,3598.9138573,3598.9138573,3598.9138573,3602.5441467,,,,3602.5504829,3602.5620369999997,3602.5620369999997,3602.6101149999995,3602.6103487,3602.626790799999,3602.626790799999,3602.626790799999,3602.6932355999998,3603.0771332999993,,,,,,,,down,3.6192537999995693,None,space,0.44077499999912106,None,,,,,,,,,,,,,,,P108,001,2025-02-13_13h20.53.901,posner_endo_new1,2024.2.4,59.99152919617801,2025-02-13 13h21.02.582059 +0000,
cube_l.png,0.1,-0.31,valid,26,26,0,down,4.608228699999017,None,space,1.722953000000416,None,,,,,0,26,26,26,,,,,3603.0929527999997,,,,,,,,,,,,,3603.077312399999,3603.0929527999997,3603.0929527999997,3603.0929527999997,3607.7057754999987,,,,3607.712128199999,3607.723672599999,3607.723672599999,3607.771623299999,3607.7718601999986,3607.7879937999987,3607.7879937999987,3607.7879937999987,3607.8547149999995,3609.5204531,,,,,,,,down,4.608228699999017,None,space,1.722953000000416,None,,,,,,,,,,,,,,,P108,001,2025-02-13_13h20.53.901,posner_endo_new1,2024.2.4,59.99152919617801,2025-02-13 13h21.02.582059 +0000,
cube_r.png,0.1,0.31,valid,27,27,0,down,5.332916700001078,None,space,0.31693319999976666,None,,,,,0,27,27,27,,,,,3609.5363036,,,,,,,,,,,,,3609.520632399999,3609.5363036,3609.5363036,3609.5363036,3614.8815933999995,,,,3614.8879337,3614.8994488999997,3614.8994488999997,3614.947628,3614.9478688,3614.9640746999994,3614.9640746999994,3614.9640746999994,3615.030709999999,3615.298065699999,,,,,,,,down,5.332916700001078,None,space,0.31693319999976666,None,,,,,,,,,,,,,,,P108,001,2025-02-13_13h20.53.901,posner_endo_new1,2024.2.4,59.99152919617801,2025-02-13 13h21.02.582059 +0000,
cube_r.png,0.1,10,catch,28,28,0,down,4.595077500000116,None,space,0.3339663000006112,None,,,,,0,28,28,28,,,,,3615.3138418,,,,,,,,,,,,,3615.2982541,3615.3138418,3615.3138418,3615.3138418,3619.9100117,,,,3619.9162994,3619.9279401000003,3619.9279401000003,3619.9756641000004,3619.9758996,3619.992404499999,3619.992404499999,3619.992404499999,3620.0756223999997,3620.3427754000004,,,,,,,,down,4.595077500000116,None,space,0.3339663000006112,None,,,,,,,,,,,,,,,P108,001,2025-02-13_13h20.53.901,posner_endo_new1,2024.2.4,59.99152919617801,2025-02-13 13h21.02.582059 +0000,
cube_r.png,0.1,0.31,valid,29,29,0,down,9.157926299998508,None,space,0.4248848999995971,None,,,,,0,29,29,29,,,,,3620.3585717999995,,,,,,,,,,,,,3620.3429541999994,3620.3585717999995,3620.3585717999995,3620.3585717999995,3629.533474599999,,,,3629.5398093000003,3629.5512739999995,3629.5512739999995,3629.5993390999993,3629.5995769,3629.6158238999997,3629.6158238999997,3629.6158238999997,3629.6990190999986,3630.0494693,,,,,,,,down,9.157926299998508,None,space,0.4248848999995971,None,,,,,,,,,,,,,,,P108,001,2025-02-13_13h20.53.901,posner_endo_new1,2024.2.4,59.99152919617801,2025-02-13 13h21.02.582059 +0000,
cube_r.png,0.1,0.31,valid,30,30,0,down,3.6036603000011382,None,space,0.4421445000007225,None,,,,,0,30,30,30,,,,,3630.0652849999988,,,,,,,,,,,,,3630.0496468,3630.0652849999988,3630.0652849999988,3630.0652849999988,3633.6794291999995,,,,3633.6889422000004,3633.6993034999996,3633.6993034999996,3633.7450766,3633.7453920999997,3633.7615803999997,3633.7615803999997,3633.7615803999997,3633.8448100999994,3634.212412699999,,,,,,,,down,3.6036603000011382,None,space,0.4421445000007225,None,,,,,,,,,,,,,,,P108,001,2025-02-13_13h20.53.901,posner_endo_new1,2024.2.4,59.99152919617801,2025-02-13 13h21.02.582059 +0000,
cube_l.png,0.1,-0.31,valid,31,31,0,down,6.177699100000609,None,space,0.40642210000078194,None,,,,,0,31,31,31,,,,,3634.2277041999987,,,,,,,,,,,,,3634.212680499999,3634.2277041999987,3634.2277041999987,3634.2277041999987,3640.422442699999,,,,3640.431826099999,3640.4419409,3640.4419409,3640.4882087999995,3640.4885372999997,3640.5047015,3640.5047015,3640.5047015,3640.5878768000002,3640.9220284000003,,,,,,,,down,6.177699100000609,None,space,0.40642210000078194,None,,,,,,,,,,,,,,,P108,001,2025-02-13_13h20.53.901,posner_endo_new1,2024.2.4,59.99152919617801,2025-02-13 13h21.02.582059 +0000,
cube_r.png,0.1,0.31,valid,32,32,0,down,4.827729000000545,None,space,0.2348201999993762,None,,,,,0,32,32,32,,,,,3640.9375717000003,,,,,,,,,,,,,3640.9222900000004,3640.9375717000003,3640.9375717000003,3640.9375717000003,3645.7672857,,,,3645.776729899999,3645.787252799999,3645.787252799999,3645.8327394999997,3645.8330563,3645.8492430999995,3645.8492430999995,3645.8492430999995,3645.932510999999,3646.1001625999997,,,,,,,,down,4.827729000000545,None,space,0.2348201999993762,None,,,,,,,,,,,,,,,P108,001,2025-02-13_13h20.53.901,posner_endo_new1,2024.2.4,59.99152919617801,2025-02-13 13h21.02.582059 +0000,
cube_r.png,0.1,-0.31,invalid,33,33,0,down,3.2573458000006212,None,space,0.43439570000009553,None,,,,,0,33,33,33,,,,,3646.115618599999,,,,,,,,,,,,,3646.1004195999994,3646.115618599999,3646.115618599999,3646.115618599999,3649.3801824,,,,3649.3895873,3649.3999231999987,3649.3999231999987,3649.4456857999994,3649.4460177,3649.4622741000003,3649.4622741000003,3649.4622741000003,3649.5454102999993,3649.912828299999,,,,,,,,down,3.2573458000006212,None,space,0.43439570000009553,None,,,,,,,,,,,,,,,P108,001,2025-02-13_13h20.53.901,posner_endo_new1,2024.2.4,59.99152919617801,2025-02-13 13h21.02.582059 +0000,
cube_r.png,0.1,10,catch,34,34,0,down,4.180459399998654,None,space,0.32128759999977774,None,,,,,0,34,34,34,,,,,3649.9284183,,,,,,,,,,,,,3649.9130917,3649.9284183,3649.9284183,3649.9284183,3654.1253185999994,,,,3654.134803699999,3654.1447979999994,3654.1447979999994,3654.1907926999993,3654.1911179,3654.207366999999,3654.207366999999,3654.207366999999,3654.2905202,3654.5414643999993,,,,,,,,down,4.180459399998654,None,space,0.32128759999977774,None,,,,,,,,,,,,,,,P108,001,2025-02-13_13h20.53.901,posner_endo_new1,2024.2.4,59.99152919617801,2025-02-13 13h21.02.582059 +0000,
cube_r.png,0.1,0.31,valid,35,35,0,down,5.000583400000323,None,space,0.5783320000009553,None,,,,,0,35,35,35,,,,,3654.5570055999997,,,,,,,,,,,,,3654.5417299,3654.5570055999997,3654.5570055999997,3654.5570055999997,3659.5696670999987,,,,3659.5791221,3659.5895143,3659.5895143,3659.635256399999,3659.6355798999994,3659.6518878999996,3659.6518878999996,3659.6518878999996,3659.735014,3660.235831599999,,,,,,,,down,5.000583400000323,None,space,0.5783320000009553,None,,,,,,,,,,,,,,,P108,001,2025-02-13_13h20.53.901,posner_endo_new1,2024.2.4,59.99152919617801,2025-02-13 13h21.02.582059 +0000,
cube_r.png,0.1,-0.31,invalid,36,36,0,down,6.17850560000079,None,space,0.3915178000006563,None,,,,,0,36,36,36,,,,,3660.2512112999993,,,,,,,,,,,,,3660.2360904999987,3660.2512112999993,3660.2512112999993,3660.2512112999993,3666.445944699999,,,,3666.453885499999,3666.4643806999993,3666.4643806999993,3666.5115736999996,3666.5118101999997,3666.5281717999987,3666.5281717999987,3666.5281717999987,3666.6113886000003,3666.9284138000003,,,,,,,,down,6.17850560000079,None,space,0.3915178000006563,None,,,,,,,,,,,,,,,P108,001,2025-02-13_13h20.53.901,posner_endo_new1,2024.2.4,59.99152919617801,2025-02-13 13h21.02.582059 +0000,
cube_l.png,0.1,0.31,invalid,37,37,0,down,2.748835099999269,None,space,0.5005296999988786,None,,,,,0,37,37,37,,,,,3666.9443573999997,,,,,,,,,,,,,3666.9285968000004,3666.9443573999997,3666.9443573999997,3666.9443573999997,3669.7089235999993,,,,3669.715210999999,3669.726724799999,3669.726724799999,3669.7750161999993,3669.7752514999993,3669.791385499999,3669.791385499999,3669.791385499999,3669.8579458999993,3670.308366199999,,,,,,,,down,2.748835099999269,None,space,0.5005296999988786,None,,,,,,,,,,,,,,,P108,001,2025-02-13_13h20.53.901,posner_endo_new1,2024.2.4,59.99152919617801,2025-02-13 13h21.02.582059 +0000,
cube_l.png,0.1,0.31,invalid,38,38,0,down,4.888957700000901,None,space,0.3368632000001526,None,,,,,0,38,38,38,,,,,3670.324297899999,,,,,,,,,,,,,3670.3085498,3670.324297899999,3670.324297899999,3670.324297899999,3675.2201205,,,,3675.2264813,3675.238099299999,3675.238099299999,3675.286241599999,3675.2864854,3675.3024035,3675.3024035,3675.3024035,3675.385754499999,3675.6529491,,,,,,,,down,4.888957700000901,None,space,0.3368632000001526,None,,,,,,,,,,,,,,,P108,001,2025-02-13_13h20.53.901,posner_endo_new1,2024.2.4,59.99152919617801,2025-02-13 13h21.02.582059 +0000,
cube_r.png,0.1,0.31,valid,39,39,0,down,5.7363382000003185,None,space,0.2858391000008851,None,,,,,0,39,39,39,,,,,3675.6688467000004,,,,,,,,,,,,,3675.653124999999,3675.6688467000004,3675.6688467000004,3675.6688467000004,3681.4135601999988,,,,3681.4198701999994,3681.4312911999987,3681.4312911999987,3681.4796441,3681.4799028999987,3681.4960570999992,3681.4960570999992,3681.4960570999992,3681.5628082999992,3681.7968287000003,,,,,,,,down,5.7363382000003185,None,space,0.2858391000008851,None,,,,,,,,,,,,,,,P108,001,2025-02-13_13h20.53.901,posner_endo_new1,2024.2.4,59.99152919617801,2025-02-13 13h21.02.582059 +0000,
cube_l.png,0.1,0.31,invalid,40,40,0,down,4.1130221000003075,None,space,0.3558238999994501,None,,,,,0,40,40,40,,,,,3681.8125249000004,,,,,,,,,,,,,3681.7970126,3681.8125249000004,3681.8125249000004,3681.8125249000004,3685.942420199999,,,,3685.9487107999994,3685.9601908999994,3685.9601908999994,3686.0083596000004,3686.0085953,3686.0248221,3686.0248221,3686.0248221,3686.0914279999997,3686.391784199999,,,,,,,,down,4.1130221000003075,None,space,0.3558238999994501,None,,,,,,,,,,,,,,,P108,001,2025-02-13_13h20.53.901,posner_endo_new1,2024.2.4,59.99152919617801,2025-02-13 13h21.02.582059 +0000,
cube_l.png,0.1,10,catch,41,41,0,down,2.7819342000002507,None,None,,,,,,,0,41,41,41,,,,,3686.407821999999,,,,,,,,,,,,,3686.3919609000004,3686.407821999999,3686.407821999999,3686.407821999999,3689.205743999999,,,,3689.212044099999,3689.2237291,3689.2237291,3689.271632099999,3689.2718654,3689.2884029999987,3689.2884029999987,3689.2884029999987,3689.354734999999,3692.2857330999996,,,,3691.3693925999996,3692.3017615999997,3692.3017615999997,3692.3017615999997,down,2.7819342000002507,None,None,,,,,,,,,,,,,,,,,P108,001,2025-02-13_13h20.53.901,posner_endo_new1,2024.2.4,59.99152919617801,2025-02-13 13h21.02.582059 +0000,
cube_l.png,0.1,-0.31,valid,42,42,0,down,2.695046899998488,None,space,0.3627221999995527,None,,,,,0,42,42,42,,,,,3692.3017615999997,,,,,,,,,,,,,3692.2859043999997,3692.3017615999997,3692.3017615999997,3692.3017615999997,3694.999806599999,,,,3695.0061287999997,3695.017697899999,3695.017697899999,3695.0657297999987,3695.0659651999995,3695.082269499999,3695.082269499999,3695.082269499999,3695.1488988,3695.449086999999,,,,,,,,down,2.695046899998488,None,space,0.3627221999995527,None,,,,,,,,,,,,,,,P108,001,2025-02-13_13h20.53.901,posner_endo_new1,2024.2.4,59.99152919617801,2025-02-13 13h21.02.582059 +0000,
cube_l.png,0.1,10,catch,43,43,0,down,5.371636800000488,None,None,,,,,,,0,43,43,43,,,,,3695.4651563999996,,,,,,,,,,,,,3695.449268799999,3695.4651563999996,3695.4651563999996,3695.4651563999996,3700.8437231999997,,,,3700.8500889999996,3700.8617175,3700.8617175,3700.9095366,3700.9097714,3700.9263365999996,3700.9263365999996,3700.9263365999996,3700.9928253999988,3703.9237744,,,,3703.0074286,3703.9398265,3703.9398265,3703.9398265,down,5.371636800000488,None,None,,,,,,,,,,,,,,,,,P108,001,2025-02-13_13h20.53.901,posner_endo_new1,2024.2.4,59.99152919617801,2025-02-13 13h21.02.582059 +0000,
cube_l.png,0.1,0.31,invalid,44,44,0,down,2.377140900000086,None,space,0.398885299999165,None,,,,,0,44,44,44,,,,,3703.9398265,,,,,,,,,,,,,3703.9239417999997,3703.9398265,3703.9398265,3703.9398265,3706.3216367999994,,,,3706.327948099999,3706.339493399999,3706.339493399999,3706.3875228999987,3706.3877699999994,3706.403967,3706.403967,3706.403967,3706.4873076999993,3706.804499,,,,,,,,down,2.377140900000086,None,space,0.398885299999165,None,,,,,,,,,,,,,,,P108,001,2025-02-13_13h20.53.901,posner_endo_new1,2024.2.4,59.99152919617801,2025-02-13 13h21.02.582059 +0000,
cube_l.png,0.1,0.31,invalid,45,45,0,down,8.47274599999946,None,space,0.41903690000071947,None,,,,,0,45,45,45,,,,,3706.8203894,,,,,,,,,,,,,3706.8046729999987,3706.8203894,3706.8203894,3706.8203894,3715.2958548999995,,,,3715.3017877,3715.313365599999,3715.313365599999,3715.3614034,3715.3618478999997,3715.3778771999987,3715.3778771999987,3715.3778771999987,3715.4615286999997,3715.8123090999998,,,,,,,,down,8.47274599999946,None,space,0.41903690000071947,None,,,,,,,,,,,,,,,P108,001,2025-02-13_13h20.53.901,posner_endo_new1,2024.2.4,59.99152919617801,2025-02-13 13h21.02.582059 +0000,
cube_r.png,0.1,0.31,valid,46,46,0,down,6.033465000000433,None,space,0.3157195999992837,None,,,,,0,46,46,46,,,,,3715.8278623999995,,,,,,,,,,,,,3715.812565099999,3715.8278623999995,3715.8278623999995,3715.8278623999995,3721.8725094,,,,3721.8848500999993,3721.895013199999,3721.895013199999,3721.9379116,3721.9383168999993,3721.954340299999,3721.954340299999,3721.954340299999,3722.0376149999993,3722.2722422999996,,,,,,,,down,6.033465000000433,None,space,0.3157195999992837,None,,,,,,,,,,,,,,,P108,001,2025-02-13_13h20.53.901,posner_endo_new1,2024.2.4,59.99152919617801,2025-02-13 13h21.02.582059 +0000,
cube_l.png,0.1,-0.31,valid,47,47,0,down,8.357103300000745,None,space,0.34881010000026436,None,,,,,0,47,47,47,,,,,3722.2880840999987,,,,,,,,,,,,,3722.2724696999994,3722.2880840999987,3722.2880840999987,3722.2880840999987,3730.6470752999994,,,,3730.6553143,3730.6655133999993,3730.6655133999993,3730.7126179999996,3730.7129086999994,3730.7291836000004,3730.7291836000004,3730.7291836000004,3730.8123882,3731.079971899999,,,,,,,,down,8.357103300000745,None,space,0.34881010000026436,None,,,,,,,,,,,,,,,P108,001,2025-02-13_13h20.53.901,posner_endo_new1,2024.2.4,59.99152919617801,2025-02-13 13h21.02.582059 +0000,
cube_r.png,0.1,-0.31,invalid,48,48,0,down,3.5733282000001054,None,space,0.7741607999996631,None,,,,,0,48,48,48,,,,,3731.095459799999,,,,,,,,,,,,,3731.0802000000003,3731.095459799999,3731.095459799999,3731.095459799999,3734.6761167999994,,,,3734.6843559999998,3734.6947698999993,3734.6947698999993,3734.7418533,3734.742362499999,3734.7582265,3734.7582265,3734.7582265,3734.8414732,3735.5426145,,,,,,,,down,3.5733282000001054,None,space,0.7741607999996631,None,,,,,,,,,,,,,,,P108,001,2025-02-13_13h20.53.901,posner_endo_new1,2024.2.4,59.99152919617801,2025-02-13 13h21.02.582059 +0000,
cube_r.png,0.1,10,catch,49,49,0,down,3.7200257999993482,None,space,0.35887949999960256,None,,,,,0,49,49,49,,,,,3735.5574073999996,,,,,,,,,,,,,3735.5430849999993,3735.5574073999996,3735.5574073999996,3735.5574073999996,3739.2882013,,,,3739.299420199999,3739.309863299999,3739.309863299999,3739.353790699999,3739.3541480000004,3739.370346599999,3739.370346599999,3739.370346599999,3739.4535173999993,3739.7378692,,,,,,,,down,3.7200257999993482,None,space,0.35887949999960256,None,,,,,,,,,,,,,,,P108,001,2025-02-13_13h20.53.901,posner_endo_new1,2024.2.4,59.99152919617801,2025-02-13 13h21.02.582059 +0000,
cube_l.png,0.1,-0.31,valid,50,50,0,down,3.0846210999989125,None,space,0.40234030000101484,None,,,,,0,50,50,50,,,,,3739.7532431,,,,,,,,,,,,,3739.7381673,3739.7532431,3739.7532431,3739.7532431,3742.8513905,,,,3742.8625066000004,3742.872933999999,3742.872933999999,3742.9168726999997,3742.9172347000003,3742.9333621999995,3742.9333621999995,3742.9333621999995,3743.0166950000003,3743.350774499999,,,,,,,,down,3.0846210999989125,None,space,0.40234030000101484,None,,,,,,,,,,,,,,,P108,001,2025-02-13_13h20.53.901,posner_endo_new1,2024.2.4,59.99152919617801,2025-02-13 13h21.02.582059 +0000,
cube_l.png,0.1,-0.31,valid,51,51,0,down,7.263673200000994,None,space,0.37722670000039216,None,,,,,0,51,51,51,,,,,3743.3662208999995,,,,,,,,,,,,,3743.3510712999996,3743.3662208999995,3743.3662208999995,3743.3662208999995,3750.6434747000003,,,,3750.6546309999994,3750.6650960999996,3750.6650960999996,3750.708880099999,3750.7092379999995,3750.7253715999996,3750.7253715999996,3750.7253715999996,3750.808654799999,3751.1097895000003,,,,,,,,down,7.263673200000994,None,space,0.37722670000039216,None,,,,,,,,,,,,,,,P108,001,2025-02-13_13h20.53.901,posner_endo_new1,2024.2.4,59.99152919617801,2025-02-13 13h21.02.582059 +0000,
cube_r.png,0.1,-0.31,invalid,52,52,0,down,5.729315900000074,None,space,0.39864999999917927,None,,,,,0,52,52,52,,,,,3751.1249613,,,,,,,,,,,,,3751.110080299999,3751.1249613,3751.1249613,3751.1249613,3756.870363599999,,,,3756.881641099999,3756.8920075999995,3756.8920075999995,3756.9359251999995,3756.9362872,3756.9524294000003,3756.9524294000003,3756.9524294000003,3757.0355894999993,3757.3533002000004,,,,,,,,down,5.729315900000074,None,space,0.39864999999917927,None,,,,,,,,,,,,,,,P108,001,2025-02-13_13h20.53.901,posner_endo_new1,2024.2.4,59.99152919617801,2025-02-13 13h21.02.582059 +0000,
cube_l.png,0.1,-0.31,valid,53,53,0,down,2.2603058999993664,None,space,0.5301667000003363,None,,,,,0,53,53,53,,,,,3757.368529199999,,,,,,,,,,,,,3757.353590499999,3757.368529199999,3757.368529199999,3757.368529199999,3759.6342673,,,,3759.6454084999987,3759.655813199999,3759.655813199999,3759.6996547,3759.7000100999994,3759.7162742,3759.7162742,3759.7162742,3759.7994371000004,3760.250372299999,,,,,,,,down,2.2603058999993664,None,space,0.5301667000003363,None,,,,,,,,,,,,,,,P108,001,2025-02-13_13h20.53.901,posner_endo_new1,2024.2.4,59.99152919617801,2025-02-13 13h21.02.582059 +0000,
cube_r.png,0.1,10,catch,54,54,0,down,6.148163800000475,None,None,,,,,,,0,54,54,54,,,,,3760.2656291000003,,,,,,,,,,,,,3760.2506593999988,3760.2656291000003,3760.2656291000003,3760.2656291000003,3766.4271494000004,,,,3766.4385107,3766.4488755,3766.4488755,3766.492929099999,3766.4932854,3766.509206499999,3766.509206499999,3766.509206499999,3766.5924679,3769.5069028,,,,3768.6070787999997,3769.5228477,3769.5228477,3769.5228477,down,6.148163800000475,None,None,,,,,,,,,,,,,,,,,P108,001,2025-02-13_13h20.53.901,posner_endo_new1,2024.2.4,59.99152919617801,2025-02-13 13h21.02.582059 +0000,
cube_l.png,0.1,0.31,invalid,55,55,0,down,2.114532199999303,None,space,0.4870913999984623,None,,,,,0,55,55,55,,,,,3769.5228477,,,,,,,,,,,,,3769.5071871,3769.5228477,3769.5228477,3769.5228477,3771.6387717999987,,,,3771.6499349999995,3771.660301599999,3771.660301599999,3771.704044,3771.704308799999,3771.7205840999995,3771.7205840999995,3771.7205840999995,3771.8036959,3772.2208876000004,,,,,,,,down,2.114532199999303,None,space,0.4870913999984623,None,,,,,,,,,,,,,,,P108,001,2025-02-13_13h20.53.901,posner_endo_new1,2024.2.4,59.99152919617801,2025-02-13 13h21.02.582059 +0000,
cube_l.png,0.1,-0.31,valid,56,56,0,down,6.257298099999389,None,space,0.35902400000122725,None,,,,,0,56,56,56,,,,,3772.2364832000003,,,,,,,,,,,,,3772.2210856,3772.2364832000003,3772.2364832000003,3772.2364832000003,3778.4977387,,,,3778.5049572999997,3778.516603599999,3778.516603599999,3778.5636557,3778.5639207000004,3778.5803034,3778.5803034,3778.5803034,3778.6467894999987,3778.9474018,,,,,,,,down,6.257298099999389,None,space,0.35902400000122725,None,,,,,,,,,,,,,,,P108,001,2025-02-13_13h20.53.901,posner_endo_new1,2024.2.4,59.99152919617801,2025-02-13 13h21.02.582059 +0000,
cube_r.png,0.1,0.31,valid,57,57,0,down,5.7059946000008495,None,space,0.39151870000023337,None,,,,,0,57,57,57,,,,,3778.9633018999994,,,,,,,,,,,,,3778.947600899999,3778.9633018999994,3778.9633018999994,3778.9633018999994,3784.6749769,,,,3784.6822328,3784.7052016999987,3784.7052016999987,3784.7407019,3784.7409628999994,3784.7572024,3784.7572024,3784.7572024,3784.840661799999,3785.157764899999,,,,,,,,down,5.7059946000008495,None,space,0.39151870000023337,None,,,,,,,,,,,,,,,P108,001,2025-02-13_13h20.53.901,posner_endo_new1,2024.2.4,59.99152919617801,2025-02-13 13h21.02.582059 +0000,
cube_r.png,0.1,-0.31,invalid,58,58,0,down,5.887588099998538,None,space,0.3417398999990837,None,,,,,0,58,58,58,,,,,3785.1735981,,,,,,,,,,,,,3785.1579652,3785.1735981,3785.1735981,3785.1735981,3791.0682901,,,,3791.075493099999,3791.0871743999996,3791.0871743999996,3791.134232799999,3791.1345007,3791.150451199999,3791.150451199999,3791.150451199999,3791.233859,3791.5011483,,,,,,,,down,5.887588099998538,None,space,0.3417398999990837,None,,,,,,,,,,,,,,,P108,001,2025-02-13_13h20.53.901,posner_endo_new1,2024.2.4,59.99152919617801,2025-02-13 13h21.02.582059 +0000,
cube_l.png,0.1,0.31,invalid,59,59,0,down,4.832134700000097,None,space,0.33824400000048627,None,,,,,0,59,59,59,,,,,3791.5169306999996,,,,,,,,,,,,,3791.5013473,3791.5169306999996,3791.5169306999996,3791.5169306999996,3796.362798099999,,,,3796.370041,3796.381618899999,3796.381618899999,3796.4288065,3796.4290690999987,3796.445417699999,3796.445417699999,3796.445417699999,3796.5119491999994,3796.7956467000004,,,,,,,,down,4.832134700000097,None,space,0.33824400000048627,None,,,,,,,,,,,,,,,P108,001,2025-02-13_13h20.53.901,posner_endo_new1,2024.2.4,59.99152919617801,2025-02-13 13h21.02.582059 +0000,
,,,,,,,,,,,,,,,,,,,,,,,,,,,,,,,,,,,,,,,,,,,,,,,,,,,,,,,,,,,,,,,,,,,,,3796.7957761999987,3796.8114313999995,3796.8114313999995,3856.8168417999987,3864.4432500000003,space,67.61772749999909,None,,,,,,,P108,001,2025-02-13_13h20.53.901,posner_endo_new1,2024.2.4,59.99152919617801,2025-02-13 13h21.02.582059 +0000,
,,,,,,,,,,,,,,,,,,,,,,,,,,,,,,,,,,3864.4433088999995,3864.459085299999,3867.4644673000003,3867.4397394999996,,,,,,,,,,,,,,,,,,,,,,,,,,,,,,,,,,,,,,,,,,,,,,P108,001,2025-02-13_13h20.53.901,posner_endo_new1,2024.2.4,59.99152919617801,2025-02-13 13h21.02.582059 +0000,
cube_l.png,0.1,10,catch,0,0,0,up,9.533078000000387,None,None,,,,,,,,,,,0,0,0,0,3867.4644673000003,,,,,,,,,,,,,3867.4556837,3867.4644673000003,3867.4644673000003,3867.4644673000003,3877.0139154999997,,,,3877.020013199999,3877.0316884999993,3877.0316884999993,3877.0796761,3877.0799159,3877.0962971999998,3877.0962971999998,3877.0962971999998,3877.162998,3880.0938368999996,,,,3879.177437799999,3880.1098956999995,3880.1098956999995,3880.1098956999995,,,,,,,,,,,,,,,up,9.533078000000387,None,None,,,P108,001,2025-02-13_13h20.53.901,posner_endo_new1,2024.2.4,59.99152919617801,2025-02-13 13h21.02.582059 +0000,
cube_l.png,0.1,10,catch,1,1,0,up,2.6713676000017585,None,None,,,,,,,,,,,0,1,1,1,3880.1098956999995,,,,,,,,,,,,,3880.0940082999987,3880.1098956999995,3880.1098956999995,3880.1098956999995,3882.7913389999994,,,,3882.7972850999995,3882.8090156,3882.8090156,3882.8571145999995,3882.857350799999,3882.8736289999997,3882.8736289999997,3882.8736289999997,3882.9570777999998,3885.8711776,,,,3884.9714982999994,3885.887401099999,3885.887401099999,3885.887401099999,,,,,,,,,,,,,,,up,2.6713676000017585,None,None,,,P108,001,2025-02-13_13h20.53.901,posner_endo_new1,2024.2.4,59.99152919617801,2025-02-13 13h21.02.582059 +0000,
cube_l.png,0.1,0.31,invalid,2,2,0,up,3.605503200000385,None,space,0.4928615000007994,None,,,,,,,,,0,2,2,2,3885.887401099999,,,,,,,,,,,,,3885.8713506999993,3885.887401099999,3885.887401099999,3885.887401099999,3889.501248499999,,,,3889.5072241,3889.5188160999987,3889.5188160999987,3889.567021699999,3889.567258199999,3889.583501699999,3889.583501699999,3889.583501699999,3889.666697999999,3890.0838287999995,,,,,,,,,,,,,,,,,,,,,,up,3.605503200000385,None,space,0.4928615000007994,None,P108,001,2025-02-13_13h20.53.901,posner_endo_new1,2024.2.4,59.99152919617801,2025-02-13 13h21.02.582059 +0000,
cube_l.png,0.1,0.31,invalid,3,3,0,up,4.369841899999301,None,space,0.4462658000011288,None,,,,,,,,,0,3,3,3,3890.099652699999,,,,,,,,,,,,,3890.0840098999997,3890.099652699999,3890.099652699999,3890.099652699999,3894.4794023000013,,,,3894.4854555,3894.497108400001,3894.497108400001,3894.5452010999998,3894.5454426999986,3894.5618539999978,3894.5618539999978,3894.5618539999978,3894.6450686000007,3895.0121746999994,,,,,,,,,,,,,,,,,,,,,,up,4.369841899999301,None,space,0.4462658000011288,None,P108,001,2025-02-13_13h20.53.901,posner_endo_new1,2024.2.4,59.99152919617801,2025-02-13 13h21.02.582059 +0000,
cube_l.png,0.1,-0.31,valid,4,4,0,up,4.377664999999979,None,space,0.3175828999992518,None,,,,,,,,,0,4,4,4,3895.028034099998,,,,,,,,,,,,,3895.012356699999,3895.028034099998,3895.028034099998,3895.028034099998,3899.4081602999995,,,,3899.417742899999,3899.428028199998,3899.428028199998,3899.473508099998,3899.4738314000006,3899.4901665999987,3899.4901665999987,3899.4901665999987,3899.5732856999985,3899.824228700001,,,,,,,,,,,,,,,,,,,,,,up,4.377664999999979,None,space,0.3175828999992518,None,P108,001,2025-02-13_13h20.53.901,posner_endo_new1,2024.2.4,59.99152919617801,2025-02-13 13h21.02.582059 +0000,
cube_r.png,0.1,-0.31,invalid,5,5,0,up,5.677475799999229,None,space,0.30127680000077817,None,,,,,,,,,0,5,5,5,3899.8396139999986,,,,,,,,,,,,,3899.8244915999985,3899.8396139999986,3899.8396139999986,3899.8396139999986,3905.5185788,,,,3905.5280675999984,3905.5383354999994,3905.5383354999994,3905.5840635000004,3905.584380399998,3905.6005671000003,3905.6005671000003,3905.6005671000003,3905.6837361999987,3905.9180971000005,,,,,,,,,,,,,,,,,,,,,,up,5.677475799999229,None,space,0.30127680000077817,None,P108,001,2025-02-13_13h20.53.901,posner_endo_new1,2024.2.4,59.99152919617801,2025-02-13 13h21.02.582059 +0000,
cube_r.png,0.1,0.31,valid,6,6,0,up,6.137368700001389,None,space,0.2691211999990628,None,,,,,,,,,0,6,6,6,3905.9334818000007,,,,,,,,,,,,,3905.9183601999994,3905.9334818000007,3905.9334818000007,3905.9334818000007,3912.0783006,,,,3912.087731499998,3912.0980985000006,3912.0980985000006,3912.1439281000003,3912.144246499998,3912.160522100001,3912.160522100001,3912.160522100001,3912.243736399998,3912.4446370999995,,,,,,,,,,,,,,,,,,,,,,up,6.137368700001389,None,space,0.2691211999990628,None,P108,001,2025-02-13_13h20.53.901,posner_endo_new1,2024.2.4,59.99152919617801,2025-02-13 13h21.02.582059 +0000,
cube_r.png,0.1,-0.31,invalid,7,7,0,up,5.241588599998067,None,space,0.27632429999721353,None,,,,,,,,,0,7,7,7,3912.4601134999994,,,,,,,,,,,,,3912.4449004,3912.4601134999994,3912.4601134999994,3912.4601134999994,3917.7061522999993,,,,3917.7156395,3917.7259424999993,3917.7259424999993,3917.771570799998,3917.7718927000005,3917.788404099998,3917.788404099998,3917.788404099998,3917.8712665000003,3918.0723486999977,,,,,,,,,,,,,,,,,,,,,,up,5.241588599998067,None,space,0.27632429999721353,None,P108,001,2025-02-13_13h20.53.901,posner_endo_new1,2024.2.4,59.99152919617801,2025-02-13 13h21.02.582059 +0000,
cube_l.png,0.1,-0.31,valid,8,8,0,up,4.653854100000899,None,space,0.3684493000000657,None,,,,,,,,,0,8,8,8,3918.0876941000006,,,,,,,,,,,,,3918.0726084,3918.0876941000006,3918.0876941000006,3918.0876941000006,3922.7505779000003,,,,3922.7599169000005,3922.7701988999997,3922.7701988999997,3922.816398000001,3922.816719299999,3922.832980699999,3922.832980699999,3922.832980699999,3922.916156199999,3923.2169908999986,,,,,,,,,,,,,,,,,,,,,,up,4.653854100000899,None,space,0.3684493000000657,None,P108,001,2025-02-13_13h20.53.901,posner_endo_new1,2024.2.4,59.99152919617801,2025-02-13 13h21.02.582059 +0000,
cube_r.png,0.1,-0.31,invalid,9,9,0,up,5.38889890000064,None,space,0.30792360000123153,None,,,,,,,,,0,9,9,9,3923.232384500001,,,,,,,,,,,,,3923.217249299998,3923.232384500001,3923.232384500001,3923.232384500001,3928.6280489,,,,3928.6374521999987,3928.647803400001,3928.647803400001,3928.693736700001,3928.694061699998,3928.7102577999995,3928.7102577999995,3928.7102577999995,3928.793372099999,3929.0278519000003,,,,,,,,,,,,,,,,,,,,,,up,5.38889890000064,None,space,0.30792360000123153,None,P108,001,2025-02-13_13h20.53.901,posner_endo_new1,2024.2.4,59.99152919617801,2025-02-13 13h21.02.582059 +0000,
cube_l.png,0.1,0.31,invalid,10,10,0,up,5.7299262000015005,None,space,0.32741730000270763,None,,,,,,,,,0,10,10,10,3929.043172200001,,,,,,,,,,,,,3929.028118100001,3929.043172200001,3929.043172200001,3929.043172200001,3934.7885081000004,,,,3934.797933,3934.8083504000006,3934.8083504000006,3934.854046899998,3934.854364099998,3934.8705391999993,3934.8705391999993,3934.8705391999993,3934.953958100001,3935.204835300001,,,,,,,,,,,,,,,,,,,,,,up,5.7299262000015005,None,space,0.32741730000270763,None,P108,001,2025-02-13_13h20.53.901,posner_endo_new1,2024.2.4,59.99152919617801,2025-02-13 13h21.02.582059 +0000,
cube_r.png,0.1,-0.31,invalid,11,11,0,up,6.3619189000019105,None,space,0.23871259999941685,None,,,,,,,,,0,11,11,11,3935.2202665999994,,,,,,,,,,,,,3935.2051052999977,3935.2202665999994,3935.2202665999994,3935.2202665999994,3941.5982582999986,,,,3941.6077018999986,3941.6180839999997,3941.6180839999997,3941.6637444999997,3941.6640616999994,3941.6803998999985,3941.6803998999985,3941.6803998999985,3941.763583099999,3941.9310147999986,,,,,,,,,,,,,,,,,,,,,,up,6.3619189000019105,None,space,0.23871259999941685,None,P108,001,2025-02-13_13h20.53.901,posner_endo_new1,2024.2.4,59.99152919617801,2025-02-13 13h21.02.582059 +0000,
cube_r.png,0.1,0.31,valid,12,12,0,up,6.97923609999998,None,space,0.2908022000010533,None,,,,,,,,,0,12,12,12,3941.946665900001,,,,,,,,,,,,,3941.9312800999996,3941.946665900001,3941.946665900001,3941.946665900001,3948.940723499998,,,,3948.9501686999993,3948.9604525000013,3948.9604525000013,3949.0063733000006,3949.0066898999994,3949.0228049999987,3949.0228049999987,3949.0228049999987,3949.106090299998,3949.323566199999,,,,,,,,,,,,,,,,,,,,,,up,6.97923609999998,None,space,0.2908022000010533,None,P108,001,2025-02-13_13h20.53.901,posner_endo_new1,2024.2.4,59.99152919617801,2025-02-13 13h21.02.582059 +0000,
cube_l.png,0.1,10,catch,13,13,0,up,5.78676120000091,None,None,,,,,,,,,,,0,13,13,13,3949.339124600001,,,,,,,,,,,,,3949.323826400001,3949.339124600001,3949.339124600001,3949.339124600001,3955.1344750000007,,,,3955.1425744999997,3955.152747599999,3955.152747599999,3955.200046699998,3955.2003060000006,3955.216470900001,3955.216470900001,3955.216470900001,3955.2996627999983,3958.213966199999,,,,3957.3143894000004,3958.2300473999985,3958.2300473999985,3958.2300473999985,,,,,,,,,,,,,,,up,5.78676120000091,None,None,,,P108,001,2025-02-13_13h20.53.901,posner_endo_new1,2024.2.4,59.99152919617801,2025-02-13 13h21.02.582059 +0000,
cube_r.png,0.1,-0.31,invalid,14,14,0,up,2.7911246999974537,None,space,0.4576453000008769,None,,,,,,,,,0,14,14,14,3958.2300473999985,,,,,,,,,,,,,3958.214148000001,3958.2300473999985,3958.2300473999985,3958.2300473999985,3961.028062399999,,,,3961.034394199998,3961.0460036999993,3961.0460036999993,3961.0937407,3961.0939807000013,3961.110367899999,3961.110367899999,3961.110367899999,3961.193594399998,3961.5773653999986,,,,,,,,,,,,,,,,,,,,,,up,2.7911246999974537,None,space,0.4576453000008769,None,P108,001,2025-02-13_13h20.53.901,posner_endo_new1,2024.2.4,59.99152919617801,2025-02-13 13h21.02.582059 +0000,
cube_l.png,0.1,-0.31,valid,15,15,0,up,5.331973699998343,None,space,0.37779109999974025,None,,,,,,,,,0,15,15,15,3961.5932371,,,,,,,,,,,,,3961.5775479999993,3961.5932371,3961.5932371,3961.5932371,3966.9386961,,,,3966.945022099999,3966.9565660999997,3966.9565660999997,3967.004598999998,3967.0048407000013,3967.0210370000004,3967.0210370000004,3967.0210370000004,3967.1042672999993,3967.4047317999994,,,,,,,,,,,,,,,,,,,,,,up,5.331973699998343,None,space,0.37779109999974025,None,P108,001,2025-02-13_13h20.53.901,posner_endo_new1,2024.2.4,59.99152919617801,2025-02-13 13h21.02.582059 +0000,
cube_r.png,0.1,10,catch,16,16,0,up,6.120958999999857,None,space,0.3366021000001638,None,,,,,,,,,0,16,16,16,3967.420729399999,,,,,,,,,,,,,3967.4049140000006,3967.420729399999,3967.420729399999,3967.420729399999,3973.548579600001,,,,3973.5549064999996,3973.5665304000013,3973.5665304000013,3973.614373800001,3973.614609399998,3973.6310872000013,3973.6310872000013,3973.6310872000013,3973.697541200001,3973.981363599998,,,,,,,,,,,,,,,,,,,,,,up,6.120958999999857,None,space,0.3366021000001638,None,P108,001,2025-02-13_13h20.53.901,posner_endo_new1,2024.2.4,59.99152919617801,2025-02-13 13h21.02.582059 +0000,
cube_r.png,0.1,10,catch,17,17,0,up,5.289622199998121,None,None,,,,,,,,,,,0,17,17,17,3973.9972131000013,,,,,,,,,,,,,3973.9815457999994,3973.9972131000013,3973.9972131000013,3973.9972131000013,3979.2926991000004,,,,3979.299069399998,3979.3107594999983,3979.3107594999983,3979.3585979,3979.358835500001,3979.375137500001,3979.375137500001,3979.375137500001,3979.4418849000012,3982.3726129999977,,,,3981.456412900001,3982.388826199998,3982.388826199998,3982.388826199998,,,,,,,,,,,,,,,up,5.289622199998121,None,None,,,P108,001,2025-02-13_13h20.53.901,posner_endo_new1,2024.2.4,59.99152919617801,2025-02-13 13h21.02.582059 +0000,
cube_l.png,0.1,0.31,invalid,18,18,0,up,1.8887577999994392,None,space,0.518818000000465,None,,,,,,,,,0,18,18,18,3982.388826199998,,,,,,,,,,,,,3982.372781199998,3982.388826199998,3982.388826199998,3982.388826199998,3984.287699399998,,,,3984.2940486999996,3984.3058256999993,3984.3058256999993,3984.353423399998,3984.3536595999994,3984.3700988,3984.3700988,3984.3700988,3984.4533194999985,3984.9037445000013,,,,,,,,,,,,,,,,,,,,,,up,1.8887577999994392,None,space,0.518818000000465,None,P108,001,2025-02-13_13h20.53.901,posner_endo_new1,2024.2.4,59.99152919617801,2025-02-13 13h21.02.582059 +0000,
cube_l.png,0.1,10,catch,19,19,0,up,4.374787500000821,None,None,,,,,,,,,,,0,19,19,19,3984.9194018,,,,,,,,,,,,,3984.903925599998,3984.9194018,3984.9194018,3984.9194018,3989.2990225999984,,,,3989.305402600001,3989.316964200001,3989.316964200001,3989.364983499998,3989.3652332,3989.3815688999985,3989.3815688999985,3989.3815688999985,3989.448105499998,3992.379077200001,,,,3991.4627189000003,3992.3949666999997,3992.3949666999997,3992.3949666999997,,,,,,,,,,,,,,,up,4.374787500000821,None,None,,,P108,001,2025-02-13_13h20.53.901,posner_endo_new1,2024.2.4,59.99152919617801,2025-02-13 13h21.02.582059 +0000,
cube_l.png,0.1,0.31,invalid,20,20,0,up,2.7230817999989085,None,space,0.41262579999965965,None,,,,,,,,,0,20,20,20,3992.3949666999997,,,,,,,,,,,,,3992.379251600001,3992.3949666999997,3992.3949666999997,3992.3949666999997,3995.1264385000013,,,,3995.132818799999,3995.144368299998,3995.144368299998,3995.1923535000005,3995.1925895000004,3995.208919300001,3995.208919300001,3995.208919300001,3995.2755887000003,3995.6261265999983,,,,,,,,,,,,,,,,,,,,,,up,2.7230817999989085,None,space,0.41262579999965965,None,P108,001,2025-02-13_13h20.53.901,posner_endo_new1,2024.2.4,59.99152919617801,2025-02-13 13h21.02.582059 +0000,
cube_l.png,0.1,-0.31,valid,21,21,0,up,5.515348699998867,None,space,0.5361846000014339,None,,,,,,,,,0,21,21,21,3995.641872899998,,,,,,,,,,,,,3995.626312300001,3995.641872899998,3995.641872899998,3995.641872899998,4001.170455900001,,,,4001.176816199999,4001.1883516,4001.1883516,4001.236282,4001.2365187999985,4001.2528120999978,4001.2528120999978,4001.2528120999978,4001.3359593000005,4001.8029167000004,,,,,,,,,,,,,,,,,,,,,,up,5.515348699998867,None,space,0.5361846000014339,None,P108,001,2025-02-13_13h20.53.901,posner_endo_new1,2024.2.4,59.99152919617801,2025-02-13 13h21.02.582059 +0000,
cube_r.png,0.1,0.31,valid,22,22,0,up,6.258693600000697,None,space,0.3190878999994311,None,,,,,,,,,0,22,22,22,4001.8188021000005,,,,,,,,,,,,,4001.803098300001,4001.8188021000005,4001.8188021000005,4001.8188021000005,4008.0798878000005,,,,4008.086189399999,4008.0977455999982,4008.0977455999982,4008.1459132,4008.1461569000003,4008.162351099998,4008.162351099998,4008.162351099998,4008.2291222000003,4008.4962472999996,,,,,,,,,,,,,,,,,,,,,,up,6.258693600000697,None,space,0.3190878999994311,None,P108,001,2025-02-13_13h20.53.901,posner_endo_new1,2024.2.4,59.99152919617801,2025-02-13 13h21.02.582059 +0000,
cube_r.png,0.1,-0.31,invalid,23,23,0,up,6.677179600003001,None,space,0.329561400001694,None,,,,,,,,,0,23,23,23,4008.5120062000005,,,,,,,,,,,,,4008.496437699998,4008.5120062000005,4008.5120062000005,4008.5120062000005,4015.206148899999,,,,4015.2147050000003,4015.2247649,4015.2247649,4015.271978499999,4015.2722852999996,4015.288584699998,4015.288584699998,4015.288584699998,4015.371695,4015.6227120999993,,,,,,,,,,,,,,,,,,,,,,up,6.677179600003001,None,space,0.329561400001694,None,P108,001,2025-02-13_13h20.53.901,posner_endo_new1,2024.2.4,59.99152919617801,2025-02-13 13h21.02.582059 +0000,
cube_r.png,0.1,0.31,valid,24,24,0,up,5.295633400000952,None,space,0.39318469999852823,None,,,,,,,,,0,24,24,24,4015.638095199998,,,,,,,,,,,,,4015.6229540000004,4015.638095199998,4015.638095199998,4015.638095199998,4020.9503595000006,,,,4020.9589991999983,4020.9689802999983,4020.9689802999983,4021.0161473999997,4021.0164423000006,4021.032526099998,4021.032526099998,4021.032526099998,4021.115812099999,4021.4331335999977,,,,,,,,,,,,,,,,,,,,,,up,5.295633400000952,None,space,0.39318469999852823,None,P108,001,2025-02-13_13h20.53.901,posner_endo_new1,2024.2.4,59.99152919617801,2025-02-13 13h21.02.582059 +0000,
cube_r.png,0.1,-0.31,invalid,25,25,0,up,4.396846700001333,None,space,0.3012435999989975,None,,,,,,,,,0,25,25,25,4021.4487320999997,,,,,,,,,,,,,4021.433377200001,4021.4487320999997,4021.4487320999997,4021.4487320999997,4025.861994500001,,,,4025.8705247999987,4025.880946299998,4025.880946299998,4025.9276488999985,4025.9279522999987,4025.9442126999984,4025.9442126999984,4025.9442126999984,4026.0274482000004,4026.2616368,,,,,,,,,,,,,,,,,,,,,,up,4.396846700001333,None,space,0.3012435999989975,None,P108,001,2025-02-13_13h20.53.901,posner_endo_new1,2024.2.4,59.99152919617801,2025-02-13 13h21.02.582059 +0000,
cube_l.png,0.1,-0.31,valid,26,26,0,up,4.720435399998678,None,space,0.3015618999997969,None,,,,,,,,,0,26,26,26,4026.2771672,,,,,,,,,,,,,4026.261878899999,4026.2771672,4026.2771672,4026.2771672,4031.0067457999994,,,,4031.0152801999993,4031.0255541999995,4031.0255541999995,4031.0726240999993,4031.072922199999,4031.088863799998,4031.088863799998,4031.088863799998,4031.1721334000013,4031.4062544999997,,,,,,,,,,,,,,,,,,,,,,up,4.720435399998678,None,space,0.3015618999997969,None,P108,001,2025-02-13_13h20.53.901,posner_endo_new1,2024.2.4,59.99152919617801,2025-02-13 13h21.02.582059 +0000,
cube_r.png,0.1,0.31,valid,27,27,0,up,5.2315011999999115,None,space,0.28146770000239485,None,,,,,,,,,0,27,27,27,4031.4219508000006,,,,,,,,,,,,,4031.4065004999993,4031.4219508000006,4031.4219508000006,4031.4219508000006,4036.667595000001,,,,4036.6761180999983,4036.6864192999983,4036.6864192999983,4036.733318599998,4036.7336164999997,4036.749849400001,4036.749849400001,4036.749849400001,4036.8330423999996,4037.034015200001,,,,,,,,,,,,,,,,,,,,,,up,5.2315011999999115,None,space,0.28146770000239485,None,P108,001,2025-02-13_13h20.53.901,posner_endo_new1,2024.2.4,59.99152919617801,2025-02-13 13h21.02.582059 +0000,
cube_r.png,0.1,10,catch,28,28,0,up,4.9800290999992285,None,space,0.3365955000008398,None,,,,,,,,,0,28,28,28,4037.0496528999993,,,,,,,,,,,,,4037.0342665000007,4037.0496528999993,4037.0496528999993,4037.0496528999993,4042.0454846999983,,,,4042.053171999998,4042.064164199999,4042.064164199999,4042.1111925999994,4042.1114295999996,4042.1275797,4042.1275797,4042.1275797,4042.2109250999983,4042.4784118000007,,,,,,,,,,,,,,,,,,,,,,up,4.9800290999992285,None,space,0.3365955000008398,None,P108,001,2025-02-13_13h20.53.901,posner_endo_new1,2024.2.4,59.99152919617801,2025-02-13 13h21.02.582059 +0000,
cube_r.png,0.1,0.31,valid,29,29,0,up,6.3830936000013025,None,space,0.38453479999952833,None,,,,,,,,,0,29,29,29,4042.4940278000013,,,,,,,,,,,,,4042.478593900001,4042.4940278000013,4042.4940278000013,4042.4940278000013,4048.8881968000005,,,,4048.8942518999993,4048.905783799999,4048.905783799999,4048.954090999998,4048.954328400001,4048.9707375999988,4048.9707375999988,4048.9707375999988,4049.0539083999993,4049.3710653,,,,,,,,,,,,,,,,,,,,,,up,6.3830936000013025,None,space,0.38453479999952833,None,P108,001,2025-02-13_13h20.53.901,posner_endo_new1,2024.2.4,59.99152919617801,2025-02-13 13h21.02.582059 +0000,
cube_r.png,0.1,0.31,valid,30,30,0,up,7.650897300001816,None,space,0.3471771999975317,None,,,,,,,,,0,30,30,30,4049.3869078000007,,,,,,,,,,,,,4049.3712474000004,4049.3869078000007,4049.3869078000007,4049.3869078000007,4057.046472,,,,4057.0525590999987,4057.064189300001,4057.064189300001,4057.1124844999995,4057.1129988999983,4057.1288326000013,4057.1288326000013,4057.1288326000013,4057.2121633999977,4057.4806230999984,,,,,,,,,,,,,,,,,,,,,,up,7.650897300001816,None,space,0.3471771999975317,None,P108,001,2025-02-13_13h20.53.901,posner_endo_new1,2024.2.4,59.99152919617801,2025-02-13 13h21.02.582059 +0000,
cube_l.png,0.1,-0.31,valid,31,31,0,up,7.694022399999085,None,space,0.3186155000003055,None,,,,,,,,,0,31,31,31,4057.4951407999997,,,,,,,,,,,,,4057.4810873000006,4057.4951407999997,4057.4951407999997,4057.4951407999997,4065.2053380999987,,,,4065.2166297999993,4065.2270507999983,4065.2270507999983,4065.2707930999986,4065.2711569000003,4065.287386099999,4065.287386099999,4065.287386099999,4065.3705950999993,4065.621607299998,,,,,,,,,,,,,,,,,,,,,,up,7.694022399999085,None,space,0.3186155000003055,None,P108,001,2025-02-13_13h20.53.901,posner_endo_new1,2024.2.4,59.99152919617801,2025-02-13 13h21.02.582059 +0000,
cube_r.png,0.1,0.31,valid,32,32,0,up,6.9842527999971935,None,space,0.2943788999982644,None,,,,,,,,,0,32,32,32,4065.6370626000007,,,,,,,,,,,,,4065.6219170999993,4065.6370626000007,4065.6370626000007,4065.6370626000007,4072.6310694000003,,,,4072.6422531000007,4072.6526336000006,4072.6526336000006,4072.6963054999997,4072.696574200001,4072.7130302999994,4072.7130302999994,4072.7130302999994,4072.796205299999,4073.0136660000007,,,,,,,,,,,,,,,,,,,,,,up,6.9842527999971935,None,space,0.2943788999982644,None,P108,001,2025-02-13_13h20.53.901,posner_endo_new1,2024.2.4,59.99152919617801,2025-02-13 13h21.02.582059 +0000,
cube_r.png,0.1,-0.31,invalid,33,33,0,up,7.073046699999395,None,space,0.32330759999967995,None,,,,,,,,,0,33,33,33,4073.0292954999986,,,,,,,,,,,,,4073.0138767000008,4073.0292954999986,4073.0292954999986,4073.0292954999986,4080.106531700001,,,,4080.113753899999,4080.1250458999984,4080.1250458999984,4080.1721645999987,4080.172425499999,4080.188817600001,4080.188817600001,4080.188817600001,4080.271877099998,4080.5226725999983,,,,,,,,,,,,,,,,,,,,,,up,7.073046699999395,None,space,0.32330759999967995,None,P108,001,2025-02-13_13h20.53.901,posner_endo_new1,2024.2.4,59.99152919617801,2025-02-13 13h21.02.582059 +0000,
cube_r.png,0.1,10,catch,34,34,0,up,8.14077680000264,None,None,,,,,,,,,,,0,34,34,34,4080.5384735999996,,,,,,,,,,,,,4080.5228816,4080.5384735999996,4080.5384735999996,4080.5384735999996,4088.680969799998,,,,4088.6868984999983,4088.6985154999984,4088.6985154999984,4088.7468352999986,4088.7470771999997,4088.763280699999,4088.763280699999,4088.763280699999,4088.8465878999978,4091.7609369,,,,4090.861336199998,4091.776949699999,4091.776949699999,4091.776949699999,,,,,,,,,,,,,,,up,8.14077680000264,None,None,,,P108,001,2025-02-13_13h20.53.901,posner_endo_new1,2024.2.4,59.99152919617801,2025-02-13 13h21.02.582059 +0000,
cube_r.png,0.1,0.31,valid,35,35,0,up,2.46887340000103,None,space,0.7713503999984823,None,,,,,,,,,0,35,35,35,4091.776949699999,,,,,,,,,,,,,4091.7611835000007,4091.776949699999,4091.776949699999,4091.776949699999,4094.2589387999997,,,,4094.2683635999983,4094.278714599999,4094.278714599999,4094.3244329999998,4094.3247544999995,4094.3409889000013,4094.3409889000013,4094.3409889000013,4094.4242724999986,4095.1247526999996,,,,,,,,,,,,,,,,,,,,,,up,2.46887340000103,None,space,0.7713503999984823,None,P108,001,2025-02-13_13h20.53.901,posner_endo_new1,2024.2.4,59.99152919617801,2025-02-13 13h21.02.582059 +0000,
cube_r.png,0.1,-0.31,invalid,36,36,0,up,2.809214400000201,None,space,0.3897229000031075,None,,,,,,,,,0,36,36,36,4095.1401437000004,,,,,,,,,,,,,4095.1250141,4095.1401437000004,4095.1401437000004,4095.1401437000004,4097.9551434,,,,4097.964580900001,4097.974915500001,4097.974915500001,4098.020734399999,4098.0210523000005,4098.037260200001,4098.037260200001,4098.037260200001,4098.120513600001,4098.4378609,,,,,,,,,,,,,,,,,,,,,,up,2.809214400000201,None,space,0.3897229000031075,None,P108,001,2025-02-13_13h20.53.901,posner_endo_new1,2024.2.4,59.99152919617801,2025-02-13 13h21.02.582059 +0000,
cube_l.png,0.1,0.31,invalid,37,37,0,up,4.264546800000971,None,space,0.3465527000007569,None,,,,,,,,,0,37,37,37,4098.453517399999,,,,,,,,,,,,,4098.4381233,4098.453517399999,4098.453517399999,4098.453517399999,4102.733614899998,,,,4102.742176199999,4102.751913400001,4102.751913400001,4102.799014999999,4102.799253399999,4102.815768499999,4102.815768499999,4102.815768499999,4102.898959299999,4103.1661902,,,,,,,,,,,,,,,,,,,,,,up,4.264546800000971,None,space,0.3465527000007569,None,P108,001,2025-02-13_13h20.53.901,posner_endo_new1,2024.2.4,59.99152919617801,2025-02-13 13h21.02.582059 +0000,
cube_l.png,0.1,0.31,invalid,38,38,0,up,5.991400800001429,None,space,0.3675428999995347,None,,,,,,,,,0,38,38,38,4103.182028999998,,,,,,,,,,,,,4103.166376899999,4103.182028999998,4103.182028999998,4103.182028999998,4109.176552700001,,,,4109.1828625,4109.194357300001,4109.194357300001,4109.242209899998,4109.242446800001,4109.2592663999985,4109.2592663999985,4109.2592663999985,4109.325727400001,4109.642727600001,,,,,,,,,,,,,,,,,,,,,,up,5.991400800001429,None,space,0.3675428999995347,None,P108,001,2025-02-13_13h20.53.901,posner_endo_new1,2024.2.4,59.99152919617801,2025-02-13 13h21.02.582059 +0000,
cube_r.png,0.1,0.31,valid,39,39,0,up,6.370831299998827,None,space,0.2373898999976518,None,,,,,,,,,0,39,39,39,4109.6586224,,,,,,,,,,,,,4109.642912599998,4109.6586224,4109.6586224,4109.6586224,4116.036303300001,,,,4116.042635,4116.054389700001,4116.054389700001,4116.102300299999,4116.102540599999,4116.118729600001,4116.118729600001,4116.118729600001,4116.185378699998,4116.369355299999,,,,,,,,,,,,,,,,,,,,,,up,6.370831299998827,None,space,0.2373898999976518,None,P108,001,2025-02-13_13h20.53.901,posner_endo_new1,2024.2.4,59.99152919617801,2025-02-13 13h21.02.582059 +0000,
cube_l.png,0.1,0.31,invalid,40,40,0,up,4.700809700003447,None,space,0.3484515999989526,None,,,,,,,,,0,40,40,40,4116.3851495,,,,,,,,,,,,,4116.369534799998,4116.3851495,4116.3851495,4116.3851495,4121.097754,,,,4121.103681899998,4121.1150843999985,4121.1150843999985,4121.163600900001,4121.163836199999,4121.1801504999985,4121.1801504999985,4121.1801504999985,4121.246990599999,4121.5307491,,,,,,,,,,,,,,,,,,,,,,up,4.700809700003447,None,space,0.3484515999989526,None,P108,001,2025-02-13_13h20.53.901,posner_endo_new1,2024.2.4,59.99152919617801,2025-02-13 13h21.02.582059 +0000,
cube_l.png,0.1,10,catch,41,41,0,up,5.586934399998427,None,None,,,,,,,,,,,0,41,41,41,4121.546570799999,,,,,,,,,,,,,4121.530927999998,4121.546570799999,4121.546570799999,4121.546570799999,4127.141364500001,,,,4127.1473307,4127.158940799998,4127.158940799998,4127.2074514,4127.207688799999,4127.2240091,4127.2240091,4127.2240091,4127.290490099998,4130.221556099999,,,,4129.305273299999,4130.237673900001,4130.237673900001,4130.237673900001,,,,,,,,,,,,,,,up,5.586934399998427,None,None,,,P108,001,2025-02-13_13h20.53.901,posner_endo_new1,2024.2.4,59.99152919617801,2025-02-13 13h21.02.582059 +0000,
cube_l.png,0.1,-0.31,valid,42,42,0,up,5.440697099998943,None,space,0.3041632999993453,None,,,,,,,,,0,42,42,42,4130.237673900001,,,,,,,,,,,,,4130.221726999998,4130.237673900001,4130.237673900001,4130.237673900001,4135.683079699998,,,,4135.6889962000005,4135.7004259000005,4135.7004259000005,4135.7488569,4135.7491021000005,4135.7652225,4135.7652225,4135.7652225,4135.848595900001,4136.082609799998,,,,,,,,,,,,,,,,,,,,,,up,5.440697099998943,None,space,0.3041632999993453,None,P108,001,2025-02-13_13h20.53.901,posner_endo_new1,2024.2.4,59.99152919617801,2025-02-13 13h21.02.582059 +0000,
cube_l.png,0.1,10,catch,43,43,0,up,6.459497300002113,None,None,,,,,,,,,,,0,43,43,43,4136.098436300001,,,,,,,,,,,,,4136.082790300001,4136.098436300001,4136.098436300001,4136.098436300001,4142.559181800001,,,,4142.5651437,4142.576697999999,4142.576697999999,4142.6249912,4142.625227999999,4142.641563399999,4142.641563399999,4142.641563399999,4142.724872299999,4145.6389645,,,,4144.7395713999995,4145.6553417999985,4145.6553417999985,4145.6553417999985,,,,,,,,,,,,,,,up,6.459497300002113,None,None,,,P108,001,2025-02-13_13h20.53.901,posner_endo_new1,2024.2.4,59.99152919617801,2025-02-13 13h21.02.582059 +0000,
cube_l.png,0.1,0.31,invalid,44,44,0,up,0.7744772999976703,None,space,0.39054079999914393,None,,,,,,,,,0,44,44,44,4145.6553417999985,,,,,,,,,,,,,4145.6391394,4145.6553417999985,4145.6553417999985,4145.6553417999985,4146.438461799999,,,,4146.444357899998,4146.455812399998,4146.455812399998,4146.504447099998,4146.504685099999,4146.5210293,4146.5210293,4146.5210293,4146.587706,4146.9214849,,,,,,,,,,,,,,,,,,,,,,up,0.7744772999976703,None,space,0.39054079999914393,None,P108,001,2025-02-13_13h20.53.901,posner_endo_new1,2024.2.4,59.99152919617801,2025-02-13 13h21.02.582059 +0000,
cube_l.png,0.1,0.31,invalid,45,45,0,up,4.868317599997681,None,space,0.5499349999990955,None,,,,,,,,,0,45,45,45,4146.937491499999,,,,,,,,,,,,,4146.921667199998,4146.937491499999,4146.937491499999,4146.937491499999,4151.8163798000005,,,,4151.822345399998,4151.833830699999,4151.833830699999,4151.882265399998,4151.882502300001,4151.898841,4151.898841,4151.898841,4151.981975299999,4152.465826499998,,,,,,,,,,,,,,,,,,,,,,up,4.868317599997681,None,space,0.5499349999990955,None,P108,001,2025-02-13_13h20.53.901,posner_endo_new1,2024.2.4,59.99152919617801,2025-02-13 13h21.02.582059 +0000,
cube_r.png,0.1,0.31,valid,46,46,0,up,10.612636099998781,None,space,0.4027334999991581,None,,,,,,,,,0,46,46,46,4152.481525699999,,,,,,,,,,,,,4152.4660121,4152.481525699999,4152.481525699999,4152.481525699999,4163.1052703000005,,,,4163.1165101999995,4163.126761999998,4163.126761999998,4163.170847799998,4163.1712107,4163.187280799999,4163.187280799999,4163.187280799999,4163.2705571999995,4163.604816099998,,,,,,,,,,,,,,,,,,,,,,up,10.612636099998781,None,space,0.4027334999991581,None,P108,001,2025-02-13_13h20.53.901,posner_endo_new1,2024.2.4,59.99152919617801,2025-02-13 13h21.02.582059 +0000,
cube_l.png,0.1,-0.31,valid,47,47,0,up,4.546469900000375,None,space,0.3679650000012771,None,,,,,,,,,0,47,47,47,4163.6201824,,,,,,,,,,,,,4163.605120599999,4163.6201824,4163.6201824,4163.6201824,4168.183470499998,,,,4168.194741599998,4168.204796799999,4168.204796799999,4168.2488785000005,4168.2492354000005,4168.265428699999,4168.265428699999,4168.265428699999,4168.348670099998,4168.649590999999,,,,,,,,,,,,,,,,,,,,,,up,4.546469900000375,None,space,0.3679650000012771,None,P108,001,2025-02-13_13h20.53.901,posner_endo_new1,2024.2.4,59.99152919617801,2025-02-13 13h21.02.582059 +0000,
cube_r.png,0.1,-0.31,invalid,48,48,0,up,6.444477799999731,None,space,0.37136820000159787,None,,,,,,,,,0,48,48,48,4168.665048599998,,,,,,,,,,,,,4168.649902200001,4168.665048599998,4168.665048599998,4168.665048599998,4175.126262600001,,,,4175.1346453999995,4175.144648200001,4175.144648200001,4175.191912699998,4175.1921609,4175.2083205,4175.2083205,4175.2083205,4175.291514300001,4175.592088700001,,,,,,,,,,,,,,,,,,,,,,up,6.444477799999731,None,space,0.37136820000159787,None,P108,001,2025-02-13_13h20.53.901,posner_endo_new1,2024.2.4,59.99152919617801,2025-02-13 13h21.02.582059 +0000,
cube_r.png,0.1,10,catch,49,49,0,up,5.54168959999879,None,None,,,,,,,,,,,0,49,49,49,4175.6079094,,,,,,,,,,,,,4175.592269800001,4175.6079094,4175.6079094,4175.6079094,4181.153146499999,,,,4181.1590944,4181.170574499998,4181.170574499998,4181.219020999999,4181.2192596,4181.2355835,4181.2355835,4181.2355835,4181.3020571,4184.233100399999,,,,4183.316797400001,4184.249105599998,4184.249105599998,4184.249105599998,,,,,,,,,,,,,,,up,5.54168959999879,None,None,,,P108,001,2025-02-13_13h20.53.901,posner_endo_new1,2024.2.4,59.99152919617801,2025-02-13 13h21.02.582059 +0000,
cube_l.png,0.1,-0.31,valid,50,50,0,up,3.9491483999991033,None,space,0.31918450000011944,None,,,,,,,,,0,50,50,50,4184.249105599998,,,,,,,,,,,,,4184.2332725,4184.249105599998,4184.249105599998,4184.249105599998,4188.212966000001,,,,4188.224172699998,4188.234551799998,4188.234551799998,4188.278549100001,4188.2789025,4188.294907499998,4188.294907499998,4188.294907499998,4188.378302200001,4188.629160499999,,,,,,,,,,,,,,,,,,,,,,up,3.9491483999991033,None,space,0.31918450000011944,None,P108,001,2025-02-13_13h20.53.901,posner_endo_new1,2024.2.4,59.99152919617801,2025-02-13 13h21.02.582059 +0000,
cube_l.png,0.1,-0.31,valid,51,51,0,up,6.329383200001757,None,space,0.2953951999988931,None,,,,,,,,,0,51,51,51,4188.644607100001,,,,,,,,,,,,,4188.629469999998,4188.644607100001,4188.644607100001,4188.644607100001,4194.989531999998,,,,4195.000740699999,4195.011155599999,4195.011155599999,4195.054837400001,4195.0551995000005,4195.0714613,4195.0714613,4195.0714613,4195.154576700001,4195.372454899998,,,,,,,,,,,,,,,,,,,,,,up,6.329383200001757,None,space,0.2953951999988931,None,P108,001,2025-02-13_13h20.53.901,posner_endo_new1,2024.2.4,59.99152919617801,2025-02-13 13h21.02.582059 +0000,
cube_r.png,0.1,-0.31,invalid,52,52,0,up,6.066295100001298,None,space,0.35499999999956344,None,,,,,,,,,0,52,52,52,4195.387730600001,,,,,,,,,,,,,4195.372774000001,4195.387730600001,4195.387730600001,4195.387730600001,4201.4659935,,,,4201.4742886,4201.484302999999,4201.484302999999,4201.5313697,4201.531619799998,4201.548166999999,4201.548166999999,4201.548166999999,4201.631415599999,4201.9153021,,,,,,,,,,,,,,,,,,,,,,up,6.066295100001298,None,space,0.35499999999956344,None,P108,001,2025-02-13_13h20.53.901,posner_endo_new1,2024.2.4,59.99152919617801,2025-02-13 13h21.02.582059 +0000,
cube_l.png,0.1,-0.31,valid,53,53,0,up,6.6828859000015655,None,space,0.2216922000006889,None,,,,,,,,,0,53,53,53,4201.931092699999,,,,,,,,,,,,,4201.915498799999,4201.931092699999,4201.931092699999,4201.931092699999,4208.624975099998,,,,4208.631842500001,4208.6435817,4208.6435817,4208.6908685,4208.691119000001,4208.707440299999,4208.707440299999,4208.707440299999,4208.790452499999,4208.941412800001,,,,,,,,,,,,,,,,,,,,,,up,6.6828859000015655,None,space,0.2216922000006889,None,P108,001,2025-02-13_13h20.53.901,posner_endo_new1,2024.2.4,59.99152919617801,2025-02-13 13h21.02.582059 +0000,
cube_r.png,0.1,10,catch,54,54,0,up,4.921061400000326,None,space,0.34717129999989993,None,,,,,,,,,0,54,54,54,4208.9571758,,,,,,,,,,,,,4208.941611600001,4208.9571758,4208.9571758,4208.9571758,4213.886412599999,,,,4213.893224699999,4213.9051031,4213.9051031,4213.952120799999,4213.952370699999,4213.968712899999,4213.968712899999,4213.968712899999,4214.035313800001,4214.319356599999,,,,,,,,,,,,,,,,,,,,,,up,4.921061400000326,None,space,0.34717129999989993,None,P108,001,2025-02-13_13h20.53.901,posner_endo_new1,2024.2.4,59.99152919617801,2025-02-13 13h21.02.582059 +0000,
cube_l.png,0.1,0.31,invalid,55,55,0,up,5.3986235999982455,None,space,0.37717439999687485,None,,,,,,,,,0,55,55,55,4214.3352325,,,,,,,,,,,,,4214.319550300001,4214.3352325,4214.3352325,4214.3352325,4219.746769799998,,,,4219.7535816,4219.765259900001,4219.765259900001,4219.8127406,4219.812991000001,4219.829463399999,4219.829463399999,4219.829463399999,4219.8961893,4220.213339600001,,,,,,,,,,,,,,,,,,,,,,up,5.3986235999982455,None,space,0.37717439999687485,None,P108,001,2025-02-13_13h20.53.901,posner_endo_new1,2024.2.4,59.99152919617801,2025-02-13 13h21.02.582059 +0000,
cube_l.png,0.1,-0.31,valid,56,56,0,up,5.737111999998888,None,space,0.3899455000027956,None,,,,,,,,,0,56,56,56,4220.228835100001,,,,,,,,,,,,,4220.2135368,4220.228835100001,4220.228835100001,4220.228835100001,4225.973832900001,,,,4225.980697599998,4225.9924687,4225.9924687,4226.0397748999985,4226.0400269,4226.056467600001,4226.056467600001,4226.056467600001,4226.1396606,4226.4567534,,,,,,,,,,,,,,,,,,,,,,up,5.737111999998888,None,space,0.3899455000027956,None,P108,001,2025-02-13_13h20.53.901,posner_endo_new1,2024.2.4,59.99152919617801,2025-02-13 13h21.02.582059 +0000,
cube_r.png,0.1,0.31,valid,57,57,0,up,7.012867400000687,None,space,0.2715427000002819,None,,,,,,,,,0,57,57,57,4226.4726876,,,,,,,,,,,,,4226.456955399999,4226.4726876,4226.4726876,4226.4726876,4233.499641299999,,,,4233.506546300001,4233.518331099998,4233.518331099998,4233.565443099998,4233.5656941,4233.582162500001,4233.582162500001,4233.582162500001,4233.6652570999995,4233.865993999998,,,,,,,,,,,,,,,,,,,,,,up,7.012867400000687,None,space,0.2715427000002819,None,P108,001,2025-02-13_13h20.53.901,posner_endo_new1,2024.2.4,59.99152919617801,2025-02-13 13h21.02.582059 +0000,
cube_r.png,0.1,-0.31,invalid,58,58,0,up,6.012567300000228,None,space,0.2972367000002123,None,,,,,,,,,0,58,58,58,4233.881792300001,,,,,,,,,,,,,4233.866190899998,4233.881792300001,4233.881792300001,4233.881792300001,4239.909855199998,,,,4239.916735599998,4239.928665199999,4239.928665199999,4239.9756572999995,4239.975907499998,4239.9921982,4239.9921982,4239.9921982,4240.0753375,4240.292390599998,,,,,,,,,,,,,,,,,,,,,,up,6.012567300000228,None,space,0.2972367000002123,None,P108,001,2025-02-13_13h20.53.901,posner_endo_new1,2024.2.4,59.99152919617801,2025-02-13 13h21.02.582059 +0000,
cube_l.png,0.1,0.31,invalid,59,59,0,up,4.898011799999949,None,space,0.41095080000013695,None,,,,,,,,,0,59,59,59,4240.308559299998,,,,,,,,,,,,,4240.2925992,4240.308559299998,4240.308559299998,4240.308559299998,4245.221040099999,,,,4245.227844700001,4245.239568899999,4245.239568899999,4245.2871479000005,4245.287398399998,4245.303303399998,4245.303303399998,4245.303303399998,4245.3865518,4245.720506,,,,,,,,,,,,,,,,,,,,,,up,4.898011799999949,None,space,0.41095080000013695,None,P108,001,2025-02-13_13h20.53.901,posner_endo_new1,2024.2.4,59.99152919617801,2025-02-13 13h21.02.582059 +0000,
