cue_img,cue_soa,target_x,trial,thisN,thisTrialN,thisRepN,key_control2.keys,key_control2.rt,key_control2.duration,key_resp.keys,key_resp.rt,key_resp.duration,practice.thisRepN,practice.thisTrialN,practice.thisN,practice.thisIndex,block1.thisRepN,block1.thisTrialN,block1.thisN,block1.thisIndex,block2.thisRepN,block2.thisTrialN,block2.thisN,block2.thisIndex,thisRow.t,notes,instructions.started,instructions_txt.started,key_control.started,instructions.stopped,key_control.keys,key_control.rt,key_control.duration,ready.started,ready_txt.started,ready_txt.stopped,ready.stopped,fix.started,fixation.started,key_control2.started,fixation_cross.started,fix.stopped,practice.key_control2.keys,practice.key_control2.rt,practice.key_control2.duration,cue.started,cube.started,fixation_cross_cue.started,cue.stopped,target.started,fixation_target.started,fixation_cross_target.started,key_resp.started,star.started,target.stopped,practice.key_resp.keys,practice.key_resp.rt,practice.key_resp.duration,star.stopped,fixation_target.stopped,fixation_cross_target.stopped,key_resp.stopped,block1.key_control2.keys,block1.key_control2.rt,block1.key_control2.duration,block1.key_resp.keys,block1.key_resp.rt,block1.key_resp.duration,break_2.started,text.started,key_control3.started,text.stopped,break_2.stopped,key_control3.keys,key_control3.rt,key_control3.duration,block2.key_control2.keys,block2.key_control2.rt,block2.key_control2.duration,block2.key_resp.keys,block2.key_resp.rt,block2.key_resp.duration,participant,session,date,expName,psychopyVersion,frameRate,expStart,
,,,,,,,,,,,,,,,,,,,,,,,,,,,0.007463000001735054,0.027844900003401563,0.027844900003401563,24.557215500000893,up,24.513720599999942,None,,,,,,,,,,,,,,,,,,,,,,,,,,,,,,,,,,,,,,,,,,,,,,,,,,p109,001,2025-02-13_15h31.59.684,posner_endo_new1,2024.2.4,60.05605632289717,2025-02-13 15h32.09.556758 +0000,
,,,,,,,,,,,,,,,,,,,,,,,,,,,,,,,,,,24.557258400000137,24.569878600002994,27.569907000000967,27.550465300002543,,,,,,,,,,,,,,,,,,,,,,,,,,,,,,,,,,,,,,,,,,,,,,p109,001,2025-02-13_15h31.59.684,posner_endo_new1,2024.2.4,60.05605632289717,2025-02-13 15h32.09.556758 +0000,
cube_l.png,0.1,-0.31,valid,0,0,0,up,8.707555900000443,None,space,0.32783049999852665,None,0,0,0,0,,,,,,,,,27.569907000000967,,,,,,,,,,,,,27.557726200000616,27.569907000000967,27.569907000000967,27.569907000000967,36.291956500001106,up,8.707555900000443,None,36.30188520000229,36.312324600003194,36.312324600003194,36.35813530000087,36.35836890000064,36.3748794000021,36.3748794000021,36.3748794000021,36.441315300002316,36.70806600000287,space,0.32783049999852665,None,,,,,,,,,,,,,,,,,,,,,,,,,p109,001,2025-02-13_15h31.59.684,posner_endo_new1,2024.2.4,60.05605632289717,2025-02-13 15h32.09.556758 +0000,
cube_l.png,0.1,0.31,invalid,1,1,0,up,7.416471399999864,None,space,0.26678919999903883,None,0,1,1,1,,,,,,,,,36.72437770000033,,,,,,,,,,,,,36.70824370000264,36.72437770000033,36.72437770000033,36.72437770000033,44.15085420000105,up,7.416471399999864,None,44.15815350000048,44.169866100000945,44.169866100000945,44.216778500001965,44.21702010000081,44.233257500000036,44.233257500000036,44.233257500000036,44.31651620000048,44.516994200002955,space,0.26678919999903883,None,,,,,,,,,,,,,,,,,,,,,,,,,p109,001,2025-02-13_15h31.59.684,posner_endo_new1,2024.2.4,60.05605632289717,2025-02-13 15h32.09.556758 +0000,
cube_r.png,0.1,-0.31,invalid,2,2,0,up,7.544337399998767,None,space,0.3273979999976291,None,0,2,2,2,,,,,,,,,44.5330810000014,,,,,,,,,,,,,44.51718990000154,44.5330810000014,44.5330810000014,44.5330810000014,52.092701300000044,up,7.544337399998767,None,52.09897550000096,52.11043750000317,52.11043750000317,52.15865510000003,52.15889200000311,52.17515370000183,52.17515370000183,52.17515370000183,52.24133890000303,52.509159800003545,space,0.3273979999976291,None,,,,,,,,,,,,,,,,,,,,,,,,,p109,001,2025-02-13_15h31.59.684,posner_endo_new1,2024.2.4,60.05605632289717,2025-02-13 15h32.09.556758 +0000,
cube_r.png,0.1,10,catch,3,3,0,up,7.872963300000265,None,None,,,0,3,3,3,,,,,,,,,52.52467570000226,,,,,,,,,,,,,52.50933630000145,52.52467570000226,52.52467570000226,52.52467570000226,60.40066030000162,up,7.872963300000265,None,60.406861900002696,60.41848690000188,60.41848690000188,60.46675310000137,60.46698910000123,60.483381900001405,60.483381900001405,60.483381900001405,60.55006290000165,63.48026360000222,None,,,62.56447240000125,63.49681950000013,63.49681950000013,63.49681950000013,,,,,,,,,,,,,,,,,,,,,p109,001,2025-02-13_15h31.59.684,posner_endo_new1,2024.2.4,60.05605632289717,2025-02-13 15h32.09.556758 +0000,
cube_l.png,0.1,-0.31,valid,4,4,0,up,5.116608799999085,None,space,0.3613614999994752,None,0,4,4,4,,,,,,,,,63.49681950000013,,,,,,,,,,,,,63.480432200001815,63.49681950000013,63.49681950000013,63.49681950000013,68.62585340000078,up,5.116608799999085,None,68.63289580000128,68.64465740000014,68.64465740000014,68.69168350000109,68.69193260000247,68.70827730000019,68.70827730000019,68.70827730000019,68.79154330000165,69.07516510000278,space,0.3613614999994752,None,,,,,,,,,,,,,,,,,,,,,,,,,p109,001,2025-02-13_15h31.59.684,posner_endo_new1,2024.2.4,60.05605632289717,2025-02-13 15h32.09.556758 +0000,
cube_l.png,0.1,0.31,invalid,5,5,0,up,8.010202699999354,None,space,0.2980686000009882,None,0,5,5,5,,,,,,,,,69.09111160000248,,,,,,,,,,,,,69.07533470000271,69.09111160000248,69.09111160000248,69.09111160000248,77.1171725000022,up,8.010202699999354,None,77.12385850000283,77.13555270000143,77.13555270000143,77.18297240000174,77.18321490000017,77.19963540000026,77.19963540000026,77.19963540000026,77.26613620000353,77.49999730000127,space,0.2980686000009882,None,,,,,,,,,,,,,,,,,,,,,,,,,p109,001,2025-02-13_15h31.59.684,posner_endo_new1,2024.2.4,60.05605632289717,2025-02-13 15h32.09.556758 +0000,
cube_r.png,0.1,-0.31,invalid,6,6,0,up,7.617734600000404,None,space,0.36630049999803305,None,0,6,6,6,,,,,,,,,77.51588480000282,,,,,,,,,,,,,77.50016850000247,77.51588480000282,77.51588480000282,77.51588480000282,85.14231960000325,up,7.617734600000404,None,85.14861380000002,85.16011750000325,85.16011750000325,85.20829510000112,85.20853360000183,85.22441380000237,85.22441380000237,85.22441380000237,85.30810880000354,85.59170890000314,space,0.36630049999803305,None,,,,,,,,,,,,,,,,,,,,,,,,,p109,001,2025-02-13_15h31.59.684,posner_endo_new1,2024.2.4,60.05605632289717,2025-02-13 15h32.09.556758 +0000,
cube_r.png,0.1,0.31,valid,7,7,0,up,7.9657095999973535,None,space,0.34871989999737707,None,0,7,7,7,,,,,,,,,85.60731910000322,,,,,,,,,,,,,85.59188610000274,85.60731910000322,85.60731910000322,85.60731910000322,93.58367250000083,up,7.9657095999973535,None,93.58972310000172,93.60116440000274,93.60116440000274,93.6495156000019,93.64975020000202,93.66598400000294,93.66598400000294,93.66598400000294,93.74951470000087,94.01664840000012,space,0.34871989999737707,None,,,,,,,,,,,,,,,,,,,,,,,,,p109,001,2025-02-13_15h31.59.684,posner_endo_new1,2024.2.4,60.05605632289717,2025-02-13 15h32.09.556758 +0000,
cube_l.png,0.1,-0.31,valid,8,8,0,up,7.421566100001655,None,space,0.3971339000017906,None,0,8,8,8,,,,,,,,,94.03196910000042,,,,,,,,,,,,,94.01681750000353,94.03196910000042,94.03196910000042,94.03196910000042,101.45867720000024,up,7.421566100001655,None,101.46555400000216,101.47721050000109,101.47721050000109,101.5247795000032,101.5250150000029,101.54126100000212,101.54126100000212,101.54126100000212,101.60816610000256,101.94154980000167,space,0.3971339000017906,None,,,,,,,,,,,,,,,,,,,,,,,,,p109,001,2025-02-13_15h31.59.684,posner_endo_new1,2024.2.4,60.05605632289717,2025-02-13 15h32.09.556758 +0000,
cube_r.png,0.1,-0.31,invalid,9,9,0,up,8.935781300002418,None,space,0.3545063999990816,None,0,9,9,9,,,,,,,,,101.9577332000008,,,,,,,,,,,,,101.94171950000236,101.9577332000008,101.9577332000008,101.9577332000008,110.8993616000007,up,8.935781300002418,None,110.90593920000174,110.91753250000329,110.91753250000329,110.96493890000056,110.96517940000194,110.98177950000172,110.98177950000172,110.98177950000172,111.04823650000253,111.34834840000258,space,0.3545063999990816,None,,,,,,,,,,,,,,,,,,,,,,,,,p109,001,2025-02-13_15h31.59.684,posner_endo_new1,2024.2.4,60.05605632289717,2025-02-13 15h32.09.556758 +0000,
cube_r.png,0.1,0.31,valid,10,10,0,up,7.481043799998588,None,space,0.42944340000030934,None,0,10,10,10,,,,,,,,,111.36465360000147,,,,,,,,,,,,,111.34852740000133,111.36465360000147,111.36465360000147,111.36465360000147,118.85761650000131,up,7.481043799998588,None,118.86380290000307,118.87537400000292,118.87537400000292,118.9233430000022,118.92358380000223,118.9403581000006,118.9403581000006,118.9403581000006,119.00677790000191,119.37391190000199,space,0.42944340000030934,None,,,,,,,,,,,,,,,,,,,,,,,,,p109,001,2025-02-13_15h31.59.684,posner_endo_new1,2024.2.4,60.05605632289717,2025-02-13 15h32.09.556758 +0000,
,,,,,,,,,,,,,,,,,,,,,,,,,,,,,,,,,,119.37402570000268,119.38980020000236,122.39286970000103,122.37025110000104,,,,,,,,,,,,,,,,,,,,,,,,,,,,,,,,,,,,,,,,,,,,,,p109,001,2025-02-13_15h31.59.684,posner_endo_new1,2024.2.4,60.05605632289717,2025-02-13 15h32.09.556758 +0000,
cube_l.png,0.1,10,catch,0,0,0,up,4.804815100000269,None,None,,,,,,,0,0,0,0,,,,,122.39286970000103,,,,,,,,,,,,,122.38413820000278,122.39286970000103,122.39286970000103,122.39286970000103,127.19937200000277,,,,127.20590850000008,127.21749780000027,127.21749780000027,127.265234100003,127.26548080000066,127.28192830000262,127.28192830000262,127.28192830000262,127.34836450000148,130.27929030000087,,,,129.36300270000356,130.29541620000236,130.29541620000236,130.29541620000236,up,4.804815100000269,None,None,,,,,,,,,,,,,,,,,p109,001,2025-02-13_15h31.59.684,posner_endo_new1,2024.2.4,60.05605632289717,2025-02-13 15h32.09.556758 +0000,
cube_l.png,0.1,10,catch,1,1,0,up,3.926339599998755,None,None,,,,,,,0,1,1,1,,,,,130.29541620000236,,,,,,,,,,,,,130.27945580000232,130.29541620000236,130.29541620000236,130.29541620000236,134.22514910000245,,,,134.23136410000006,134.24286050000228,134.24286050000228,134.29130520000035,134.29154890000063,134.30757030000314,134.30757030000314,134.30757030000314,134.3744168000012,137.30552180000086,,,,136.3891023000033,137.32100790000186,137.32100790000186,137.32100790000186,up,3.926339599998755,None,None,,,,,,,,,,,,,,,,,p109,001,2025-02-13_15h31.59.684,posner_endo_new1,2024.2.4,60.05605632289717,2025-02-13 15h32.09.556758 +0000,
cube_l.png,0.1,0.31,invalid,2,2,0,up,4.820048300000053,None,space,0.3875740000003134,None,,,,,0,2,2,2,,,,,137.32100790000186,,,,,,,,,,,,,137.30568910000147,137.32100790000186,137.32100790000186,137.32100790000186,142.1508051000019,,,,142.15727140000308,142.16889840000294,142.16889840000294,142.21655750000355,142.2167926000002,142.23271640000166,142.23271640000166,142.23271640000166,142.31604580000203,142.63370960000248,,,,,,,,up,4.820048300000053,None,space,0.3875740000003134,None,,,,,,,,,,,,,,,p109,001,2025-02-13_15h31.59.684,posner_endo_new1,2024.2.4,60.05605632289717,2025-02-13 15h32.09.556758 +0000,
cube_l.png,0.1,0.31,invalid,3,3,0,up,6.788071299997682,None,space,0.29196910000246135,None,,,,,0,3,3,3,,,,,142.64911960000245,,,,,,,,,,,,,142.63389570000072,142.64911960000245,142.64911960000245,142.64911960000245,149.44292640000276,,,,149.44898610000018,149.4605745000008,149.4605745000008,149.50934370000323,149.50958280000123,149.52597060000335,149.52597060000335,149.52597060000335,149.5924156000001,149.826208100003,,,,,,,,up,6.788071299997682,None,space,0.29196910000246135,None,,,,,,,,,,,,,,,p109,001,2025-02-13_15h31.59.684,posner_endo_new1,2024.2.4,60.05605632289717,2025-02-13 15h32.09.556758 +0000,
cube_l.png,0.1,-0.31,valid,4,4,0,up,6.635324999999284,None,space,0.35155069999746047,None,,,,,0,4,4,4,,,,,149.84225730000253,,,,,,,,,,,,,149.82638850000149,149.84225730000253,149.84225730000253,149.84225730000253,156.48594980000053,,,,156.49202730000252,156.5036549000033,156.5036549000033,156.55211740000232,156.55235510000057,156.56851680000182,156.56851680000182,156.56851680000182,156.63517990000037,156.93515260000277,,,,,,,,up,6.635324999999284,None,space,0.35155069999746047,None,,,,,,,,,,,,,,,p109,001,2025-02-13_15h31.59.684,posner_endo_new1,2024.2.4,60.05605632289717,2025-02-13 15h32.09.556758 +0000,
cube_r.png,0.1,-0.31,invalid,5,5,0,up,6.837819699998363,None,space,0.2963902999981656,None,,,,,0,5,5,5,,,,,156.95143610000014,,,,,,,,,,,,,156.9353351000027,156.95143610000014,156.95143610000014,156.95143610000014,163.7953008000004,,,,163.80138500000248,163.8127867000003,163.8127867000003,163.86074900000312,163.86100179999994,163.87773660000312,163.87773660000312,163.87773660000312,163.96060900000157,164.17846850000205,,,,,,,,up,6.837819699998363,None,space,0.2963902999981656,None,,,,,,,,,,,,,,,p109,001,2025-02-13_15h31.59.684,posner_endo_new1,2024.2.4,60.05605632289717,2025-02-13 15h32.09.556758 +0000,
cube_r.png,0.1,0.31,valid,6,6,0,up,7.155489299999317,None,space,0.3112772999993467,None,,,,,0,6,6,6,,,,,164.19426510000267,,,,,,,,,,,,,164.17864520000148,164.19426510000267,164.19426510000267,164.19426510000267,171.3541772000026,,,,171.36038499999995,171.37183430000005,171.37183430000005,171.42010950000258,171.42034820000117,171.43652160000056,171.43652160000056,171.43652160000056,171.52019980000114,171.753461100001,,,,,,,,up,7.155489299999317,None,space,0.3112772999993467,None,,,,,,,,,,,,,,,p109,001,2025-02-13_15h31.59.684,posner_endo_new1,2024.2.4,60.05605632289717,2025-02-13 15h32.09.556758 +0000,
cube_r.png,0.1,-0.31,invalid,7,7,0,up,7.419457500000135,None,space,0.28297079999902053,None,,,,,0,7,7,7,,,,,171.76972960000057,,,,,,,,,,,,,171.75364620000255,171.76972960000057,171.76972960000057,171.76972960000057,179.1958646000021,,,,179.20205030000216,179.213618400001,179.213618400001,179.26217610000094,179.2624124000031,179.2786457000002,179.2786457000002,179.2786457000002,179.34533990000273,179.5627392000024,,,,,,,,up,7.419457500000135,None,space,0.28297079999902053,None,,,,,,,,,,,,,,,p109,001,2025-02-13_15h31.59.684,posner_endo_new1,2024.2.4,60.05605632289717,2025-02-13 15h32.09.556758 +0000,
cube_l.png,0.1,-0.31,valid,8,8,0,up,6.9305257000014535,None,space,0.38115860000107205,None,,,,,0,8,8,8,,,,,179.57841330000156,,,,,,,,,,,,,179.56292620000022,179.57841330000156,179.57841330000156,179.57841330000156,186.52208910000263,,,,186.52812890000132,186.53971430000092,186.53971430000092,186.58818410000094,186.58842220000224,186.60452330000044,186.60452330000044,186.60452330000044,186.68786460000047,186.98823760000232,,,,,,,,up,6.9305257000014535,None,space,0.38115860000107205,None,,,,,,,,,,,,,,,p109,001,2025-02-13_15h31.59.684,posner_endo_new1,2024.2.4,60.05605632289717,2025-02-13 15h32.09.556758 +0000,
cube_r.png,0.1,-0.31,invalid,9,9,0,up,8.129342500000348,None,space,0.3400185999998939,None,,,,,0,9,9,9,,,,,187.0042828000005,,,,,,,,,,,,,186.9884164000032,187.0042828000005,187.0042828000005,187.0042828000005,195.1464812000013,,,,195.15302980000342,195.16469600000346,195.16469600000346,195.21217660000184,195.21241680000094,195.2291535000004,195.2291535000004,195.2291535000004,195.3119504000024,195.57898980000027,,,,,,,,up,8.129342500000348,None,space,0.3400185999998939,None,,,,,,,,,,,,,,,p109,001,2025-02-13_15h31.59.684,posner_endo_new1,2024.2.4,60.05605632289717,2025-02-13 15h32.09.556758 +0000,
cube_l.png,0.1,0.31,invalid,10,10,0,up,7.857665300001827,None,space,0.4553489999998419,None,,,,,0,10,10,10,,,,,195.59526790000018,,,,,,,,,,,,,195.579175400002,195.59526790000018,195.59526790000018,195.59526790000018,203.45472020000307,,,,203.46079950000058,203.47235190000356,203.47235190000356,203.52087630000096,203.52112350000243,203.53722630000266,203.53722630000266,203.53722630000266,203.60373510000136,204.00431390000085,,,,,,,,up,7.857665300001827,None,space,0.4553489999998419,None,,,,,,,,,,,,,,,p109,001,2025-02-13_15h31.59.684,posner_endo_new1,2024.2.4,60.05605632289717,2025-02-13 15h32.09.556758 +0000,
cube_r.png,0.1,-0.31,invalid,11,11,0,up,7.313635900001827,None,space,0.3531713000011223,None,,,,,0,11,11,11,,,,,204.02023499999996,,,,,,,,,,,,,204.0044925000002,204.02023499999996,204.02023499999996,204.02023499999996,211.34676540000146,,,,211.35301620000246,211.36468480000258,211.36468480000258,211.41220280000198,211.41244260000167,211.42912640000213,211.42912640000213,211.42912640000213,211.5120859000017,211.79646400000274,,,,,,,,up,7.313635900001827,None,space,0.3531713000011223,None,,,,,,,,,,,,,,,p109,001,2025-02-13_15h31.59.684,posner_endo_new1,2024.2.4,60.05605632289717,2025-02-13 15h32.09.556758 +0000,
cube_r.png,0.1,0.31,valid,12,12,0,up,7.777334599999449,None,space,0.32750229999874136,None,,,,,0,12,12,12,,,,,211.81226470000183,,,,,,,,,,,,,211.79664400000183,211.81226470000183,211.81226470000183,211.81226470000183,219.60492750000049,,,,219.6109737000006,219.62251700000343,219.62251700000343,219.670845800003,219.67108290000033,219.68733229999998,219.68733229999998,219.68733229999998,219.75400400000217,220.02104130000225,,,,,,,,up,7.777334599999449,None,space,0.32750229999874136,None,,,,,,,,,,,,,,,p109,001,2025-02-13_15h31.59.684,posner_endo_new1,2024.2.4,60.05605632289717,2025-02-13 15h32.09.556758 +0000,
cube_l.png,0.1,10,catch,13,13,0,up,8.241751800000202,None,space,0.2259319000004325,None,,,,,0,13,13,13,,,,,220.0371139000017,,,,,,,,,,,,,220.02122350000354,220.0371139000017,220.0371139000017,220.0371139000017,228.27967210000133,,,,228.28561900000204,228.2972495000031,228.2972495000031,228.34509750000143,228.34533600000213,228.3615056000017,228.3615056000017,228.3615056000017,228.44519000000219,228.5952888000029,,,,,,,,up,8.241751800000202,None,space,0.2259319000004325,None,,,,,,,,,,,,,,,p109,001,2025-02-13_15h31.59.684,posner_endo_new1,2024.2.4,60.05605632289717,2025-02-13 15h32.09.556758 +0000,
cube_r.png,0.1,-0.31,invalid,14,14,0,up,8.178671300000133,None,space,0.2505373999993026,None,,,,,0,14,14,14,,,,,228.61147040000287,,,,,,,,,,,,,228.59547380000004,228.61147040000287,228.61147040000287,228.61147040000287,236.8040065000023,,,,236.81010570000217,236.8218319000007,236.8218319000007,236.87003430000186,236.8702742000023,236.88647030000357,236.88647030000357,236.88647030000357,236.96978720000334,237.1537384000003,,,,,,,,up,8.178671300000133,None,space,0.2505373999993026,None,,,,,,,,,,,,,,,p109,001,2025-02-13_15h31.59.684,posner_endo_new1,2024.2.4,60.05605632289717,2025-02-13 15h32.09.556758 +0000,
cube_l.png,0.1,-0.31,valid,15,15,0,up,7.03584889999911,None,space,0.35407109999869135,None,,,,,0,15,15,15,,,,,237.16907360000187,,,,,,,,,,,,,237.15392060000158,237.16907360000187,237.16907360000187,237.16907360000187,244.21275160000005,,,,244.21884500000306,244.23050140000123,244.23050140000123,244.27899290000278,244.2792309000033,244.2951103000014,244.2951103000014,244.2951103000014,244.36225120000017,244.66216540000096,,,,,,,,up,7.03584889999911,None,space,0.35407109999869135,None,,,,,,,,,,,,,,,p109,001,2025-02-13_15h31.59.684,posner_endo_new1,2024.2.4,60.05605632289717,2025-02-13 15h32.09.556758 +0000,
cube_r.png,0.1,10,catch,16,16,0,up,7.047543100001349,None,space,0.2737196000016411,None,,,,,0,16,16,16,,,,,244.67824080000355,,,,,,,,,,,,,244.66235850000157,244.67824080000355,244.67824080000355,244.67824080000355,251.73890790000223,,,,251.74477910000132,251.75639030000093,251.75639030000093,251.80484849999993,251.8050964000031,251.82119130000137,251.82119130000137,251.82119130000137,251.88789910000196,252.10484380000344,,,,,,,,up,7.047543100001349,None,space,0.2737196000016411,None,,,,,,,,,,,,,,,p109,001,2025-02-13_15h31.59.684,posner_endo_new1,2024.2.4,60.05605632289717,2025-02-13 15h32.09.556758 +0000,
cube_r.png,0.1,10,catch,17,17,0,up,7.548582600000373,None,None,,,,,,,0,17,17,17,,,,,252.1207832,,,,,,,,,,,,,252.10502180000185,252.1207832,252.1207832,252.1207832,259.6805787000012,,,,259.6866519000032,259.6981184000033,259.6981184000033,259.7462861000022,259.7465278000018,259.76311180000266,259.76311180000266,259.76311180000266,259.82981500000096,262.760542,,,,261.8442950000026,262.776845700002,262.776845700002,262.776845700002,up,7.548582600000373,None,None,,,,,,,,,,,,,,,,,p109,001,2025-02-13_15h31.59.684,posner_endo_new1,2024.2.4,60.05605632289717,2025-02-13 15h32.09.556758 +0000,
cube_l.png,0.1,0.31,invalid,18,18,0,up,5.30068769999707,None,space,0.36037429999851156,None,,,,,0,18,18,18,,,,,262.776845700002,,,,,,,,,,,,,262.76071180000145,262.776845700002,262.776845700002,262.776845700002,268.08863310000015,,,,268.0945644000021,268.10608550000325,268.10608550000325,268.15462110000226,268.15485940000144,268.1713716000013,268.1713716000013,268.1713716000013,268.2544521000018,268.53788540000096,,,,,,,,up,5.30068769999707,None,space,0.36037429999851156,None,,,,,,,,,,,,,,,p109,001,2025-02-13_15h31.59.684,posner_endo_new1,2024.2.4,60.05605632289717,2025-02-13 15h32.09.556758 +0000,
cube_l.png,0.1,10,catch,19,19,0,up,7.299105400001281,None,None,,,,,,,0,19,19,19,,,,,268.5541624000034,,,,,,,,,,,,,268.5380709000019,268.5541624000034,268.5541624000034,268.5541624000034,275.8640477000008,,,,275.8700228000016,275.88135650000186,275.88135650000186,275.93008550000013,275.9303273000005,275.9464708000014,275.9464708000014,275.9464708000014,276.0132373000015,278.94396290000077,,,,278.02778520000356,278.96007760000066,278.96007760000066,278.96007760000066,up,7.299105400001281,None,None,,,,,,,,,,,,,,,,,p109,001,2025-02-13_15h31.59.684,posner_endo_new1,2024.2.4,60.05605632289717,2025-02-13 15h32.09.556758 +0000,
cube_l.png,0.1,0.31,invalid,20,20,0,up,5.709622000002128,None,space,0.392762200001016,None,,,,,0,20,20,20,,,,,278.96007760000066,,,,,,,,,,,,,278.9441297000012,278.96007760000066,278.96007760000066,278.96007760000066,284.67190550000305,,,,284.67791990000114,284.6895734000027,284.6895734000027,284.7380069000028,284.7382454000035,284.7542624000016,284.7542624000016,284.7542624000016,284.8374806000029,285.1547676000009,,,,,,,,up,5.709622000002128,None,space,0.392762200001016,None,,,,,,,,,,,,,,,p109,001,2025-02-13_15h31.59.684,posner_endo_new1,2024.2.4,60.05605632289717,2025-02-13 15h32.09.556758 +0000,
cube_l.png,0.1,-0.31,valid,21,21,0,up,7.507166599996708,None,space,0.5124168000002101,None,,,,,0,21,21,21,,,,,285.1704739000015,,,,,,,,,,,,,285.1549522000023,285.1704739000015,285.1704739000015,285.1704739000015,292.68052330000137,,,,292.6864897000014,292.6982566000006,292.6982566000006,292.7463572000015,292.7466056000012,292.7629902000008,292.7629902000008,292.7629902000008,292.84590930000195,293.27983550000135,,,,,,,,up,7.507166599996708,None,space,0.5124168000002101,None,,,,,,,,,,,,,,,p109,001,2025-02-13_15h31.59.684,posner_endo_new1,2024.2.4,60.05605632289717,2025-02-13 15h32.09.556758 +0000,
cube_r.png,0.1,0.31,valid,22,22,0,up,7.982994199999666,None,space,0.5106859000006807,None,,,,,0,22,22,22,,,,,293.2949694000017,,,,,,,,,,,,,293.28001900000163,293.2949694000017,293.2949694000017,293.2949694000017,301.2883279000016,,,,301.29441390000284,301.3060813000011,301.3060813000011,301.35410870000123,301.35434680000253,301.37066080000295,301.37066080000295,301.37066080000295,301.45369920000303,301.8871020000006,,,,,,,,up,7.982994199999666,None,space,0.5106859000006807,None,,,,,,,,,,,,,,,p109,001,2025-02-13_15h31.59.684,posner_endo_new1,2024.2.4,60.05605632289717,2025-02-13 15h32.09.556758 +0000,
cube_r.png,0.1,-0.31,invalid,23,23,0,up,7.990000000001601,None,space,0.44641450000199256,None,,,,,0,23,23,23,,,,,301.9035618000016,,,,,,,,,,,,,301.88727890000155,301.9035618000016,301.9035618000016,301.9035618000016,309.89619740000126,,,,309.90211810000255,309.9136062000034,309.9136062000034,309.9619738000001,309.9622191000017,309.9784740000032,309.9784740000032,309.9784740000032,310.0614201000026,310.42899620000026,,,,,,,,up,7.990000000001601,None,space,0.44641450000199256,None,,,,,,,,,,,,,,,p109,001,2025-02-13_15h31.59.684,posner_endo_new1,2024.2.4,60.05605632289717,2025-02-13 15h32.09.556758 +0000,
cube_r.png,0.1,0.31,valid,24,24,0,up,8.377029200000834,None,space,0.35237819999747444,None,,,,,0,24,24,24,,,,,310.4446360000002,,,,,,,,,,,,,310.42917410000155,310.4446360000002,310.4446360000002,310.4446360000002,318.8368479000019,,,,318.84283940000023,318.85438870000144,318.85438870000144,318.90228520000164,318.9025263000003,318.9193260000029,318.9193260000029,318.9193260000029,318.98613230000046,319.2866514000016,,,,,,,,up,8.377029200000834,None,space,0.35237819999747444,None,,,,,,,,,,,,,,,p109,001,2025-02-13_15h31.59.684,posner_endo_new1,2024.2.4,60.05605632289717,2025-02-13 15h32.09.556758 +0000,
cube_r.png,0.1,-0.31,invalid,25,25,0,up,8.519458999999188,None,space,0.3165943999993033,None,,,,,0,25,25,25,,,,,319.30180830000245,,,,,,,,,,,,,319.28683410000303,319.30180830000245,319.30180830000245,319.30180830000245,327.82730690000244,,,,327.8332009000005,327.8448055000008,327.8448055000008,327.89350350000313,327.89374060000046,327.91021380000166,327.91021380000166,327.91021380000166,327.97640580000007,328.2276137000008,,,,,,,,up,8.519458999999188,None,space,0.3165943999993033,None,,,,,,,,,,,,,,,p109,001,2025-02-13_15h31.59.684,posner_endo_new1,2024.2.4,60.05605632289717,2025-02-13 15h32.09.556758 +0000,
cube_l.png,0.1,-0.31,valid,26,26,0,up,9.04995240000062,None,space,0.29585949999818695,None,,,,,0,26,26,26,,,,,328.2433198000035,,,,,,,,,,,,,328.227794800001,328.2433198000035,328.2433198000035,328.2433198000035,337.3015027000001,,,,337.3075693000028,337.3188897,337.3188897,337.36699350000345,337.3672329000001,337.38362880000204,337.38362880000204,337.38362880000204,337.4666720000023,337.68459370000346,,,,,,,,up,9.04995240000062,None,space,0.29585949999818695,None,,,,,,,,,,,,,,,p109,001,2025-02-13_15h31.59.684,posner_endo_new1,2024.2.4,60.05605632289717,2025-02-13 15h32.09.556758 +0000,
cube_r.png,0.1,0.31,valid,27,27,0,up,8.137292999999772,None,space,0.312838500001817,None,,,,,0,27,27,27,,,,,337.70025760000135,,,,,,,,,,,,,337.68477240000357,337.70025760000135,337.70025760000135,337.70025760000135,345.84219850000227,,,,345.84810090000246,345.85971880000216,345.85971880000216,345.9086625000018,345.90889900000184,345.9246258000021,345.9246258000021,345.9246258000021,345.99166160000095,346.24229280000145,,,,,,,,up,8.137292999999772,None,space,0.312838500001817,None,,,,,,,,,,,,,,,p109,001,2025-02-13_15h31.59.684,posner_endo_new1,2024.2.4,60.05605632289717,2025-02-13 15h32.09.556758 +0000,
cube_r.png,0.1,10,catch,28,28,0,up,7.787538900000072,None,None,,,,,,,0,28,28,28,,,,,346.2576200000003,,,,,,,,,,,,,346.24247500000274,346.2576200000003,346.2576200000003,346.2576200000003,354.05046930000026,,,,354.05663330000243,354.06809930000236,354.06809930000236,354.1168985000004,354.1171408000009,354.1331818000035,354.1331818000035,354.1331818000035,354.2001022000004,357.1308990000034,,,,356.21448280000186,357.14710820000255,357.14710820000255,357.14710820000255,up,7.787538900000072,None,None,,,,,,,,,,,,,,,,,p109,001,2025-02-13_15h31.59.684,posner_endo_new1,2024.2.4,60.05605632289717,2025-02-13 15h32.09.556758 +0000,
cube_r.png,0.1,0.31,valid,29,29,0,up,5.722324899998057,None,space,0.38262800000302377,None,,,,,0,29,29,29,,,,,357.14710820000255,,,,,,,,,,,,,357.13106560000233,357.14710820000255,357.14710820000255,357.14710820000255,362.87486550000176,,,,362.88095450000037,362.8924923000013,362.8924923000013,362.9409313000033,362.9411736000002,362.95767660000274,362.95767660000274,362.95767660000274,363.02426000000196,363.3415476000009,,,,,,,,up,5.722324899998057,None,space,0.38262800000302377,None,,,,,,,,,,,,,,,p109,001,2025-02-13_15h31.59.684,posner_endo_new1,2024.2.4,60.05605632289717,2025-02-13 15h32.09.556758 +0000,
cube_r.png,0.1,0.31,valid,30,30,0,up,8.456448500000988,None,space,0.3343060000006517,None,,,,,0,30,30,30,,,,,363.35683490000156,,,,,,,,,,,,,363.3417247000034,363.35683490000156,363.35683490000156,363.35683490000156,371.815989900002,,,,371.8220295000028,371.8338423000023,371.8338423000023,371.8820423000034,371.8822814000014,371.89856840000357,371.89856840000357,371.89856840000357,371.9646786000012,372.2490321000005,,,,,,,,up,8.456448500000988,None,space,0.3343060000006517,None,,,,,,,,,,,,,,,p109,001,2025-02-13_15h31.59.684,posner_endo_new1,2024.2.4,60.05605632289717,2025-02-13 15h32.09.556758 +0000,
cube_l.png,0.1,-0.31,valid,31,31,0,up,6.724647399998503,None,space,0.32846970000173314,None,,,,,0,31,31,31,,,,,372.26491220000025,,,,,,,,,,,,,372.2492231000033,372.26491220000025,372.26491220000025,372.26491220000025,378.99209480000354,,,,378.9980221000005,379.00953370000207,379.00953370000207,379.05789860000004,379.05814420000024,379.0745410000018,379.0745410000018,379.0745410000018,379.1578855000007,379.40832200000295,,,,,,,,up,6.724647399998503,None,space,0.32846970000173314,None,,,,,,,,,,,,,,,p109,001,2025-02-13_15h31.59.684,posner_endo_new1,2024.2.4,60.05605632289717,2025-02-13 15h32.09.556758 +0000,
cube_r.png,0.1,0.31,valid,32,32,0,up,6.869367700001021,None,space,0.5379627000002074,None,,,,,0,32,32,32,,,,,379.4241879000001,,,,,,,,,,,,,379.4085025000022,379.4241879000001,379.4241879000001,379.4241879000001,386.3009714,,,,386.30697740000323,386.31857740000123,386.31857740000123,386.3670103000004,386.3672488000011,386.38371590000315,386.38371590000315,386.38371590000315,386.4670526000009,386.93404590000137,,,,,,,,up,6.869367700001021,None,space,0.5379627000002074,None,,,,,,,,,,,,,,,p109,001,2025-02-13_15h31.59.684,posner_endo_new1,2024.2.4,60.05605632289717,2025-02-13 15h32.09.556758 +0000,
cube_r.png,0.1,-0.31,invalid,33,33,0,up,7.8159854000005,None,space,0.3851764999999432,None,,,,,0,33,33,33,,,,,386.94994860000224,,,,,,,,,,,,,386.9342233000025,386.94994860000224,386.94994860000224,386.94994860000224,394.77588260000266,,,,394.78190170000016,394.7934271000013,394.7934271000013,394.8417821000003,394.8420339000004,394.85841340000115,394.85841340000115,394.85841340000115,394.925072500002,395.258844400003,,,,,,,,up,7.8159854000005,None,space,0.3851764999999432,None,,,,,,,,,,,,,,,p109,001,2025-02-13_15h31.59.684,posner_endo_new1,2024.2.4,60.05605632289717,2025-02-13 15h32.09.556758 +0000,
cube_r.png,0.1,10,catch,34,34,0,up,6.907165199998417,None,None,,,,,,,0,34,34,34,,,,,395.27469740000015,,,,,,,,,,,,,395.25902850000057,395.27469740000015,395.27469740000015,395.27469740000015,402.1847620000008,,,,402.19090940000024,402.20228710000083,402.20228710000083,402.25093259999994,402.25117090000276,402.26732300000003,402.26732300000003,402.26732300000003,402.33406390000164,405.2648880000015,,,,404.3488634000023,405.2806462000008,405.2806462000008,405.2806462000008,up,6.907165199998417,None,None,,,,,,,,,,,,,,,,,p109,001,2025-02-13_15h31.59.684,posner_endo_new1,2024.2.4,60.05605632289717,2025-02-13 15h32.09.556758 +0000,
cube_r.png,0.1,0.31,valid,35,35,0,up,4.732923900002788,None,space,0.3085283000000345,None,,,,,0,35,35,35,,,,,405.2806462000008,,,,,,,,,,,,,405.26505420000103,405.2806462000008,405.2806462000008,405.2806462000008,410.0269589000018,,,,410.0332118000006,410.0448133000027,410.0448133000027,410.09289010000066,410.09312580000187,410.10941860000094,410.10941860000094,410.10941860000094,410.1925517000018,410.42679320000025,,,,,,,,up,4.732923900002788,None,space,0.3085283000000345,None,,,,,,,,,,,,,,,p109,001,2025-02-13_15h31.59.684,posner_endo_new1,2024.2.4,60.05605632289717,2025-02-13 15h32.09.556758 +0000,
cube_r.png,0.1,-0.31,invalid,36,36,0,up,7.627268299998832,None,space,0.45064739999725134,None,,,,,0,36,36,36,,,,,410.44226490000074,,,,,,,,,,,,,410.4269727000028,410.44226490000074,410.44226490000074,410.44226490000074,418.08503490000294,,,,418.0910758000027,418.102689000003,418.102689000003,418.15135040000314,418.15159170000334,418.16809040000226,418.16809040000226,418.16809040000226,418.23452610000095,418.63492410000254,,,,,,,,up,7.627268299998832,None,space,0.45064739999725134,None,,,,,,,,,,,,,,,p109,001,2025-02-13_15h31.59.684,posner_endo_new1,2024.2.4,60.05605632289717,2025-02-13 15h32.09.556758 +0000,
cube_l.png,0.1,0.31,invalid,37,37,0,up,6.027405500000896,None,space,0.4891735000019253,None,,,,,0,37,37,37,,,,,418.65082820000316,,,,,,,,,,,,,418.6351116000005,418.65082820000316,418.65082820000316,418.65082820000316,424.6790258000001,,,,424.6850512000019,424.6965787000008,424.6965787000008,424.7446963000002,424.7449355000026,424.76102320000064,424.76102320000064,424.76102320000064,424.84442710000076,425.26156000000265,,,,,,,,up,6.027405500000896,None,space,0.4891735000019253,None,,,,,,,,,,,,,,,p109,001,2025-02-13_15h31.59.684,posner_endo_new1,2024.2.4,60.05605632289717,2025-02-13 15h32.09.556758 +0000,
cube_l.png,0.1,0.31,invalid,38,38,0,up,6.721060200001375,None,space,0.19056000000273343,None,,,,,0,38,38,38,,,,,425.27676030000293,,,,,,,,,,,,,425.2617371000015,425.27676030000293,425.27676030000293,425.27676030000293,432.0046441000013,,,,432.01057800000126,432.02204110000093,432.02204110000093,432.0706131000006,432.0708544000008,432.0870182000035,432.0870182000035,432.0870182000035,432.17009490000055,432.2873717000002,,,,,,,,up,6.721060200001375,None,space,0.19056000000273343,None,,,,,,,,,,,,,,,p109,001,2025-02-13_15h31.59.684,posner_endo_new1,2024.2.4,60.05605632289717,2025-02-13 15h32.09.556758 +0000,
cube_r.png,0.1,0.31,valid,39,39,0,up,7.022071899998991,None,space,0.31858959999954095,None,,,,,0,39,39,39,,,,,432.30357800000274,,,,,,,,,,,,,432.28755250000177,432.30357800000274,432.30357800000274,432.30357800000274,439.33040150000306,,,,439.3362906000002,439.3477890000031,439.3477890000031,439.39619570000286,439.39643310000247,439.4128156000006,439.4128156000006,439.4128156000006,439.49598200000037,439.74658890000137,,,,,,,,up,7.022071899998991,None,space,0.31858959999954095,None,,,,,,,,,,,,,,,p109,001,2025-02-13_15h31.59.684,posner_endo_new1,2024.2.4,60.05605632289717,2025-02-13 15h32.09.556758 +0000,
cube_l.png,0.1,0.31,invalid,40,40,0,up,7.011254600001848,None,space,0.30281680000189226,None,,,,,0,40,40,40,,,,,439.7621592000032,,,,,,,,,,,,,439.74677370000063,439.7621592000032,439.7621592000032,439.7621592000032,446.78932370000257,,,,446.79524740000124,446.80656920000183,446.80656920000183,446.8553286000024,446.8555649000009,446.87190890000056,446.87190890000056,446.87190890000056,446.93861050000123,447.18927520000216,,,,,,,,up,7.011254600001848,None,space,0.30281680000189226,None,,,,,,,,,,,,,,,p109,001,2025-02-13_15h31.59.684,posner_endo_new1,2024.2.4,60.05605632289717,2025-02-13 15h32.09.556758 +0000,
cube_l.png,0.1,10,catch,41,41,0,up,6.616863600000215,None,None,,,,,,,0,41,41,41,,,,,447.20454820000305,,,,,,,,,,,,,447.18945240000176,447.20454820000305,447.20454820000305,447.20454820000305,453.83227780000016,,,,453.8382683000018,453.8495975000005,453.8495975000005,453.8981457000009,453.89838840000084,453.91448149999997,453.91448149999997,453.91448149999997,453.98131060000014,456.91195170000356,,,,455.9960902000021,456.9281649000004,456.9281649000004,456.9281649000004,up,6.616863600000215,None,None,,,,,,,,,,,,,,,,,p109,001,2025-02-13_15h31.59.684,posner_endo_new1,2024.2.4,60.05605632289717,2025-02-13 15h32.09.556758 +0000,
cube_l.png,0.1,-0.31,valid,42,42,0,up,4.253056399997149,None,space,0.35708819999854313,None,,,,,0,42,42,42,,,,,456.9281649000004,,,,,,,,,,,,,456.912132700003,456.9281649000004,456.9281649000004,456.9281649000004,461.1911817,,,,461.1971435000014,461.20865570000024,461.20865570000024,461.2572781000017,461.2575177000035,461.2736674000007,461.2736674000007,461.2736674000007,461.3405270000003,461.64094690000275,,,,,,,,up,4.253056399997149,None,space,0.35708819999854313,None,,,,,,,,,,,,,,,p109,001,2025-02-13_15h31.59.684,posner_endo_new1,2024.2.4,60.05605632289717,2025-02-13 15h32.09.556758 +0000,
cube_l.png,0.1,10,catch,43,43,0,up,6.813525599998684,None,None,,,,,,,0,43,43,43,,,,,461.6567049000005,,,,,,,,,,,,,461.64113120000184,461.6567049000005,461.6567049000005,461.6567049000005,468.4840738000021,,,,468.4900376000005,468.5015346,468.5015346,468.54947170000014,468.5497077,468.5664689000005,468.5664689000005,468.5664689000005,468.6497941000016,471.5634732000035,,,,470.66418570000315,471.57982580000316,471.57982580000316,471.57982580000316,up,6.813525599998684,None,None,,,,,,,,,,,,,,,,,p109,001,2025-02-13_15h31.59.684,posner_endo_new1,2024.2.4,60.05605632289717,2025-02-13 15h32.09.556758 +0000,
cube_l.png,0.1,0.31,invalid,44,44,0,up,3.8336443999978655,None,space,0.3640388999992865,None,,,,,0,44,44,44,,,,,471.57982580000316,,,,,,,,,,,,,471.56363890000284,471.57982580000316,471.57982580000316,471.57982580000316,475.4269611000018,,,,475.43299260000276,475.4444435000005,475.4444435000005,475.4928077000004,475.4930499000002,475.50916490000236,475.50916490000236,475.50916490000236,475.592155600003,475.8766222000013,,,,,,,,up,3.8336443999978655,None,space,0.3640388999992865,None,,,,,,,,,,,,,,,p109,001,2025-02-13_15h31.59.684,posner_endo_new1,2024.2.4,60.05605632289717,2025-02-13 15h32.09.556758 +0000,
cube_l.png,0.1,0.31,invalid,45,45,0,up,7.5056384000017715,None,space,0.49622090000048047,None,,,,,0,45,45,45,,,,,475.89247969999997,,,,,,,,,,,,,475.87679800000114,475.89247969999997,475.89247969999997,475.89247969999997,483.4021821000024,,,,483.4082107000031,483.4199522000017,483.4199522000017,483.4681141000001,483.46835100000317,483.4842368000027,483.4842368000027,483.4842368000027,483.5512398000028,483.98475710000275,,,,,,,,up,7.5056384000017715,None,space,0.49622090000048047,None,,,,,,,,,,,,,,,p109,001,2025-02-13_15h31.59.684,posner_endo_new1,2024.2.4,60.05605632289717,2025-02-13 15h32.09.556758 +0000,
cube_r.png,0.1,0.31,valid,46,46,0,up,7.509640899999795,None,space,0.3797987000034482,None,,,,,0,46,46,46,,,,,484.0005373000022,,,,,,,,,,,,,483.9849391000025,484.0005373000022,484.0005373000022,484.0005373000022,491.52736560000267,,,,491.5333537000006,491.5447442000004,491.5447442000004,491.59307190000254,491.59331290000046,491.60962120000113,491.60962120000113,491.60962120000113,491.6928222000024,491.993000100003,,,,,,,,up,7.509640899999795,None,space,0.3797987000034482,None,,,,,,,,,,,,,,,p109,001,2025-02-13_15h31.59.684,posner_endo_new1,2024.2.4,60.05605632289717,2025-02-13 15h32.09.556758 +0000,
cube_l.png,0.1,-0.31,valid,47,47,0,up,7.477458699999261,None,space,0.46657450000202516,None,,,,,0,47,47,47,,,,,492.0092482,,,,,,,,,,,,,491.9931759000028,492.0092482,492.0092482,492.0092482,499.50233930000104,,,,499.50834600000235,499.519780300001,499.519780300001,499.568155500001,499.56839260000197,499.58463920000213,499.58463920000213,499.58463920000213,499.65132730000187,500.0520172000033,,,,,,,,up,7.477458699999261,None,space,0.46657450000202516,None,,,,,,,,,,,,,,,p109,001,2025-02-13_15h31.59.684,posner_endo_new1,2024.2.4,60.05605632289717,2025-02-13 15h32.09.556758 +0000,
cube_r.png,0.1,-0.31,invalid,48,48,0,up,7.410415799997281,None,space,0.2839124999991327,None,,,,,0,48,48,48,,,,,500.0676794000028,,,,,,,,,,,,,500.05219670000224,500.0676794000028,500.0676794000028,500.0676794000028,507.494177200002,,,,507.5001439000007,507.51174880000326,507.51174880000326,507.5596781000022,507.5599209000029,507.57654730000286,507.57654730000286,507.57654730000286,507.6599570000035,507.8765658000011,,,,,,,,up,7.410415799997281,None,space,0.2839124999991327,None,,,,,,,,,,,,,,,p109,001,2025-02-13_15h31.59.684,posner_endo_new1,2024.2.4,60.05605632289717,2025-02-13 15h32.09.556758 +0000,
cube_r.png,0.1,10,catch,49,49,0,up,7.601381399999809,None,space,0.18425529999876744,None,,,,,0,49,49,49,,,,,507.89284450000196,,,,,,,,,,,,,507.8767445000012,507.89284450000196,507.89284450000196,507.89284450000196,515.5027157000004,,,,515.5086791000031,515.5201956000019,515.5201956000019,515.5681825000029,515.5684231000014,515.5851014,515.5851014,515.5851014,515.6683647000027,515.7856718000003,,,,,,,,up,7.601381399999809,None,space,0.18425529999876744,None,,,,,,,,,,,,,,,p109,001,2025-02-13_15h31.59.684,posner_endo_new1,2024.2.4,60.05605632289717,2025-02-13 15h32.09.556758 +0000,
cube_l.png,0.1,-0.31,valid,50,50,0,up,7.245194499999343,None,space,0.5117448000019067,None,,,,,0,50,50,50,,,,,515.8011393000015,,,,,,,,,,,,,515.7858481000003,515.8011393000015,515.8011393000015,515.8011393000015,523.0614978000012,,,,523.0675720000036,523.0792580000016,523.0792580000016,523.1276005,523.1278466000003,523.1439532000004,523.1439532000004,523.1439532000004,523.2107743000015,523.6611116000022,,,,,,,,up,7.245194499999343,None,space,0.5117448000019067,None,,,,,,,,,,,,,,,p109,001,2025-02-13_15h31.59.684,posner_endo_new1,2024.2.4,60.05605632289717,2025-02-13 15h32.09.556758 +0000,
cube_l.png,0.1,-0.31,valid,51,51,0,up,7.008824500000628,None,space,0.405210500000976,None,,,,,0,51,51,51,,,,,523.6768316000016,,,,,,,,,,,,,523.6612875000028,523.6768316000016,523.6768316000016,523.6768316000016,530.687009600002,,,,530.6930011000004,530.7046163000014,530.7046163000014,530.7531935000006,530.7534362000006,530.7694863000033,530.7694863000033,530.7694863000033,530.8362568000011,531.1867418000002,,,,,,,,up,7.008824500000628,None,space,0.405210500000976,None,,,,,,,,,,,,,,,p109,001,2025-02-13_15h31.59.684,posner_endo_new1,2024.2.4,60.05605632289717,2025-02-13 15h32.09.556758 +0000,
cube_r.png,0.1,-0.31,invalid,52,52,0,up,7.403602400001546,None,space,0.4150609999996959,None,,,,,0,52,52,52,,,,,531.202552900002,,,,,,,,,,,,,531.1869267000002,531.202552900002,531.202552900002,531.202552900002,538.612276900003,,,,538.6184222000011,538.6300470000024,538.6300470000024,538.6782112000001,538.6784488000012,538.6943390000015,538.6943390000015,538.6943390000015,538.7612347000031,539.1121422000033,,,,,,,,up,7.403602400001546,None,space,0.4150609999996959,None,,,,,,,,,,,,,,,p109,001,2025-02-13_15h31.59.684,posner_endo_new1,2024.2.4,60.05605632289717,2025-02-13 15h32.09.556758 +0000,
cube_l.png,0.1,-0.31,valid,53,53,0,up,6.950835100000404,None,space,0.35864199999923585,None,,,,,0,53,53,53,,,,,539.1275284000003,,,,,,,,,,,,,539.1123208000026,539.1275284000003,539.1275284000003,539.1275284000003,546.0882737000029,,,,546.0942217000011,546.1058750000011,546.1058750000011,546.1539772000033,546.1542184000027,546.1704541000036,546.1704541000036,546.1704541000036,546.2536231000013,546.5370507000007,,,,,,,,up,6.950835100000404,None,space,0.35864199999923585,None,,,,,,,,,,,,,,,p109,001,2025-02-13_15h31.59.684,posner_endo_new1,2024.2.4,60.05605632289717,2025-02-13 15h32.09.556758 +0000,
cube_r.png,0.1,10,catch,54,54,0,up,14.764232300000003,None,None,,,,,,,0,54,54,54,,,,,546.5533453000025,,,,,,,,,,,,,546.537235900003,546.5533453000025,546.5533453000025,546.5533453000025,561.3223868000023,,,,561.328451100002,561.3400208000021,561.3400208000021,561.3884614000017,561.388698900002,561.4044616000028,561.4044616000028,561.4044616000028,561.4881359999999,564.4024815000012,,,,563.5026768000025,564.418638500003,564.418638500003,564.418638500003,up,14.764232300000003,None,None,,,,,,,,,,,,,,,,,p109,001,2025-02-13_15h31.59.684,posner_endo_new1,2024.2.4,60.05605632289717,2025-02-13 15h32.09.556758 +0000,
cube_l.png,0.1,0.31,invalid,55,55,0,up,4.483644400002959,None,space,0.26474169999710284,None,,,,,0,55,55,55,,,,,564.418638500003,,,,,,,,,,,,,564.4026503000023,564.418638500003,564.418638500003,564.418638500003,568.9147091000013,,,,568.920867300003,568.9326506000034,568.9326506000034,568.9807083000014,568.9809453000016,568.9972327000032,568.9972327000032,568.9972327000032,569.0636121000025,569.2646184000005,,,,,,,,up,4.483644400002959,None,space,0.26474169999710284,None,,,,,,,,,,,,,,,p109,001,2025-02-13_15h31.59.684,posner_endo_new1,2024.2.4,60.05605632289717,2025-02-13 15h32.09.556758 +0000,
cube_l.png,0.1,-0.31,valid,56,56,0,up,8.50970320000124,None,space,0.30581789999996545,None,,,,,0,56,56,56,,,,,569.2801094000024,,,,,,,,,,,,,569.2647931000029,569.2801094000024,569.2801094000024,569.2801094000024,577.8055494,,,,577.8115260000013,577.8229081000027,577.8229081000027,577.8714596000027,577.8717079000016,577.8876662000002,577.8876662000002,577.8876662000002,577.9545175000021,578.2052588000006,,,,,,,,up,8.50970320000124,None,space,0.30581789999996545,None,,,,,,,,,,,,,,,p109,001,2025-02-13_15h31.59.684,posner_endo_new1,2024.2.4,60.05605632289717,2025-02-13 15h32.09.556758 +0000,
cube_r.png,0.1,0.31,valid,57,57,0,up,9.33750670000154,None,space,0.26823199999853387,None,,,,,0,57,57,57,,,,,578.2210064000028,,,,,,,,,,,,,578.2054344000026,578.2210064000028,578.2210064000028,578.2210064000028,587.5625406000036,,,,587.5685490000033,587.5801629000016,587.5801629000016,587.6280757000022,587.628313600002,587.6447326000016,587.6447326000016,587.6447326000016,587.7279739000005,587.9286000000029,,,,,,,,up,9.33750670000154,None,space,0.26823199999853387,None,,,,,,,,,,,,,,,p109,001,2025-02-13_15h31.59.684,posner_endo_new1,2024.2.4,60.05605632289717,2025-02-13 15h32.09.556758 +0000,
cube_r.png,0.1,-0.31,invalid,58,58,0,up,7.805236199998035,None,space,0.25317509999877075,None,,,,,0,58,58,58,,,,,587.9444428000024,,,,,,,,,,,,,587.9287794000011,587.9444428000024,587.9444428000024,587.9444428000024,595.7539878000025,,,,595.7600500000008,595.7714897000005,595.7714897000005,595.819442,595.8196826000021,595.8364632000012,595.8364632000012,595.8364632000012,595.9030873000011,596.103441700001,,,,,,,,up,7.805236199998035,None,space,0.25317509999877075,None,,,,,,,,,,,,,,,p109,001,2025-02-13_15h31.59.684,posner_endo_new1,2024.2.4,60.05605632289717,2025-02-13 15h32.09.556758 +0000,
cube_l.png,0.1,0.31,invalid,59,59,0,up,7.31042829999933,None,space,0.31571290000283625,None,,,,,0,59,59,59,,,,,596.1195767000027,,,,,,,,,,,,,596.1036204000011,596.1195767000027,596.1195767000027,596.1195767000027,603.4458859000006,,,,603.4518774000026,603.4634595000025,603.4634595000025,603.5120896000008,603.5123254000027,603.528218200001,603.528218200001,603.528218200001,603.6118233000016,603.8454361000004,,,,,,,,up,7.31042829999933,None,space,0.31571290000283625,None,,,,,,,,,,,,,,,p109,001,2025-02-13_15h31.59.684,posner_endo_new1,2024.2.4,60.05605632289717,2025-02-13 15h32.09.556758 +0000,
,,,,,,,,,,,,,,,,,,,,,,,,,,,,,,,,,,,,,,,,,,,,,,,,,,,,,,,,,,,,,,,,,,,,,603.8455526000034,603.861283000002,603.861283000002,663.8665720000026,678.8023102000006,space,74.92893170000025,None,,,,,,,p109,001,2025-02-13_15h31.59.684,posner_endo_new1,2024.2.4,60.05605632289717,2025-02-13 15h32.09.556758 +0000,
,,,,,,,,,,,,,,,,,,,,,,,,,,,,,,,,,,678.8023680000006,678.8182779000017,681.8221145000025,681.7990598000033,,,,,,,,,,,,,,,,,,,,,,,,,,,,,,,,,,,,,,,,,,,,,,p109,001,2025-02-13_15h31.59.684,posner_endo_new1,2024.2.4,60.05605632289717,2025-02-13 15h32.09.556758 +0000,
cube_l.png,0.1,10,catch,0,0,0,down,6.57568750000064,None,None,,,,,,,,,,,0,0,0,0,681.8221145000025,,,,,,,,,,,,,681.8133438000004,681.8221145000025,681.8221145000025,681.8221145000025,688.4090872000015,,,,688.415238900001,688.4267516,688.4267516,688.475207800002,688.4754598,688.4913405000007,688.4913405000007,688.4913405000007,688.5583539000036,691.4887551000029,,,,690.5727481000031,691.5052412000005,691.5052412000005,691.5052412000005,,,,,,,,,,,,,,,down,6.57568750000064,None,None,,,p109,001,2025-02-13_15h31.59.684,posner_endo_new1,2024.2.4,60.05605632289717,2025-02-13 15h32.09.556758 +0000,
cube_l.png,0.1,10,catch,1,1,0,down,6.1727715999986685,None,None,,,,,,,,,,,0,1,1,1,691.5052412000005,,,,,,,,,,,,,691.4889290000028,691.5052412000005,691.5052412000005,691.5052412000005,697.6828134000025,,,,697.6887994000026,697.7003876000017,697.7003876000017,697.7489322000001,697.749169900002,697.7657294000019,697.7657294000019,697.7657294000019,697.832263100001,700.7628049000014,,,,699.8463704000023,700.7791027000021,700.7791027000021,700.7791027000021,,,,,,,,,,,,,,,down,6.1727715999986685,None,None,,,p109,001,2025-02-13_15h31.59.684,posner_endo_new1,2024.2.4,60.05605632289717,2025-02-13 15h32.09.556758 +0000,
cube_l.png,0.1,0.31,invalid,2,2,0,down,4.195320400001947,None,space,0.42690919999949983,None,,,,,,,,,0,2,2,2,700.7791027000021,,,,,,,,,,,,,700.7629804000026,700.7791027000021,700.7791027000021,700.7791027000021,704.9760402000029,,,,704.9820394000017,704.993551800002,704.993551800002,705.0415047000024,705.0417433000002,705.0580595000029,705.0580595000029,705.0580595000029,705.1412733000034,705.4918163000002,,,,,,,,,,,,,,,,,,,,,,down,4.195320400001947,None,space,0.42690919999949983,None,p109,001,2025-02-13_15h31.59.684,posner_endo_new1,2024.2.4,60.05605632289717,2025-02-13 15h32.09.556758 +0000,
cube_l.png,0.1,0.31,invalid,3,3,0,down,7.857969900000171,None,space,0.3930872000019008,None,,,,,,,,,0,3,3,3,705.507887900003,,,,,,,,,,,,,705.4919999000012,705.507887900003,705.507887900003,705.507887900003,713.3674295000019,,,,713.3734866000013,713.3851197000004,713.3851197000004,713.4330571000028,713.4332937000036,713.4496581000021,713.4496581000021,713.4496581000021,713.532978700001,713.8500062000021,,,,,,,,,,,,,,,,,,,,,,down,7.857969900000171,None,space,0.3930872000019008,None,p109,001,2025-02-13_15h31.59.684,posner_endo_new1,2024.2.4,60.05605632289717,2025-02-13 15h32.09.556758 +0000,
cube_l.png,0.1,-0.31,valid,4,4,0,down,7.2922738999986905,None,space,0.4372844999998051,None,,,,,,,,,0,4,4,4,713.8655560000007,,,,,,,,,,,,,713.8501902000025,713.8655560000007,713.8655560000007,713.8655560000007,721.159764,,,,721.1712600000028,721.1816574000004,721.1816574000004,721.2248192000006,721.2250897000013,721.2417143000021,721.2417143000021,721.2417143000021,721.3244819000029,721.6915675000018,,,,,,,,,,,,,,,,,,,,,,down,7.2922738999986905,None,space,0.4372844999998051,None,p109,001,2025-02-13_15h31.59.684,posner_endo_new1,2024.2.4,60.05605632289717,2025-02-13 15h32.09.556758 +0000,
cube_r.png,0.1,-0.31,invalid,5,5,0,down,7.666750699998374,None,space,0.5544102999992901,None,,,,,,,,,0,5,5,5,721.7078691000024,,,,,,,,,,,,,721.6917751000001,721.7078691000024,721.7078691000024,721.7078691000024,729.3837702000019,,,,729.3910630000028,729.4028439000031,729.4028439000031,729.450152100002,729.4504160000033,729.4660690000019,729.4660690000019,729.4660690000019,729.5326877000007,730.0332549000013,,,,,,,,,,,,,,,,,,,,,,down,7.666750699998374,None,space,0.5544102999992901,None,p109,001,2025-02-13_15h31.59.684,posner_endo_new1,2024.2.4,60.05605632289717,2025-02-13 15h32.09.556758 +0000,
cube_r.png,0.1,0.31,valid,6,6,0,down,8.029390499999863,None,space,0.38979550000294694,None,,,,,,,,,0,6,6,6,730.0487947000001,,,,,,,,,,,,,730.0334628000019,730.0487947000001,730.0487947000001,730.0487947000001,738.0914877000032,,,,738.0990199000007,738.1108063000029,738.1108063000029,738.1574216000008,738.1576852000035,738.1740617000032,738.1740617000032,738.1740617000032,738.2406923000017,738.5743802000034,,,,,,,,,,,,,,,,,,,,,,down,8.029390499999863,None,space,0.38979550000294694,None,p109,001,2025-02-13_15h31.59.684,posner_endo_new1,2024.2.4,60.05605632289717,2025-02-13 15h32.09.556758 +0000,
cube_r.png,0.1,-0.31,invalid,7,7,0,down,8.112181299999065,None,space,0.2847556999986409,None,,,,,,,,,0,7,7,7,738.5901042000005,,,,,,,,,,,,,738.574596100003,738.5901042000005,738.5901042000005,738.5901042000005,746.7166293000009,,,,746.7238999000001,746.7352396000024,746.7352396000024,746.7819647000033,746.782228,746.7984785000008,746.7984785000008,746.7984785000008,746.8816910000023,747.0995189000023,,,,,,,,,,,,,,,,,,,,,,down,8.112181299999065,None,space,0.2847556999986409,None,p109,001,2025-02-13_15h31.59.684,posner_endo_new1,2024.2.4,60.05605632289717,2025-02-13 15h32.09.556758 +0000,
cube_l.png,0.1,-0.31,valid,8,8,0,down,8.868147100001806,None,space,0.42722000000139815,None,,,,,,,,,0,8,8,8,747.1149620000033,,,,,,,,,,,,,747.0997249000029,747.1149620000033,747.1149620000033,747.1149620000033,755.9906069000026,,,,755.9979516000021,756.0088257000025,756.0088257000025,756.0562978000016,756.0565617000029,756.0722813000029,756.0722813000029,756.0722813000029,756.1559397000019,756.5063928000018,,,,,,,,,,,,,,,,,,,,,,down,8.868147100001806,None,space,0.42722000000139815,None,p109,001,2025-02-13_15h31.59.684,posner_endo_new1,2024.2.4,60.05605632289717,2025-02-13 15h32.09.556758 +0000,
cube_r.png,0.1,-0.31,invalid,9,9,0,down,8.811860800000431,None,space,0.28095309999844176,None,,,,,,,,,0,9,9,9,756.5223364000012,,,,,,,,,,,,,756.506601000001,756.5223364000012,756.5223364000012,756.5223364000012,765.3474020000031,,,,765.354651900001,765.3661446000006,765.3661446000006,765.4132994000029,765.4135632000034,765.4299674000031,765.4299674000031,765.4299674000031,765.5129263000017,765.7134036000025,,,,,,,,,,,,,,,,,,,,,,down,8.811860800000431,None,space,0.28095309999844176,None,p109,001,2025-02-13_15h31.59.684,posner_endo_new1,2024.2.4,60.05605632289717,2025-02-13 15h32.09.556758 +0000,
cube_l.png,0.1,0.31,invalid,10,10,0,down,7.854528500000015,None,space,0.3366353000019444,None,,,,,,,,,0,10,10,10,765.7290253000028,,,,,,,,,,,,,765.7136088000007,765.7290253000028,765.7290253000028,765.7290253000028,773.5885832000022,,,,773.5958565000001,773.6075458000014,773.6075458000014,773.6544698000034,773.6547372000023,773.6709227000028,773.6709227000028,773.6709227000028,773.7375195000022,774.0218673000018,,,,,,,,,,,,,,,,,,,,,,down,7.854528500000015,None,space,0.3366353000019444,None,p109,001,2025-02-13_15h31.59.684,posner_endo_new1,2024.2.4,60.05605632289717,2025-02-13 15h32.09.556758 +0000,
cube_r.png,0.1,-0.31,invalid,11,11,0,down,8.45671190000212,None,space,0.25914620000185096,None,,,,,,,,,0,11,11,11,774.0371963000034,,,,,,,,,,,,,774.0220745000006,774.0371963000034,774.0371963000034,774.0371963000034,782.4966795,,,,782.5039115,782.515252600002,782.515252600002,782.5622270000022,782.5624914,782.578976300003,782.578976300003,782.578976300003,782.6623297000006,782.8460874000011,,,,,,,,,,,,,,,,,,,,,,down,8.45671190000212,None,space,0.25914620000185096,None,p109,001,2025-02-13_15h31.59.684,posner_endo_new1,2024.2.4,60.05605632289717,2025-02-13 15h32.09.556758 +0000,
cube_r.png,0.1,0.31,valid,12,12,0,down,8.512202999998408,None,space,0.265329699999711,None,,,,,,,,,0,12,12,12,782.8620951000012,,,,,,,,,,,,,782.8462985000006,782.8620951000012,782.8620951000012,782.8620951000012,791.3870623000003,,,,791.3943290000025,791.4061761000012,791.4061761000012,791.4532765000004,791.4535412000005,791.4698607000028,791.4698607000028,791.4698607000028,791.5527193000016,791.736788000002,,,,,,,,,,,,,,,,,,,,,,down,8.512202999998408,None,space,0.265329699999711,None,p109,001,2025-02-13_15h31.59.684,posner_endo_new1,2024.2.4,60.05605632289717,2025-02-13 15h32.09.556758 +0000,
cube_l.png,0.1,10,catch,13,13,0,down,8.829960899998696,None,None,,,,,,,,,,,0,13,13,13,791.7524407000019,,,,,,,,,,,,,791.7370004000004,791.7524407000019,791.7524407000019,791.7524407000019,800.5946587000035,,,,800.6018798000005,800.6135572000021,800.6135572000021,800.6606539000022,800.6609360000002,800.6766977000007,800.6766977000007,800.6766977000007,800.7435838000019,803.6746698000024,,,,802.7580240000025,803.6907705000012,803.6907705000012,803.6907705000012,,,,,,,,,,,,,,,down,8.829960899998696,None,None,,,p109,001,2025-02-13_15h31.59.684,posner_endo_new1,2024.2.4,60.05605632289717,2025-02-13 15h32.09.556758 +0000,
cube_r.png,0.1,-0.31,invalid,14,14,0,down,4.747922499998822,None,space,0.26650359999985085,None,,,,,,,,,0,14,14,14,803.6907705000012,,,,,,,,,,,,,803.6748699000018,803.6907705000012,803.6907705000012,803.6907705000012,808.4531982000008,,,,808.4604667000021,808.4722970000003,808.4722970000003,808.5194239000011,808.5196869000029,808.5355974000013,808.5355974000013,808.5355974000013,808.6190210000022,808.8031162000007,,,,,,,,,,,,,,,,,,,,,,down,4.747922499998822,None,space,0.26650359999985085,None,p109,001,2025-02-13_15h31.59.684,posner_endo_new1,2024.2.4,60.05605632289717,2025-02-13 15h32.09.556758 +0000,
cube_l.png,0.1,-0.31,valid,15,15,0,down,7.756110099999205,None,space,0.4119014000025345,None,,,,,,,,,0,15,15,15,808.8183076000023,,,,,,,,,,,,,808.803322300002,808.8183076000023,808.8183076000023,808.8183076000023,816.5786722000012,,,,816.585901100003,816.5970284000032,816.5970284000032,816.6438818000024,816.6441447000034,816.6607544000035,816.6607544000035,816.6607544000035,816.7441334000032,817.0776375000023,,,,,,,,,,,,,,,,,,,,,,down,7.756110099999205,None,space,0.4119014000025345,None,p109,001,2025-02-13_15h31.59.684,posner_endo_new1,2024.2.4,60.05605632289717,2025-02-13 15h32.09.556758 +0000,
cube_r.png,0.1,10,catch,16,16,0,down,8.183984600000258,None,None,,,,,,,,,,,0,16,16,16,817.0938043000024,,,,,,,,,,,,,817.0778417000001,817.0938043000024,817.0938043000024,817.0938043000024,825.286240700003,,,,825.2936180000033,825.304805300002,825.304805300002,825.3520605000012,825.3523257000015,825.3686115000019,825.3686115000019,825.3686115000019,825.451906000002,828.365584500003,,,,827.4664758000035,828.3823525000007,828.3823525000007,828.3823525000007,,,,,,,,,,,,,,,down,8.183984600000258,None,None,,,p109,001,2025-02-13_15h31.59.684,posner_endo_new1,2024.2.4,60.05605632289717,2025-02-13 15h32.09.556758 +0000,
cube_r.png,0.1,10,catch,17,17,0,down,5.584451000002446,None,space,0.2423992999974871,None,,,,,,,,,0,17,17,17,828.3823525000007,,,,,,,,,,,,,828.3657772000006,828.3823525000007,828.3823525000007,828.3823525000007,833.9771635000034,,,,833.9844105000011,833.996219800003,833.996219800003,834.0427701000008,834.0430386000007,834.0596686000026,834.0596686000026,834.0596686000026,834.1257873000031,834.3099303000017,,,,,,,,,,,,,,,,,,,,,,down,5.584451000002446,None,space,0.2423992999974871,None,p109,001,2025-02-13_15h31.59.684,posner_endo_new1,2024.2.4,60.05605632289717,2025-02-13 15h32.09.556758 +0000,
cube_l.png,0.1,0.31,invalid,18,18,0,down,8.280714500000613,None,space,0.31663939999998547,None,,,,,,,,,0,18,18,18,834.3256754000031,,,,,,,,,,,,,834.3101567000012,834.3256754000031,834.3256754000031,834.3256754000031,842.6180626000023,,,,842.6252969000016,842.6369809000025,842.6369809000025,842.6842683000032,842.6845296000029,842.7005557000011,842.7005557000011,842.7005557000011,842.784121800003,843.0182794000029,,,,,,,,,,,,,,,,,,,,,,down,8.280714500000613,None,space,0.31663939999998547,None,p109,001,2025-02-13_15h31.59.684,posner_endo_new1,2024.2.4,60.05605632289717,2025-02-13 15h32.09.556758 +0000,
cube_l.png,0.1,10,catch,19,19,0,down,7.709020399997826,None,space,0.32173820000025444,None,,,,,,,,,0,19,19,19,843.0336781000005,,,,,,,,,,,,,843.0184846000011,843.0336781000005,843.0336781000005,843.0336781000005,850.7437045000006,,,,850.7509166000018,850.7622571000029,850.7622571000029,850.8096157,850.8098781000008,850.8256415000033,850.8256415000033,850.8256415000033,850.9087104000027,851.1598416000015,,,,,,,,,,,,,,,,,,,,,,down,7.709020399997826,None,space,0.32173820000025444,None,p109,001,2025-02-13_15h31.59.684,posner_endo_new1,2024.2.4,60.05605632289717,2025-02-13 15h32.09.556758 +0000,
cube_l.png,0.1,0.31,invalid,20,20,0,down,8.166994400002295,None,space,0.4142191000028106,None,,,,,,,,,0,20,20,20,851.1750588000032,,,,,,,,,,,,,851.1600474000006,851.1750588000032,851.1750588000032,851.1750588000032,859.3512178000019,,,,859.3585235000028,859.3702019000011,859.3702019000011,859.4171959000014,859.4174580000035,859.4336604000018,859.4336604000018,859.4336604000018,859.5003640000032,859.8509677000002,,,,,,,,,,,,,,,,,,,,,,down,8.166994400002295,None,space,0.4142191000028106,None,p109,001,2025-02-13_15h31.59.684,posner_endo_new1,2024.2.4,60.05605632289717,2025-02-13 15h32.09.556758 +0000,
cube_l.png,0.1,-0.31,valid,21,21,0,down,8.66916029999993,None,space,0.36418809999668156,None,,,,,,,,,0,21,21,21,859.8664664000025,,,,,,,,,,,,,859.8511731000035,859.8664664000025,859.8664664000025,859.8664664000025,868.5417935000005,,,,868.5490407000034,868.5609045000019,868.5609045000019,868.6073763000022,868.6076405000022,868.6244424000033,868.6244424000033,868.6244424000033,868.7072143000005,868.9914798000027,,,,,,,,,,,,,,,,,,,,,,down,8.66916029999993,None,space,0.36418809999668156,None,p109,001,2025-02-13_15h31.59.684,posner_endo_new1,2024.2.4,60.05605632289717,2025-02-13 15h32.09.556758 +0000,
cube_r.png,0.1,0.31,valid,22,22,0,down,8.247754500000156,None,space,0.3070283000015479,None,,,,,,,,,0,22,22,22,869.0068710000014,,,,,,,,,,,,,868.9916907000006,869.0068710000014,869.0068710000014,869.0068710000014,877.2664250000016,,,,877.2738262000021,877.2851139000013,877.2851139000013,877.3324212000007,877.3326852000027,877.3483896000034,877.3483896000034,877.3483896000034,877.4316004000029,877.6658566000006,,,,,,,,,,,,,,,,,,,,,,down,8.247754500000156,None,space,0.3070283000015479,None,p109,001,2025-02-13_15h31.59.684,posner_endo_new1,2024.2.4,60.05605632289717,2025-02-13 15h32.09.556758 +0000,
cube_r.png,0.1,-0.31,invalid,23,23,0,down,8.27747349999845,None,space,0.34126979999928153,None,,,,,,,,,0,23,23,23,877.6813510000029,,,,,,,,,,,,,877.6660633000029,877.6813510000029,877.6813510000029,877.6813510000029,885.9740195000013,,,,885.9812638000003,885.9930392000024,885.9930392000024,886.0401719000001,886.0404365000031,886.0565127000009,886.0565127000009,886.0565127000009,886.1393752000004,886.4070506000025,,,,,,,,,,,,,,,,,,,,,,down,8.27747349999845,None,space,0.34126979999928153,None,p109,001,2025-02-13_15h31.59.684,posner_endo_new1,2024.2.4,60.05605632289717,2025-02-13 15h32.09.556758 +0000,
cube_r.png,0.1,0.31,valid,24,24,0,down,8.120598999998037,None,space,0.37730740000188234,None,,,,,,,,,0,24,24,24,886.4228764,,,,,,,,,,,,,886.4072608000024,886.4228764,886.4228764,886.4228764,894.5483692000016,,,,894.5555859000015,894.5672903000013,894.5672903000013,894.6146818000016,894.6149416000007,894.6310400000002,894.6310400000002,894.6310400000002,894.6977233000034,895.0147108000019,,,,,,,,,,,,,,,,,,,,,,down,8.120598999998037,None,space,0.37730740000188234,None,p109,001,2025-02-13_15h31.59.684,posner_endo_new1,2024.2.4,60.05605632289717,2025-02-13 15h32.09.556758 +0000,
cube_r.png,0.1,-0.31,invalid,25,25,0,down,9.312175000002753,None,space,0.343009100000927,None,,,,,,,,,0,25,25,25,895.0303474000029,,,,,,,,,,,,,895.014918300003,895.0303474000029,895.0303474000029,895.0303474000029,904.3553579,,,,904.3625966,904.3739174000002,904.3739174000002,904.4208761000009,904.4211388000003,904.4377969000016,904.4377969000016,904.4377969000016,904.5205620000015,904.7884369000021,,,,,,,,,,,,,,,,,,,,,,down,9.312175000002753,None,space,0.343009100000927,None,p109,001,2025-02-13_15h31.59.684,posner_endo_new1,2024.2.4,60.05605632289717,2025-02-13 15h32.09.556758 +0000,
cube_l.png,0.1,-0.31,valid,26,26,0,down,9.666299600001366,None,space,0.48401860000012675,None,,,,,,,,,0,26,26,26,904.8042216000031,,,,,,,,,,,,,904.7886499000015,904.8042216000031,904.8042216000031,904.8042216000031,914.4783181000021,,,,914.4856293000012,914.4970676000012,914.4970676000012,914.5443577000005,914.544620800003,914.5603485000029,914.5603485000029,914.5603485000029,914.6438306000018,915.0611339000025,,,,,,,,,,,,,,,,,,,,,,down,9.666299600001366,None,space,0.48401860000012675,None,p109,001,2025-02-13_15h31.59.684,posner_endo_new1,2024.2.4,60.05605632289717,2025-02-13 15h32.09.556758 +0000,
cube_r.png,0.1,0.31,valid,27,27,0,down,8.537914399999863,None,space,0.5316022000006342,None,,,,,,,,,0,27,27,27,915.0766947000011,,,,,,,,,,,,,915.0613392000014,915.0766947000011,915.0766947000011,915.0766947000011,923.618613300001,,,,923.6258003000003,923.637343800001,923.637343800001,923.6844835000011,923.6847447,923.7014130000025,923.7014130000025,923.7014130000025,923.7675895000029,924.2353228000029,,,,,,,,,,,,,,,,,,,,,,down,8.537914399999863,None,space,0.5316022000006342,None,p109,001,2025-02-13_15h31.59.684,posner_endo_new1,2024.2.4,60.05605632289717,2025-02-13 15h32.09.556758 +0000,
cube_r.png,0.1,10,catch,28,28,0,down,8.147554600000149,None,None,,,,,,,,,,,0,28,28,28,924.2508875000021,,,,,,,,,,,,,924.235528600002,924.2508875000021,924.2508875000021,924.2508875000021,932.410181700001,,,,932.4174480000001,932.4288980000019,932.4288980000019,932.4761783000031,932.4764432000011,932.4925531000008,932.4925531000008,932.4925531000008,932.5752801000017,935.4895264000006,,,,934.5898270000034,935.5060723000024,935.5060723000024,935.5060723000024,,,,,,,,,,,,,,,down,8.147554600000149,None,None,,,p109,001,2025-02-13_15h31.59.684,posner_endo_new1,2024.2.4,60.05605632289717,2025-02-13 15h32.09.556758 +0000,
cube_r.png,0.1,0.31,valid,29,29,0,down,5.5487114999996265,None,space,0.3660194000003685,None,,,,,,,,,0,29,29,29,935.5060723000024,,,,,,,,,,,,,935.489722600003,935.5060723000024,935.5060723000024,935.5060723000024,941.0676183000032,,,,941.074859700002,941.0865559000013,941.0865559000013,941.1337536999999,941.134016400003,941.1498192000035,941.1498192000035,941.1498192000035,941.2164261000034,941.5170785000009,,,,,,,,,,,,,,,,,,,,,,down,5.5487114999996265,None,space,0.3660194000003685,None,p109,001,2025-02-13_15h31.59.684,posner_endo_new1,2024.2.4,60.05605632289717,2025-02-13 15h32.09.556758 +0000,
cube_r.png,0.1,0.31,valid,30,30,0,down,8.241455399998813,None,space,0.47801869999966584,None,,,,,,,,,0,30,30,30,941.5328678000005,,,,,,,,,,,,,941.5172867000001,941.5328678000005,941.5328678000005,941.5328678000005,949.7766615,,,,949.7927667000004,949.8030789000004,949.8030789000004,949.8415839000008,949.8419547000012,949.8581816000005,949.8581816000005,949.8581816000005,949.9411996000017,950.3421944000002,,,,,,,,,,,,,,,,,,,,,,down,8.241455399998813,None,space,0.47801869999966584,None,p109,001,2025-02-13_15h31.59.684,posner_endo_new1,2024.2.4,60.05605632289717,2025-02-13 15h32.09.556758 +0000,
cube_l.png,0.1,-0.31,valid,31,31,0,down,8.177750599999854,None,space,0.3907476999993378,None,,,,,,,,,0,31,31,31,950.3572043000022,,,,,,,,,,,,,950.3425046000011,950.3572043000022,950.3572043000022,950.3572043000022,958.5504660000006,,,,958.5618931000026,958.5721090000006,958.5721090000006,958.6160356,958.6163067000016,958.6320661000027,958.6320661000027,958.6320661000027,958.7152007000004,959.0325198000028,,,,,,,,,,,,,,,,,,,,,,down,8.177750599999854,None,space,0.3907476999993378,None,p109,001,2025-02-13_15h31.59.684,posner_endo_new1,2024.2.4,60.05605632289717,2025-02-13 15h32.09.556758 +0000,
cube_r.png,0.1,0.31,valid,32,32,0,down,7.974885100000392,None,space,0.31103169999914826,None,,,,,,,,,0,32,32,32,959.0486259000027,,,,,,,,,,,,,959.0327260000013,959.0486259000027,959.0486259000027,959.0486259000027,967.0247468000016,,,,967.0319749000009,967.043290200003,967.043290200003,967.0901290000002,967.0903952000008,967.107312600001,967.107312600001,967.107312600001,967.1732599000024,967.4239621000015,,,,,,,,,,,,,,,,,,,,,,down,7.974885100000392,None,space,0.31103169999914826,None,p109,001,2025-02-13_15h31.59.684,posner_endo_new1,2024.2.4,60.05605632289717,2025-02-13 15h32.09.556758 +0000,
cube_r.png,0.1,-0.31,invalid,33,33,0,down,6.926915200001531,None,space,0.34030759999950533,None,,,,,,,,,0,33,33,33,967.4401079000017,,,,,,,,,,,,,967.4241785000013,967.4401079000017,967.4401079000017,967.4401079000017,974.3838673000027,,,,974.3910991000012,974.4027079000007,974.4027079000007,974.4496766000011,974.4499434000027,974.4657557000028,974.4657557000028,974.4657557000028,974.5490748000011,974.8167686000015,,,,,,,,,,,,,,,,,,,,,,down,6.926915200001531,None,space,0.34030759999950533,None,p109,001,2025-02-13_15h31.59.684,posner_endo_new1,2024.2.4,60.05605632289717,2025-02-13 15h32.09.556758 +0000,
cube_r.png,0.1,10,catch,34,34,0,down,8.214126700000634,None,space,0.3059450000000652,None,,,,,,,,,0,34,34,34,974.832243300003,,,,,,,,,,,,,974.8169732000024,974.832243300003,974.832243300003,974.832243300003,983.058527600002,,,,983.06581,983.0770796000033,983.0770796000033,983.1238179000029,983.1240788000032,983.1402590000034,983.1402590000034,983.1402590000034,983.2237604000002,983.4580004000018,,,,,,,,,,,,,,,,,,,,,,down,8.214126700000634,None,space,0.3059450000000652,None,p109,001,2025-02-13_15h31.59.684,posner_endo_new1,2024.2.4,60.05605632289717,2025-02-13 15h32.09.556758 +0000,
cube_r.png,0.1,0.31,valid,35,35,0,down,8.39663599999767,None,space,0.361068799997156,None,,,,,,,,,0,35,35,35,983.4738579000004,,,,,,,,,,,,,983.4582063000016,983.4738579000004,983.4738579000004,983.4738579000004,991.8822441000011,,,,991.889506800002,991.9011742000002,991.9011742000002,991.9484908000013,991.9487520000002,991.9646025000002,991.9646025000002,991.9646025000002,992.0483328000009,992.3321066000026,,,,,,,,,,,,,,,,,,,,,,down,8.39663599999767,None,space,0.361068799997156,None,p109,001,2025-02-13_15h31.59.684,posner_endo_new1,2024.2.4,60.05605632289717,2025-02-13 15h32.09.556758 +0000,
cube_r.png,0.1,-0.31,invalid,36,36,0,down,8.234793999999965,None,space,0.42891810000219266,None,,,,,,,,,0,36,36,36,992.3475556000012,,,,,,,,,,,,,992.3323128000011,992.3475556000012,992.3475556000012,992.3475556000012,1000.5901006000022,,,,1000.5973369000021,1000.6091156000002,1000.6091156000002,1000.6558203000022,1000.6560831000024,1000.6725643000027,1000.6725643000027,1000.6725643000027,1000.7555362000021,1001.1066797000021,,,,,,,,,,,,,,,,,,,,,,down,8.234793999999965,None,space,0.42891810000219266,None,p109,001,2025-02-13_15h31.59.684,posner_endo_new1,2024.2.4,60.05605632289717,2025-02-13 15h32.09.556758 +0000,
cube_l.png,0.1,0.31,invalid,37,37,0,down,6.852965099998983,None,space,0.36507200000050943,None,,,,,,,,,0,37,37,37,1001.1219234000018,,,,,,,,,,,,,1001.1068862000029,1001.1219234000018,1001.1219234000018,1001.1219234000018,1007.9826944000015,,,,1007.9899619000025,1008.0015877000005,1008.0015877000005,1008.0488100000002,1008.0490477000021,1008.0653046000007,1008.0653046000007,1008.0653046000007,1008.1314368000021,1008.4321398000029,,,,,,,,,,,,,,,,,,,,,,down,6.852965099998983,None,space,0.36507200000050943,None,p109,001,2025-02-13_15h31.59.684,posner_endo_new1,2024.2.4,60.05605632289717,2025-02-13 15h32.09.556758 +0000,
cube_l.png,0.1,0.31,invalid,38,38,0,down,8.990339099997072,None,space,0.35993380000218167,None,,,,,,,,,0,38,38,38,1008.4481731000014,,,,,,,,,,,,,1008.4323210000002,1008.4481731000014,1008.4481731000014,1008.4481731000014,1017.4401717000001,,,,1017.4463661000009,1017.4581199000022,1017.4581199000022,1017.5052808,1017.505520900002,1017.522195900001,1017.522195900001,1017.522195900001,1017.6054651000013,1017.8890359000034,,,,,,,,,,,,,,,,,,,,,,down,8.990339099997072,None,space,0.35993380000218167,None,p109,001,2025-02-13_15h31.59.684,posner_endo_new1,2024.2.4,60.05605632289717,2025-02-13 15h32.09.556758 +0000,
cube_r.png,0.1,0.31,valid,39,39,0,down,6.805611700001464,None,space,0.2972430000008899,None,,,,,,,,,0,39,39,39,1017.9052385000032,,,,,,,,,,,,,1017.8892218000001,1017.9052385000032,1017.9052385000032,1017.9052385000032,1024.7158963000002,,,,1024.722150900001,1024.734046700003,1024.734046700003,1024.781552200002,1024.781789800003,1024.7979268000017,1024.7979268000017,1024.7979268000017,1024.8809993000032,1025.0988505000023,,,,,,,,,,,,,,,,,,,,,,down,6.805611700001464,None,space,0.2972430000008899,None,p109,001,2025-02-13_15h31.59.684,posner_endo_new1,2024.2.4,60.05605632289717,2025-02-13 15h32.09.556758 +0000,
cube_l.png,0.1,0.31,invalid,40,40,0,down,7.636106199999631,None,space,0.34266589999970165,None,,,,,,,,,0,40,40,40,1025.1144262000016,,,,,,,,,,,,,1025.0990336000032,1025.1144262000016,1025.1144262000016,1025.1144262000016,1032.757578300003,,,,1032.7637614000014,1032.7755520000028,1032.7755520000028,1032.8235810000006,1032.8238203,1032.8394983000035,1032.8394983000035,1032.8394983000035,1032.9229354000017,1033.1905265000023,,,,,,,,,,,,,,,,,,,,,,down,7.636106199999631,None,space,0.34266589999970165,None,p109,001,2025-02-13_15h31.59.684,posner_endo_new1,2024.2.4,60.05605632289717,2025-02-13 15h32.09.556758 +0000,
cube_l.png,0.1,10,catch,41,41,0,down,7.312326200000825,None,None,,,,,,,,,,,0,41,41,41,1033.2062662000026,,,,,,,,,,,,,1033.1907089000015,1033.2062662000026,1033.2062662000026,1033.2062662000026,1040.5330328000018,,,,1040.538983100003,1040.5505545000015,1040.5505545000015,1040.5987207000035,1040.5989610000033,1040.6148761000004,1040.6148761000004,1040.6148761000004,1040.6987687,1043.612688600002,,,,1042.7129594000035,1043.628708100001,1043.628708100001,1043.628708100001,,,,,,,,,,,,,,,down,7.312326200000825,None,None,,,p109,001,2025-02-13_15h31.59.684,posner_endo_new1,2024.2.4,60.05605632289717,2025-02-13 15h32.09.556758 +0000,
cube_l.png,0.1,-0.31,valid,42,42,0,down,6.058332099997642,None,space,0.30070039999918663,None,,,,,,,,,0,42,42,42,1043.628708100001,,,,,,,,,,,,,1043.6128667000012,1043.628708100001,1043.628708100001,1043.628708100001,1049.6901842000007,,,,1049.6962244000024,1049.7078705000022,1049.7078705000022,1049.7561816000016,1049.7564270000003,1049.7726161000028,1049.7726161000028,1049.7726161000028,1049.8554408000018,1050.089552100002,,,,,,,,,,,,,,,,,,,,,,down,6.058332099997642,None,space,0.30070039999918663,None,p109,001,2025-02-13_15h31.59.684,posner_endo_new1,2024.2.4,60.05605632289717,2025-02-13 15h32.09.556758 +0000,
cube_l.png,0.1,10,catch,43,43,0,down,8.773481699998229,None,None,,,,,,,,,,,0,43,43,43,1050.1055743000034,,,,,,,,,,,,,1050.0897558000033,1050.1055743000034,1050.1055743000034,1050.1055743000034,1058.880952200001,,,,1058.8869490000034,1058.898682500003,1058.898682500003,1058.946757400001,1058.9470014000035,1058.9631394000025,1058.9631394000025,1058.9631394000025,1059.046460700003,1061.9608017000028,,,,1061.0611680000002,1061.9767034000033,1061.9767034000033,1061.9767034000033,,,,,,,,,,,,,,,down,8.773481699998229,None,None,,,p109,001,2025-02-13_15h31.59.684,posner_endo_new1,2024.2.4,60.05605632289717,2025-02-13 15h32.09.556758 +0000,
cube_l.png,0.1,0.31,invalid,44,44,0,down,5.9984392000005755,None,space,0.42084690000046976,None,,,,,,,,,0,44,44,44,1061.9767034000033,,,,,,,,,,,,,1061.960972500001,1061.9767034000033,1061.9767034000033,1061.9767034000033,1067.988031300003,,,,1067.9941180000023,1068.0056610000029,1068.0056610000029,1068.0539118000015,1068.0541525000008,1068.0705128000009,1068.0705128000009,1068.0705128000009,1068.1537394000006,1068.5042366000016,,,,,,,,,,,,,,,,,,,,,,down,5.9984392000005755,None,space,0.42084690000046976,None,p109,001,2025-02-13_15h31.59.684,posner_endo_new1,2024.2.4,60.05605632289717,2025-02-13 15h32.09.556758 +0000,
cube_l.png,0.1,0.31,invalid,45,45,0,down,8.710515099999611,None,space,0.4211593999971228,None,,,,,,,,,0,45,45,45,1068.520094800002,,,,,,,,,,,,,1068.504416900003,1068.520094800002,1068.520094800002,1068.520094800002,1077.2453329000018,,,,1077.2513638000019,1077.2629493000022,1077.2629493000022,1077.3117613000031,1077.3119991000021,1077.327481700002,1077.327481700002,1077.327481700002,1077.410964300001,1077.7609594000023,,,,,,,,,,,,,,,,,,,,,,down,8.710515099999611,None,space,0.4211593999971228,None,p109,001,2025-02-13_15h31.59.684,posner_endo_new1,2024.2.4,60.05605632289717,2025-02-13 15h32.09.556758 +0000,
cube_r.png,0.1,0.31,valid,46,46,0,down,7.333303200000955,None,space,0.4815715000004275,None,,,,,,,,,0,46,46,46,1077.7769505000033,,,,,,,,,,,,,1077.7611391000028,1077.7769505000033,1077.7769505000033,1077.7769505000033,1085.1204477000028,,,,1085.1264534000002,1085.138009600003,1085.138009600003,1085.1864179000004,1085.1866562000032,1085.2029155000018,1085.2029155000018,1085.2029155000018,1085.2863443000024,1085.6867218000007,,,,,,,,,,,,,,,,,,,,,,down,7.333303200000955,None,space,0.4815715000004275,None,p109,001,2025-02-13_15h31.59.684,posner_endo_new1,2024.2.4,60.05605632289717,2025-02-13 15h32.09.556758 +0000,
cube_l.png,0.1,-0.31,valid,47,47,0,down,7.968372799998178,None,space,0.29130829999849084,None,,,,,,,,,0,47,47,47,1085.7025821000025,,,,,,,,,,,,,1085.6869049000015,1085.7025821000025,1085.7025821000025,1085.7025821000025,1093.678619600003,,,,1093.6845894000035,1093.6962318000005,1093.6962318000005,1093.7444316,1093.7446724000001,1093.760923400001,1093.760923400001,1093.760923400001,1093.8438428000009,1094.0610489000028,,,,,,,,,,,,,,,,,,,,,,down,7.968372799998178,None,space,0.29130829999849084,None,p109,001,2025-02-13_15h31.59.684,posner_endo_new1,2024.2.4,60.05605632289717,2025-02-13 15h32.09.556758 +0000,
cube_r.png,0.1,-0.31,invalid,48,48,0,down,6.977147800000239,None,space,0.27212080000026617,None,,,,,,,,,0,48,48,48,1094.077264200001,,,,,,,,,,,,,1094.0612465000013,1094.077264200001,1094.077264200001,1094.077264200001,1101.070967300002,,,,1101.0769469000006,1101.0882047000014,1101.0882047000014,1101.1365067000006,1101.1367520000022,1101.1534500000016,1101.1534500000016,1101.1534500000016,1101.2367296000011,1101.4372435000005,,,,,,,,,,,,,,,,,,,,,,down,6.977147800000239,None,space,0.27212080000026617,None,p109,001,2025-02-13_15h31.59.684,posner_endo_new1,2024.2.4,60.05605632289717,2025-02-13 15h32.09.556758 +0000,
cube_r.png,0.1,10,catch,49,49,0,down,7.730003300002863,None,None,,,,,,,,,,,0,49,49,49,1101.4532723000011,,,,,,,,,,,,,1101.4374218000012,1101.4532723000011,1101.4532723000011,1101.4532723000011,1109.1956120000032,,,,1109.2015834000013,1109.2133670000003,1109.2133670000003,1109.2619554000012,1109.2621982000019,1109.2782927000007,1109.2782927000007,1109.2782927000007,1109.344914100002,1112.2756388000016,,,,1111.3596025000006,1112.2921348000018,1112.2921348000018,1112.2921348000018,,,,,,,,,,,,,,,down,7.730003300002863,None,None,,,p109,001,2025-02-13_15h31.59.684,posner_endo_new1,2024.2.4,60.05605632289717,2025-02-13 15h32.09.556758 +0000,
cube_l.png,0.1,-0.31,valid,50,50,0,down,5.2111667999997735,None,space,0.924527200000739,None,,,,,,,,,0,50,50,50,1112.2921348000018,,,,,,,,,,,,,1112.275808800001,1112.2921348000018,1112.2921348000018,1112.2921348000018,1117.504389400001,,,,1117.510346500003,1117.5218862000002,1117.5218862000002,1117.5697537000015,1117.5699940000013,1117.5863299000011,1117.5863299000011,1117.5863299000011,1117.6699861000016,1118.5197146000028,,,,,,,,,,,,,,,,,,,,,,down,5.2111667999997735,None,space,0.924527200000739,None,p109,001,2025-02-13_15h31.59.684,posner_endo_new1,2024.2.4,60.05605632289717,2025-02-13 15h32.09.556758 +0000,
cube_l.png,0.1,-0.31,valid,51,51,0,down,7.591560500000924,None,space,0.4673578000001726,None,,,,,,,,,0,51,51,51,1118.5357945000032,,,,,,,,,,,,,1118.5198960000016,1118.5357945000032,1118.5357945000032,1118.5357945000032,1126.1284787000004,,,,1126.1344178,1126.1461247000007,1126.1461247000007,1126.194760800001,1126.1949994000024,1126.2112868000004,1126.2112868000004,1126.2112868000004,1126.277889500001,1126.6947789000005,,,,,,,,,,,,,,,,,,,,,,down,7.591560500000924,None,space,0.4673578000001726,None,p109,001,2025-02-13_15h31.59.684,posner_endo_new1,2024.2.4,60.05605632289717,2025-02-13 15h32.09.556758 +0000,
cube_r.png,0.1,-0.31,invalid,52,52,0,down,8.0642356999997,None,space,0.4368929999982356,None,,,,,,,,,0,52,52,52,1126.7107198000012,,,,,,,,,,,,,1126.6949645000022,1126.7107198000012,1126.7107198000012,1126.7107198000012,1134.7866361000015,,,,1134.7926047,1134.8042676000005,1134.8042676000005,1134.852633800001,1134.852870300001,1134.8688358,1134.8688358,1134.8688358,1134.935866900003,1135.3188154000018,,,,,,,,,,,,,,,,,,,,,,down,8.0642356999997,None,space,0.4368929999982356,None,p109,001,2025-02-13_15h31.59.684,posner_endo_new1,2024.2.4,60.05605632289717,2025-02-13 15h32.09.556758 +0000,
cube_l.png,0.1,-0.31,valid,53,53,0,down,8.656243400000676,None,space,0.6556922999989183,None,,,,,,,,,0,53,53,53,1135.3350554000026,,,,,,,,,,,,,1135.3190005000033,1135.3350554000026,1135.3350554000026,1135.3350554000026,1143.9934420000027,,,,1143.999440800002,1144.0110314000012,1144.0110314000012,1144.0598028000022,1144.0600433,1144.0761523,1144.0761523,1144.0761523,1144.1427756000012,1144.7425748000023,,,,,,,,,,,,,,,,,,,,,,down,8.656243400000676,None,space,0.6556922999989183,None,p109,001,2025-02-13_15h31.59.684,posner_endo_new1,2024.2.4,60.05605632289717,2025-02-13 15h32.09.556758 +0000,
cube_r.png,0.1,10,catch,54,54,0,down,7.944190800000797,None,space,0.28536869999879855,None,,,,,,,,,0,54,54,54,1144.7589979000004,,,,,,,,,,,,,1144.7427558000018,1144.7589979000004,1144.7589979000004,1144.7589979000004,1152.7181891,,,,1152.7242380000025,1152.7359913,1152.7359913,1152.7835788000011,1152.7838171000003,1152.8008061,1152.8008061,1152.8008061,1152.8670107000034,1153.1007327000007,,,,,,,,,,,,,,,,,,,,,,down,7.944190800000797,None,space,0.28536869999879855,None,p109,001,2025-02-13_15h31.59.684,posner_endo_new1,2024.2.4,60.05605632289717,2025-02-13 15h32.09.556758 +0000,
cube_l.png,0.1,0.31,invalid,55,55,0,down,8.314135100001295,None,space,0.33798419999948237,None,,,,,,,,,0,55,55,55,1153.1171225000035,,,,,,,,,,,,,1153.1009116000023,1153.1171225000035,1153.1171225000035,1153.1171225000035,1161.4423417000035,,,,1161.448313300003,1161.460007900001,1161.460007900001,1161.5081325000028,1161.5083674000016,1161.525219700001,1161.525219700001,1161.525219700001,1161.5917706,1161.8754314000034,,,,,,,,,,,,,,,,,,,,,,down,8.314135100001295,None,space,0.33798419999948237,None,p109,001,2025-02-13_15h31.59.684,posner_endo_new1,2024.2.4,60.05605632289717,2025-02-13 15h32.09.556758 +0000,
cube_l.png,0.1,-0.31,valid,56,56,0,down,7.987354699998832,None,space,0.3810103999967396,None,,,,,,,,,0,56,56,56,1161.8911794000014,,,,,,,,,,,,,1161.8756094000018,1161.8911794000014,1161.8911794000014,1161.8911794000014,1169.8837347000008,,,,1169.8897650000035,1169.9012849000028,1169.9012849000028,1169.9494986000027,1169.949738700001,1169.9666576000018,1169.9666576000018,1169.9666576000018,1170.0331640000004,1170.3503380000002,,,,,,,,,,,,,,,,,,,,,,down,7.987354699998832,None,space,0.3810103999967396,None,p109,001,2025-02-13_15h31.59.684,posner_endo_new1,2024.2.4,60.05605632289717,2025-02-13 15h32.09.556758 +0000,
cube_r.png,0.1,0.31,valid,57,57,0,down,8.609535200001119,None,space,0.309620799998811,None,,,,,,,,,0,57,57,57,1170.3656174000025,,,,,,,,,,,,,1170.3505184000023,1170.3656174000025,1170.3656174000025,1170.3656174000025,1178.9915615000027,,,,1178.9976006000034,1179.0093810000035,1179.0093810000035,1179.0572039000035,1179.0574455000024,1179.0734437000028,1179.0734437000028,1179.0734437000028,1179.1571442000022,1179.3910495000018,,,,,,,,,,,,,,,,,,,,,,down,8.609535200001119,None,space,0.309620799998811,None,p109,001,2025-02-13_15h31.59.684,posner_endo_new1,2024.2.4,60.05605632289717,2025-02-13 15h32.09.556758 +0000,
cube_r.png,0.1,-0.31,invalid,58,58,0,down,7.767628400000831,None,space,0.4329790000010689,None,,,,,,,,,0,58,58,58,1179.4068766000019,,,,,,,,,,,,,1179.3912356,1179.4068766000019,1179.4068766000019,1179.4068766000019,1187.1826107000015,,,,1187.1887327000004,1187.2003148000003,1187.2003148000003,1187.2488978000001,1187.2491378000013,1187.265324,1187.265324,1187.265324,1187.3315959000029,1187.6994032000002,,,,,,,,,,,,,,,,,,,,,,down,7.767628400000831,None,space,0.4329790000010689,None,p109,001,2025-02-13_15h31.59.684,posner_endo_new1,2024.2.4,60.05605632289717,2025-02-13 15h32.09.556758 +0000,
cube_l.png,0.1,0.31,invalid,59,59,0,down,7.780155600001308,None,space,0.4484816000003775,None,,,,,,,,,0,59,59,59,1187.7149654000023,,,,,,,,,,,,,1187.6995917000022,1187.7149654000023,1187.7149654000023,1187.7149654000023,1195.5079502000008,,,,1195.5139408000032,1195.5256254000014,1195.5256254000014,1195.5737705000029,1195.5740081000004,1195.590423200003,1195.590423200003,1195.590423200003,1195.6734409000019,1196.0406697000035,,,,,,,,,,,,,,,,,,,,,,down,7.780155600001308,None,space,0.4484816000003775,None,p109,001,2025-02-13_15h31.59.684,posner_endo_new1,2024.2.4,60.05605632289717,2025-02-13 15h32.09.556758 +0000,
