cue_img,cue_soa,target_x,trial,thisN,thisTrialN,thisRepN,key_control2.keys,key_control2.rt,key_control2.duration,key_resp.keys,key_resp.rt,key_resp.duration,practice.thisRepN,practice.thisTrialN,practice.thisN,practice.thisIndex,block1.thisRepN,block1.thisTrialN,block1.thisN,block1.thisIndex,block2.thisRepN,block2.thisTrialN,block2.thisN,block2.thisIndex,thisRow.t,notes,instructions.started,instructions_txt.started,key_control.started,instructions.stopped,key_control.keys,key_control.rt,key_control.duration,ready.started,ready_txt.started,ready_txt.stopped,ready.stopped,fix.started,fixation.started,key_control2.started,fixation_cross.started,fix.stopped,practice.key_control2.keys,practice.key_control2.rt,practice.key_control2.duration,cue.started,cube.started,fixation_cross_cue.started,cue.stopped,target.started,fixation_target.started,fixation_cross_target.started,key_resp.started,star.started,target.stopped,practice.key_resp.keys,practice.key_resp.rt,practice.key_resp.duration,star.stopped,fixation_target.stopped,fixation_cross_target.stopped,key_resp.stopped,block1.key_control2.keys,block1.key_control2.rt,block1.key_control2.duration,block1.key_resp.keys,block1.key_resp.rt,block1.key_resp.duration,cube.stopped,fixation_cross_cue.stopped,break_2.started,text.started,key_control3.started,text.stopped,break_2.stopped,key_control3.keys,key_control3.rt,key_control3.duration,block2.key_control2.keys,block2.key_control2.rt,block2.key_control2.duration,block2.key_resp.keys,block2.key_resp.rt,block2.key_resp.duration,participant,session,date,expName,psychopyVersion,frameRate,expStart,
,,,,,,,,,,,,,,,,,,,,,,,,,,,0.007386300000007395,0.02443940000011935,0.02443940000011935,9.570611400000189,up,9.52876029999993,None,,,,,,,,,,,,,,,,,,,,,,,,,,,,,,,,,,,,,,,,,,,,,,,,,,,,p110,001,2025-02-14_09h12.14.377,posner_endo_new1,2024.2.4,59.99919601073592,2025-02-14 09h12.25.513211 +0000,
,,,,,,,,,,,,,,,,,,,,,,,,,,,,,,,,,,9.57067670000015,9.582593300000099,12.586501700000099,12.562840499999993,,,,,,,,,,,,,,,,,,,,,,,,,,,,,,,,,,,,,,,,,,,,,,,,p110,001,2025-02-14_09h12.14.377,posner_endo_new1,2024.2.4,59.99919601073592,2025-02-14 09h12.25.513211 +0000,
cube_l.png,0.1,-0.31,valid,0,0,0,down,13.830390999999963,None,space,0.4264422999999624,None,0,0,0,0,,,,,,,,,12.586501700000099,,,,,,,,,,,,,12.574713299999985,12.586501700000099,12.586501700000099,12.586501700000099,26.432261900000185,down,13.830390999999963,None,26.444794300000012,26.454971600000135,26.454971600000135,26.498245800000177,26.498466500000177,26.514761600000156,26.514761600000156,26.514761600000156,26.581354600000168,26.948363900000004,space,0.4264422999999624,None,,,,,,,,,,,,,,,,,,,,,,,,,,,p110,001,2025-02-14_09h12.14.377,posner_endo_new1,2024.2.4,59.99919601073592,2025-02-14 09h12.25.513211 +0000,
cube_l.png,0.1,0.31,invalid,1,1,0,down,4.452526600000056,None,space,0.3552993000000697,None,0,1,1,1,,,,,,,,,26.96446140000012,,,,,,,,,,,,,26.94853050000006,26.96446140000012,26.96446140000012,26.96446140000012,31.428203200000098,down,4.452526600000056,None,31.44830210000009,31.460285000000113,31.460285000000113,31.493146100000104,31.493432500000154,31.509584300000142,31.509584300000142,31.509584300000142,31.592768100000058,31.877037700000074,space,0.3552993000000697,None,,,,,,,,,,,,,,,,,,,,,,,,,,,p110,001,2025-02-14_09h12.14.377,posner_endo_new1,2024.2.4,59.99919601073592,2025-02-14 09h12.25.513211 +0000,
cube_r.png,0.1,-0.31,invalid,2,2,0,down,4.25285840000015,None,space,0.3492327000001296,None,0,2,2,2,,,,,,,,,31.892499600000065,,,,,,,,,,,,,31.877263500000026,31.892499600000065,31.892499600000065,31.892499600000065,36.155749600000036,down,4.25285840000015,None,36.16732539999998,36.177409000000125,36.177409000000125,36.22156150000001,36.221847400000115,36.23804140000016,36.23804140000016,36.23804140000016,36.304677500000025,36.58904540000003,space,0.3492327000001296,None,,,,,,,,,,,,,,,,,,,,,,,,,,,p110,001,2025-02-14_09h12.14.377,posner_endo_new1,2024.2.4,59.99919601073592,2025-02-14 09h12.25.513211 +0000,
cube_r.png,0.1,10,catch,3,3,0,down,3.6439629000001332,None,None,,,0,3,3,3,,,,,,,,,36.60441770000011,,,,,,,,,,,,,36.589272900000196,36.60441770000011,36.60441770000011,36.60441770000011,40.252758700000186,down,3.6439629000001332,None,40.27130680000005,40.28252370000018,40.28252370000018,40.31754250000017,40.3178504,40.33382280000001,40.33382280000001,40.33382280000001,40.41745100000003,43.33184670000014,None,,,42.43196050000006,43.347496500000034,43.347496500000034,43.347496500000034,,,,,,,,,,,,,,,,,,,,,,,p110,001,2025-02-14_09h12.14.377,posner_endo_new1,2024.2.4,59.99919601073592,2025-02-14 09h12.25.513211 +0000,
cube_l.png,0.1,-0.31,valid,4,4,0,down,1.3572652999998809,None,space,0.39988659999994525,None,0,4,4,4,,,,,,,,,43.347496500000034,,,,,,,,,,,,,43.33210740000004,43.347496500000034,43.347496500000034,43.347496500000034,44.71405410000011,down,1.3572652999998809,None,44.72542140000019,44.73597440000003,44.73597440000003,44.77953840000009,44.77989220000018,44.796125300000085,44.796125300000085,44.796125300000085,44.87935700000003,45.19722930000012,space,0.39988659999994525,None,,,,,,,,,,,,,,,,,,,,,,,,,,,p110,001,2025-02-14_09h12.14.377,posner_endo_new1,2024.2.4,59.99919601073592,2025-02-14 09h12.25.513211 +0000,
cube_l.png,0.1,0.31,invalid,5,5,0,down,2.9085722999998325,None,space,0.5111137000001236,None,0,5,5,5,,,,,,,,,45.21231200000011,,,,,,,,,,,,,45.19751250000013,45.21231200000011,45.21231200000011,45.21231200000011,48.12711110000009,down,2.9085722999998325,None,48.13687230000005,48.14665630000013,48.14665630000013,48.19257450000009,48.19281050000018,48.2093189000002,48.2093189000002,48.2093189000002,48.29249279999999,48.72629720000009,space,0.5111137000001236,None,,,,,,,,,,,,,,,,,,,,,,,,,,,p110,001,2025-02-14_09h12.14.377,posner_endo_new1,2024.2.4,59.99919601073592,2025-02-14 09h12.25.513211 +0000,
cube_r.png,0.1,-0.31,invalid,6,6,0,down,4.210499400000117,None,space,0.4265995999999177,None,0,6,6,6,,,,,,,,,48.74211450000007,,,,,,,,,,,,,48.726478600000064,48.74211450000007,48.74211450000007,48.74211450000007,52.95540010000013,down,4.210499400000117,None,52.96242640000014,52.974418900000046,52.974418900000046,53.0211204000002,53.02134480000018,53.037733100000196,53.037733100000196,53.037733100000196,53.120857100000194,53.471246000000065,space,0.4265995999999177,None,,,,,,,,,,,,,,,,,,,,,,,,,,,p110,001,2025-02-14_09h12.14.377,posner_endo_new1,2024.2.4,59.99919601073592,2025-02-14 09h12.25.513211 +0000,
cube_r.png,0.1,0.31,valid,7,7,0,down,1.8334939999999733,None,space,0.45843569999988176,None,0,7,7,7,,,,,,,,,53.4872541000002,,,,,,,,,,,,,53.47141210000018,53.4872541000002,53.4872541000002,53.4872541000002,55.3362853000001,down,1.8334939999999733,None,55.342330300000185,55.35399070000017,55.35399070000017,55.40199540000003,55.40222030000018,55.41880850000007,55.41880850000007,55.41880850000007,55.50169750000009,55.885574300000144,space,0.45843569999988176,None,,,,,,,,,,,,,,,,,,,,,,,,,,,p110,001,2025-02-14_09h12.14.377,posner_endo_new1,2024.2.4,59.99919601073592,2025-02-14 09h12.25.513211 +0000,
cube_l.png,0.1,-0.31,valid,8,8,0,down,2.434906899999987,None,space,0.4076574000000619,None,0,8,8,8,,,,,,,,,55.90145640000014,,,,,,,,,,,,,55.88574820000008,55.90145640000014,55.90145640000014,55.90145640000014,58.34969760000013,down,2.434906899999987,None,58.3556195000001,58.367296900000156,58.367296900000156,58.41554350000001,58.415781400000014,58.43225580000012,58.43225580000012,58.43225580000012,58.51524990000007,58.849199,space,0.4076574000000619,None,,,,,,,,,,,,,,,,,,,,,,,,,,,p110,001,2025-02-14_09h12.14.377,posner_endo_new1,2024.2.4,59.99919601073592,2025-02-14 09h12.25.513211 +0000,
cube_r.png,0.1,-0.31,invalid,9,9,0,down,3.055114400000093,None,space,0.5061636999998882,None,0,9,9,9,,,,,,,,,58.865088800000194,,,,,,,,,,,,,58.84937980000018,58.865088800000194,58.865088800000194,58.865088800000194,61.929419900000084,down,3.055114400000093,None,61.93630110000004,61.94809000000009,61.94809000000009,61.995165600000064,61.99540250000018,62.01191390000008,62.01191390000008,62.01191390000008,62.0782779000001,62.528795400000035,space,0.5061636999998882,None,,,,,,,,,,,,,,,,,,,,,,,,,,,p110,001,2025-02-14_09h12.14.377,posner_endo_new1,2024.2.4,59.99919601073592,2025-02-14 09h12.25.513211 +0000,
cube_r.png,0.1,0.31,valid,10,10,0,down,4.015926199999967,None,space,0.4621600000000399,None,0,10,10,10,,,,,,,,,62.54439380000008,,,,,,,,,,,,,62.52897350000012,62.54439380000008,62.54439380000008,62.54439380000008,66.57443110000008,down,4.015926199999967,None,66.58152089999999,66.59340940000016,66.59340940000016,66.64060570000015,66.64084330000014,66.65716070000008,66.65716070000008,66.65716070000008,66.72360690000005,67.12412940000013,space,0.4621600000000399,None,,,,,,,,,,,,,,,,,,,,,,,,,,,p110,001,2025-02-14_09h12.14.377,posner_endo_new1,2024.2.4,59.99919601073592,2025-02-14 09h12.25.513211 +0000,
,,,,,,,,,,,,,,,,,,,,,,,,,,,,,,,,,,67.1242516000002,67.13978240000006,70.15802550000012,70.12089480000009,,,,,,,,,,,,,,,,,,,,,,,,,,,,,,,,,,,,,,,,,,,,,,,,p110,001,2025-02-14_09h12.14.377,posner_endo_new1,2024.2.4,59.99919601073592,2025-02-14 09h12.25.513211 +0000,
cube_l.png,0.1,10,catch,0,0,0,down,3.242034599999897,None,None,,,,,,,0,0,0,0,,,,,70.15802550000012,,,,,,,,,,,,,70.14848260000008,70.15802550000012,70.15802550000012,70.15802550000012,73.40154400000006,,,,73.41304530000002,73.42348400000014,73.42348400000014,73.46689420000007,73.46724870000003,73.48332140000002,73.48332140000002,73.48332140000002,73.5667019,76.4811393,,,,75.58120540000004,76.49693339999999,76.49693339999999,76.49693339999999,down,3.242034599999897,None,None,,,,,,,,,,,,,,,,,,,p110,001,2025-02-14_09h12.14.377,posner_endo_new1,2024.2.4,59.99919601073592,2025-02-14 09h12.25.513211 +0000,
cube_l.png,0.1,10,catch,1,1,0,down,1.3994990999999573,None,None,,,,,,,0,1,1,1,,,,,76.49693339999999,,,,,,,,,,,,,76.48142440000015,76.49693339999999,76.49693339999999,76.49693339999999,77.91359320000015,,,,77.92517160000011,77.93530940000005,77.93530940000005,77.97910999999999,77.97946380000008,77.99561870000002,77.99561870000002,77.99561870000002,78.0788007000001,80.99311980000016,,,,80.09326040000019,81.00905020000005,81.00905020000005,81.00905020000005,down,1.3994990999999573,None,None,,,,,,,,,,,,,,,,,,,p110,001,2025-02-14_09h12.14.377,posner_endo_new1,2024.2.4,59.99919601073592,2025-02-14 09h12.25.513211 +0000,
cube_l.png,0.1,0.31,invalid,2,2,0,down,1.5191149999998288,None,space,0.6284559000000627,None,,,,,0,2,2,2,,,,,81.00905020000005,,,,,,,,,,,,,80.99339760000021,81.00905020000005,81.00905020000005,81.00905020000005,82.5419518000001,,,,82.55344660000014,82.56366260000004,82.56366260000004,82.60759040000016,82.6079387000002,82.6240729000001,82.6240729000001,82.6240729000001,82.7070549,83.25799560000019,,,,,,,,down,1.5191149999998288,None,space,0.6284559000000627,None,,,,,,,,,,,,,,,,,p110,001,2025-02-14_09h12.14.377,posner_endo_new1,2024.2.4,59.99919601073592,2025-02-14 09h12.25.513211 +0000,
cube_l.png,0.1,0.31,invalid,3,3,0,down,3.062998200000038,None,space,0.5787305999999717,None,,,,,0,3,3,3,,,,,83.27328540000008,,,,,,,,,,,,,83.25829920000001,83.27328540000008,83.27328540000008,83.27328540000008,86.33850600000005,,,,86.3499299,86.36030530000016,86.36030530000016,86.40366820000008,86.40402400000016,86.4200823000001,86.4200823000001,86.4200823000001,86.50334250000014,87.00449220000019,,,,,,,,down,3.062998200000038,None,space,0.5787305999999717,None,,,,,,,,,,,,,,,,,p110,001,2025-02-14_09h12.14.377,posner_endo_new1,2024.2.4,59.99919601073592,2025-02-14 09h12.25.513211 +0000,
cube_l.png,0.1,-0.31,valid,4,4,0,down,2.645315299999993,None,space,0.4130709000000934,None,,,,,0,4,4,4,,,,,87.01955180000004,,,,,,,,,,,,,87.00481600000012,87.01955180000004,87.01955180000004,87.01955180000004,89.66837570000007,,,,89.6798053,89.69026970000004,89.69026970000004,89.73358460000009,89.7339336,89.75020160000008,89.75020160000008,89.75020160000008,89.83336270000018,90.16775210000014,,,,,,,,down,2.645315299999993,None,space,0.4130709000000934,None,,,,,,,,,,,,,,,,,p110,001,2025-02-14_09h12.14.377,posner_endo_new1,2024.2.4,59.99919601073592,2025-02-14 09h12.25.513211 +0000,
cube_r.png,0.1,-0.31,invalid,5,5,0,down,2.785538699999961,None,space,0.4450395000001208,None,,,,,0,5,5,5,,,,,90.18290969999998,,,,,,,,,,,,,90.1680566,90.18290969999998,90.18290969999998,90.18290969999998,92.98120210000002,,,,92.98919840000008,92.99960260000012,92.99960260000012,93.0467059,93.04695540000012,93.06314210000005,93.06314210000005,93.06314210000005,93.1465326,93.51378080000018,,,,,,,,down,2.785538699999961,None,space,0.4450395000001208,None,,,,,,,,,,,,,,,,,p110,001,2025-02-14_09h12.14.377,posner_endo_new1,2024.2.4,59.99919601073592,2025-02-14 09h12.25.513211 +0000,
cube_r.png,0.1,0.31,valid,6,6,0,down,3.6949723000000176,None,space,0.3512377000001834,None,,,,,0,6,6,6,,,,,93.52958469999999,,,,,,,,,,,,,93.51399060000017,93.52958469999999,93.52958469999999,93.52958469999999,97.22669860000019,,,,97.23412770000004,97.24540700000011,97.24540700000011,97.29242190000014,97.29268760000014,97.3087207000001,97.3087207000001,97.3087207000001,97.39208940000003,97.67608830000017,,,,,,,,down,3.6949723000000176,None,space,0.3512377000001834,None,,,,,,,,,,,,,,,,,p110,001,2025-02-14_09h12.14.377,posner_endo_new1,2024.2.4,59.99919601073592,2025-02-14 09h12.25.513211 +0000,
cube_r.png,0.1,-0.31,invalid,7,7,0,down,2.749005299999908,None,space,0.35055339999985335,None,,,,,0,7,7,7,,,,,97.69200369999999,,,,,,,,,,,,,97.67628760000002,97.69200369999999,97.69200369999999,97.69200369999999,100.45667530000014,,,,100.46429850000004,100.47530400000005,100.47530400000005,100.5221382000002,100.52240060000008,100.53904350000016,100.53904350000016,100.53904350000016,100.62214170000016,100.90628470000001,,,,,,,,down,2.749005299999908,None,space,0.35055339999985335,None,,,,,,,,,,,,,,,,,p110,001,2025-02-14_09h12.14.377,posner_endo_new1,2024.2.4,59.99919601073592,2025-02-14 09h12.25.513211 +0000,
cube_l.png,0.1,-0.31,valid,8,8,0,down,3.102494500000148,None,space,0.6790582999999515,None,,,,,0,8,8,8,,,,,100.92180340000004,,,,,,,,,,,,,100.90649370000006,100.92180340000004,100.92180340000004,100.92180340000004,104.03617810000014,,,,104.0436244,104.0550882,104.0550882,104.10213570000019,104.10239550000006,104.11864100000003,104.11864100000003,104.11864100000003,104.18525530000011,104.80205230000001,,,,,,,,down,3.102494500000148,None,space,0.6790582999999515,None,,,,,,,,,,,,,,,,,p110,001,2025-02-14_09h12.14.377,posner_endo_new1,2024.2.4,59.99919601073592,2025-02-14 09h12.25.513211 +0000,
cube_r.png,0.1,-0.31,invalid,9,9,0,down,2.0942059999999856,None,space,0.45173819999990883,None,,,,,0,9,9,9,,,,,104.81793590000007,,,,,,,,,,,,,104.80225340000015,104.81793590000007,104.81793590000007,104.81793590000007,106.9167609000001,,,,106.9241191000001,106.93536890000019,106.93536890000019,106.98228430000017,106.98254670000006,106.9988307000001,106.9988307000001,106.9988307000001,107.08222670000009,107.4661615,,,,,,,,down,2.0942059999999856,None,space,0.45173819999990883,None,,,,,,,,,,,,,,,,,p110,001,2025-02-14_09h12.14.377,posner_endo_new1,2024.2.4,59.99919601073592,2025-02-14 09h12.25.513211 +0000,
cube_l.png,0.1,0.31,invalid,10,10,0,down,3.3582338000001073,None,space,0.6848829999998998,None,,,,,0,10,10,10,,,,,107.48185400000011,,,,,,,,,,,,,107.46638030000008,107.48185400000011,107.48185400000011,107.48185400000011,110.84597010000016,,,,110.8533202000001,110.8647469,110.8647469,110.91159460000017,110.9118569000002,110.92801810000014,110.92801810000014,110.92801810000014,111.01134030000003,111.62848040000017,,,,,,,,down,3.3582338000001073,None,space,0.6848829999998998,None,,,,,,,,,,,,,,,,,p110,001,2025-02-14_09h12.14.377,posner_endo_new1,2024.2.4,59.99919601073592,2025-02-14 09h12.25.513211 +0000,
cube_r.png,0.1,-0.31,invalid,11,11,0,down,3.4917758000001413,None,space,0.5082797000000028,None,,,,,0,11,11,11,,,,,111.64428320000002,,,,,,,,,,,,,111.62869120000005,111.64428320000002,111.64428320000002,111.64428320000002,115.14163480000002,,,,115.14877700000011,115.1603814,115.1603814,115.2075235000002,115.2077713000001,115.22419890000015,115.22419890000015,115.22419890000015,115.30721010000002,115.74073840000005,,,,,,,,down,3.4917758000001413,None,space,0.5082797000000028,None,,,,,,,,,,,,,,,,,p110,001,2025-02-14_09h12.14.377,posner_endo_new1,2024.2.4,59.99919601073592,2025-02-14 09h12.25.513211 +0000,
cube_r.png,0.1,0.31,valid,12,12,0,down,1.9313955999998598,None,space,0.44813730000009855,None,,,,,0,12,12,12,,,,,115.75671690000013,,,,,,,,,,,,,115.74094980000018,115.75671690000013,115.75671690000013,115.75671690000013,117.68901140000003,,,,117.69633550000003,117.70772210000018,117.70772210000018,117.75490950000017,117.75517639999998,117.77119010000001,117.77119010000001,117.77119010000001,117.85446969999998,118.22163450000016,,,,,,,,down,1.9313955999998598,None,space,0.44813730000009855,None,,,,,,,,,,,,,,,,,p110,001,2025-02-14_09h12.14.377,posner_endo_new1,2024.2.4,59.99919601073592,2025-02-14 09h12.25.513211 +0000,
cube_l.png,0.1,10,catch,13,13,0,down,3.1634983999999804,None,None,,,,,,,0,13,13,13,,,,,118.23730020000016,,,,,,,,,,,,,118.22183710000013,118.23730020000016,118.23730020000016,118.23730020000016,121.4019608000001,,,,121.40911610000012,121.43211840000004,121.43211840000004,121.4677720000002,121.4680208000002,121.48412120000012,121.48412120000012,121.48412120000012,121.56736210000008,124.48153850000017,,,,123.58209800000009,124.49775990000012,124.49775990000012,124.49775990000012,down,3.1634983999999804,None,None,,,,,,,,,,,,,,,,,,,p110,001,2025-02-14_09h12.14.377,posner_endo_new1,2024.2.4,59.99919601073592,2025-02-14 09h12.25.513211 +0000,
cube_r.png,0.1,-0.31,invalid,14,14,0,down,0.4709715999999844,None,space,0.42229900000006637,None,,,,,0,14,14,14,,,,,124.49775990000012,,,,,,,,,,,,,124.48170520000008,124.49775990000012,124.49775990000012,124.49775990000012,124.9812687000001,,,,124.9871684000002,124.99863600000003,124.99863600000003,125.04726100000016,125.04748250000011,125.06407620000004,125.06407620000004,125.06407620000004,125.13035960000002,125.49757290000002,,,,,,,,down,0.4709715999999844,None,space,0.42229900000006637,None,,,,,,,,,,,,,,,,,p110,001,2025-02-14_09h12.14.377,posner_endo_new1,2024.2.4,59.99919601073592,2025-02-14 09h12.25.513211 +0000,
cube_l.png,0.1,-0.31,valid,15,15,0,down,3.320092700000032,None,space,0.4224668000001657,None,,,,,0,15,15,15,,,,,125.51315910000017,,,,,,,,,,,,,125.49775080000018,125.51315910000017,125.51315910000017,125.51315910000017,128.84396000000015,,,,128.8500722000001,128.86181640000018,128.86181640000018,128.90994180000007,128.91018070000018,128.9265428000001,128.9265428000001,128.9265428000001,129.00975530000005,129.36021060000007,,,,,,,,down,3.320092700000032,None,space,0.4224668000001657,None,,,,,,,,,,,,,,,,,p110,001,2025-02-14_09h12.14.377,posner_endo_new1,2024.2.4,59.99919601073592,2025-02-14 09h12.25.513211 +0000,
cube_r.png,0.1,10,catch,16,16,0,down,3.0719112000001587,None,None,,,,,,,0,16,16,16,,,,,129.37606240000014,,,,,,,,,,,,,129.3603842,129.37606240000014,129.37606240000014,129.37606240000014,132.45716310000012,,,,132.46347830000013,132.47529320000012,132.47529320000012,132.523015,132.5232387000001,132.53950520000012,132.53950520000012,132.53950520000012,132.60630400000014,135.53694070000006,,,,134.62069070000007,135.5531354000002,135.5531354000002,135.5531354000002,down,3.0719112000001587,None,None,,,,,,,,,,,,,,,,,,,p110,001,2025-02-14_09h12.14.377,posner_endo_new1,2024.2.4,59.99919601073592,2025-02-14 09h12.25.513211 +0000,
cube_r.png,0.1,10,catch,17,17,0,down,3.343813500000124,None,None,,,,,,,0,17,17,17,,,,,135.5531354000002,,,,,,,,,,,,,135.53710710000018,135.5531354000002,135.5531354000002,135.5531354000002,138.90071000000012,,,,138.90705000000003,138.91835770000012,138.91835770000012,138.96615500000007,138.96661030000018,138.98256609999999,138.98256609999999,138.98256609999999,139.06583320000004,141.9802966000002,,,,141.08068509999998,141.99638750000008,141.99638750000008,141.99638750000008,down,3.343813500000124,None,None,,,,,,,,,,,,,,,,,,,p110,001,2025-02-14_09h12.14.377,posner_endo_new1,2024.2.4,59.99919601073592,2025-02-14 09h12.25.513211 +0000,
cube_l.png,0.1,0.31,invalid,18,18,0,down,0.4676698999999189,None,space,0.5213092000001325,None,,,,,0,18,18,18,,,,,141.99638750000008,,,,,,,,,,,,,141.9805351,141.99638750000008,141.99638750000008,141.99638750000008,142.48051680000003,,,,142.49035300000014,142.50052970000002,142.50052970000002,142.54608389999999,142.5464045000001,142.5624667000002,142.5624667000002,142.5624667000002,142.64560920000008,143.09639830000015,,,,,,,,down,0.4676698999999189,None,space,0.5213092000001325,None,,,,,,,,,,,,,,,,,p110,001,2025-02-14_09h12.14.377,posner_endo_new1,2024.2.4,59.99919601073592,2025-02-14 09h12.25.513211 +0000,
cube_l.png,0.1,10,catch,19,19,0,down,2.8730350999999246,None,None,,,,,,,0,19,19,19,,,,,143.11190690000012,,,,,,,,,,,,,143.0966549000002,143.11190690000012,143.11190690000012,143.11190690000012,145.9938645000002,,,,146.00389380000001,146.01415420000012,146.01415420000012,146.05919940000013,146.05951670000013,146.07576860000017,146.07576860000017,146.07576860000017,146.1586053000001,149.07317820000003,,,,148.17336369999998,149.08917870000005,149.08917870000005,149.08917870000005,down,2.8730350999999246,None,None,,,,,,,,,,,,,,,,,,,p110,001,2025-02-14_09h12.14.377,posner_endo_new1,2024.2.4,59.99919601073592,2025-02-14 09h12.25.513211 +0000,
cube_l.png,0.1,0.31,invalid,20,20,0,down,1.0149180000000797,None,space,0.4822463999998945,None,,,,,0,20,20,20,,,,,149.08917870000005,,,,,,,,,,,,,149.0734172,149.08917870000005,149.08917870000005,149.08917870000005,150.10597440000015,,,,150.11566490000018,150.1262382,150.1262382,150.17167230000018,150.17199449999998,150.1880007000002,150.1880007000002,150.1880007000002,150.2713248,150.6723260000001,,,,,,,,down,1.0149180000000797,None,space,0.4822463999998945,None,,,,,,,,,,,,,,,,,p110,001,2025-02-14_09h12.14.377,posner_endo_new1,2024.2.4,59.99919601073592,2025-02-14 09h12.25.513211 +0000,
cube_l.png,0.1,-0.31,valid,21,21,0,down,4.272652500000049,None,space,0.5529195999999956,None,,,,,0,21,21,21,,,,,150.68751120000002,,,,,,,,,,,,,150.67258390000006,150.68751120000002,150.68751120000002,150.68751120000002,154.96760930000005,,,,154.9773521000002,154.98740220000013,154.98740220000013,155.03330490000008,155.03361210000003,155.04977860000008,155.04977860000008,155.04977860000008,155.13299640000014,155.61683660000017,,,,,,,,down,4.272652500000049,None,space,0.5529195999999956,None,,,,,,,,,,,,,,,,,p110,001,2025-02-14_09h12.14.377,posner_endo_new1,2024.2.4,59.99919601073592,2025-02-14 09h12.25.513211 +0000,
cube_r.png,0.1,0.31,valid,22,22,0,down,2.992324800000006,None,space,0.7064528000000792,None,,,,,0,22,22,22,,,,,155.63257280000016,,,,,,,,,,,,,155.61710349999998,155.63257280000016,155.63257280000016,155.63257280000016,158.63048860000004,,,,158.63997080000013,158.6503507,158.6503507,158.69639010000014,158.69669970000018,158.71288700000014,158.71288700000014,158.71288700000014,158.79602620000014,159.42983590000017,,,,,,,,down,2.992324800000006,None,space,0.7064528000000792,None,,,,,,,,,,,,,,,,,p110,001,2025-02-14_09h12.14.377,posner_endo_new1,2024.2.4,59.99919601073592,2025-02-14 09h12.25.513211 +0000,
cube_r.png,0.1,-0.31,invalid,23,23,0,down,3.2918028999999933,None,space,0.4986393000001499,None,,,,,0,23,23,23,,,,,159.44516970000018,,,,,,,,,,,,,159.4300932000001,159.44516970000018,159.44516970000018,159.44516970000018,162.74308380000002,,,,162.7526369000002,162.76283580000018,162.76283580000018,162.8087617000001,162.80906820000018,162.82513310000013,162.82513310000013,162.82513310000013,162.90841920000003,163.32571340000004,,,,,,,,down,3.2918028999999933,None,space,0.4986393000001499,None,,,,,,,,,,,,,,,,,p110,001,2025-02-14_09h12.14.377,posner_endo_new1,2024.2.4,59.99919601073592,2025-02-14 09h12.25.513211 +0000,
cube_r.png,0.1,0.31,valid,24,24,0,down,3.6998166000000765,None,space,0.4568629000000328,None,,,,,0,24,24,24,,,,,163.3411698,,,,,,,,,,,,,163.3259676,163.3411698,163.3411698,163.3411698,167.0551521,,,,167.06470710000008,167.07493010000007,167.07493010000007,167.12101100000018,167.12133130000007,167.13771780000002,167.13771780000002,167.13771780000002,167.220638,167.60447950000002,,,,,,,,down,3.6998166000000765,None,space,0.4568629000000328,None,,,,,,,,,,,,,,,,,p110,001,2025-02-14_09h12.14.377,posner_endo_new1,2024.2.4,59.99919601073592,2025-02-14 09h12.25.513211 +0000,
cube_r.png,0.1,-0.31,invalid,25,25,0,down,4.187664300000051,None,space,0.41326550000007956,None,,,,,0,25,25,25,,,,,167.6203879000002,,,,,,,,,,,,,167.60473760000013,167.6203879000002,167.6203879000002,167.6203879000002,171.8168237,,,,171.82637710000017,171.8367373000001,171.8367373000001,171.8826646,171.8829704000002,171.89926630000014,171.89926630000014,171.89926630000014,171.9657923000002,172.3166708000001,,,,,,,,down,4.187664300000051,None,space,0.41326550000007956,None,,,,,,,,,,,,,,,,,p110,001,2025-02-14_09h12.14.377,posner_endo_new1,2024.2.4,59.99919601073592,2025-02-14 09h12.25.513211 +0000,
cube_l.png,0.1,-0.31,valid,26,26,0,down,3.6121377000001758,None,space,0.44777989999988677,None,,,,,0,26,26,26,,,,,172.33199220000006,,,,,,,,,,,,,172.31692570000018,172.33199220000006,172.33199220000006,172.33199220000006,175.94626870000002,,,,175.9558585000002,175.96603900000014,175.96603900000014,176.0117398,176.0120581000001,176.02822720000017,176.02822720000017,176.02822720000017,176.1116188000001,176.47906910000006,,,,,,,,down,3.6121377000001758,None,space,0.44777989999988677,None,,,,,,,,,,,,,,,,,p110,001,2025-02-14_09h12.14.377,posner_endo_new1,2024.2.4,59.99919601073592,2025-02-14 09h12.25.513211 +0000,
cube_r.png,0.1,0.31,valid,27,27,0,down,3.3457762999998977,None,space,0.3968543999999383,None,,,,,0,27,27,27,,,,,176.49457660000007,,,,,,,,,,,,,176.4793238000002,176.49457660000007,176.49457660000007,176.49457660000007,179.84248030000003,,,,179.85264890000008,179.86268900000005,179.86268900000005,179.90775660000008,179.9080669,179.9243021000002,179.9243021000002,179.9243021000002,180.0074836000001,180.32497610000019,,,,,,,,down,3.3457762999998977,None,space,0.3968543999999383,None,,,,,,,,,,,,,,,,,p110,001,2025-02-14_09h12.14.377,posner_endo_new1,2024.2.4,59.99919601073592,2025-02-14 09h12.25.513211 +0000,
cube_r.png,0.1,10,catch,28,28,0,down,4.18731519999983,None,None,,,,,,,0,28,28,28,,,,,180.34061140000017,,,,,,,,,,,,,180.3252367,180.34061140000017,180.34061140000017,180.34061140000017,184.53747090000002,,,,184.54711550000002,184.55741310000008,184.55741310000008,184.6028163000001,184.6031260000002,184.6195153000001,184.6195153000001,184.6195153000001,184.70277850000002,187.61707910000018,,,,186.7173954,187.63308540000003,187.63308540000003,187.63308540000003,down,4.18731519999983,None,None,,,,,,,,,,,,,,,,,,,p110,001,2025-02-14_09h12.14.377,posner_endo_new1,2024.2.4,59.99919601073592,2025-02-14 09h12.25.513211 +0000,
cube_r.png,0.1,0.31,valid,29,29,0,down,1.0872715999998945,None,space,0.5007200000000012,None,,,,,0,29,29,29,,,,,187.63308540000003,,,,,,,,,,,,,187.6173186000001,187.63308540000003,187.63308540000003,187.63308540000003,188.7329999000001,,,,188.74243120000006,188.75277540000002,188.75277540000002,188.79872810000006,188.79903230000014,188.815069,188.815069,188.815069,188.89812040000015,189.3324673000002,,,,,,,,down,1.0872715999998945,None,space,0.5007200000000012,None,,,,,,,,,,,,,,,,,p110,001,2025-02-14_09h12.14.377,posner_endo_new1,2024.2.4,59.99919601073592,2025-02-14 09h12.25.513211 +0000,
cube_r.png,0.1,0.31,valid,30,30,0,down,3.085130299999946,None,space,0.526043399999935,None,,,,,0,30,30,30,,,,,189.3478308000001,,,,,,,,,,,,,189.3327244000002,189.3478308000001,189.3478308000001,189.3478308000001,192.4459267000002,,,,192.45548630000008,192.4657456,192.4657456,192.51150310000003,192.51180940000017,192.5277231,192.5277231,192.5277231,192.61136180000017,193.06223350000005,,,,,,,,down,3.085130299999946,None,space,0.526043399999935,None,,,,,,,,,,,,,,,,,p110,001,2025-02-14_09h12.14.377,posner_endo_new1,2024.2.4,59.99919601073592,2025-02-14 09h12.25.513211 +0000,
cube_l.png,0.1,-0.31,valid,31,31,0,down,3.0033997999998974,None,space,0.5222620000001825,None,,,,,0,31,31,31,,,,,193.07751580000013,,,,,,,,,,,,,193.0624918000001,193.07751580000013,193.07751580000013,193.07751580000013,196.0922297000002,,,,196.1020460000002,196.11254780000013,196.11254780000013,196.1580742000001,196.15839060000008,196.17433900000015,196.17433900000015,196.17433900000015,196.2576898000002,196.70822310000017,,,,,,,,down,3.0033997999998974,None,space,0.5222620000001825,None,,,,,,,,,,,,,,,,,p110,001,2025-02-14_09h12.14.377,posner_endo_new1,2024.2.4,59.99919601073592,2025-02-14 09h12.25.513211 +0000,
cube_r.png,0.1,0.31,valid,32,32,0,down,2.8847617999999784,None,space,0.5044209999998657,None,,,,,0,32,32,32,,,,,196.72365920000016,,,,,,,,,,,,,196.7084797,196.72365920000016,196.72365920000016,196.72365920000016,199.62195970000016,,,,199.6314682000002,199.64161940000008,199.64161940000008,199.68767020000018,199.68798160000006,199.70417440000006,199.70417440000006,199.70417440000006,199.78718830000003,200.2209925000002,,,,,,,,down,2.8847617999999784,None,space,0.5044209999998657,None,,,,,,,,,,,,,,,,,p110,001,2025-02-14_09h12.14.377,posner_endo_new1,2024.2.4,59.99919601073592,2025-02-14 09h12.25.513211 +0000,
cube_r.png,0.1,-0.31,invalid,33,33,0,down,3.2995049000001018,None,space,0.37957830000004833,None,,,,,0,33,33,33,,,,,200.236942,,,,,,,,,,,,,200.2212508,200.236942,200.236942,200.236942,203.55115180000007,,,,203.56063470000004,203.57085670000015,203.57085670000015,203.61696540000003,203.61727640000004,203.63321600000017,203.63321600000017,203.63321600000017,203.71678889999998,204.0176034000001,,,,,,,,down,3.2995049000001018,None,space,0.37957830000004833,None,,,,,,,,,,,,,,,,,p110,001,2025-02-14_09h12.14.377,posner_endo_new1,2024.2.4,59.99919601073592,2025-02-14 09h12.25.513211 +0000,
cube_r.png,0.1,10,catch,34,34,0,down,3.8878844999999274,None,None,,,,,,,0,34,34,34,,,,,204.03302860000008,,,,,,,,,,,,,204.01785970000014,204.03302860000008,204.03302860000008,204.03302860000008,207.92993330000013,,,,207.93938850000018,207.94979990000002,207.94979990000002,207.99573170000008,207.99604120000004,208.01227890000018,208.01227890000018,208.01227890000018,208.0953304000002,211.00966770000014,,,,210.11012570000003,211.0258761,211.0258761,211.0258761,down,3.8878844999999274,None,None,,,,,,,,,,,,,,,,,,,p110,001,2025-02-14_09h12.14.377,posner_endo_new1,2024.2.4,59.99919601073592,2025-02-14 09h12.25.513211 +0000,
cube_r.png,0.1,0.31,valid,35,35,0,down,0.49483859999986635,None,space,0.4808760999999322,None,,,,,0,35,35,35,,,,,211.0258761,,,,,,,,,,,,,211.00991790000012,211.0258761,211.0258761,211.0258761,211.5264188000001,,,,211.535928,211.54608770000004,211.54608770000004,211.59193679999998,211.59224200000017,211.6086358,211.6086358,211.6086358,211.69168890000014,212.09275810000008,,,,,,,,down,0.49483859999986635,None,space,0.4808760999999322,None,,,,,,,,,,,,,,,,,p110,001,2025-02-14_09h12.14.377,posner_endo_new1,2024.2.4,59.99919601073592,2025-02-14 09h12.25.513211 +0000,
cube_r.png,0.1,-0.31,invalid,36,36,0,down,2.451949400000103,None,space,0.4964803000000302,None,,,,,0,36,36,36,,,,,212.10808310000016,,,,,,,,,,,,,212.0930197,212.10808310000016,212.10808310000016,212.10808310000016,214.57305810000003,,,,214.5824801000001,214.59275100000013,214.59275100000013,214.63873710000007,214.63904150000008,214.6557114000002,214.6557114000002,214.6557114000002,214.73857940000016,215.1559145000001,,,,,,,,down,2.451949400000103,None,space,0.4964803000000302,None,,,,,,,,,,,,,,,,,p110,001,2025-02-14_09h12.14.377,posner_endo_new1,2024.2.4,59.99919601073592,2025-02-14 09h12.25.513211 +0000,
cube_l.png,0.1,0.31,invalid,37,37,0,down,2.917089600000054,None,space,0.4445394999997916,None,,,,,0,37,37,37,,,,,215.17121710000015,,,,,,,,,,,,,215.15617070000008,215.17121710000015,215.17121710000015,215.17121710000015,218.10299540000005,,,,218.112396,218.12284,218.12284,218.16873090000013,218.16903700000012,218.18517370000018,218.18517370000018,218.18517370000018,218.2684405,218.6356839,,,,,,,,down,2.917089600000054,None,space,0.4445394999997916,None,,,,,,,,,,,,,,,,,p110,001,2025-02-14_09h12.14.377,posner_endo_new1,2024.2.4,59.99919601073592,2025-02-14 09h12.25.513211 +0000,
cube_l.png,0.1,0.31,invalid,38,38,0,down,3.0929473000001053,None,space,0.49701170000003003,None,,,,,0,38,38,38,,,,,218.65128750000008,,,,,,,,,,,,,218.63595090000013,218.65128750000008,218.65128750000008,218.65128750000008,221.74907819999999,,,,221.75869780000016,221.7691768000002,221.7691768000002,221.81499900000017,221.81532500000003,221.8314752000001,221.8314752000001,221.8314752000001,221.91459900000018,222.33195590000014,,,,,,,,down,3.0929473000001053,None,space,0.49701170000003003,None,,,,,,,,,,,,,,,,,p110,001,2025-02-14_09h12.14.377,posner_endo_new1,2024.2.4,59.99919601073592,2025-02-14 09h12.25.513211 +0000,
cube_r.png,0.1,0.31,valid,39,39,0,down,3.469172800000024,None,space,0.49848480000014206,None,,,,,0,39,39,39,,,,,222.3476098000001,,,,,,,,,,,,,222.33221230000004,222.3476098000001,222.3476098000001,222.3476098000001,225.82837430000018,,,,225.8382375000001,225.84850010000014,225.84850010000014,225.89404360000003,225.8943577,225.91072550000013,225.91072550000013,225.91072550000013,225.9935985000002,226.41127860000006,,,,,,,,down,3.469172800000024,None,space,0.49848480000014206,None,,,,,,,,,,,,,,,,,p110,001,2025-02-14_09h12.14.377,posner_endo_new1,2024.2.4,59.99919601073592,2025-02-14 09h12.25.513211 +0000,
cube_l.png,0.1,0.31,invalid,40,40,0,down,3.165478099999973,None,space,0.6221100000000206,None,,,,,0,40,40,40,,,,,226.4268015,,,,,,,,,,,,,226.4115346000001,226.4268015,226.4268015,226.4268015,229.60790450000013,,,,229.6173550000001,229.62784570000008,229.62784570000008,229.67352180000012,229.67383470000004,229.6899446,229.6899446,229.6899446,229.77336250000008,230.32376790000012,,,,,,,,down,3.165478099999973,None,space,0.6221100000000206,None,,,,,,,,,,,,,,,,,p110,001,2025-02-14_09h12.14.377,posner_endo_new1,2024.2.4,59.99919601073592,2025-02-14 09h12.25.513211 +0000,
cube_l.png,0.1,10,catch,41,41,0,down,2.661125699999957,None,None,,,,,,,0,41,41,41,,,,,230.3393089000001,,,,,,,,,,,,,230.32402150000007,230.3393089000001,230.3393089000001,230.3393089000001,233.0043822,,,,233.01383210000017,233.02422070000011,233.02422070000011,233.07005830000003,233.0703741000002,233.0865715,233.0865715,233.0865715,233.16990050000004,236.0841855000001,,,,235.1843361000001,236.10020950000012,236.10020950000012,236.10020950000012,down,2.661125699999957,None,None,,,,,,,,,,,,,,,,,,,p110,001,2025-02-14_09h12.14.377,posner_endo_new1,2024.2.4,59.99919601073592,2025-02-14 09h12.25.513211 +0000,
cube_l.png,0.1,-0.31,valid,42,42,0,down,0.45979220000003806,None,space,0.47248639999997977,None,,,,,0,42,42,42,,,,,236.10020950000012,,,,,,,,,,,,,236.08442430000014,236.10020950000012,236.10020950000012,236.10020950000012,236.56718250000017,,,,236.5765868000001,236.5868792000001,236.5868792000001,236.6330464,236.63335740000002,236.64946410000016,236.64946410000016,236.64946410000016,236.71627110000009,237.1334194000001,,,,,,,,down,0.45979220000003806,None,space,0.47248639999997977,None,,,,,,,,,,,,,,,,,p110,001,2025-02-14_09h12.14.377,posner_endo_new1,2024.2.4,59.99919601073592,2025-02-14 09h12.25.513211 +0000,
cube_l.png,0.1,10,catch,43,43,0,down,2.2432092999999895,None,None,,,,,,,0,43,43,43,,,,,237.14893460000008,,,,,,,,,,,,,237.13367570000014,237.14893460000008,237.14893460000008,237.14893460000008,239.39771330000008,,,,239.4071034000001,239.4175083,239.4175083,239.46341800000005,239.46372610000003,239.4801715000001,239.4801715000001,239.4801715000001,239.5633597000001,242.47765030000005,,,,241.57798880000018,242.49354890000018,242.49354890000018,242.49354890000018,down,2.2432092999999895,None,None,,,,,,,,,,,,,,,,,,,p110,001,2025-02-14_09h12.14.377,posner_endo_new1,2024.2.4,59.99919601073592,2025-02-14 09h12.25.513211 +0000,
cube_l.png,0.1,0.31,invalid,44,44,0,down,0.7385850000000573,None,space,0.4840205000000424,None,,,,,0,44,44,44,,,,,242.49354890000018,,,,,,,,,,,,,242.4778874000001,242.49354890000018,242.49354890000018,242.49354890000018,243.24381620000008,,,,243.2532116,243.26357930000017,243.26357930000017,243.3097772000001,243.31008740000016,243.3259770000002,243.3259770000002,243.3259770000002,243.40916190000007,243.82652380000013,,,,,,,,down,0.7385850000000573,None,space,0.4840205000000424,None,,,,,,,,,,,,,,,,,p110,001,2025-02-14_09h12.14.377,posner_endo_new1,2024.2.4,59.99919601073592,2025-02-14 09h12.25.513211 +0000,
cube_l.png,0.1,0.31,invalid,45,45,0,down,1.99838039999986,None,space,0.5221830000000409,None,,,,,0,45,45,45,,,,,243.84225990000004,,,,,,,,,,,,,243.8267933000002,243.84225990000004,243.84225990000004,243.84225990000004,245.84173240000018,,,,245.8517852,245.86211060000005,245.86211060000005,245.90677530000016,245.9070967,245.9232307000002,245.9232307000002,245.9232307000002,246.00671940000007,246.45717880000007,,,,,,,,down,1.99838039999986,None,space,0.5221830000000409,None,,,,,,,,,,,,,,,,,p110,001,2025-02-14_09h12.14.377,posner_endo_new1,2024.2.4,59.99919601073592,2025-02-14 09h12.25.513211 +0000,
cube_r.png,0.1,0.31,valid,46,46,0,down,2.848059499999863,None,space,0.5599531999998817,None,,,,,0,46,46,46,,,,,246.4729311000001,,,,,,,,,,,,,246.45743130000005,246.4729311000001,246.4729311000001,246.4729311000001,249.33769260000008,,,,249.34592120000002,249.35611270000004,249.35611270000004,249.40318850000017,249.4034305,249.41967480000017,249.41967480000017,249.41967480000017,249.5031256000002,249.9865400000001,,,,,,,,down,2.848059499999863,None,space,0.5599531999998817,None,,,,,,,,,,,,,,,,,p110,001,2025-02-14_09h12.14.377,posner_endo_new1,2024.2.4,59.99919601073592,2025-02-14 09h12.25.513211 +0000,
cube_l.png,0.1,-0.31,valid,47,47,0,down,2.7420467000001736,None,space,0.5202351000000363,None,,,,,0,47,47,47,,,,,250.0025932000001,,,,,,,,,,,,,249.98671160000004,250.0025932000001,250.0025932000001,250.0025932000001,252.75038230000018,,,,252.756578,252.7681993000001,252.7681993000001,252.8167969000001,252.8170206000002,252.83312130000013,252.83312130000013,252.83312130000013,252.89957090000007,253.3666307000001,,,,,,,,down,2.7420467000001736,None,space,0.5202351000000363,None,,,,,,,,,,,,,,,,,p110,001,2025-02-14_09h12.14.377,posner_endo_new1,2024.2.4,59.99919601073592,2025-02-14 09h12.25.513211 +0000,
cube_r.png,0.1,-0.31,invalid,48,48,0,down,2.6342266999999993,None,space,0.43038609999985056,None,,,,,0,48,48,48,,,,,253.3826957000001,,,,,,,,,,,,,253.36680260000003,253.3826957000001,253.3826957000001,253.3826957000001,256.0304550000001,,,,256.0363172,256.04791620000015,256.04791620000015,256.0966268000002,256.0968512000002,256.11302450000017,256.11302450000017,256.11302450000017,256.1795684000001,256.5468271000002,,,,,,,,down,2.6342266999999993,None,space,0.43038609999985056,None,,,,,,,,,,,,,,,,,p110,001,2025-02-14_09h12.14.377,posner_endo_new1,2024.2.4,59.99919601073592,2025-02-14 09h12.25.513211 +0000,
cube_r.png,0.1,10,catch,49,49,0,down,2.613964800000076,None,None,,,,,,,0,49,49,49,,,,,256.56271030000016,,,,,,,,,,,,,256.54700730000013,256.56271030000016,256.56271030000016,256.56271030000016,259.1932097000001,,,,259.1990816,259.2107030000002,259.2107030000002,259.24363000000017,259.2438533000002,259.2596629000002,259.2596629000002,259.2596629000002,259.3430515,262.25747650000017,,,,261.35764990000007,262.2733657000001,262.2733657000001,262.2733657000001,down,2.613964800000076,None,None,,,259.2596629000002,259.2596629000002,,,,,,,,,,,,,,,p110,001,2025-02-14_09h12.14.377,posner_endo_new1,2024.2.4,59.99919601073592,2025-02-14 09h12.25.513211 +0000,
cube_l.png,0.1,-0.31,valid,50,50,0,down,0.36730099999999766,None,space,0.43151130000001103,None,,,,,0,50,50,50,,,,,262.2733657000001,,,,,,,,,,,,,262.25763830000005,262.2733657000001,262.2733657000001,262.2733657000001,262.6569654,,,,262.6627629000002,262.6744019,262.6744019,262.7229505,262.72317580000004,262.73961170000007,262.73961170000007,262.73961170000007,262.80612210000004,263.1731406000001,,,,,,,,down,0.36730099999999766,None,space,0.43151130000001103,None,,,,,,,,,,,,,,,,,p110,001,2025-02-14_09h12.14.377,posner_endo_new1,2024.2.4,59.99919601073592,2025-02-14 09h12.25.513211 +0000,
cube_l.png,0.1,-0.31,valid,51,51,0,down,3.3469649999999547,None,space,0.43631759999993847,None,,,,,0,51,51,51,,,,,263.1890045,,,,,,,,,,,,,263.1733393000002,263.1890045,263.1890045,263.1890045,266.5367182,,,,266.5425104000001,266.5541399000001,266.5541399000001,266.6023751,266.6026008000001,266.61877960000015,266.61877960000015,266.61877960000015,266.70215700000017,267.0691928000001,,,,,,,,down,3.3469649999999547,None,space,0.43631759999993847,None,,,,,,,,,,,,,,,,,p110,001,2025-02-14_09h12.14.377,posner_endo_new1,2024.2.4,59.99919601073592,2025-02-14 09h12.25.513211 +0000,
cube_r.png,0.1,-0.31,invalid,52,52,0,down,2.7074250999999094,None,space,0.477775500000007,None,,,,,0,52,52,52,,,,,267.0850706000001,,,,,,,,,,,,,267.06936670000005,267.0850706000001,267.0850706000001,267.0850706000001,269.799581,,,,269.8053845000002,269.8170068000002,269.8170068000002,269.8655063000001,269.86573180000005,269.8823272000002,269.8823272000002,269.8823272000002,269.9488916,270.3657648000001,,,,,,,,down,2.7074250999999094,None,space,0.477775500000007,None,,,,,,,,,,,,,,,,,p110,001,2025-02-14_09h12.14.377,posner_endo_new1,2024.2.4,59.99919601073592,2025-02-14 09h12.25.513211 +0000,
cube_l.png,0.1,-0.31,valid,53,53,0,down,2.994462499999827,None,space,0.46001539999997476,None,,,,,0,53,53,53,,,,,270.3818391000002,,,,,,,,,,,,,270.3659405000001,270.3818391000002,270.3818391000002,270.3818391000002,273.3791643000002,,,,273.3850352000002,273.3966313000001,273.3966313000001,273.44502750000015,273.44546430000014,273.46151010000017,273.46151010000017,273.46151010000017,273.5447296,273.92900350000014,,,,,,,,down,2.994462499999827,None,space,0.46001539999997476,None,,,,,,,,,,,,,,,,,p110,001,2025-02-14_09h12.14.377,posner_endo_new1,2024.2.4,59.99919601073592,2025-02-14 09h12.25.513211 +0000,
cube_r.png,0.1,10,catch,54,54,0,down,3.0872406999999384,None,None,,,,,,,0,54,54,54,,,,,273.944751,,,,,,,,,,,,,273.9292624000002,273.944751,273.944751,273.944751,277.0425322000001,,,,277.0521589,277.06259780000005,277.06259780000005,277.1083874000001,277.1087071000002,277.1246453000001,277.1246453000001,277.1246453000001,277.2082891,280.1223338000002,,,,279.22263650000014,280.1382896,280.1382896,280.1382896,down,3.0872406999999384,None,None,,,,,,,,,,,,,,,,,,,p110,001,2025-02-14_09h12.14.377,posner_endo_new1,2024.2.4,59.99919601073592,2025-02-14 09h12.25.513211 +0000,
cube_l.png,0.1,0.31,invalid,55,55,0,down,0.4617679999998927,None,space,0.4994862999999441,None,,,,,0,55,55,55,,,,,280.1382896,,,,,,,,,,,,,280.12257640000007,280.1382896,280.1382896,280.1382896,280.60593240000003,,,,280.6152227,280.62565400000017,280.62565400000017,280.67132620000007,280.6716351,280.68799910000007,280.68799910000007,280.68799910000007,280.7711067,281.1885178,,,,,,,,down,0.4617679999998927,None,space,0.4994862999999441,None,,,,,,,,,,,,,,,,,p110,001,2025-02-14_09h12.14.377,posner_endo_new1,2024.2.4,59.99919601073592,2025-02-14 09h12.25.513211 +0000,
cube_l.png,0.1,-0.31,valid,56,56,0,down,3.0918395999999575,None,space,0.47214249999979074,None,,,,,0,56,56,56,,,,,281.2040872,,,,,,,,,,,,,281.1887730000001,281.2040872,281.2040872,281.2040872,284.3018840000002,,,,284.3112517000002,284.3217869,284.3217869,284.3673963000001,284.36770590000015,284.3841986,284.3841986,284.3841986,284.46733370000015,284.8680386000001,,,,,,,,down,3.0918395999999575,None,space,0.47214249999979074,None,,,,,,,,,,,,,,,,,p110,001,2025-02-14_09h12.14.377,posner_endo_new1,2024.2.4,59.99919601073592,2025-02-14 09h12.25.513211 +0000,
cube_r.png,0.1,0.31,valid,57,57,0,down,2.500512700000172,None,space,0.38604480000003605,None,,,,,0,57,57,57,,,,,284.88347410000006,,,,,,,,,,,,,284.8682940000001,284.88347410000006,284.88347410000006,284.88347410000006,287.39868330000013,,,,287.4082515,287.4184644000002,287.4184644000002,287.4645358,287.46484680000003,287.4809238,287.4809238,287.4809238,287.56418940000003,287.8812932000001,,,,,,,,down,2.500512700000172,None,space,0.38604480000003605,None,,,,,,,,,,,,,,,,,p110,001,2025-02-14_09h12.14.377,posner_endo_new1,2024.2.4,59.99919601073592,2025-02-14 09h12.25.513211 +0000,
cube_r.png,0.1,-0.31,invalid,58,58,0,down,3.031475399999863,None,space,0.41192439999986163,None,,,,,0,58,58,58,,,,,287.8972706000002,,,,,,,,,,,,,287.88154710000003,287.8972706000002,287.8972706000002,287.8972706000002,290.9449572000001,,,,290.9542289000001,290.96431970000003,290.96431970000003,291.0105823000001,291.0108050000001,291.02754890000006,291.02754890000006,291.02754890000006,291.1105478000002,291.44424990000016,,,,,,,,down,3.031475399999863,None,space,0.41192439999986163,None,,,,,,,,,,,,,,,,,p110,001,2025-02-14_09h12.14.377,posner_endo_new1,2024.2.4,59.99919601073592,2025-02-14 09h12.25.513211 +0000,
cube_l.png,0.1,0.31,invalid,59,59,0,down,2.3956626000001506,None,space,0.5548730999998952,None,,,,,0,59,59,59,,,,,291.4602914000002,,,,,,,,,,,,,291.44442030000005,291.4602914000002,291.4602914000002,291.4602914000002,293.85856850000005,,,,293.86472060000006,293.87666480000007,293.87666480000007,293.92436940000016,293.9245929000001,293.9410217000002,293.9410217000002,293.9410217000002,294.0241132000001,294.5077047000002,,,,,,,,down,2.3956626000001506,None,space,0.5548730999998952,None,,,,,,,,,,,,,,,,,p110,001,2025-02-14_09h12.14.377,posner_endo_new1,2024.2.4,59.99919601073592,2025-02-14 09h12.25.513211 +0000,
,,,,,,,,,,,,,,,,,,,,,,,,,,,,,,,,,,,,,,,,,,,,,,,,,,,,,,,,,,,,,,,,,,,,,,,294.5078176000002,294.5236269000002,294.5236269000002,354.52890990000014,361.4561278000001,space,66.91642779999984,None,,,,,,,p110,001,2025-02-14_09h12.14.377,posner_endo_new1,2024.2.4,59.99919601073592,2025-02-14 09h12.25.513211 +0000,
,,,,,,,,,,,,,,,,,,,,,,,,,,,,,,,,,,361.45618090000016,361.4717971,364.4772709000001,364.45267050000007,,,,,,,,,,,,,,,,,,,,,,,,,,,,,,,,,,,,,,,,,,,,,,,,p110,001,2025-02-14_09h12.14.377,posner_endo_new1,2024.2.4,59.99919601073592,2025-02-14 09h12.25.513211 +0000,
cube_l.png,0.1,10,catch,0,0,0,up,9.539157499999874,None,None,,,,,,,,,,,0,0,0,0,364.4772709000001,,,,,,,,,,,,,364.4684119000001,364.4772709000001,364.4772709000001,364.4772709000001,374.02636900000016,,,,374.03246650000006,374.0442574000001,374.0442574000001,374.0922148000002,374.0924539,374.1088057000002,374.1088057000002,374.1088057000002,374.1753112000001,377.10617330000014,,,,376.1899201000001,377.1220598,377.1220598,377.1220598,,,,,,,,,,,,,,,,,up,9.539157499999874,None,None,,,p110,001,2025-02-14_09h12.14.377,posner_endo_new1,2024.2.4,59.99919601073592,2025-02-14 09h12.25.513211 +0000,
cube_l.png,0.1,10,catch,1,1,0,up,None,None,None,,,,,,,,,,,0,1,1,1,377.1220598,,,,,,,,,,,,,377.1063408,377.1220598,377.1220598,377.1220598,377.23958800000014,,,,377.2453736,377.2570010000002,377.2570010000002,377.3055052000002,377.30600990000016,377.3219623,377.3219623,377.3219623,377.40520200000014,380.3196924000001,,,,379.4199957000001,380.3358888,380.3358888,380.3358888,,,,,,,,,,,,,,,,,up,None,None,None,,,p110,001,2025-02-14_09h12.14.377,posner_endo_new1,2024.2.4,59.99919601073592,2025-02-14 09h12.25.513211 +0000,
cube_l.png,0.1,0.31,invalid,2,2,0,up,2.54438499999992,None,space,0.4672776999998405,None,,,,,,,,,0,2,2,2,380.3358888,,,,,,,,,,,,,380.31986700000016,380.3358888,380.3358888,380.3358888,382.8839871,,,,382.89047870000013,382.90241330000003,382.90241330000003,382.95010520000005,382.9503373,382.9664988000002,382.9664988000002,382.9664988000002,383.0497779000002,383.4500400000002,,,,,,,,,,,,,,,,,,,,,,,,up,2.54438499999992,None,space,0.4672776999998405,None,p110,001,2025-02-14_09h12.14.377,posner_endo_new1,2024.2.4,59.99919601073592,2025-02-14 09h12.25.513211 +0000,
cube_l.png,0.1,0.31,invalid,3,3,0,up,3.190930399999843,None,space,0.45700329999999667,None,,,,,,,,,0,3,3,3,383.46603890000006,,,,,,,,,,,,,383.4502302000001,383.46603890000006,383.46603890000006,383.46603890000006,386.6635699000001,,,,386.67011560000014,386.6819835000001,386.6819835000001,386.7293316,386.729564,386.7459986000001,386.7459986000001,386.7459986000001,386.8291829000002,387.2127974,,,,,,,,,,,,,,,,,,,,,,,,up,3.190930399999843,None,space,0.45700329999999667,None,p110,001,2025-02-14_09h12.14.377,posner_endo_new1,2024.2.4,59.99919601073592,2025-02-14 09h12.25.513211 +0000,
cube_l.png,0.1,-0.31,valid,4,4,0,up,2.69945040000016,None,space,0.4096897000001718,None,,,,,,,,,0,4,4,4,387.22854200000006,,,,,,,,,,,,,387.21298760000013,387.22854200000006,387.22854200000006,387.22854200000006,389.9434148,,,,389.9499222000002,389.96193170000015,389.96193170000015,390.0094292000001,390.0096645000001,390.02593190000016,390.02593190000016,390.02593190000016,390.10909260000017,390.4427495,,,,,,,,,,,,,,,,,,,,,,,,up,2.69945040000016,None,space,0.4096897000001718,None,p110,001,2025-02-14_09h12.14.377,posner_endo_new1,2024.2.4,59.99919601073592,2025-02-14 09h12.25.513211 +0000,
cube_r.png,0.1,-0.31,invalid,5,5,0,up,3.7574756000001344,None,space,0.42376760000001923,None,,,,,,,,,0,5,5,5,390.45905990000006,,,,,,,,,,,,,390.44293820000007,390.45905990000006,390.45905990000006,390.45905990000006,394.22213970000007,,,,394.22866640000007,394.2406498,394.2406498,394.28816000000006,394.2883925000001,394.3046710000001,394.3046710000001,394.3046710000001,394.3715960000002,394.73859890000017,,,,,,,,,,,,,,,,,,,,,,,,up,3.7574756000001344,None,space,0.42376760000001923,None,p110,001,2025-02-14_09h12.14.377,posner_endo_new1,2024.2.4,59.99919601073592,2025-02-14 09h12.25.513211 +0000,
cube_r.png,0.1,0.31,valid,6,6,0,up,2.79009659999997,None,space,0.461253299999953,None,,,,,,,,,0,6,6,6,394.7543631000001,,,,,,,,,,,,,394.7387831000001,394.7543631000001,394.7543631000001,394.7543631000001,397.5523376000001,,,,397.5588174000002,397.5706179000001,397.5706179000001,397.61833360000014,397.6185663000001,397.6346516000001,397.6346516000001,397.6346516000001,397.7178696000001,398.1016986000002,,,,,,,,,,,,,,,,,,,,,,,,up,2.79009659999997,None,space,0.461253299999953,None,p110,001,2025-02-14_09h12.14.377,posner_endo_new1,2024.2.4,59.99919601073592,2025-02-14 09h12.25.513211 +0000,
cube_r.png,0.1,-0.31,invalid,7,7,0,up,3.6180793999999423,None,space,0.311299100000042,None,,,,,,,,,0,7,7,7,398.1176770000002,,,,,,,,,,,,,398.1018878,398.1176770000002,398.1176770000002,398.1176770000002,401.74801780000007,,,,401.7547003000002,401.7665921,401.7665921,401.8140503000002,401.8142733000002,401.83047020000004,401.83047020000004,401.83047020000004,401.9136115000001,402.147469,,,,,,,,,,,,,,,,,,,,,,,,up,3.6180793999999423,None,space,0.311299100000042,None,p110,001,2025-02-14_09h12.14.377,posner_endo_new1,2024.2.4,59.99919601073592,2025-02-14 09h12.25.513211 +0000,
cube_l.png,0.1,-0.31,valid,8,8,0,up,3.0292723999998543,None,space,0.40681240000003527,None,,,,,,,,,0,8,8,8,402.1633694000002,,,,,,,,,,,,,402.147645,402.1633694000002,402.1633694000002,402.1633694000002,405.1944644,,,,405.2004757000002,405.21215270000016,405.21215270000016,405.2602419,405.2604791000001,405.2768305000002,405.2768305000002,405.2768305000002,405.3603882,405.6937944000001,,,,,,,,,,,,,,,,,,,,,,,,up,3.0292723999998543,None,space,0.40681240000003527,None,p110,001,2025-02-14_09h12.14.377,posner_endo_new1,2024.2.4,59.99919601073592,2025-02-14 09h12.25.513211 +0000,
cube_r.png,0.1,-0.31,invalid,9,9,0,up,3.9465414999999666,None,space,0.4565231000001404,None,,,,,,,,,0,9,9,9,405.7098231,,,,,,,,,,,,,405.69397100000015,405.7098231,405.7098231,405.7098231,409.6731953000001,,,,409.6790285000002,409.6905047,409.6905047,409.7391146,409.7393396,409.75582110000005,409.75582110000005,409.75582110000005,409.82221560000016,410.22262020000016,,,,,,,,,,,,,,,,,,,,,,,,up,3.9465414999999666,None,space,0.4565231000001404,None,p110,001,2025-02-14_09h12.14.377,posner_endo_new1,2024.2.4,59.99919601073592,2025-02-14 09h12.25.513211 +0000,
cube_l.png,0.1,0.31,invalid,10,10,0,up,4.5378153999999995,None,space,0.34475049999991825,None,,,,,,,,,0,10,10,10,410.23866240000007,,,,,,,,,,,,,410.22279730000014,410.23866240000007,410.23866240000007,410.23866240000007,414.7845847000001,,,,414.7904841000002,414.80226500000003,414.80226500000003,414.8506562,414.85088140000016,414.8670334000001,414.8670334000001,414.8670334000001,414.93362620000016,415.2175664000001,,,,,,,,,,,,,,,,,,,,,,,,up,4.5378153999999995,None,space,0.34475049999991825,None,p110,001,2025-02-14_09h12.14.377,posner_endo_new1,2024.2.4,59.99919601073592,2025-02-14 09h12.25.513211 +0000,
cube_r.png,0.1,-0.31,invalid,11,11,0,up,2.839237900000171,None,space,0.5155469000001176,None,,,,,,,,,0,11,11,11,415.2332934000001,,,,,,,,,,,,,415.21774330000017,415.2332934000001,415.2332934000001,415.2332934000001,418.0811279000002,,,,418.0869666000001,418.09863970000015,418.09863970000015,418.1471729,418.1473985,418.1634646,418.1634646,418.1634646,418.2302661000001,418.6806971000001,,,,,,,,,,,,,,,,,,,,,,,,up,2.839237900000171,None,space,0.5155469000001176,None,p110,001,2025-02-14_09h12.14.377,posner_endo_new1,2024.2.4,59.99919601073592,2025-02-14 09h12.25.513211 +0000,
cube_r.png,0.1,0.31,valid,12,12,0,up,3.7359424999999646,None,space,0.3859777000000122,None,,,,,,,,,0,12,12,12,418.6963953000002,,,,,,,,,,,,,418.6808787,418.6963953000002,418.6963953000002,418.6963953000002,422.44331750000015,,,,422.4492137000002,422.4609881000001,422.4609881000001,422.50918850000016,422.5094163000001,422.5258589,422.5258589,422.5258589,422.5924415000002,422.9262348000002,,,,,,,,,,,,,,,,,,,,,,,,up,3.7359424999999646,None,space,0.3859777000000122,None,p110,001,2025-02-14_09h12.14.377,posner_endo_new1,2024.2.4,59.99919601073592,2025-02-14 09h12.25.513211 +0000,
cube_l.png,0.1,10,catch,13,13,0,up,2.418700899999976,None,None,,,,,,,,,,,0,13,13,13,422.9420381,,,,,,,,,,,,,422.92641100000014,422.9420381,422.9420381,422.9420381,425.3739627,,,,425.3796791000002,425.3915384000002,425.3915384000002,425.4399079000002,425.44013280000013,425.45632180000007,425.45632180000007,425.45632180000007,425.53944550000006,428.45366160000003,,,,427.55397170000015,428.4697080000001,428.4697080000001,428.4697080000001,,,,,,,,,,,,,,,,,up,2.418700899999976,None,None,,,p110,001,2025-02-14_09h12.14.377,posner_endo_new1,2024.2.4,59.99919601073592,2025-02-14 09h12.25.513211 +0000,
cube_r.png,0.1,-0.31,invalid,14,14,0,up,0.890225399999963,None,space,0.43537309999987883,None,,,,,,,,,0,14,14,14,428.4697080000001,,,,,,,,,,,,,428.4538341,428.4697080000001,428.4697080000001,428.4697080000001,429.36969680000016,,,,429.3754313000002,429.3870107,429.3870107,429.43524460000003,429.4356812000001,429.45171690000006,429.45171690000006,429.45171690000006,429.5349629,429.9029494000001,,,,,,,,,,,,,,,,,,,,,,,,up,0.890225399999963,None,space,0.43537309999987883,None,p110,001,2025-02-14_09h12.14.377,posner_endo_new1,2024.2.4,59.99919601073592,2025-02-14 09h12.25.513211 +0000,
cube_l.png,0.1,-0.31,valid,15,15,0,up,2.7056184000000485,None,space,0.46733019999987846,None,,,,,,,,,0,15,15,15,429.9184401,,,,,,,,,,,,,429.9032083000002,429.9184401,429.9184401,429.9184401,432.6331894,,,,432.6424889,432.6529045000002,432.6529045000002,432.69891370000005,432.6992239000001,432.71545830000014,432.71545830000014,432.71545830000014,432.7981182000001,433.1994013000001,,,,,,,,,,,,,,,,,,,,,,,,up,2.7056184000000485,None,space,0.46733019999987846,None,p110,001,2025-02-14_09h12.14.377,posner_endo_new1,2024.2.4,59.99919601073592,2025-02-14 09h12.25.513211 +0000,
cube_r.png,0.1,10,catch,16,16,0,up,3.05730890000018,None,None,,,,,,,,,,,0,16,16,16,433.21501350000017,,,,,,,,,,,,,433.199658,433.21501350000017,433.21501350000017,433.21501350000017,436.2793256,,,,436.2885411000002,436.2991028000001,436.2991028000001,436.34516870000016,436.3454730000001,436.36196400000017,436.36196400000017,436.36196400000017,436.44503370000007,439.3591202,,,,438.45956060000003,439.37554750000004,439.37554750000004,439.37554750000004,,,,,,,,,,,,,,,,,up,3.05730890000018,None,None,,,p110,001,2025-02-14_09h12.14.377,posner_endo_new1,2024.2.4,59.99919601073592,2025-02-14 09h12.25.513211 +0000,
cube_r.png,0.1,10,catch,17,17,0,up,0.2815026000000671,None,None,,,,,,,,,,,0,17,17,17,439.37554750000004,,,,,,,,,,,,,439.3593614000001,439.37554750000004,439.37554750000004,439.37554750000004,439.6594246000002,,,,439.6669200000001,439.67795360000014,439.67795360000014,439.72497310000017,439.7251982,439.74156170000015,439.74156170000015,439.74156170000015,439.82463870000015,442.7389902,,,,441.8395661000002,442.7551139000002,442.7551139000002,442.7551139000002,,,,,,,,,,,,,,,,,up,0.2815026000000671,None,None,,,p110,001,2025-02-14_09h12.14.377,posner_endo_new1,2024.2.4,59.99919601073592,2025-02-14 09h12.25.513211 +0000,
cube_l.png,0.1,0.31,invalid,18,18,0,up,0.31658390000006875,None,space,0.47407669999984137,None,,,,,,,,,0,18,18,18,442.7551139000002,,,,,,,,,,,,,442.7391561000002,442.7551139000002,442.7551139000002,442.7551139000002,443.0724193000001,,,,443.0785734000001,443.0904826000001,443.0904826000001,443.1381957000001,443.13842210000007,443.15472050000017,443.15472050000017,443.15472050000017,443.23792790000016,443.63913550000007,,,,,,,,,,,,,,,,,,,,,,,,up,0.31658390000006875,None,space,0.47407669999984137,None,p110,001,2025-02-14_09h12.14.377,posner_endo_new1,2024.2.4,59.99919601073592,2025-02-14 09h12.25.513211 +0000,
cube_l.png,0.1,10,catch,19,19,0,up,4.465826800000059,None,None,,,,,,,,,,,0,19,19,19,443.6539769000001,,,,,,,,,,,,,443.6395781000001,443.6539769000001,443.6539769000001,443.6539769000001,448.1343316,,,,448.14538070000003,448.1558205000001,448.1558205000001,448.1996041,448.19985210000004,448.2161645000001,448.2161645000001,448.2161645000001,448.2996018000001,451.2136401,,,,450.3140781000002,451.22971210000014,451.22971210000014,451.22971210000014,,,,,,,,,,,,,,,,,up,4.465826800000059,None,None,,,p110,001,2025-02-14_09h12.14.377,posner_endo_new1,2024.2.4,59.99919601073592,2025-02-14 09h12.25.513211 +0000,
cube_l.png,0.1,0.31,invalid,20,20,0,up,1.8099962000001142,None,space,0.456912500000044,None,,,,,,,,,0,20,20,20,451.22971210000014,,,,,,,,,,,,,451.21383190000006,451.22971210000014,451.22971210000014,451.22971210000014,453.0454565,,,,453.05256740000004,453.064472,453.064472,453.1112544,453.1115017000002,453.12800590000006,453.12800590000006,453.12800590000006,453.2110037,453.5947742000001,,,,,,,,,,,,,,,,,,,,,,,,up,1.8099962000001142,None,space,0.456912500000044,None,p110,001,2025-02-14_09h12.14.377,posner_endo_new1,2024.2.4,59.99919601073592,2025-02-14 09h12.25.513211 +0000,
cube_l.png,0.1,-0.31,valid,21,21,0,up,5.9978223999999045,None,space,0.446049099999982,None,,,,,,,,,0,21,21,21,453.61072860000013,,,,,,,,,,,,,453.5949787000002,453.61072860000013,453.61072860000013,453.61072860000013,459.6219603000002,,,,459.62902800000006,459.6409659000001,459.6409659000001,459.6880437000002,459.6882909000001,459.70449810000014,459.70449810000014,459.70449810000014,459.7710506000001,460.1550420000001,,,,,,,,,,,,,,,,,,,,,,,,up,5.9978223999999045,None,space,0.446049099999982,None,p110,001,2025-02-14_09h12.14.377,posner_endo_new1,2024.2.4,59.99919601073592,2025-02-14 09h12.25.513211 +0000,
cube_r.png,0.1,0.31,valid,22,22,0,up,4.909092600000122,None,space,0.6247250999999778,None,,,,,,,,,0,22,22,22,460.1708358000001,,,,,,,,,,,,,460.1552528000002,460.1708358000001,460.1708358000001,460.1708358000001,465.08300600000007,,,,465.090058,465.1017686,465.1017686,465.1489696000001,465.1492210000001,465.1653938000002,465.1653938000002,465.1653938000002,465.2320035,465.79881750000004,,,,,,,,,,,,,,,,,,,,,,,,up,4.909092600000122,None,space,0.6247250999999778,None,p110,001,2025-02-14_09h12.14.377,posner_endo_new1,2024.2.4,59.99919601073592,2025-02-14 09h12.25.513211 +0000,
cube_r.png,0.1,-0.31,invalid,23,23,0,up,4.0653495999999905,None,space,0.477386400000114,None,,,,,,,,,0,23,23,23,465.81505400000015,,,,,,,,,,,,,465.79902190000007,465.81505400000015,465.81505400000015,465.81505400000015,469.89474140000016,,,,469.90208610000013,469.9135248,469.9135248,469.9608026000001,469.9610590000002,469.9772312,469.9772312,469.9772312,470.04390820000003,470.4608879,,,,,,,,,,,,,,,,,,,,,,,,up,4.0653495999999905,None,space,0.477386400000114,None,p110,001,2025-02-14_09h12.14.377,posner_endo_new1,2024.2.4,59.99919601073592,2025-02-14 09h12.25.513211 +0000,
cube_r.png,0.1,0.31,valid,24,24,0,up,3.5000259000000824,None,space,0.4200539999999364,None,,,,,,,,,0,24,24,24,470.4767281000002,,,,,,,,,,,,,470.4610934,470.4767281000002,470.4767281000002,470.4767281000002,473.99075140000014,,,,473.9978308000002,474.0094849000002,474.0094849000002,474.0565756000001,474.0568266,474.0731185000002,474.0731185000002,474.0731185000002,474.1563335000001,474.5067569,,,,,,,,,,,,,,,,,,,,,,,,up,3.5000259000000824,None,space,0.4200539999999364,None,p110,001,2025-02-14_09h12.14.377,posner_endo_new1,2024.2.4,59.99919601073592,2025-02-14 09h12.25.513211 +0000,
cube_r.png,0.1,-0.31,invalid,25,25,0,up,3.965917399999853,None,space,0.4444989999999507,None,,,,,,,,,0,25,25,25,474.5227424000002,,,,,,,,,,,,,474.5069667,474.5227424000002,474.5227424000002,474.5227424000002,478.50286530000017,,,,478.50995490000014,478.52152590000014,478.52152590000014,478.56846480000013,478.56871490000003,478.5850411000001,478.5850411000001,478.5850411000001,478.66851700000007,479.0354269000002,,,,,,,,,,,,,,,,,,,,,,,,up,3.965917399999853,None,space,0.4444989999999507,None,p110,001,2025-02-14_09h12.14.377,posner_endo_new1,2024.2.4,59.99919601073592,2025-02-14 09h12.25.513211 +0000,
cube_l.png,0.1,-0.31,valid,26,26,0,up,4.292803499999991,None,space,0.50595149999981,None,,,,,,,,,0,26,26,26,479.05144930000006,,,,,,,,,,,,,479.0356303000001,479.05144930000006,479.05144930000006,479.05144930000006,483.34804870000016,,,,483.3551123000002,483.3667604000002,483.3667604000002,483.4136823000001,483.41393340000013,483.43024460000015,483.43024460000015,483.43024460000015,483.5135325000001,483.9472571000001,,,,,,,,,,,,,,,,,,,,,,,,up,4.292803499999991,None,space,0.50595149999981,None,p110,001,2025-02-14_09h12.14.377,posner_endo_new1,2024.2.4,59.99919601073592,2025-02-14 09h12.25.513211 +0000,
cube_r.png,0.1,0.31,valid,27,27,0,up,4.174118100000214,None,space,0.44021239999983663,None,,,,,,,,,0,27,27,27,483.96288400000003,,,,,,,,,,,,,483.94747070000017,483.96288400000003,483.96288400000003,483.96288400000003,488.1427596000001,,,,488.1498882000001,488.1617299000002,488.1617299000002,488.20882230000007,488.20907150000016,488.2252204000001,488.2252204000001,488.2252204000001,488.29185430000007,488.67569390000017,,,,,,,,,,,,,,,,,,,,,,,,up,4.174118100000214,None,space,0.44021239999983663,None,p110,001,2025-02-14_09h12.14.377,posner_endo_new1,2024.2.4,59.99919601073592,2025-02-14 09h12.25.513211 +0000,
cube_r.png,0.1,10,catch,28,28,0,up,3.7090140000000247,None,None,,,,,,,,,,,0,28,28,28,488.69145790000016,,,,,,,,,,,,,488.67589740000017,488.69145790000016,488.69145790000016,488.69145790000016,492.40508950000003,,,,492.4122321,492.42392800000016,492.42392800000016,492.47119010000006,492.4714385000002,492.48761460000014,492.48761460000014,492.48761460000014,492.55406000000016,495.4848611,,,,494.5689553000002,495.50099620000015,495.50099620000015,495.50099620000015,,,,,,,,,,,,,,,,,up,3.7090140000000247,None,None,,,p110,001,2025-02-14_09h12.14.377,posner_endo_new1,2024.2.4,59.99919601073592,2025-02-14 09h12.25.513211 +0000,
cube_r.png,0.1,0.31,valid,29,29,0,up,0.3946961999999985,None,space,0.4621048999999857,None,,,,,,,,,0,29,29,29,495.50099620000015,,,,,,,,,,,,,495.4850511000002,495.50099620000015,495.50099620000015,495.50099620000015,495.9015426000001,,,,495.9087066000002,495.92008080000005,495.92008080000005,495.9673229,495.96782270000017,495.98370840000007,495.98370840000007,495.98370840000007,496.06706840000015,496.45147180000004,,,,,,,,,,,,,,,,,,,,,,,,up,0.3946961999999985,None,space,0.4621048999999857,None,p110,001,2025-02-14_09h12.14.377,posner_endo_new1,2024.2.4,59.99919601073592,2025-02-14 09h12.25.513211 +0000,
cube_r.png,0.1,0.31,valid,30,30,0,up,2.9256136999999853,None,space,0.4766660000000229,None,,,,,,,,,0,30,30,30,496.4669157000001,,,,,,,,,,,,,496.4517778000002,496.4669157000001,496.4669157000001,496.4669157000001,499.3984696,,,,499.40967290000003,499.42028920000007,499.42028920000007,499.4638972,499.4642517000002,499.4804068000001,499.4804068000001,499.4804068000001,499.5637674000002,499.96441130000017,,,,,,,,,,,,,,,,,,,,,,,,up,2.9256136999999853,None,space,0.4766660000000229,None,p110,001,2025-02-14_09h12.14.377,posner_endo_new1,2024.2.4,59.99919601073592,2025-02-14 09h12.25.513211 +0000,
cube_l.png,0.1,-0.31,valid,31,31,0,up,4.940349100000049,None,space,0.47699649999981375,None,,,,,,,,,0,31,31,31,499.9799849000001,,,,,,,,,,,,,499.9647143000002,499.9799849000001,499.9799849000001,499.9799849000001,504.9261144000002,,,,504.93726630000015,504.9478133,504.9478133,504.99170270000013,504.9920506000001,505.0080623000001,505.0080623000001,505.0080623000001,505.09120400000006,505.4923053,,,,,,,,,,,,,,,,,,,,,,,,up,4.940349100000049,None,space,0.47699649999981375,None,p110,001,2025-02-14_09h12.14.377,posner_endo_new1,2024.2.4,59.99919601073592,2025-02-14 09h12.25.513211 +0000,
cube_r.png,0.1,0.31,valid,32,32,0,up,3.1644619000001057,None,space,1.0164985999999772,None,,,,,,,,,0,32,32,32,505.5075428,,,,,,,,,,,,,505.49261,505.5075428,505.5075428,505.5075428,508.6888508000002,,,,508.69744400000013,508.7071906000001,508.7071906000001,508.7544815000001,508.7547214000001,508.7708968000002,508.7708968000002,508.7708968000002,508.8542173000001,509.8040390000001,,,,,,,,,,,,,,,,,,,,,,,,up,3.1644619000001057,None,space,1.0164985999999772,None,p110,001,2025-02-14_09h12.14.377,posner_endo_new1,2024.2.4,59.99919601073592,2025-02-14 09h12.25.513211 +0000,
cube_r.png,0.1,-0.31,invalid,33,33,0,up,2.8846886000001177,None,space,0.4113038000000415,None,,,,,,,,,0,33,33,33,509.81987520000007,,,,,,,,,,,,,509.8042300000002,509.81987520000007,509.81987520000007,509.81987520000007,512.7176943000002,,,,512.7244370000001,512.7362298,512.7362298,512.7836754,512.7839034000001,512.8000008000001,512.8000008000001,512.8000008000001,512.8832965000001,513.2170899,,,,,,,,,,,,,,,,,,,,,,,,up,2.8846886000001177,None,space,0.4113038000000415,None,p110,001,2025-02-14_09h12.14.377,posner_endo_new1,2024.2.4,59.99919601073592,2025-02-14 09h12.25.513211 +0000,
cube_r.png,0.1,10,catch,34,34,0,up,3.935559999999896,None,None,,,,,,,,,,,0,34,34,34,513.2329653000002,,,,,,,,,,,,,513.2172731,513.2329653000002,513.2329653000002,513.2329653000002,517.1798170000002,,,,517.1856438000002,517.1972906000001,517.1972906000001,517.2456357000001,517.2458592,517.2623864000002,517.2623864000002,517.2623864000002,517.3287767000002,520.2596653,,,,519.3434859000001,520.2759994,520.2759994,520.2759994,,,,,,,,,,,,,,,,,up,3.935559999999896,None,None,,,p110,001,2025-02-14_09h12.14.377,posner_endo_new1,2024.2.4,59.99919601073592,2025-02-14 09h12.25.513211 +0000,
cube_r.png,0.1,0.31,valid,35,35,0,up,0.7240947000000233,None,space,0.44168630000012854,None,,,,,,,,,0,35,35,35,520.2759994,,,,,,,,,,,,,520.2598316000001,520.2759994,520.2759994,520.2759994,521.0089981000001,,,,521.0147510000002,521.026212,521.026212,521.0749303,521.0754307000002,521.0913839,521.0913839,521.0913839,521.1746396000001,521.5423636,,,,,,,,,,,,,,,,,,,,,,,,up,0.7240947000000233,None,space,0.44168630000012854,None,p110,001,2025-02-14_09h12.14.377,posner_endo_new1,2024.2.4,59.99919601073592,2025-02-14 09h12.25.513211 +0000,
cube_r.png,0.1,-0.31,invalid,36,36,0,up,4.146646400000009,None,space,0.4725144999999884,None,,,,,,,,,0,36,36,36,521.5579480000001,,,,,,,,,,,,,521.5426662,521.5579480000001,521.5579480000001,521.5579480000001,525.7216802,,,,525.7327747000002,525.7429734,525.7429734,525.7867503,525.7870013000002,525.8033037,525.8033037,525.8033037,525.8865698000002,526.2869502000001,,,,,,,,,,,,,,,,,,,,,,,,up,4.146646400000009,None,space,0.4725144999999884,None,p110,001,2025-02-14_09h12.14.377,posner_endo_new1,2024.2.4,59.99919601073592,2025-02-14 09h12.25.513211 +0000,
cube_l.png,0.1,0.31,invalid,37,37,0,up,3.3459206999998514,None,space,0.48133000000007087,None,,,,,,,,,0,37,37,37,526.3027348,,,,,,,,,,,,,526.2871623000001,526.3027348,526.3027348,526.3027348,529.6503508000001,,,,529.6573753,529.6693737,529.6693737,529.7161402000002,529.7163873000002,529.7327421,529.7327421,529.7327421,529.81592,530.2165297000001,,,,,,,,,,,,,,,,,,,,,,,,up,3.3459206999998514,None,space,0.48133000000007087,None,p110,001,2025-02-14_09h12.14.377,posner_endo_new1,2024.2.4,59.99919601073592,2025-02-14 09h12.25.513211 +0000,
cube_l.png,0.1,0.31,invalid,38,38,0,up,3.639995499999941,None,space,0.6942911999999524,None,,,,,,,,,0,38,38,38,530.2323195000001,,,,,,,,,,,,,530.2167299,530.2323195000001,530.2323195000001,530.2323195000001,533.8788575000001,,,,533.8859346000002,533.8978581000001,533.8978581000001,533.9453031,533.9455498000002,533.9617652000002,533.9617652000002,533.9617652000002,534.0282842000001,534.6619302000001,,,,,,,,,,,,,,,,,,,,,,,,up,3.639995499999941,None,space,0.6942911999999524,None,p110,001,2025-02-14_09h12.14.377,posner_endo_new1,2024.2.4,59.99919601073592,2025-02-14 09h12.25.513211 +0000,
cube_r.png,0.1,0.31,valid,39,39,0,up,3.4346413000000666,None,space,0.4781147000001056,None,,,,,,,,,0,39,39,39,534.6778290000002,,,,,,,,,,,,,534.662141,534.6778290000002,534.6778290000002,534.6778290000002,538.1249776000002,,,,538.1320798000002,538.1439122000002,538.1439122000002,538.1908060000001,538.1910569000001,538.2073290000001,538.2073290000001,538.2073290000001,538.2908810000001,538.6912253,,,,,,,,,,,,,,,,,,,,,,,,up,3.4346413000000666,None,space,0.4781147000001056,None,p110,001,2025-02-14_09h12.14.377,posner_endo_new1,2024.2.4,59.99919601073592,2025-02-14 09h12.25.513211 +0000,
cube_l.png,0.1,0.31,invalid,40,40,0,up,3.8935599999999795,None,space,0.3932125999999698,None,,,,,,,,,0,40,40,40,538.7069008000001,,,,,,,,,,,,,538.6914317000001,538.7069008000001,538.7069008000001,538.7069008000001,542.6036774000002,,,,542.6109456000002,542.6225527000001,542.6225527000001,542.6694988000002,542.6697604000001,542.6861136,542.6861136,542.6861136,542.7526459000001,543.0864449000001,,,,,,,,,,,,,,,,,,,,,,,,up,3.8935599999999795,None,space,0.3932125999999698,None,p110,001,2025-02-14_09h12.14.377,posner_endo_new1,2024.2.4,59.99919601073592,2025-02-14 09h12.25.513211 +0000,
cube_l.png,0.1,10,catch,41,41,0,up,4.201759300000049,None,None,,,,,,,,,,,0,41,41,41,543.1023726000001,,,,,,,,,,,,,543.0866470000001,543.1023726000001,543.1023726000001,543.1023726000001,547.3154646,,,,547.3225643000001,547.3346363,547.3346363,547.3816570000001,547.3819117,547.3978303000001,547.3978303000001,547.3978303000001,547.4645457000001,550.3953025000001,,,,549.4792515000001,550.4114993000001,550.4114993000001,550.4114993000001,,,,,,,,,,,,,,,,,up,4.201759300000049,None,None,,,p110,001,2025-02-14_09h12.14.377,posner_endo_new1,2024.2.4,59.99919601073592,2025-02-14 09h12.25.513211 +0000,
cube_l.png,0.1,-0.31,valid,42,42,0,up,0.8286991999998463,None,space,0.5199276000000737,None,,,,,,,,,0,42,42,42,550.4114993000001,,,,,,,,,,,,,550.3954945,550.4114993000001,550.4114993000001,550.4114993000001,551.2451213000002,,,,551.2523332000001,551.2639121000002,551.2639121000002,551.3107690000002,551.3110295000001,551.3271764000001,551.3271764000001,551.3271764000001,551.4107966000001,551.8609629,,,,,,,,,,,,,,,,,,,,,,,,up,0.8286991999998463,None,space,0.5199276000000737,None,p110,001,2025-02-14_09h12.14.377,posner_endo_new1,2024.2.4,59.99919601073592,2025-02-14 09h12.25.513211 +0000,
cube_l.png,0.1,10,catch,43,43,0,up,3.2198969000000943,None,None,,,,,,,,,,,0,43,43,43,551.8765768000001,,,,,,,,,,,,,551.8611655000002,551.8765768000001,551.8765768000001,551.8765768000001,555.1075964000001,,,,555.1146947000002,555.1267305000001,555.1267305000001,555.1733828000001,555.1736328000002,555.1900261000001,555.1900261000001,555.1900261000001,555.2565321000002,558.1873657000001,,,,557.2714004000002,558.2035555,558.2035555,558.2035555,,,,,,,,,,,,,,,,,up,3.2198969000000943,None,None,,,p110,001,2025-02-14_09h12.14.377,posner_endo_new1,2024.2.4,59.99919601073592,2025-02-14 09h12.25.513211 +0000,
cube_l.png,0.1,0.31,invalid,44,44,0,up,0.9081246000000647,None,space,0.45817970000007335,None,,,,,,,,,0,44,44,44,558.2035555,,,,,,,,,,,,,558.1875533,558.2035555,558.2035555,558.2035555,559.1199919000001,,,,559.1270482,559.1389465000002,559.1389465000002,559.1861188,559.1863671000001,559.2023621000001,559.2023621000001,559.2023621000001,559.2690321,559.6696911000001,,,,,,,,,,,,,,,,,,,,,,,,up,0.9081246000000647,None,space,0.45817970000007335,None,p110,001,2025-02-14_09h12.14.377,posner_endo_new1,2024.2.4,59.99919601073592,2025-02-14 09h12.25.513211 +0000,
cube_l.png,0.1,0.31,invalid,45,45,0,up,3.4673539000000346,None,space,0.6503040000000055,None,,,,,,,,,0,45,45,45,559.6852869000002,,,,,,,,,,,,,559.6698916,559.6852869000002,559.6852869000002,559.6852869000002,563.1660507000001,,,,563.1730951000002,563.1850285,563.1850285,563.2319406000001,563.2321890000001,563.2484744000001,563.2484744000001,563.2484744000001,563.3316152,563.9151343000001,,,,,,,,,,,,,,,,,,,,,,,,up,3.4673539000000346,None,space,0.6503040000000055,None,p110,001,2025-02-14_09h12.14.377,posner_endo_new1,2024.2.4,59.99919601073592,2025-02-14 09h12.25.513211 +0000,
cube_r.png,0.1,0.31,valid,46,46,0,up,3.0688345999999456,None,space,0.46505900000011025,None,,,,,,,,,0,46,46,46,563.9311835000001,,,,,,,,,,,,,563.9153412000001,563.9311835000001,563.9311835000001,563.9311835000001,567.0120060000002,,,,567.0190416,567.0310485,567.0310485,567.0780565,567.0783204000002,567.0943794000002,567.0943794000002,567.0943794000002,567.1776348000001,567.5616467,,,,,,,,,,,,,,,,,,,,,,,,up,3.0688345999999456,None,space,0.46505900000011025,None,p110,001,2025-02-14_09h12.14.377,posner_endo_new1,2024.2.4,59.99919601073592,2025-02-14 09h12.25.513211 +0000,
cube_l.png,0.1,-0.31,valid,47,47,0,up,3.463365000000067,None,space,0.4546391000001222,None,,,,,,,,,0,47,47,47,567.5771024000001,,,,,,,,,,,,,567.5618623,567.5771024000001,567.5771024000001,567.5771024000001,571.0413111,,,,571.0483845000001,571.0602465000002,571.0602465000002,571.1073840000001,571.1076346,571.1237753,571.1237753,571.1237753,571.1902906,571.5907197000001,,,,,,,,,,,,,,,,,,,,,,,,up,3.463365000000067,None,space,0.4546391000001222,None,p110,001,2025-02-14_09h12.14.377,posner_endo_new1,2024.2.4,59.99919601073592,2025-02-14 09h12.25.513211 +0000,
cube_r.png,0.1,-0.31,invalid,48,48,0,up,3.7933038999999553,None,space,0.4985960999999861,None,,,,,,,,,0,48,48,48,571.6065438,,,,,,,,,,,,,571.5909323000001,571.6065438,571.6065438,571.6065438,575.40345,,,,575.4106113,575.4220593,575.4220593,575.4692591,575.4697613000001,575.4856453,575.4856453,575.4856453,575.5689133000001,575.9866392000001,,,,,,,,,,,,,,,,,,,,,,,,up,3.7933038999999553,None,space,0.4985960999999861,None,p110,001,2025-02-14_09h12.14.377,posner_endo_new1,2024.2.4,59.99919601073592,2025-02-14 09h12.25.513211 +0000,
cube_r.png,0.1,10,catch,49,49,0,up,3.12560469999994,None,None,,,,,,,,,,,0,49,49,49,576.0021846000002,,,,,,,,,,,,,575.9869373000001,576.0021846000002,576.0021846000002,576.0021846000002,579.1334915,,,,579.1445908000001,579.1550550000002,579.1550550000002,579.1991256000001,579.199466,579.2156366000002,579.2156366000002,579.2156366000002,579.298816,582.2131418000001,,,,581.3132640000001,582.2291472000002,582.2291472000002,582.2291472000002,,,,,,,,,,,,,,,,,up,3.12560469999994,None,None,,,p110,001,2025-02-14_09h12.14.377,posner_endo_new1,2024.2.4,59.99919601073592,2025-02-14 09h12.25.513211 +0000,
cube_l.png,0.1,-0.31,valid,50,50,0,up,0.6504556999998385,None,space,0.4782545000000482,None,,,,,,,,,0,50,50,50,582.2291472000002,,,,,,,,,,,,,582.2134273000001,582.2291472000002,582.2291472000002,582.2291472000002,582.8961947,,,,582.9072250000002,582.9172482000001,582.9172482000001,582.9617488000001,582.9621052,582.9781963,582.9781963,582.9781963,583.0614495000002,583.4624723000002,,,,,,,,,,,,,,,,,,,,,,,,up,0.6504556999998385,None,space,0.4782545000000482,None,p110,001,2025-02-14_09h12.14.377,posner_endo_new1,2024.2.4,59.99919601073592,2025-02-14 09h12.25.513211 +0000,
cube_l.png,0.1,-0.31,valid,51,51,0,up,3.6257762999998704,None,space,0.46363719999999375,None,,,,,,,,,0,51,51,51,583.4779634000001,,,,,,,,,,,,,583.4627732000001,583.4779634000001,583.4779634000001,583.4779634000001,587.1087424,,,,587.1174238000001,587.1273550000001,587.1273550000001,587.1743597000002,587.1745978000001,587.1906751000001,587.1906751000001,587.1906751000001,587.2739094000001,587.6575441,,,,,,,,,,,,,,,,,,,,,,,,up,3.6257762999998704,None,space,0.46363719999999375,None,p110,001,2025-02-14_09h12.14.377,posner_endo_new1,2024.2.4,59.99919601073592,2025-02-14 09h12.25.513211 +0000,
cube_r.png,0.1,-0.31,invalid,52,52,0,up,3.6943817999999737,None,space,0.4839324999998098,None,,,,,,,,,0,52,52,52,587.6734279000002,,,,,,,,,,,,,587.6577435000002,587.6734279000002,587.6734279000002,587.6734279000002,591.3704259000001,,,,591.3770615000001,591.3889364000001,591.3889364000001,591.4362417,591.4364805,591.4529679000002,591.4529679000002,591.4529679000002,591.5196439000001,591.9531790000001,,,,,,,,,,,,,,,,,,,,,,,,up,3.6943817999999737,None,space,0.4839324999998098,None,p110,001,2025-02-14_09h12.14.377,posner_endo_new1,2024.2.4,59.99919601073592,2025-02-14 09h12.25.513211 +0000,
cube_l.png,0.1,-0.31,valid,53,53,0,up,3.031146300000046,None,space,0.9911870999999337,None,,,,,,,,,0,53,53,53,591.9691354000001,,,,,,,,,,,,,591.9534033,591.9691354000001,591.9691354000001,591.9691354000001,595.0166719000001,,,,595.0233829000001,595.0351389,595.0351389,595.0826962000001,595.0829222,595.0991572,595.0991572,595.0991572,595.1658950000001,596.0987817,,,,,,,,,,,,,,,,,,,,,,,,up,3.031146300000046,None,space,0.9911870999999337,None,p110,001,2025-02-14_09h12.14.377,posner_endo_new1,2024.2.4,59.99919601073592,2025-02-14 09h12.25.513211 +0000,
cube_r.png,0.1,10,catch,54,54,0,up,4.262158400000089,None,None,,,,,,,,,,,0,54,54,54,596.1147568000001,,,,,,,,,,,,,596.0989567000001,596.1147568000001,596.1147568000001,596.1147568000001,600.3777717,,,,600.3836327000001,600.3953416000002,600.3953416000002,600.4437890000002,600.444011,600.4602816000001,600.4602816000001,600.4602816000001,600.5269931,603.4576622000002,,,,602.5417474000001,603.4740249000001,603.4740249000001,603.4740249000001,,,,,,,,,,,,,,,,,up,4.262158400000089,None,None,,,p110,001,2025-02-14_09h12.14.377,posner_endo_new1,2024.2.4,59.99919601073592,2025-02-14 09h12.25.513211 +0000,
cube_l.png,0.1,0.31,invalid,55,55,0,up,1.6542546999999104,None,space,0.48994070000003376,None,,,,,,,,,0,55,55,55,603.4740249000001,,,,,,,,,,,,,603.4578255000001,603.4740249000001,603.4740249000001,603.4740249000001,605.1399627000001,,,,605.1457533,605.1574109000001,605.1574109000001,605.2055497000001,605.2057739000002,605.2222582000002,605.2222582000002,605.2222582000002,605.3054245000001,605.7224979,,,,,,,,,,,,,,,,,,,,,,,,up,1.6542546999999104,None,space,0.48994070000003376,None,p110,001,2025-02-14_09h12.14.377,posner_endo_new1,2024.2.4,59.99919601073592,2025-02-14 09h12.25.513211 +0000,
cube_l.png,0.1,-0.31,valid,56,56,0,up,3.566077299999961,None,space,0.42770569999993313,None,,,,,,,,,0,56,56,56,605.7382331000001,,,,,,,,,,,,,605.7226798000002,605.7382331000001,605.7382331000001,605.7382331000001,609.3185135000001,,,,609.3242498000002,609.3359082000002,609.3359082000002,609.3847221000001,609.3849453,609.4012663000001,609.4012663000001,609.4012663000001,609.4678220000001,609.8346247000002,,,,,,,,,,,,,,,,,,,,,,,,up,3.566077299999961,None,space,0.42770569999993313,None,p110,001,2025-02-14_09h12.14.377,posner_endo_new1,2024.2.4,59.99919601073592,2025-02-14 09h12.25.513211 +0000,
cube_r.png,0.1,0.31,valid,57,57,0,up,3.685233299999936,None,space,0.46924459999991086,None,,,,,,,,,0,57,57,57,609.8506702000002,,,,,,,,,,,,,609.8348014000001,609.8506702000002,609.8506702000002,609.8506702000002,613.5476947000002,,,,613.5535157000002,613.5652987000001,613.5652987000001,613.6136757000002,613.6139010000002,613.6303188000002,613.6303188000002,613.6303188000002,613.7133780000001,614.1136603,,,,,,,,,,,,,,,,,,,,,,,,up,3.685233299999936,None,space,0.46924459999991086,None,p110,001,2025-02-14_09h12.14.377,posner_endo_new1,2024.2.4,59.99919601073592,2025-02-14 09h12.25.513211 +0000,
cube_r.png,0.1,-0.31,invalid,58,58,0,up,4.173850700000003,None,space,0.4210938000001079,None,,,,,,,,,0,58,58,58,614.1297607000001,,,,,,,,,,,,,614.1138458,614.1297607000001,614.1297607000001,614.1297607000001,618.3097216000001,,,,618.3155256,618.3272014000001,618.3272014000001,618.3755396000001,618.3757635000002,618.3920335,618.3920335,618.3920335,618.4750894000001,618.8254897000002,,,,,,,,,,,,,,,,,,,,,,,,up,4.173850700000003,None,space,0.4210938000001079,None,p110,001,2025-02-14_09h12.14.377,posner_endo_new1,2024.2.4,59.99919601073592,2025-02-14 09h12.25.513211 +0000,
cube_l.png,0.1,0.31,invalid,59,59,0,up,3.8626408000000083,None,space,0.9396865999999591,None,,,,,,,,,0,59,59,59,618.8416171000001,,,,,,,,,,,,,618.8256736000001,618.8416171000001,618.8416171000001,618.8416171000001,622.7050625000002,,,,622.7108043000001,622.7224204000001,622.7224204000001,622.7709167,622.7711406000001,622.7874377,622.7874377,622.7874377,622.8711142000002,623.7373737,,,,,,,,,,,,,,,,,,,,,,,,up,3.8626408000000083,None,space,0.9396865999999591,None,p110,001,2025-02-14_09h12.14.377,posner_endo_new1,2024.2.4,59.99919601073592,2025-02-14 09h12.25.513211 +0000,
