cue_img,cue_soa,target_x,trial,thisN,thisTrialN,thisRepN,key_control2.keys,key_control2.rt,key_control2.duration,key_resp.keys,key_resp.rt,key_resp.duration,practice.thisRepN,practice.thisTrialN,practice.thisN,practice.thisIndex,block1.thisRepN,block1.thisTrialN,block1.thisN,block1.thisIndex,block2.thisRepN,block2.thisTrialN,block2.thisN,block2.thisIndex,thisRow.t,notes,instructions.started,instructions_txt.started,key_control.started,instructions.stopped,key_control.keys,key_control.rt,key_control.duration,ready.started,ready_txt.started,ready_txt.stopped,ready.stopped,fix.started,fixation.started,key_control2.started,fixation_cross.started,fix.stopped,practice.key_control2.keys,practice.key_control2.rt,practice.key_control2.duration,cue.started,cube.started,fixation_cross_cue.started,cue.stopped,target.started,fixation_target.started,fixation_cross_target.started,key_resp.started,star.started,target.stopped,practice.key_resp.keys,practice.key_resp.rt,practice.key_resp.duration,star.stopped,fixation_target.stopped,fixation_cross_target.stopped,key_resp.stopped,block1.key_control2.keys,block1.key_control2.rt,block1.key_control2.duration,block1.key_resp.keys,block1.key_resp.rt,block1.key_resp.duration,break_2.started,text.started,key_control3.started,text.stopped,break_2.stopped,key_control3.keys,key_control3.rt,key_control3.duration,block2.key_control2.keys,block2.key_control2.rt,block2.key_control2.duration,block2.key_resp.keys,block2.key_resp.rt,block2.key_resp.duration,participant,session,date,expName,psychopyVersion,frameRate,expStart,
,,,,,,,,,,,,,,,,,,,,,,,,,,,0.00744719999966037,0.029301099999429425,0.029301099999429425,75.67594550000013,up,75.63024850000056,None,,,,,,,,,,,,,,,,,,,,,,,,,,,,,,,,,,,,,,,,,,,,,,,,,,P111,001,2025-02-14_11h01.16.778,posner_endo_new1,2024.2.4,60.04747353241528,2025-02-14 11h01.24.992645 +0000,
,,,,,,,,,,,,,,,,,,,,,,,,,,,,,,,,,,75.67601169999944,75.68785099999968,78.69130499999937,78.66856589999952,,,,,,,,,,,,,,,,,,,,,,,,,,,,,,,,,,,,,,,,,,,,,,P111,001,2025-02-14_11h01.16.778,posner_endo_new1,2024.2.4,60.04747353241528,2025-02-14 11h01.24.992645 +0000,
cube_l.png,0.1,-0.31,valid,0,0,0,up,14.648261999999704,None,space,0.5801624999994601,None,0,0,0,0,,,,,,,,,78.69130499999937,,,,,,,,,,,,,78.67983929999991,78.69130499999937,78.69130499999937,78.69130499999937,93.35384879999947,up,14.648261999999704,None,93.36792100000002,93.37881509999988,93.37881509999988,93.41991299999972,93.42014909999943,93.43649060000007,93.43649060000007,93.43649060000007,93.51951279999957,94.01991499999986,space,0.5801624999994601,None,,,,,,,,,,,,,,,,,,,,,,,,,P111,001,2025-02-14_11h01.16.778,posner_endo_new1,2024.2.4,60.04747353241528,2025-02-14 11h01.24.992645 +0000,
cube_l.png,0.1,0.31,invalid,1,1,0,up,5.743441699999494,None,space,0.7426572000003944,None,0,1,1,1,,,,,,,,,94.03582709999955,,,,,,,,,,,,,94.02009730000009,94.03582709999955,94.03582709999955,94.03582709999955,99.78109979999954,up,5.743441699999494,None,99.79127639999933,99.80129679999936,99.80129679999936,99.84666209999978,99.84696629999962,99.86320909999995,99.86320909999995,99.86320909999995,99.94623919999958,100.61331369999971,space,0.7426572000003944,None,,,,,,,,,,,,,,,,,,,,,,,,,P111,001,2025-02-14_11h01.16.778,posner_endo_new1,2024.2.4,60.04747353241528,2025-02-14 11h01.24.992645 +0000,
cube_r.png,0.1,-0.31,invalid,2,2,0,up,4.214317799999662,None,space,0.5967618999993647,None,0,2,2,2,,,,,,,,,100.62907910000013,,,,,,,,,,,,,100.6135506999999,100.62907910000013,100.62907910000013,100.62907910000013,104.85895869999968,up,4.214317799999662,None,104.86811059999945,104.87797259999934,104.87797259999934,104.92464380000001,104.92488969999977,104.94117479999932,104.94117479999932,104.94117479999932,105.02458449999995,105.5417652999995,space,0.5967618999993647,None,,,,,,,,,,,,,,,,,,,,,,,,,P111,001,2025-02-14_11h01.16.778,posner_endo_new1,2024.2.4,60.04747353241528,2025-02-14 11h01.24.992645 +0000,
cube_r.png,0.1,10,catch,3,3,0,up,5.57477579999977,None,None,,,0,3,3,3,,,,,,,,,105.55728829999953,,,,,,,,,,,,,105.54194269999971,105.55728829999953,105.55728829999953,105.55728829999953,111.13572509999995,up,5.57477579999977,None,111.14201599999978,111.1536546999996,111.1536546999996,111.20179610000014,111.20203619999938,111.21836499999972,111.21836499999972,111.21836499999972,111.30159019999974,114.21562679999988,None,,,113.31611759999942,114.23174039999958,114.23174039999958,114.23174039999958,,,,,,,,,,,,,,,,,,,,,P111,001,2025-02-14_11h01.16.778,posner_endo_new1,2024.2.4,60.04747353241528,2025-02-14 11h01.24.992645 +0000,
cube_l.png,0.1,-0.31,valid,4,4,0,up,9.371807200000148,None,space,0.47158349999972415,None,0,4,4,4,,,,,,,,,114.23174039999958,,,,,,,,,,,,,114.21579070000007,114.23174039999958,114.23174039999958,114.23174039999958,123.60620999999992,up,9.371807200000148,None,123.61314179999954,123.62493799999993,123.62493799999993,123.67228519999935,123.6725308999994,123.68860189999941,123.68860189999941,123.68860189999941,123.75540769999952,124.17228449999948,space,0.47158349999972415,None,,,,,,,,,,,,,,,,,,,,,,,,,P111,001,2025-02-14_11h01.16.778,posner_endo_new1,2024.2.4,60.04747353241528,2025-02-14 11h01.24.992645 +0000,
cube_l.png,0.1,0.31,invalid,5,5,0,up,4.823709299999791,None,space,0.5026775000005728,None,0,5,5,5,,,,,,,,,124.18824779999977,,,,,,,,,,,,,124.17246449999948,124.18824779999977,124.18824779999977,124.18824779999977,129.0177178999993,up,4.823709299999791,None,129.02750409999953,129.03790799999933,129.03790799999933,129.08327199999985,129.0835890999997,129.09983329999977,129.09983329999977,129.09983329999977,129.1830756999998,129.61696380000012,space,0.5026775000005728,None,,,,,,,,,,,,,,,,,,,,,,,,,P111,001,2025-02-14_11h01.16.778,posner_endo_new1,2024.2.4,60.04747353241528,2025-02-14 11h01.24.992645 +0000,
cube_r.png,0.1,-0.31,invalid,6,6,0,up,5.37861840000005,None,space,0.43046460000005027,None,0,6,6,6,,,,,,,,,129.63273909999953,,,,,,,,,,,,,129.61721089999992,129.63273909999953,129.63273909999953,129.63273909999953,135.0282088999993,up,5.37861840000005,None,135.03889199999958,135.04870609999944,135.04870609999944,135.09398169999986,135.09430109999994,135.11020439999993,135.11020439999993,135.11020439999993,135.19369769999957,135.54432439999982,space,0.43046460000005027,None,,,,,,,,,,,,,,,,,,,,,,,,,P111,001,2025-02-14_11h01.16.778,posner_endo_new1,2024.2.4,60.04747353241528,2025-02-14 11h01.24.992645 +0000,
cube_r.png,0.1,0.31,valid,7,7,0,up,5.051454999999805,None,space,0.4839657000002262,None,0,7,7,7,,,,,,,,,135.5598485999999,,,,,,,,,,,,,135.5445867999997,135.5598485999999,135.5598485999999,135.5598485999999,140.62248670000008,up,5.051454999999805,None,140.63049969999975,140.64097669999956,140.64097669999956,140.68809079999937,140.68833929999983,140.70464529999936,140.70464529999936,140.70464529999936,140.78779069999928,141.20484989999932,space,0.4839657000002262,None,,,,,,,,,,,,,,,,,,,,,,,,,P111,001,2025-02-14_11h01.16.778,posner_endo_new1,2024.2.4,60.04747353241528,2025-02-14 11h01.24.992645 +0000,
cube_l.png,0.1,-0.31,valid,8,8,0,up,3.654703100000006,None,space,0.4108136000004379,None,0,8,8,8,,,,,,,,,141.22061889999986,,,,,,,,,,,,,141.20503169999938,141.22061889999986,141.22061889999986,141.22061889999986,144.8844328999994,up,3.654703100000006,None,144.8913165999993,144.9031113000001,144.9031113000001,144.95037239999965,144.9506209000001,144.9669286999997,144.9669286999997,144.9669286999997,145.0502289999995,145.38391090000005,space,0.4108136000004379,None,,,,,,,,,,,,,,,,,,,,,,,,,P111,001,2025-02-14_11h01.16.778,posner_endo_new1,2024.2.4,60.04747353241528,2025-02-14 11h01.24.992645 +0000,
cube_r.png,0.1,-0.31,invalid,9,9,0,up,4.540146400000594,None,space,0.5596137000002273,None,0,9,9,9,,,,,,,,,145.3997148999997,,,,,,,,,,,,,145.3840964000001,145.3997148999997,145.3997148999997,145.3997148999997,149.94601460000013,up,4.540146400000594,None,149.95273319999978,149.96453930000007,149.96453930000007,150.01213240000016,150.01237219999985,150.0283786,150.0283786,150.0283786,150.09493759999987,150.59509649999927,space,0.5596137000002273,None,,,,,,,,,,,,,,,,,,,,,,,,,P111,001,2025-02-14_11h01.16.778,posner_endo_new1,2024.2.4,60.04747353241528,2025-02-14 11h01.24.992645 +0000,
cube_r.png,0.1,0.31,valid,10,10,0,up,3.9768581000007543,None,space,0.4736231000006228,None,0,10,10,10,,,,,,,,,150.6111807999996,,,,,,,,,,,,,150.59527059999982,150.6111807999996,150.6111807999996,150.6111807999996,154.5915828999996,up,3.9768581000007543,None,154.59760199999982,154.6093267999995,154.6093267999995,154.6571267999998,154.6573697999993,154.67380969999977,154.67380969999977,154.67380969999977,154.75680229999944,155.15742629999932,space,0.4736231000006228,None,,,,,,,,,,,,,,,,,,,,,,,,,P111,001,2025-02-14_11h01.16.778,posner_endo_new1,2024.2.4,60.04747353241528,2025-02-14 11h01.24.992645 +0000,
,,,,,,,,,,,,,,,,,,,,,,,,,,,,,,,,,,155.15754149999975,155.17330369999945,158.17617939999946,158.15377409999928,,,,,,,,,,,,,,,,,,,,,,,,,,,,,,,,,,,,,,,,,,,,,,P111,001,2025-02-14_11h01.16.778,posner_endo_new1,2024.2.4,60.04747353241528,2025-02-14 11h01.24.992645 +0000,
cube_l.png,0.1,10,catch,0,0,0,up,8.035635199999888,None,None,,,,,,,0,0,0,0,,,,,158.17617939999946,,,,,,,,,,,,,158.16727249999985,158.17617939999946,158.17617939999946,158.17617939999946,166.2127507999994,,,,166.21910539999953,166.23074429999997,166.23074429999997,166.27861459999986,166.27886189999936,166.29527280000002,166.29527280000002,166.29527280000002,166.37828339999942,169.2925265999993,,,,168.39307349999945,169.30866160000005,169.30866160000005,169.30866160000005,up,8.035635199999888,None,None,,,,,,,,,,,,,,,,,P111,001,2025-02-14_11h01.16.778,posner_endo_new1,2024.2.4,60.04747353241528,2025-02-14 11h01.24.992645 +0000,
cube_l.png,0.1,10,catch,1,1,0,up,1.4707895999999892,None,None,,,,,,,0,1,1,1,,,,,169.30866160000005,,,,,,,,,,,,,169.29269459999978,169.30866160000005,169.30866160000005,169.30866160000005,170.79104359999928,,,,170.79717879999953,170.80885129999933,170.80885129999933,170.8570835999999,170.8573194999999,170.87355489999936,170.87355489999936,170.87355489999936,170.94031329999962,173.8712216999993,,,,172.95503599999938,173.88729209999929,173.88729209999929,173.88729209999929,up,1.4707895999999892,None,None,,,,,,,,,,,,,,,,,P111,001,2025-02-14_11h01.16.778,posner_endo_new1,2024.2.4,60.04747353241528,2025-02-14 11h01.24.992645 +0000,
cube_l.png,0.1,0.31,invalid,2,2,0,up,1.6278634000000238,None,space,0.5381394999994882,None,,,,,0,2,2,2,,,,,173.88729209999929,,,,,,,,,,,,,173.8713915999997,173.88729209999929,173.88729209999929,173.88729209999929,175.51999609999984,,,,175.5262120999996,175.5378579999997,175.5378579999997,175.5859077999994,175.5861477999997,175.60220239999944,175.60220239999944,175.60220239999944,175.68564160000005,176.15250370000012,,,,,,,,up,1.6278634000000238,None,space,0.5381394999994882,None,,,,,,,,,,,,,,,P111,001,2025-02-14_11h01.16.778,posner_endo_new1,2024.2.4,60.04747353241528,2025-02-14 11h01.24.992645 +0000,
cube_l.png,0.1,0.31,invalid,3,3,0,up,3.547563199999786,None,space,0.521145499999875,None,,,,,0,3,3,3,,,,,176.1682254999996,,,,,,,,,,,,,176.15269349999926,176.1682254999996,176.1682254999996,176.1682254999996,179.73199079999995,,,,179.73797060000015,179.74964920000002,179.74964920000002,179.7980539,179.79829509999945,179.81463129999975,179.81463129999975,179.81463129999975,179.88126980000015,180.34895049999977,,,,,,,,up,3.547563199999786,None,space,0.521145499999875,None,,,,,,,,,,,,,,,P111,001,2025-02-14_11h01.16.778,posner_endo_new1,2024.2.4,60.04747353241528,2025-02-14 11h01.24.992645 +0000,
cube_l.png,0.1,-0.31,valid,4,4,0,up,3.776340800000071,None,space,0.4747101000002658,None,,,,,0,4,4,4,,,,,180.3636117999995,,,,,,,,,,,,,180.3493611999993,180.3636117999995,180.3636117999995,180.3636117999995,184.14450080000006,,,,184.15424799999982,184.1646654999995,184.1646654999995,184.2102602999994,184.21058689999973,184.22659309999926,184.22659309999926,184.22659309999926,184.30983809999998,184.71111680000013,,,,,,,,up,3.776340800000071,None,space,0.4747101000002658,None,,,,,,,,,,,,,,,P111,001,2025-02-14_11h01.16.778,posner_endo_new1,2024.2.4,60.04747353241528,2025-02-14 11h01.24.992645 +0000,
cube_r.png,0.1,-0.31,invalid,5,5,0,up,3.5581281999993735,None,space,0.47597789999963425,None,,,,,0,5,5,5,,,,,184.7261781999996,,,,,,,,,,,,,184.7113765999993,184.7261781999996,184.7261781999996,184.7261781999996,188.2902598999999,,,,188.29661179999948,188.30860969999958,188.30860969999958,188.35580799999934,188.35634709999977,188.3722362999997,188.3722362999997,188.3722362999997,188.45550449999973,188.85714499999995,,,,,,,,up,3.5581281999993735,None,space,0.47597789999963425,None,,,,,,,,,,,,,,,P111,001,2025-02-14_11h01.16.778,posner_endo_new1,2024.2.4,60.04747353241528,2025-02-14 11h01.24.992645 +0000,
cube_r.png,0.1,0.31,valid,6,6,0,up,4.123940200000106,None,space,0.40778339999997115,None,,,,,0,6,6,6,,,,,188.87174789999972,,,,,,,,,,,,,188.85760260000006,188.87174789999972,188.87174789999972,188.87174789999972,193.00231910000002,,,,193.01101689999996,193.02087739999934,193.02087739999934,193.06779370000004,193.06803709999986,193.08435610000015,193.08435610000015,193.08435610000015,193.16755569999987,193.50142139999934,,,,,,,,up,4.123940200000106,None,space,0.40778339999997115,None,,,,,,,,,,,,,,,P111,001,2025-02-14_11h01.16.778,posner_endo_new1,2024.2.4,60.04747353241528,2025-02-14 11h01.24.992645 +0000,
cube_r.png,0.1,-0.31,invalid,7,7,0,up,3.989964399999735,None,space,0.4057358000000022,None,,,,,0,7,7,7,,,,,193.51706680000007,,,,,,,,,,,,,193.5016083999999,193.51706680000007,193.51706680000007,193.51706680000007,197.51397589999942,,,,197.52044279999973,197.53215869999985,197.53215869999985,197.5795938000001,197.57983650000006,197.59628879999946,197.59628879999946,197.59628879999946,197.6628800999997,198.0136468999999,,,,,,,,up,3.989964399999735,None,space,0.4057358000000022,None,,,,,,,,,,,,,,,P111,001,2025-02-14_11h01.16.778,posner_endo_new1,2024.2.4,60.04747353241528,2025-02-14 11h01.24.992645 +0000,
cube_l.png,0.1,-0.31,valid,8,8,0,up,3.798294100000021,None,space,0.41109620000042923,None,,,,,0,8,8,8,,,,,198.0292587999993,,,,,,,,,,,,,198.01383569999962,198.0292587999993,198.0292587999993,198.0292587999993,201.84282170000006,,,,201.8491194999997,201.86083059999964,201.86083059999964,201.90869919999932,201.9089383999999,201.92542609999964,201.92542609999964,201.92542609999964,202.0085436999998,202.34231739999996,,,,,,,,up,3.798294100000021,None,space,0.41109620000042923,None,,,,,,,,,,,,,,,P111,001,2025-02-14_11h01.16.778,posner_endo_new1,2024.2.4,60.04747353241528,2025-02-14 11h01.24.992645 +0000,
cube_r.png,0.1,-0.31,invalid,9,9,0,up,4.317653199999768,None,space,0.4833842999996705,None,,,,,0,9,9,9,,,,,202.35835399999996,,,,,,,,,,,,,202.34251099999983,202.35835399999996,202.35835399999996,202.35835399999996,206.68799599999966,,,,206.69402600000012,206.70547929999975,206.70547929999975,206.75369299999966,206.7539329000001,206.77029140000013,206.77029140000013,206.77029140000013,206.85361430000012,207.25447629999962,,,,,,,,up,4.317653199999768,None,space,0.4833842999996705,None,,,,,,,,,,,,,,,P111,001,2025-02-14_11h01.16.778,posner_endo_new1,2024.2.4,60.04747353241528,2025-02-14 11h01.24.992645 +0000,
cube_l.png,0.1,0.31,invalid,10,10,0,up,3.741694400000597,None,space,0.44227670000054786,None,,,,,0,10,10,10,,,,,207.26976819999982,,,,,,,,,,,,,207.2546615000001,207.26976819999982,207.26976819999982,207.26976819999982,211.01670920000015,,,,211.02281199999925,211.0345496,211.0345496,211.08273259999987,211.08297679999941,211.09904389999974,211.09904389999974,211.09904389999974,211.18267269999978,211.54956649999986,,,,,,,,up,3.741694400000597,None,space,0.44227670000054786,None,,,,,,,,,,,,,,,P111,001,2025-02-14_11h01.16.778,posner_endo_new1,2024.2.4,60.04747353241528,2025-02-14 11h01.24.992645 +0000,
cube_r.png,0.1,-0.31,invalid,11,11,0,up,4.061922699999741,None,space,0.46258579999994254,None,,,,,0,11,11,11,,,,,211.5653483999995,,,,,,,,,,,,,211.54975749999994,211.5653483999995,211.5653483999995,211.5653483999995,215.62906369999928,,,,215.63509519999934,215.6467703999997,215.6467703999997,215.69459469999947,215.69483489999948,215.71114709999983,215.71114709999983,215.71114709999983,215.7944048999998,216.17847819999952,,,,,,,,up,4.061922699999741,None,space,0.46258579999994254,None,,,,,,,,,,,,,,,P111,001,2025-02-14_11h01.16.778,posner_endo_new1,2024.2.4,60.04747353241528,2025-02-14 11h01.24.992645 +0000,
cube_r.png,0.1,0.31,valid,12,12,0,up,4.641217999999753,None,space,0.4271544000002905,None,,,,,0,12,12,12,,,,,216.1940829999994,,,,,,,,,,,,,216.1786616999998,216.1940829999994,216.1940829999994,216.1940829999994,220.84010299999954,,,,220.84603189999962,220.8582894000001,220.8582894000001,220.90582910000012,220.9063900000001,220.9222896000001,220.9222896000001,220.9222896000001,221.00548939999953,221.35702219999985,,,,,,,,up,4.641217999999753,None,space,0.4271544000002905,None,,,,,,,,,,,,,,,P111,001,2025-02-14_11h01.16.778,posner_endo_new1,2024.2.4,60.04747353241528,2025-02-14 11h01.24.992645 +0000,
cube_l.png,0.1,10,catch,13,13,0,up,3.9122016999999687,None,None,,,,,,,0,13,13,13,,,,,221.37184329999945,,,,,,,,,,,,,221.35747170000013,221.37184329999945,221.37184329999945,221.37184329999945,225.28608199999962,,,,225.29678169999988,225.3071519999994,225.3071519999994,225.35154059999968,225.35188769999968,225.36787519999962,225.36787519999962,225.36787519999962,225.4512305999997,228.3655779999999,,,,227.46576490000007,228.38142699999935,228.38142699999935,228.38142699999935,up,3.9122016999999687,None,None,,,,,,,,,,,,,,,,,P111,001,2025-02-14_11h01.16.778,posner_endo_new1,2024.2.4,60.04747353241528,2025-02-14 11h01.24.992645 +0000,
cube_r.png,0.1,-0.31,invalid,14,14,0,up,1.237752900000487,None,space,0.42535469999984343,None,,,,,0,14,14,14,,,,,228.38142699999935,,,,,,,,,,,,,228.36584399999992,228.38142699999935,228.38142699999935,228.38142699999935,229.63145170000007,,,,229.64022560000012,229.6502486999998,229.6502486999998,229.69698869999957,229.69722999999976,229.71363079999992,229.71363079999992,229.71363079999992,229.79665419999947,230.1473544999999,,,,,,,,up,1.237752900000487,None,space,0.42535469999984343,None,,,,,,,,,,,,,,,P111,001,2025-02-14_11h01.16.778,posner_endo_new1,2024.2.4,60.04747353241528,2025-02-14 11h01.24.992645 +0000,
cube_l.png,0.1,-0.31,valid,15,15,0,up,4.224594000000252,None,space,0.4660428999995929,None,,,,,0,15,15,15,,,,,230.16290769999978,,,,,,,,,,,,,230.14754919999996,230.16290769999978,230.16290769999978,230.16290769999978,234.3926066999993,,,,234.39858000000004,234.41014279999945,234.41014279999945,234.45866169999954,234.45890119999967,234.47519159999956,234.47519159999956,234.47519159999956,234.5418237999993,234.94233759999952,,,,,,,,up,4.224594000000252,None,space,0.4660428999995929,None,,,,,,,,,,,,,,,P111,001,2025-02-14_11h01.16.778,posner_endo_new1,2024.2.4,60.04747353241528,2025-02-14 11h01.24.992645 +0000,
cube_r.png,0.1,10,catch,16,16,0,up,3.8859952000002522,None,None,,,,,,,0,16,16,16,,,,,234.95788279999942,,,,,,,,,,,,,234.94252009999946,234.95788279999942,234.95788279999942,234.95788279999942,238.85474559999966,,,,238.86081259999992,238.8723976000001,238.8723976000001,238.9207510999995,238.9209850999996,238.93752799999947,238.93752799999947,238.93752799999947,239.00391479999962,241.93482359999962,,,,241.01852879999933,241.95091689999936,241.95091689999936,241.95091689999936,up,3.8859952000002522,None,None,,,,,,,,,,,,,,,,,P111,001,2025-02-14_11h01.16.778,posner_endo_new1,2024.2.4,60.04747353241528,2025-02-14 11h01.24.992645 +0000,
cube_r.png,0.1,10,catch,17,17,0,up,1.732535399999506,None,None,,,,,,,0,17,17,17,,,,,241.95091689999936,,,,,,,,,,,,,241.93499599999996,241.95091689999936,241.95091689999936,241.95091689999936,243.69992029999958,,,,243.70584379999946,243.71718989999954,243.71718989999954,243.76581429999987,243.7660576999997,243.7823112999995,243.7823112999995,243.7823112999995,243.84901529999934,246.77991569999995,,,,245.8634994999993,246.7958654999993,246.7958654999993,246.7958654999993,up,1.732535399999506,None,None,,,,,,,,,,,,,,,,,P111,001,2025-02-14_11h01.16.778,posner_endo_new1,2024.2.4,60.04747353241528,2025-02-14 11h01.24.992645 +0000,
cube_l.png,0.1,0.31,invalid,18,18,0,up,1.1523385000000417,None,space,0.4656680999996752,None,,,,,0,18,18,18,,,,,246.7958654999993,,,,,,,,,,,,,246.7800942999993,246.7958654999993,246.7958654999993,246.7958654999993,247.96223329999975,,,,247.96824689999994,247.97986880000008,247.97986880000008,248.0283614,248.0286004999998,248.04473139999936,248.04473139999936,248.04473139999936,248.1114265999995,248.51153069999964,,,,,,,,up,1.1523385000000417,None,space,0.4656680999996752,None,,,,,,,,,,,,,,,P111,001,2025-02-14_11h01.16.778,posner_endo_new1,2024.2.4,60.04747353241528,2025-02-14 11h01.24.992645 +0000,
cube_l.png,0.1,10,catch,19,19,0,up,3.8198098000002574,None,None,,,,,,,0,19,19,19,,,,,248.52766859999974,,,,,,,,,,,,,248.5117120999994,248.52766859999974,248.52766859999974,248.52766859999974,252.3574897999997,,,,252.36438259999977,252.37601480000012,252.37601480000012,252.4232966999998,252.42354279999927,252.44031819999964,252.44031819999964,252.44031819999964,252.5233558,255.43793499999992,,,,254.5380494000001,255.4537467,255.4537467,255.4537467,up,3.8198098000002574,None,None,,,,,,,,,,,,,,,,,P111,001,2025-02-14_11h01.16.778,posner_endo_new1,2024.2.4,60.04747353241528,2025-02-14 11h01.24.992645 +0000,
cube_l.png,0.1,0.31,invalid,20,20,0,up,2.2133113999998386,None,space,0.46351469999990513,None,,,,,0,20,20,20,,,,,255.4537467,,,,,,,,,,,,,255.43810609999946,255.4537467,255.4537467,255.4537467,257.6691691999995,,,,257.6752894000001,257.6869256,257.6869256,257.7348317999995,257.7350728000001,257.7513537999994,257.7513537999994,257.7513537999994,257.8347331999994,258.21861649999937,,,,,,,,up,2.2133113999998386,None,space,0.46351469999990513,None,,,,,,,,,,,,,,,P111,001,2025-02-14_11h01.16.778,posner_endo_new1,2024.2.4,60.04747353241528,2025-02-14 11h01.24.992645 +0000,
cube_l.png,0.1,-0.31,valid,21,21,0,up,3.9452483999994,None,space,0.4565070000007836,None,,,,,0,21,21,21,,,,,258.2342547999997,,,,,,,,,,,,,258.2188097999997,258.2342547999997,258.2342547999997,258.2342547999997,262.18134589999954,,,,262.18735190000007,262.19913129999986,262.19913129999986,262.24687279999944,262.24711059999936,262.26349349999964,262.26349349999964,262.26349349999964,262.34686619999957,262.7304439999998,,,,,,,,up,3.9452483999994,None,space,0.4565070000007836,None,,,,,,,,,,,,,,,P111,001,2025-02-14_11h01.16.778,posner_endo_new1,2024.2.4,60.04747353241528,2025-02-14 11h01.24.992645 +0000,
cube_r.png,0.1,0.31,valid,22,22,0,up,3.7289866000000984,None,space,0.47032839999974385,None,,,,,0,22,22,22,,,,,262.74608480000006,,,,,,,,,,,,,262.7306319999998,262.74608480000006,262.74608480000006,262.74608480000006,266.47665210000014,,,,266.48260409999966,266.49416779999956,266.49416779999956,266.54247829999986,266.5427202999999,266.55898049999996,266.55898049999996,266.55898049999996,266.6423184999994,267.0429009999998,,,,,,,,up,3.7289866000000984,None,space,0.47032839999974385,None,,,,,,,,,,,,,,,P111,001,2025-02-14_11h01.16.778,posner_endo_new1,2024.2.4,60.04747353241528,2025-02-14 11h01.24.992645 +0000,
cube_r.png,0.1,-0.31,invalid,23,23,0,up,4.0325046000007205,None,space,0.4323945000005551,None,,,,,0,23,23,23,,,,,267.05856369999947,,,,,,,,,,,,,267.0430831999993,267.05856369999947,267.05856369999947,267.05856369999947,271.10532859999967,,,,271.11134969999966,271.12290909999956,271.12290909999956,271.17107959999976,271.17131900000004,271.1878587000001,271.1878587000001,271.1878587000001,271.2710529999995,271.6214769999997,,,,,,,,up,4.0325046000007205,None,space,0.4323945000005551,None,,,,,,,,,,,,,,,P111,001,2025-02-14_11h01.16.778,posner_endo_new1,2024.2.4,60.04747353241528,2025-02-14 11h01.24.992645 +0000,
cube_r.png,0.1,0.31,valid,24,24,0,up,3.8942894000001615,None,space,0.444780300000275,None,,,,,0,24,24,24,,,,,271.6372341999995,,,,,,,,,,,,,271.6216670999993,271.6372341999995,271.6372341999995,271.6372341999995,275.5342362000001,,,,275.54016409999986,275.5518790999995,275.5518790999995,275.59964369999943,275.5998862999995,275.6164775999996,275.6164775999996,275.6164775999996,275.6996197999997,276.0669014999994,,,,,,,,up,3.8942894000001615,None,space,0.444780300000275,None,,,,,,,,,,,,,,,P111,001,2025-02-14_11h01.16.778,posner_endo_new1,2024.2.4,60.04747353241528,2025-02-14 11h01.24.992645 +0000,
cube_r.png,0.1,-0.31,invalid,25,25,0,up,4.105025400000159,None,space,0.4507455000002665,None,,,,,0,25,25,25,,,,,276.0828283000001,,,,,,,,,,,,,276.06709259999934,276.0828283000001,276.0828283000001,276.0828283000001,280.19586040000013,,,,280.2020470999996,280.2137389999998,280.2137389999998,280.26191370000015,280.2621565999998,280.2782976999997,280.2782976999997,280.2782976999997,280.3616148000001,280.74522049999996,,,,,,,,up,4.105025400000159,None,space,0.4507455000002665,None,,,,,,,,,,,,,,,P111,001,2025-02-14_11h01.16.778,posner_endo_new1,2024.2.4,60.04747353241528,2025-02-14 11h01.24.992645 +0000,
cube_l.png,0.1,-0.31,valid,26,26,0,up,3.994266599999719,None,space,0.3884472999998252,None,,,,,0,26,26,26,,,,,280.7609591999999,,,,,,,,,,,,,280.74540759999945,280.7609591999999,280.7609591999999,280.7609591999999,284.75790139999935,,,,284.7638612999999,284.77565460000005,284.77565460000005,284.8237602999998,284.8240006999995,284.84024709999994,284.84024709999994,284.84024709999994,284.90691379999953,285.24073469999985,,,,,,,,up,3.994266599999719,None,space,0.3884472999998252,None,,,,,,,,,,,,,,,P111,001,2025-02-14_11h01.16.778,posner_endo_new1,2024.2.4,60.04747353241528,2025-02-14 11h01.24.992645 +0000,
cube_r.png,0.1,0.31,valid,27,27,0,up,3.4987075999997614,None,space,0.37183679999998276,None,,,,,0,27,27,27,,,,,285.2564505999999,,,,,,,,,,,,,285.24092369999926,285.2564505999999,285.2564505999999,285.2564505999999,288.7703556999995,,,,288.7764086999996,288.78812949999974,288.78812949999974,288.8362932,288.8365324999995,288.8530731999999,288.8530731999999,288.8530731999999,288.91960089999975,289.2365884000001,,,,,,,,up,3.4987075999997614,None,space,0.37183679999998276,None,,,,,,,,,,,,,,,P111,001,2025-02-14_11h01.16.778,posner_endo_new1,2024.2.4,60.04747353241528,2025-02-14 11h01.24.992645 +0000,
cube_r.png,0.1,10,catch,28,28,0,up,4.375580199999604,None,None,,,,,,,0,28,28,28,,,,,289.2524376000001,,,,,,,,,,,,,289.2367760999996,289.2524376000001,289.2524376000001,289.2524376000001,293.6324360999997,,,,293.63845649999985,293.6501314999996,293.6501314999996,293.6976748999996,293.69808680000006,293.71410449999985,293.71410449999985,293.71410449999985,293.79737620000014,296.71206209999946,,,,295.8123173999993,296.72823059999973,296.72823059999973,296.72823059999973,up,4.375580199999604,None,None,,,,,,,,,,,,,,,,,P111,001,2025-02-14_11h01.16.778,posner_endo_new1,2024.2.4,60.04747353241528,2025-02-14 11h01.24.992645 +0000,
cube_r.png,0.1,0.31,valid,29,29,0,up,1.6589868000000934,None,space,0.3862801000004765,None,,,,,0,29,29,29,,,,,296.72823059999973,,,,,,,,,,,,,296.71228059999976,296.72823059999973,296.72823059999973,296.72823059999973,298.3939892999997,,,,298.40220539999973,298.4128608000001,298.4128608000001,298.4596563999994,298.45994599999995,298.47620109999934,298.47620109999934,298.47620109999934,298.5428566999999,298.87689409999984,,,,,,,,up,1.6589868000000934,None,space,0.3862801000004765,None,,,,,,,,,,,,,,,P111,001,2025-02-14_11h01.16.778,posner_endo_new1,2024.2.4,60.04747353241528,2025-02-14 11h01.24.992645 +0000,
cube_r.png,0.1,0.31,valid,30,30,0,up,4.398800900000424,None,space,0.47237910000058037,None,,,,,0,30,30,30,,,,,298.8929290999995,,,,,,,,,,,,,298.8771385,298.8929290999995,298.8929290999995,298.8929290999995,303.30572239999947,,,,303.3140451999998,303.32429219999995,303.32429219999995,303.37138929999946,303.3716805999993,303.3878096999997,303.3878096999997,303.3878096999997,303.4711379999999,303.8717910999994,,,,,,,,up,4.398800900000424,None,space,0.47237910000058037,None,,,,,,,,,,,,,,,P111,001,2025-02-14_11h01.16.778,posner_endo_new1,2024.2.4,60.04747353241528,2025-02-14 11h01.24.992645 +0000,
cube_l.png,0.1,-0.31,valid,31,31,0,up,4.4760325999995985,None,space,0.43040279999968334,None,,,,,0,31,31,31,,,,,303.88742120000006,,,,,,,,,,,,,303.8720261999997,303.88742120000006,303.88742120000006,303.88742120000006,308.36733019999974,,,,308.37559580000016,308.3860367999996,308.3860367999996,308.4329945999998,308.4332852999996,308.4494095,308.4494095,308.4494095,308.53268879999996,308.8834816999997,,,,,,,,up,4.4760325999995985,None,space,0.43040279999968334,None,,,,,,,,,,,,,,,P111,001,2025-02-14_11h01.16.778,posner_endo_new1,2024.2.4,60.04747353241528,2025-02-14 11h01.24.992645 +0000,
cube_r.png,0.1,0.31,valid,32,32,0,up,4.656897499999104,None,space,0.41071820000070147,None,,,,,0,32,32,32,,,,,308.89894129999993,,,,,,,,,,,,,308.88371579999966,308.89894129999993,308.89894129999993,308.89894129999993,313.56180679999943,,,,313.5700776999993,313.58063069999935,313.58063069999935,313.62745799999993,313.62775449999936,313.6441195999996,313.6441195999996,313.6441195999996,313.7107142999994,314.0613549999998,,,,,,,,up,4.656897499999104,None,space,0.41071820000070147,None,,,,,,,,,,,,,,,P111,001,2025-02-14_11h01.16.778,posner_endo_new1,2024.2.4,60.04747353241528,2025-02-14 11h01.24.992645 +0000,
cube_r.png,0.1,-0.31,invalid,33,33,0,up,4.00622199999998,None,space,0.4628600000005463,None,,,,,0,33,33,33,,,,,314.07694059999994,,,,,,,,,,,,,314.0616001999997,314.07694059999994,314.07694059999994,314.07694059999994,318.0905708999999,,,,318.09880819999944,318.10912029999963,318.10912029999963,318.1562481000001,318.1567903999994,318.17263379999986,318.17263379999986,318.17263379999986,318.2559326999999,318.6409060999995,,,,,,,,up,4.00622199999998,None,space,0.4628600000005463,None,,,,,,,,,,,,,,,P111,001,2025-02-14_11h01.16.778,posner_endo_new1,2024.2.4,60.04747353241528,2025-02-14 11h01.24.992645 +0000,
cube_r.png,0.1,10,catch,34,34,0,up,3.883781700000327,None,None,,,,,,,0,34,34,34,,,,,318.65552260000004,,,,,,,,,,,,,318.6413533999994,318.65552260000004,318.65552260000004,318.65552260000004,322.5530977999997,,,,322.56385109999974,322.5743391999995,322.5743391999995,322.61844419999943,322.61879729999964,322.6350832999997,322.6350832999997,322.6350832999997,322.7183189999996,325.6326117999997,,,,324.7331461999993,325.6486471999997,325.6486471999997,325.6486471999997,up,3.883781700000327,None,None,,,,,,,,,,,,,,,,,P111,001,2025-02-14_11h01.16.778,posner_endo_new1,2024.2.4,60.04747353241528,2025-02-14 11h01.24.992645 +0000,
cube_r.png,0.1,0.31,valid,35,35,0,up,1.5062881000003472,None,space,0.46210020000035,None,,,,,0,35,35,35,,,,,325.6486471999997,,,,,,,,,,,,,325.6328829999993,325.6486471999997,325.6486471999997,325.6486471999997,327.1651826999996,,,,327.1759106999998,327.1865326999996,327.1865326999996,327.23041659999944,327.2307637999993,327.2469717999993,327.2469717999993,327.2469717999993,327.33022189999974,327.71466809999947,,,,,,,,up,1.5062881000003472,None,space,0.46210020000035,None,,,,,,,,,,,,,,,P111,001,2025-02-14_11h01.16.778,posner_endo_new1,2024.2.4,60.04747353241528,2025-02-14 11h01.24.992645 +0000,
cube_r.png,0.1,-0.31,invalid,36,36,0,up,3.7377206000001024,None,space,0.4266786999996839,None,,,,,0,36,36,36,,,,,327.7296824999994,,,,,,,,,,,,,327.71497089999957,327.7296824999994,327.7296824999994,327.7296824999994,331.47704279999925,,,,331.4877983999995,331.49821259999953,331.49821259999953,331.54267230000005,331.5430213999998,331.55914699999994,331.55914699999994,331.55914699999994,331.64256039999964,331.99320369999987,,,,,,,,up,3.7377206000001024,None,space,0.4266786999996839,None,,,,,,,,,,,,,,,P111,001,2025-02-14_11h01.16.778,posner_endo_new1,2024.2.4,60.04747353241528,2025-02-14 11h01.24.992645 +0000,
cube_l.png,0.1,0.31,invalid,37,37,0,up,3.802270199999839,None,space,0.5369301000000632,None,,,,,0,37,37,37,,,,,332.0086619999993,,,,,,,,,,,,,331.9934943999997,332.0086619999993,332.0086619999993,332.0086619999993,335.82276619999993,,,,335.83344279999983,335.8437636999997,335.8437636999997,335.8883331999996,335.88868229999935,335.9047061000001,335.9047061000001,335.9047061000001,335.9880054999994,336.45511069999975,,,,,,,,up,3.802270199999839,None,space,0.5369301000000632,None,,,,,,,,,,,,,,,P111,001,2025-02-14_11h01.16.778,posner_endo_new1,2024.2.4,60.04747353241528,2025-02-14 11h01.24.992645 +0000,
cube_l.png,0.1,0.31,invalid,38,38,0,up,3.7087945000002946,None,space,0.4840785999995205,None,,,,,0,38,38,38,,,,,336.4709079999993,,,,,,,,,,,,,336.4554135999997,336.4709079999993,336.4709079999993,336.4709079999993,340.18509229999927,,,,340.1957447999994,340.2062541999994,340.2062541999994,340.25049429999945,340.25085769999987,340.2671610999996,340.2671610999996,340.2671610999996,340.35020649999933,340.7677103999995,,,,,,,,up,3.7087945000002946,None,space,0.4840785999995205,None,,,,,,,,,,,,,,,P111,001,2025-02-14_11h01.16.778,posner_endo_new1,2024.2.4,60.04747353241528,2025-02-14 11h01.24.992645 +0000,
cube_r.png,0.1,0.31,valid,39,39,0,up,3.2840206000000762,None,space,0.5667499999999563,None,,,,,0,39,39,39,,,,,340.7834130000001,,,,,,,,,,,,,340.7680075999997,340.7834130000001,340.7834130000001,340.7834130000001,344.0809285999994,,,,344.08974859999944,344.0997048999998,344.0997048999998,344.14646899999934,344.1467170999995,344.16275940000014,344.16275940000014,344.16275940000014,344.2460992999995,344.7465852999994,,,,,,,,up,3.2840206000000762,None,space,0.5667499999999563,None,,,,,,,,,,,,,,,P111,001,2025-02-14_11h01.16.778,posner_endo_new1,2024.2.4,60.04747353241528,2025-02-14 11h01.24.992645 +0000,
cube_l.png,0.1,0.31,invalid,40,40,0,up,3.7045318999998926,None,space,0.4461352000007537,None,,,,,0,40,40,40,,,,,344.7623281999995,,,,,,,,,,,,,344.7467878999996,344.7623281999995,344.7623281999995,344.7623281999995,348.4760233999996,,,,348.4826194999996,348.4945756999996,348.4945756999996,348.5416031999994,348.5420588999996,348.5580423000001,348.5580423000001,348.5580423000001,348.64127519999965,349.0091760999994,,,,,,,,up,3.7045318999998926,None,space,0.4461352000007537,None,,,,,,,,,,,,,,,P111,001,2025-02-14_11h01.16.778,posner_endo_new1,2024.2.4,60.04747353241528,2025-02-14 11h01.24.992645 +0000,
cube_l.png,0.1,10,catch,41,41,0,up,3.899092599999676,None,None,,,,,,,0,41,41,41,,,,,349.0242365999993,,,,,,,,,,,,,349.00956510000015,349.0242365999993,349.0242365999993,349.0242365999993,352.9381757000001,,,,352.94681299999957,352.95715369999925,352.95715369999925,353.0037954999998,353.0041035999993,353.0204428999996,353.0204428999996,353.0204428999996,353.1035409999995,356.0181081999999,,,,355.1183500999996,356.03411849999975,356.03411849999975,356.03411849999975,up,3.899092599999676,None,None,,,,,,,,,,,,,,,,,P111,001,2025-02-14_11h01.16.778,posner_endo_new1,2024.2.4,60.04747353241528,2025-02-14 11h01.24.992645 +0000,
cube_l.png,0.1,-0.31,valid,42,42,0,up,1.0014800000008108,None,space,0.3914230000000316,None,,,,,0,42,42,42,,,,,356.03411849999975,,,,,,,,,,,,,356.01835570000003,356.03411849999975,356.03411849999975,356.03411849999975,357.050569,,,,357.05916889999935,357.06935220000014,357.06935220000014,357.11647170000015,357.1167704999998,357.1327917999997,357.1327917999997,357.1327917999997,357.2163233000001,357.5337284999996,,,,,,,,up,1.0014800000008108,None,space,0.3914230000000316,None,,,,,,,,,,,,,,,P111,001,2025-02-14_11h01.16.778,posner_endo_new1,2024.2.4,60.04747353241528,2025-02-14 11h01.24.992645 +0000,
cube_l.png,0.1,10,catch,43,43,0,up,3.9586537999994107,None,None,,,,,,,0,43,43,43,,,,,357.5492046999998,,,,,,,,,,,,,357.53397049999967,357.5492046999998,357.5492046999998,357.5492046999998,361.5127158999994,,,,361.5213417999994,361.5316714999999,361.5316714999999,361.57838399999946,361.5786896999998,361.5948684999994,361.5948684999994,361.5948684999994,361.6782389,364.59249180000006,,,,363.6927062999994,364.6084882999994,364.6084882999994,364.6084882999994,up,3.9586537999994107,None,None,,,,,,,,,,,,,,,,,P111,001,2025-02-14_11h01.16.778,posner_endo_new1,2024.2.4,60.04747353241528,2025-02-14 11h01.24.992645 +0000,
cube_l.png,0.1,0.31,invalid,44,44,0,up,0.9790678999997908,None,space,0.41392610000002605,None,,,,,0,44,44,44,,,,,364.6084882999994,,,,,,,,,,,,,364.5927161999998,364.6084882999994,364.6084882999994,364.6084882999994,365.5920596999995,,,,365.60062299999936,365.61103699999967,365.61103699999967,365.65765869999996,365.6579561999997,365.67411699999957,365.67411699999957,365.67411699999957,365.7574206999998,366.09148989999994,,,,,,,,up,0.9790678999997908,None,space,0.41392610000002605,None,,,,,,,,,,,,,,,P111,001,2025-02-14_11h01.16.778,posner_endo_new1,2024.2.4,60.04747353241528,2025-02-14 11h01.24.992645 +0000,
cube_l.png,0.1,0.31,invalid,45,45,0,up,3.368857100000241,None,space,0.4378882999999405,None,,,,,0,45,45,45,,,,,366.10689379999985,,,,,,,,,,,,,366.09173139999984,366.10689379999985,366.10689379999985,366.10689379999985,369.48789979999947,,,,369.49646719999964,369.50696229999994,369.50696229999994,369.5536959000001,369.55399209999996,369.57016620000013,369.57016620000013,369.57016620000013,369.65336990000014,370.0208198999999,,,,,,,,up,3.368857100000241,None,space,0.4378882999999405,None,,,,,,,,,,,,,,,P111,001,2025-02-14_11h01.16.778,posner_endo_new1,2024.2.4,60.04747353241528,2025-02-14 11h01.24.992645 +0000,
cube_r.png,0.1,0.31,valid,46,46,0,up,4.183625600000596,None,space,0.45441940000000614,None,,,,,0,46,46,46,,,,,370.0362753999998,,,,,,,,,,,,,370.02106149999963,370.0362753999998,370.0362753999998,370.0362753999998,374.23302109999986,,,,374.2415811999999,374.2519843,374.2519843,374.2989100999994,374.29922199999965,374.31543950000014,374.31543950000014,374.31543950000014,374.3987047999999,374.7825256999995,,,,,,,,up,4.183625600000596,None,space,0.45441940000000614,None,,,,,,,,,,,,,,,P111,001,2025-02-14_11h01.16.778,posner_endo_new1,2024.2.4,60.04747353241528,2025-02-14 11h01.24.992645 +0000,
cube_l.png,0.1,-0.31,valid,47,47,0,up,3.5737272999995184,None,space,0.4578584000000774,None,,,,,0,47,47,47,,,,,374.7980957999998,,,,,,,,,,,,,374.7827708999994,374.7980957999998,374.7980957999998,374.7980957999998,378.37879879999946,,,,378.3873159999994,378.3980756000001,378.3980756000001,378.4445102999998,378.44481709999945,378.4610340999998,378.4610340999998,378.4610340999998,378.5444220999998,378.92845529999977,,,,,,,,up,3.5737272999995184,None,space,0.4578584000000774,None,,,,,,,,,,,,,,,P111,001,2025-02-14_11h01.16.778,posner_endo_new1,2024.2.4,60.04747353241528,2025-02-14 11h01.24.992645 +0000,
cube_r.png,0.1,-0.31,invalid,48,48,0,up,3.8677040000002307,None,space,0.38705059999938385,None,,,,,0,48,48,48,,,,,378.9439259999999,,,,,,,,,,,,,378.9287031999993,378.9439259999999,378.9439259999999,378.9439259999999,382.8242021999995,,,,382.83276399999977,382.84315100000003,382.84315100000003,382.88999149999927,382.89029759999994,382.9064159999998,382.9064159999998,382.9064159999998,382.98967209999955,383.3071382999997,,,,,,,,up,3.8677040000002307,None,space,0.38705059999938385,None,,,,,,,,,,,,,,,P111,001,2025-02-14_11h01.16.778,posner_endo_new1,2024.2.4,60.04747353241528,2025-02-14 11h01.24.992645 +0000,
cube_r.png,0.1,10,catch,49,49,0,up,3.8169509000008475,None,None,,,,,,,0,49,49,49,,,,,383.3226574999999,,,,,,,,,,,,,383.30737559999943,383.3226574999999,383.3226574999999,383.3226574999999,387.1532738999995,,,,387.16188129999955,387.17235549999987,387.17235549999987,387.2188892999993,387.21920749999936,387.2353594999995,387.2353594999995,387.2353594999995,387.3186883999997,390.23299700000007,,,,389.33321649999925,390.2489249999999,390.2489249999999,390.2489249999999,up,3.8169509000008475,None,None,,,,,,,,,,,,,,,,,P111,001,2025-02-14_11h01.16.778,posner_endo_new1,2024.2.4,60.04747353241528,2025-02-14 11h01.24.992645 +0000,
cube_l.png,0.1,-0.31,valid,50,50,0,up,1.4581637999999657,None,space,0.4547623999997086,None,,,,,0,50,50,50,,,,,390.2489249999999,,,,,,,,,,,,,390.2332219,390.2489249999999,390.2489249999999,390.2489249999999,391.71541160000015,,,,391.7239724000001,391.73377919999984,391.73377919999984,391.78100339999946,391.78157250000004,391.79739379999955,391.79739379999955,391.79739379999955,391.8806225999997,392.26582229999985,,,,,,,,up,1.4581637999999657,None,space,0.4547623999997086,None,,,,,,,,,,,,,,,P111,001,2025-02-14_11h01.16.778,posner_endo_new1,2024.2.4,60.04747353241528,2025-02-14 11h01.24.992645 +0000,
cube_l.png,0.1,-0.31,valid,51,51,0,up,3.971042699999998,None,space,0.5262964000003194,None,,,,,0,51,51,51,,,,,392.2802355999993,,,,,,,,,,,,,392.2663073999993,392.2802355999993,392.2802355999993,392.2802355999993,396.2616638999998,,,,396.2796056999996,396.2913424999997,396.2913424999997,396.32621649999965,396.32652119999966,396.34268339999926,396.34268339999926,396.34268339999926,396.42596069999945,396.8766421999999,,,,,,,,up,3.971042699999998,None,space,0.5262964000003194,None,,,,,,,,,,,,,,,P111,001,2025-02-14_11h01.16.778,posner_endo_new1,2024.2.4,60.04747353241528,2025-02-14 11h01.24.992645 +0000,
cube_r.png,0.1,-0.31,invalid,52,52,0,up,4.87898210000003,None,space,0.5142132000000856,None,,,,,0,52,52,52,,,,,396.8925785000001,,,,,,,,,,,,,396.8768876999993,396.8925785000001,396.8925785000001,396.8925785000001,401.78894109999965,,,,401.80671469999925,401.81695559999935,401.81695559999935,401.8538259999996,401.85418649999974,401.8704514000001,401.8704514000001,401.8704514000001,401.95384860000013,402.38790960000006,,,,,,,,up,4.87898210000003,None,space,0.5142132000000856,None,,,,,,,,,,,,,,,P111,001,2025-02-14_11h01.16.778,posner_endo_new1,2024.2.4,60.04747353241528,2025-02-14 11h01.24.992645 +0000,
cube_l.png,0.1,-0.31,valid,53,53,0,up,3.6639456999992035,None,space,0.4561642999997275,None,,,,,0,53,53,53,,,,,402.40323089999947,,,,,,,,,,,,,402.38821149999967,402.40323089999947,402.40323089999947,402.40323089999947,406.08464000000004,,,,406.10262669999975,406.1136612999999,406.1136612999999,406.14966599999934,406.1502421999994,406.1660433999996,406.1660433999996,406.1660433999996,406.24928249999994,406.6343847999997,,,,,,,,up,3.6639456999992035,None,space,0.4561642999997275,None,,,,,,,,,,,,,,,P111,001,2025-02-14_11h01.16.778,posner_endo_new1,2024.2.4,60.04747353241528,2025-02-14 11h01.24.992645 +0000,
cube_r.png,0.1,10,catch,54,54,0,up,3.93827119999969,None,None,,,,,,,0,54,54,54,,,,,406.64886619999925,,,,,,,,,,,,,406.63486569999986,406.64886619999925,406.64886619999925,406.64886619999925,410.59699739999996,,,,410.6147086000001,410.6261433999998,410.6261433999998,410.66151829999944,410.6618418999997,410.6783545999997,410.6783545999997,410.6783545999997,410.7612559999998,413.6756188999998,,,,412.77577310000015,413.69170549999944,413.69170549999944,413.69170549999944,up,3.93827119999969,None,None,,,,,,,,,,,,,,,,,P111,001,2025-02-14_11h01.16.778,posner_endo_new1,2024.2.4,60.04747353241528,2025-02-14 11h01.24.992645 +0000,
cube_l.png,0.1,0.31,invalid,55,55,0,up,1.7991176000004998,None,space,0.4567786999996315,None,,,,,0,55,55,55,,,,,413.69170549999944,,,,,,,,,,,,,413.6758732999997,413.69170549999944,413.69170549999944,413.69170549999944,415.5076417,,,,415.5170939999998,415.5273327999994,415.5273327999994,415.57322829999976,415.57354959999975,415.58967440000015,415.58967440000015,415.58967440000015,415.6732297999997,416.05719319999935,,,,,,,,up,1.7991176000004998,None,space,0.4567786999996315,None,,,,,,,,,,,,,,,P111,001,2025-02-14_11h01.16.778,posner_endo_new1,2024.2.4,60.04747353241528,2025-02-14 11h01.24.992645 +0000,
cube_l.png,0.1,-0.31,valid,56,56,0,up,3.6105255000002217,None,space,0.46609600000010687,None,,,,,0,56,56,56,,,,,416.07266379999965,,,,,,,,,,,,,416.0574577999996,416.07266379999965,416.07266379999965,416.07266379999965,419.6863489999996,,,,419.69570739999926,419.7062582999997,419.7062582999997,419.75230569999985,419.7526328999993,419.7688337999998,419.7688337999998,419.7688337999998,419.8353029,420.23607469999934,,,,,,,,up,3.6105255000002217,None,space,0.46609600000010687,None,,,,,,,,,,,,,,,P111,001,2025-02-14_11h01.16.778,posner_endo_new1,2024.2.4,60.04747353241528,2025-02-14 11h01.24.992645 +0000,
cube_r.png,0.1,0.31,valid,57,57,0,up,3.8158275000005233,None,space,0.429744799999753,None,,,,,0,57,57,57,,,,,420.2515851999997,,,,,,,,,,,,,420.23633509999945,420.2515851999997,420.2515851999997,420.2515851999997,424.08301739999933,,,,424.10101309999936,424.112521,424.112521,424.1478053000001,424.14837219999936,424.16419919999953,424.16419919999953,424.16419919999953,424.2474721999997,424.59933419999925,,,,,,,,up,3.8158275000005233,None,space,0.429744799999753,None,,,,,,,,,,,,,,,P111,001,2025-02-14_11h01.16.778,posner_endo_new1,2024.2.4,60.04747353241528,2025-02-14 11h01.24.992645 +0000,
cube_r.png,0.1,-0.31,invalid,58,58,0,up,3.9572220000000016,None,space,0.46526709999943705,None,,,,,0,58,58,58,,,,,424.6137662000001,,,,,,,,,,,,,424.5998166999998,424.6137662000001,424.6137662000001,424.6137662000001,428.5783328999996,,,,428.5962015999994,428.6067957999994,428.6067957999994,428.64337949999936,428.6437415999999,428.65983439999945,428.65983439999945,428.65983439999945,428.74302179999995,429.1276219000001,,,,,,,,up,3.9572220000000016,None,space,0.46526709999943705,None,,,,,,,,,,,,,,,P111,001,2025-02-14_11h01.16.778,posner_endo_new1,2024.2.4,60.04747353241528,2025-02-14 11h01.24.992645 +0000,
cube_l.png,0.1,0.31,invalid,59,59,0,up,4.125004600000466,None,space,0.4352577999998175,None,,,,,0,59,59,59,,,,,429.1426490999993,,,,,,,,,,,,,429.1279154999993,429.1426490999993,429.1426490999993,429.1426490999993,433.2732028999999,,,,433.28125049999926,433.29131569999936,433.29131569999936,433.3385908999999,433.3388447999996,433.35490200000004,433.35490200000004,433.35490200000004,433.43804329999966,433.80524609999975,,,,,,,,up,4.125004600000466,None,space,0.4352577999998175,None,,,,,,,,,,,,,,,P111,001,2025-02-14_11h01.16.778,posner_endo_new1,2024.2.4,60.04747353241528,2025-02-14 11h01.24.992645 +0000,
,,,,,,,,,,,,,,,,,,,,,,,,,,,,,,,,,,,,,,,,,,,,,,,,,,,,,,,,,,,,,,,,,,,,,433.80536889999985,433.8209047,433.8209047,493.8261365999997,511.5259640999993,space,77.70288960000016,None,,,,,,,P111,001,2025-02-14_11h01.16.778,posner_endo_new1,2024.2.4,60.04747353241528,2025-02-14 11h01.24.992645 +0000,
,,,,,,,,,,,,,,,,,,,,,,,,,,,,,,,,,,511.5260406999996,511.54140839999945,514.5547179999994,514.5224632,,,,,,,,,,,,,,,,,,,,,,,,,,,,,,,,,,,,,,,,,,,,,,P111,001,2025-02-14_11h01.16.778,posner_endo_new1,2024.2.4,60.04747353241528,2025-02-14 11h01.24.992645 +0000,
cube_l.png,0.1,10,catch,0,0,0,down,5.273291500000596,None,None,,,,,,,,,,,0,0,0,0,514.5547179999994,,,,,,,,,,,,,514.5457755999996,514.5547179999994,514.5547179999994,514.5547179999994,519.8338039,,,,519.8401203999993,519.8519553999995,519.8519553999995,519.8996506999993,519.8998965000001,519.916134,519.916134,519.916134,519.9830279999996,522.9138108999996,,,,521.9976874999993,522.9300366999996,522.9300366999996,522.9300366999996,,,,,,,,,,,,,,,down,5.273291500000596,None,None,,,P111,001,2025-02-14_11h01.16.778,posner_endo_new1,2024.2.4,60.04747353241528,2025-02-14 11h01.24.992645 +0000,
cube_l.png,0.1,10,catch,1,1,0,down,2.000818100000288,None,None,,,,,,,,,,,0,1,1,1,522.9300366999996,,,,,,,,,,,,,522.9139858999997,522.9300366999996,522.9300366999996,522.9300366999996,524.9452754999993,,,,524.9512712999995,524.9630231000001,524.9630231000001,525.0112101999994,525.0114527999995,525.0276672,525.0276672,525.0276672,525.0942869,528.0251351999996,,,,527.1089629999997,528.0413787999996,528.0413787999996,528.0413787999996,,,,,,,,,,,,,,,down,2.000818100000288,None,None,,,P111,001,2025-02-14_11h01.16.778,posner_endo_new1,2024.2.4,60.04747353241528,2025-02-14 11h01.24.992645 +0000,
cube_l.png,0.1,0.31,invalid,2,2,0,down,1.961837199999536,None,space,0.5260356999997384,None,,,,,,,,,0,2,2,2,528.0413787999996,,,,,,,,,,,,,528.0253114999996,528.0413787999996,528.0413787999996,528.0413787999996,530.0070133999998,,,,530.0130796999993,530.0249402999998,530.0249402999998,530.0727479999996,530.0729885000001,530.0890927999999,530.0890927999999,530.0890927999999,530.1724156999999,530.6227657,,,,,,,,,,,,,,,,,,,,,,down,1.961837199999536,None,space,0.5260356999997384,None,P111,001,2025-02-14_11h01.16.778,posner_endo_new1,2024.2.4,60.04747353241528,2025-02-14 11h01.24.992645 +0000,
cube_l.png,0.1,0.31,invalid,3,3,0,down,3.5011242999999013,None,space,0.5459865000002537,None,,,,,,,,,0,3,3,3,530.6386198,,,,,,,,,,,,,530.6229512999998,530.6386198,530.6386198,530.6386198,534.1526126999997,,,,534.1587504999998,534.1703022000002,534.1703022000002,534.2183483999997,534.2185903999998,534.2349252999993,534.2349252999993,534.2349252999993,534.31837,534.7852201999995,,,,,,,,,,,,,,,,,,,,,,down,3.5011242999999013,None,space,0.5459865000002537,None,P111,001,2025-02-14_11h01.16.778,posner_endo_new1,2024.2.4,60.04747353241528,2025-02-14 11h01.24.992645 +0000,
cube_l.png,0.1,-0.31,valid,4,4,0,down,3.5539699999999357,None,space,0.5043070000001535,None,,,,,,,,,0,4,4,4,534.8011804999996,,,,,,,,,,,,,534.7854168999993,534.8011804999996,534.8011804999996,534.8011804999996,538.3649754999997,,,,538.3709367000001,538.3827144999996,538.3827144999996,538.4306700999996,538.4309088,538.4474213999993,538.4474213999993,538.4474213999993,538.5305109000001,538.9641262999994,,,,,,,,,,,,,,,,,,,,,,down,3.5539699999999357,None,space,0.5043070000001535,None,P111,001,2025-02-14_11h01.16.778,posner_endo_new1,2024.2.4,60.04747353241528,2025-02-14 11h01.24.992645 +0000,
cube_r.png,0.1,-0.31,invalid,5,5,0,down,4.423881200000324,None,space,0.47629030000007333,None,,,,,,,,,0,5,5,5,538.9799936999998,,,,,,,,,,,,,538.9643114,538.9799936999998,538.9799936999998,538.9799936999998,543.4096202000001,,,,543.4156039999998,543.4273026000001,543.4273026000001,543.4754573,543.4756940999996,543.4921299999996,543.4921299999996,543.4921299999996,543.5586961999998,543.9759447999995,,,,,,,,,,,,,,,,,,,,,,down,4.423881200000324,None,space,0.47629030000007333,None,P111,001,2025-02-14_11h01.16.778,posner_endo_new1,2024.2.4,60.04747353241528,2025-02-14 11h01.24.992645 +0000,
cube_r.png,0.1,0.31,valid,6,6,0,down,3.7799517000003107,None,space,0.36908169999969687,None,,,,,,,,,0,6,6,6,543.9917648999999,,,,,,,,,,,,,543.9761302999996,543.9917648999999,543.9917648999999,543.9917648999999,547.7882562999994,,,,547.7942284999999,547.8057886999995,547.8057886999995,547.8545742999995,547.8548135000001,547.8710175999995,547.8710175999995,547.8710175999995,547.9375466000001,548.2546739999998,,,,,,,,,,,,,,,,,,,,,,down,3.7799517000003107,None,space,0.36908169999969687,None,P111,001,2025-02-14_11h01.16.778,posner_endo_new1,2024.2.4,60.04747353241528,2025-02-14 11h01.24.992645 +0000,
cube_r.png,0.1,-0.31,invalid,7,7,0,down,4.77338090000012,None,space,0.45875040000009903,None,,,,,,,,,0,7,7,7,548.2706651999997,,,,,,,,,,,,,548.2548626999996,548.2706651999997,548.2706651999997,548.2706651999997,553.0498813999993,,,,553.0558424999999,553.0674156999994,553.0674156999994,553.1156600999993,553.1159001999995,553.1321928999996,553.1321928999996,553.1321928999996,553.1989389,553.5992148999994,,,,,,,,,,,,,,,,,,,,,,down,4.77338090000012,None,space,0.45875040000009903,None,P111,001,2025-02-14_11h01.16.778,posner_endo_new1,2024.2.4,60.04747353241528,2025-02-14 11h01.24.992645 +0000,
cube_l.png,0.1,-0.31,valid,8,8,0,down,4.235755499999868,None,space,0.46734160000050906,None,,,,,,,,,0,8,8,8,553.6153856000001,,,,,,,,,,,,,553.5994019,553.6153856000001,553.6153856000001,553.6153856000001,557.8613517999993,,,,557.8673291999994,557.8789518999993,557.8789518999993,557.9275085999998,557.9277505999999,557.9439048999993,557.9439048999993,557.9439048999993,558.0104139999994,558.4278454999994,,,,,,,,,,,,,,,,,,,,,,down,4.235755499999868,None,space,0.46734160000050906,None,P111,001,2025-02-14_11h01.16.778,posner_endo_new1,2024.2.4,60.04747353241528,2025-02-14 11h01.24.992645 +0000,
cube_r.png,0.1,-0.31,invalid,9,9,0,down,4.727514700000029,None,space,0.6804492999999638,None,,,,,,,,,0,9,9,9,558.4435440999996,,,,,,,,,,,,,558.4280392999999,558.4435440999996,558.4435440999996,558.4435440999996,563.1731433999994,,,,563.1791065999996,563.1906920000001,563.1906920000001,563.2386164,563.2388535,563.2552424999994,563.2552424999994,563.2552424999994,563.3383291,563.9386224,,,,,,,,,,,,,,,,,,,,,,down,4.727514700000029,None,space,0.6804492999999638,None,P111,001,2025-02-14_11h01.16.778,posner_endo_new1,2024.2.4,60.04747353241528,2025-02-14 11h01.24.992645 +0000,
cube_l.png,0.1,0.31,invalid,10,10,0,down,3.809322600000087,None,space,0.8167872000003626,None,,,,,,,,,0,10,10,10,563.9544677999993,,,,,,,,,,,,,563.9388089999993,563.9544677999993,563.9544677999993,563.9544677999993,567.7683971999995,,,,567.7746057999993,567.7861741999996,567.7861741999996,567.8339784999998,567.8342192999999,567.8504925999996,567.8504925999996,567.8504925999996,567.9337816999996,568.6836452999996,,,,,,,,,,,,,,,,,,,,,,down,3.809322600000087,None,space,0.8167872000003626,None,P111,001,2025-02-14_11h01.16.778,posner_endo_new1,2024.2.4,60.04747353241528,2025-02-14 11h01.24.992645 +0000,
cube_r.png,0.1,-0.31,invalid,11,11,0,down,3.055354399999487,None,space,0.5353869000009581,None,,,,,,,,,0,11,11,11,568.6996460999999,,,,,,,,,,,,,568.6838418999996,568.6996460999999,568.6996460999999,568.6996460999999,571.7638215999996,,,,571.7698385999993,571.7813991000003,571.7813991000003,571.8299922000006,571.8302349000005,571.8463267999996,571.8463267999996,571.8463267999996,571.9131877999989,572.3970059000003,,,,,,,,,,,,,,,,,,,,,,down,3.055354399999487,None,space,0.5353869000009581,None,P111,001,2025-02-14_11h01.16.778,posner_endo_new1,2024.2.4,60.04747353241528,2025-02-14 11h01.24.992645 +0000,
cube_r.png,0.1,0.31,valid,12,12,0,down,4.934393999999884,None,space,0.4400431000012759,None,,,,,,,,,0,12,12,12,572.4125017999995,,,,,,,,,,,,,572.3971960999988,572.4125017999995,572.4125017999995,572.4125017999995,577.3585034999996,,,,577.3670024999992,577.3771619999989,577.3771619999989,577.4240852000003,577.4243279999992,577.4405432999993,577.4405432999993,577.4405432999993,577.5241810999996,577.8909667999997,,,,,,,,,,,,,,,,,,,,,,down,4.934393999999884,None,space,0.4400431000012759,None,P111,001,2025-02-14_11h01.16.778,posner_endo_new1,2024.2.4,60.04747353241528,2025-02-14 11h01.24.992645 +0000,
cube_l.png,0.1,10,catch,13,13,0,down,3.8963160999992397,None,None,,,,,,,,,,,0,13,13,13,577.9067857999999,,,,,,,,,,,,,577.8911533999999,577.9067857999999,577.9067857999999,577.9067857999999,581.8039172999997,,,,581.8099774000002,581.8215698000004,581.8215698000004,581.869686,581.8699252999995,581.8859634,581.8859634,581.8859634,581.9693363000006,584.8838624,,,,583.9839480999999,584.8995608999994,584.8995608999994,584.8995608999994,,,,,,,,,,,,,,,down,3.8963160999992397,None,None,,,P111,001,2025-02-14_11h01.16.778,posner_endo_new1,2024.2.4,60.04747353241528,2025-02-14 11h01.24.992645 +0000,
cube_r.png,0.1,-0.31,invalid,14,14,0,down,1.9032308999994711,None,space,0.592311399999744,None,,,,,,,,,0,14,14,14,584.8995608999994,,,,,,,,,,,,,584.8840411000001,584.8995608999994,584.8995608999994,584.8995608999994,586.8150485000006,,,,586.8209845999991,586.8325055000005,586.8325055000005,586.8810429999994,586.8812801999993,586.897655499999,586.897655499999,586.897655499999,586.9642485999993,587.4977577999998,,,,,,,,,,,,,,,,,,,,,,down,1.9032308999994711,None,space,0.592311399999744,None,P111,001,2025-02-14_11h01.16.778,posner_endo_new1,2024.2.4,60.04747353241528,2025-02-14 11h01.24.992645 +0000,
cube_l.png,0.1,-0.31,valid,15,15,0,down,5.001104900000428,None,space,0.4785772999985056,None,,,,,,,,,0,15,15,15,587.5136117000002,,,,,,,,,,,,,587.4979518,587.5136117000002,587.5136117000002,587.5136117000002,592.5265404999991,,,,592.5377766000001,592.5483024999994,592.5483024999994,592.5918576000004,592.5921208999989,592.6083385999991,592.6083385999991,592.6083385999991,592.6916118999998,593.0919758999989,,,,,,,,,,,,,,,,,,,,,,down,5.001104900000428,None,space,0.4785772999985056,None,P111,001,2025-02-14_11h01.16.778,posner_endo_new1,2024.2.4,60.04747353241528,2025-02-14 11h01.24.992645 +0000,
cube_r.png,0.1,10,catch,16,16,0,down,3.9838578999988385,None,None,,,,,,,,,,,0,16,16,16,593.1077910999993,,,,,,,,,,,,,593.0921849000006,593.1077910999993,593.1077910999993,593.1077910999993,597.1047166999997,,,,597.1119940999997,597.1235684999992,597.1235684999992,597.1707031000005,597.1709654999995,597.1870237999992,597.1870237999992,597.1870237999992,597.2702675,600.1847282999988,,,,599.2849877999997,600.2006440999994,600.2006440999994,600.2006440999994,,,,,,,,,,,,,,,down,3.9838578999988385,None,None,,,P111,001,2025-02-14_11h01.16.778,posner_endo_new1,2024.2.4,60.04747353241528,2025-02-14 11h01.24.992645 +0000,
cube_r.png,0.1,10,catch,17,17,0,down,1.9794621000000916,None,None,,,,,,,,,,,0,17,17,17,600.2006440999994,,,,,,,,,,,,,600.1849222000001,600.2006440999994,600.2006440999994,600.2006440999994,602.182921399999,,,,602.1901436999997,602.2015431999989,602.2015431999989,602.2485706999996,602.2488338999992,602.2650013999992,602.2650013999992,602.2650013999992,602.3483304000001,605.2626839999994,,,,604.3630995000003,605.2787031999997,605.2787031999997,605.2787031999997,,,,,,,,,,,,,,,down,1.9794621000000916,None,None,,,P111,001,2025-02-14_11h01.16.778,posner_endo_new1,2024.2.4,60.04747353241528,2025-02-14 11h01.24.992645 +0000,
cube_l.png,0.1,0.31,invalid,18,18,0,down,1.669013900000209,None,space,0.5245224999998754,None,,,,,,,,,0,18,18,18,605.2787031999997,,,,,,,,,,,,,605.2628800000002,605.2787031999997,605.2787031999997,605.2787031999997,606.9612830999995,,,,606.9685967999994,606.9801468000005,606.9801468000005,607.027077499999,607.0273438999993,607.0436386000001,607.0436386000001,607.0436386000001,607.1100829999996,607.5775152000006,,,,,,,,,,,,,,,,,,,,,,down,1.669013900000209,None,space,0.5245224999998754,None,P111,001,2025-02-14_11h01.16.778,posner_endo_new1,2024.2.4,60.04747353241528,2025-02-14 11h01.24.992645 +0000,
cube_l.png,0.1,10,catch,19,19,0,down,3.8264220000000932,None,None,,,,,,,,,,,0,19,19,19,607.5931474999998,,,,,,,,,,,,,607.5777216999995,607.5931474999998,607.5931474999998,607.5931474999998,611.4233337000005,,,,611.4305303000001,611.4422993999997,611.4422993999997,611.4892963999991,611.4895584000005,611.5058441000001,611.5058441000001,611.5058441000001,611.589045499999,614.5032341000006,,,,613.6036268999997,614.5191408999999,614.5191408999999,614.5191408999999,,,,,,,,,,,,,,,down,3.8264220000000932,None,None,,,P111,001,2025-02-14_11h01.16.778,posner_endo_new1,2024.2.4,60.04747353241528,2025-02-14 11h01.24.992645 +0000,
cube_l.png,0.1,0.31,invalid,20,20,0,down,1.428441499998371,None,space,0.5126546999999846,None,,,,,,,,,0,20,20,20,614.5191408999999,,,,,,,,,,,,,614.5034295999994,614.5191408999999,614.5191408999999,614.5191408999999,615.9521559999994,,,,615.9594830999995,615.9709241,615.9709241,616.0178252999995,616.0180887999995,616.0343874999999,616.0343874999999,616.0343874999999,616.1175368000004,616.5514170000006,,,,,,,,,,,,,,,,,,,,,,down,1.428441499998371,None,space,0.5126546999999846,None,P111,001,2025-02-14_11h01.16.778,posner_endo_new1,2024.2.4,60.04747353241528,2025-02-14 11h01.24.992645 +0000,
cube_l.png,0.1,-0.31,valid,21,21,0,down,4.076673100000335,None,space,0.5585718000002089,None,,,,,,,,,0,21,21,21,616.567314599999,,,,,,,,,,,,,616.5516286999991,616.567314599999,616.567314599999,616.567314599999,620.647394399999,,,,620.6546280000002,620.6660711000004,620.6660711000004,620.7129931,620.7132583999992,620.7296397999999,620.7296397999999,620.7296397999999,620.8129946999998,621.2968168999996,,,,,,,,,,,,,,,,,,,,,,down,4.076673100000335,None,space,0.5585718000002089,None,P111,001,2025-02-14_11h01.16.778,posner_endo_new1,2024.2.4,60.04747353241528,2025-02-14 11h01.24.992645 +0000,
cube_r.png,0.1,0.31,valid,22,22,0,down,3.6264288000002125,None,space,0.4507485000012821,None,,,,,,,,,0,22,22,22,621.3123046000001,,,,,,,,,,,,,621.2970279000001,621.3123046000001,621.3123046000001,621.3123046000001,624.9430365999997,,,,624.9502689000001,624.9618694000001,624.9618694000001,625.0086697999996,625.008931299999,625.0249526999996,625.0249526999996,625.0249526999996,625.1085072999995,625.4924054000003,,,,,,,,,,,,,,,,,,,,,,down,3.6264288000002125,None,space,0.4507485000012821,None,P111,001,2025-02-14_11h01.16.778,posner_endo_new1,2024.2.4,60.04747353241528,2025-02-14 11h01.24.992645 +0000,
cube_r.png,0.1,-0.31,invalid,23,23,0,down,3.3831769000007625,None,space,0.6186870000001363,None,,,,,,,,,0,23,23,23,625.5080197999996,,,,,,,,,,,,,625.4926178999995,625.5080197999996,625.5080197999996,625.5080197999996,628.9055993999991,,,,628.9128586999996,628.9241698999995,628.9241698999995,628.9713171999992,628.9715902999997,628.9878697000004,628.9878697000004,628.9878697000004,629.0710416000002,629.6211831,,,,,,,,,,,,,,,,,,,,,,down,3.3831769000007625,None,space,0.6186870000001363,None,P111,001,2025-02-14_11h01.16.778,posner_endo_new1,2024.2.4,60.04747353241528,2025-02-14 11h01.24.992645 +0000,
cube_r.png,0.1,0.31,valid,24,24,0,down,2.83849470000132,None,space,0.6409426000009262,None,,,,,,,,,0,24,24,24,629.6371531999994,,,,,,,,,,,,,629.6214022999993,629.6371531999994,629.6371531999994,629.6371531999994,632.4850224000002,,,,632.4922463000003,632.5040953999996,632.5040953999996,632.5511258999995,632.551388599999,632.567546799999,632.567546799999,632.567546799999,632.650834,633.2173745,,,,,,,,,,,,,,,,,,,,,,down,2.83849470000132,None,space,0.6409426000009262,None,P111,001,2025-02-14_11h01.16.778,posner_endo_new1,2024.2.4,60.04747353241528,2025-02-14 11h01.24.992645 +0000,
cube_r.png,0.1,-0.31,invalid,25,25,0,down,3.834141399998771,None,space,0.8568232999987231,None,,,,,,,,,0,25,25,25,633.233519899999,,,,,,,,,,,,,633.217589599999,633.233519899999,633.233519899999,633.233519899999,637.0803940000005,,,,637.0875882,637.0988438999993,637.0988438999993,637.1459983999994,637.1464510000005,637.1624546999992,637.1624546999992,637.1624546999992,637.2456846999994,638.0297412,,,,,,,,,,,,,,,,,,,,,,down,3.834141399998771,None,space,0.8568232999987231,None,P111,001,2025-02-14_11h01.16.778,posner_endo_new1,2024.2.4,60.04747353241528,2025-02-14 11h01.24.992645 +0000,
cube_l.png,0.1,-0.31,valid,26,26,0,down,4.262286699999095,None,space,0.8162594999994326,None,,,,,,,,,0,26,26,26,638.0453247000005,,,,,,,,,,,,,638.0299897000004,638.0453247000005,638.0453247000005,638.0453247000005,642.3086514999995,,,,642.3171982999993,642.3273033999994,642.3273033999994,642.3743166999993,642.374556499999,642.3909309999999,642.3909309999999,642.3909309999999,642.4743937000003,643.2080004999989,,,,,,,,,,,,,,,,,,,,,,down,4.262286699999095,None,space,0.8162594999994326,None,P111,001,2025-02-14_11h01.16.778,posner_endo_new1,2024.2.4,60.04747353241528,2025-02-14 11h01.24.992645 +0000,
cube_r.png,0.1,0.31,valid,27,27,0,down,4.012577800000145,None,space,0.5400647999995272,None,,,,,,,,,0,27,27,27,643.2230808000004,,,,,,,,,,,,,643.2081913000002,643.2230808000004,643.2230808000004,643.2230808000004,647.2369266000005,,,,647.2429458000006,647.2546218999996,647.2546218999996,647.3025804999997,647.3028202999994,647.3192017000001,647.3192017000001,647.3192017000001,647.4025153999992,647.8695374999988,,,,,,,,,,,,,,,,,,,,,,down,4.012577800000145,None,space,0.5400647999995272,None,P111,001,2025-02-14_11h01.16.778,posner_endo_new1,2024.2.4,60.04747353241528,2025-02-14 11h01.24.992645 +0000,
cube_r.png,0.1,10,catch,28,28,0,down,4.021318099999917,None,None,,,,,,,,,,,0,28,28,28,647.8853700999989,,,,,,,,,,,,,647.8697295999991,647.8853700999989,647.8853700999989,647.8853700999989,651.9152407999991,,,,651.9211689999993,651.932897499999,651.932897499999,651.9810705999989,651.9813111000003,651.9976325999996,651.9976325999996,651.9976325999996,652.0643868999996,654.9949937999991,,,,654.0787715000006,655.0113401999988,655.0113401999988,655.0113401999988,,,,,,,,,,,,,,,down,4.021318099999917,None,None,,,P111,001,2025-02-14_11h01.16.778,posner_endo_new1,2024.2.4,60.04747353241528,2025-02-14 11h01.24.992645 +0000,
cube_r.png,0.1,0.31,valid,29,29,0,down,1.2639653999995062,None,space,0.7244884000010643,None,,,,,,,,,0,29,29,29,655.0113401999988,,,,,,,,,,,,,654.9951681999992,655.0113401999988,655.0113401999988,655.0113401999988,656.2775346999988,,,,656.2837436999998,656.2954807999995,656.2954807999995,656.343332299999,656.3435798999999,656.3598837999998,656.3598837999998,656.3598837999998,656.4431691999998,657.0933485000005,,,,,,,,,,,,,,,,,,,,,,down,1.2639653999995062,None,space,0.7244884000010643,None,P111,001,2025-02-14_11h01.16.778,posner_endo_new1,2024.2.4,60.04747353241528,2025-02-14 11h01.24.992645 +0000,
cube_r.png,0.1,0.31,valid,30,30,0,down,3.958589199999551,None,space,0.6062206999995396,None,,,,,,,,,0,30,30,30,657.1090879000003,,,,,,,,,,,,,657.0935339999996,657.1090879000003,657.1090879000003,657.1090879000003,661.0722065999998,,,,661.0782120000003,661.0897298999989,661.0897298999989,661.1383151999999,661.1385525999995,661.1549290000003,661.1549290000003,661.1549290000003,661.2215115999988,661.7718645999994,,,,,,,,,,,,,,,,,,,,,,down,3.958589199999551,None,space,0.6062206999995396,None,P111,001,2025-02-14_11h01.16.778,posner_endo_new1,2024.2.4,60.04747353241528,2025-02-14 11h01.24.992645 +0000,
cube_l.png,0.1,-0.31,valid,31,31,0,down,4.847041999999419,None,space,0.42662469999959285,None,,,,,,,,,0,31,31,31,661.7876983000006,,,,,,,,,,,,,661.7720479999989,661.7876983000006,661.7876983000006,661.7876983000006,666.6504958000005,,,,666.6642671999998,666.6747866999995,666.6747866999995,666.7159278999989,666.7162327999995,666.7326553000003,666.7326553000003,666.7326553000003,666.8157398000003,667.1663938999991,,,,,,,,,,,,,,,,,,,,,,down,4.847041999999419,None,space,0.42662469999959285,None,P111,001,2025-02-14_11h01.16.778,posner_endo_new1,2024.2.4,60.04747353241528,2025-02-14 11h01.24.992645 +0000,
cube_r.png,0.1,0.31,valid,32,32,0,down,3.7245904999999766,None,space,0.4869701999996323,None,,,,,,,,,0,32,32,32,667.1820936999993,,,,,,,,,,,,,667.1666463999991,667.1820936999993,667.1820936999993,667.1820936999993,670.9126223000003,,,,670.9220004999988,670.9326048999992,670.9326048999992,670.9782851,670.9786082999999,670.994815099999,670.994815099999,670.994815099999,671.0782608999998,671.4954727999993,,,,,,,,,,,,,,,,,,,,,,down,3.7245904999999766,None,space,0.4869701999996323,None,P111,001,2025-02-14_11h01.16.778,posner_endo_new1,2024.2.4,60.04747353241528,2025-02-14 11h01.24.992645 +0000,
cube_r.png,0.1,-0.31,invalid,33,33,0,down,3.556693099999393,None,space,0.7608218999994278,None,,,,,,,,,0,33,33,33,671.5108918999995,,,,,,,,,,,,,671.4957408999999,671.5108918999995,671.5108918999995,671.5108918999995,675.0748848000003,,,,675.0843084999997,675.094903199999,675.094903199999,675.1406571999996,675.1409781000002,675.1573210000006,675.1573210000006,675.1573210000006,675.2407294999994,675.9244264999998,,,,,,,,,,,,,,,,,,,,,,down,3.556693099999393,None,space,0.7608218999994278,None,P111,001,2025-02-14_11h01.16.778,posner_endo_new1,2024.2.4,60.04747353241528,2025-02-14 11h01.24.992645 +0000,
cube_r.png,0.1,10,catch,34,34,0,down,4.062834899999871,None,None,,,,,,,,,,,0,34,34,34,675.9397628999996,,,,,,,,,,,,,675.9247035999997,675.9397628999996,675.9397628999996,675.9397628999996,680.003701399999,,,,680.0131316999996,680.0234724000002,680.0234724000002,680.0688869999994,680.0692103000001,680.0854617999994,680.0854617999994,680.0854617999994,680.1687681999992,683.0829496000006,,,,682.1834648000004,683.0992041999998,683.0992041999998,683.0992041999998,,,,,,,,,,,,,,,down,4.062834899999871,None,None,,,P111,001,2025-02-14_11h01.16.778,posner_endo_new1,2024.2.4,60.04747353241528,2025-02-14 11h01.24.992645 +0000,
cube_r.png,0.1,0.31,valid,35,35,0,down,1.7997259000003396,None,space,0.5272832999999082,None,,,,,,,,,0,35,35,35,683.0992041999998,,,,,,,,,,,,,683.0831956999991,683.0992041999998,683.0992041999998,683.0992041999998,684.9149345000005,,,,684.9243045000003,684.9345828999994,684.9345828999994,684.9809043000005,684.9812206999995,684.9972615000006,684.9972615000006,684.9972615000006,685.0804747000002,685.5311951999993,,,,,,,,,,,,,,,,,,,,,,down,1.7997259000003396,None,space,0.5272832999999082,None,P111,001,2025-02-14_11h01.16.778,posner_endo_new1,2024.2.4,60.04747353241528,2025-02-14 11h01.24.992645 +0000,
cube_r.png,0.1,-0.31,invalid,36,36,0,down,3.7769750999996177,None,space,0.5382896999999502,None,,,,,,,,,0,36,36,36,685.5464395999988,,,,,,,,,,,,,685.5314643000002,685.5464395999988,685.5464395999988,685.5464395999988,689.3270761999993,,,,689.3365094000001,689.346819299999,689.346819299999,689.3931309,689.3934620999989,689.4091009999993,689.4091009999993,689.4091009999993,689.4926515999996,689.9599954999994,,,,,,,,,,,,,,,,,,,,,,down,3.7769750999996177,None,space,0.5382896999999502,None,P111,001,2025-02-14_11h01.16.778,posner_endo_new1,2024.2.4,60.04747353241528,2025-02-14 11h01.24.992645 +0000,
cube_l.png,0.1,0.31,invalid,37,37,0,down,3.963474000000133,None,space,0.5232758999991347,None,,,,,,,,,0,37,37,37,689.9754582000005,,,,,,,,,,,,,689.9602593999989,689.9754582000005,689.9754582000005,689.9754582000005,693.9556902999993,,,,693.9651346999999,693.9753815000004,693.9753815000004,694.0213344999993,694.0216560999997,694.0377810999998,694.0377810999998,694.0377810999998,694.121162899999,694.5716881999997,,,,,,,,,,,,,,,,,,,,,,down,3.963474000000133,None,space,0.5232758999991347,None,P111,001,2025-02-14_11h01.16.778,posner_endo_new1,2024.2.4,60.04747353241528,2025-02-14 11h01.24.992645 +0000,
cube_l.png,0.1,0.31,invalid,38,38,0,down,4.359465700001238,None,space,0.48866890000135754,None,,,,,,,,,0,38,38,38,694.5872349000001,,,,,,,,,,,,,694.5719606000002,694.5872349000001,694.5872349000001,694.5872349000001,698.9506798999992,,,,698.9590076000004,698.9690603999989,698.9690603999989,699.0163291999997,699.0165823999996,699.0328152000002,699.0328152000002,699.0328152000002,699.1162375999993,699.5330292999988,,,,,,,,,,,,,,,,,,,,,,down,4.359465700001238,None,space,0.48866890000135754,None,P111,001,2025-02-14_11h01.16.778,posner_endo_new1,2024.2.4,60.04747353241528,2025-02-14 11h01.24.992645 +0000,
cube_r.png,0.1,0.31,valid,39,39,0,down,3.8456784000009065,None,space,0.4045514000008552,None,,,,,,,,,0,39,39,39,699.5490571999999,,,,,,,,,,,,,699.5332228999996,699.5490571999999,699.5490571999999,699.5490571999999,703.3964572999994,,,,703.4027509999996,703.4144761999996,703.4144761999996,703.461675999999,703.4619122000004,703.4784079000001,703.4784079000001,703.4784079000001,703.5618107999999,703.8955317,,,,,,,,,,,,,,,,,,,,,,down,3.8456784000009065,None,space,0.4045514000008552,None,P111,001,2025-02-14_11h01.16.778,posner_endo_new1,2024.2.4,60.04747353241528,2025-02-14 11h01.24.992645 +0000,
cube_l.png,0.1,0.31,invalid,40,40,0,down,4.308405600000697,None,space,0.4131827000001067,None,,,,,,,,,0,40,40,40,703.9111171000004,,,,,,,,,,,,,703.8957186999996,703.9111171000004,703.9111171000004,703.9111171000004,708.224202899999,,,,708.2305173000004,708.2421147999994,708.2421147999994,708.2900525000005,708.2902897999993,708.3068132999997,708.3068132999997,708.3068132999997,708.3733157999995,708.7237253999992,,,,,,,,,,,,,,,,,,,,,,down,4.308405600000697,None,space,0.4131827000001067,None,P111,001,2025-02-14_11h01.16.778,posner_endo_new1,2024.2.4,60.04747353241528,2025-02-14 11h01.24.992645 +0000,
cube_l.png,0.1,10,catch,41,41,0,down,3.607996300001105,None,None,,,,,,,,,,,0,41,41,41,708.7395431999994,,,,,,,,,,,,,708.7239224000004,708.7395431999994,708.7395431999994,708.7395431999994,712.353320799999,,,,712.3595941000003,712.3713241999994,712.3713241999994,712.4192836999991,712.4195295999998,712.4357756999998,712.4357756999998,712.4357756999998,712.5021856000003,715.4332426000001,,,,714.5170371000004,715.4495508999989,715.4495508999989,715.4495508999989,,,,,,,,,,,,,,,down,3.607996300001105,None,None,,,P111,001,2025-02-14_11h01.16.778,posner_endo_new1,2024.2.4,60.04747353241528,2025-02-14 11h01.24.992645 +0000,
cube_l.png,0.1,-0.31,valid,42,42,0,down,2.538014200001271,None,space,0.40405939999982365,None,,,,,,,,,0,42,42,42,715.4495508999989,,,,,,,,,,,,,715.4334132999993,715.4495508999989,715.4495508999989,715.4495508999989,717.9975644999995,,,,718.0038683999992,718.0154512999998,718.0154512999998,718.0633901000001,718.0636274999997,718.0799394000005,718.0799394000005,718.0799394000005,718.1634121999996,718.4970642999997,,,,,,,,,,,,,,,,,,,,,,down,2.538014200001271,None,space,0.40405939999982365,None,P111,001,2025-02-14_11h01.16.778,posner_endo_new1,2024.2.4,60.04747353241528,2025-02-14 11h01.24.992645 +0000,
cube_l.png,0.1,10,catch,43,43,0,down,4.202751499999067,None,None,,,,,,,,,,,0,43,43,43,718.5128119000001,,,,,,,,,,,,,718.4972552999989,718.5128119000001,718.5128119000001,718.5128119000001,722.7259090999996,,,,722.7322071999988,722.744018899999,722.744018899999,722.7919733999988,722.7922084000002,722.8083717999998,722.8083717999998,722.8083717999998,722.8749504999996,725.8056410999998,,,,724.8898454999999,725.8217815999997,725.8217815999997,725.8217815999997,,,,,,,,,,,,,,,down,4.202751499999067,None,None,,,P111,001,2025-02-14_11h01.16.778,posner_endo_new1,2024.2.4,60.04747353241528,2025-02-14 11h01.24.992645 +0000,
cube_l.png,0.1,0.31,invalid,44,44,0,down,1.4371503000002122,None,space,0.4554788000004919,None,,,,,,,,,0,44,44,44,725.8217815999997,,,,,,,,,,,,,725.8058201000003,725.8217815999997,725.8217815999997,725.8217815999997,727.2711646999996,,,,727.2775327999989,727.289127099999,727.289127099999,727.3373456999998,727.3375885000005,727.3536641999999,727.3536641999999,727.3536641999999,727.4204467999989,727.8208032000002,,,,,,,,,,,,,,,,,,,,,,down,1.4371503000002122,None,space,0.4554788000004919,None,P111,001,2025-02-14_11h01.16.778,posner_endo_new1,2024.2.4,60.04747353241528,2025-02-14 11h01.24.992645 +0000,
cube_l.png,0.1,0.31,invalid,45,45,0,down,4.686870199999248,None,space,0.4767566999998962,None,,,,,,,,,0,45,45,45,727.8366458,,,,,,,,,,,,,727.820987699999,727.8366458,727.8366458,727.8366458,732.5327180999993,,,,732.5390033000003,732.5506676000005,732.5506676000005,732.5984384999992,732.5986728999997,732.6151016000003,732.6151016000003,732.6151016000003,732.6816202999998,733.0987289000004,,,,,,,,,,,,,,,,,,,,,,down,4.686870199999248,None,space,0.4767566999998962,None,P111,001,2025-02-14_11h01.16.778,posner_endo_new1,2024.2.4,60.04747353241528,2025-02-14 11h01.24.992645 +0000,
cube_r.png,0.1,0.31,valid,46,46,0,down,4.296665699999721,None,space,0.6885012000002462,None,,,,,,,,,0,46,46,46,733.1146886000006,,,,,,,,,,,,,733.0989183000002,733.1146886000006,733.1146886000006,733.1146886000006,737.4275486000006,,,,737.4335534999991,737.4451276999989,737.4451276999989,737.493437699999,737.4936810999989,737.5102117999995,737.5102117999995,737.5102117999995,737.5766590999992,738.2101855000001,,,,,,,,,,,,,,,,,,,,,,down,4.296665699999721,None,space,0.6885012000002462,None,P111,001,2025-02-14_11h01.16.778,posner_endo_new1,2024.2.4,60.04747353241528,2025-02-14 11h01.24.992645 +0000,
cube_l.png,0.1,-0.31,valid,47,47,0,down,5.401278400000592,None,space,0.7171662999990076,None,,,,,,,,,0,47,47,47,738.2260738999994,,,,,,,,,,,,,738.2103802000001,738.2260738999994,738.2260738999994,738.2260738999994,743.6381373000004,,,,743.6441080000004,743.6556189000003,743.6556189000003,743.7040266000004,743.7042645000001,743.7204165000003,743.7204165000003,743.7204165000003,743.8035841000001,744.4537774,,,,,,,,,,,,,,,,,,,,,,down,5.401278400000592,None,space,0.7171662999990076,None,P111,001,2025-02-14_11h01.16.778,posner_endo_new1,2024.2.4,60.04747353241528,2025-02-14 11h01.24.992645 +0000,
cube_r.png,0.1,-0.31,invalid,48,48,0,down,4.581897899999603,None,space,0.7752756000008958,None,,,,,,,,,0,48,48,48,744.469729299999,,,,,,,,,,,,,744.4539822000006,744.469729299999,744.469729299999,744.469729299999,749.0658328999998,,,,749.0718120999991,749.0834364999992,749.0834364999992,749.1316432000003,749.1318828000003,749.1480513999995,749.1480513999995,749.1480513999995,749.2313964000004,749.9313736000004,,,,,,,,,,,,,,,,,,,,,,down,4.581897899999603,None,space,0.7752756000008958,None,P111,001,2025-02-14_11h01.16.778,posner_endo_new1,2024.2.4,60.04747353241528,2025-02-14 11h01.24.992645 +0000,
cube_r.png,0.1,10,catch,49,49,0,down,4.047795499998756,None,None,,,,,,,,,,,0,49,49,49,749.9474860999999,,,,,,,,,,,,,749.9315616000004,749.9474860999999,749.9474860999999,749.9474860999999,754.0107288999989,,,,754.0166162999994,754.028280999999,754.028280999999,754.0765986999995,754.0768365000004,754.093116099999,754.093116099999,754.093116099999,754.1762975999991,757.0905741000006,,,,756.1911163000004,757.1065196999989,757.1065196999989,757.1065196999989,,,,,,,,,,,,,,,down,4.047795499998756,None,None,,,P111,001,2025-02-14_11h01.16.778,posner_endo_new1,2024.2.4,60.04747353241528,2025-02-14 11h01.24.992645 +0000,
cube_l.png,0.1,-0.31,valid,50,50,0,down,2.705007900000055,None,space,0.4242322999998578,None,,,,,,,,,0,50,50,50,757.1065196999989,,,,,,,,,,,,,757.0907545999999,757.1065196999989,757.1065196999989,757.1065196999989,759.8213947000004,,,,759.8273998000004,759.8392232999995,759.8392232999995,759.8874718999996,759.8877178999992,759.9036827,759.9036827,759.9036827,759.9871721,760.3374120999997,,,,,,,,,,,,,,,,,,,,,,down,2.705007900000055,None,space,0.4242322999998578,None,P111,001,2025-02-14_11h01.16.778,posner_endo_new1,2024.2.4,60.04747353241528,2025-02-14 11h01.24.992645 +0000,
cube_l.png,0.1,-0.31,valid,51,51,0,down,7.545703100000537,None,space,0.4305003999998007,None,,,,,,,,,0,51,51,51,760.3533398,,,,,,,,,,,,,760.3376066000001,760.3533398,760.3533398,760.3533398,767.9131214999998,,,,767.9192258000003,767.9309508000006,767.9309508000006,767.9788705999999,767.9791101999999,767.9954865999989,767.9954865999989,767.9954865999989,768.078982699999,768.4292509999996,,,,,,,,,,,,,,,,,,,,,,down,7.545703100000537,None,space,0.4305003999998007,None,P111,001,2025-02-14_11h01.16.778,posner_endo_new1,2024.2.4,60.04747353241528,2025-02-14 11h01.24.992645 +0000,
cube_r.png,0.1,-0.31,invalid,52,52,0,down,3.8536762000003364,None,space,0.46203150000110327,None,,,,,,,,,0,52,52,52,768.4452113999996,,,,,,,,,,,,,768.4294442999999,768.4452113999996,768.4452113999996,768.4452113999996,772.3085570999992,,,,772.3145002000001,772.3261992999996,772.3261992999996,772.3741988000002,772.3746486,772.3906554000005,772.3906554000005,772.3906554000005,772.4739212000004,772.8585831,,,,,,,,,,,,,,,,,,,,,,down,3.8536762000003364,None,space,0.46203150000110327,None,P111,001,2025-02-14_11h01.16.778,posner_endo_new1,2024.2.4,60.04747353241528,2025-02-14 11h01.24.992645 +0000,
cube_l.png,0.1,-0.31,valid,53,53,0,down,3.5940220000011323,None,space,0.6528746000003594,None,,,,,,,,,0,53,53,53,772.8734930999999,,,,,,,,,,,,,772.8589811000002,772.8734930999999,772.8734930999999,772.8734930999999,776.4711752999992,,,,776.4788993999991,776.4898001999991,776.4898001999991,776.5368266000005,776.5370674000005,776.5535117999989,776.5535117999989,776.5535117999989,776.636782399999,777.2201172999994,,,,,,,,,,,,,,,,,,,,,,down,3.5940220000011323,None,space,0.6528746000003594,None,P111,001,2025-02-14_11h01.16.778,posner_endo_new1,2024.2.4,60.04747353241528,2025-02-14 11h01.24.992645 +0000,
cube_r.png,0.1,10,catch,54,54,0,down,4.367196799999874,None,None,,,,,,,,,,,0,54,54,54,777.2360671000006,,,,,,,,,,,,,777.2203116000001,777.2360671000006,777.2360671000006,777.2360671000006,781.6156966999988,,,,781.6216227000004,781.6333013999993,781.6333013999993,781.6815205999992,781.6817590999999,781.6983184000001,781.6983184000001,781.6983184000001,781.7649036000003,784.6955373000001,,,,783.779255899999,784.7117273999993,784.7117273999993,784.7117273999993,,,,,,,,,,,,,,,down,4.367196799999874,None,None,,,P111,001,2025-02-14_11h01.16.778,posner_endo_new1,2024.2.4,60.04747353241528,2025-02-14 11h01.24.992645 +0000,
cube_l.png,0.1,0.31,invalid,55,55,0,down,1.4996329000005062,None,space,0.5422390999992786,None,,,,,,,,,0,55,55,55,784.7117273999993,,,,,,,,,,,,,784.6957108000006,784.7117273999993,784.7117273999993,784.7117273999993,786.2273000999994,,,,786.2332972000004,786.2449615999994,786.2449615999994,786.293650399999,786.2938983000004,786.310093099999,786.310093099999,786.310093099999,786.3764546999992,786.8604436000005,,,,,,,,,,,,,,,,,,,,,,down,1.4996329000005062,None,space,0.5422390999992786,None,P111,001,2025-02-14_11h01.16.778,posner_endo_new1,2024.2.4,60.04747353241528,2025-02-14 11h01.24.992645 +0000,
cube_l.png,0.1,-0.31,valid,56,56,0,down,7.239321700000801,None,space,0.3902680999999575,None,,,,,,,,,0,56,56,56,786.8761642999998,,,,,,,,,,,,,786.8606261000004,786.8761642999998,786.8761642999998,786.8761642999998,794.1195382000005,,,,794.1254411999998,794.1370312999989,794.1370312999989,794.1853044999989,794.1855445000001,794.2021513999989,794.2021513999989,794.2021513999989,794.2852860999992,794.602480399999,,,,,,,,,,,,,,,,,,,,,,down,7.239321700000801,None,space,0.3902680999999575,None,P111,001,2025-02-14_11h01.16.778,posner_endo_new1,2024.2.4,60.04747353241528,2025-02-14 11h01.24.992645 +0000,
cube_r.png,0.1,0.31,valid,57,57,0,down,4.280933700001697,None,space,0.6908853000004456,None,,,,,,,,,0,57,57,57,794.6182979000005,,,,,,,,,,,,,794.6026631999994,794.6182979000005,794.6182979000005,794.6182979000005,798.9145637999991,,,,798.9205132999996,798.9322183999993,798.9322183999993,798.9807115000003,798.9809583000006,798.9970887999989,798.9970887999989,798.9970887999989,799.0802924,799.6971589000004,,,,,,,,,,,,,,,,,,,,,,down,4.280933700001697,None,space,0.6908853000004456,None,P111,001,2025-02-14_11h01.16.778,posner_endo_new1,2024.2.4,60.04747353241528,2025-02-14 11h01.24.992645 +0000,
cube_r.png,0.1,-0.31,invalid,58,58,0,down,3.8738462000001164,None,space,0.6818844999997964,None,,,,,,,,,0,58,58,58,799.7130391999999,,,,,,,,,,,,,799.6973388000006,799.7130391999999,799.7130391999999,799.7130391999999,803.5931371999995,,,,803.5991728999998,803.6107204999989,803.6107204999989,803.6593792000003,803.6596231999993,803.6756067000006,803.6756067000006,803.6756067000006,803.7422618,804.3591705999988,,,,,,,,,,,,,,,,,,,,,,down,3.8738462000001164,None,space,0.6818844999997964,None,P111,001,2025-02-14_11h01.16.778,posner_endo_new1,2024.2.4,60.04747353241528,2025-02-14 11h01.24.992645 +0000,
cube_l.png,0.1,0.31,invalid,59,59,0,down,3.9478956000002654,None,space,0.5975306000000273,None,,,,,,,,,0,59,59,59,804.3750151999993,,,,,,,,,,,,,804.3593591999997,804.3750151999993,804.3750151999993,804.3750151999993,808.3382089000006,,,,808.3441623999988,808.3559530999992,808.3559530999992,808.4040819999991,808.4043186999988,808.4208684000005,808.4208684000005,808.4208684000005,808.5037924999997,809.0210748999998,,,,,,,,,,,,,,,,,,,,,,down,3.9478956000002654,None,space,0.5975306000000273,None,P111,001,2025-02-14_11h01.16.778,posner_endo_new1,2024.2.4,60.04747353241528,2025-02-14 11h01.24.992645 +0000,
