cue_img,cue_soa,target_x,trial,thisN,thisTrialN,thisRepN,key_control2.keys,key_control2.rt,key_control2.duration,key_resp.keys,key_resp.rt,key_resp.duration,practice.thisRepN,practice.thisTrialN,practice.thisN,practice.thisIndex,block1.thisRepN,block1.thisTrialN,block1.thisN,block1.thisIndex,block2.thisRepN,block2.thisTrialN,block2.thisN,block2.thisIndex,thisRow.t,notes,instructions.started,instructions_txt.started,key_control.started,instructions.stopped,key_control.keys,key_control.rt,key_control.duration,ready.started,ready_txt.started,ready_txt.stopped,ready.stopped,fix.started,fixation.started,key_control2.started,fixation_cross.started,fix.stopped,practice.key_control2.keys,practice.key_control2.rt,practice.key_control2.duration,cue.started,cube.started,fixation_cross_cue.started,cue.stopped,target.started,fixation_target.started,fixation_cross_target.started,key_resp.started,star.started,target.stopped,practice.key_resp.keys,practice.key_resp.rt,practice.key_resp.duration,star.stopped,fixation_target.stopped,fixation_cross_target.stopped,key_resp.stopped,block1.key_control2.keys,block1.key_control2.rt,block1.key_control2.duration,block1.key_resp.keys,block1.key_resp.rt,block1.key_resp.duration,break_2.started,text.started,key_control3.started,text.stopped,break_2.stopped,key_control3.keys,key_control3.rt,key_control3.duration,block2.key_control2.keys,block2.key_control2.rt,block2.key_control2.duration,block2.key_resp.keys,block2.key_resp.rt,block2.key_resp.duration,participant,session,date,expName,psychopyVersion,frameRate,expStart,
,,,,,,,,,,,,,,,,,,,,,,,,,,,0.007583599999634316,0.030389900000955095,0.030389900000955095,15.43722920000073,up,15.402110199998788,None,,,,,,,,,,,,,,,,,,,,,,,,,,,,,,,,,,,,,,,,,,,,,,,,,,p112,001,2025-02-14_11h42.28.081,posner_endo_new1,2024.2.4,60.127771514631334,2025-02-14 11h42.39.457424 +0000,
,,,,,,,,,,,,,,,,,,,,,,,,,,,,,,,,,,15.437275899999804,15.45059080000101,18.45095500000025,18.431473800001186,,,,,,,,,,,,,,,,,,,,,,,,,,,,,,,,,,,,,,,,,,,,,,p112,001,2025-02-14_11h42.28.081,posner_endo_new1,2024.2.4,60.127771514631334,2025-02-14 11h42.39.457424 +0000,
cube_l.png,0.1,-0.31,valid,0,0,0,down,26.134163900000203,None,space,0.5778346999995847,None,0,0,0,0,,,,,,,,,18.45095500000025,,,,,,,,,,,,,18.438821600000665,18.45095500000025,18.45095500000025,18.45095500000025,44.58834999999999,down,26.134163900000203,None,44.5982555999999,44.60868010000013,44.60868010000013,44.654293999999936,44.65452820000064,44.670431700000336,44.670431700000336,44.670431700000336,44.737392299999556,45.25445910000053,space,0.5778346999995847,None,,,,,,,,,,,,,,,,,,,,,,,,,p112,001,2025-02-14_11h42.28.081,posner_endo_new1,2024.2.4,60.127771514631334,2025-02-14 11h42.39.457424 +0000,
cube_l.png,0.1,0.31,invalid,1,1,0,down,6.5310801999985415,None,space,0.4749778999994305,None,0,1,1,1,,,,,,,,,45.27020149999953,,,,,,,,,,,,,45.25463260000106,45.27020149999953,45.27020149999953,45.27020149999953,51.814058699999805,down,6.5310801999985415,None,51.820772700000816,51.83247180000035,51.83247180000035,51.88002360000064,51.880256599999484,51.896512999999686,51.896512999999686,51.896512999999686,51.963190500000564,52.38024270000096,space,0.4749778999994305,None,,,,,,,,,,,,,,,,,,,,,,,,,p112,001,2025-02-14_11h42.28.081,posner_endo_new1,2024.2.4,60.127771514631334,2025-02-14 11h42.39.457424 +0000,
cube_r.png,0.1,-0.31,invalid,2,2,0,down,7.213171299999885,None,space,0.363682000001063,None,0,2,2,2,,,,,,,,,52.39601969999967,,,,,,,,,,,,,52.38042190000124,52.39601969999967,52.39601969999967,52.39601969999967,59.62280319999991,down,7.213171299999885,None,59.62954250000075,59.64132629999949,59.64132629999949,59.68880490000083,59.68903660000069,59.705013799999506,59.705013799999506,59.705013799999506,59.78863939999974,60.072326200001044,space,0.363682000001063,None,,,,,,,,,,,,,,,,,,,,,,,,,p112,001,2025-02-14_11h42.28.081,posner_endo_new1,2024.2.4,60.127771514631334,2025-02-14 11h42.39.457424 +0000,
cube_r.png,0.1,10,catch,3,3,0,down,4.112760699999853,None,None,,,0,3,3,3,,,,,,,,,60.08837289999974,,,,,,,,,,,,,60.07249700000102,60.08837289999974,60.08837289999974,60.08837289999974,64.21808319999946,down,4.112760699999853,None,64.22503160000088,64.23626960000001,64.23626960000001,64.28413240000009,64.2843666000008,64.30043380000097,64.30043380000097,64.30043380000097,64.3672604000003,67.29819490000045,None,,,66.38191850000112,67.3143070999995,67.3143070999995,67.3143070999995,,,,,,,,,,,,,,,,,,,,,p112,001,2025-02-14_11h42.28.081,posner_endo_new1,2024.2.4,60.127771514631334,2025-02-14 11h42.39.457424 +0000,
cube_l.png,0.1,-0.31,valid,4,4,0,down,1.9107578000002832,None,space,0.35702040000069246,None,0,4,4,4,,,,,,,,,67.3143070999995,,,,,,,,,,,,,67.2983574000009,67.3143070999995,67.3143070999995,67.3143070999995,69.22981770000115,down,1.9107578000002832,None,69.23593849999997,69.24768810000023,69.24768810000023,69.295326200001,69.2955576000004,69.31188880000082,69.31188880000082,69.31188880000082,69.3952492999997,69.67909549999968,space,0.35702040000069246,None,,,,,,,,,,,,,,,,,,,,,,,,,p112,001,2025-02-14_11h42.28.081,posner_endo_new1,2024.2.4,60.127771514631334,2025-02-14 11h42.39.457424 +0000,
cube_l.png,0.1,0.31,invalid,5,5,0,down,4.233358399998906,None,space,0.48878289999993285,None,0,5,5,5,,,,,,,,,69.69504249999954,,,,,,,,,,,,,69.67927349999991,69.69504249999954,69.69504249999954,69.69504249999954,73.94170470000063,down,4.233358399998906,None,73.9478868999995,73.95957389999967,73.95957389999967,74.00741910000033,74.00764940000045,74.02380869999979,74.02380869999979,74.02380869999979,74.1072834000006,74.52420090000123,space,0.48878289999993285,None,,,,,,,,,,,,,,,,,,,,,,,,,p112,001,2025-02-14_11h42.28.081,posner_endo_new1,2024.2.4,60.127771514631334,2025-02-14 11h42.39.457424 +0000,
cube_r.png,0.1,-0.31,invalid,6,6,0,down,4.509137899998677,None,space,0.3670634999998583,None,0,6,6,6,,,,,,,,,74.54015989999971,,,,,,,,,,,,,74.52437149999969,74.54015989999971,74.54015989999971,74.54015989999971,79.05303280000044,down,4.509137899998677,None,79.05910340000082,79.07088040000053,79.07088040000053,79.11898350000047,79.11921489999986,79.13533800000005,79.13533800000005,79.13533800000005,79.21844940000119,79.51929030000065,space,0.3670634999998583,None,,,,,,,,,,,,,,,,,,,,,,,,,p112,001,2025-02-14_11h42.28.081,posner_endo_new1,2024.2.4,60.127771514631334,2025-02-14 11h42.39.457424 +0000,
cube_r.png,0.1,0.31,valid,7,7,0,down,4.112954199999876,None,space,0.3786142999997537,None,0,7,7,7,,,,,,,,,79.53535290000036,,,,,,,,,,,,,79.5194618000005,79.53535290000036,79.53535290000036,79.53535290000036,83.66513169999962,down,4.112954199999876,None,83.67526920000091,83.68534960000034,83.68534960000034,83.73078089999944,83.73109670000122,83.74736250000024,83.74736250000024,83.74736250000024,83.83052400000088,84.13156710000112,space,0.3786142999997537,None,,,,,,,,,,,,,,,,,,,,,,,,,p112,001,2025-02-14_11h42.28.081,posner_endo_new1,2024.2.4,60.127771514631334,2025-02-14 11h42.39.457424 +0000,
cube_l.png,0.1,-0.31,valid,8,8,0,down,4.4545397000001685,None,space,0.41802849999839964,None,0,8,8,8,,,,,,,,,84.14664910000101,,,,,,,,,,,,,84.13182469999992,84.14664910000101,84.14664910000101,84.14664910000101,88.61016899999959,down,4.4545397000001685,None,88.61831840000013,88.62857050000093,88.62857050000093,88.67581930000051,88.67606979999982,88.69183599999997,88.69183599999997,88.69183599999997,88.77561799999967,89.12599220000084,space,0.41802849999839964,None,,,,,,,,,,,,,,,,,,,,,,,,,p112,001,2025-02-14_11h42.28.081,posner_endo_new1,2024.2.4,60.127771514631334,2025-02-14 11h42.39.457424 +0000,
cube_r.png,0.1,-0.31,invalid,9,9,0,down,4.075149500000407,None,space,0.3279050000001007,None,0,9,9,9,,,,,,,,,89.14195640000071,,,,,,,,,,,,,89.1261725000004,89.14195640000071,89.14195640000071,89.14195640000071,93.22180079999998,down,4.075149500000407,None,93.2284520000012,93.24010029999954,93.24010029999954,93.28780569999981,93.28803680000055,93.30439789999946,93.30439789999946,93.30439789999946,93.3709359000004,93.63801580000109,space,0.3279050000001007,None,,,,,,,,,,,,,,,,,,,,,,,,,p112,001,2025-02-14_11h42.28.081,posner_endo_new1,2024.2.4,60.127771514631334,2025-02-14 11h42.39.457424 +0000,
cube_r.png,0.1,0.31,valid,10,10,0,down,4.706765200000518,None,space,0.34514839999974356,None,0,10,10,10,,,,,,,,,93.65389770000002,,,,,,,,,,,,,93.63818879999963,93.65389770000002,93.65389770000002,93.65389770000002,98.36638680000033,down,4.706765200000518,None,98.37256640000123,98.38423870000042,98.38423870000042,98.43218999999954,98.43242330000066,98.44853040000089,98.44853040000089,98.44853040000089,98.51546210000015,98.79950210000061,space,0.34514839999974356,None,,,,,,,,,,,,,,,,,,,,,,,,,p112,001,2025-02-14_11h42.28.081,posner_endo_new1,2024.2.4,60.127771514631334,2025-02-14 11h42.39.457424 +0000,
,,,,,,,,,,,,,,,,,,,,,,,,,,,,,,,,,,98.79963099999986,98.81526350000058,101.81851989999996,101.79597819999981,,,,,,,,,,,,,,,,,,,,,,,,,,,,,,,,,,,,,,,,,,,,,,p112,001,2025-02-14_11h42.28.081,posner_endo_new1,2024.2.4,60.127771514631334,2025-02-14 11h42.39.457424 +0000,
cube_l.png,0.1,10,catch,0,0,0,down,8.934223999998721,None,None,,,,,,,0,0,0,0,,,,,101.81851989999996,,,,,,,,,,,,,101.80969780000123,101.81851989999996,101.81851989999996,101.81851989999996,110.75383499999953,,,,110.7606078000008,110.77238980000038,110.77238980000038,110.81950970000071,110.8197465000012,110.83627840000008,110.83627840000008,110.83627840000008,110.90262660000008,113.83359770000061,,,,112.9174722000007,113.84980600000017,113.84980600000017,113.84980600000017,down,8.934223999998721,None,None,,,,,,,,,,,,,,,,,p112,001,2025-02-14_11h42.28.081,posner_endo_new1,2024.2.4,60.127771514631334,2025-02-14 11h42.39.457424 +0000,
cube_l.png,0.1,10,catch,1,1,0,down,6.143462599999111,None,None,,,,,,,0,1,1,1,,,,,113.84980600000017,,,,,,,,,,,,,113.83376520000093,113.84980600000017,113.84980600000017,113.84980600000017,119.99452550000024,,,,120.00083799999993,120.01264720000108,120.01264720000108,120.06041010000081,120.06064080000033,120.07700610000029,120.07700610000029,120.07700610000029,120.16008789999978,123.07428260000052,,,,122.17461139999978,123.09028750000107,123.09028750000107,123.09028750000107,down,6.143462599999111,None,None,,,,,,,,,,,,,,,,,p112,001,2025-02-14_11h42.28.081,posner_endo_new1,2024.2.4,60.127771514631334,2025-02-14 11h42.39.457424 +0000,
cube_l.png,0.1,0.31,invalid,2,2,0,down,1.5420830000002752,None,space,0.426017600000705,None,,,,,0,2,2,2,,,,,123.09028750000107,,,,,,,,,,,,,123.0744508000007,123.09028750000107,123.09028750000107,123.09028750000107,124.6396423999995,,,,124.6457960000007,124.65756330000113,124.65756330000113,124.70553950000067,124.7057732000012,124.72216029999981,124.72216029999981,124.72216029999981,124.78854189999947,125.15584520000084,,,,,,,,down,1.5420830000002752,None,space,0.426017600000705,None,,,,,,,,,,,,,,,p112,001,2025-02-14_11h42.28.081,posner_endo_new1,2024.2.4,60.127771514631334,2025-02-14 11h42.39.457424 +0000,
cube_l.png,0.1,0.31,invalid,3,3,0,down,4.389131500000076,None,space,0.3559521000006498,None,,,,,0,3,3,3,,,,,125.1717865999999,,,,,,,,,,,,,125.15603089999968,125.1717865999999,125.1717865999999,125.1717865999999,129.56786420000026,,,,129.57393899999988,129.5856361999995,129.5856361999995,129.6339046000012,129.63413489999948,129.65066190000107,129.65066190000107,129.65066190000107,129.73353700000007,130.0174508,,,,,,,,down,4.389131500000076,None,space,0.3559521000006498,None,,,,,,,,,,,,,,,p112,001,2025-02-14_11h42.28.081,posner_endo_new1,2024.2.4,60.127771514631334,2025-02-14 11h42.39.457424 +0000,
cube_l.png,0.1,-0.31,valid,4,4,0,down,3.5198405999999522,None,space,0.4045632999986992,None,,,,,0,4,4,4,,,,,130.03327619999982,,,,,,,,,,,,,130.0176365999996,130.03327619999982,130.03327619999982,130.03327619999982,133.56385000000046,,,,133.5699979000001,133.58180879999964,133.58180879999964,133.6296757,133.62991010000042,133.64632770000026,133.64632770000026,133.64632770000026,133.72963569999956,134.06330329999946,,,,,,,,down,3.5198405999999522,None,space,0.4045632999986992,None,,,,,,,,,,,,,,,p112,001,2025-02-14_11h42.28.081,posner_endo_new1,2024.2.4,60.127771514631334,2025-02-14 11h42.39.457424 +0000,
cube_r.png,0.1,-0.31,invalid,5,5,0,down,3.777379799999835,None,space,0.49448559999837016,None,,,,,0,5,5,5,,,,,134.07904270000108,,,,,,,,,,,,,134.06349310000041,134.07904270000108,134.07904270000108,134.07904270000108,137.85927640000045,,,,137.8654607999997,137.8771895000009,137.8771895000009,137.9252075000004,137.92543860000114,137.9419385000001,137.9419385000001,137.9419385000001,138.02488389999962,138.44222100000115,,,,,,,,down,3.777379799999835,None,space,0.49448559999837016,None,,,,,,,,,,,,,,,p112,001,2025-02-14_11h42.28.081,posner_endo_new1,2024.2.4,60.127771514631334,2025-02-14 11h42.39.457424 +0000,
cube_r.png,0.1,0.31,valid,6,6,0,down,4.126313300001129,None,space,0.36295329999848036,None,,,,,0,6,6,6,,,,,138.45795069999986,,,,,,,,,,,,,138.44240189999982,138.45795069999986,138.45795069999986,138.45795069999986,142.58770709999953,,,,142.59367340000063,142.60523400000056,142.60523400000056,142.65397719999964,142.65420930000073,142.67044089999945,142.67044089999945,142.67044089999945,142.73683080000046,143.0377566999996,,,,,,,,down,4.126313300001129,None,space,0.36295329999848036,None,,,,,,,,,,,,,,,p112,001,2025-02-14_11h42.28.081,posner_endo_new1,2024.2.4,60.127771514631334,2025-02-14 11h42.39.457424 +0000,
cube_r.png,0.1,-0.31,invalid,7,7,0,down,4.956080699999802,None,space,0.3812153999988368,None,,,,,0,7,7,7,,,,,143.05325840000114,,,,,,,,,,,,,143.03793829999995,143.05325840000114,143.05325840000114,143.05325840000114,148.01554570000008,,,,148.02194729999974,148.03356870000061,148.03356870000061,148.08146719999968,148.08169790000102,148.09832920000008,148.09832920000008,148.09832920000008,148.16477049999958,148.48171449999973,,,,,,,,down,4.956080699999802,None,space,0.3812153999988368,None,,,,,,,,,,,,,,,p112,001,2025-02-14_11h42.28.081,posner_endo_new1,2024.2.4,60.127771514631334,2025-02-14 11h42.39.457424 +0000,
cube_l.png,0.1,-0.31,valid,8,8,0,down,11.111491199999364,None,space,0.5485836999996536,None,,,,,0,8,8,8,,,,,148.49769150000066,,,,,,,,,,,,,148.4819040000002,148.49769150000066,148.49769150000066,148.49769150000066,159.62054069999976,,,,159.6268639000009,159.63853840000047,159.63853840000047,159.68647030000102,159.68669969999974,159.70276680000097,159.70276680000097,159.70276680000097,159.78635340000073,160.2532788999997,,,,,,,,down,11.111491199999364,None,space,0.5485836999996536,None,,,,,,,,,,,,,,,p112,001,2025-02-14_11h42.28.081,posner_endo_new1,2024.2.4,60.127771514631334,2025-02-14 11h42.39.457424 +0000,
cube_r.png,0.1,-0.31,invalid,9,9,0,down,2.94015600000057,None,space,0.38366660000065167,None,,,,,0,9,9,9,,,,,160.26901160000125,,,,,,,,,,,,,160.2534639000005,160.26901160000125,160.26901160000125,160.26901160000125,163.21682640000108,,,,163.22305760000017,163.2346245000008,163.2346245000008,163.28286630000002,163.2830967000009,163.299174400001,163.299174400001,163.299174400001,163.36531529999957,163.6996218000004,,,,,,,,down,2.94015600000057,None,space,0.38366660000065167,None,,,,,,,,,,,,,,,p112,001,2025-02-14_11h42.28.081,posner_endo_new1,2024.2.4,60.127771514631334,2025-02-14 11h42.39.457424 +0000,
cube_l.png,0.1,0.31,invalid,10,10,0,down,5.2932710999994015,None,space,0.3151506000012887,None,,,,,0,10,10,10,,,,,163.7156229000011,,,,,,,,,,,,,163.6998053999996,163.7156229000011,163.7156229000011,163.7156229000011,169.01096510000025,,,,169.0171590000009,169.02903420000075,169.02903420000075,169.07674360000055,169.07698300000084,169.09326110000075,169.09326110000075,169.09326110000075,169.17653640000026,169.41060900000048,,,,,,,,down,5.2932710999994015,None,space,0.3151506000012887,None,,,,,,,,,,,,,,,p112,001,2025-02-14_11h42.28.081,posner_endo_new1,2024.2.4,60.127771514631334,2025-02-14 11h42.39.457424 +0000,
cube_r.png,0.1,-0.31,invalid,11,11,0,down,4.446063600000343,None,space,0.3051519000000553,None,,,,,0,11,11,11,,,,,169.42624460000116,,,,,,,,,,,,,169.4107956000007,169.42624460000116,169.42624460000116,169.42624460000116,173.87309450000066,,,,173.8793568000001,173.8912110000001,173.8912110000001,173.93859840000005,173.93883079999978,173.95515139999952,173.95515139999952,173.95515139999952,174.03764720000072,174.27207129999988,,,,,,,,down,4.446063600000343,None,space,0.3051519000000553,None,,,,,,,,,,,,,,,p112,001,2025-02-14_11h42.28.081,posner_endo_new1,2024.2.4,60.127771514631334,2025-02-14 11h42.39.457424 +0000,
cube_r.png,0.1,0.31,valid,12,12,0,down,5.16133230000014,None,space,0.5556713000005402,None,,,,,0,12,12,12,,,,,174.28793550000046,,,,,,,,,,,,,174.2722513000008,174.28793550000046,174.28793550000046,174.28793550000046,179.45030560000123,,,,179.4564986000005,179.46811160000107,179.46811160000107,179.51608250000027,179.51632129999962,179.53243740000107,179.53243740000107,179.53243740000107,179.6158875000001,180.0995851000007,,,,,,,,down,5.16133230000014,None,space,0.5556713000005402,None,,,,,,,,,,,,,,,p112,001,2025-02-14_11h42.28.081,posner_endo_new1,2024.2.4,60.127771514631334,2025-02-14 11h42.39.457424 +0000,
cube_l.png,0.1,10,catch,13,13,0,down,2.6290298999992956,None,None,,,,,,,0,13,13,13,,,,,180.11556500000006,,,,,,,,,,,,,180.09977360000084,180.11556500000006,180.11556500000006,180.11556500000006,182.7468798000009,,,,182.75294700000086,182.76458280000043,182.76458280000043,182.81272790000003,182.81296070000099,182.8291790000003,182.8291790000003,182.8291790000003,182.91260450000118,185.8267168000002,,,,184.9274605999999,185.8428882999997,185.8428882999997,185.8428882999997,down,2.6290298999992956,None,None,,,,,,,,,,,,,,,,,p112,001,2025-02-14_11h42.28.081,posner_endo_new1,2024.2.4,60.127771514631334,2025-02-14 11h42.39.457424 +0000,
cube_r.png,0.1,-0.31,invalid,14,14,0,down,4.149454099999275,None,space,0.5159063999999489,None,,,,,0,14,14,14,,,,,185.8428882999997,,,,,,,,,,,,,185.8268848000007,185.8428882999997,185.8428882999997,185.8428882999997,190.00601090000055,,,,190.01199330000054,190.0236745000002,190.0236745000002,190.07194830000117,190.07218210000065,190.08837289999974,190.08837289999974,190.08837289999974,190.15536760000032,190.60537020000083,,,,,,,,down,4.149454099999275,None,space,0.5159063999999489,None,,,,,,,,,,,,,,,p112,001,2025-02-14_11h42.28.081,posner_endo_new1,2024.2.4,60.127771514631334,2025-02-14 11h42.39.457424 +0000,
cube_l.png,0.1,-0.31,valid,15,15,0,down,2.835182300001179,None,space,0.41913690000001225,None,,,,,0,15,15,15,,,,,190.62136480000117,,,,,,,,,,,,,190.60556069999984,190.62136480000117,190.62136480000117,190.62136480000117,193.46904460000042,,,,193.47507010000118,193.4866753999995,193.4866753999995,193.53504460000113,193.53527580000082,193.5517161000007,193.5517161000007,193.5517161000007,193.6181484000008,193.9853366999996,,,,,,,,down,2.835182300001179,None,space,0.41913690000001225,None,,,,,,,,,,,,,,,p112,001,2025-02-14_11h42.28.081,posner_endo_new1,2024.2.4,60.127771514631334,2025-02-14 11h42.39.457424 +0000,
cube_r.png,0.1,10,catch,16,16,0,down,2.783500199999253,None,None,,,,,,,0,16,16,16,,,,,194.00115410000035,,,,,,,,,,,,,193.98552460000064,194.00115410000035,194.00115410000035,194.00115410000035,196.79903580000064,,,,196.80521530000078,196.8167709999998,196.8167709999998,196.8647860000001,196.86501880000105,196.88151000000107,196.88151000000107,196.88151000000107,196.9478035000011,199.87909340000078,,,,198.9626956000011,199.89517650000016,199.89517650000016,199.89517650000016,down,2.783500199999253,None,None,,,,,,,,,,,,,,,,,p112,001,2025-02-14_11h42.28.081,posner_endo_new1,2024.2.4,60.127771514631334,2025-02-14 11h42.39.457424 +0000,
cube_r.png,0.1,10,catch,17,17,0,down,4.057332899999892,None,None,,,,,,,0,17,17,17,,,,,199.89517650000016,,,,,,,,,,,,,199.87925890000042,199.89517650000016,199.89517650000016,199.89517650000016,203.95797590000075,,,,203.96397790000083,203.97566170000027,203.97566170000027,204.02430400000048,204.024539,204.04082930000004,204.04082930000004,204.04082930000004,204.10744390000036,207.0384266000001,,,,206.12213019999945,207.05446570000095,207.05446570000095,207.05446570000095,down,4.057332899999892,None,None,,,,,,,,,,,,,,,,,p112,001,2025-02-14_11h42.28.081,posner_endo_new1,2024.2.4,60.127771514631334,2025-02-14 11h42.39.457424 +0000,
cube_l.png,0.1,0.31,invalid,18,18,0,down,2.92996470000071,None,space,0.42270989999997255,None,,,,,0,18,18,18,,,,,207.05446570000095,,,,,,,,,,,,,207.03859510000075,207.05446570000095,207.05446570000095,207.05446570000095,209.98548980000123,,,,209.99169240000083,210.00331209999968,210.00331209999968,210.05161299999963,210.0518456000009,210.06804310000007,210.06804310000007,210.06804310000007,210.15132059999996,210.50160230000074,,,,,,,,down,2.92996470000071,None,space,0.42270989999997255,None,,,,,,,,,,,,,,,p112,001,2025-02-14_11h42.28.081,posner_endo_new1,2024.2.4,60.127771514631334,2025-02-14 11h42.39.457424 +0000,
cube_l.png,0.1,10,catch,19,19,0,down,1.467723699999624,None,None,,,,,,,0,19,19,19,,,,,210.51749220000056,,,,,,,,,,,,,210.50178980000055,210.51749220000056,210.51749220000056,210.51749220000056,212.00017769999977,,,,212.00616810000065,212.01774939999996,212.01774939999996,212.0661183000011,212.06635490000008,212.08240300000034,212.08240300000034,212.08240300000034,212.16596260000006,215.07995909999954,,,,214.1803491999999,215.0960329999998,215.0960329999998,215.0960329999998,down,1.467723699999624,None,None,,,,,,,,,,,,,,,,,p112,001,2025-02-14_11h42.28.081,posner_endo_new1,2024.2.4,60.127771514631334,2025-02-14 11h42.39.457424 +0000,
cube_l.png,0.1,0.31,invalid,20,20,0,down,0.9129235000000335,None,space,0.5213509000004706,None,,,,,0,20,20,20,,,,,215.0960329999998,,,,,,,,,,,,,215.08012670000062,215.0960329999998,215.0960329999998,215.0960329999998,216.01275220000025,,,,216.01872170000024,216.03039949999948,216.03039949999948,216.07891259999997,216.07915250000042,216.09516620000068,216.09516620000068,216.09516620000068,216.1778102999997,216.62885800000004,,,,,,,,down,0.9129235000000335,None,space,0.5213509000004706,None,,,,,,,,,,,,,,,p112,001,2025-02-14_11h42.28.081,posner_endo_new1,2024.2.4,60.127771514631334,2025-02-14 11h42.39.457424 +0000,
cube_l.png,0.1,-0.31,valid,21,21,0,down,1.9885818999991898,None,space,0.5589390999994066,None,,,,,0,21,21,21,,,,,216.64443440000105,,,,,,,,,,,,,216.62904569999955,216.64443440000105,216.64443440000105,216.64443440000105,218.64333110000007,,,,218.64925870000116,218.66093320000073,218.66093320000073,218.70929670000078,218.7095289000008,218.72571489999973,218.72571489999973,218.72571489999973,218.7924879000002,219.29218250000122,,,,,,,,down,1.9885818999991898,None,space,0.5589390999994066,None,,,,,,,,,,,,,,,p112,001,2025-02-14_11h42.28.081,posner_endo_new1,2024.2.4,60.127771514631334,2025-02-14 11h42.39.457424 +0000,
cube_r.png,0.1,0.31,valid,22,22,0,down,2.468318299999737,None,space,0.3850925999995525,None,,,,,0,22,22,22,,,,,219.30854790000012,,,,,,,,,,,,,219.2923752000006,219.30854790000012,219.30854790000012,219.30854790000012,221.79010930000004,,,,221.79601960000036,221.8078243,221.8078243,221.85600800000066,221.85624290000123,221.8723742000002,221.8723742000002,221.8723742000002,221.93906480000078,222.27307970000038,,,,,,,,down,2.468318299999737,None,space,0.3850925999995525,None,,,,,,,,,,,,,,,p112,001,2025-02-14_11h42.28.081,posner_endo_new1,2024.2.4,60.127771514631334,2025-02-14 11h42.39.457424 +0000,
cube_r.png,0.1,-0.31,invalid,23,23,0,down,2.5836953000016365,None,space,0.3979416999991372,None,,,,,0,23,23,23,,,,,222.28881569999976,,,,,,,,,,,,,222.27326220000032,222.28881569999976,222.28881569999976,222.28881569999976,224.8870052000002,,,,224.89296769999964,224.9047585999997,224.9047585999997,224.95322529999976,224.95345699999962,224.96930539999994,224.96930539999994,224.96930539999994,225.0528422999996,225.3700043000008,,,,,,,,down,2.5836953000016365,None,space,0.3979416999991372,None,,,,,,,,,,,,,,,p112,001,2025-02-14_11h42.28.081,posner_endo_new1,2024.2.4,60.127771514631334,2025-02-14 11h42.39.457424 +0000,
cube_r.png,0.1,0.31,valid,24,24,0,down,2.3425164000000223,None,space,0.34410639999987325,None,,,,,0,24,24,24,,,,,225.38577319999968,,,,,,,,,,,,,225.3701918000006,225.38577319999968,225.38577319999968,225.38577319999968,227.73399620000055,,,,227.74003950000042,227.75185860000056,227.75185860000056,227.80012850000094,227.80036280000058,227.81660730000112,227.81660730000112,227.81660730000112,227.89948390000063,228.1669853000003,,,,,,,,down,2.3425164000000223,None,space,0.34410639999987325,None,,,,,,,,,,,,,,,p112,001,2025-02-14_11h42.28.081,posner_endo_new1,2024.2.4,60.127771514631334,2025-02-14 11h42.39.457424 +0000,
cube_r.png,0.1,-0.31,invalid,25,25,0,down,1.9697973000002094,None,space,0.4283417000006011,None,,,,,0,25,25,25,,,,,228.1827260000009,,,,,,,,,,,,,228.16716819999965,228.1827260000009,228.1827260000009,228.1827260000009,230.16484140000102,,,,230.1708348000011,230.18254160000106,230.18254160000106,230.23109000000113,230.23132330000044,230.24751090000063,230.24751090000063,230.24751090000063,230.3140156999998,230.68112010000004,,,,,,,,down,1.9697973000002094,None,space,0.4283417000006011,None,,,,,,,,,,,,,,,p112,001,2025-02-14_11h42.28.081,posner_endo_new1,2024.2.4,60.127771514631334,2025-02-14 11h42.39.457424 +0000,
cube_l.png,0.1,-0.31,valid,26,26,0,down,2.4232959000000847,None,space,0.4195339000016247,None,,,,,0,26,26,26,,,,,230.69696190000104,,,,,,,,,,,,,230.68130810000002,230.69696190000104,230.69696190000104,230.69696190000104,233.1283758999998,,,,233.13430030000018,233.14592020000055,233.14592020000055,233.1945450000003,233.19477910000023,233.21096670000043,233.21096670000043,233.21096670000043,233.27747760000057,233.64439200000015,,,,,,,,down,2.4232959000000847,None,space,0.4195339000016247,None,,,,,,,,,,,,,,,p112,001,2025-02-14_11h42.28.081,posner_endo_new1,2024.2.4,60.127771514631334,2025-02-14 11h42.39.457424 +0000,
cube_r.png,0.1,0.31,valid,27,27,0,down,2.011644399999568,None,space,0.4191704999993817,None,,,,,0,27,27,27,,,,,233.66060070000094,,,,,,,,,,,,,233.64458039999954,233.66060070000094,233.66060070000094,233.66060070000094,235.67598910000015,,,,235.68198389999998,235.69354039999962,235.69354039999962,235.74197540000023,235.74221560000115,235.75831520000065,235.75831520000065,235.75831520000065,235.82489739999983,236.19199409999965,,,,,,,,down,2.011644399999568,None,space,0.4191704999993817,None,,,,,,,,,,,,,,,p112,001,2025-02-14_11h42.28.081,posner_endo_new1,2024.2.4,60.127771514631334,2025-02-14 11h42.39.457424 +0000,
cube_r.png,0.1,10,catch,28,28,0,down,8.497636899999634,None,None,,,,,,,0,28,28,28,,,,,236.20741240000098,,,,,,,,,,,,,236.1921755000003,236.20741240000098,236.20741240000098,236.20741240000098,244.7166560000005,,,,244.72289620000083,244.73460429999977,244.73460429999977,244.78199769999992,244.7822286999999,244.79901710000013,244.79901710000013,244.79901710000013,244.8656447000012,247.7964781999999,,,,246.8804328999995,247.81278440000096,247.81278440000096,247.81278440000096,down,8.497636899999634,None,None,,,,,,,,,,,,,,,,,p112,001,2025-02-14_11h42.28.081,posner_endo_new1,2024.2.4,60.127771514631334,2025-02-14 11h42.39.457424 +0000,
cube_r.png,0.1,0.31,valid,29,29,0,down,0.8362721000012243,None,space,0.46547019999889017,None,,,,,0,29,29,29,,,,,247.81278440000096,,,,,,,,,,,,,247.7966467999995,247.81278440000096,247.81278440000096,247.81278440000096,248.66257919999953,,,,248.66850169999998,248.68029220000062,248.68029220000062,248.72839849999946,248.72863570000118,248.7451082000007,248.7451082000007,248.7451082000007,248.82834170000024,249.21233810000012,,,,,,,,down,0.8362721000012243,None,space,0.46547019999889017,None,,,,,,,,,,,,,,,p112,001,2025-02-14_11h42.28.081,posner_endo_new1,2024.2.4,60.127771514631334,2025-02-14 11h42.39.457424 +0000,
cube_r.png,0.1,0.31,valid,30,30,0,down,2.8931616000008944,None,space,0.32041949999984354,None,,,,,0,30,30,30,,,,,249.22789589999957,,,,,,,,,,,,,249.2125264999995,249.22789589999957,249.22789589999957,249.22789589999957,252.12555659999998,,,,252.13157409999985,252.14324810000107,252.14324810000107,252.19160230000125,252.19183470000098,252.20811549999962,252.20811549999962,252.20811549999962,252.2748061000002,252.5418711000002,,,,,,,,down,2.8931616000008944,None,space,0.32041949999984354,None,,,,,,,,,,,,,,,p112,001,2025-02-14_11h42.28.081,posner_endo_new1,2024.2.4,60.127771514631334,2025-02-14 11h42.39.457424 +0000,
cube_l.png,0.1,-0.31,valid,31,31,0,down,2.4426452000006975,None,space,0.4547026000000187,None,,,,,0,31,31,31,,,,,252.55771260000074,,,,,,,,,,,,,252.54205110000112,252.55771260000074,252.55771260000074,252.55771260000074,255.00586980000116,,,,255.01187800000116,255.0235358000009,255.0235358000009,255.07199720000062,255.07223160000103,255.088614100001,255.088614100001,255.088614100001,255.15523360000043,255.55554610000036,,,,,,,,down,2.4426452000006975,None,space,0.4547026000000187,None,,,,,,,,,,,,,,,p112,001,2025-02-14_11h42.28.081,posner_endo_new1,2024.2.4,60.127771514631334,2025-02-14 11h42.39.457424 +0000,
cube_r.png,0.1,0.31,valid,32,32,0,down,3.3256569000004674,None,space,0.26367949999985285,None,,,,,0,32,32,32,,,,,255.5712646000011,,,,,,,,,,,,,255.5557260000005,255.5712646000011,255.5712646000011,255.5712646000011,258.90230770000016,,,,258.9082491999998,258.9198539000008,258.9198539000008,258.9680324000001,258.96826280000096,258.98451170000044,258.98451170000044,258.98451170000044,259.05127280000124,259.2519420000008,,,,,,,,down,3.3256569000004674,None,space,0.26367949999985285,None,,,,,,,,,,,,,,,p112,001,2025-02-14_11h42.28.081,posner_endo_new1,2024.2.4,60.127771514631334,2025-02-14 11h42.39.457424 +0000,
cube_r.png,0.1,-0.31,invalid,33,33,0,down,2.3569556000002194,None,space,0.43109220000042114,None,,,,,0,33,33,33,,,,,259.26758599999994,,,,,,,,,,,,,259.2521319000007,259.26758599999994,259.26758599999994,259.26758599999994,261.6328274999996,,,,261.63883540000097,261.6506330000011,261.6506330000011,261.69852209999954,261.69876509999995,261.71463890000086,261.71463890000086,261.71463890000086,261.7980993000001,262.1487782000004,,,,,,,,down,2.3569556000002194,None,space,0.43109220000042114,None,,,,,,,,,,,,,,,p112,001,2025-02-14_11h42.28.081,posner_endo_new1,2024.2.4,60.127771514631334,2025-02-14 11h42.39.457424 +0000,
cube_r.png,0.1,10,catch,34,34,0,down,4.04464310000003,None,space,0.32811730000139505,None,,,,,0,34,34,34,,,,,262.16413140000077,,,,,,,,,,,,,262.14896450000015,262.16413140000077,262.16413140000077,262.16413140000077,266.21067270000094,,,,266.2166778999999,266.2283478999998,266.2283478999998,266.27719380000053,266.2774270000009,266.2936821000003,266.2936821000003,266.2936821000003,266.3602701,266.6275708000012,,,,,,,,down,4.04464310000003,None,space,0.32811730000139505,None,,,,,,,,,,,,,,,p112,001,2025-02-14_11h42.28.081,posner_endo_new1,2024.2.4,60.127771514631334,2025-02-14 11h42.39.457424 +0000,
cube_r.png,0.1,0.31,valid,35,35,0,down,5.621125400000892,None,space,0.42904730000009295,None,,,,,0,35,35,35,,,,,266.64311009999983,,,,,,,,,,,,,266.627754000001,266.64311009999983,266.64311009999983,266.64311009999983,272.271726500001,,,,272.2776565000004,272.2892733000008,272.2892733000008,272.33778189999975,272.33801760000097,272.3542365000012,272.3542365000012,272.3542365000012,272.4373058000001,272.78776199999993,,,,,,,,down,5.621125400000892,None,space,0.42904730000009295,None,,,,,,,,,,,,,,,p112,001,2025-02-14_11h42.28.081,posner_endo_new1,2024.2.4,60.127771514631334,2025-02-14 11h42.39.457424 +0000,
cube_r.png,0.1,-0.31,invalid,36,36,0,down,2.988719499999206,None,space,0.35068800000044575,None,,,,,0,36,36,36,,,,,272.80368610000005,,,,,,,,,,,,,272.7879465999995,272.80368610000005,272.80368610000005,272.80368610000005,275.8016974000002,,,,275.8076430000001,275.81925779999983,275.81925779999983,275.86723809999967,275.8674735000004,275.88391520000005,275.88391520000005,275.88391520000005,275.96712560000014,276.2509418000009,,,,,,,,down,2.988719499999206,None,space,0.35068800000044575,None,,,,,,,,,,,,,,,p112,001,2025-02-14_11h42.28.081,posner_endo_new1,2024.2.4,60.127771514631334,2025-02-14 11h42.39.457424 +0000,
cube_l.png,0.1,0.31,invalid,37,37,0,down,8.165394699999524,None,space,0.3227399000006699,None,,,,,0,37,37,37,,,,,276.26692550000007,,,,,,,,,,,,,276.2511329000008,276.26692550000007,276.26692550000007,276.26692550000007,284.4426760999995,,,,284.44862190000094,284.46031159999984,284.46031159999984,284.5086831000008,284.50891559999945,284.52537010000015,284.52537010000015,284.52537010000015,284.60815980000007,284.858815900001,,,,,,,,down,8.165394699999524,None,space,0.3227399000006699,None,,,,,,,,,,,,,,,p112,001,2025-02-14_11h42.28.081,posner_endo_new1,2024.2.4,60.127771514631334,2025-02-14 11h42.39.457424 +0000,
cube_l.png,0.1,0.31,invalid,38,38,0,down,2.7420912999987195,None,space,0.3468866999992315,None,,,,,0,38,38,38,,,,,284.87469919999967,,,,,,,,,,,,,284.85900870000114,284.87469919999967,284.87469919999967,284.87469919999967,287.6227705000001,,,,287.62867899999947,287.64045030000125,287.64045030000125,287.68856700000106,287.68880080000054,287.7050839000003,287.7050839000003,287.7050839000003,287.7882953999997,288.055427700001,,,,,,,,down,2.7420912999987195,None,space,0.3468866999992315,None,,,,,,,,,,,,,,,p112,001,2025-02-14_11h42.28.081,posner_endo_new1,2024.2.4,60.127771514631334,2025-02-14 11h42.39.457424 +0000,
cube_r.png,0.1,0.31,valid,39,39,0,down,2.505717599999116,None,space,0.3282842000007804,None,,,,,0,39,39,39,,,,,288.07137049999983,,,,,,,,,,,,,288.0556343999997,288.07137049999983,288.07137049999983,288.07137049999983,290.58648209999956,,,,290.5923961999997,290.6042099999995,290.6042099999995,290.6521157999996,290.6523491000007,290.6683685000007,290.6683685000007,290.6683685000007,290.7519554999999,291.0026359000003,,,,,,,,down,2.505717599999116,None,space,0.3282842000007804,None,,,,,,,,,,,,,,,p112,001,2025-02-14_11h42.28.081,posner_endo_new1,2024.2.4,60.127771514631334,2025-02-14 11h42.39.457424 +0000,
cube_l.png,0.1,0.31,invalid,40,40,0,down,4.869934000000285,None,space,0.4204853999999614,None,,,,,0,40,40,40,,,,,291.01846079999996,,,,,,,,,,,,,291.0028187000007,291.01846079999996,291.01846079999996,291.01846079999996,295.89771350000046,,,,295.9036214000007,295.9153151999999,295.9153151999999,295.96340280000004,295.9636379000003,295.9799347999997,295.9799347999997,295.9799347999997,296.06342080000104,296.41388890000053,,,,,,,,down,4.869934000000285,None,space,0.4204853999999614,None,,,,,,,,,,,,,,,p112,001,2025-02-14_11h42.28.081,posner_endo_new1,2024.2.4,60.127771514631334,2025-02-14 11h42.39.457424 +0000,
cube_l.png,0.1,10,catch,41,41,0,down,2.9219907999995485,None,None,,,,,,,0,41,41,41,,,,,296.43017080000027,,,,,,,,,,,,,296.4140709000003,296.43017080000027,296.43017080000027,296.43017080000027,299.3607778000005,,,,299.366856300001,299.3787059999995,299.3787059999995,299.42682720000084,299.4270589000007,299.44298340000023,299.44298340000023,299.44298340000023,299.5099370000007,302.44037820000085,,,,301.5245304,302.45653070000117,302.45653070000117,302.45653070000117,down,2.9219907999995485,None,None,,,,,,,,,,,,,,,,,p112,001,2025-02-14_11h42.28.081,posner_endo_new1,2024.2.4,60.127771514631334,2025-02-14 11h42.39.457424 +0000,
cube_l.png,0.1,-0.31,valid,42,42,0,down,2.592001299999538,None,space,0.45521310000003723,None,,,,,0,42,42,42,,,,,302.45653070000117,,,,,,,,,,,,,302.4405671000004,302.45653070000117,302.45653070000117,302.45653070000117,305.0548966000006,,,,305.06082009999955,305.0725796000006,305.0725796000006,305.12039279999954,305.1206268999995,305.13724770000044,305.13724770000044,305.13724770000044,305.2205986000008,305.60446410000077,,,,,,,,down,2.592001299999538,None,space,0.45521310000003723,None,,,,,,,,,,,,,,,p112,001,2025-02-14_11h42.28.081,posner_endo_new1,2024.2.4,60.127771514631334,2025-02-14 11h42.39.457424 +0000,
cube_l.png,0.1,10,catch,43,43,0,down,7.540989699999045,None,None,,,,,,,0,43,43,43,,,,,305.6198647000001,,,,,,,,,,,,,305.60465040000054,305.6198647000001,305.6198647000001,305.6198647000001,313.1637449000009,,,,313.1697275000006,313.1817761000002,313.1817761000002,313.2290604000009,313.2292955000012,313.24569359999987,313.24569359999987,313.24569359999987,313.3291631000011,316.24321880000025,,,,315.343516500001,316.2593381000006,316.2593381000006,316.2593381000006,down,7.540989699999045,None,None,,,,,,,,,,,,,,,,,p112,001,2025-02-14_11h42.28.081,posner_endo_new1,2024.2.4,60.127771514631334,2025-02-14 11h42.39.457424 +0000,
cube_l.png,0.1,0.31,invalid,44,44,0,down,2.597645100000591,None,space,0.4505126999993081,None,,,,,0,44,44,44,,,,,316.2593381000006,,,,,,,,,,,,,316.2433882000005,316.2593381000006,316.2593381000006,316.2593381000006,318.85777450000023,,,,318.86374500000056,318.8754014999995,318.8754014999995,318.9231582000011,318.92339209999955,318.9397637000002,318.9397637000002,318.9397637000002,319.0232326000005,319.4070350000002,,,,,,,,down,2.597645100000591,None,space,0.4505126999993081,None,,,,,,,,,,,,,,,p112,001,2025-02-14_11h42.28.081,posner_endo_new1,2024.2.4,60.127771514631334,2025-02-14 11h42.39.457424 +0000,
cube_l.png,0.1,0.31,invalid,45,45,0,down,3.945867799999178,None,space,0.3809672000006685,None,,,,,0,45,45,45,,,,,319.4229542000012,,,,,,,,,,,,,319.4072278000003,319.4229542000012,319.4229542000012,319.4229542000012,323.36963710000055,,,,323.37553409999964,323.38734099999965,323.38734099999965,323.43558680000024,323.4358186999998,323.4516041000006,323.4516041000006,323.4516041000006,323.53457060000073,323.8355234999999,,,,,,,,down,3.945867799999178,None,space,0.3809672000006685,None,,,,,,,,,,,,,,,p112,001,2025-02-14_11h42.28.081,posner_endo_new1,2024.2.4,60.127771514631334,2025-02-14 11h42.39.457424 +0000,
cube_r.png,0.1,0.31,valid,46,46,0,down,5.358231100000921,None,space,0.3672633999995014,None,,,,,0,46,46,46,,,,,323.85089719999996,,,,,,,,,,,,,323.8357065,323.85089719999996,323.85089719999996,323.85089719999996,329.2137137000009,,,,329.2196272000001,329.23133869999947,329.23133869999947,329.27910189999966,329.2793337000003,329.29580870000063,329.29580870000063,329.29580870000063,329.37884909999957,329.67991230000007,,,,,,,,down,5.358231100000921,None,space,0.3672633999995014,None,,,,,,,,,,,,,,,p112,001,2025-02-14_11h42.28.081,posner_endo_new1,2024.2.4,60.127771514631334,2025-02-14 11h42.39.457424 +0000,
cube_l.png,0.1,-0.31,valid,47,47,0,down,3.8732264999998733,None,space,0.3159986000009667,None,,,,,0,47,47,47,,,,,329.6953265000011,,,,,,,,,,,,,329.68009710000115,329.6953265000011,329.6953265000011,329.6953265000011,333.575684200001,,,,333.5816310000009,333.59347230000094,333.59347230000094,333.6415467000006,333.64178490000086,333.65814669999963,333.65814669999963,333.65814669999963,333.74139079999986,333.9754661999996,,,,,,,,down,3.8732264999998733,None,space,0.3159986000009667,None,,,,,,,,,,,,,,,p112,001,2025-02-14_11h42.28.081,posner_endo_new1,2024.2.4,60.127771514631334,2025-02-14 11h42.39.457424 +0000,
cube_r.png,0.1,-0.31,invalid,48,48,0,down,4.625781099999585,None,space,0.4217800000005809,None,,,,,0,48,48,48,,,,,333.9910411000001,,,,,,,,,,,,,333.9756524000004,333.9910411000001,333.9910411000001,333.9910411000001,338.62027579999994,,,,338.6260894999996,338.6377384999996,338.6377384999996,338.6863953000011,338.6866320000008,338.70295199999964,338.70295199999964,338.70295199999964,338.769604000001,339.1365373000008,,,,,,,,down,4.625781099999585,None,space,0.4217800000005809,None,,,,,,,,,,,,,,,p112,001,2025-02-14_11h42.28.081,posner_endo_new1,2024.2.4,60.127771514631334,2025-02-14 11h42.39.457424 +0000,
cube_r.png,0.1,10,catch,49,49,0,down,3.928030900000522,None,None,,,,,,,0,49,49,49,,,,,339.15247550000095,,,,,,,,,,,,,339.13671460000114,339.15247550000095,339.15247550000095,339.15247550000095,343.0828687000012,,,,343.08876919999966,343.1003066000012,343.1003066000012,343.1484271999998,343.1486609000003,343.1649008000004,343.1649008000004,343.1649008000004,343.24833650000073,346.16257609999957,,,,345.26279740000064,346.17870720000064,346.17870720000064,346.17870720000064,down,3.928030900000522,None,None,,,,,,,,,,,,,,,,,p112,001,2025-02-14_11h42.28.081,posner_endo_new1,2024.2.4,60.127771514631334,2025-02-14 11h42.39.457424 +0000,
cube_l.png,0.1,-0.31,valid,50,50,0,down,1.430782299999919,None,space,0.4852169000005233,None,,,,,0,50,50,50,,,,,346.17870720000064,,,,,,,,,,,,,346.16274449999946,346.17870720000064,346.17870720000064,346.17870720000064,347.61153229999945,,,,347.6174062000009,347.6291041000004,347.6291041000004,347.6769722000008,347.67721580000034,347.69362060000094,347.69362060000094,347.69362060000094,347.7770166999999,348.1939086000002,,,,,,,,down,1.430782299999919,None,space,0.4852169000005233,None,,,,,,,,,,,,,,,p112,001,2025-02-14_11h42.28.081,posner_endo_new1,2024.2.4,60.127771514631334,2025-02-14 11h42.39.457424 +0000,
cube_l.png,0.1,-0.31,valid,51,51,0,down,3.031105000000025,None,space,0.5383650000003399,None,,,,,0,51,51,51,,,,,348.2098643999998,,,,,,,,,,,,,348.194102200001,348.2098643999998,348.2098643999998,348.2098643999998,351.25748360000034,,,,351.26341839999986,351.2748659000008,351.2748659000008,351.32339690000117,351.3236287,351.34000320000087,351.34000320000087,351.34000320000087,351.4232511000009,351.8902023999999,,,,,,,,down,3.031105000000025,None,space,0.5383650000003399,None,,,,,,,,,,,,,,,p112,001,2025-02-14_11h42.28.081,posner_endo_new1,2024.2.4,60.127771514631334,2025-02-14 11h42.39.457424 +0000,
cube_r.png,0.1,-0.31,invalid,52,52,0,down,3.2947779999994964,None,space,0.46329809999951976,None,,,,,0,52,52,52,,,,,351.9060784000012,,,,,,,,,,,,,351.8903793999998,351.9060784000012,351.9060784000012,351.9060784000012,355.20360509999955,,,,355.20947739999974,355.221135400001,355.221135400001,355.2694319000002,355.269664200001,355.2859840000001,355.2859840000001,355.2859840000001,355.3524904999995,355.7528736000004,,,,,,,,down,3.2947779999994964,None,space,0.46329809999951976,None,,,,,,,,,,,,,,,p112,001,2025-02-14_11h42.28.081,posner_endo_new1,2024.2.4,60.127771514631334,2025-02-14 11h42.39.457424 +0000,
cube_l.png,0.1,-0.31,valid,53,53,0,down,3.024732600000789,None,space,0.5042931999996654,None,,,,,0,53,53,53,,,,,355.7687060999997,,,,,,,,,,,,,355.75305110000045,355.7687060999997,355.7687060999997,355.7687060999997,358.7997056000004,,,,358.8055916000012,358.81704999999965,358.81704999999965,358.8657813000009,358.8660133000012,358.8817319000009,358.8817319000009,358.8817319000009,358.948808000001,359.3991325999996,,,,,,,,down,3.024732600000789,None,space,0.5042931999996654,None,,,,,,,,,,,,,,,p112,001,2025-02-14_11h42.28.081,posner_endo_new1,2024.2.4,60.127771514631334,2025-02-14 11h42.39.457424 +0000,
cube_r.png,0.1,10,catch,54,54,0,down,2.6174584000000323,None,None,,,,,,,0,54,54,54,,,,,359.4149202000008,,,,,,,,,,,,,359.39932390000104,359.4149202000008,359.4149202000008,359.4149202000008,362.0465389000001,,,,362.0525041000001,362.0642022000011,362.0642022000011,362.11240850000104,362.1126416999996,362.1288273000009,362.1288273000009,362.1288273000009,362.21200409999983,365.1264568000006,,,,364.2266681000001,365.1425581000003,365.1425581000003,365.1425581000003,down,2.6174584000000323,None,None,,,,,,,,,,,,,,,,,p112,001,2025-02-14_11h42.28.081,posner_endo_new1,2024.2.4,60.127771514631334,2025-02-14 11h42.39.457424 +0000,
cube_l.png,0.1,0.31,invalid,55,55,0,down,0.9219264000003022,None,space,0.4173716000004788,None,,,,,0,55,55,55,,,,,365.1425581000003,,,,,,,,,,,,,365.12663220000104,365.1425581000003,365.1425581000003,365.1425581000003,366.0756273999996,,,,366.08151030000045,366.0930915000008,366.0930915000008,366.1413732000001,366.14160830000037,366.15798429999995,366.15798429999995,366.15798429999995,366.22489309999946,366.5914348999995,,,,,,,,down,0.9219264000003022,None,space,0.4173716000004788,None,,,,,,,,,,,,,,,p112,001,2025-02-14_11h42.28.081,posner_endo_new1,2024.2.4,60.127771514631334,2025-02-14 11h42.39.457424 +0000,
cube_l.png,0.1,-0.31,valid,56,56,0,down,2.585161800001515,None,space,0.47631230000115465,None,,,,,0,56,56,56,,,,,366.60758420000093,,,,,,,,,,,,,366.59162090000063,366.60758420000093,366.60758420000093,366.60758420000093,369.2059222000007,,,,369.2120281000007,369.22386449999976,369.22386449999976,369.2715339999995,369.2717747000006,369.2883882999995,369.2883882999995,369.2883882999995,369.3716404000006,369.7717848000011,,,,,,,,down,2.585161800001515,None,space,0.47631230000115465,None,,,,,,,,,,,,,,,p112,001,2025-02-14_11h42.28.081,posner_endo_new1,2024.2.4,60.127771514631334,2025-02-14 11h42.39.457424 +0000,
cube_r.png,0.1,0.31,valid,57,57,0,down,2.7087403000004997,None,space,0.36971140000059677,None,,,,,0,57,57,57,,,,,369.78793609999957,,,,,,,,,,,,,369.7719691000002,369.78793609999957,369.78793609999957,369.78793609999957,372.50232160000087,,,,372.50819799999954,372.52005570000074,372.52005570000074,372.56831109999985,372.56854810000004,372.58478000000105,372.58478000000105,372.58478000000105,372.6512851999996,372.968790500001,,,,,,,,down,2.7087403000004997,None,space,0.36971140000059677,None,,,,,,,,,,,,,,,p112,001,2025-02-14_11h42.28.081,posner_endo_new1,2024.2.4,60.127771514631334,2025-02-14 11h42.39.457424 +0000,
cube_r.png,0.1,-0.31,invalid,58,58,0,down,2.360683799999606,None,space,0.5118839000006119,None,,,,,0,58,58,58,,,,,372.9840643000007,,,,,,,,,,,,,372.9689674000001,372.9840643000007,372.9840643000007,372.9840643000007,375.3494150000006,,,,375.35534110000117,375.3668514000001,375.3668514000001,375.4153385999998,375.41559059999963,375.4322551000005,375.4322551000005,375.4322551000005,375.5153594000003,375.94920170000114,,,,,,,,down,2.360683799999606,None,space,0.5118839000006119,None,,,,,,,,,,,,,,,p112,001,2025-02-14_11h42.28.081,posner_endo_new1,2024.2.4,60.127771514631334,2025-02-14 11h42.39.457424 +0000,
cube_l.png,0.1,0.31,invalid,59,59,0,down,2.675886899998659,None,space,0.3959320000012667,None,,,,,0,59,59,59,,,,,375.9649124000007,,,,,,,,,,,,,375.9493786000003,375.9649124000007,375.9649124000007,375.9649124000007,378.64613389999977,,,,378.651971700001,378.6635946000006,378.6635946000006,378.71209699999963,378.7123339000009,378.7283812000005,378.7283812000005,378.7283812000005,378.79522180000095,379.1293729000008,,,,,,,,down,2.675886899998659,None,space,0.3959320000012667,None,,,,,,,,,,,,,,,p112,001,2025-02-14_11h42.28.081,posner_endo_new1,2024.2.4,60.127771514631334,2025-02-14 11h42.39.457424 +0000,
,,,,,,,,,,,,,,,,,,,,,,,,,,,,,,,,,,,,,,,,,,,,,,,,,,,,,,,,,,,,,,,,,,,,,379.1294863000003,379.14485090000016,379.14485090000016,439.1501513000003,440.93243059999986,space,61.78413360000013,None,,,,,,,p112,001,2025-02-14_11h42.28.081,posner_endo_new1,2024.2.4,60.127771514631334,2025-02-14 11h42.39.457424 +0000,
,,,,,,,,,,,,,,,,,,,,,,,,,,,,,,,,,,440.932480200001,440.94827650000116,443.95160600000054,443.92888440000024,,,,,,,,,,,,,,,,,,,,,,,,,,,,,,,,,,,,,,,,,,,,,,p112,001,2025-02-14_11h42.28.081,posner_endo_new1,2024.2.4,60.127771514631334,2025-02-14 11h42.39.457424 +0000,
cube_l.png,0.1,10,catch,0,0,0,up,12.753334499999255,None,None,,,,,,,,,,,0,0,0,0,443.95160600000054,,,,,,,,,,,,,443.94272230000024,443.95160600000054,443.95160600000054,443.95160600000054,456.7163638000002,,,,456.7226425000008,456.7344611999997,456.7344611999997,456.7822130000004,456.78245270000116,456.7985590999997,456.7985590999997,456.7985590999997,456.8817415000012,459.79590459999963,,,,458.8966173000008,459.8122411000004,459.8122411000004,459.8122411000004,,,,,,,,,,,,,,,up,12.753334499999255,None,None,,,p112,001,2025-02-14_11h42.28.081,posner_endo_new1,2024.2.4,60.127771514631334,2025-02-14 11h42.39.457424 +0000,
cube_l.png,0.1,10,catch,1,1,0,up,10.16427610000028,None,None,,,,,,,,,,,0,1,1,1,459.8122411000004,,,,,,,,,,,,,459.79607639999995,459.8122411000004,459.8122411000004,459.8122411000004,469.9858550000008,,,,469.99182140000084,470.00343749999956,470.00343749999956,470.05174530000113,470.0519826,470.0683158000011,470.0683158000011,470.0683158000011,470.1350745,473.0653777999996,,,,472.14960210000027,473.08216209999955,473.08216209999955,473.08216209999955,,,,,,,,,,,,,,,up,10.16427610000028,None,None,,,p112,001,2025-02-14_11h42.28.081,posner_endo_new1,2024.2.4,60.127771514631334,2025-02-14 11h42.39.457424 +0000,
cube_l.png,0.1,0.31,invalid,2,2,0,up,0.9905691999992996,None,space,0.45345240000096965,None,,,,,,,,,0,2,2,2,473.08216209999955,,,,,,,,,,,,,473.0655480000005,473.08216209999955,473.08216209999955,473.08216209999955,474.0816233000005,,,,474.0874942999999,474.099074400001,474.099074400001,474.1476285000008,474.1478637,474.16438220000055,474.16438220000055,474.16438220000055,474.23081660000025,474.6311153000006,,,,,,,,,,,,,,,,,,,,,,up,0.9905691999992996,None,space,0.45345240000096965,None,p112,001,2025-02-14_11h42.28.081,posner_endo_new1,2024.2.4,60.127771514631334,2025-02-14 11h42.39.457424 +0000,
cube_l.png,0.1,0.31,invalid,3,3,0,up,5.009798299999602,None,space,0.46720060000006924,None,,,,,,,,,0,3,3,3,474.6468662999996,,,,,,,,,,,,,474.6313038999997,474.6468662999996,474.6468662999996,474.6468662999996,479.6591150000004,,,,479.6650936999995,479.67673769999965,479.67673769999965,479.7253318000003,479.7255638000006,479.74175769999965,479.74175769999965,479.74175769999965,479.80866849999984,480.22533570000087,,,,,,,,,,,,,,,,,,,,,,up,5.009798299999602,None,space,0.46720060000006924,None,p112,001,2025-02-14_11h42.28.081,posner_endo_new1,2024.2.4,60.127771514631334,2025-02-14 11h42.39.457424 +0000,
cube_l.png,0.1,-0.31,valid,4,4,0,up,3.767081199999666,None,space,0.3232799999987037,None,,,,,,,,,0,4,4,4,480.24128480000036,,,,,,,,,,,,,480.2255275000007,480.24128480000036,480.24128480000036,480.24128480000036,484.0213827999996,,,,484.0273350000007,484.03877699999975,484.03877699999975,484.08723219999956,484.087465300001,484.10414070000115,484.10414070000115,484.10414070000115,484.17045789999975,484.4380911999997,,,,,,,,,,,,,,,,,,,,,,up,3.767081199999666,None,space,0.3232799999987037,None,p112,001,2025-02-14_11h42.28.081,posner_endo_new1,2024.2.4,60.127771514631334,2025-02-14 11h42.39.457424 +0000,
cube_r.png,0.1,-0.31,invalid,5,5,0,up,3.666779500001212,None,space,0.47545200000058685,None,,,,,,,,,0,5,5,5,484.45373760000075,,,,,,,,,,,,,484.43828030000077,484.45373760000075,484.45373760000075,484.45373760000075,488.1340753000004,,,,488.14007140000103,488.1516365999996,488.1516365999996,488.19969140000103,488.19992660000025,488.2163397000004,488.2163397000004,488.2163397000004,488.2995928,488.7000972000005,,,,,,,,,,,,,,,,,,,,,,up,3.666779500001212,None,space,0.47545200000058685,None,p112,001,2025-02-14_11h42.28.081,posner_endo_new1,2024.2.4,60.127771514631334,2025-02-14 11h42.39.457424 +0000,
cube_r.png,0.1,0.31,valid,6,6,0,up,5.22035809999943,None,space,0.3571935999989364,None,,,,,,,,,0,6,6,6,488.7159886999998,,,,,,,,,,,,,488.7002876000006,488.7159886999998,488.7159886999998,488.7159886999998,493.9446595999998,,,,493.9505202,493.9621428999999,493.9621428999999,494.0106814999999,494.01091180000003,494.0270897999999,494.0270897999999,494.0270897999999,494.1104212000009,494.3941926999996,,,,,,,,,,,,,,,,,,,,,,up,5.22035809999943,None,space,0.3571935999989364,None,p112,001,2025-02-14_11h42.28.081,posner_endo_new1,2024.2.4,60.127771514631334,2025-02-14 11h42.39.457424 +0000,
cube_r.png,0.1,-0.31,invalid,7,7,0,up,4.373649900000601,None,space,0.3230570000014268,None,,,,,,,,,0,7,7,7,494.4102713000011,,,,,,,,,,,,,494.39438490000066,494.4102713000011,494.4102713000011,494.4102713000011,498.78980200000115,,,,498.79568350000045,498.80721600000106,498.80721600000106,498.85561960000086,498.85585379999975,498.87214219999987,498.87214219999987,498.87214219999987,498.95569720000094,499.205874700001,,,,,,,,,,,,,,,,,,,,,,up,4.373649900000601,None,space,0.3230570000014268,None,p112,001,2025-02-14_11h42.28.081,posner_endo_new1,2024.2.4,60.127771514631334,2025-02-14 11h42.39.457424 +0000,
cube_l.png,0.1,-0.31,valid,8,8,0,up,4.243151900000157,None,space,0.38315330000114045,None,,,,,,,,,0,8,8,8,499.2217842000009,,,,,,,,,,,,,499.20605650000107,499.2217842000009,499.2217842000009,499.2217842000009,503.46816519999993,,,,503.4740524000008,503.4857348000005,503.4857348000005,503.5341848999997,503.5344170999997,503.55063750000045,503.55063750000045,503.55063750000045,503.61727410000094,503.93489820000104,,,,,,,,,,,,,,,,,,,,,,up,4.243151900000157,None,space,0.38315330000114045,None,p112,001,2025-02-14_11h42.28.081,posner_endo_new1,2024.2.4,60.127771514631334,2025-02-14 11h42.39.457424 +0000,
cube_r.png,0.1,-0.31,invalid,9,9,0,up,5.394525499999872,None,space,0.45643249999920954,None,,,,,,,,,0,9,9,9,503.95029910000085,,,,,,,,,,,,,503.93507900000077,503.95029910000085,503.95029910000085,503.95029910000085,509.3456387999995,,,,509.3515778000001,509.3631642,509.3631642,509.41171100000065,509.41194429999996,509.42832830000043,509.42832830000043,509.42832830000043,509.51123050000024,509.8953978999998,,,,,,,,,,,,,,,,,,,,,,up,5.394525499999872,None,space,0.45643249999920954,None,p112,001,2025-02-14_11h42.28.081,posner_endo_new1,2024.2.4,60.127771514631334,2025-02-14 11h42.39.457424 +0000,
cube_l.png,0.1,0.31,invalid,10,10,0,up,3.9138624999995955,None,space,0.32905419999951846,None,,,,,,,,,0,10,10,10,509.9108546000007,,,,,,,,,,,,,509.895585100001,509.9108546000007,509.9108546000007,509.9108546000007,513.8410774000004,,,,513.8470756999996,513.8585148000002,513.8585148000002,513.9072725000005,513.9075047999995,513.9235392999999,513.9235392999999,513.9235392999999,513.9899593999999,514.2574873000012,,,,,,,,,,,,,,,,,,,,,,up,3.9138624999995955,None,space,0.32905419999951846,None,p112,001,2025-02-14_11h42.28.081,posner_endo_new1,2024.2.4,60.127771514631334,2025-02-14 11h42.39.457424 +0000,
cube_r.png,0.1,-0.31,invalid,11,11,0,up,4.632122099999833,None,space,0.36771330000010494,None,,,,,,,,,0,11,11,11,514.2728414000012,,,,,,,,,,,,,514.2576718,514.2728414000012,514.2728414000012,514.2728414000012,518.9189741999999,,,,518.9249216999997,518.9366750000008,518.9366750000008,518.9850992000011,518.9853313000003,519.0014936000007,519.0014936000007,519.0014936000007,519.0680950000005,519.385411700001,,,,,,,,,,,,,,,,,,,,,,up,4.632122099999833,None,space,0.36771330000010494,None,p112,001,2025-02-14_11h42.28.081,posner_endo_new1,2024.2.4,60.127771514631334,2025-02-14 11h42.39.457424 +0000,
cube_r.png,0.1,0.31,valid,12,12,0,up,4.430619099999603,None,space,0.3075184999997873,None,,,,,,,,,0,12,12,12,519.4013484000006,,,,,,,,,,,,,519.3855922000002,519.4013484000006,519.4013484000006,519.4013484000006,523.8473642000008,,,,523.8532312000007,523.864902700001,523.864902700001,523.9133863999996,523.9136196,523.9300602000003,523.9300602000003,523.9300602000003,523.9968937000012,524.2468853000009,,,,,,,,,,,,,,,,,,,,,,up,4.430619099999603,None,space,0.3075184999997873,None,p112,001,2025-02-14_11h42.28.081,posner_endo_new1,2024.2.4,60.127771514631334,2025-02-14 11h42.39.457424 +0000,
cube_l.png,0.1,10,catch,13,13,0,up,5.178006300000561,None,None,,,,,,,,,,,0,13,13,13,524.2627737000003,,,,,,,,,,,,,524.2470797000005,524.2627737000003,524.2627737000003,524.2627737000003,529.4418182000009,,,,529.4477582,529.4594954000004,529.4594954000004,529.5075842000006,529.5078207999995,529.5240888999997,529.5240888999997,529.5240888999997,529.6073993000009,532.5215138000003,,,,531.6223566000008,532.5376474000004,532.5376474000004,532.5376474000004,,,,,,,,,,,,,,,up,5.178006300000561,None,None,,,p112,001,2025-02-14_11h42.28.081,posner_endo_new1,2024.2.4,60.127771514631334,2025-02-14 11h42.39.457424 +0000,
cube_r.png,0.1,-0.31,invalid,14,14,0,up,1.4951378000005207,None,space,0.5200382999992144,None,,,,,,,,,0,14,14,14,532.5376474000004,,,,,,,,,,,,,532.5216920000003,532.5376474000004,532.5376474000004,532.5376474000004,534.0370469999998,,,,534.0429681000005,534.0549874000008,534.0549874000008,534.102797900001,534.1030336000003,534.1196641999995,534.1196641999995,534.1196641999995,534.2026864,534.6529804000002,,,,,,,,,,,,,,,,,,,,,,up,1.4951378000005207,None,space,0.5200382999992144,None,p112,001,2025-02-14_11h42.28.081,posner_endo_new1,2024.2.4,60.127771514631334,2025-02-14 11h42.39.457424 +0000,
cube_l.png,0.1,-0.31,valid,15,15,0,up,5.891171100000065,None,space,0.3414563000005728,None,,,,,,,,,0,15,15,15,534.6687813999997,,,,,,,,,,,,,534.6531709999999,534.6687813999997,534.6687813999997,534.6687813999997,540.5637891999995,,,,540.5697338000009,540.5814324000003,540.5814324000003,540.6293280000009,540.6295590999998,540.6462929999998,540.6462929999998,540.6462929999998,540.7294813999997,540.9966263000006,,,,,,,,,,,,,,,,,,,,,,up,5.891171100000065,None,space,0.3414563000005728,None,p112,001,2025-02-14_11h42.28.081,posner_endo_new1,2024.2.4,60.127771514631334,2025-02-14 11h42.39.457424 +0000,
cube_r.png,0.1,10,catch,16,16,0,up,7.371934299999339,None,None,,,,,,,,,,,0,16,16,16,541.0123934000003,,,,,,,,,,,,,540.9968208000009,541.0123934000003,541.0123934000003,541.0123934000003,548.3890971000001,,,,548.3952614999998,548.4069207000011,548.4069207000011,548.4549707000006,548.4552050000002,548.4714767000005,548.4714767000005,548.4714767000005,548.5380985000011,551.4686503000012,,,,550.5526373000012,551.4850428999998,551.4850428999998,551.4850428999998,,,,,,,,,,,,,,,up,7.371934299999339,None,None,,,p112,001,2025-02-14_11h42.28.081,posner_endo_new1,2024.2.4,60.127771514631334,2025-02-14 11h42.39.457424 +0000,
cube_r.png,0.1,10,catch,17,17,0,up,1.2201535000003787,None,None,,,,,,,,,,,0,17,17,17,551.4850428999998,,,,,,,,,,,,,551.4688220999997,551.4850428999998,551.4850428999998,551.4850428999998,552.7179451000011,,,,552.7237641000011,552.7353702,552.7353702,552.7837274000012,552.783965300001,552.8002940000006,552.8002940000006,552.8002940000006,552.8834007000005,555.7977314,,,,554.8982273000001,555.8138940000008,555.8138940000008,555.8138940000008,,,,,,,,,,,,,,,up,1.2201535000003787,None,None,,,p112,001,2025-02-14_11h42.28.081,posner_endo_new1,2024.2.4,60.127771514631334,2025-02-14 11h42.39.457424 +0000,
cube_l.png,0.1,0.31,invalid,18,18,0,up,0.44210799999927985,None,space,0.5170854999996664,None,,,,,,,,,0,18,18,18,555.8138940000008,,,,,,,,,,,,,555.7979018999995,555.8138940000008,555.8138940000008,555.8138940000008,556.2641968999997,,,,556.2701164000009,556.2815580999995,556.2815580999995,556.3299363000006,556.3301724000012,556.3467648999995,556.3467648999995,556.3467648999995,556.4135593999999,556.8802207999997,,,,,,,,,,,,,,,,,,,,,,up,0.44210799999927985,None,space,0.5170854999996664,None,p112,001,2025-02-14_11h42.28.081,posner_endo_new1,2024.2.4,60.127771514631334,2025-02-14 11h42.39.457424 +0000,
cube_l.png,0.1,10,catch,19,19,0,up,3.168522900001335,None,None,,,,,,,,,,,0,19,19,19,556.8963029000006,,,,,,,,,,,,,556.8804042000011,556.8963029000006,556.8963029000006,556.8963029000006,560.0769486999998,,,,560.0828837000008,560.094332300001,560.094332300001,560.1426819000008,560.142917000001,560.1595173000005,560.1595173000005,560.1595173000005,560.2263000000003,563.1570345,,,,562.2406625000003,563.1730000000007,563.1730000000007,563.1730000000007,,,,,,,,,,,,,,,up,3.168522900001335,None,None,,,p112,001,2025-02-14_11h42.28.081,posner_endo_new1,2024.2.4,60.127771514631334,2025-02-14 11h42.39.457424 +0000,
cube_l.png,0.1,0.31,invalid,20,20,0,up,0.7558351000006951,None,space,0.45832619999964663,None,,,,,,,,,0,20,20,20,563.1730000000007,,,,,,,,,,,,,563.1572140000007,563.1730000000007,563.1730000000007,563.1730000000007,563.9399001000002,,,,563.9458599999998,563.9573476000005,563.9573476000005,564.0056120999998,564.0058487000006,564.0221517000009,564.0221517000009,564.0221517000009,564.1054327000002,564.4891705999999,,,,,,,,,,,,,,,,,,,,,,up,0.7558351000006951,None,space,0.45832619999964663,None,p112,001,2025-02-14_11h42.28.081,posner_endo_new1,2024.2.4,60.127771514631334,2025-02-14 11h42.39.457424 +0000,
cube_l.png,0.1,-0.31,valid,21,21,0,up,4.103813600000649,None,space,0.36723150000034366,None,,,,,,,,,0,21,21,21,564.5048181000002,,,,,,,,,,,,,564.4893522000002,564.5048181000002,564.5048181000002,564.5048181000002,568.6183146000003,,,,568.6242115000005,568.6358101999995,568.6358101999995,568.6843578000007,568.6845912999997,568.7007021999998,568.7007021999998,568.7007021999998,568.7675830999997,569.0847547000012,,,,,,,,,,,,,,,,,,,,,,up,4.103813600000649,None,space,0.36723150000034366,None,p112,001,2025-02-14_11h42.28.081,posner_endo_new1,2024.2.4,60.127771514631334,2025-02-14 11h42.39.457424 +0000,
cube_r.png,0.1,0.31,valid,22,22,0,up,3.4285338999998203,None,space,0.2851480999997875,None,,,,,,,,,0,22,22,22,569.1003412000009,,,,,,,,,,,,,569.0849372000011,569.1003412000009,569.1003412000009,569.1003412000009,572.5310043000009,,,,572.5369031999999,572.5485561000005,572.5485561000005,572.5965226999997,572.5967572000009,572.6133085000001,572.6133085000001,572.6133085000001,572.6965230000005,572.9136040000012,,,,,,,,,,,,,,,,,,,,,,up,3.4285338999998203,None,space,0.2851480999997875,None,p112,001,2025-02-14_11h42.28.081,posner_endo_new1,2024.2.4,60.127771514631334,2025-02-14 11h42.39.457424 +0000,
cube_r.png,0.1,-0.31,invalid,23,23,0,up,4.64639950000128,None,space,0.3184042999982921,None,,,,,,,,,0,23,23,23,572.9297352000012,,,,,,,,,,,,,572.9137847000002,572.9297352000012,572.9297352000012,572.9297352000012,577.5925191999995,,,,577.598514700001,577.6099945999995,577.6099945999995,577.6580699999995,577.6583021999995,577.6747966000003,577.6747966000003,577.6747966000003,577.7580959999996,578.0087242000009,,,,,,,,,,,,,,,,,,,,,,up,4.64639950000128,None,space,0.3184042999982921,None,p112,001,2025-02-14_11h42.28.081,posner_endo_new1,2024.2.4,60.127771514631334,2025-02-14 11h42.39.457424 +0000,
cube_r.png,0.1,0.31,valid,24,24,0,up,5.495351199999277,None,space,0.33755530000053113,None,,,,,,,,,0,24,24,24,578.0245004000008,,,,,,,,,,,,,578.0089134000009,578.0245004000008,578.0245004000008,578.0245004000008,583.536113600001,,,,583.5421556000001,583.5537201999996,583.5537201999996,583.6021337000002,583.6023676000004,583.6188073000012,583.6188073000012,583.6188073000012,583.6854732000011,583.9691655000006,,,,,,,,,,,,,,,,,,,,,,up,5.495351199999277,None,space,0.33755530000053113,None,p112,001,2025-02-14_11h42.28.081,posner_endo_new1,2024.2.4,60.127771514631334,2025-02-14 11h42.39.457424 +0000,
cube_r.png,0.1,-0.31,invalid,25,25,0,up,4.438989300000685,None,space,0.4051397999992332,None,,,,,,,,,0,25,25,25,583.9851029000001,,,,,,,,,,,,,583.9693492999995,583.9851029000001,583.9851029000001,583.9851029000001,588.4313445999996,,,,588.4375548000007,588.4494479000005,588.4494479000005,588.4970009999997,588.4972343999998,588.5137327000011,588.5137327000011,588.5137327000011,588.5967944000004,588.9311717,,,,,,,,,,,,,,,,,,,,,,up,4.438989300000685,None,space,0.4051397999992332,None,p112,001,2025-02-14_11h42.28.081,posner_endo_new1,2024.2.4,60.127771514631334,2025-02-14 11h42.39.457424 +0000,
cube_l.png,0.1,-0.31,valid,26,26,0,up,3.2697518999993918,None,space,0.5367643000008684,None,,,,,,,,,0,26,26,26,588.9469098000009,,,,,,,,,,,,,588.931354100001,588.9469098000009,588.9469098000009,588.9469098000009,592.2273657999995,,,,592.2333517999996,592.2447781999999,592.2447781999999,592.2933293999995,592.2935663999997,592.3096642,592.3096642,592.3096642,592.3762334000003,592.8601385000002,,,,,,,,,,,,,,,,,,,,,,up,3.2697518999993918,None,space,0.5367643000008684,None,p112,001,2025-02-14_11h42.28.081,posner_endo_new1,2024.2.4,60.127771514631334,2025-02-14 11h42.39.457424 +0000,
cube_r.png,0.1,0.31,valid,27,27,0,up,4.860218600000735,None,space,0.42240570000103617,None,,,,,,,,,0,27,27,27,592.876031400001,,,,,,,,,,,,,592.8603230999997,592.876031400001,592.876031400001,592.876031400001,597.7385150000009,,,,597.7444316000001,597.7561673,597.7561673,597.8041966000001,597.8044268000012,597.8209685000002,597.8209685000002,597.8209685000002,597.8874610000003,598.2545217999996,,,,,,,,,,,,,,,,,,,,,,up,4.860218600000735,None,space,0.42240570000103617,None,p112,001,2025-02-14_11h42.28.081,posner_endo_new1,2024.2.4,60.127771514631334,2025-02-14 11h42.39.457424 +0000,
cube_r.png,0.1,10,catch,28,28,0,up,4.234429400001318,None,None,,,,,,,,,,,0,28,28,28,598.2703742000012,,,,,,,,,,,,,598.2547078999996,598.2703742000012,598.2703742000012,598.2703742000012,602.5167560999998,,,,602.5226846999994,602.5343768000002,602.5343768000002,602.5827041000011,602.5829388000002,602.5991236000009,602.5991236000009,602.5991236000009,602.6657974000009,605.5969298,,,,604.6806878999996,605.6131382000003,605.6131382000003,605.6131382000003,,,,,,,,,,,,,,,up,4.234429400001318,None,None,,,p112,001,2025-02-14_11h42.28.081,posner_endo_new1,2024.2.4,60.127771514631334,2025-02-14 11h42.39.457424 +0000,
cube_r.png,0.1,0.31,valid,29,29,0,up,1.5635971000010613,None,space,0.581563499999902,None,,,,,,,,,0,29,29,29,605.6131382000003,,,,,,,,,,,,,605.5971017000011,605.6131382000003,605.6131382000003,605.6131382000003,607.1787240000012,,,,607.184752000001,607.1963389000011,607.1963389000011,607.2447525000007,607.2449980000001,607.2612573999995,607.2612573999995,607.2612573999995,607.3441741999995,607.8450157999996,,,,,,,,,,,,,,,,,,,,,,up,1.5635971000010613,None,space,0.581563499999902,None,p112,001,2025-02-14_11h42.28.081,posner_endo_new1,2024.2.4,60.127771514631334,2025-02-14 11h42.39.457424 +0000,
cube_r.png,0.1,0.31,valid,30,30,0,up,3.9557614000004833,None,space,0.39725220000036643,None,,,,,,,,,0,30,30,30,607.8603894999997,,,,,,,,,,,,,607.8452071000011,607.8603894999997,607.8603894999997,607.8603894999997,611.824313000001,,,,611.8302798000004,611.8419539999995,611.8419539999995,611.8898413999996,611.8900713000003,611.9064013000007,611.9064013000007,611.9064013000007,611.989669300001,612.3068867000002,,,,,,,,,,,,,,,,,,,,,,up,3.9557614000004833,None,space,0.39725220000036643,None,p112,001,2025-02-14_11h42.28.081,posner_endo_new1,2024.2.4,60.127771514631334,2025-02-14 11h42.39.457424 +0000,
cube_l.png,0.1,-0.31,valid,31,31,0,up,4.64591560000008,None,space,0.5114376000001357,None,,,,,,,,,0,31,31,31,612.3222409000009,,,,,,,,,,,,,612.3070705999999,612.3222409000009,612.3222409000009,612.3222409000009,616.9689767,,,,616.974928900001,616.9867188000007,616.9867188000007,617.0346902000001,617.0349260000003,617.0511275000008,617.0511275000008,617.0511275000008,617.1343115,617.5681789000009,,,,,,,,,,,,,,,,,,,,,,up,4.64591560000008,None,space,0.5114376000001357,None,p112,001,2025-02-14_11h42.28.081,posner_endo_new1,2024.2.4,60.127771514631334,2025-02-14 11h42.39.457424 +0000,
cube_r.png,0.1,0.31,valid,32,32,0,up,3.1932858000000124,None,space,0.32467719999840483,None,,,,,,,,,0,32,32,32,617.583540900001,,,,,,,,,,,,,617.5683679000012,617.583540900001,617.583540900001,617.583540900001,620.7813716,,,,620.7872549000003,620.7989514000001,620.7989514000001,620.8469313000005,620.8471659999996,620.8639717000005,620.8639717000005,620.8639717000005,620.947291800001,621.197627900001,,,,,,,,,,,,,,,,,,,,,,up,3.1932858000000124,None,space,0.32467719999840483,None,p112,001,2025-02-14_11h42.28.081,posner_endo_new1,2024.2.4,60.127771514631334,2025-02-14 11h42.39.457424 +0000,
cube_r.png,0.1,-0.31,invalid,33,33,0,up,4.834977399999843,None,space,0.3505678999990778,None,,,,,,,,,0,33,33,33,621.2137436000012,,,,,,,,,,,,,621.1978216000007,621.2137436000012,621.2137436000012,621.2137436000012,626.0594300000012,,,,626.0653781000001,626.077009300001,626.077009300001,626.1252927000005,626.1255249999995,626.1418986000008,626.1418986000008,626.1418986000008,626.2247557999999,626.5089444000005,,,,,,,,,,,,,,,,,,,,,,up,4.834977399999843,None,space,0.3505678999990778,None,p112,001,2025-02-14_11h42.28.081,posner_endo_new1,2024.2.4,60.127771514631334,2025-02-14 11h42.39.457424 +0000,
cube_r.png,0.1,10,catch,34,34,0,up,4.748053699999218,None,space,0.2338086999989173,None,,,,,,,,,0,34,34,34,626.524748400001,,,,,,,,,,,,,626.5091231999995,626.524748400001,626.524748400001,626.524748400001,631.2873574000005,,,,631.2932614000001,631.3048283000007,631.3048283000007,631.3534099999997,631.3536474000011,631.3701213000004,631.3701213000004,631.3701213000004,631.4532028000012,631.620331600001,,,,,,,,,,,,,,,,,,,,,,up,4.748053699999218,None,space,0.2338086999989173,None,p112,001,2025-02-14_11h42.28.081,posner_endo_new1,2024.2.4,60.127771514631334,2025-02-14 11h42.39.457424 +0000,
cube_r.png,0.1,0.31,valid,35,35,0,up,5.348712900000464,None,space,0.31497810000109894,None,,,,,,,,,0,35,35,35,631.6360839000008,,,,,,,,,,,,,631.6205145000004,631.6360839000008,631.6360839000008,631.6360839000008,636.9979538999996,,,,637.0038138,637.0154543999997,637.0154543999997,637.0640678,637.0643074,637.0806744000001,637.0806744000001,637.0806744000001,637.1473640000004,637.3981022999997,,,,,,,,,,,,,,,,,,,,,,up,5.348712900000464,None,space,0.31497810000109894,None,p112,001,2025-02-14_11h42.28.081,posner_endo_new1,2024.2.4,60.127771514631334,2025-02-14 11h42.39.457424 +0000,
cube_r.png,0.1,-0.31,invalid,36,36,0,up,4.60253449999982,None,space,0.2903353999990941,None,,,,,,,,,0,36,36,36,637.4138029999995,,,,,,,,,,,,,637.3982842000005,637.4138029999995,637.4138029999995,637.4138029999995,642.0265448999999,,,,642.0324325000001,642.0439193000002,642.0439193000002,642.0922570000002,642.092486900001,642.1088911999996,642.1088911999996,642.1088911999996,642.1921569999995,642.4090403999999,,,,,,,,,,,,,,,,,,,,,,up,4.60253449999982,None,space,0.2903353999990941,None,p112,001,2025-02-14_11h42.28.081,posner_endo_new1,2024.2.4,60.127771514631334,2025-02-14 11h42.39.457424 +0000,
cube_l.png,0.1,0.31,invalid,37,37,0,up,5.702482799999416,None,space,0.34947699999975157,None,,,,,,,,,0,37,37,37,642.4253378000012,,,,,,,,,,,,,642.4092318000003,642.4253378000012,642.4253378000012,642.4253378000012,648.1369672000001,,,,648.1429067000008,648.1545855000004,648.1545855000004,648.2027529999996,648.2029825000009,648.2190572,648.2190572,648.2190572,648.3026852000003,648.5698690000008,,,,,,,,,,,,,,,,,,,,,,up,5.702482799999416,None,space,0.34947699999975157,None,p112,001,2025-02-14_11h42.28.081,posner_endo_new1,2024.2.4,60.127771514631334,2025-02-14 11h42.39.457424 +0000,
cube_l.png,0.1,0.31,invalid,38,38,0,up,4.4867634000002,None,space,0.2897443999991083,None,,,,,,,,,0,38,38,38,648.5857229000012,,,,,,,,,,,,,648.5700522999996,648.5857229000012,648.5857229000012,648.5857229000012,653.0817797,,,,653.0877381999999,653.0993802000012,653.0993802000012,653.1476230999997,653.1478562000011,653.1643199000009,653.1643199000009,653.1643199000009,653.2307848,653.4647623000001,,,,,,,,,,,,,,,,,,,,,,up,4.4867634000002,None,space,0.2897443999991083,None,p112,001,2025-02-14_11h42.28.081,posner_endo_new1,2024.2.4,60.127771514631334,2025-02-14 11h42.39.457424 +0000,
cube_r.png,0.1,0.31,valid,39,39,0,up,5.495354500000758,None,space,0.3800864000004367,None,,,,,,,,,0,39,39,39,653.4804643000007,,,,,,,,,,,,,653.4649437000007,653.4804643000007,653.4804643000007,653.4804643000007,658.9924326,,,,658.9983021999997,659.0097977000005,659.0097977000005,659.0581990999999,659.0584317000012,659.0747843000008,659.0747843000008,659.0747843000008,659.1578823,659.4585580000003,,,,,,,,,,,,,,,,,,,,,,up,5.495354500000758,None,space,0.3800864000004367,None,p112,001,2025-02-14_11h42.28.081,posner_endo_new1,2024.2.4,60.127771514631334,2025-02-14 11h42.39.457424 +0000,
cube_l.png,0.1,0.31,invalid,40,40,0,up,4.982447899999897,None,space,0.38994300000013027,None,,,,,,,,,0,40,40,40,659.474285100001,,,,,,,,,,,,,659.4587388,659.474285100001,659.474285100001,659.474285100001,664.4699763999997,,,,664.4758535000001,664.4874347000004,664.4874347000004,664.536057700001,664.5362877000007,664.5525976999998,664.5525976999998,664.5525976999998,664.618999100001,664.9525255999997,,,,,,,,,,,,,,,,,,,,,,up,4.982447899999897,None,space,0.38994300000013027,None,p112,001,2025-02-14_11h42.28.081,posner_endo_new1,2024.2.4,60.127771514631334,2025-02-14 11h42.39.457424 +0000,
cube_l.png,0.1,10,catch,41,41,0,up,5.383802599999399,None,None,,,,,,,,,,,0,41,41,41,664.9688287999998,,,,,,,,,,,,,664.9527161999995,664.9688287999998,664.9688287999998,664.9688287999998,670.3641676999996,,,,670.3700466000009,670.3816391,670.3816391,670.4303345999997,670.4305658000012,670.4465402000005,670.4465402000005,670.4465402000005,670.5296784000002,673.4440073999995,,,,672.5442481999999,673.4602852000007,673.4602852000007,673.4602852000007,,,,,,,,,,,,,,,up,5.383802599999399,None,None,,,p112,001,2025-02-14_11h42.28.081,posner_endo_new1,2024.2.4,60.127771514631334,2025-02-14 11h42.39.457424 +0000,
cube_l.png,0.1,-0.31,valid,42,42,0,up,2.140166799999861,None,space,0.5416614999994636,None,,,,,,,,,0,42,42,42,673.4602852000007,,,,,,,,,,,,,673.4441848000006,673.4602852000007,673.4602852000007,673.4602852000007,675.6088892999996,,,,675.6147605000006,675.6265221000012,675.6265221000012,675.6745568000006,675.6747876000009,675.6910597000006,675.6910597000006,675.6910597000006,675.7743616999996,676.2413637000009,,,,,,,,,,,,,,,,,,,,,,up,2.140166799999861,None,space,0.5416614999994636,None,p112,001,2025-02-14_11h42.28.081,posner_endo_new1,2024.2.4,60.127771514631334,2025-02-14 11h42.39.457424 +0000,
cube_l.png,0.1,10,catch,43,43,0,up,3.927921399999832,None,None,,,,,,,,,,,0,43,43,43,676.2571949000012,,,,,,,,,,,,,676.2415443000009,676.2571949000012,676.2571949000012,676.2571949000012,680.1872375000003,,,,680.1931621000003,680.2047694000012,680.2047694000012,680.253302000001,680.253538500001,680.2698469000006,680.2698469000006,680.2698469000006,680.3364808000006,683.2670517000006,,,,682.3508524999997,683.2833102000004,683.2833102000004,683.2833102000004,,,,,,,,,,,,,,,up,3.927921399999832,None,None,,,p112,001,2025-02-14_11h42.28.081,posner_endo_new1,2024.2.4,60.127771514631334,2025-02-14 11h42.39.457424 +0000,
cube_l.png,0.1,0.31,invalid,44,44,0,up,0.8135115000004589,None,space,0.3970943000003899,None,,,,,,,,,0,44,44,44,683.2833102000004,,,,,,,,,,,,,683.2672246000002,683.2833102000004,683.2833102000004,683.2833102000004,684.1000801000009,,,,684.1060238000009,684.1175206000007,684.1175206000007,684.1661564000005,684.1663872999998,684.1823549000001,684.1823549000001,684.1823549000001,684.2488391999996,684.5830845,,,,,,,,,,,,,,,,,,,,,,up,0.8135115000004589,None,space,0.3970943000003899,None,p112,001,2025-02-14_11h42.28.081,posner_endo_new1,2024.2.4,60.127771514631334,2025-02-14 11h42.39.457424 +0000,
cube_l.png,0.1,0.31,invalid,45,45,0,up,3.234539600000062,None,space,0.3412506000004214,None,,,,,,,,,0,45,45,45,684.5986651000003,,,,,,,,,,,,,684.5832652999998,684.5986651000003,684.5986651000003,684.5986651000003,687.8460787000004,,,,687.8519828000008,687.8637660000004,687.8637660000004,687.9118620999998,687.9120963000005,687.9288362999996,687.9288362999996,687.9288362999996,687.995133800001,688.2789062000011,,,,,,,,,,,,,,,,,,,,,,up,3.234539600000062,None,space,0.3412506000004214,None,p112,001,2025-02-14_11h42.28.081,posner_endo_new1,2024.2.4,60.127771514631334,2025-02-14 11h42.39.457424 +0000,
cube_r.png,0.1,0.31,valid,46,46,0,up,3.7616877000000386,None,space,0.387256800000614,None,,,,,,,,,0,46,46,46,688.2948462000004,,,,,,,,,,,,,688.2790974,688.2948462000004,688.2948462000004,688.2948462000004,692.0586248,,,,692.0645870999997,692.0764337,692.0764337,692.1242514999994,692.1244836999995,692.1408663000002,692.1408663000002,692.1408663000002,692.2242017999997,692.5413160000007,,,,,,,,,,,,,,,,,,,,,,up,3.7616877000000386,None,space,0.387256800000614,None,p112,001,2025-02-14_11h42.28.081,posner_endo_new1,2024.2.4,60.127771514631334,2025-02-14 11h42.39.457424 +0000,
cube_l.png,0.1,-0.31,valid,47,47,0,up,3.0358084999988932,None,space,0.5742090000003373,None,,,,,,,,,0,47,47,47,692.5565961000011,,,,,,,,,,,,,692.5415057999999,692.5565961000011,692.5565961000011,692.5565961000011,695.6046501000001,,,,695.6105872999997,695.6222013000006,695.6222013000006,695.6707884000007,695.671027800001,695.687527600001,695.687527600001,695.687527600001,695.7537857999996,696.2708628,,,,,,,,,,,,,,,,,,,,,,up,3.0358084999988932,None,space,0.5742090000003373,None,p112,001,2025-02-14_11h42.28.081,posner_endo_new1,2024.2.4,60.127771514631334,2025-02-14 11h42.39.457424 +0000,
cube_r.png,0.1,-0.31,invalid,48,48,0,up,3.3614674000000377,None,space,0.3113496000005398,None,,,,,,,,,0,48,48,48,696.2866728000008,,,,,,,,,,,,,696.2710578999995,696.2866728000008,696.2866728000008,696.2866728000008,699.6508207999996,,,,699.6567677000003,699.6686490000011,699.6686490000011,699.7169953000011,699.7172287000012,699.7332193000002,699.7332193000002,699.7332193000002,699.816622100001,700.0502166999995,,,,,,,,,,,,,,,,,,,,,,up,3.3614674000000377,None,space,0.3113496000005398,None,p112,001,2025-02-14_11h42.28.081,posner_endo_new1,2024.2.4,60.127771514631334,2025-02-14 11h42.39.457424 +0000,
cube_r.png,0.1,10,catch,49,49,0,up,3.9744476999985636,None,space,0.2807990000001155,None,,,,,,,,,0,49,49,49,700.0660693999998,,,,,,,,,,,,,700.0503960999995,700.0660693999998,700.0660693999998,700.0660693999998,704.0462645000007,,,,704.0522082999996,704.0640444000001,704.0640444000001,704.1121667000007,704.1124027999995,704.1285888000002,704.1285888000002,704.1285888000002,704.1954268999998,704.4123830999997,,,,,,,,,,,,,,,,,,,,,,up,3.9744476999985636,None,space,0.2807990000001155,None,p112,001,2025-02-14_11h42.28.081,posner_endo_new1,2024.2.4,60.127771514631334,2025-02-14 11h42.39.457424 +0000,
cube_l.png,0.1,-0.31,valid,50,50,0,up,5.596187000001009,None,space,0.3911530999994284,None,,,,,,,,,0,50,50,50,704.4282019000002,,,,,,,,,,,,,704.4125736999995,704.4282019000002,704.4282019000002,704.4282019000002,710.0400883000002,,,,710.0463393999999,710.0579830000006,710.0579830000006,710.1059550000009,710.1061883000002,710.1224887999997,710.1224887999997,710.1224887999997,710.2052478000005,710.5228335000011,,,,,,,,,,,,,,,,,,,,,,up,5.596187000001009,None,space,0.3911530999994284,None,p112,001,2025-02-14_11h42.28.081,posner_endo_new1,2024.2.4,60.127771514631334,2025-02-14 11h42.39.457424 +0000,
cube_l.png,0.1,-0.31,valid,51,51,0,up,3.6687235000008513,None,space,0.38261749999946915,None,,,,,,,,,0,51,51,51,710.5389874000011,,,,,,,,,,,,,710.5230176000005,710.5389874000011,710.5389874000011,710.5389874000011,714.2193594,,,,714.2267950000005,714.2379539000012,714.2379539000012,714.2846017000011,714.2848474000002,714.3015653000002,714.3015653000002,714.3015653000002,714.3847645000005,714.6857928000009,,,,,,,,,,,,,,,,,,,,,,up,3.6687235000008513,None,space,0.38261749999946915,None,p112,001,2025-02-14_11h42.28.081,posner_endo_new1,2024.2.4,60.127771514631334,2025-02-14 11h42.39.457424 +0000,
cube_r.png,0.1,-0.31,invalid,52,52,0,up,8.68384209999931,None,space,0.30143710000083956,None,,,,,,,,,0,52,52,52,714.7008736999996,,,,,,,,,,,,,714.6859858999997,714.7008736999996,714.7008736999996,714.7008736999996,723.3929312,,,,723.4004848000004,723.4118742999999,723.4118742999999,723.4591872000001,723.4594335000002,723.4754821999995,723.4754821999995,723.4754821999995,723.5420726000011,723.7924679000007,,,,,,,,,,,,,,,,,,,,,,up,8.68384209999931,None,space,0.30143710000083956,None,p112,001,2025-02-14_11h42.28.081,posner_endo_new1,2024.2.4,60.127771514631334,2025-02-14 11h42.39.457424 +0000,
cube_l.png,0.1,-0.31,valid,53,53,0,up,4.3921738999997615,None,space,0.326829199999338,None,,,,,,,,,0,53,53,53,723.8086218999997,,,,,,,,,,,,,723.7926805999996,723.8086218999997,723.8086218999997,723.8086218999997,728.2052499000001,,,,728.2126175000012,728.2237901000008,728.2237901000008,728.2706846000001,728.2709331999995,728.2870939000004,728.2870939000004,728.2870939000004,728.3706741999995,728.6212503999996,,,,,,,,,,,,,,,,,,,,,,up,4.3921738999997615,None,space,0.326829199999338,None,p112,001,2025-02-14_11h42.28.081,posner_endo_new1,2024.2.4,60.127771514631334,2025-02-14 11h42.39.457424 +0000,
cube_r.png,0.1,10,catch,54,54,0,up,4.387052200001563,None,None,,,,,,,,,,,0,54,54,54,728.6369728999998,,,,,,,,,,,,,728.6214438000006,728.6369728999998,728.6369728999998,728.6369728999998,733.0331889000008,,,,733.0404562000003,733.0521112000006,733.0521112000006,733.0989936000005,733.0992406000005,733.1153598000001,733.1153598000001,733.1153598000001,733.1987496000002,736.1129036000002,,,,735.2136717000012,736.1292513000008,736.1292513000008,736.1292513000008,,,,,,,,,,,,,,,up,4.387052200001563,None,None,,,p112,001,2025-02-14_11h42.28.081,posner_endo_new1,2024.2.4,60.127771514631334,2025-02-14 11h42.39.457424 +0000,
cube_l.png,0.1,0.31,invalid,55,55,0,up,2.3744948000003205,None,space,0.5299221999994188,None,,,,,,,,,0,55,55,55,736.1292513000008,,,,,,,,,,,,,736.1130881999998,736.1292513000008,736.1292513000008,736.1292513000008,738.5110244999996,,,,738.5182205000001,738.5296584000007,738.5296584000007,738.5768626999998,738.5770974999996,738.5934109999998,738.5934109999998,738.5934109999998,738.6766058000012,739.1270420000001,,,,,,,,,,,,,,,,,,,,,,up,2.3744948000003205,None,space,0.5299221999994188,None,p112,001,2025-02-14_11h42.28.081,posner_endo_new1,2024.2.4,60.127771514631334,2025-02-14 11h42.39.457424 +0000,
cube_l.png,0.1,-0.31,valid,56,56,0,up,3.945803099999466,None,space,0.3599309000001085,None,,,,,,,,,0,56,56,56,739.1428092999995,,,,,,,,,,,,,739.1272320999997,739.1428092999995,739.1428092999995,739.1428092999995,743.0899191999997,,,,743.0989317000003,743.1091536000004,743.1091536000004,743.1556268000004,743.1559106000004,743.1719436000003,743.1719436000003,743.1719436000003,743.2552124000013,743.5393669000005,,,,,,,,,,,,,,,,,,,,,,up,3.945803099999466,None,space,0.3599309000001085,None,p112,001,2025-02-14_11h42.28.081,posner_endo_new1,2024.2.4,60.127771514631334,2025-02-14 11h42.39.457424 +0000,
cube_r.png,0.1,0.31,valid,57,57,0,up,4.20537449999938,None,space,0.26665000000139116,None,,,,,,,,,0,57,57,57,743.5549979999996,,,,,,,,,,,,,743.5396027999996,743.5549979999996,743.5549979999996,743.5549979999996,747.7684332999997,,,,747.7775419000009,747.7878259000008,747.7878259000008,747.8335970999997,747.8338776,747.8504854000003,747.8504854000003,747.8504854000003,747.9338248000004,748.1182272000005,,,,,,,,,,,,,,,,,,,,,,up,4.20537449999938,None,space,0.26665000000139116,None,p112,001,2025-02-14_11h42.28.081,posner_endo_new1,2024.2.4,60.127771514631334,2025-02-14 11h42.39.457424 +0000,
cube_r.png,0.1,-0.31,invalid,58,58,0,up,4.403458299999329,None,space,0.3238617000006343,None,,,,,,,,,0,58,58,58,748.1335472999999,,,,,,,,,,,,,748.1184591000001,748.1335472999999,748.1335472999999,748.1335472999999,752.5466940999995,,,,752.5553672000005,752.565725800001,752.565725800001,752.6125527000004,752.6128392999999,752.6288915000005,752.6288915000005,752.6288915000005,752.7123294000012,752.9632435000003,,,,,,,,,,,,,,,,,,,,,,up,4.403458299999329,None,space,0.3238617000006343,None,p112,001,2025-02-14_11h42.28.081,posner_endo_new1,2024.2.4,60.127771514631334,2025-02-14 11h42.39.457424 +0000,
cube_l.png,0.1,0.31,invalid,59,59,0,up,3.8534851999993407,None,space,0.36468260000037844,None,,,,,,,,,0,59,59,59,752.9789240000009,,,,,,,,,,,,,752.9634855000004,752.9789240000009,752.9789240000009,752.9789240000009,756.8423939000004,,,,756.8512924000006,756.8618246000005,756.8618246000005,756.9083158000012,756.9086002000004,756.924521500001,756.924521500001,756.924521500001,757.0077559000001,757.2920448000004,,,,,,,,,,,,,,,,,,,,,,up,3.8534851999993407,None,space,0.36468260000037844,None,p112,001,2025-02-14_11h42.28.081,posner_endo_new1,2024.2.4,60.127771514631334,2025-02-14 11h42.39.457424 +0000,
