cue_img,cue_soa,target_x,trial,thisN,thisTrialN,thisRepN,key_control2.keys,key_control2.rt,key_control2.duration,key_resp.keys,key_resp.rt,key_resp.duration,practice.thisRepN,practice.thisTrialN,practice.thisN,practice.thisIndex,block1.thisRepN,block1.thisTrialN,block1.thisN,block1.thisIndex,block2.thisRepN,block2.thisTrialN,block2.thisN,block2.thisIndex,thisRow.t,notes,instructions.started,instructions_txt.started,key_control.started,instructions.stopped,key_control.keys,key_control.rt,key_control.duration,ready.started,ready_txt.started,ready_txt.stopped,ready.stopped,fix.started,fixation.started,key_control2.started,fixation_cross.started,fix.stopped,practice.key_control2.keys,practice.key_control2.rt,practice.key_control2.duration,cue.started,cube.started,fixation_cross_cue.started,cue.stopped,target.started,fixation_target.started,fixation_cross_target.started,key_resp.started,star.started,target.stopped,practice.key_resp.keys,practice.key_resp.rt,practice.key_resp.duration,star.stopped,fixation_target.stopped,fixation_cross_target.stopped,key_resp.stopped,block1.key_control2.keys,block1.key_control2.rt,block1.key_control2.duration,block1.key_resp.keys,block1.key_resp.rt,block1.key_resp.duration,break_2.started,text.started,key_control3.started,text.stopped,break_2.stopped,key_control3.keys,key_control3.rt,key_control3.duration,block2.key_control2.keys,block2.key_control2.rt,block2.key_control2.duration,block2.key_resp.keys,block2.key_resp.rt,block2.key_resp.duration,participant,session,date,expName,psychopyVersion,frameRate,expStart,
,,,,,,,,,,,,,,,,,,,,,,,,,,,0.0076778999999760345,0.031092999999998483,0.031092999999998483,72.56229400000001,up,72.51693980000005,None,,,,,,,,,,,,,,,,,,,,,,,,,,,,,,,,,,,,,,,,,,,,,,,,,,P113,001,2025-02-17_12h15.16.712,posner_endo_new1,2024.2.4,60.20741454310437,2025-02-17 12h15.30.187991 +0000,
,,,,,,,,,,,,,,,,,,,,,,,,,,,,,,,,,,72.5623668,72.57631579999997,75.58295520000001,75.557163,,,,,,,,,,,,,,,,,,,,,,,,,,,,,,,,,,,,,,,,,,,,,,P113,001,2025-02-17_12h15.16.712,posner_endo_new1,2024.2.4,60.20741454310437,2025-02-17 12h15.30.187991 +0000,
cube_l.png,0.1,-0.31,valid,0,0,0,up,7.11697479999998,None,space,0.35094970000000103,None,0,0,0,0,,,,,,,,,75.58295520000001,,,,,,,,,,,,,75.57070169999997,75.58295520000001,75.58295520000001,75.58295520000001,82.71673570000002,up,7.11697479999998,None,82.7364124,82.74714,82.74714,82.78256540000001,82.78278649999999,82.79939209999998,82.79939209999998,82.79939209999998,82.86584490000001,83.16623379999999,space,0.35094970000000103,None,,,,,,,,,,,,,,,,,,,,,,,,,P113,001,2025-02-17_12h15.16.712,posner_endo_new1,2024.2.4,60.20741454310437,2025-02-17 12h15.30.187991 +0000,
cube_l.png,0.1,0.31,invalid,1,1,0,up,4.62962170000003,None,space,0.4234495000000038,None,0,1,1,1,,,,,,,,,83.1821615,,,,,,,,,,,,,83.16639729999997,83.1821615,83.1821615,83.1821615,87.82823300000001,up,4.62962170000003,None,87.83404519999999,87.84558849999996,87.84558849999996,87.8941504,87.8943701,87.91062110000001,87.91062110000001,87.91062110000001,87.97729019999997,88.34427399999998,space,0.4234495000000038,None,,,,,,,,,,,,,,,,,,,,,,,,,P113,001,2025-02-17_12h15.16.712,posner_endo_new1,2024.2.4,60.20741454310437,2025-02-17 12h15.30.187991 +0000,
cube_r.png,0.1,-0.31,invalid,2,2,0,up,3.6509937999999806,None,space,0.36432849999999917,None,0,2,2,2,,,,,,,,,88.3603339,,,,,,,,,,,,,88.34443809999999,88.3603339,88.3603339,88.3603339,92.02406329999997,up,3.6509937999999806,None,92.03316309999997,92.04321970000001,92.04321970000001,92.08987109999998,92.0901427,92.10625479999999,92.10625479999999,92.10625479999999,92.18965509999998,92.47360119999996,space,0.36432849999999917,None,,,,,,,,,,,,,,,,,,,,,,,,,P113,001,2025-02-17_12h15.16.712,posner_endo_new1,2024.2.4,60.20741454310437,2025-02-17 12h15.30.187991 +0000,
cube_r.png,0.1,10,catch,3,3,0,up,5.098493900000051,None,None,,,0,3,3,3,,,,,,,,,92.48924369999997,,,,,,,,,,,,,92.47381419999999,92.48924369999997,92.48924369999997,92.48924369999997,97.60175729999997,up,5.098493900000051,None,97.6098164,97.62041039999997,97.62041039999997,97.66749279999999,97.66777179999997,97.68394029999996,97.68394029999996,97.68394029999996,97.76730249999997,100.68142219999999,None,,,99.78184619999996,100.69704009999998,100.69704009999998,100.69704009999998,,,,,,,,,,,,,,,,,,,,,P113,001,2025-02-17_12h15.16.712,posner_endo_new1,2024.2.4,60.20741454310437,2025-02-17 12h15.30.187991 +0000,
cube_l.png,0.1,-0.31,valid,4,4,0,up,1.0506373000000053,None,space,0.39849620000001096,None,0,4,4,4,,,,,,,,,100.69704009999998,,,,,,,,,,,,,100.68161889999999,100.69704009999998,100.69704009999998,100.69704009999998,101.76408900000001,up,1.0506373000000053,None,101.77216399999998,101.78283089999996,101.78283089999996,101.82978379999997,101.83005600000001,101.84637900000001,101.84637900000001,101.84637900000001,101.92966949999999,102.24689380000001,space,0.39849620000001096,None,,,,,,,,,,,,,,,,,,,,,,,,,P113,001,2025-02-17_12h15.16.712,posner_endo_new1,2024.2.4,60.20741454310437,2025-02-17 12h15.30.187991 +0000,
cube_l.png,0.1,0.31,invalid,5,5,0,up,4.365454599999964,None,space,0.377495099999976,None,0,5,5,5,,,,,,,,,102.26274359999996,,,,,,,,,,,,,102.24710499999998,102.26274359999996,102.26274359999996,102.26274359999996,106.642424,up,4.365454599999964,None,106.65040809999999,106.66124659999997,106.66124659999997,106.70824449999998,106.7085141,106.7247825,106.7247825,106.7247825,106.79145159999996,107.1086209,space,0.377495099999976,None,,,,,,,,,,,,,,,,,,,,,,,,,P113,001,2025-02-17_12h15.16.712,posner_endo_new1,2024.2.4,60.20741454310437,2025-02-17 12h15.30.187991 +0000,
cube_r.png,0.1,-0.31,invalid,6,6,0,up,4.255516399999976,None,space,0.35183430000000726,None,0,6,6,6,,,,,,,,,107.12438099999997,,,,,,,,,,,,,107.10883810000001,107.12438099999997,107.12438099999997,107.12438099999997,111.38790940000001,up,4.255516399999976,None,111.39893999999998,111.40920679999999,111.40920679999999,111.45334149999996,111.4536847,111.4698783,111.4698783,111.4698783,111.55310199999997,111.8373929,space,0.35183430000000726,None,,,,,,,,,,,,,,,,,,,,,,,,,P113,001,2025-02-17_12h15.16.712,posner_endo_new1,2024.2.4,60.20741454310437,2025-02-17 12h15.30.187991 +0000,
cube_r.png,0.1,0.31,valid,7,7,0,up,5.175039099999992,None,space,0.41153719999999794,None,0,7,7,7,,,,,,,,,111.8529436,,,,,,,,,,,,,111.83767039999998,111.8529436,111.8529436,111.8529436,117.03214159999999,up,5.175039099999992,None,117.04325999999998,117.05364299999997,117.05364299999997,117.09766359999998,117.09801329999999,117.11413899999997,117.11413899999997,117.11413899999997,117.19740839999997,117.53164040000001,space,0.41153719999999794,None,,,,,,,,,,,,,,,,,,,,,,,,,P113,001,2025-02-17_12h15.16.712,posner_endo_new1,2024.2.4,60.20741454310437,2025-02-17 12h15.30.187991 +0000,
cube_l.png,0.1,-0.31,valid,8,8,0,up,4.336953400000027,None,space,0.4534272999999871,None,0,8,8,8,,,,,,,,,117.54705009999998,,,,,,,,,,,,,117.53191599999997,117.54705009999998,117.54705009999998,117.54705009999998,121.89366949999999,up,4.336953400000027,None,121.90062239999997,121.9124592,121.9124592,121.95936009999997,121.95960659999997,121.9757439,121.9757439,121.9757439,122.05903409999996,122.44291149999998,space,0.4534272999999871,None,,,,,,,,,,,,,,,,,,,,,,,,,P113,001,2025-02-17_12h15.16.712,posner_endo_new1,2024.2.4,60.20741454310437,2025-02-17 12h15.30.187991 +0000,
cube_r.png,0.1,-0.31,invalid,9,9,0,up,5.641475700000001,None,space,0.4642714999999953,None,0,9,9,9,,,,,,,,,122.45864519999998,,,,,,,,,,,,,122.44309559999999,122.45864519999998,122.45864519999998,122.45864519999998,128.1039589,up,5.641475700000001,None,128.1109465,128.12263589999998,128.12263589999998,128.1695717,128.1697911,128.18610789999997,128.18610789999997,128.18610789999997,128.2696285,128.6551569,space,0.4642714999999953,None,,,,,,,,,,,,,,,,,,,,,,,,,P113,001,2025-02-17_12h15.16.712,posner_endo_new1,2024.2.4,60.20741454310437,2025-02-17 12h15.30.187991 +0000,
cube_r.png,0.1,0.31,valid,10,10,0,up,4.710796700000003,None,space,0.40102719999998726,None,0,10,10,10,,,,,,,,,128.66938319999997,,,,,,,,,,,,,128.65572079999998,128.66938319999997,128.66938319999997,128.66938319999997,133.3836116,up,4.710796700000003,None,133.40564009999997,133.41782899999998,133.41782899999998,133.4473203,133.4477033,133.4638589,133.4638589,133.4638589,133.547014,133.88124299999998,space,0.40102719999998726,None,,,,,,,,,,,,,,,,,,,,,,,,,P113,001,2025-02-17_12h15.16.712,posner_endo_new1,2024.2.4,60.20741454310437,2025-02-17 12h15.30.187991 +0000,
,,,,,,,,,,,,,,,,,,,,,,,,,,,,,,,,,,133.8814443,133.8965414,136.9263161,136.87871709999996,,,,,,,,,,,,,,,,,,,,,,,,,,,,,,,,,,,,,,,,,,,,,,P113,001,2025-02-17_12h15.16.712,posner_endo_new1,2024.2.4,60.20741454310437,2025-02-17 12h15.30.187991 +0000,
cube_l.png,0.1,10,catch,0,0,0,up,3.27797929999997,None,None,,,,,,,0,0,0,0,,,,,136.9263161,,,,,,,,,,,,,136.91710510000001,136.9263161,136.9263161,136.9263161,140.20976989999997,,,,140.23144109999998,140.24223259999997,140.24223259999997,140.2740268,140.27437909999998,140.290455,140.290455,140.290455,140.37367819999997,143.28778719999997,,,,142.38789809999997,143.30362259999998,143.30362259999998,143.30362259999998,up,3.27797929999997,None,None,,,,,,,,,,,,,,,,,P113,001,2025-02-17_12h15.16.712,posner_endo_new1,2024.2.4,60.20741454310437,2025-02-17 12h15.30.187991 +0000,
cube_l.png,0.1,10,catch,1,1,0,up,3.979869000000008,None,None,,,,,,,0,1,1,1,,,,,143.30362259999998,,,,,,,,,,,,,143.28808579999998,143.30362259999998,143.30362259999998,143.30362259999998,147.300816,,,,147.3131684,147.3228479,147.3228479,147.3663211,147.36670749999996,147.3827877,147.3827877,147.3827877,147.46603289999996,150.3805352,,,,149.4806582,150.3963817,150.3963817,150.3963817,up,3.979869000000008,None,None,,,,,,,,,,,,,,,,,P113,001,2025-02-17_12h15.16.712,posner_endo_new1,2024.2.4,60.20741454310437,2025-02-17 12h15.30.187991 +0000,
cube_l.png,0.1,0.31,invalid,2,2,0,up,4.343116500000008,None,space,0.3995850999999675,None,,,,,0,2,2,2,,,,,150.3963817,,,,,,,,,,,,,150.38084199999997,150.3963817,150.3963817,150.3963817,154.74341149999998,,,,154.75446919999996,154.76416899999998,154.76416899999998,154.80913879999997,154.80938270000001,154.82566459999998,154.82566459999998,154.82566459999998,154.90892229999997,155.22629059999997,,,,,,,,up,4.343116500000008,None,space,0.3995850999999675,None,,,,,,,,,,,,,,,P113,001,2025-02-17_12h15.16.712,posner_endo_new1,2024.2.4,60.20741454310437,2025-02-17 12h15.30.187991 +0000,
cube_l.png,0.1,0.31,invalid,3,3,0,up,5.322181799999953,None,space,0.363995100000011,None,,,,,0,3,3,3,,,,,155.24194039999998,,,,,,,,,,,,,155.2264968,155.24194039999998,155.24194039999998,155.24194039999998,160.57072219999998,,,,160.57792359999996,160.58957979999997,160.58957979999997,160.6364822,160.636727,160.65290349999998,160.65290349999998,160.65290349999998,160.73626969999998,161.0200608,,,,,,,,up,5.322181799999953,None,space,0.363995100000011,None,,,,,,,,,,,,,,,P113,001,2025-02-17_12h15.16.712,posner_endo_new1,2024.2.4,60.20741454310437,2025-02-17 12h15.30.187991 +0000,
cube_l.png,0.1,-0.31,valid,4,4,0,up,4.983627400000046,None,space,0.36323520000001963,None,,,,,0,4,4,4,,,,,161.0359739,,,,,,,,,,,,,161.02026289999998,161.0359739,161.0359739,161.0359739,166.0316464,,,,166.0386603,166.05064729999998,166.05064729999998,166.0975123,166.09775459999997,166.1139887,166.1139887,166.1139887,166.1807311,166.48169179999996,,,,,,,,up,4.983627400000046,None,space,0.36323520000001963,None,,,,,,,,,,,,,,,P113,001,2025-02-17_12h15.16.712,posner_endo_new1,2024.2.4,60.20741454310437,2025-02-17 12h15.30.187991 +0000,
cube_r.png,0.1,-0.31,invalid,5,5,0,up,6.186355600000013,None,space,0.3648477000000412,None,,,,,0,5,5,5,,,,,166.4970457,,,,,,,,,,,,,166.48188820000001,166.4970457,166.4970457,166.4970457,172.6916099,,,,172.69863219999996,172.71032350000002,172.71032350000002,172.757496,172.7577447,172.77376349999997,172.77376349999997,172.77376349999997,172.857214,173.1412226,,,,,,,,up,6.186355600000013,None,space,0.3648477000000412,None,,,,,,,,,,,,,,,P113,001,2025-02-17_12h15.16.712,posner_endo_new1,2024.2.4,60.20741454310437,2025-02-17 12h15.30.187991 +0000,
cube_r.png,0.1,0.31,valid,6,6,0,up,5.94343200000003,None,space,0.3563948000000323,None,,,,,0,6,6,6,,,,,173.1568924,,,,,,,,,,,,,173.14142529999998,173.1568924,173.1568924,173.1568924,179.10174509999996,,,,179.1087488,179.1205096,179.1205096,179.1675548,179.1677995,179.1839552,179.1839552,179.1839552,179.26735229999997,179.55120919999996,,,,,,,,up,5.94343200000003,None,space,0.3563948000000323,None,,,,,,,,,,,,,,,P113,001,2025-02-17_12h15.16.712,posner_endo_new1,2024.2.4,60.20741454310437,2025-02-17 12h15.30.187991 +0000,
cube_r.png,0.1,-0.31,invalid,7,7,0,up,5.422207299999968,None,space,0.3661762999999496,None,,,,,0,7,7,7,,,,,179.5669621,,,,,,,,,,,,,179.5514081,179.5669621,179.5669621,179.5669621,184.99578939999998,,,,185.0028317,185.01491699999997,185.01491699999997,185.0614547,185.06194869999996,185.0778894,185.0778894,185.0778894,185.1611292,185.44618409999998,,,,,,,,up,5.422207299999968,None,space,0.3661762999999496,None,,,,,,,,,,,,,,,P113,001,2025-02-17_12h15.16.712,posner_endo_new1,2024.2.4,60.20741454310437,2025-02-17 12h15.30.187991 +0000,
cube_l.png,0.1,-0.31,valid,8,8,0,up,4.599075699999958,None,space,0.41378300000002355,None,,,,,0,8,8,8,,,,,185.46080159999997,,,,,,,,,,,,,185.4466264,185.46080159999997,185.46080159999997,185.46080159999997,190.0745012,,,,190.0906301,190.10167989999997,190.10167989999997,190.1395756,190.14007429999998,190.15605799999997,190.15605799999997,190.15605799999997,190.23932029999997,190.5743286,,,,,,,,up,4.599075699999958,None,space,0.41378300000002355,None,,,,,,,,,,,,,,,P113,001,2025-02-17_12h15.16.712,posner_endo_new1,2024.2.4,60.20741454310437,2025-02-17 12h15.30.187991 +0000,
cube_r.png,0.1,-0.31,invalid,9,9,0,up,6.063178999999991,None,space,0.3424090999999976,None,,,,,0,9,9,9,,,,,190.58891799999998,,,,,,,,,,,,,190.5747786,190.58891799999998,190.58891799999998,190.58891799999998,196.6673856,,,,196.67841909999999,196.688695,196.688695,196.73296749999997,196.7333071,196.7494031,196.7494031,196.7494031,196.8328168,197.1002075,,,,,,,,up,6.063178999999991,None,space,0.3424090999999976,None,,,,,,,,,,,,,,,P113,001,2025-02-17_12h15.16.712,posner_endo_new1,2024.2.4,60.20741454310437,2025-02-17 12h15.30.187991 +0000,
cube_l.png,0.1,0.31,invalid,10,10,0,up,5.4481984999999895,None,space,0.34561519999999746,None,,,,,0,10,10,10,,,,,197.11567759999997,,,,,,,,,,,,,197.1004967,197.11567759999997,197.11567759999997,197.11567759999997,202.57798329999997,,,,202.5890038,202.5992635,202.5992635,202.6435882,202.64394449999998,202.6601516,202.6601516,202.6601516,202.7434058,203.0107688,,,,,,,,up,5.4481984999999895,None,space,0.34561519999999746,None,,,,,,,,,,,,,,,P113,001,2025-02-17_12h15.16.712,posner_endo_new1,2024.2.4,60.20741454310437,2025-02-17 12h15.30.187991 +0000,
cube_r.png,0.1,-0.31,invalid,11,11,0,up,5.1616573000000585,None,space,0.5176139000000148,None,,,,,0,11,11,11,,,,,203.02635759999998,,,,,,,,,,,,,203.01105739999997,203.02635759999998,203.02635759999998,203.02635759999998,208.18918510000003,,,,208.20017340000004,208.21037209999997,208.21037209999997,208.25448219999998,208.25482120000004,208.27104999999995,208.27104999999995,208.27104999999995,208.3542949,208.80513139999994,,,,,,,,up,5.1616573000000585,None,space,0.5176139000000148,None,,,,,,,,,,,,,,,P113,001,2025-02-17_12h15.16.712,posner_endo_new1,2024.2.4,60.20741454310437,2025-02-17 12h15.30.187991 +0000,
cube_r.png,0.1,0.31,valid,12,12,0,up,7.079051999999933,None,space,0.37775440000007166,None,,,,,0,12,12,12,,,,,208.82048120000002,,,,,,,,,,,,,208.80542949999995,208.82048120000002,208.82048120000002,208.82048120000002,215.91447140000002,,,,215.92436299999997,215.93415949999996,215.93415949999996,215.98023679999994,215.98048329999995,215.99656240000002,215.99656240000002,215.99656240000002,216.0795703,216.38018999999997,,,,,,,,up,7.079051999999933,None,space,0.37775440000007166,None,,,,,,,,,,,,,,,P113,001,2025-02-17_12h15.16.712,posner_endo_new1,2024.2.4,60.20741454310437,2025-02-17 12h15.30.187991 +0000,
cube_l.png,0.1,10,catch,13,13,0,up,5.1921241999999665,None,None,,,,,,,0,13,13,13,,,,,216.39596700000004,,,,,,,,,,,,,216.38038749999998,216.39596700000004,216.39596700000004,216.39596700000004,221.59183919999998,,,,221.5988195,221.61031589999993,221.61031589999993,221.65742609999995,221.65767129999995,221.6737749,221.6737749,221.6737749,221.7574922,224.6715067,,,,223.77181459999997,224.6875893,224.6875893,224.6875893,up,5.1921241999999665,None,None,,,,,,,,,,,,,,,,,P113,001,2025-02-17_12h15.16.712,posner_endo_new1,2024.2.4,60.20741454310437,2025-02-17 12h15.30.187991 +0000,
cube_r.png,0.1,-0.31,invalid,14,14,0,up,3.596476300000063,None,space,0.3898058999999421,None,,,,,0,14,14,14,,,,,224.6875893,,,,,,,,,,,,,224.67169230000002,224.6875893,224.6875893,224.6875893,228.28487510000002,,,,228.2918274,228.30337669999994,228.30337669999994,228.35063379999997,228.3508779,228.36703720000003,228.36703720000003,228.36703720000003,228.45039450000002,228.7675587,,,,,,,,up,3.596476300000063,None,space,0.3898058999999421,None,,,,,,,,,,,,,,,P113,001,2025-02-17_12h15.16.712,posner_endo_new1,2024.2.4,60.20741454310437,2025-02-17 12h15.30.187991 +0000,
cube_l.png,0.1,-0.31,valid,15,15,0,up,6.541016099999979,None,space,0.3819705000000795,None,,,,,0,15,15,15,,,,,228.78323779999994,,,,,,,,,,,,,228.7677595,228.78323779999994,228.78323779999994,228.78323779999994,235.32750320000002,,,,235.33449889999997,235.34611940000002,235.34611940000002,235.39350179999997,235.3937492,235.4098752,235.4098752,235.4098752,235.49326589999998,235.79394790000003,,,,,,,,up,6.541016099999979,None,space,0.3819705000000795,None,,,,,,,,,,,,,,,P113,001,2025-02-17_12h15.16.712,posner_endo_new1,2024.2.4,60.20741454310437,2025-02-17 12h15.30.187991 +0000,
cube_r.png,0.1,10,catch,16,16,0,up,6.346817699999974,None,None,,,,,,,0,16,16,16,,,,,235.80970089999994,,,,,,,,,,,,,235.7941416,235.80970089999994,235.80970089999994,235.80970089999994,242.17049339999994,,,,242.1775338,242.18925860000002,242.18925860000002,242.2364387,242.23668769999995,242.25285759999997,242.25285759999997,242.25285759999997,242.31938059999993,245.2503494,,,,244.33397579999996,245.26647449999996,245.26647449999996,245.26647449999996,up,6.346817699999974,None,None,,,,,,,,,,,,,,,,,P113,001,2025-02-17_12h15.16.712,posner_endo_new1,2024.2.4,60.20741454310437,2025-02-17 12h15.30.187991 +0000,
cube_r.png,0.1,10,catch,17,17,0,up,2.9930633999999827,None,None,,,,,,,0,17,17,17,,,,,245.26647449999996,,,,,,,,,,,,,245.25053389999994,245.26647449999996,245.26647449999996,245.26647449999996,248.26433380000003,,,,248.27134349999994,248.28317530000004,248.28317530000004,248.33027489999995,248.3305193,248.3468418,248.3468418,248.3468418,248.41331479999997,251.34399459999997,,,,250.42788789999997,251.36047959999996,251.36047959999996,251.36047959999996,up,2.9930633999999827,None,None,,,,,,,,,,,,,,,,,P113,001,2025-02-17_12h15.16.712,posner_endo_new1,2024.2.4,60.20741454310437,2025-02-17 12h15.30.187991 +0000,
cube_l.png,0.1,0.31,invalid,18,18,0,up,3.27515029999995,None,space,0.3709370000000263,None,,,,,0,18,18,18,,,,,251.36047959999996,,,,,,,,,,,,,251.34418759999994,251.36047959999996,251.36047959999996,251.36047959999996,254.64121850000004,,,,254.64826889999995,254.6600595,254.6600595,254.7070073,254.70725879999998,254.72339609999995,254.72339609999995,254.72339609999995,254.80668019999996,255.1072454,,,,,,,,up,3.27515029999995,None,space,0.3709370000000263,None,,,,,,,,,,,,,,,P113,001,2025-02-17_12h15.16.712,posner_endo_new1,2024.2.4,60.20741454310437,2025-02-17 12h15.30.187991 +0000,
cube_l.png,0.1,10,catch,19,19,0,up,38.39360160000001,None,None,,,,,,,0,19,19,19,,,,,255.12325680000004,,,,,,,,,,,,,255.10744379999994,255.12325680000004,255.12325680000004,255.12325680000004,293.51853389999997,,,,293.527925,293.5381172,293.5381172,293.5839819,293.58429939999996,293.60047410000004,293.60047410000004,293.60047410000004,293.68364669999994,296.59817910000004,,,,295.6983923,296.61407280000003,296.61407280000003,296.61407280000003,up,38.39360160000001,None,None,,,,,,,,,,,,,,,,,P113,001,2025-02-17_12h15.16.712,posner_endo_new1,2024.2.4,60.20741454310437,2025-02-17 12h15.30.187991 +0000,
cube_l.png,0.1,0.31,invalid,20,20,0,up,3.958323299999961,None,space,0.3592208999999684,None,,,,,0,20,20,20,,,,,296.61407280000003,,,,,,,,,,,,,296.5984172,296.61407280000003,296.61407280000003,296.61407280000003,300.57754090000003,,,,300.58341399999995,300.5951606,300.5951606,300.6434835,300.6437035,300.659998,300.659998,300.659998,300.7266468,301.02891279999994,,,,,,,,up,3.958323299999961,None,space,0.3592208999999684,None,,,,,,,,,,,,,,,P113,001,2025-02-17_12h15.16.712,posner_endo_new1,2024.2.4,60.20741454310437,2025-02-17 12h15.30.187991 +0000,
cube_l.png,0.1,-0.31,valid,21,21,0,up,6.265404500000045,None,space,0.33402440000008937,None,,,,,0,21,21,21,,,,,301.04328639999994,,,,,,,,,,,,,301.02951729999995,301.04328639999994,301.04328639999994,301.04328639999994,307.3224216,,,,307.34416020000003,307.3564242,307.3564242,307.3861673,307.38655529999994,307.4026361,307.4026361,307.4026361,307.4858957,307.7538637,,,,,,,,up,6.265404500000045,None,space,0.33402440000008937,None,,,,,,,,,,,,,,,P113,001,2025-02-17_12h15.16.712,posner_endo_new1,2024.2.4,60.20741454310437,2025-02-17 12h15.30.187991 +0000,
cube_r.png,0.1,0.31,valid,22,22,0,up,7.099387400000069,None,space,0.3155451999999741,None,,,,,0,22,22,22,,,,,307.76903949999996,,,,,,,,,,,,,307.7542541,307.76903949999996,307.76903949999996,307.76903949999996,314.879764,,,,314.8888988,314.89909609999995,314.89909609999995,314.94545949999997,314.94575910000003,314.9620222,314.9620222,314.9620222,315.0451676,315.27949219999994,,,,,,,,up,7.099387400000069,None,space,0.3155451999999741,None,,,,,,,,,,,,,,,P113,001,2025-02-17_12h15.16.712,posner_endo_new1,2024.2.4,60.20741454310437,2025-02-17 12h15.30.187991 +0000,
cube_r.png,0.1,-0.31,invalid,23,23,0,up,5.901442299999985,None,space,0.35883179999996173,None,,,,,0,23,23,23,,,,,315.29498290000004,,,,,,,,,,,,,315.2797445,315.29498290000004,315.29498290000004,315.29498290000004,321.20680919999995,,,,321.21601,321.22619309999993,321.22619309999993,321.2723158,321.27262110000004,321.2889086,321.2889086,321.2889086,321.3721399,321.6563205,,,,,,,,up,5.901442299999985,None,space,0.35883179999996173,None,,,,,,,,,,,,,,,P113,001,2025-02-17_12h15.16.712,posner_endo_new1,2024.2.4,60.20741454310437,2025-02-17 12h15.30.187991 +0000,
cube_r.png,0.1,0.31,valid,24,24,0,up,6.621113299999934,None,space,0.3424681999999848,None,,,,,0,24,24,24,,,,,321.6719977,,,,,,,,,,,,,321.6565776,321.6719977,321.6719977,321.6719977,328.29965200000004,,,,328.3088471,328.3190082,328.3190082,328.36511469999994,328.36541339999997,328.3816938,328.3816938,328.3816938,328.46485570000004,328.7322554,,,,,,,,up,6.621113299999934,None,space,0.3424681999999848,None,,,,,,,,,,,,,,,P113,001,2025-02-17_12h15.16.712,posner_endo_new1,2024.2.4,60.20741454310437,2025-02-17 12h15.30.187991 +0000,
cube_r.png,0.1,-0.31,invalid,25,25,0,up,6.584118399999966,None,space,0.36664919999998347,None,,,,,0,25,25,25,,,,,328.74792819999993,,,,,,,,,,,,,328.7325045,328.74792819999993,328.74792819999993,328.74792819999993,335.3421582,,,,335.35131119999994,335.36146199999996,335.36146199999996,335.40797699999996,335.40828179999994,335.4244202,335.4244202,335.4244202,335.50772359999996,335.7920981,,,,,,,,up,6.584118399999966,None,space,0.36664919999998347,None,,,,,,,,,,,,,,,P113,001,2025-02-17_12h15.16.712,posner_endo_new1,2024.2.4,60.20741454310437,2025-02-17 12h15.30.187991 +0000,
cube_l.png,0.1,-0.31,valid,26,26,0,up,6.069404200000008,None,space,0.3408658999999261,None,,,,,0,26,26,26,,,,,335.8073223,,,,,,,,,,,,,335.7923502,335.8073223,335.8073223,335.8073223,341.8855492,,,,341.8946893,341.90486999999996,341.90486999999996,341.95127809999997,341.95157729999994,341.967796,341.967796,341.967796,342.05098009999995,342.31848149999996,,,,,,,,up,6.069404200000008,None,space,0.3408658999999261,None,,,,,,,,,,,,,,,P113,001,2025-02-17_12h15.16.712,posner_endo_new1,2024.2.4,60.20741454310437,2025-02-17 12h15.30.187991 +0000,
cube_r.png,0.1,0.31,valid,27,27,0,up,8.623637099999996,None,space,0.3756144999999833,None,,,,,0,27,27,27,,,,,342.3339496,,,,,,,,,,,,,342.3187411,342.3339496,342.3339496,342.3339496,350.95983879999994,,,,350.96897149999995,350.979649,350.979649,351.02530160000003,351.02561449999996,351.0419032,351.0419032,351.0419032,351.1248951,351.4258407,,,,,,,,up,8.623637099999996,None,space,0.3756144999999833,None,,,,,,,,,,,,,,,P113,001,2025-02-17_12h15.16.712,posner_endo_new1,2024.2.4,60.20741454310437,2025-02-17 12h15.30.187991 +0000,
cube_r.png,0.1,10,catch,28,28,0,up,6.4108534000000645,None,None,,,,,,,0,28,28,28,,,,,351.44137119999994,,,,,,,,,,,,,351.42608989999997,351.44137119999994,351.44137119999994,351.44137119999994,357.8690877,,,,357.8784409,357.8883754,357.8883754,357.93490569999994,357.93521020000003,357.95139589999997,357.95139589999997,357.95139589999997,358.0340841,360.9490068,,,,360.04927480000003,360.9649813,360.9649813,360.9649813,up,6.4108534000000645,None,None,,,,,,,,,,,,,,,,,P113,001,2025-02-17_12h15.16.712,posner_endo_new1,2024.2.4,60.20741454310437,2025-02-17 12h15.30.187991 +0000,
cube_r.png,0.1,0.31,valid,29,29,0,up,3.0229695999998967,None,space,0.3973135999999613,None,,,,,0,29,29,29,,,,,360.9649813,,,,,,,,,,,,,360.9492507,360.9649813,360.9649813,360.9649813,363.9961872,,,,364.0042393,364.0149345,364.0149345,364.0619656,364.062186,364.0784241,364.0784241,364.0784241,364.16151179999997,364.47909530000004,,,,,,,,up,3.0229695999998967,None,space,0.3973135999999613,None,,,,,,,,,,,,,,,P113,001,2025-02-17_12h15.16.712,posner_endo_new1,2024.2.4,60.20741454310437,2025-02-17 12h15.30.187991 +0000,
cube_r.png,0.1,0.31,valid,30,30,0,up,10.813588800000048,None,space,0.36256730000002335,None,,,,,0,30,30,30,,,,,364.49474769999995,,,,,,,,,,,,,364.4792727,364.49474769999995,364.49474769999995,364.49474769999995,375.31776690000004,,,,375.3235839,375.3352688,375.3352688,375.3837025,375.3841936,375.40019069999994,375.40019069999994,375.40019069999994,375.4833277,375.768183,,,,,,,,up,10.813588800000048,None,space,0.36256730000002335,None,,,,,,,,,,,,,,,P113,001,2025-02-17_12h15.16.712,posner_endo_new1,2024.2.4,60.20741454310437,2025-02-17 12h15.30.187991 +0000,
cube_l.png,0.1,-0.31,valid,31,31,0,up,5.996856500000035,None,space,0.3792947000000595,None,,,,,0,31,31,31,,,,,375.7830305,,,,,,,,,,,,,375.76862900000003,375.7830305,375.7830305,375.7830305,381.7955072,,,,381.8115728,381.8225049,381.8225049,381.86044789999994,381.8607475,381.87700459999996,381.87700459999996,381.87700459999996,381.9601751,382.26090179999994,,,,,,,,up,5.996856500000035,None,space,0.3792947000000595,None,,,,,,,,,,,,,,,P113,001,2025-02-17_12h15.16.712,posner_endo_new1,2024.2.4,60.20741454310437,2025-02-17 12h15.30.187991 +0000,
cube_r.png,0.1,0.31,valid,32,32,0,up,6.208008199999995,None,space,0.3233380000000352,None,,,,,0,32,32,32,,,,,382.2766157,,,,,,,,,,,,,382.26115400000003,382.2766157,382.2766157,382.2766157,388.48815709999997,,,,388.4992473,388.50961929999994,388.50961929999994,388.55363980000004,388.5539863,388.57020620000003,388.57020620000003,388.57020620000003,388.6533491,388.9043395,,,,,,,,up,6.208008199999995,None,space,0.3233380000000352,None,,,,,,,,,,,,,,,P113,001,2025-02-17_12h15.16.712,posner_endo_new1,2024.2.4,60.20741454310437,2025-02-17 12h15.30.187991 +0000,
cube_r.png,0.1,-0.31,invalid,33,33,0,up,7.204819599999951,None,space,0.40903400000001966,None,,,,,0,33,33,33,,,,,388.91979029999993,,,,,,,,,,,,,388.90464209999993,388.91979029999993,388.91979029999993,388.91979029999993,396.13030589999994,,,,396.14143,396.1518039,396.1518039,396.19596620000004,396.19632290000004,396.21233970000003,396.21233970000003,396.21233970000003,396.29565909999997,396.62994459999993,,,,,,,,up,7.204819599999951,None,space,0.40903400000001966,None,,,,,,,,,,,,,,,P113,001,2025-02-17_12h15.16.712,posner_endo_new1,2024.2.4,60.20741454310437,2025-02-17 12h15.30.187991 +0000,
cube_r.png,0.1,10,catch,34,34,0,up,5.9347971000000825,None,None,,,,,,,0,34,34,34,,,,,396.645354,,,,,,,,,,,,,396.630232,396.645354,396.645354,396.645354,402.59036779999997,,,,402.60142299999995,402.61174570000003,402.61174570000003,402.65593739999997,402.6562851,402.67249549999997,402.67249549999997,402.67249549999997,402.75565929999993,405.6700789,,,,404.7702789,405.68599259999996,405.68599259999996,405.68599259999996,up,5.9347971000000825,None,None,,,,,,,,,,,,,,,,,P113,001,2025-02-17_12h15.16.712,posner_endo_new1,2024.2.4,60.20741454310437,2025-02-17 12h15.30.187991 +0000,
cube_r.png,0.1,0.31,valid,35,35,0,up,3.6865923000000294,None,space,0.3302154000000428,None,,,,,0,35,35,35,,,,,405.68599259999996,,,,,,,,,,,,,405.67035209999995,405.68599259999996,405.68599259999996,405.68599259999996,409.38336760000004,,,,409.3938283,409.40346179999995,409.40346179999995,409.4489662,409.44920649999995,409.46541649999995,409.46541649999995,409.46541649999995,409.54852229999995,409.79941729999996,,,,,,,,up,3.6865923000000294,None,space,0.3302154000000428,None,,,,,,,,,,,,,,,P113,001,2025-02-17_12h15.16.712,posner_endo_new1,2024.2.4,60.20741454310437,2025-02-17 12h15.30.187991 +0000,
cube_r.png,0.1,-0.31,invalid,36,36,0,up,5.885444499999949,None,space,0.3629504000000452,None,,,,,0,36,36,36,,,,,409.8152639,,,,,,,,,,,,,409.79960859999994,409.8152639,409.8152639,409.8152639,415.70986719999996,,,,415.71641939999995,415.72787819999996,415.72787819999996,415.77577329999997,415.77627329999996,415.79218689999993,415.79218689999993,415.79218689999993,415.87541939999994,416.16046689999996,,,,,,,,up,5.885444499999949,None,space,0.3629504000000452,None,,,,,,,,,,,,,,,P113,001,2025-02-17_12h15.16.712,posner_endo_new1,2024.2.4,60.20741454310437,2025-02-17 12h15.30.187991 +0000,
cube_l.png,0.1,0.31,invalid,37,37,0,up,5.940871199999947,None,space,0.35141029999999773,None,,,,,0,37,37,37,,,,,416.1751306,,,,,,,,,,,,,416.16089780000004,416.1751306,416.1751306,416.1751306,422.12100079999993,,,,422.1370277,422.14845449999996,422.14845449999996,422.1859276,422.186229,422.20248459999993,422.20248459999993,422.20248459999993,422.2857057,422.5698165,,,,,,,,up,5.940871199999947,None,space,0.35141029999999773,None,,,,,,,,,,,,,,,P113,001,2025-02-17_12h15.16.712,posner_endo_new1,2024.2.4,60.20741454310437,2025-02-17 12h15.30.187991 +0000,
cube_l.png,0.1,0.31,invalid,38,38,0,up,5.55528819999995,None,space,0.4383718000000272,None,,,,,0,38,38,38,,,,,422.5853916,,,,,,,,,,,,,422.57007150000004,422.5853916,422.5853916,422.5853916,428.14722470000004,,,,428.15315039999996,428.1647792,428.1647792,428.21303449999994,428.2135429,428.2294879,428.2294879,428.2294879,428.3127127,428.6808598,,,,,,,,up,5.55528819999995,None,space,0.4383718000000272,None,,,,,,,,,,,,,,,P113,001,2025-02-17_12h15.16.712,posner_endo_new1,2024.2.4,60.20741454310437,2025-02-17 12h15.30.187991 +0000,
cube_r.png,0.1,0.31,valid,39,39,0,up,6.596623500000078,None,space,0.3924555999999484,None,,,,,0,39,39,39,,,,,428.6956441,,,,,,,,,,,,,428.68128920000004,428.6956441,428.6956441,428.6956441,435.3069884,,,,435.31585559999996,435.3256328,435.3256328,435.37233679999997,435.3725709,435.3889719,435.3889719,435.3889719,435.47226720000003,435.7893186,,,,,,,,up,6.596623500000078,None,space,0.3924555999999484,None,,,,,,,,,,,,,,,P113,001,2025-02-17_12h15.16.712,posner_endo_new1,2024.2.4,60.20741454310437,2025-02-17 12h15.30.187991 +0000,
cube_l.png,0.1,0.31,invalid,40,40,0,up,7.19957880000004,None,space,0.3881357999999864,None,,,,,0,40,40,40,,,,,435.8052238,,,,,,,,,,,,,435.78950209999994,435.8052238,435.8052238,435.8052238,443.01551429999995,,,,443.02215119999994,443.03392769999994,443.03392769999994,443.08116110000003,443.08140359999993,443.09776469999997,443.09776469999997,443.09776469999997,443.1809204,443.49820220000004,,,,,,,,up,7.19957880000004,None,space,0.3881357999999864,None,,,,,,,,,,,,,,,P113,001,2025-02-17_12h15.16.712,posner_endo_new1,2024.2.4,60.20741454310437,2025-02-17 12h15.30.187991 +0000,
cube_l.png,0.1,10,catch,41,41,0,up,6.401952199999982,None,None,,,,,,,0,41,41,41,,,,,443.51411369999994,,,,,,,,,,,,,443.4983859,443.51411369999994,443.51411369999994,443.51411369999994,449.9252924,,,,449.93900829999995,449.9494436,449.9494436,449.9906109,449.99104769999997,450.00703139999996,450.00703139999996,450.00703139999996,450.0903111,453.004953,,,,452.1052508,453.0210048,453.0210048,453.0210048,up,6.401952199999982,None,None,,,,,,,,,,,,,,,,,P113,001,2025-02-17_12h15.16.712,posner_endo_new1,2024.2.4,60.20741454310437,2025-02-17 12h15.30.187991 +0000,
cube_l.png,0.1,-0.31,valid,42,42,0,up,4.719053999999915,None,space,0.32934479999994437,None,,,,,0,42,42,42,,,,,453.0210048,,,,,,,,,,,,,453.00518669999997,453.0210048,453.0210048,453.0210048,457.75038399999994,,,,457.75948489999996,457.76969840000004,457.76969840000004,457.8161956,457.81649500000003,457.8327319,457.8327319,457.8327319,457.9158823,458.16687609999997,,,,,,,,up,4.719053999999915,None,space,0.32934479999994437,None,,,,,,,,,,,,,,,P113,001,2025-02-17_12h15.16.712,posner_endo_new1,2024.2.4,60.20741454310437,2025-02-17 12h15.30.187991 +0000,
cube_l.png,0.1,10,catch,43,43,0,up,7.862677800000029,None,None,,,,,,,0,43,43,43,,,,,458.18239589999996,,,,,,,,,,,,,458.1671285,458.18239589999996,458.18239589999996,458.18239589999996,466.05870530000004,,,,466.06782910000004,466.0780122,466.0780122,466.12437609999995,466.1246791,466.14090769999996,466.14090769999996,466.14090769999996,466.22413659999995,469.13847969999995,,,,468.2387013,469.1544926,469.1544926,469.1544926,up,7.862677800000029,None,None,,,,,,,,,,,,,,,,,P113,001,2025-02-17_12h15.16.712,posner_endo_new1,2024.2.4,60.20741454310437,2025-02-17 12h15.30.187991 +0000,
cube_l.png,0.1,0.31,invalid,44,44,0,up,3.793794000000048,None,space,0.34168480000005275,None,,,,,0,44,44,44,,,,,469.1544926,,,,,,,,,,,,,469.1387165,469.1544926,469.1544926,469.1544926,472.95171819999996,,,,472.9608925,472.9711449,472.9711449,473.01728909999997,473.0175914,473.0338409,473.0338409,473.0338409,473.1171233,473.38454720000004,,,,,,,,up,3.793794000000048,None,space,0.34168480000005275,None,,,,,,,,,,,,,,,P113,001,2025-02-17_12h15.16.712,posner_endo_new1,2024.2.4,60.20741454310437,2025-02-17 12h15.30.187991 +0000,
cube_l.png,0.1,0.31,invalid,45,45,0,up,5.636437300000011,None,space,0.3611650999999938,None,,,,,0,45,45,45,,,,,473.4001863,,,,,,,,,,,,,473.3848048,473.4001863,473.4001863,473.4001863,479.04551100000003,,,,479.054675,479.0649377,479.0649377,479.11119740000004,479.11150069999997,479.12763959999995,479.12763959999995,479.12763959999995,479.2108538,479.4949897,,,,,,,,up,5.636437300000011,None,space,0.3611650999999938,None,,,,,,,,,,,,,,,P113,001,2025-02-17_12h15.16.712,posner_endo_new1,2024.2.4,60.20741454310437,2025-02-17 12h15.30.187991 +0000,
cube_r.png,0.1,0.31,valid,46,46,0,up,6.717910399999937,None,space,0.4226180000000568,None,,,,,0,46,46,46,,,,,479.51054369999997,,,,,,,,,,,,,479.4952416,479.51054369999997,479.51054369999997,479.51054369999997,486.2381619,,,,486.2473936,486.25753699999996,486.25753699999996,486.303668,486.30396669999993,486.32026339999993,486.32026339999993,486.32026339999993,486.40340189999995,486.7542081,,,,,,,,up,6.717910399999937,None,space,0.4226180000000568,None,,,,,,,,,,,,,,,P113,001,2025-02-17_12h15.16.712,posner_endo_new1,2024.2.4,60.20741454310437,2025-02-17 12h15.30.187991 +0000,
cube_l.png,0.1,-0.31,valid,47,47,0,up,5.515158299999939,None,space,0.3822771999999759,None,,,,,0,47,47,47,,,,,486.7697578,,,,,,,,,,,,,486.75445809999997,486.7697578,486.7697578,486.7697578,492.2985562,,,,492.3076591,492.3178958,492.3178958,492.36430699999994,492.3646082,492.3808696,492.3808696,492.3808696,492.4639614,492.7648864,,,,,,,,up,5.515158299999939,None,space,0.3822771999999759,None,,,,,,,,,,,,,,,P113,001,2025-02-17_12h15.16.712,posner_endo_new1,2024.2.4,60.20741454310437,2025-02-17 12h15.30.187991 +0000,
cube_r.png,0.1,-0.31,invalid,48,48,0,up,12.928217599999925,None,space,0.3829977999999983,None,,,,,0,48,48,48,,,,,492.7803625,,,,,,,,,,,,,492.76513869999997,492.7803625,492.7803625,492.7803625,505.71823359999996,,,,505.7276792,505.73781999999994,505.73781999999994,505.78391379999994,505.78421619999995,505.80032559999995,505.80032559999995,505.80032559999995,505.8834412,506.18448379999995,,,,,,,,up,12.928217599999925,None,space,0.3829977999999983,None,,,,,,,,,,,,,,,P113,001,2025-02-17_12h15.16.712,posner_endo_new1,2024.2.4,60.20741454310437,2025-02-17 12h15.30.187991 +0000,
cube_r.png,0.1,10,catch,49,49,0,up,6.452767200000039,None,space,0.3092720999999301,None,,,,,0,49,49,49,,,,,506.199886,,,,,,,,,,,,,506.18473140000003,506.199886,506.199886,506.199886,512.6611156,,,,512.6702276999999,512.6804459,512.6804459,512.7267713,512.7270859,512.743298,512.743298,512.743298,512.8265946,513.0606594,,,,,,,,up,6.452767200000039,None,space,0.3092720999999301,None,,,,,,,,,,,,,,,P113,001,2025-02-17_12h15.16.712,posner_endo_new1,2024.2.4,60.20741454310437,2025-02-17 12h15.30.187991 +0000,
cube_l.png,0.1,-0.31,valid,50,50,0,up,6.727960100000018,None,space,0.3801467999999204,None,,,,,0,50,50,50,,,,,513.0762865,,,,,,,,,,,,,513.0609077,513.0762865,513.0762865,513.0762865,519.820436,,,,519.8295348,519.8395887,519.8395887,519.8860794,519.886385,519.9026574,519.9026574,519.9026574,519.9859587999999,520.28684,,,,,,,,up,6.727960100000018,None,space,0.3801467999999204,None,,,,,,,,,,,,,,,P113,001,2025-02-17_12h15.16.712,posner_endo_new1,2024.2.4,60.20741454310437,2025-02-17 12h15.30.187991 +0000,
cube_l.png,0.1,-0.31,valid,51,51,0,up,5.622572600000012,None,space,0.38579089999996086,None,,,,,0,51,51,51,,,,,520.3022157,,,,,,,,,,,,,520.2870894,520.3022157,520.3022157,520.3022157,525.9308611,,,,525.9401,525.9503617,525.9503617,525.9965503999999,525.9968543,526.0131053,526.0131053,526.0131053,526.0963886,526.4136795,,,,,,,,up,5.622572600000012,None,space,0.38579089999996086,None,,,,,,,,,,,,,,,P113,001,2025-02-17_12h15.16.712,posner_endo_new1,2024.2.4,60.20741454310437,2025-02-17 12h15.30.187991 +0000,
cube_r.png,0.1,-0.31,invalid,52,52,0,up,4.511209800000074,None,space,0.4089159999999765,None,,,,,0,52,52,52,,,,,526.4293842,,,,,,,,,,,,,526.4139301,526.4293842,526.4293842,526.4293842,530.9425012,,,,530.9515597,530.9617635,530.9617635,531.0080964,531.0083964,531.0246184,531.0246184,531.0246184,531.1079002,531.4418718,,,,,,,,up,4.511209800000074,None,space,0.4089159999999765,None,,,,,,,,,,,,,,,P113,001,2025-02-17_12h15.16.712,posner_endo_new1,2024.2.4,60.20741454310437,2025-02-17 12h15.30.187991 +0000,
cube_l.png,0.1,-0.31,valid,53,53,0,up,4.283536600000048,None,space,0.5604544999999916,None,,,,,0,53,53,53,,,,,531.4574418999999,,,,,,,,,,,,,531.4421212999999,531.4574418999999,531.4574418999999,531.4574418999999,535.7541183,,,,535.7632269,535.7734808,535.7734808,535.8198093999999,535.8201128,535.836443,535.836443,535.836443,535.9196205,536.4035695,,,,,,,,up,4.283536600000048,None,space,0.5604544999999916,None,,,,,,,,,,,,,,,P113,001,2025-02-17_12h15.16.712,posner_endo_new1,2024.2.4,60.20741454310437,2025-02-17 12h15.30.187991 +0000,
cube_r.png,0.1,10,catch,54,54,0,up,5.945426999999995,None,None,,,,,,,0,54,54,54,,,,,536.4190950999999,,,,,,,,,,,,,536.4038194999999,536.4190950999999,536.4190950999999,536.4190950999999,542.3806499,,,,542.3897673,542.399889,542.399889,542.446477,542.446782,542.462972,542.462972,542.462972,542.5462037,545.4604466,,,,544.5606474,545.4765596,545.4765596,545.4765596,up,5.945426999999995,None,None,,,,,,,,,,,,,,,,,P113,001,2025-02-17_12h15.16.712,posner_endo_new1,2024.2.4,60.20741454310437,2025-02-17 12h15.30.187991 +0000,
cube_l.png,0.1,0.31,invalid,55,55,0,up,2.536484499999915,None,space,0.3900294000000031,None,,,,,0,55,55,55,,,,,545.4765596,,,,,,,,,,,,,545.4606901,545.4765596,545.4765596,545.4765596,548.0249736,,,,548.0340734,548.0442631999999,548.0442631999999,548.0906709,548.0909781,548.1071982,548.1071982,548.1071982,548.1904274999999,548.5078393,,,,,,,,up,2.536484499999915,None,space,0.3900294000000031,None,,,,,,,,,,,,,,,P113,001,2025-02-17_12h15.16.712,posner_endo_new1,2024.2.4,60.20741454310437,2025-02-17 12h15.30.187991 +0000,
cube_l.png,0.1,-0.31,valid,56,56,0,up,6.3607878000000255,None,space,0.39399630000002617,None,,,,,0,56,56,56,,,,,548.523471,,,,,,,,,,,,,548.5080882,548.523471,548.523471,548.523471,554.9011525999999,,,,554.9103891,554.9202485,554.9202485,554.9669133,554.9672214999999,554.9834889,554.9834889,554.9834889,555.0666865,555.3841413,,,,,,,,up,6.3607878000000255,None,space,0.39399630000002617,None,,,,,,,,,,,,,,,P113,001,2025-02-17_12h15.16.712,posner_endo_new1,2024.2.4,60.20741454310437,2025-02-17 12h15.30.187991 +0000,
cube_r.png,0.1,0.31,valid,57,57,0,up,6.236463200000003,None,space,0.35668699999996534,None,,,,,0,57,57,57,,,,,555.3996833,,,,,,,,,,,,,555.3843881,555.3996833,555.3996833,555.3996833,561.6443484,,,,561.6534815,561.6637471,561.6637471,561.7101692,561.7104692,561.7265902,561.7265902,561.7265902,561.8097660999999,562.0938798,,,,,,,,up,6.236463200000003,None,space,0.35668699999996534,None,,,,,,,,,,,,,,,P113,001,2025-02-17_12h15.16.712,posner_endo_new1,2024.2.4,60.20741454310437,2025-02-17 12h15.30.187991 +0000,
cube_r.png,0.1,-0.31,invalid,58,58,0,up,6.543354999999906,None,space,0.3515750999999909,None,,,,,0,58,58,58,,,,,562.1095004,,,,,,,,,,,,,562.0941541,562.1095004,562.1095004,562.1095004,568.6539,,,,568.6627636,568.6725309,568.6725309,568.7194592,568.7196819,568.7360664,568.7360664,568.7360664,568.8194669,569.1031766,,,,,,,,up,6.543354999999906,None,space,0.3515750999999909,None,,,,,,,,,,,,,,,P113,001,2025-02-17_12h15.16.712,posner_endo_new1,2024.2.4,60.20741454310437,2025-02-17 12h15.30.187991 +0000,
cube_l.png,0.1,0.31,invalid,59,59,0,up,6.157304099999919,None,space,0.33258439999997336,None,,,,,0,59,59,59,,,,,569.1190508,,,,,,,,,,,,,569.1033439,569.1190508,569.1190508,569.1190508,575.2801795,,,,575.2862547999999,575.2979448,575.2979448,575.3462686,575.3464897,575.3625622,575.3625622,575.3625622,575.4292465999999,575.6966352,,,,,,,,up,6.157304099999919,None,space,0.33258439999997336,None,,,,,,,,,,,,,,,P113,001,2025-02-17_12h15.16.712,posner_endo_new1,2024.2.4,60.20741454310437,2025-02-17 12h15.30.187991 +0000,
,,,,,,,,,,,,,,,,,,,,,,,,,,,,,,,,,,,,,,,,,,,,,,,,,,,,,,,,,,,,,,,,,,,,,575.6967444,575.7123329,575.7123329,635.7175879,640.630435,space,64.9018552,None,,,,,,,P113,001,2025-02-17_12h15.16.712,posner_endo_new1,2024.2.4,60.20741454310437,2025-02-17 12h15.30.187991 +0000,
,,,,,,,,,,,,,,,,,,,,,,,,,,,,,,,,,,640.6305144,640.6459698,643.6630445,643.6268858,,,,,,,,,,,,,,,,,,,,,,,,,,,,,,,,,,,,,,,,,,,,,,P113,001,2025-02-17_12h15.16.712,posner_endo_new1,2024.2.4,60.20741454310437,2025-02-17 12h15.30.187991 +0000,
cube_l.png,0.1,10,catch,0,0,0,down,5.981851600000027,None,None,,,,,,,,,,,0,0,0,0,643.6630445,,,,,,,,,,,,,643.65415,643.6630445,643.6630445,643.6630445,649.6546981,,,,649.6647593,649.6745708999999,649.6745708999999,649.7201612,649.720402,649.7366703,649.7366703,649.7366703,649.8200213,652.7340042,,,,651.8343123999999,652.7506533,652.7506533,652.7506533,,,,,,,,,,,,,,,down,5.981851600000027,None,None,,,P113,001,2025-02-17_12h15.16.712,posner_endo_new1,2024.2.4,60.20741454310437,2025-02-17 12h15.30.187991 +0000,
cube_l.png,0.1,10,catch,1,1,0,down,2.3660302000000684,None,None,,,,,,,,,,,0,1,1,1,652.7506533,,,,,,,,,,,,,652.734153,652.7506533,652.7506533,652.7506533,655.131866,,,,655.1381273,655.1497911,655.1497911,655.1977925,655.1982896,655.2142600999999,655.2142600999999,655.2142600999999,655.2974952,658.2122802,,,,657.3121113999999,658.2278451999999,658.2278451999999,658.2278451999999,,,,,,,,,,,,,,,down,2.3660302000000684,None,None,,,P113,001,2025-02-17_12h15.16.712,posner_endo_new1,2024.2.4,60.20741454310437,2025-02-17 12h15.30.187991 +0000,
cube_l.png,0.1,0.31,invalid,2,2,0,down,3.288734199999908,None,space,0.5185949000000392,None,,,,,,,,,0,2,2,2,658.2278451999999,,,,,,,,,,,,,658.2126816,658.2278451999999,658.2278451999999,658.2278451999999,661.5258719,,,,661.5378681999999,661.5482786,661.5482786,661.5914041999999,661.5917474,661.6078774,661.6078774,661.6078774,661.6911672,662.1418950999999,,,,,,,,,,,,,,,,,,,,,,down,3.288734199999908,None,space,0.5185949000000392,None,P113,001,2025-02-17_12h15.16.712,posner_endo_new1,2024.2.4,60.20741454310437,2025-02-17 12h15.30.187991 +0000,
cube_l.png,0.1,0.31,invalid,3,3,0,down,5.406963599999926,None,space,0.3395646999999826,None,,,,,,,,,0,3,3,3,662.1573119,,,,,,,,,,,,,662.1421961,662.1573119,662.1573119,662.1573119,667.5690522,,,,667.5748838,667.5864273,667.5864273,667.6352988,667.6355221,667.6516526,667.6516526,667.6516526,667.7184082,668.0020281,,,,,,,,,,,,,,,,,,,,,,down,5.406963599999926,None,space,0.3395646999999826,None,P113,001,2025-02-17_12h15.16.712,posner_endo_new1,2024.2.4,60.20741454310437,2025-02-17 12h15.30.187991 +0000,
cube_l.png,0.1,-0.31,valid,4,4,0,down,5.363072099999954,None,space,0.3936261999999715,None,,,,,,,,,0,4,4,4,668.0180053,,,,,,,,,,,,,668.0021998999999,668.0180053,668.0180053,668.0180053,673.3967289999999,,,,673.4091479,673.4191893,673.4191893,673.4625199,673.4627918,673.4795038999999,673.4795038999999,673.4795038999999,673.5622205,673.8798406,,,,,,,,,,,,,,,,,,,,,,down,5.363072099999954,None,space,0.3936261999999715,None,P113,001,2025-02-17_12h15.16.712,posner_endo_new1,2024.2.4,60.20741454310437,2025-02-17 12h15.30.187991 +0000,
cube_r.png,0.1,-0.31,invalid,5,5,0,down,5.061324400000103,None,space,0.5021273000000974,None,,,,,,,,,0,5,5,5,673.8953531999999,,,,,,,,,,,,,673.8800717,673.8953531999999,673.8953531999999,673.8953531999999,678.9579781,,,,678.9701942,678.9803853,678.9803853,679.0231704,679.0235577999999,679.0396292,679.0396292,679.0396292,679.1228989,679.557157,,,,,,,,,,,,,,,,,,,,,,down,5.061324400000103,None,space,0.5021273000000974,None,P113,001,2025-02-17_12h15.16.712,posner_endo_new1,2024.2.4,60.20741454310437,2025-02-17 12h15.30.187991 +0000,
cube_r.png,0.1,0.31,valid,6,6,0,down,5.592544299999986,None,space,0.4924398000000565,None,,,,,,,,,0,6,6,6,679.5724216,,,,,,,,,,,,,679.5574849,679.5724216,679.5724216,679.5724216,685.1680929,,,,685.1757224,685.1868406,685.1868406,685.2339429,685.2342025,685.2503757,685.2503757,685.2503757,685.3336375,685.7509069,,,,,,,,,,,,,,,,,,,,,,down,5.592544299999986,None,space,0.4924398000000565,None,P113,001,2025-02-17_12h15.16.712,posner_endo_new1,2024.2.4,60.20741454310437,2025-02-17 12h15.30.187991 +0000,
cube_r.png,0.1,-0.31,invalid,7,7,0,down,5.150549699999942,None,space,0.36462349999999333,None,,,,,,,,,0,7,7,7,685.7665618999999,,,,,,,,,,,,,685.7511168999999,685.7665618999999,685.7665618999999,685.7665618999999,690.9288356,,,,690.9365104,690.9474415,690.9474415,690.9945132,690.994772,691.0112062,691.0112062,691.0112062,691.094287,691.3784495,,,,,,,,,,,,,,,,,,,,,,down,5.150549699999942,None,space,0.36462349999999333,None,P113,001,2025-02-17_12h15.16.712,posner_endo_new1,2024.2.4,60.20741454310437,2025-02-17 12h15.30.187991 +0000,
cube_l.png,0.1,-0.31,valid,8,8,0,down,6.322404600000027,None,space,0.3620875999999953,None,,,,,,,,,0,8,8,8,691.3940235,,,,,,,,,,,,,691.3786607,691.3940235,691.3940235,691.3940235,697.7220361999999,,,,697.7298066,697.7406487,697.7406487,697.7876899,697.7879514,697.80429,697.80429,697.80429,697.8873354,698.1716229,,,,,,,,,,,,,,,,,,,,,,down,6.322404600000027,None,space,0.3620875999999953,None,P113,001,2025-02-17_12h15.16.712,posner_endo_new1,2024.2.4,60.20741454310437,2025-02-17 12h15.30.187991 +0000,
cube_r.png,0.1,-0.31,invalid,9,9,0,down,5.561804700000039,None,space,0.38209150000000136,None,,,,,,,,,0,9,9,9,698.1872086,,,,,,,,,,,,,698.1718357999999,698.1872086,698.1872086,698.1872086,703.7657258,,,,703.7735546,703.7844438,703.7844438,703.8314835,703.8317412,703.8480916,703.8480916,703.8480916,703.9311038,704.2321494,,,,,,,,,,,,,,,,,,,,,,down,5.561804700000039,None,space,0.38209150000000136,None,P113,001,2025-02-17_12h15.16.712,posner_endo_new1,2024.2.4,60.20741454310437,2025-02-17 12h15.30.187991 +0000,
cube_l.png,0.1,0.31,invalid,10,10,0,down,4.733736399999998,None,space,0.4362694000000147,None,,,,,,,,,0,10,10,10,704.2476441,,,,,,,,,,,,,704.2323607,704.2476441,704.2476441,704.2476441,708.9934921,,,,709.0011086,709.0125668,709.0125668,709.0594004,709.059658,709.0759849,709.0759849,709.0759849,709.1425869999999,709.526349,,,,,,,,,,,,,,,,,,,,,,down,4.733736399999998,None,space,0.4362694000000147,None,P113,001,2025-02-17_12h15.16.712,posner_endo_new1,2024.2.4,60.20741454310437,2025-02-17 12h15.30.187991 +0000,
cube_r.png,0.1,-0.31,invalid,11,11,0,down,5.838819000000058,None,space,0.46459549999997307,None,,,,,,,,,0,11,11,11,709.5421914,,,,,,,,,,,,,709.5265591,709.5421914,709.5421914,709.5421914,715.3871353,,,,715.3948356,715.4060491,715.4060491,715.4529918,715.453251,715.4693293,715.4693293,715.4693293,715.5528001,715.9366719,,,,,,,,,,,,,,,,,,,,,,down,5.838819000000058,None,space,0.46459549999997307,None,P113,001,2025-02-17_12h15.16.712,posner_endo_new1,2024.2.4,60.20741454310437,2025-02-17 12h15.30.187991 +0000,
cube_r.png,0.1,0.31,valid,12,12,0,down,5.1972456000000875,None,space,0.3865200000000186,None,,,,,,,,,0,12,12,12,715.9524094999999,,,,,,,,,,,,,715.9368835,715.9524094999999,715.9524094999999,715.9524094999999,721.1646067999999,,,,721.1721945,721.183289,721.183289,721.2304267000001,721.2306851,721.2469769,721.2469769,721.2469769,721.3302253,721.6472762,,,,,,,,,,,,,,,,,,,,,,down,5.1972456000000875,None,space,0.3865200000000186,None,P113,001,2025-02-17_12h15.16.712,posner_endo_new1,2024.2.4,60.20741454310437,2025-02-17 12h15.30.187991 +0000,
cube_l.png,0.1,10,catch,13,13,0,down,5.605420800000047,None,None,,,,,,,,,,,0,13,13,13,721.663201,,,,,,,,,,,,,721.6474870000001,721.663201,721.663201,721.663201,727.2748714999999,,,,727.2824555999999,727.2938441,727.2938441,727.3405822999999,727.3408421,727.3573115999999,727.3573115999999,727.3573115999999,727.4239021,730.3548758999999,,,,729.4386100999999,730.3709709999999,730.3709709999999,730.3709709999999,,,,,,,,,,,,,,,down,5.605420800000047,None,None,,,P113,001,2025-02-17_12h15.16.712,posner_endo_new1,2024.2.4,60.20741454310437,2025-02-17 12h15.30.187991 +0000,
cube_r.png,0.1,-0.31,invalid,14,14,0,down,2.6174338999999236,None,space,0.3635564000001068,None,,,,,,,,,0,14,14,14,730.3709709999999,,,,,,,,,,,,,730.3550813999999,730.3709709999999,730.3709709999999,730.3709709999999,733.0024216999999,,,,733.010038,733.0210837000001,733.0210837000001,733.0683292,733.0685871,733.0848915,733.0848915,733.0848915,733.1681646000001,733.4521295000001,,,,,,,,,,,,,,,,,,,,,,down,2.6174338999999236,None,space,0.3635564000001068,None,P113,001,2025-02-17_12h15.16.712,posner_endo_new1,2024.2.4,60.20741454310437,2025-02-17 12h15.30.187991 +0000,
cube_l.png,0.1,-0.31,valid,15,15,0,down,5.6091610000000856,None,space,0.3868039999999837,None,,,,,,,,,0,15,15,15,733.4677742,,,,,,,,,,,,,733.4523403,733.4677742,733.4677742,733.4677742,739.0798329999999,,,,739.0874114,739.0984419,739.0984419,739.1453224,739.1455808,739.162085,739.162085,739.162085,739.2452612999999,739.5625309000001,,,,,,,,,,,,,,,,,,,,,,down,5.6091610000000856,None,space,0.3868039999999837,None,P113,001,2025-02-17_12h15.16.712,posner_endo_new1,2024.2.4,60.20741454310437,2025-02-17 12h15.30.187991 +0000,
cube_r.png,0.1,10,catch,16,16,0,down,5.306206499999917,None,None,,,,,,,,,,,0,16,16,16,739.5782129999999,,,,,,,,,,,,,739.5627484,739.5782129999999,739.5782129999999,739.5782129999999,744.8902609999999,,,,744.8980006,744.9091181,744.9091181,744.9562471,744.9565145,744.9726161,744.9726161,744.9726161,745.0392696,747.9702034999999,,,,747.0540910999999,747.9862110999999,747.9862110999999,747.9862110999999,,,,,,,,,,,,,,,down,5.306206499999917,None,None,,,P113,001,2025-02-17_12h15.16.712,posner_endo_new1,2024.2.4,60.20741454310437,2025-02-17 12h15.30.187991 +0000,
cube_r.png,0.1,10,catch,17,17,0,down,9.290209400000094,None,None,,,,,,,,,,,0,17,17,17,747.9862110999999,,,,,,,,,,,,,747.9703992999999,747.9862110999999,747.9862110999999,747.9862110999999,757.2776571999999,,,,757.2853320999999,757.2964737000001,757.2964737000001,757.3435963999999,757.3438551,757.3597586,757.3597586,757.3597586,757.4266274999999,760.3575182999999,,,,759.4413513999999,760.3735734999999,760.3735734999999,760.3735734999999,,,,,,,,,,,,,,,down,9.290209400000094,None,None,,,P113,001,2025-02-17_12h15.16.712,posner_endo_new1,2024.2.4,60.20741454310437,2025-02-17 12h15.30.187991 +0000,
cube_l.png,0.1,0.31,invalid,18,18,0,down,2.1348720999999387,None,space,0.34863049999989926,None,,,,,,,,,0,18,18,18,760.3735734999999,,,,,,,,,,,,,760.3577177999999,760.3735734999999,760.3735734999999,760.3735734999999,762.5222361,,,,762.5298403,762.5411049999999,762.5411049999999,762.5882654999999,762.5885268999999,762.6046732000001,762.6046732000001,762.6046732000001,762.6713673,762.9554543999999,,,,,,,,,,,,,,,,,,,,,,down,2.1348720999999387,None,space,0.34863049999989926,None,P113,001,2025-02-17_12h15.16.712,posner_endo_new1,2024.2.4,60.20741454310437,2025-02-17 12h15.30.187991 +0000,
cube_l.png,0.1,10,catch,19,19,0,down,5.586135900000045,None,None,,,,,,,,,,,0,19,19,19,762.9710483,,,,,,,,,,,,,762.9556650000001,762.9710483,762.9710483,762.9710483,768.5661913,,,,768.5739955999999,768.5849758,768.5849758,768.6320268000001,768.6322908999999,768.6484939000001,768.6484939000001,768.6484939000001,768.7318392999999,771.6459673999999,,,,770.7464266000001,771.662269,771.662269,771.662269,,,,,,,,,,,,,,,down,5.586135900000045,None,None,,,P113,001,2025-02-17_12h15.16.712,posner_endo_new1,2024.2.4,60.20741454310437,2025-02-17 12h15.30.187991 +0000,
cube_l.png,0.1,0.31,invalid,20,20,0,down,4.519047099999852,None,space,0.3638490000000729,None,,,,,,,,,0,20,20,20,771.662269,,,,,,,,,,,,,771.6461616,771.662269,771.662269,771.662269,776.1915301,,,,776.19735,776.2090016999999,776.2090016999999,776.2576564,776.2578795999999,776.2741221,776.2741221,776.2741221,776.3405908999999,776.6411281,,,,,,,,,,,,,,,,,,,,,,down,4.519047099999852,None,space,0.3638490000000729,None,P113,001,2025-02-17_12h15.16.712,posner_endo_new1,2024.2.4,60.20741454310437,2025-02-17 12h15.30.187991 +0000,
cube_l.png,0.1,-0.31,valid,21,21,0,down,6.835322600000154,None,space,0.4628320000001622,None,,,,,,,,,0,21,21,21,776.6570782,,,,,,,,,,,,,776.6413018,776.6570782,776.6570782,776.6570782,783.5013201999999,,,,783.5123743999999,783.5226618,783.5226618,783.5667457000001,783.5670853999999,783.5832690000001,783.5832690000001,783.5832690000001,783.6665414999999,784.0508695,,,,,,,,,,,,,,,,,,,,,,down,6.835322600000154,None,space,0.4628320000001622,None,P113,001,2025-02-17_12h15.16.712,posner_endo_new1,2024.2.4,60.20741454310437,2025-02-17 12h15.30.187991 +0000,
cube_r.png,0.1,0.31,valid,22,22,0,down,5.7229904999999235,None,space,0.32510640000009516,None,,,,,,,,,0,22,22,22,784.0660747999999,,,,,,,,,,,,,784.0511654000001,784.0660747999999,784.0660747999999,784.0660747999999,789.7948401,,,,789.8058474000001,789.8161389,789.8161389,789.8603813000001,789.8607203,789.8768323,789.8768323,789.8768323,789.9600935,790.2110406999999,,,,,,,,,,,,,,,,,,,,,,down,5.7229904999999235,None,space,0.32510640000009516,None,P113,001,2025-02-17_12h15.16.712,posner_endo_new1,2024.2.4,60.20741454310437,2025-02-17 12h15.30.187991 +0000,
cube_r.png,0.1,-0.31,invalid,23,23,0,down,6.08224569999993,None,space,0.3850615999999718,None,,,,,,,,,0,23,23,23,790.2265355000001,,,,,,,,,,,,,790.2113326,790.2265355000001,790.2265355000001,790.2265355000001,796.3214466000001,,,,796.3324618,796.3428872000001,796.3428872000001,796.3870373000001,796.3873769999999,796.4035573,796.4035573,796.4035573,796.4867751999999,796.8042538000001,,,,,,,,,,,,,,,,,,,,,,down,6.08224569999993,None,space,0.3850615999999718,None,P113,001,2025-02-17_12h15.16.712,posner_endo_new1,2024.2.4,60.20741454310437,2025-02-17 12h15.30.187991 +0000,
cube_r.png,0.1,0.31,valid,24,24,0,down,11.777827300000126,None,space,0.370404199999939,None,,,,,,,,,0,24,24,24,796.819705,,,,,,,,,,,,,796.8045476000001,796.819705,796.819705,796.819705,808.6089189999999,,,,808.6200316000001,808.6303775,808.6303775,808.6744883,808.6748317999999,808.6909027,808.6909027,808.6909027,808.7740909,809.0750581000001,,,,,,,,,,,,,,,,,,,,,,down,11.777827300000126,None,space,0.370404199999939,None,P113,001,2025-02-17_12h15.16.712,posner_endo_new1,2024.2.4,60.20741454310437,2025-02-17 12h15.30.187991 +0000,
cube_r.png,0.1,-0.31,invalid,25,25,0,down,6.026341700000103,None,space,0.36167730000011034,None,,,,,,,,,0,25,25,25,809.0905635999999,,,,,,,,,,,,,809.0753636999999,809.0905635999999,809.0905635999999,809.0905635999999,815.1189369,,,,815.1299347999999,815.1401824999999,815.1401824999999,815.1844321,815.1847756000001,815.2009606,815.2009606,815.2009606,815.2842320000001,815.5684729999999,,,,,,,,,,,,,,,,,,,,,,down,6.026341700000103,None,space,0.36167730000011034,None,P113,001,2025-02-17_12h15.16.712,posner_endo_new1,2024.2.4,60.20741454310437,2025-02-17 12h15.30.187991 +0000,
cube_l.png,0.1,-0.31,valid,26,26,0,down,6.444647900000064,None,space,0.439142400000037,None,,,,,,,,,0,26,26,26,815.5838921999999,,,,,,,,,,,,,815.5687690000001,815.5838921999999,815.5838921999999,815.5838921999999,822.0451065000001,,,,822.0561449999999,822.0661397,822.0661397,822.1107734000001,822.1111152,822.1272663000001,822.1272663000001,822.1272663000001,822.2103202,822.5780079,,,,,,,,,,,,,,,,,,,,,,down,6.444647900000064,None,space,0.439142400000037,None,P113,001,2025-02-17_12h15.16.712,posner_endo_new1,2024.2.4,60.20741454310437,2025-02-17 12h15.30.187991 +0000,
cube_r.png,0.1,0.31,valid,27,27,0,down,5.699974500000053,None,space,0.42042639999999665,None,,,,,,,,,0,27,27,27,822.5932988999999,,,,,,,,,,,,,822.5782974,822.5932988999999,822.5932988999999,822.5932988999999,828.3053126000001,,,,828.3143727999999,828.324068,828.324068,828.3710600999999,828.3713031999999,828.3875416,828.3875416,828.3875416,828.470764,828.8209860999999,,,,,,,,,,,,,,,,,,,,,,down,5.699974500000053,None,space,0.42042639999999665,None,P113,001,2025-02-17_12h15.16.712,posner_endo_new1,2024.2.4,60.20741454310437,2025-02-17 12h15.30.187991 +0000,
cube_r.png,0.1,10,catch,28,28,0,down,6.704146700000138,None,None,,,,,,,,,,,0,28,28,28,828.8370274,,,,,,,,,,,,,828.8211729000001,828.8370274,828.8370274,828.8370274,835.5478195,,,,835.5545272999999,835.5664376000001,835.5664376000001,835.6136912999999,835.6139258,835.6301124999999,835.6301124999999,835.6301124999999,835.7132975999999,838.6275085999999,,,,837.7278766999999,838.6436448999999,838.6436448999999,838.6436448999999,,,,,,,,,,,,,,,down,6.704146700000138,None,None,,,P113,001,2025-02-17_12h15.16.712,posner_endo_new1,2024.2.4,60.20741454310437,2025-02-17 12h15.30.187991 +0000,
cube_r.png,0.1,0.31,valid,29,29,0,down,2.9461425999998028,None,space,0.3294372000000294,None,,,,,,,,,0,29,29,29,838.6436448999999,,,,,,,,,,,,,838.6276859999999,838.6436448999999,838.6436448999999,838.6436448999999,841.591528,,,,841.5982126,841.6100717,841.6100717,841.6574351,841.6576822999999,841.6737279,841.6737279,841.6737279,841.7571485,842.0078434000001,,,,,,,,,,,,,,,,,,,,,,down,2.9461425999998028,None,space,0.3294372000000294,None,P113,001,2025-02-17_12h15.16.712,posner_endo_new1,2024.2.4,60.20741454310437,2025-02-17 12h15.30.187991 +0000,
cube_r.png,0.1,0.31,valid,30,30,0,down,5.221942000000126,None,space,0.4028130000001511,None,,,,,,,,,0,30,30,30,842.0235829,,,,,,,,,,,,,842.0080306000001,842.0235829,842.0235829,842.0235829,847.2523540000001,,,,847.2589091000001,847.2707537,847.2707537,847.3182125,847.3187136999999,847.3346551999999,847.3346551999999,847.3346551999999,847.4178857999999,847.7522978999999,,,,,,,,,,,,,,,,,,,,,,down,5.221942000000126,None,space,0.4028130000001511,None,P113,001,2025-02-17_12h15.16.712,posner_endo_new1,2024.2.4,60.20741454310437,2025-02-17 12h15.30.187991 +0000,
cube_l.png,0.1,-0.31,valid,31,31,0,down,5.005615000000034,None,space,0.40246879999995144,None,,,,,,,,,0,31,31,31,847.7676557000001,,,,,,,,,,,,,847.7525962999999,847.7676557000001,847.7676557000001,847.7676557000001,852.7804633,,,,852.7914259999999,852.8018089999999,852.8018089999999,852.846001,852.8463430999999,852.8625117999999,852.8625117999999,852.8625117999999,852.9457517,853.2799888999999,,,,,,,,,,,,,,,,,,,,,,down,5.005615000000034,None,space,0.40246879999995144,None,P113,001,2025-02-17_12h15.16.712,posner_endo_new1,2024.2.4,60.20741454310437,2025-02-17 12h15.30.187991 +0000,
cube_r.png,0.1,0.31,valid,32,32,0,down,6.437546399999974,None,space,0.46783989999994446,None,,,,,,,,,0,32,32,32,853.2954587999999,,,,,,,,,,,,,853.2802986,853.2954587999999,853.2954587999999,853.2954587999999,859.7399537,,,,859.7509159,859.7611553999999,859.7611553999999,859.8055137,859.8058496,859.8220398,859.8220398,859.8220398,859.9052720999999,860.3061762000001,,,,,,,,,,,,,,,,,,,,,,down,6.437546399999974,None,space,0.46783989999994446,None,P113,001,2025-02-17_12h15.16.712,posner_endo_new1,2024.2.4,60.20741454310437,2025-02-17 12h15.30.187991 +0000,
cube_r.png,0.1,-0.31,invalid,33,33,0,down,6.475990599999932,None,space,0.39804069999991043,None,,,,,,,,,0,33,33,33,860.3215236,,,,,,,,,,,,,860.3064708,860.3215236,860.3215236,860.3215236,866.7996132,,,,866.8106607999999,866.8209545999999,866.8209545999999,866.8650048999999,866.8653449,866.8815344000001,866.8815344000001,866.8815344000001,866.9647335999999,867.2825220999999,,,,,,,,,,,,,,,,,,,,,,down,6.475990599999932,None,space,0.39804069999991043,None,P113,001,2025-02-17_12h15.16.712,posner_endo_new1,2024.2.4,60.20741454310437,2025-02-17 12h15.30.187991 +0000,
cube_r.png,0.1,10,catch,34,34,0,down,6.475516700000071,None,None,,,,,,,,,,,0,34,34,34,867.2978142999999,,,,,,,,,,,,,867.2828126,867.2978142999999,867.2978142999999,867.2978142999999,873.7756949999999,,,,873.7867855000001,873.7971434,873.7971434,873.8412248999999,873.8415669,873.8577035,873.8577035,873.8577035,873.9409784000001,876.8553817000001,,,,875.9555738,876.8712939000001,876.8712939000001,876.8712939000001,,,,,,,,,,,,,,,down,6.475516700000071,None,None,,,P113,001,2025-02-17_12h15.16.712,posner_endo_new1,2024.2.4,60.20741454310437,2025-02-17 12h15.30.187991 +0000,
cube_r.png,0.1,0.31,valid,35,35,0,down,3.6857766999999058,None,space,0.3793928000000051,None,,,,,,,,,0,35,35,35,876.8712939000001,,,,,,,,,,,,,876.8556520999999,876.8712939000001,876.8712939000001,876.8712939000001,880.5686516,,,,880.5765823999999,880.5871836,880.5871836,880.6342550999999,880.6344954,880.6508230999999,880.6508230999999,880.6508230999999,880.7338838,881.0344670999999,,,,,,,,,,,,,,,,,,,,,,down,3.6857766999999058,None,space,0.3793928000000051,None,P113,001,2025-02-17_12h15.16.712,posner_endo_new1,2024.2.4,60.20741454310437,2025-02-17 12h15.30.187991 +0000,
cube_r.png,0.1,-0.31,invalid,36,36,0,down,7.4591810000001715,None,space,0.5468831999999111,None,,,,,,,,,0,36,36,36,881.0502903999999,,,,,,,,,,,,,881.0346576999999,881.0502903999999,881.0502903999999,881.0502903999999,888.5105084999999,,,,888.5171551,888.5284902,888.5284902,888.5760727999999,888.5765723999999,888.5925048,888.5925048,888.5925048,888.6757111000001,889.1439789,,,,,,,,,,,,,,,,,,,,,,down,7.4591810000001715,None,space,0.5468831999999111,None,P113,001,2025-02-17_12h15.16.712,posner_endo_new1,2024.2.4,60.20741454310437,2025-02-17 12h15.30.187991 +0000,
cube_l.png,0.1,0.31,invalid,37,37,0,down,7.894774899999902,None,space,0.36540609999997287,None,,,,,,,,,0,37,37,37,889.1585426,,,,,,,,,,,,,889.1444187999999,889.1585426,889.1585426,889.1585426,897.0685659,,,,897.0795654,897.0903251999999,897.0903251999999,897.1341624999999,897.1345074,897.1506418,897.1506418,897.1506418,897.2339288,897.5181117000001,,,,,,,,,,,,,,,,,,,,,,down,7.894774899999902,None,space,0.36540609999997287,None,P113,001,2025-02-17_12h15.16.712,posner_endo_new1,2024.2.4,60.20741454310437,2025-02-17 12h15.30.187991 +0000,
cube_l.png,0.1,0.31,invalid,38,38,0,down,6.191877100000056,None,space,0.27791389999993044,None,,,,,,,,,0,38,38,38,897.5335377,,,,,,,,,,,,,897.5184118000001,897.5335377,897.5335377,897.5335377,903.7280783,,,,903.734531,903.7462712999999,903.7462712999999,903.7939822,903.7942159,903.8104282,903.8104282,903.8104282,903.8936210999999,904.0942767,,,,,,,,,,,,,,,,,,,,,,down,6.191877100000056,None,space,0.27791389999993044,None,P113,001,2025-02-17_12h15.16.712,posner_endo_new1,2024.2.4,60.20741454310437,2025-02-17 12h15.30.187991 +0000,
cube_r.png,0.1,0.31,valid,39,39,0,down,5.583267400000068,None,space,0.3754265000000032,None,,,,,,,,,0,39,39,39,904.1101577000001,,,,,,,,,,,,,904.0944604,904.1101577000001,904.1101577000001,904.1101577000001,909.7049844,,,,909.7114577000001,909.7232691999999,909.7232691999999,909.7711876,909.7714095,909.7876955,909.7876955,909.7876955,909.8543361000001,910.1711567000001,,,,,,,,,,,,,,,,,,,,,,down,5.583267400000068,None,space,0.3754265000000032,None,P113,001,2025-02-17_12h15.16.712,posner_endo_new1,2024.2.4,60.20741454310437,2025-02-17 12h15.30.187991 +0000,
cube_l.png,0.1,0.31,invalid,40,40,0,down,6.281857200000104,None,space,0.38483530000007704,None,,,,,,,,,0,40,40,40,910.1873763,,,,,,,,,,,,,910.1713346999999,910.1873763,910.1873763,910.1873763,916.482306,,,,916.4932643000001,916.5036594,916.5036594,916.547614,916.5479532,916.5640784999999,916.5640784999999,916.5640784999999,916.6473422999999,916.9649661,,,,,,,,,,,,,,,,,,,,,,down,6.281857200000104,None,space,0.38483530000007704,None,P113,001,2025-02-17_12h15.16.712,posner_endo_new1,2024.2.4,60.20741454310437,2025-02-17 12h15.30.187991 +0000,
cube_l.png,0.1,10,catch,41,41,0,down,4.728104799999983,None,None,,,,,,,,,,,0,41,41,41,916.9805937,,,,,,,,,,,,,916.9652654,916.9805937,916.9805937,916.9805937,921.7101701999999,,,,921.7211607,921.7313105,921.7313105,921.7755096,921.7758714,921.7920877999999,921.7920877999999,921.7920877999999,921.8753102,924.7897827999999,,,,923.8898541,924.805637,924.805637,924.805637,,,,,,,,,,,,,,,down,4.728104799999983,None,None,,,P113,001,2025-02-17_12h15.16.712,posner_endo_new1,2024.2.4,60.20741454310437,2025-02-17 12h15.30.187991 +0000,
cube_l.png,0.1,-0.31,valid,42,42,0,down,2.88780399999996,None,space,0.4139855999999327,None,,,,,,,,,0,42,42,42,924.805637,,,,,,,,,,,,,924.7900523,924.805637,924.805637,924.805637,927.7038203999999,,,,927.7148980999999,927.725239,927.725239,927.76939,927.7696397999999,927.7858663999999,927.7858663999999,927.7858663999999,927.8692937,928.2029845999999,,,,,,,,,,,,,,,,,,,,,,down,2.88780399999996,None,space,0.4139855999999327,None,P113,001,2025-02-17_12h15.16.712,posner_endo_new1,2024.2.4,60.20741454310437,2025-02-17 12h15.30.187991 +0000,
cube_l.png,0.1,10,catch,43,43,0,down,5.754119100000025,None,None,,,,,,,,,,,0,43,43,43,928.2189338,,,,,,,,,,,,,928.2031813,928.2189338,928.2189338,928.2189338,933.9809584999999,,,,933.9919111,934.0022634000001,934.0022634000001,934.0463412999999,934.0466777999999,934.0628369,934.0628369,934.0628369,934.1461321999999,937.060509,,,,936.1607751999999,937.0764141999999,937.0764141999999,937.0764141999999,,,,,,,,,,,,,,,down,5.754119100000025,None,None,,,P113,001,2025-02-17_12h15.16.712,posner_endo_new1,2024.2.4,60.20741454310437,2025-02-17 12h15.30.187991 +0000,
cube_l.png,0.1,0.31,invalid,44,44,0,down,2.808666399999993,None,space,0.3925763999998253,None,,,,,,,,,0,44,44,44,937.0764141999999,,,,,,,,,,,,,937.0607878,937.0764141999999,937.0764141999999,937.0764141999999,939.8913613000001,,,,939.9023699,939.9126583000001,939.9126583000001,939.9569402000001,939.9572867999999,939.9734729999999,939.9734729999999,939.9734729999999,940.0567480999999,940.3744247000001,,,,,,,,,,,,,,,,,,,,,,down,2.808666399999993,None,space,0.3925763999998253,None,P113,001,2025-02-17_12h15.16.712,posner_endo_new1,2024.2.4,60.20741454310437,2025-02-17 12h15.30.187991 +0000,
cube_l.png,0.1,0.31,invalid,45,45,0,down,7.206870399999843,None,space,0.40386880000005476,None,,,,,,,,,0,45,45,45,940.3898647,,,,,,,,,,,,,940.3747176,940.3898647,940.3898647,940.3898647,947.6003089,,,,947.6112469999999,947.6215481,947.6215481,947.6657637,947.6661012000001,947.6823407999999,947.6823407999999,947.6823407999999,947.7653489999999,948.0994340000001,,,,,,,,,,,,,,,,,,,,,,down,7.206870399999843,None,space,0.40386880000005476,None,P113,001,2025-02-17_12h15.16.712,posner_endo_new1,2024.2.4,60.20741454310437,2025-02-17 12h15.30.187991 +0000,
cube_r.png,0.1,0.31,valid,46,46,0,down,9.673894200000177,None,space,0.34864859999993314,None,,,,,,,,,0,46,46,46,948.1153072999999,,,,,,,,,,,,,948.0996374,948.1153072999999,948.1153072999999,948.1153072999999,957.8059867999999,,,,957.8131169,957.8245725999999,957.8245725999999,957.8720582,957.8723037000001,957.8885363999999,957.8885363999999,957.8885363999999,957.955263,958.2390916999999,,,,,,,,,,,,,,,,,,,,,,down,9.673894200000177,None,space,0.34864859999993314,None,P113,001,2025-02-17_12h15.16.712,posner_endo_new1,2024.2.4,60.20741454310437,2025-02-17 12h15.30.187991 +0000,
cube_l.png,0.1,-0.31,valid,47,47,0,down,5.806539100000009,None,space,0.3364527999999609,None,,,,,,,,,0,47,47,47,958.2549009,,,,,,,,,,,,,958.2392997999999,958.2549009,958.2549009,958.2549009,964.0664869999999,,,,964.0734627,964.0852358000001,964.0852358000001,964.1321838,964.1324272999999,964.1487787,964.1487787,964.1487787,964.2321208,964.4994915999999,,,,,,,,,,,,,,,,,,,,,,down,5.806539100000009,None,space,0.3364527999999609,None,P113,001,2025-02-17_12h15.16.712,posner_endo_new1,2024.2.4,60.20741454310437,2025-02-17 12h15.30.187991 +0000,
cube_r.png,0.1,-0.31,invalid,48,48,0,down,6.9296114999999645,None,space,0.3469497999999476,None,,,,,,,,,0,48,48,48,964.5153177999999,,,,,,,,,,,,,964.4996931,964.5153177999999,964.5153177999999,964.5153177999999,971.4588233999999,,,,971.4658212,971.4780628,971.4780628,971.5246375999999,971.5248832000001,971.5411929,971.5411929,971.5411929,971.6077654,971.8919103,,,,,,,,,,,,,,,,,,,,,,down,6.9296114999999645,None,space,0.3469497999999476,None,P113,001,2025-02-17_12h15.16.712,posner_endo_new1,2024.2.4,60.20741454310437,2025-02-17 12h15.30.187991 +0000,
cube_r.png,0.1,10,catch,49,49,0,down,6.274011599999994,None,space,0.30824359999996886,None,,,,,,,,,0,49,49,49,971.9075838,,,,,,,,,,,,,971.8921079,971.9075838,971.9075838,971.9075838,978.1854255,,,,978.1925106,978.2042498,978.2042498,978.2511694000001,978.2514141,978.2677454999999,978.2677454999999,978.2677454999999,978.3509421,978.5851013,,,,,,,,,,,,,,,,,,,,,,down,6.274011599999994,None,space,0.30824359999996886,None,P113,001,2025-02-17_12h15.16.712,posner_endo_new1,2024.2.4,60.20741454310437,2025-02-17 12h15.30.187991 +0000,
cube_l.png,0.1,-0.31,valid,50,50,0,down,6.28527269999995,None,space,0.36962549999998373,None,,,,,,,,,0,50,50,50,978.6005541999999,,,,,,,,,,,,,978.5853043000001,978.6005541999999,978.6005541999999,978.6005541999999,984.8951777000001,,,,984.9022085999999,984.9139392999999,984.9139392999999,984.9609171000001,984.9611609,984.9774750999999,984.9774750999999,984.9774750999999,985.0608927,985.3612379,,,,,,,,,,,,,,,,,,,,,,down,6.28527269999995,None,space,0.36962549999998373,None,P113,001,2025-02-17_12h15.16.712,posner_endo_new1,2024.2.4,60.20741454310437,2025-02-17 12h15.30.187991 +0000,
cube_l.png,0.1,-0.31,valid,51,51,0,down,5.31590970000002,None,space,0.3872908999999254,None,,,,,,,,,0,51,51,51,985.3770968,,,,,,,,,,,,,985.3614365,985.3770968,985.3770968,985.3770968,990.7056879999999,,,,990.7126870000001,990.7245234000001,990.7245234000001,990.7717220000001,990.7719695,990.7880753999999,990.7880753999999,990.7880753999999,990.8549265,991.1886851999999,,,,,,,,,,,,,,,,,,,,,,down,5.31590970000002,None,space,0.3872908999999254,None,P113,001,2025-02-17_12h15.16.712,posner_endo_new1,2024.2.4,60.20741454310437,2025-02-17 12h15.30.187991 +0000,
cube_r.png,0.1,-0.31,invalid,52,52,0,down,7.024849099999983,None,space,0.3912399999999252,None,,,,,,,,,0,52,52,52,991.2044494999999,,,,,,,,,,,,,991.1888840999999,991.2044494999999,991.2044494999999,991.2044494999999,998.2313865,,,,998.2383874999999,998.2500432,998.2500432,998.2974561,998.2979899999999,998.3139124,998.3139124,998.3139124,998.3804412999999,998.7153205000001,,,,,,,,,,,,,,,,,,,,,,down,7.024849099999983,None,space,0.3912399999999252,None,P113,001,2025-02-17_12h15.16.712,posner_endo_new1,2024.2.4,60.20741454310437,2025-02-17 12h15.30.187991 +0000,
cube_l.png,0.1,-0.31,valid,53,53,0,down,6.283472099999926,None,space,0.34120270000016717,None,,,,,,,,,0,53,53,53,998.7300829,,,,,,,,,,,,,998.7158100999999,998.7300829,998.7300829,998.7300829,1005.0254816999999,,,,1005.0424916000001,1005.0530302000001,1005.0530302000001,1005.0903236999999,1005.0906663,1005.107046,1005.107046,1005.107046,1005.1901287,1005.4577479999999,,,,,,,,,,,,,,,,,,,,,,down,6.283472099999926,None,space,0.34120270000016717,None,P113,001,2025-02-17_12h15.16.712,posner_endo_new1,2024.2.4,60.20741454310437,2025-02-17 12h15.30.187991 +0000,
cube_r.png,0.1,10,catch,54,54,0,down,14.74793909999994,None,None,,,,,,,,,,,0,54,54,54,1005.4733425999999,,,,,,,,,,,,,1005.4580471999999,1005.4733425999999,1005.4733425999999,1005.4733425999999,1020.2268703000001,,,,1020.2446163000001,1020.2562624000001,1020.2562624000001,1020.291474,1020.2917749,1020.3080547000001,1020.3080547000001,1020.3080547000001,1020.391283,1023.305741,,,,1022.4059089000001,1023.3216004,1023.3216004,1023.3216004,,,,,,,,,,,,,,,down,14.74793909999994,None,None,,,P113,001,2025-02-17_12h15.16.712,posner_endo_new1,2024.2.4,60.20741454310437,2025-02-17 12h15.30.187991 +0000,
cube_l.png,0.1,0.31,invalid,55,55,0,down,3.907755800000018,None,space,0.46161239999992176,None,,,,,,,,,0,55,55,55,1023.3216004,,,,,,,,,,,,,1023.3059746,1023.3216004,1023.3216004,1023.3216004,1027.2355438999998,,,,1027.2445377999998,1027.2543767000002,1027.2543767000002,1027.3009956,1027.3012318,1027.3175282000002,1027.3175282000002,1027.3175282000002,1027.400972,1027.784603,,,,,,,,,,,,,,,,,,,,,,down,3.907755800000018,None,space,0.46161239999992176,None,P113,001,2025-02-17_12h15.16.712,posner_endo_new1,2024.2.4,60.20741454310437,2025-02-17 12h15.30.187991 +0000,
cube_l.png,0.1,-0.31,valid,56,56,0,down,7.317313099999865,None,space,0.3654665999997633,None,,,,,,,,,0,56,56,56,1027.8004812999998,,,,,,,,,,,,,1027.7847903000002,1027.8004812999998,1027.8004812999998,1027.8004812999998,1035.1269994999998,,,,1035.1337603000002,1035.1455861,1035.1455861,1035.1931884,1035.1934238,1035.2096099,1035.2096099,1035.2096099,1035.2760969,1035.5766708,,,,,,,,,,,,,,,,,,,,,,down,7.317313099999865,None,space,0.3654665999997633,None,P113,001,2025-02-17_12h15.16.712,posner_endo_new1,2024.2.4,60.20741454310437,2025-02-17 12h15.30.187991 +0000,
cube_r.png,0.1,0.31,valid,57,57,0,down,6.141230499999892,None,space,0.37816290000000663,None,,,,,,,,,0,57,57,57,1035.5925702999998,,,,,,,,,,,,,1035.5768573,1035.5925702999998,1035.5925702999998,1035.5925702999998,1041.7369302000002,,,,1041.7435608,1041.7554562,1041.7554562,1041.8029649,1041.8031998000001,1041.8194407,1041.8194407,1041.8194407,1041.8861069999998,1042.2033204999998,,,,,,,,,,,,,,,,,,,,,,down,6.141230499999892,None,space,0.37816290000000663,None,P113,001,2025-02-17_12h15.16.712,posner_endo_new1,2024.2.4,60.20741454310437,2025-02-17 12h15.30.187991 +0000,
cube_r.png,0.1,-0.31,invalid,58,58,0,down,6.594039399999929,None,space,0.40050609999980225,None,,,,,,,,,0,58,58,58,1042.2191468,,,,,,,,,,,,,1042.2035067000002,1042.2191468,1042.2191468,1042.2191468,1048.8297587000002,,,,1048.8363633,1048.8473368999998,1048.8473368999998,1048.8954242999998,1048.8958633000002,1048.9118718,1048.9118718,1048.9118718,1048.9954449000002,1049.3291743,,,,,,,,,,,,,,,,,,,,,,down,6.594039399999929,None,space,0.40050609999980225,None,P113,001,2025-02-17_12h15.16.712,posner_endo_new1,2024.2.4,60.20741454310437,2025-02-17 12h15.30.187991 +0000,
cube_l.png,0.1,0.31,invalid,59,59,0,down,6.228657600000133,None,space,0.5609271999996963,None,,,,,,,,,0,59,59,59,1049.3450564999998,,,,,,,,,,,,,1049.3294314,1049.3450564999998,1049.3450564999998,1049.3450564999998,1055.5896987,,,,1055.5988627000002,1055.6089097999998,1055.6089097999998,1055.6554479000001,1055.6557561999998,1055.6720618999998,1055.6720618999998,1055.6720618999998,1055.7551546999998,1056.2392243,,,,,,,,,,,,,,,,,,,,,,down,6.228657600000133,None,space,0.5609271999996963,None,P113,001,2025-02-17_12h15.16.712,posner_endo_new1,2024.2.4,60.20741454310437,2025-02-17 12h15.30.187991 +0000,
