cue_img,cue_soa,target_x,trial,thisN,thisTrialN,thisRepN,key_control2.keys,key_control2.rt,key_control2.duration,key_resp.keys,key_resp.rt,key_resp.duration,practice.thisRepN,practice.thisTrialN,practice.thisN,practice.thisIndex,block1.thisRepN,block1.thisTrialN,block1.thisN,block1.thisIndex,block2.thisRepN,block2.thisTrialN,block2.thisN,block2.thisIndex,thisRow.t,notes,instructions.started,instructions_txt.started,key_control.started,instructions.stopped,key_control.keys,key_control.rt,key_control.duration,ready.started,ready_txt.started,ready_txt.stopped,ready.stopped,fix.started,fixation.started,key_control2.started,fixation_cross.started,fix.stopped,practice.key_control2.keys,practice.key_control2.rt,practice.key_control2.duration,cue.started,cube.started,fixation_cross_cue.started,cue.stopped,target.started,fixation_target.started,fixation_cross_target.started,key_resp.started,star.started,target.stopped,practice.key_resp.keys,practice.key_resp.rt,practice.key_resp.duration,star.stopped,fixation_target.stopped,fixation_cross_target.stopped,key_resp.stopped,block1.key_control2.keys,block1.key_control2.rt,block1.key_control2.duration,block1.key_resp.keys,block1.key_resp.rt,block1.key_resp.duration,break_2.started,text.started,key_control3.started,text.stopped,break_2.stopped,key_control3.keys,key_control3.rt,key_control3.duration,block2.key_control2.keys,block2.key_control2.rt,block2.key_control2.duration,block2.key_resp.keys,block2.key_resp.rt,block2.key_resp.duration,cube.stopped,fixation_cross_cue.stopped,participant,session,date,expName,psychopyVersion,frameRate,expStart,
,,,,,,,,,,,,,,,,,,,,,,,,,,,0.007520199986174703,0.024180200009141117,0.024180200009141117,373.82773990000715,up,373.80188740001176,None,,,,,,,,,,,,,,,,,,,,,,,,,,,,,,,,,,,,,,,,,,,,,,,,,,,,P114,001,2025-02-19_10h57.00.013,posner_endo_new1,2024.2.4,60.05255799697681,2025-02-19 10h57.06.658238 +0000,
,,,,,,,,,,,,,,,,,,,,,,,,,,,,,,,,,,373.8278129999817,373.8430976999807,376.8656599999813,376.8247490999929,,,,,,,,,,,,,,,,,,,,,,,,,,,,,,,,,,,,,,,,,,,,,,,,P114,001,2025-02-19_10h57.00.013,posner_endo_new1,2024.2.4,60.05255799697681,2025-02-19 10h57.06.658238 +0000,
cube_l.png,0.1,-0.31,valid,0,0,0,down,9.856194599997252,None,space,0.34386530000483617,None,0,0,0,0,,,,,,,,,376.8656599999813,,,,,,,,,,,,,376.85205859999405,376.8656599999813,376.8656599999813,376.8656599999813,386.73084430000745,down,9.856194599997252,None,386.7508560999995,386.76160989998607,386.76160989998607,386.7965228999965,386.79683169999043,386.81300150000607,386.81300150000607,386.81300150000607,386.89636009998503,387.1638314999873,space,0.34386530000483617,None,,,,,,,,,,,,,,,,,,,,,,,,,,,P114,001,2025-02-19_10h57.00.013,posner_endo_new1,2024.2.4,60.05255799697681,2025-02-19 10h57.06.658238 +0000,
cube_l.png,0.1,0.31,invalid,1,1,0,down,6.382061100011924,None,space,0.33652250000159256,None,0,1,1,1,,,,,,,,,387.17944599999464,,,,,,,,,,,,,387.1640766999917,387.17944599999464,387.17944599999464,387.17944599999464,393.5738199999905,down,6.382061100011924,None,393.583210199984,393.5934486000042,393.5934486000042,393.6395402000053,393.63984449999407,393.656050199992,393.656050199992,393.656050199992,393.7392876999802,394.0068658000091,space,0.33652250000159256,None,,,,,,,,,,,,,,,,,,,,,,,,,,,P114,001,2025-02-19_10h57.00.013,posner_endo_new1,2024.2.4,60.05255799697681,2025-02-19 10h57.06.658238 +0000,
cube_r.png,0.1,-0.31,invalid,2,2,0,down,7.4192727000045124,None,space,0.38491789999534376,None,0,2,2,2,,,,,,,,,394.0223319999932,,,,,,,,,,,,,394.0071048999962,394.0223319999932,394.0223319999932,394.0223319999932,401.4493148000038,down,7.4192727000045124,None,401.4607879999967,401.4707998999802,401.4707998999802,401.5148768000072,401.51518250000663,401.5314212999947,401.5314212999947,401.5314212999947,401.61461640000925,401.9320092999842,space,0.38491789999534376,None,,,,,,,,,,,,,,,,,,,,,,,,,,,P114,001,2025-02-19_10h57.00.013,posner_endo_new1,2024.2.4,60.05255799697681,2025-02-19 10h57.06.658238 +0000,
cube_r.png,0.1,10,catch,3,3,0,down,8.862238000001526,None,None,,,0,3,3,3,,,,,,,,,401.94754100000137,,,,,,,,,,,,,401.93224799999734,401.94754100000137,401.94754100000137,401.94754100000137,410.8228419999941,down,8.862238000001526,None,410.8320299999905,410.8420460000052,410.8420460000052,410.8886120999814,410.88892009999836,410.905213799997,410.905213799997,410.905213799997,410.98837189999176,413.9027258999995,None,,,413.0030114999972,413.9186740999867,413.9186740999867,413.9186740999867,,,,,,,,,,,,,,,,,,,,,,,P114,001,2025-02-19_10h57.00.013,posner_endo_new1,2024.2.4,60.05255799697681,2025-02-19 10h57.06.658238 +0000,
cube_l.png,0.1,-0.31,valid,4,4,0,down,2.5392784999858122,None,space,0.34252590002142824,None,0,4,4,4,,,,,,,,,413.9186740999867,,,,,,,,,,,,,413.90295089999563,413.9186740999867,413.9186740999867,413.9186740999867,416.46708470000885,down,2.5392784999858122,None,416.47634140000446,416.48645189998206,416.48645189998206,416.53289850000874,416.53321699998924,416.5493227999832,416.5493227999832,416.5493227999832,416.6326337000064,416.90003289998276,space,0.34252590002142824,None,,,,,,,,,,,,,,,,,,,,,,,,,,,P114,001,2025-02-19_10h57.00.013,posner_endo_new1,2024.2.4,60.05255799697681,2025-02-19 10h57.06.658238 +0000,
cube_l.png,0.1,0.31,invalid,5,5,0,down,7.398158600000897,None,space,0.37960970000131056,None,0,5,5,5,,,,,,,,,416.91560929999105,,,,,,,,,,,,,416.90028080000775,416.91560929999105,416.91560929999105,416.91560929999105,424.32573290000437,down,7.398158600000897,None,424.3348960999865,424.34496640000725,424.34496640000725,424.3914919999952,424.3918008999899,424.407996199996,424.407996199996,424.407996199996,424.4913034999918,424.7919203999918,space,0.37960970000131056,None,,,,,,,,,,,,,,,,,,,,,,,,,,,P114,001,2025-02-19_10h57.00.013,posner_endo_new1,2024.2.4,60.05255799697681,2025-02-19 10h57.06.658238 +0000,
cube_r.png,0.1,-0.31,invalid,6,6,0,down,7.082415599987144,None,space,0.25442280000424944,None,0,6,6,6,,,,,,,,,424.8075880999968,,,,,,,,,,,,,424.79215749999275,424.8075880999968,424.8075880999968,424.8075880999968,431.90130070000305,down,7.082415599987144,None,431.91046789998654,431.92064930000925,431.92064930000925,431.9670959000068,431.9674015000055,431.98359069999424,431.98359069999424,431.98359069999424,432.0668282999832,432.25122229999397,space,0.25442280000424944,None,,,,,,,,,,,,,,,,,,,,,,,,,,,P114,001,2025-02-19_10h57.00.013,posner_endo_new1,2024.2.4,60.05255799697681,2025-02-19 10h57.06.658238 +0000,
cube_r.png,0.1,0.31,valid,7,7,0,down,8.1192079000175,None,space,0.3009269000031054,None,0,7,7,7,,,,,,,,,432.2665988999943,,,,,,,,,,,,,432.2514690999815,432.2665988999943,432.2665988999943,432.2665988999943,440.3926002999942,down,8.1192079000175,None,440.4017890999967,440.41199819999747,440.41199819999747,440.45846190000884,440.45876539999153,440.474845299992,440.474845299992,440.474845299992,440.5581821000087,440.79243719999795,space,0.3009269000031054,None,,,,,,,,,,,,,,,,,,,,,,,,,,,P114,001,2025-02-19_10h57.00.013,posner_endo_new1,2024.2.4,60.05255799697681,2025-02-19 10h57.06.658238 +0000,
cube_l.png,0.1,-0.31,valid,8,8,0,down,7.8822287999792024,None,space,0.29703789998893626,None,0,8,8,8,,,,,,,,,440.8078714000003,,,,,,,,,,,,,440.7926756000088,440.8078714000003,440.8078714000003,440.8078714000003,448.70092259999365,down,7.8822287999792024,None,448.7101534999965,448.72022819999256,448.72022819999256,448.7665752999892,448.76687989998027,448.7830574999971,448.7830574999971,448.7830574999971,448.8664457999985,449.0840543000086,space,0.29703789998893626,None,,,,,,,,,,,,,,,,,,,,,,,,,,,P114,001,2025-02-19_10h57.00.013,posner_endo_new1,2024.2.4,60.05255799697681,2025-02-19 10h57.06.658238 +0000,
cube_r.png,0.1,-0.31,invalid,9,9,0,down,8.471035300026415,None,space,0.325115999992704,None,0,9,9,9,,,,,,,,,449.0994196999818,,,,,,,,,,,,,449.08429239998804,449.0994196999818,449.0994196999818,449.0994196999818,457.57539449998876,down,8.471035300026415,None,457.584681599983,457.59478789998684,457.59478789998684,457.64084429998184,457.6411470999883,457.6574508000049,457.6574508000049,457.6574508000049,457.7405466999917,457.9915076000034,space,0.325115999992704,None,,,,,,,,,,,,,,,,,,,,,,,,,,,P114,001,2025-02-19_10h57.00.013,posner_endo_new1,2024.2.4,60.05255799697681,2025-02-19 10h57.06.658238 +0000,
cube_r.png,0.1,0.31,valid,10,10,0,down,8.94623239999055,None,space,0.29486480000196025,None,0,10,10,10,,,,,,,,,458.00745710000047,,,,,,,,,,,,,457.991746899992,458.00745710000047,458.00745710000047,458.00745710000047,466.96551239999826,down,8.94623239999055,None,466.9747861000069,466.9848272999807,466.9848272999807,467.0312572999974,467.0315691999858,467.0476861000061,467.0476861000061,467.0476861000061,467.131066300004,467.34855110000353,space,0.29486480000196025,None,,,,,,,,,,,,,,,,,,,,,,,,,,,P114,001,2025-02-19_10h57.00.013,posner_endo_new1,2024.2.4,60.05255799697681,2025-02-19 10h57.06.658238 +0000,
,,,,,,,,,,,,,,,,,,,,,,,,,,,,,,,,,,467.34870810000575,467.36407799998415,470.3763845000067,470.34483879999607,,,,,,,,,,,,,,,,,,,,,,,,,,,,,,,,,,,,,,,,,,,,,,,,P114,001,2025-02-19_10h57.00.013,posner_endo_new1,2024.2.4,60.05255799697681,2025-02-19 10h57.06.658238 +0000,
cube_l.png,0.1,10,catch,0,0,0,down,13.865557000011904,None,space,0.28777990001253784,None,,,,,0,0,0,0,,,,,470.3763845000067,,,,,,,,,,,,,470.36732109999866,470.3763845000067,470.3763845000067,470.3763845000067,484.24769950000336,,,,484.2558706999989,484.2665660000057,484.2665660000057,484.3137553999841,484.3140378999815,484.3301557999803,484.3301557999803,484.3301557999803,484.39673419998144,484.63083959999494,,,,,,,,down,13.865557000011904,None,space,0.28777990001253784,None,,,,,,,,,,,,,,,,,P114,001,2025-02-19_10h57.00.013,posner_endo_new1,2024.2.4,60.05255799697681,2025-02-19 10h57.06.658238 +0000,
cube_l.png,0.1,10,catch,1,1,0,down,7.427808499982348,None,None,,,,,,,0,1,1,1,,,,,484.6466262000031,,,,,,,,,,,,,484.63106549999793,484.6466262000031,484.6466262000031,484.6466262000031,492.0898714000068,,,,492.0979861000087,492.1084636999876,492.1084636999876,492.1555112999922,492.15579449999495,492.1721038999967,492.1721038999967,492.1721038999967,492.2555064999906,495.1697908999922,,,,494.27004679999663,495.18542799999705,495.18542799999705,495.18542799999705,down,7.427808499982348,None,None,,,,,,,,,,,,,,,,,,,P114,001,2025-02-19_10h57.00.013,posner_endo_new1,2024.2.4,60.05255799697681,2025-02-19 10h57.06.658238 +0000,
cube_l.png,0.1,0.31,invalid,2,2,0,down,4.2647620999778155,None,space,0.311166300001787,None,,,,,0,2,2,2,,,,,495.18542799999705,,,,,,,,,,,,,495.17000139999436,495.18542799999705,495.18542799999705,495.18542799999705,499.4657024999906,,,,499.47381569998106,499.48435959999915,499.48435959999915,499.5315372000041,499.53181670000777,499.5479942999955,499.5479942999955,499.5479942999955,499.63131309999153,499.865429700003,,,,,,,,down,4.2647620999778155,None,space,0.311166300001787,None,,,,,,,,,,,,,,,,,P114,001,2025-02-19_10h57.00.013,posner_endo_new1,2024.2.4,60.05255799697681,2025-02-19 10h57.06.658238 +0000,
cube_l.png,0.1,0.31,invalid,3,3,0,down,5.9453821000061,None,space,0.3026001999969594,None,,,,,0,3,3,3,,,,,499.88101710000774,,,,,,,,,,,,,499.8656540999946,499.88101710000774,499.88101710000774,499.88101710000774,505.84232900000643,,,,505.8503939000075,505.8611794000026,505.8611794000026,505.9082228000043,505.9085073999886,505.924818200001,505.924818200001,505.924818200001,506.0082044999872,506.24214859999483,,,,,,,,down,5.9453821000061,None,space,0.3026001999969594,None,,,,,,,,,,,,,,,,,P114,001,2025-02-19_10h57.00.013,posner_endo_new1,2024.2.4,60.05255799697681,2025-02-19 10h57.06.658238 +0000,
cube_l.png,0.1,-0.31,valid,4,4,0,down,6.496682700002566,None,space,0.3464240999892354,None,,,,,0,4,4,4,,,,,506.2577295000083,,,,,,,,,,,,,506.2423806999868,506.2577295000083,506.2577295000083,506.2577295000083,512.7686619999877,,,,512.7767100000056,512.7872514000046,512.7872514000046,512.8344643999881,512.8347472999885,512.8510052000056,512.8510052000056,512.8510052000056,512.9342886999948,513.2018094999949,,,,,,,,down,6.496682700002566,None,space,0.3464240999892354,None,,,,,,,,,,,,,,,,,P114,001,2025-02-19_10h57.00.013,posner_endo_new1,2024.2.4,60.05255799697681,2025-02-19 10h57.06.658238 +0000,
cube_r.png,0.1,-0.31,invalid,5,5,0,down,9.825095900014276,None,space,0.35210630000801757,None,,,,,0,5,5,5,,,,,513.2171924999857,,,,,,,,,,,,,513.2020330000087,513.2171924999857,513.2171924999857,513.2171924999857,523.0583929999848,,,,523.066500099987,523.0769843999879,523.0769843999879,523.1240053999936,523.1242855000019,523.1404898999899,523.1404898999899,523.1404898999899,523.2237530999992,523.5074697000091,,,,,,,,down,9.825095900014276,None,space,0.35210630000801757,None,,,,,,,,,,,,,,,,,P114,001,2025-02-19_10h57.00.013,posner_endo_new1,2024.2.4,60.05255799697681,2025-02-19 10h57.06.658238 +0000,
cube_r.png,0.1,0.31,valid,6,6,0,down,5.158253899979172,None,space,0.3515196999942418,None,,,,,0,6,6,6,,,,,523.5234194000077,,,,,,,,,,,,,523.50769269999,523.5234194000077,523.5234194000077,523.5234194000077,528.685765000002,,,,528.6938475999923,528.7044863000046,528.7044863000046,528.751651300001,528.7519292999932,528.7681310999906,528.7681310999906,528.7681310999906,528.8513243999914,529.1353551000066,,,,,,,,down,5.158253899979172,None,space,0.3515196999942418,None,,,,,,,,,,,,,,,,,P114,001,2025-02-19_10h57.00.013,posner_endo_new1,2024.2.4,60.05255799697681,2025-02-19 10h57.06.658238 +0000,
cube_r.png,0.1,-0.31,invalid,7,7,0,down,6.755029500025557,None,space,0.33013149999896996,None,,,,,0,7,7,7,,,,,529.1509874000039,,,,,,,,,,,,,529.135578299989,529.1509874000039,529.1509874000039,529.1509874000039,535.9116890000005,,,,535.9197847000032,535.9303926999855,535.9303926999855,535.9775283999916,535.9778035999916,535.9939919000026,535.9939919000026,535.9939919000026,536.0773319999862,536.3281832000066,,,,,,,,down,6.755029500025557,None,space,0.33013149999896996,None,,,,,,,,,,,,,,,,,P114,001,2025-02-19_10h57.00.013,posner_endo_new1,2024.2.4,60.05255799697681,2025-02-19 10h57.06.658238 +0000,
cube_l.png,0.1,-0.31,valid,8,8,0,down,6.578272399987327,None,space,0.33768190001137555,None,,,,,0,8,8,8,,,,,536.3437198000029,,,,,,,,,,,,,536.328405999986,536.3437198000029,536.3437198000029,536.3437198000029,542.939320000005,,,,542.960660599987,542.9706450999947,542.9706450999947,543.0037701999827,543.0041233999946,543.0200853999995,543.0200853999995,543.0200853999995,543.103245300008,543.3709940999979,,,,,,,,down,6.578272399987327,None,space,0.33768190001137555,None,,,,,,,,,,,,,,,,,P114,001,2025-02-19_10h57.00.013,posner_endo_new1,2024.2.4,60.05255799697681,2025-02-19 10h57.06.658238 +0000,
cube_r.png,0.1,-0.31,invalid,9,9,0,down,5.455597099993611,None,space,0.35103049999452196,None,,,,,0,9,9,9,,,,,543.3863821999985,,,,,,,,,,,,,543.3712935000076,543.3863821999985,543.3863821999985,543.3863821999985,548.8487075000012,,,,548.8598015999887,548.8700727999967,548.8700727999967,548.9141967000032,548.9145416999818,548.9306929000013,548.9306929000013,548.9306929000013,549.0140371999878,549.2982134000049,,,,,,,,down,5.455597099993611,None,space,0.35103049999452196,None,,,,,,,,,,,,,,,,,P114,001,2025-02-19_10h57.00.013,posner_endo_new1,2024.2.4,60.05255799697681,2025-02-19 10h57.06.658238 +0000,
cube_l.png,0.1,0.31,invalid,10,10,0,down,6.9377095000236295,None,space,0.36117669998202473,None,,,,,0,10,10,10,,,,,549.3136203000031,,,,,,,,,,,,,549.2985008999822,549.3136203000031,549.3136203000031,549.3136203000031,556.257804599998,,,,556.2689670999825,556.2791106000077,556.2791106000077,556.3233138000069,556.3236750999931,556.3398355999961,556.3398355999961,556.3398355999961,556.4231073999836,556.7071720999957,,,,,,,,down,6.9377095000236295,None,space,0.36117669998202473,None,,,,,,,,,,,,,,,,,P114,001,2025-02-19_10h57.00.013,posner_endo_new1,2024.2.4,60.05255799697681,2025-02-19 10h57.06.658238 +0000,
cube_r.png,0.1,-0.31,invalid,11,11,0,down,7.055045800021617,None,space,0.251070800004527,None,,,,,0,11,11,11,,,,,556.7227947000065,,,,,,,,,,,,,556.7074626999965,556.7227947000065,556.7227947000065,556.7227947000065,563.7834903000039,,,,563.7945536999905,563.8048319999943,563.8048319999943,563.8489917999832,563.8493402999884,563.8655290000024,563.8655290000024,563.8655290000024,563.9487911000033,564.1330964000081,,,,,,,,down,7.055045800021617,None,space,0.251070800004527,None,,,,,,,,,,,,,,,,,P114,001,2025-02-19_10h57.00.013,posner_endo_new1,2024.2.4,60.05255799697681,2025-02-19 10h57.06.658238 +0000,
cube_r.png,0.1,0.31,valid,12,12,0,down,8.045636499999091,None,space,0.3558220000122674,None,,,,,0,12,12,12,,,,,564.1485585999908,,,,,,,,,,,,,564.1333928999957,564.1485585999908,564.1485585999908,564.1485585999908,572.2081322000013,,,,572.2192827999825,572.2294250999985,572.2294250999985,572.2737057000049,572.2740561999963,572.29006259999,572.29006259999,572.29006259999,572.3734307999839,572.6576448999986,,,,,,,,down,8.045636499999091,None,space,0.3558220000122674,None,,,,,,,,,,,,,,,,,P114,001,2025-02-19_10h57.00.013,posner_endo_new1,2024.2.4,60.05255799697681,2025-02-19 10h57.06.658238 +0000,
cube_l.png,0.1,10,catch,13,13,0,down,4.760878699977184,None,space,0.2900087000161875,None,,,,,0,13,13,13,,,,,572.6733491999912,,,,,,,,,,,,,572.6579429999983,572.6733491999912,572.6733491999912,572.6733491999912,577.4359237999888,,,,577.4428934000025,577.4544773999951,577.4544773999951,577.5016783000028,577.5020263000042,577.5180914000084,577.5180914000084,577.5180914000084,577.6014495999843,577.8191136999812,,,,,,,,down,4.760878699977184,None,space,0.2900087000161875,None,,,,,,,,,,,,,,,,,P114,001,2025-02-19_10h57.00.013,posner_endo_new1,2024.2.4,60.05255799697681,2025-02-19 10h57.06.658238 +0000,
cube_r.png,0.1,-0.31,invalid,14,14,0,down,9.480161699990276,None,space,0.40513160001137294,None,,,,,0,14,14,14,,,,,577.8344729999953,,,,,,,,,,,,,577.8194025999983,577.8344729999953,577.8344729999953,577.8344729999953,587.3265029999893,,,,587.3426481999923,587.3536765000026,587.3536765000026,587.3916344000027,587.3919414999837,587.4082625999872,587.4082625999872,587.4082625999872,587.4913774000015,587.8254144999955,,,,,,,,down,9.480161699990276,None,space,0.40513160001137294,None,,,,,,,,,,,,,,,,,P114,001,2025-02-19_10h57.00.013,posner_endo_new1,2024.2.4,60.05255799697681,2025-02-19 10h57.06.658238 +0000,
cube_l.png,0.1,-0.31,valid,15,15,0,down,5.209305700002005,None,space,0.4406189000001177,None,,,,,0,15,15,15,,,,,587.8410494999844,,,,,,,,,,,,,587.8256761000084,587.8410494999844,587.8410494999844,587.8410494999844,593.0534688000043,,,,593.0627810999868,593.0729156000016,593.0729156000016,593.119145100005,593.1194555999828,593.1355771999806,593.1355771999806,593.1355771999806,593.2188563999953,593.5861611999862,,,,,,,,down,5.209305700002005,None,space,0.4406189000001177,None,,,,,,,,,,,,,,,,,P114,001,2025-02-19_10h57.00.013,posner_endo_new1,2024.2.4,60.05255799697681,2025-02-19 10h57.06.658238 +0000,
cube_r.png,0.1,10,catch,16,16,0,down,5.456023400009144,None,None,,,,,,,0,16,16,16,,,,,593.601843499986,,,,,,,,,,,,,593.586413299985,593.601843499986,593.601843499986,593.601843499986,599.0638601999963,,,,599.073132999998,599.0832564999873,599.0832564999873,599.1296913999831,599.1300084999821,599.1461283999961,599.1461283999961,599.1461283999961,599.2293976999936,602.1436388999864,,,,601.2440537000075,602.1597959999926,602.1597959999926,602.1597959999926,down,5.456023400009144,None,None,,,,,,,,,,,,,,,,,,,P114,001,2025-02-19_10h57.00.013,posner_endo_new1,2024.2.4,60.05255799697681,2025-02-19 10h57.06.658238 +0000,
cube_r.png,0.1,10,catch,17,17,0,down,9.602896399999736,None,space,0.3878305999969598,None,,,,,0,17,17,17,,,,,602.1597959999926,,,,,,,,,,,,,602.1438704000029,602.1597959999926,602.1597959999926,602.1597959999926,611.7677290999854,,,,611.7769242000068,611.7869818999898,611.7869818999898,611.8332869999867,611.8335978999967,611.8497661000001,611.8497661000001,611.8497661000001,611.9331013000046,612.2505566999898,,,,,,,,down,9.602896399999736,None,space,0.3878305999969598,None,,,,,,,,,,,,,,,,,P114,001,2025-02-19_10h57.00.013,posner_endo_new1,2024.2.4,60.05255799697681,2025-02-19 10h57.06.658238 +0000,
cube_l.png,0.1,0.31,invalid,18,18,0,down,9.768564600002719,None,space,0.3889563000120688,None,,,,,0,18,18,18,,,,,612.2661982999998,,,,,,,,,,,,,612.2508176999982,612.2661982999998,612.2661982999998,612.2661982999998,622.0402659999963,,,,622.0461563999997,622.0577788999944,622.0577788999944,622.1060676999914,622.1062929999898,622.1228220000048,622.1228220000048,622.1228220000048,622.1892695999995,622.5228558999952,,,,,,,,down,9.768564600002719,None,space,0.3889563000120688,None,,,,,,,,,,,,,,,,,P114,001,2025-02-19_10h57.00.013,posner_endo_new1,2024.2.4,60.05255799697681,2025-02-19 10h57.06.658238 +0000,
cube_l.png,0.1,10,catch,19,19,0,down,5.070920600002864,None,None,,,,,,,0,19,19,19,,,,,622.5390584999986,,,,,,,,,,,,,622.5230290000036,622.5390584999986,622.5390584999986,622.5390584999986,627.6177860999887,,,,627.6236672000086,627.6356464999844,627.6356464999844,627.683827300003,627.684049500007,627.6998847000068,627.6998847000068,627.6998847000068,627.7669547999976,630.6977666000021,,,,629.7813177999924,630.7140805999807,630.7140805999807,630.7140805999807,down,5.070920600002864,None,None,,,,,,,,,,,,,,,,,,,P114,001,2025-02-19_10h57.00.013,posner_endo_new1,2024.2.4,60.05255799697681,2025-02-19 10h57.06.658238 +0000,
cube_l.png,0.1,0.31,invalid,20,20,0,down,2.504235800006427,None,space,0.39003349997801706,None,,,,,0,20,20,20,,,,,630.7140805999807,,,,,,,,,,,,,630.6979269000003,630.7140805999807,630.7140805999807,630.7140805999807,633.2305637999962,,,,633.2525254999928,633.2647958000016,633.2647958000016,633.2943938999961,633.2947809000034,633.3108733999834,633.3108733999834,633.3108733999834,633.3941029999987,633.7117913999828,,,,,,,,down,2.504235800006427,None,space,0.39003349997801706,None,,,,,,,,,,,,,,,,,P114,001,2025-02-19_10h57.00.013,posner_endo_new1,2024.2.4,60.05255799697681,2025-02-19 10h57.06.658238 +0000,
cube_l.png,0.1,-0.31,valid,21,21,0,down,7.459682199987583,None,space,0.4913280000037048,None,,,,,0,21,21,21,,,,,633.7271140000084,,,,,,,,,,,,,633.7121316999837,633.7271140000084,633.7271140000084,633.7271140000084,641.2039910999883,,,,641.2164769000083,641.2261589999835,641.2261589999835,641.2696032999957,641.2699905000045,641.2860573999933,641.2860573999933,641.2860573999933,641.3692995999882,641.786824299983,,,,,,,,down,7.459682199987583,None,space,0.4913280000037048,None,,,,,,,,,,,,,,,,,P114,001,2025-02-19_10h57.00.013,posner_endo_new1,2024.2.4,60.05255799697681,2025-02-19 10h57.06.658238 +0000,
cube_r.png,0.1,0.31,valid,22,22,0,down,6.431829400011338,None,space,0.3347295999992639,None,,,,,0,22,22,22,,,,,641.8021883000038,,,,,,,,,,,,,641.7871605999826,641.8021883000038,641.8021883000038,641.8021883000038,648.2469245999819,,,,648.2550192000053,648.2657443000062,648.2657443000062,648.3128018999996,648.3130821999803,648.3292336000013,648.3292336000013,648.3292336000013,648.4125916000048,648.6798823999998,,,,,,,,down,6.431829400011338,None,space,0.3347295999992639,None,,,,,,,,,,,,,,,,,P114,001,2025-02-19_10h57.00.013,posner_endo_new1,2024.2.4,60.05255799697681,2025-02-19 10h57.06.658238 +0000,
cube_r.png,0.1,-0.31,invalid,23,23,0,down,11.218662700004643,None,space,0.3505789999908302,None,,,,,0,23,23,23,,,,,648.695764700009,,,,,,,,,,,,,648.6801265999966,648.695764700009,648.695764700009,648.695764700009,659.9187498999818,,,,659.9297630999936,659.9399524999899,659.9399524999899,659.9841100999911,659.9844592000009,660.0005902999837,660.0005902999837,660.0005902999837,660.0838352999999,660.3679679000052,,,,,,,,down,11.218662700004643,None,space,0.3505789999908302,None,,,,,,,,,,,,,,,,,P114,001,2025-02-19_10h57.00.013,posner_endo_new1,2024.2.4,60.05255799697681,2025-02-19 10h57.06.658238 +0000,
cube_r.png,0.1,0.31,valid,24,24,0,down,3.0828537000052165,None,space,0.5304428999952506,None,,,,,0,24,24,24,,,,,660.383551100007,,,,,,,,,,,,,660.3682732000016,660.383551100007,660.383551100007,660.383551100007,663.4815119999985,,,,663.4926489999925,663.5027589999954,663.5027589999954,663.5470994999923,663.5474485000013,663.5635887999961,663.5635887999961,663.5635887999961,663.646895199985,664.0976268000086,,,,,,,,down,3.0828537000052165,None,space,0.5304428999952506,None,,,,,,,,,,,,,,,,,P114,001,2025-02-19_10h57.00.013,posner_endo_new1,2024.2.4,60.05255799697681,2025-02-19 10h57.06.658238 +0000,
cube_r.png,0.1,-0.31,invalid,25,25,0,down,5.848808699985966,None,space,0.4012503999983892,None,,,,,0,25,25,25,,,,,664.1129634999961,,,,,,,,,,,,,664.0979176999826,664.1129634999961,664.1129634999961,664.1129634999961,669.9749197000056,,,,669.9834247999825,669.9934210999927,669.9934210999927,670.0406477999932,670.0408853999979,670.0569289999839,670.0569289999839,670.0569289999839,670.1402091000054,670.4739637000021,,,,,,,,down,5.848808699985966,None,space,0.4012503999983892,None,,,,,,,,,,,,,,,,,P114,001,2025-02-19_10h57.00.013,posner_endo_new1,2024.2.4,60.05255799697681,2025-02-19 10h57.06.658238 +0000,
cube_l.png,0.1,-0.31,valid,26,26,0,down,5.816492499987362,None,space,0.30640940001467243,None,,,,,0,26,26,26,,,,,670.4900011999998,,,,,,,,,,,,,670.4741525999852,670.4900011999998,670.4900011999998,670.4900011999998,676.3179702000052,,,,676.3246125000005,676.3363407999859,676.3363407999859,676.384080399992,676.3843242999865,676.4005804999906,676.4005804999906,676.4005804999906,676.467186599999,676.7177367999975,,,,,,,,down,5.816492499987362,None,space,0.30640940001467243,None,,,,,,,,,,,,,,,,,P114,001,2025-02-19_10h57.00.013,posner_endo_new1,2024.2.4,60.05255799697681,2025-02-19 10h57.06.658238 +0000,
cube_r.png,0.1,0.31,valid,27,27,0,down,5.596839799982263,None,space,0.3168901999888476,None,,,,,0,27,27,27,,,,,676.7335196000058,,,,,,,,,,,,,676.7179290000058,676.7335196000058,676.7335196000058,676.7335196000058,682.3449636999867,,,,682.3515875999874,682.3634584999818,682.3634584999818,682.4110865999828,682.4113274999836,682.4278162999835,682.4278162999835,682.4278162999835,682.4942315999942,682.7615272999974,,,,,,,,down,5.596839799982263,None,space,0.3168901999888476,None,,,,,,,,,,,,,,,,,P114,001,2025-02-19_10h57.00.013,posner_endo_new1,2024.2.4,60.05255799697681,2025-02-19 10h57.06.658238 +0000,
cube_r.png,0.1,10,catch,28,28,0,down,8.833307900000364,None,None,,,,,,,0,28,28,28,,,,,682.777403199987,,,,,,,,,,,,,682.7617108999984,682.777403199987,682.777403199987,682.777403199987,691.6190121999825,,,,691.6256938999868,691.637439699989,691.637439699989,691.6850135999848,691.6852512999903,691.7016482999898,691.7016482999898,691.7016482999898,691.7680746999977,694.6991447999899,,,,693.7828109999828,694.7152966999856,694.7152966999856,694.7152966999856,down,8.833307900000364,None,None,,,,,,,,,,,,,,,,,,,P114,001,2025-02-19_10h57.00.013,posner_endo_new1,2024.2.4,60.05255799697681,2025-02-19 10h57.06.658238 +0000,
cube_r.png,0.1,0.31,valid,29,29,0,down,2.775122299994109,None,space,0.37384250000468455,None,,,,,0,29,29,29,,,,,694.7152966999856,,,,,,,,,,,,,694.6993174999952,694.7152966999856,694.7152966999856,694.7152966999856,697.4963610999985,,,,697.5030059999845,697.5147301999968,697.5147301999968,697.5624181999883,697.5626542999817,697.5790571999969,697.5790571999969,697.5790571999969,697.6456341999874,697.9625705000071,,,,,,,,down,2.775122299994109,None,space,0.37384250000468455,None,,,,,,,,,,,,,,,,,P114,001,2025-02-19_10h57.00.013,posner_endo_new1,2024.2.4,60.05255799697681,2025-02-19 10h57.06.658238 +0000,
cube_r.png,0.1,0.31,valid,30,30,0,down,16.36823010002263,None,space,0.5921620999870356,None,,,,,0,30,30,30,,,,,697.9783989999851,,,,,,,,,,,,,697.9627643999993,697.9783989999851,697.9783989999851,697.9783989999851,714.3630719000066,,,,714.3768056999834,714.3874496000062,714.3874496000062,714.4284962000092,714.4288011000026,714.4451069000061,714.4451069000061,714.4451069000061,714.5282717999944,715.045332299982,,,,,,,,down,16.36823010002263,None,space,0.5921620999870356,None,,,,,,,,,,,,,,,,,P114,001,2025-02-19_10h57.00.013,posner_endo_new1,2024.2.4,60.05255799697681,2025-02-19 10h57.06.658238 +0000,
cube_l.png,0.1,-0.31,valid,31,31,0,down,9.28569120002794,None,space,0.4366630000004079,None,,,,,0,31,31,31,,,,,715.0610489999817,,,,,,,,,,,,,715.0455828999984,715.0610489999817,715.0610489999817,715.0610489999817,724.3526352999907,,,,724.361808799993,724.3718777000031,724.3718777000031,724.4184377999918,724.4187472999911,724.4348830999807,724.4348830999807,724.4348830999807,724.5180502999865,724.8853245000064,,,,,,,,down,9.28569120002794,None,space,0.4366630000004079,None,,,,,,,,,,,,,,,,,P114,001,2025-02-19_10h57.00.013,posner_endo_new1,2024.2.4,60.05255799697681,2025-02-19 10h57.06.658238 +0000,
cube_r.png,0.1,0.31,valid,32,32,0,down,6.957242000004044,None,space,0.44084599998313934,None,,,,,0,32,32,32,,,,,724.9010353999911,,,,,,,,,,,,,724.8855780999875,724.9010353999911,724.9010353999911,724.9010353999911,731.8617396999907,,,,731.8710671000008,731.8812142999959,731.8812142999959,731.9270737000043,731.9272974999913,731.9434309999924,731.9434309999924,731.9434309999924,732.0265881999803,732.3940460000013,,,,,,,,down,6.957242000004044,None,space,0.44084599998313934,None,,,,,,,,,,,,,,,,,P114,001,2025-02-19_10h57.00.013,posner_endo_new1,2024.2.4,60.05255799697681,2025-02-19 10h57.06.658238 +0000,
cube_r.png,0.1,-0.31,invalid,33,33,0,down,6.72870220002369,None,space,0.3987476000038441,None,,,,,0,33,33,33,,,,,732.4099384000001,,,,,,,,,,,,,732.3942220000026,732.4099384000001,732.4099384000001,732.4099384000001,739.153820699983,,,,739.1599985999928,739.1716739999829,739.1716739999829,739.2197478000016,739.2199879999971,739.2359639999922,739.2359639999922,739.2359639999922,739.3196219999809,739.6368222000019,,,,,,,,down,6.72870220002369,None,space,0.3987476000038441,None,,,,,,,,,,,,,,,,,P114,001,2025-02-19_10h57.00.013,posner_endo_new1,2024.2.4,60.05255799697681,2025-02-19 10h57.06.658238 +0000,
cube_r.png,0.1,10,catch,34,34,0,down,7.245577699999558,None,None,,,,,,,0,34,34,34,,,,,739.652553699998,,,,,,,,,,,,,739.6369936999981,739.652553699998,739.652553699998,739.652553699998,746.9125561999972,,,,746.9187338000047,746.9304005999875,746.9304005999875,746.9784030999872,746.9786267000018,746.9950131000078,746.9950131000078,746.9950131000078,747.078405999986,749.9923658999905,,,,749.0928815999941,750.0082433999924,750.0082433999924,750.0082433999924,down,7.245577699999558,None,None,,,,,,,,,,,,,,,,,,,P114,001,2025-02-19_10h57.00.013,posner_endo_new1,2024.2.4,60.05255799697681,2025-02-19 10h57.06.658238 +0000,
cube_r.png,0.1,0.31,valid,35,35,0,down,3.401874700008193,None,space,0.3750156000023708,None,,,,,0,35,35,35,,,,,750.0082433999924,,,,,,,,,,,,,749.9925302999909,750.0082433999924,750.0082433999924,750.0082433999924,753.422693600005,,,,753.4288210000086,753.440578699985,753.440578699985,753.4887274999928,753.4889497999975,753.5050297999987,753.5050297999987,753.5050297999987,753.5712676999974,753.8886194000079,,,,,,,,down,3.401874700008193,None,space,0.3750156000023708,None,,,,,,,,,,,,,,,,,P114,001,2025-02-19_10h57.00.013,posner_endo_new1,2024.2.4,60.05255799697681,2025-02-19 10h57.06.658238 +0000,
cube_r.png,0.1,-0.31,invalid,36,36,0,down,6.937501699983841,None,space,0.43234110000776127,None,,,,,0,36,36,36,,,,,753.9047643999802,,,,,,,,,,,,,753.8887960999855,753.9047643999802,753.9047643999802,753.9047643999802,760.8501854999922,,,,760.8722037999833,760.8844695999869,760.8844695999869,760.9140297999838,760.9143631999905,760.9305198999937,760.9305198999937,760.9305198999937,761.0141219999932,761.3650549000013,,,,,,,,down,6.937501699983841,None,space,0.43234110000776127,None,,,,,,,,,,,,,,,,,P114,001,2025-02-19_10h57.00.013,posner_endo_new1,2024.2.4,60.05255799697681,2025-02-19 10h57.06.658238 +0000,
cube_l.png,0.1,0.31,invalid,37,37,0,down,10.150228599988623,None,space,0.3835082000005059,None,,,,,0,37,37,37,,,,,761.3805152999994,,,,,,,,,,,,,761.3653302000021,761.3805152999994,761.3805152999994,761.3805152999994,771.537998499989,,,,771.5486221000028,771.5587638999859,771.5587638999859,771.6035563999903,771.6038882999856,771.6199651999923,771.6199651999923,771.6199651999923,771.7032043999934,772.0205565000069,,,,,,,,down,10.150228599988623,None,space,0.3835082000005059,None,,,,,,,,,,,,,,,,,P114,001,2025-02-19_10h57.00.013,posner_endo_new1,2024.2.4,60.05255799697681,2025-02-19 10h57.06.658238 +0000,
cube_l.png,0.1,0.31,invalid,38,38,0,down,6.798349899996538,None,space,0.3721138999972027,None,,,,,0,38,38,38,,,,,772.0361334999907,,,,,,,,,,,,,772.020841599995,772.0361334999907,772.0361334999907,772.0361334999907,778.8470188000065,,,,778.8573783999891,778.867657099996,778.867657099996,778.9126050999912,778.912935100001,778.9290960000071,778.9290960000071,778.9290960000071,779.0124237999844,779.3132345000049,,,,,,,,down,6.798349899996538,None,space,0.3721138999972027,None,,,,,,,,,,,,,,,,,P114,001,2025-02-19_10h57.00.013,posner_endo_new1,2024.2.4,60.05255799697681,2025-02-19 10h57.06.658238 +0000,
cube_r.png,0.1,0.31,valid,39,39,0,down,7.130186900001718,None,space,0.37487270002020523,None,,,,,0,39,39,39,,,,,779.3286566000024,,,,,,,,,,,,,779.3135098000057,779.3286566000024,779.3286566000024,779.3286566000024,786.472611300007,,,,786.4830361999921,786.4931487999856,786.4931487999856,786.5383428999921,786.5386816999817,786.5547744999931,786.5547744999931,786.5547744999931,786.6377247000055,786.9388580000086,,,,,,,,down,7.130186900001718,None,space,0.37487270002020523,None,,,,,,,,,,,,,,,,,P114,001,2025-02-19_10h57.00.013,posner_endo_new1,2024.2.4,60.05255799697681,2025-02-19 10h57.06.658238 +0000,
cube_l.png,0.1,0.31,invalid,40,40,0,down,6.592619400005788,None,space,0.5101063000038266,None,,,,,0,40,40,40,,,,,786.9543091999949,,,,,,,,,,,,,786.9391332999803,786.9543091999949,786.9543091999949,786.9543091999949,793.548898100009,,,,793.5595766000042,793.5696845999919,793.5696845999919,793.6143028000079,793.614633899997,793.6307809999853,793.6307809999853,793.6307809999853,793.7138956999988,794.1480762999854,,,,,,,,down,6.592619400005788,None,space,0.5101063000038266,None,,,,,,,,,,,,,,,,,P114,001,2025-02-19_10h57.00.013,posner_endo_new1,2024.2.4,60.05255799697681,2025-02-19 10h57.06.658238 +0000,
cube_l.png,0.1,10,catch,41,41,0,down,7.055192999978317,None,None,,,,,,,0,41,41,41,,,,,794.1635963000008,,,,,,,,,,,,,794.1483519999892,794.1635963000008,794.1635963000008,794.1635963000008,801.2242458999972,,,,801.2328503000026,801.2425855000038,801.2425855000038,801.2897874999908,801.2900258000009,801.306313100009,801.306313100009,801.306313100009,801.3896330999851,804.3044055000064,,,,803.4041362999997,804.3198590999818,804.3198590999818,804.3198590999818,down,7.055192999978317,None,None,,,,,,,,,,,,,,,,,,,P114,001,2025-02-19_10h57.00.013,posner_endo_new1,2024.2.4,60.05255799697681,2025-02-19 10h57.06.658238 +0000,
cube_l.png,0.1,-0.31,valid,42,42,0,down,2.594952099985676,None,space,0.36715340000228025,None,,,,,0,42,42,42,,,,,804.3198590999818,,,,,,,,,,,,,804.3048591999977,804.3198590999818,804.3198590999818,804.3198590999818,806.9184275000007,,,,806.9288424999977,806.9392278000014,806.9392278000014,806.9839874999889,806.9843188999803,807.0004872999853,807.0004872999853,807.0004872999853,807.0836941000016,807.38467639999,,,,,,,,down,2.594952099985676,None,space,0.36715340000228025,None,,,,,,,,,,,,,,,,,P114,001,2025-02-19_10h57.00.013,posner_endo_new1,2024.2.4,60.05255799697681,2025-02-19 10h57.06.658238 +0000,
cube_l.png,0.1,10,catch,43,43,0,down,9.490164599992568,None,None,,,,,,,0,43,43,43,,,,,807.4000103999861,,,,,,,,,,,,,807.3849497000047,807.4000103999861,807.4000103999861,807.4000103999861,816.8915678999911,,,,816.9021431999863,816.9123072999937,816.9123072999937,816.9571354000072,816.9574724999839,816.9736329999869,816.9736329999869,816.9736329999869,817.056908700004,819.9710974000045,,,,819.0714896999998,819.9873408999993,819.9873408999993,819.9873408999993,down,9.490164599992568,None,None,,,,,,,,,,,,,,,,,,,P114,001,2025-02-19_10h57.00.013,posner_endo_new1,2024.2.4,60.05255799697681,2025-02-19 10h57.06.658238 +0000,
cube_l.png,0.1,0.31,invalid,44,44,0,down,4.806972199992742,None,space,0.4648021000029985,None,,,,,0,44,44,44,,,,,819.9873408999993,,,,,,,,,,,,,819.9713581999822,819.9873408999993,819.9873408999993,819.9873408999993,824.8001693999977,,,,824.8106794999912,824.8208419999864,824.8208419999864,824.8657322000072,824.8660764999804,824.8822805999953,824.8822805999953,824.8822805999953,824.965434999991,825.3496322999999,,,,,,,,down,4.806972199992742,None,space,0.4648021000029985,None,,,,,,,,,,,,,,,,,P114,001,2025-02-19_10h57.00.013,posner_endo_new1,2024.2.4,60.05255799697681,2025-02-19 10h57.06.658238 +0000,
cube_l.png,0.1,0.31,invalid,45,45,0,down,10.085464599978877,None,space,0.41935060001560487,None,,,,,0,45,45,45,,,,,825.3650237999973,,,,,,,,,,,,,825.3499052999832,825.3650237999973,825.3650237999973,825.3650237999973,835.4557677999837,,,,835.4623561000044,835.4739072000084,835.4739072000084,835.5214821999834,835.5217121999885,835.5381427999819,835.5381427999819,835.5381427999819,835.6211880999908,835.9716560999805,,,,,,,,down,10.085464599978877,None,space,0.41935060001560487,None,,,,,,,,,,,,,,,,,P114,001,2025-02-19_10h57.00.013,posner_endo_new1,2024.2.4,60.05255799697681,2025-02-19 10h57.06.658238 +0000,
cube_r.png,0.1,0.31,valid,46,46,0,down,7.39143960000365,None,space,0.4040341000072658,None,,,,,0,46,46,46,,,,,835.9874645000091,,,,,,,,,,,,,835.9718257999921,835.9874645000091,835.9874645000091,835.9874645000091,843.380849499983,,,,843.3871711999818,843.3989097999875,843.3989097999875,843.4466378999932,843.446873000008,843.4630775999976,843.4630775999976,843.4630775999976,843.5468345999834,843.880098499998,,,,,,,,down,7.39143960000365,None,space,0.4040341000072658,None,,,,,,,,,,,,,,,,,P114,001,2025-02-19_10h57.00.013,posner_endo_new1,2024.2.4,60.05255799697681,2025-02-19 10h57.06.658238 +0000,
cube_l.png,0.1,-0.31,valid,47,47,0,down,10.195079199998872,None,space,0.3685939999995753,None,,,,,0,47,47,47,,,,,843.8956566999841,,,,,,,,,,,,,843.8802692999889,843.8956566999841,843.8956566999841,843.8956566999841,854.1029536999995,,,,854.1094690999889,854.1210617999895,854.1210617999895,854.1690659000014,854.1692921000067,854.1856035999954,854.1856035999954,854.1856035999954,854.2519622999826,854.5689087999926,,,,,,,,down,10.195079199998872,None,space,0.3685939999995753,None,,,,,,,,,,,,,,,,,P114,001,2025-02-19_10h57.00.013,posner_endo_new1,2024.2.4,60.05255799697681,2025-02-19 10h57.06.658238 +0000,
cube_r.png,0.1,-0.31,invalid,48,48,0,down,18.897142000001622,None,space,0.3848193000012543,None,,,,,0,48,48,48,,,,,854.5853812999849,,,,,,,,,,,,,854.5690788000065,854.5853812999849,854.5853812999849,854.5853812999849,873.4834323999821,,,,873.4895681999915,873.5013289999915,873.5013289999915,873.5494789000077,873.5497024999931,873.5657272999815,873.5657272999815,873.5657272999815,873.6325497000071,873.9660086999938,,,,,,,,down,18.897142000001622,None,space,0.3848193000012543,None,,,,,,,,,,,,,,,,,P114,001,2025-02-19_10h57.00.013,posner_endo_new1,2024.2.4,60.05255799697681,2025-02-19 10h57.06.658238 +0000,
cube_r.png,0.1,10,catch,49,49,0,down,6.388123599987011,None,None,,,,,,,0,49,49,49,,,,,873.9820162999968,,,,,,,,,,,,,873.9661772999971,873.9820162999968,873.9820162999968,873.9820162999968,880.3761857000063,,,,880.3823107999924,880.3941319999867,880.3941319999867,880.4421360999986,880.4423606999917,880.458802100009,880.458802100009,880.458802100009,880.5255911999848,883.4562649999862,,,,882.5400674999983,883.4719299999997,883.4719299999997,883.4719299999997,down,6.388123599987011,None,None,,,,,,,,,,,,,,,,,,,P114,001,2025-02-19_10h57.00.013,posner_endo_new1,2024.2.4,60.05255799697681,2025-02-19 10h57.06.658238 +0000,
cube_l.png,0.1,-0.31,valid,50,50,0,down,3.146607100003166,None,space,0.4160375999927055,None,,,,,0,50,50,50,,,,,883.4719299999997,,,,,,,,,,,,,883.4564248999814,883.4719299999997,883.4719299999997,883.4719299999997,886.6201381999999,,,,886.6261058000091,886.6376909999817,886.6376909999817,886.6855561999837,886.6857885000063,886.7024702999915,886.7024702999915,886.7024702999915,886.7855796999938,887.1195195000037,,,,,,,,down,3.146607100003166,None,space,0.4160375999927055,None,,,,,,,,,,,,,,,,,P114,001,2025-02-19_10h57.00.013,posner_endo_new1,2024.2.4,60.05255799697681,2025-02-19 10h57.06.658238 +0000,
cube_l.png,0.1,-0.31,valid,51,51,0,down,9.890962700010277,None,space,0.45592469998518936,None,,,,,0,51,51,51,,,,,887.135134799988,,,,,,,,,,,,,887.1196908999991,887.135134799988,887.135134799988,887.135134799988,897.0425077999826,,,,897.0487288000004,897.0604377999844,897.0604377999844,897.1085359999852,897.1087615999859,897.1250701999816,897.1250701999816,897.1250701999816,897.1918289999885,897.5919237000053,,,,,,,,down,9.890962700010277,None,space,0.45592469998518936,None,,,,,,,,,,,,,,,,,P114,001,2025-02-19_10h57.00.013,posner_endo_new1,2024.2.4,60.05255799697681,2025-02-19 10h57.06.658238 +0000,
cube_r.png,0.1,-0.31,invalid,52,52,0,down,4.731102000019746,None,space,0.4586537999857683,None,,,,,0,52,52,52,,,,,897.6078812000051,,,,,,,,,,,,,897.5920955000038,897.6078812000051,897.6078812000051,897.6078812000051,902.3537385999807,,,,902.3598407999962,902.3714627999871,902.3714627999871,902.4196989999909,902.419925299997,902.4363462000038,902.4363462000038,902.4363462000038,902.5030330999871,902.9033196000091,,,,,,,,down,4.731102000019746,None,space,0.4586537999857683,None,,,,,,,,,,,,,,,,,P114,001,2025-02-19_10h57.00.013,posner_endo_new1,2024.2.4,60.05255799697681,2025-02-19 10h57.06.658238 +0000,
cube_l.png,0.1,-0.31,valid,53,53,0,down,7.27572710000095,None,space,0.3467407999851275,None,,,,,0,53,53,53,,,,,902.9193100999983,,,,,,,,,,,,,902.9034892999916,902.9193100999983,902.9193100999983,902.9193100999983,910.1959870999854,,,,910.2019981000049,910.2137715999852,910.2137715999852,910.261674999987,910.2619003999862,910.2781260999909,910.2781260999909,910.2781260999909,910.3614894000057,910.6288240999856,,,,,,,,down,7.27572710000095,None,space,0.3467407999851275,None,,,,,,,,,,,,,,,,,P114,001,2025-02-19_10h57.00.013,posner_endo_new1,2024.2.4,60.05255799697681,2025-02-19 10h57.06.658238 +0000,
cube_r.png,0.1,10,catch,54,54,0,down,6.438808800012339,None,None,,,,,,,0,54,54,54,,,,,910.6441598999954,,,,,,,,,,,,,910.628996399988,910.6441598999954,910.6441598999954,910.6441598999954,917.0885018999979,,,,917.0945797000022,917.1063965999929,917.1063965999929,917.1545544999826,917.154778199998,917.1713888999948,917.1713888999948,917.1713888999948,917.2379960999824,920.1683036999893,,,,919.2526351999841,920.1849372999859,920.1849372999859,920.1849372999859,down,6.438808800012339,None,None,,,,,,,,,,,,,,,,,,,P114,001,2025-02-19_10h57.00.013,posner_endo_new1,2024.2.4,60.05255799697681,2025-02-19 10h57.06.658238 +0000,
cube_l.png,0.1,0.31,invalid,55,55,0,down,9.585356099996716,None,space,0.41460279998136684,None,,,,,0,55,55,55,,,,,920.1849372999859,,,,,,,,,,,,,920.1684661000036,920.1849372999859,920.1849372999859,920.1849372999859,929.7761947999825,,,,929.7851945000002,929.794953500008,929.794953500008,929.8419138999889,929.8421639000007,929.8582668000017,929.8582668000017,929.8582668000017,929.9416349999956,930.2755268999899,,,,,,,,down,9.585356099996716,None,space,0.41460279998136684,None,,,,,,,,,,,,,,,,,P114,001,2025-02-19_10h57.00.013,posner_endo_new1,2024.2.4,60.05255799697681,2025-02-19 10h57.06.658238 +0000,
cube_l.png,0.1,-0.31,valid,56,56,0,down,4.295372799999313,None,space,0.38542320000124164,None,,,,,0,56,56,56,,,,,930.2910399999819,,,,,,,,,,,,,930.2757182999921,930.2910399999819,930.2910399999819,930.2910399999819,934.5876507000066,,,,934.5949041999993,934.6067062999937,934.6067062999937,934.6535626999976,934.6538153000001,934.6700457999832,934.6700457999832,934.6700457999832,934.7366373999976,935.0705274000065,,,,,,,,down,4.295372799999313,None,space,0.38542320000124164,None,,,,,,,,,,,,,,,,,P114,001,2025-02-19_10h57.00.013,posner_endo_new1,2024.2.4,60.05255799697681,2025-02-19 10h57.06.658238 +0000,
cube_r.png,0.1,0.31,valid,57,57,0,down,7.236006299994187,None,space,0.32553199998801574,None,,,,,0,57,57,57,,,,,935.0863223999913,,,,,,,,,,,,,935.0707219000033,935.0863223999913,935.0863223999913,935.0863223999913,942.3298706999922,,,,942.3372150000068,942.3485902999819,942.3485902999819,942.395595000009,942.3958469000063,942.4121397999988,942.4121397999988,942.4121397999988,942.4953258000023,942.7458254999947,,,,,,,,down,7.236006299994187,None,space,0.32553199998801574,None,,,,,,,,,,,,,,,,,P114,001,2025-02-19_10h57.00.013,posner_endo_new1,2024.2.4,60.05255799697681,2025-02-19 10h57.06.658238 +0000,
cube_r.png,0.1,-0.31,invalid,58,58,0,down,2.968778400012525,None,space,0.3824351000075694,None,,,,,0,58,58,58,,,,,942.7617399999872,,,,,,,,,,,,,942.746018899983,942.7617399999872,942.7617399999872,942.7617399999872,945.742789299984,,,,945.7500696000061,945.7618300000031,945.7618300000031,945.8088016999827,945.8090519999969,945.8253747999843,945.8253747999843,945.8253747999843,945.8918397999951,946.2091268000077,,,,,,,,down,2.968778400012525,None,space,0.3824351000075694,None,,,,,,,,,,,,,,,,,P114,001,2025-02-19_10h57.00.013,posner_endo_new1,2024.2.4,60.05255799697681,2025-02-19 10h57.06.658238 +0000,
cube_l.png,0.1,0.31,invalid,59,59,0,down,2.073856600007275,None,space,0.49733370001195,None,,,,,0,59,59,59,,,,,946.2248337999918,,,,,,,,,,,,,946.2093190999876,946.2248337999918,946.2248337999918,946.2248337999918,948.3069342999952,,,,948.31420719999,948.3260476999858,948.3260476999858,948.3728928999917,948.3731452999928,948.3892238999833,948.3892238999833,948.3892238999833,948.4558964000025,948.8895507999987,,,,,,,,down,2.073856600007275,None,space,0.49733370001195,None,,,,,,,,,,,,,,,,,P114,001,2025-02-19_10h57.00.013,posner_endo_new1,2024.2.4,60.05255799697681,2025-02-19 10h57.06.658238 +0000,
,,,,,,,,,,,,,,,,,,,,,,,,,,,,,,,,,,,,,,,,,,,,,,,,,,,,,,,,,,,,,,,,,,,,,948.8896791999869,948.9053246999974,948.9053246999974,1008.9109993999882,1015.9063037000014,space,66.98592019997886,None,,,,,,,,,P114,001,2025-02-19_10h57.00.013,posner_endo_new1,2024.2.4,60.05255799697681,2025-02-19 10h57.06.658238 +0000,
,,,,,,,,,,,,,,,,,,,,,,,,,,,,,,,,,,1015.9064707999933,1015.9205644000031,1018.9599072999845,1018.9021539999812,,,,,,,,,,,,,,,,,,,,,,,,,,,,,,,,,,,,,,,,,,,,,,,,P114,001,2025-02-19_10h57.00.013,posner_endo_new1,2024.2.4,60.05255799697681,2025-02-19 10h57.06.658238 +0000,
cube_l.png,0.1,10,catch,0,0,0,up,9.786754000000656,None,None,,,,,,,,,,,0,0,0,0,1018.9599072999845,,,,,,,,,,,,,1018.950989600009,1018.9599072999845,1018.9599072999845,1018.9599072999845,1028.7581898999924,,,,1028.7705488000065,1028.7806136999861,1028.7806136999861,1028.8240001999948,1028.8242806000053,1028.8405014000018,1028.8405014000018,1028.8405014000018,1028.92380769999,1031.838115999999,,,,1030.938314500003,1031.854053899995,1031.854053899995,1031.854053899995,,,,,,,,,,,,,,,up,9.786754000000656,None,None,,,,,P114,001,2025-02-19_10h57.00.013,posner_endo_new1,2024.2.4,60.05255799697681,2025-02-19 10h57.06.658238 +0000,
cube_l.png,0.1,10,catch,1,1,0,up,3.868686899979366,None,None,,,,,,,,,,,0,1,1,1,1031.854053899995,,,,,,,,,,,,,1031.838325699995,1031.854053899995,1031.854053899995,1031.854053899995,1035.7344624999969,,,,1035.742625599989,1035.7531065999938,1035.7531065999938,1035.8002145999926,1035.8004912000033,1035.8166893000016,1035.8166893000016,1035.8166893000016,1035.8833334000083,1038.8141154999903,,,,1037.8979380000092,1038.8303576000035,1038.8303576000035,1038.8303576000035,,,,,,,,,,,,,,,up,3.868686899979366,None,None,,,,,P114,001,2025-02-19_10h57.00.013,posner_endo_new1,2024.2.4,60.05255799697681,2025-02-19 10h57.06.658238 +0000,
cube_l.png,0.1,0.31,invalid,2,2,0,up,3.444482999999309,None,space,0.35156079998705536,None,,,,,,,,,0,2,2,2,1038.8303576000035,,,,,,,,,,,,,1038.8143254999886,1038.8303576000035,1038.8303576000035,1038.8303576000035,1042.2777915000042,,,,1042.2859643999836,1042.2965033999935,1042.2965033999935,1042.3434579999885,1042.3437347,1042.360045199981,1042.360045199981,1042.360045199981,1042.4430539000023,1042.7272358000046,,,,,,,,,,,,,,,,,,,,,,up,3.444482999999309,None,space,0.35156079998705536,None,,,P114,001,2025-02-19_10h57.00.013,posner_endo_new1,2024.2.4,60.05255799697681,2025-02-19 10h57.06.658238 +0000,
cube_l.png,0.1,0.31,invalid,3,3,0,up,4.5477642999903765,None,space,0.3581062000012025,None,,,,,,,,,0,3,3,3,1042.7430070999835,,,,,,,,,,,,,1042.7274621999823,1042.7430070999835,1042.7430070999835,1042.7430070999835,1047.3057593999838,,,,1047.3138648000022,1047.3246606999892,1047.3246606999892,1047.3717999999935,1047.372080800007,1047.3882139000052,1047.3882139000052,1047.3882139000052,1047.4548985000001,1047.755585100007,,,,,,,,,,,,,,,,,,,,,,up,4.5477642999903765,None,space,0.3581062000012025,None,,,P114,001,2025-02-19_10h57.00.013,posner_endo_new1,2024.2.4,60.05255799697681,2025-02-19 10h57.06.658238 +0000,
cube_l.png,0.1,-0.31,valid,4,4,0,up,3.3759397999965586,None,space,0.3259890000044834,None,,,,,,,,,0,4,4,4,1047.771285099996,,,,,,,,,,,,,1047.7558120999893,1047.771285099996,1047.771285099996,1047.771285099996,1051.1520962000068,,,,1051.1600876000011,1051.1706777999934,1051.1706777999934,1051.2178810999903,1051.2181711999874,1051.2342094999913,1051.2342094999913,1051.2342094999913,1051.3175207999884,1051.568229299999,,,,,,,,,,,,,,,,,,,,,,up,3.3759397999965586,None,space,0.3259890000044834,None,,,P114,001,2025-02-19_10h57.00.013,posner_endo_new1,2024.2.4,60.05255799697681,2025-02-19 10h57.06.658238 +0000,
cube_r.png,0.1,-0.31,invalid,5,5,0,up,3.4513510999968275,None,space,0.3386711999773979,None,,,,,,,,,0,5,5,5,1051.5839622000058,,,,,,,,,,,,,1051.568455600005,1051.5839622000058,1051.5839622000058,1051.5839622000058,1055.0480228999804,,,,1055.0560849999893,1055.0666889999993,1055.0666889999993,1055.1138124999998,1055.1140887000074,1055.1301660999889,1055.1301660999889,1055.1301660999889,1055.2136589000002,1055.4809097999823,,,,,,,,,,,,,,,,,,,,,,up,3.4513510999968275,None,space,0.3386711999773979,None,,,P114,001,2025-02-19_10h57.00.013,posner_endo_new1,2024.2.4,60.05255799697681,2025-02-19 10h57.06.658238 +0000,
cube_r.png,0.1,0.31,valid,6,6,0,up,4.306787100009387,None,space,0.31035919999703765,None,,,,,,,,,0,6,6,6,1055.4967258999823,,,,,,,,,,,,,1055.4811369999952,1055.4967258999823,1055.4967258999823,1055.4967258999823,1059.8097837999812,,,,1059.8179100999841,1059.8284363999846,1059.8284363999846,1059.8755477000086,1059.8758253999986,1059.892200400005,1059.892200400005,1059.892200400005,1059.9587314999953,1060.2093639999803,,,,,,,,,,,,,,,,,,,,,,up,4.306787100009387,None,space,0.31035919999703765,None,,,P114,001,2025-02-19_10h57.00.013,posner_endo_new1,2024.2.4,60.05255799697681,2025-02-19 10h57.06.658238 +0000,
cube_r.png,0.1,-0.31,invalid,7,7,0,up,3.76214110001456,None,space,0.33205830000224523,None,,,,,,,,,0,7,7,7,1060.225138699985,,,,,,,,,,,,,1060.2096001000027,1060.225138699985,1060.225138699985,1060.225138699985,1063.989042400004,,,,1063.997128899995,1064.0079245999805,1064.0079245999805,1064.0546185999992,1064.0548965999915,1064.0711635999905,1064.0711635999905,1064.0711635999905,1064.1544447999913,1064.4050822999852,,,,,,,,,,,,,,,,,,,,,,up,3.76214110001456,None,space,0.33205830000224523,None,,,P114,001,2025-02-19_10h57.00.013,posner_endo_new1,2024.2.4,60.05255799697681,2025-02-19 10h57.06.658238 +0000,
cube_l.png,0.1,-0.31,valid,8,8,0,up,2.8140459999849554,None,space,0.35598180000670254,None,,,,,,,,,0,8,8,8,1064.4207800999866,,,,,,,,,,,,,1064.4053134999995,1064.4207800999866,1064.4207800999866,1064.4207800999866,1067.2357448999828,,,,1067.2437567999878,1067.2542592999816,1067.2542592999816,1067.3014560999873,1067.3017327999987,1067.3180408999906,1067.3180408999906,1067.3180408999906,1067.4011296999815,1067.6854307999893,,,,,,,,,,,,,,,,,,,,,,up,2.8140459999849554,None,space,0.35598180000670254,None,,,P114,001,2025-02-19_10h57.00.013,posner_endo_new1,2024.2.4,60.05255799697681,2025-02-19 10h57.06.658238 +0000,
cube_r.png,0.1,-0.31,invalid,9,9,0,up,12.165768200007733,None,space,0.3975643999874592,None,,,,,,,,,0,9,9,9,1067.70081509999,,,,,,,,,,,,,1067.6856607999944,1067.70081509999,1067.70081509999,1067.70081509999,1079.8728196999873,,,,1079.8809045999951,1079.8912888999912,1079.8912888999912,1079.9384193999867,1079.9387029999925,1079.9550223999831,1079.9550223999831,1079.9550223999831,1080.0382514999947,1080.3555225000018,,,,,,,,,,,,,,,,,,,,,,up,12.165768200007733,None,space,0.3975643999874592,None,,,P114,001,2025-02-19_10h57.00.013,posner_endo_new1,2024.2.4,60.05255799697681,2025-02-19 10h57.06.658238 +0000,
cube_l.png,0.1,0.31,invalid,10,10,0,up,13.320087300002342,None,space,0.4084037000138778,None,,,,,,,,,0,10,10,10,1080.3712739000039,,,,,,,,,,,,,1080.3557543999923,1080.3712739000039,1080.3712739000039,1080.3712739000039,1093.7085612000083,,,,1093.7166107000085,1093.7272248000081,1093.7272248000081,1093.774356399983,1093.7746381000034,1093.790835599997,1093.790835599997,1093.790835599997,1093.8742180999834,1094.208127299993,,,,,,,,,,,,,,,,,,,,,,up,13.320087300002342,None,space,0.4084037000138778,None,,,P114,001,2025-02-19_10h57.00.013,posner_endo_new1,2024.2.4,60.05255799697681,2025-02-19 10h57.06.658238 +0000,
cube_r.png,0.1,-0.31,invalid,11,11,0,up,2.6270751999982167,None,space,0.5034683000121731,None,,,,,,,,,0,11,11,11,1094.2237596999912,,,,,,,,,,,,,1094.208355699986,1094.2237596999912,1094.2237596999912,1094.2237596999912,1096.8553619000013,,,,1096.8634672999906,1096.8740042999852,1096.8740042999852,1096.9211961999827,1096.921474600007,1096.9375750999898,1096.9375750999898,1096.9375750999898,1097.0208359999815,1097.454741499998,,,,,,,,,,,,,,,,,,,,,,up,2.6270751999982167,None,space,0.5034683000121731,None,,,P114,001,2025-02-19_10h57.00.013,posner_endo_new1,2024.2.4,60.05255799697681,2025-02-19 10h57.06.658238 +0000,
cube_r.png,0.1,0.31,valid,12,12,0,up,3.364323899993906,None,space,0.4060031999833882,None,,,,,,,,,0,12,12,12,1097.4704750999808,,,,,,,,,,,,,1097.4549711,1097.4704750999808,1097.4704750999808,1097.4704750999808,1100.8513122999866,,,,1100.859337300004,1100.869923499995,1100.869923499995,1100.9169186000072,1100.9171936000057,1100.9336188999878,1100.9336188999878,1100.9336188999878,1101.0166310000059,1101.350611300004,,,,,,,,,,,,,,,,,,,,,,up,3.364323899993906,None,space,0.4060031999833882,None,,,P114,001,2025-02-19_10h57.00.013,posner_endo_new1,2024.2.4,60.05255799697681,2025-02-19 10h57.06.658238 +0000,
cube_l.png,0.1,10,catch,13,13,0,up,2.892403200006811,None,space,0.3406979000137653,None,,,,,,,,,0,13,13,13,1101.3664874999959,,,,,,,,,,,,,1101.3508410000068,1101.3664874999959,1101.3664874999959,1101.3664874999959,1104.2645463999943,,,,1104.2725719999871,1104.2831257999933,1104.2831257999933,1104.330229299987,1104.3305074999807,1104.3467248000088,1104.3467248000088,1104.3467248000088,1104.4299218000087,1104.697240599984,,,,,,,,,,,,,,,,,,,,,,up,2.892403200006811,None,space,0.3406979000137653,None,,,P114,001,2025-02-19_10h57.00.013,posner_endo_new1,2024.2.4,60.05255799697681,2025-02-19 10h57.06.658238 +0000,
cube_r.png,0.1,-0.31,invalid,14,14,0,up,3.6824859000043944,None,space,0.3488489000010304,None,,,,,,,,,0,14,14,14,1104.713079499983,,,,,,,,,,,,,1104.6974774999835,1104.713079499983,1104.713079499983,1104.713079499983,1108.4111402999843,,,,1108.4289000999997,1108.4393867999897,1108.4393867999897,1108.4759616999945,1108.4762920000067,1108.492368599982,1108.492368599982,1108.492368599982,1108.5757497999875,1108.8434650999843,,,,,,,,,,,,,,,,,,,,,,up,3.6824859000043944,None,space,0.3488489000010304,None,,,P114,001,2025-02-19_10h57.00.013,posner_endo_new1,2024.2.4,60.05255799697681,2025-02-19 10h57.06.658238 +0000,
cube_l.png,0.1,-0.31,valid,15,15,0,up,2.280962599994382,None,space,0.3818895999866072,None,,,,,,,,,0,15,15,15,1108.8586605000019,,,,,,,,,,,,,1108.8437472000078,1108.8586605000019,1108.8586605000019,1108.8586605000019,1111.140933399991,,,,1111.1514619000081,1111.1616905999836,1111.1616905999836,1111.2064032999915,1111.2067326999968,1111.2229293999844,1111.2229293999844,1111.2229293999844,1111.306216500001,1111.6071594999812,,,,,,,,,,,,,,,,,,,,,,up,2.280962599994382,None,space,0.3818895999866072,None,,,P114,001,2025-02-19_10h57.00.013,posner_endo_new1,2024.2.4,60.05255799697681,2025-02-19 10h57.06.658238 +0000,
cube_r.png,0.1,10,catch,16,16,0,up,3.2685289999935776,None,space,0.3150536000030115,None,,,,,,,,,0,16,16,16,1111.6226362999878,,,,,,,,,,,,,1111.6074388999841,1111.6226362999878,1111.6226362999878,1111.6226362999878,1114.903701800009,,,,1114.9127985999803,1114.922391,1114.922391,1114.969277600001,1114.9695163999859,1114.9859236000048,1114.9859236000048,1114.9859236000048,1115.0691192999948,1115.3031682999863,,,,,,,,,,,,,,,,,,,,,,up,3.2685289999935776,None,space,0.3150536000030115,None,,,P114,001,2025-02-19_10h57.00.013,posner_endo_new1,2024.2.4,60.05255799697681,2025-02-19 10h57.06.658238 +0000,
cube_r.png,0.1,10,catch,17,17,0,up,2.828424500010442,None,None,,,,,,,,,,,0,17,17,17,1115.3189159999893,,,,,,,,,,,,,1115.303356999997,1115.3189159999893,1115.3189159999893,1115.3189159999893,1118.1501578000025,,,,1118.1567397000035,1118.1684524999873,1118.1684524999873,1118.215944399999,1118.2161840999906,1118.232470899995,1118.232470899995,1118.232470899995,1118.2991197000083,1121.2299671999936,,,,1120.3136916999938,1121.2459450000024,1121.2459450000024,1121.2459450000024,,,,,,,,,,,,,,,up,2.828424500010442,None,None,,,,,P114,001,2025-02-19_10h57.00.013,posner_endo_new1,2024.2.4,60.05255799697681,2025-02-19 10h57.06.658238 +0000,
cube_l.png,0.1,0.31,invalid,18,18,0,up,0.5413478999980725,None,space,0.40644259998225607,None,,,,,,,,,0,18,18,18,1121.2459450000024,,,,,,,,,,,,,1121.2301433999965,1121.2459450000024,1121.2459450000024,1121.2459450000024,1121.7962694999878,,,,1121.8028360999888,1121.8148028999858,1121.8148028999858,1121.862456200004,1121.8626952999912,1121.878865400009,1121.878865400009,1121.878865400009,1121.9450771999836,1122.2958427999984,,,,,,,,,,,,,,,,,,,,,,up,0.5413478999980725,None,space,0.40644259998225607,None,,,P114,001,2025-02-19_10h57.00.013,posner_endo_new1,2024.2.4,60.05255799697681,2025-02-19 10h57.06.658238 +0000,
cube_l.png,0.1,10,catch,19,19,0,up,3.8117090000014286,None,None,,,,,,,,,,,0,19,19,19,1122.3117178999819,,,,,,,,,,,,,1122.2960301999992,1122.3117178999819,1122.3117178999819,1122.3117178999819,1126.1253034999827,,,,1126.1319347999815,1126.1437670000014,1126.1437670000014,1126.1911794999905,1126.1914280999918,1126.207580199989,1126.207580199989,1126.207580199989,1126.2910145999922,1129.2053498000023,,,,1128.3056707000069,1129.2214170999941,1129.2214170999941,1129.2214170999941,,,,,,,,,,,,,,,up,3.8117090000014286,None,None,,,,,P114,001,2025-02-19_10h57.00.013,posner_endo_new1,2024.2.4,60.05255799697681,2025-02-19 10h57.06.658238 +0000,
cube_l.png,0.1,0.31,invalid,20,20,0,up,8.343057599995518,None,space,0.35524960001930594,None,,,,,,,,,0,20,20,20,1129.2214170999941,,,,,,,,,,,,,1129.2055287999974,1129.2214170999941,1129.2214170999941,1129.2214170999941,1137.5801696999988,,,,1137.5868690999923,1137.5987867999938,1137.5987867999938,1137.6462986999832,1137.6465418000007,1137.662632499996,1137.662632499996,1137.662632499996,1137.729335799988,1138.0297938000003,,,,,,,,,,,,,,,,,,,,,,up,8.343057599995518,None,space,0.35524960001930594,None,,,P114,001,2025-02-19_10h57.00.013,posner_endo_new1,2024.2.4,60.05255799697681,2025-02-19 10h57.06.658238 +0000,
cube_l.png,0.1,-0.31,valid,21,21,0,up,2.021896000020206,None,space,0.44296930002747104,None,,,,,,,,,0,21,21,21,1138.045517999999,,,,,,,,,,,,,1138.0299842999957,1138.045517999999,1138.045517999999,1138.045517999999,1140.0776506999973,,,,1140.0842838999815,1140.096119599999,1140.096119599999,1140.1436350999866,1140.1438750000088,1140.1603775999974,1140.1603775999974,1140.1603775999974,1140.243404799985,1140.6104726000049,,,,,,,,,,,,,,,,,,,,,,up,2.021896000020206,None,space,0.44296930002747104,None,,,P114,001,2025-02-19_10h57.00.013,posner_endo_new1,2024.2.4,60.05255799697681,2025-02-19 10h57.06.658238 +0000,
cube_r.png,0.1,0.31,valid,22,22,0,up,3.2322972000110894,None,space,0.5116013000078965,None,,,,,,,,,0,22,22,22,1140.6264668999938,,,,,,,,,,,,,1140.6106622999941,1140.6264668999938,1140.6264668999938,1140.6264668999938,1143.873688199994,,,,1143.879443999991,1143.8911230999802,1143.8911230999802,1143.9393712999881,1143.9395968999888,1143.9561387999856,1143.9561387999856,1143.9561387999856,1144.0228014999884,1144.4734256000083,,,,,,,,,,,,,,,,,,,,,,up,3.2322972000110894,None,space,0.5116013000078965,None,,,P114,001,2025-02-19_10h57.00.013,posner_endo_new1,2024.2.4,60.05255799697681,2025-02-19 10h57.06.658238 +0000,
cube_r.png,0.1,-0.31,invalid,23,23,0,up,3.1943852999829687,None,space,0.3761981999850832,None,,,,,,,,,0,23,23,23,1144.4887815999973,,,,,,,,,,,,,1144.4736004000006,1144.4887815999973,1144.4887815999973,1144.4887815999973,1147.6869128999824,,,,1147.6926967999898,1147.704389099992,1147.704389099992,1147.7526727000077,1147.7528990999854,1147.768611300009,1147.768611300009,1147.768611300009,1147.8522108999896,1148.1525717999903,,,,,,,,,,,,,,,,,,,,,,up,3.1943852999829687,None,space,0.3761981999850832,None,,,P114,001,2025-02-19_10h57.00.013,posner_endo_new1,2024.2.4,60.05255799697681,2025-02-19 10h57.06.658238 +0000,
cube_r.png,0.1,0.31,valid,24,24,0,up,2.8501220000034664,None,space,0.352843100001337,None,,,,,,,,,0,24,24,24,1148.1687436999928,,,,,,,,,,,,,1148.1527462000086,1148.1687436999928,1148.1687436999928,1148.1687436999928,1151.0331083000056,,,,1151.0388317999896,1151.050370299985,1151.050370299985,1151.0990630000015,1151.099288700003,1151.1154827999999,1151.1154827999999,1151.1154827999999,1151.198841400008,1151.482540900004,,,,,,,,,,,,,,,,,,,,,,up,2.8501220000034664,None,space,0.352843100001337,None,,,P114,001,2025-02-19_10h57.00.013,posner_endo_new1,2024.2.4,60.05255799697681,2025-02-19 10h57.06.658238 +0000,
cube_r.png,0.1,-0.31,invalid,25,25,0,up,2.77609499997925,None,space,0.3680287000024691,None,,,,,,,,,0,25,25,25,1151.498632200004,,,,,,,,,,,,,1151.4827164000017,1151.498632200004,1151.498632200004,1151.498632200004,1154.279422599997,,,,1154.2851212999958,1154.2967698999855,1154.2967698999855,1154.3453755000082,1154.3456024999905,1154.3619404000056,1154.3619404000056,1154.3619404000056,1154.428373999981,1154.7458839000028,,,,,,,,,,,,,,,,,,,,,,up,2.77609499997925,None,space,0.3680287000024691,None,,,P114,001,2025-02-19_10h57.00.013,posner_endo_new1,2024.2.4,60.05255799697681,2025-02-19 10h57.06.658238 +0000,
cube_l.png,0.1,-0.31,valid,26,26,0,up,2.097707499982789,None,space,0.4286141000047792,None,,,,,,,,,0,26,26,26,1154.7618795000017,,,,,,,,,,,,,1154.7460618999903,1154.7618795000017,1154.7618795000017,1154.7618795000017,1156.8606541999907,,,,1156.8663297999883,1156.8779256999842,1156.8779256999842,1156.9259286999877,1156.9261532999808,1156.9430849000055,1156.9430849000055,1156.9430849000055,1157.0099788999942,1157.3766908999823,,,,,,,,,,,,,,,,,,,,,,up,2.097707499982789,None,space,0.4286141000047792,None,,,P114,001,2025-02-19_10h57.00.013,posner_endo_new1,2024.2.4,60.05255799697681,2025-02-19 10h57.06.658238 +0000,
cube_r.png,0.1,0.31,valid,27,27,0,up,3.282244100002572,None,space,0.3906025000032969,None,,,,,,,,,0,27,27,27,1157.392582600005,,,,,,,,,,,,,1157.376867599989,1157.392582600005,1157.392582600005,1157.392582600005,1160.6897872999834,,,,1160.6955407999922,1160.7070942999853,1160.7070942999853,1160.755322699988,1160.7555463000026,1160.772610999993,1160.772610999993,1160.772610999993,1160.8389766000037,1161.172729599988,,,,,,,,,,,,,,,,,,,,,,up,3.282244100002572,None,space,0.3906025000032969,None,,,P114,001,2025-02-19_10h57.00.013,posner_endo_new1,2024.2.4,60.05255799697681,2025-02-19 10h57.06.658238 +0000,
cube_r.png,0.1,10,catch,28,28,0,up,2.7986956000095233,None,None,,,,,,,,,,,0,28,28,28,1161.1885537999915,,,,,,,,,,,,,1161.1729137999937,1161.1885537999915,1161.1885537999915,1161.1885537999915,1164.0031382000016,,,,1164.0089499999885,1164.0205855999957,1164.0205855999957,1164.0692688999989,1164.0694980999979,1164.0858773000073,1164.0858773000073,1164.0858773000073,1164.1522371000028,1167.0829132999934,,,,1166.166427499993,1167.099257599999,1167.099257599999,1167.099257599999,,,,,,,,,,,,,,,up,2.7986956000095233,None,None,,,,,P114,001,2025-02-19_10h57.00.013,posner_endo_new1,2024.2.4,60.05255799697681,2025-02-19 10h57.06.658238 +0000,
cube_r.png,0.1,0.31,valid,29,29,0,up,10.288093500013929,None,space,0.3528437000059057,None,,,,,,,,,0,29,29,29,1167.099257599999,,,,,,,,,,,,,1167.0830758000084,1167.099257599999,1167.099257599999,1167.099257599999,1177.3894905000052,,,,1177.3951431000023,1177.406701400003,1177.406701400003,1177.4553905999928,1177.4556189999857,1177.4722222999844,1177.4722222999844,1177.4722222999844,1177.5386947999941,1177.8389877000009,,,,,,,,,,,,,,,,,,,,,,up,10.288093500013929,None,space,0.3528437000059057,None,,,P114,001,2025-02-19_10h57.00.013,posner_endo_new1,2024.2.4,60.05255799697681,2025-02-19 10h57.06.658238 +0000,
cube_r.png,0.1,0.31,valid,30,30,0,up,6.916205799992895,None,space,0.38530600001104176,None,,,,,,,,,0,30,30,30,1177.8550377000065,,,,,,,,,,,,,1177.8391614999855,1177.8550377000065,1177.8550377000065,1177.8550377000065,1184.7820742999902,,,,1184.787892799999,1184.7995144999877,1184.7995144999877,1184.84785749999,1184.8480890000064,1184.864484299993,1184.864484299993,1184.864484299993,1184.9477560000087,1185.2647241999803,,,,,,,,,,,,,,,,,,,,,,up,6.916205799992895,None,space,0.38530600001104176,None,,,P114,001,2025-02-19_10h57.00.013,posner_endo_new1,2024.2.4,60.05255799697681,2025-02-19 10h57.06.658238 +0000,
cube_l.png,0.1,-0.31,valid,31,31,0,up,13.266086899995571,None,space,0.5052281000243966,None,,,,,,,,,0,31,31,31,1185.2807052999851,,,,,,,,,,,,,1185.2649017999938,1185.2807052999851,1185.2807052999851,1185.2807052999851,1198.5514645999938,,,,1198.5589427000086,1198.570101499994,1198.570101499994,1198.6172478999943,1198.6175093000056,1198.6337684000027,1198.6337684000027,1198.6337684000027,1198.716849199991,1199.150768899999,,,,,,,,,,,,,,,,,,,,,,up,13.266086899995571,None,space,0.5052281000243966,None,,,P114,001,2025-02-19_10h57.00.013,posner_endo_new1,2024.2.4,60.05255799697681,2025-02-19 10h57.06.658238 +0000,
cube_r.png,0.1,0.31,valid,32,32,0,up,2.6767574999830686,None,space,0.4133600000059232,None,,,,,,,,,0,32,32,32,1199.166519099992,,,,,,,,,,,,,1199.1509923999838,1199.166519099992,1199.166519099992,1199.166519099992,1201.8481267000025,,,,1201.8555876000028,1201.8667544999917,1201.8667544999917,1201.9138997999835,1201.9141671999823,1201.9302270000044,1201.9302270000044,1201.9302270000044,1202.0136499000073,1202.3475273000076,,,,,,,,,,,,,,,,,,,,,,up,2.6767574999830686,None,space,0.4133600000059232,None,,,P114,001,2025-02-19_10h57.00.013,posner_endo_new1,2024.2.4,60.05255799697681,2025-02-19 10h57.06.658238 +0000,
cube_r.png,0.1,-0.31,invalid,33,33,0,up,3.055960600002436,None,space,0.44094200001563877,None,,,,,,,,,0,33,33,33,1202.3632269999944,,,,,,,,,,,,,1202.3477457999834,1202.3632269999944,1202.3632269999944,1202.3632269999944,1205.4276925000013,,,,1205.4351737999823,1205.446486700006,1205.446486700006,1205.493597099994,1205.4938584000047,1205.5104003000015,1205.5104003000015,1205.5104003000015,1205.593370699993,1205.960451299994,,,,,,,,,,,,,,,,,,,,,,up,3.055960600002436,None,space,0.44094200001563877,None,,,P114,001,2025-02-19_10h57.00.013,posner_endo_new1,2024.2.4,60.05255799697681,2025-02-19 10h57.06.658238 +0000,
cube_r.png,0.1,10,catch,34,34,0,up,2.8587092999950983,None,None,,,,,,,,,,,0,34,34,34,1205.976387200004,,,,,,,,,,,,,1205.960661899997,1205.976387200004,1205.976387200004,1205.976387200004,1208.8407541000051,,,,1208.8482609000057,1208.859676699998,1208.859676699998,1208.9066475,1208.906910299993,1208.9231472999963,1208.9231472999963,1208.9231472999963,1208.989819999988,1211.9206345999846,,,,1211.0045464999857,1211.9368006000004,1211.9368006000004,1211.9368006000004,,,,,,,,,,,,,,,up,2.8587092999950983,None,None,,,,,P114,001,2025-02-19_10h57.00.013,posner_endo_new1,2024.2.4,60.05255799697681,2025-02-19 10h57.06.658238 +0000,
cube_r.png,0.1,0.31,valid,35,35,0,up,1.6187802999920677,None,space,0.40084070002194494,None,,,,,,,,,0,35,35,35,1211.9368006000004,,,,,,,,,,,,,1211.9208327999804,1211.9368006000004,1211.9368006000004,1211.9368006000004,1213.5692722999956,,,,1213.5767536000058,1213.5881806999969,1213.5881806999969,1213.6351723999833,1213.6354359999823,1213.6515975999937,1213.6515975999937,1213.6515975999937,1213.7349342000089,1214.068779299996,,,,,,,,,,,,,,,,,,,,,,up,1.6187802999920677,None,space,0.40084070002194494,None,,,P114,001,2025-02-19_10h57.00.013,posner_endo_new1,2024.2.4,60.05255799697681,2025-02-19 10h57.06.658238 +0000,
cube_r.png,0.1,-0.31,invalid,36,36,0,up,2.4943134999775793,None,space,0.38788679998833686,None,,,,,,,,,0,36,36,36,1214.0846639999945,,,,,,,,,,,,,1214.0689896999975,1214.0846639999945,1214.0846639999945,1214.0846639999945,1216.5827707999852,,,,1216.5902282999887,1216.6134295999946,1216.6134295999946,1216.6488076999958,1216.6490816999867,1216.6653039999946,1216.6653039999946,1216.6653039999946,1216.7319059000001,1217.0658035000088,,,,,,,,,,,,,,,,,,,,,,up,2.4943134999775793,None,space,0.38788679998833686,None,,,P114,001,2025-02-19_10h57.00.013,posner_endo_new1,2024.2.4,60.05255799697681,2025-02-19 10h57.06.658238 +0000,
cube_l.png,0.1,0.31,invalid,37,37,0,up,3.073350599996047,None,space,0.4172285000095144,None,,,,,,,,,0,37,37,37,1217.0815212999878,,,,,,,,,,,,,1217.0660152999917,1217.0815212999878,1217.0815212999878,1217.0815212999878,1220.1627354999946,,,,1220.1703125000058,1220.1813200000033,1220.1813200000033,1220.2285394000064,1220.2288123999897,1220.2450447999872,1220.2450447999872,1220.2450447999872,1220.3281835999805,1220.678817899985,,,,,,,,,,,,,,,,,,,,,,up,3.073350599996047,None,space,0.4172285000095144,None,,,P114,001,2025-02-19_10h57.00.013,posner_endo_new1,2024.2.4,60.05255799697681,2025-02-19 10h57.06.658238 +0000,
cube_l.png,0.1,0.31,invalid,38,38,0,up,2.8930331000010483,None,space,0.4237403000006452,None,,,,,,,,,0,38,38,38,1220.6943940999918,,,,,,,,,,,,,1220.6790356999845,1220.6943940999918,1220.6943940999918,1220.6943940999918,1223.592564999999,,,,1223.600065799983,1223.611266299995,1223.611266299995,1223.658277999988,1223.6585458999907,1223.6747762000014,1223.6747762000014,1223.6747762000014,1223.7579835999932,1224.1085919000034,,,,,,,,,,,,,,,,,,,,,,up,2.8930331000010483,None,space,0.4237403000006452,None,,,P114,001,2025-02-19_10h57.00.013,posner_endo_new1,2024.2.4,60.05255799697681,2025-02-19 10h57.06.658238 +0000,
cube_r.png,0.1,0.31,valid,39,39,0,up,1.9831171999976505,None,space,0.3718049000017345,None,,,,,,,,,0,39,39,39,1224.1243186999927,,,,,,,,,,,,,1224.1088028000086,1224.1243186999927,1224.1243186999927,1224.1243186999927,1226.123109200009,,,,1226.1305807000026,1226.1419198999938,1226.1419198999938,1226.1891049999977,1226.1893713999889,1226.205568699981,1226.205568699981,1226.205568699981,1226.2888753000007,1226.5893082999974,,,,,,,,,,,,,,,,,,,,,,up,1.9831171999976505,None,space,0.3718049000017345,None,,,P114,001,2025-02-19_10h57.00.013,posner_endo_new1,2024.2.4,60.05255799697681,2025-02-19 10h57.06.658238 +0000,
cube_l.png,0.1,0.31,invalid,40,40,0,up,3.405612000002293,None,space,0.35511659999610856,None,,,,,,,,,0,40,40,40,1226.6051533999853,,,,,,,,,,,,,1226.5895240999816,1226.6051533999853,1226.6051533999853,1226.6051533999853,1230.0192779999925,,,,1230.02678439999,1230.0380226999987,1230.0380226999987,1230.0849787000043,1230.0852412999957,1230.1016087000025,1230.1016087000025,1230.1016087000025,1230.1846957999805,1230.4686747000087,,,,,,,,,,,,,,,,,,,,,,up,3.405612000002293,None,space,0.35511659999610856,None,,,P114,001,2025-02-19_10h57.00.013,posner_endo_new1,2024.2.4,60.05255799697681,2025-02-19 10h57.06.658238 +0000,
cube_l.png,0.1,10,catch,41,41,0,up,2.6710988999984693,None,None,,,,,,,,,,,0,41,41,41,1230.4845214000088,,,,,,,,,,,,,1230.4688935999875,1230.4845214000088,1230.4845214000088,1230.4845214000088,1233.1658752000076,,,,1233.173343100003,1233.1848101000069,1233.1848101000069,1233.2317509999848,1233.2320166999998,1233.248366099986,1233.248366099986,1233.248366099986,1233.3150005000061,1236.2458771000092,,,,1235.3296060999855,1236.2619599000027,1236.2619599000027,1236.2619599000027,,,,,,,,,,,,,,,up,2.6710988999984693,None,None,,,,,P114,001,2025-02-19_10h57.00.013,posner_endo_new1,2024.2.4,60.05255799697681,2025-02-19 10h57.06.658238 +0000,
cube_l.png,0.1,-0.31,valid,42,42,0,up,1.9651366999896709,None,space,0.36227089999010786,None,,,,,,,,,0,42,42,42,1236.2619599000027,,,,,,,,,,,,,1236.246078600001,1236.2619599000027,1236.2619599000027,1236.2619599000027,1238.2439501000044,,,,1238.251479700004,1238.263091300003,1238.263091300003,1238.3100174999854,1238.310289199988,1238.3264621999988,1238.3264621999988,1238.3264621999988,1238.3932103999832,1238.6936319999804,,,,,,,,,,,,,,,,,,,,,,up,1.9651366999896709,None,space,0.36227089999010786,None,,,P114,001,2025-02-19_10h57.00.013,posner_endo_new1,2024.2.4,60.05255799697681,2025-02-19 10h57.06.658238 +0000,
cube_l.png,0.1,10,catch,43,43,0,up,3.1418889999913517,None,None,,,,,,,,,,,0,43,43,43,1238.709414299985,,,,,,,,,,,,,1238.6938482999976,1238.709414299985,1238.709414299985,1238.709414299985,1241.8571141999855,,,,1241.8646863999893,1241.8759411000065,1241.8759411000065,1241.9230590999941,1241.9233258999884,1241.9394923000073,1241.9394923000073,1241.9394923000073,1242.022775999998,1244.9369684999983,,,,1244.0373092000082,1244.9530115000089,1244.9530115000089,1244.9530115000089,,,,,,,,,,,,,,,up,3.1418889999913517,None,None,,,,,P114,001,2025-02-19_10h57.00.013,posner_endo_new1,2024.2.4,60.05255799697681,2025-02-19 10h57.06.658238 +0000,
cube_l.png,0.1,0.31,invalid,44,44,0,up,4.2265032999857794,None,space,0.3114171999914106,None,,,,,,,,,0,44,44,44,1244.9530115000089,,,,,,,,,,,,,1244.9371696999879,1244.9530115000089,1244.9530115000089,1244.9530115000089,1249.1830378999875,,,,1249.1905259999912,1249.2017527999997,1249.2017527999997,1249.2488602999947,1249.2491219000076,1249.2653287999856,1249.2653287999856,1249.2653287999856,1249.3320708999818,1249.5825780000014,,,,,,,,,,,,,,,,,,,,,,up,4.2265032999857794,None,space,0.3114171999914106,None,,,P114,001,2025-02-19_10h57.00.013,posner_endo_new1,2024.2.4,60.05255799697681,2025-02-19 10h57.06.658238 +0000,
cube_l.png,0.1,0.31,invalid,45,45,0,up,2.80475780001143,None,space,0.44421970000257716,None,,,,,,,,,0,45,45,45,1249.598416599998,,,,,,,,,,,,,1249.582794899994,1249.598416599998,1249.598416599998,1249.598416599998,1252.4129519999842,,,,1252.4204526999965,1252.4318007999973,1252.4318007999973,1252.478852900007,1252.4791150999954,1252.4953459999815,1252.4953459999815,1252.4953459999815,1252.5785236000083,1252.945706700004,,,,,,,,,,,,,,,,,,,,,,up,2.80475780001143,None,space,0.44421970000257716,None,,,P114,001,2025-02-19_10h57.00.013,posner_endo_new1,2024.2.4,60.05255799697681,2025-02-19 10h57.06.658238 +0000,
cube_r.png,0.1,0.31,valid,46,46,0,up,3.9791556000127457,None,space,0.3731839999963995,None,,,,,,,,,0,46,46,46,1252.9615228000039,,,,,,,,,,,,,1252.9459194999945,1252.9615228000039,1252.9615228000039,1252.9615228000039,1256.941900500009,,,,1256.9493895999913,1256.960500199988,1256.960500199988,1257.0080166999833,1257.0082771999878,1257.024237000005,1257.024237000005,1257.024237000005,1257.1073509999842,1257.4081125000084,,,,,,,,,,,,,,,,,,,,,,up,3.9791556000127457,None,space,0.3731839999963995,None,,,P114,001,2025-02-19_10h57.00.013,posner_endo_new1,2024.2.4,60.05255799697681,2025-02-19 10h57.06.658238 +0000,
cube_l.png,0.1,-0.31,valid,47,47,0,up,4.667056100006448,None,space,0.2984467000060249,None,,,,,,,,,0,47,47,47,1257.4236885999853,,,,,,,,,,,,,1257.4083301000064,1257.4236885999853,1257.4236885999853,1257.4236885999853,1262.1027824000048,,,,1262.108672500006,1262.120149800001,1262.120149800001,1262.1688938000007,1262.1691195000021,1262.1855640999856,1262.1855640999856,1262.1855640999856,1262.2516273999936,1262.4862059000006,,,,,,,,,,,,,,,,,,,,,,up,4.667056100006448,None,space,0.2984467000060249,None,,,P114,001,2025-02-19_10h57.00.013,posner_endo_new1,2024.2.4,60.05255799697681,2025-02-19 10h57.06.658238 +0000,
cube_r.png,0.1,-0.31,invalid,48,48,0,up,14.917272399994545,None,space,0.3985363999963738,None,,,,,,,,,0,48,48,48,1262.501773600001,,,,,,,,,,,,,1262.4863838999881,1262.501773600001,1262.501773600001,1262.501773600001,1277.4208069999877,,,,1277.4265771000064,1277.4381899999862,1277.4381899999862,1277.4865417999972,1277.4867705999932,1277.5030851000047,1277.5030851000047,1277.5030851000047,1277.5864550999831,1277.9036302999884,,,,,,,,,,,,,,,,,,,,,,up,14.917272399994545,None,space,0.3985363999963738,None,,,P114,001,2025-02-19_10h57.00.013,posner_endo_new1,2024.2.4,60.05255799697681,2025-02-19 10h57.06.658238 +0000,
cube_r.png,0.1,10,catch,49,49,0,up,8.140479900001083,None,None,,,,,,,,,,,0,49,49,49,1277.9192654000071,,,,,,,,,,,,,1277.9038036999991,1277.9192654000071,1277.9192654000071,1277.9192654000071,1286.0621679000033,,,,1286.0679213999829,1286.0795515000063,1286.0795515000063,1286.1277558000002,1286.1279799999902,1286.1440389000054,1286.1440389000054,1286.1440389000054,1286.2275366999966,1289.1416871999972,,,,1288.2421925999806,1289.1579973000044,1289.1579973000044,1289.1579973000044,,,,,,,,,,,,,,,up,8.140479900001083,None,None,,,,,P114,001,2025-02-19_10h57.00.013,posner_endo_new1,2024.2.4,60.05255799697681,2025-02-19 10h57.06.658238 +0000,
cube_l.png,0.1,-0.31,valid,50,50,0,up,2.0129202000098303,None,space,0.3536372000235133,None,,,,,,,,,0,50,50,50,1289.1579973000044,,,,,,,,,,,,,1289.1418570999813,1289.1579973000044,1289.1579973000044,1289.1579973000044,1291.1733958999976,,,,1291.17917019999,1291.1909375999821,1291.1909375999821,1291.2393960999907,1291.2396214999899,1291.2559797999857,1291.2559797999857,1291.2559797999857,1291.3390636999975,1291.6227232000092,,,,,,,,,,,,,,,,,,,,,,up,2.0129202000098303,None,space,0.3536372000235133,None,,,P114,001,2025-02-19_10h57.00.013,posner_endo_new1,2024.2.4,60.05255799697681,2025-02-19 10h57.06.658238 +0000,
cube_l.png,0.1,-0.31,valid,51,51,0,up,4.2762081999972,None,space,0.3649350999912713,None,,,,,,,,,0,51,51,51,1291.6386979999952,,,,,,,,,,,,,1291.6229004999914,1291.6386979999952,1291.6386979999952,1291.6386979999952,1295.9186163999839,,,,1295.924425300007,1295.9360689999885,1295.9360689999885,1295.9844765999878,1295.9847021999885,1296.0009703999967,1296.0009703999967,1296.0009703999967,1296.084177599987,1296.3676438999828,,,,,,,,,,,,,,,,,,,,,,up,4.2762081999972,None,space,0.3649350999912713,None,,,P114,001,2025-02-19_10h57.00.013,posner_endo_new1,2024.2.4,60.05255799697681,2025-02-19 10h57.06.658238 +0000,
cube_r.png,0.1,-0.31,invalid,52,52,0,up,3.355341499991482,None,space,0.380624599987641,None,,,,,,,,,0,52,52,52,1296.383940300002,,,,,,,,,,,,,1296.3678187000041,1296.383940300002,1296.383940300002,1296.383940300002,1299.7476978999912,,,,1299.7533973999962,1299.7650664999965,1299.7650664999965,1299.8137380999979,1299.8139635999978,1299.8303652000031,1299.8303652000031,1299.8303652000031,1299.8970756999915,1300.2139308000042,,,,,,,,,,,,,,,,,,,,,,up,3.355341499991482,None,space,0.380624599987641,None,,,P114,001,2025-02-19_10h57.00.013,posner_endo_new1,2024.2.4,60.05255799697681,2025-02-19 10h57.06.658238 +0000,
cube_l.png,0.1,-0.31,valid,53,53,0,up,3.0211684000096284,None,space,0.26492779998807237,None,,,,,,,,,0,53,53,53,1300.2300190999813,,,,,,,,,,,,,1300.2141126999923,1300.2300190999813,1300.2300190999813,1300.2300190999813,1303.2610066999914,,,,1303.2667351999844,1303.278423699987,1303.278423699987,1303.3268402999965,1303.3270711000077,1303.343458999996,1303.343458999996,1303.343458999996,1303.4099840999988,1303.6108537999971,,,,,,,,,,,,,,,,,,,,,,up,3.0211684000096284,None,space,0.26492779998807237,None,,,P114,001,2025-02-19_10h57.00.013,posner_endo_new1,2024.2.4,60.05255799697681,2025-02-19 10h57.06.658238 +0000,
cube_r.png,0.1,10,catch,54,54,0,up,2.3286094999930356,None,None,,,,,,,,,,,0,54,54,54,1303.6265242999943,,,,,,,,,,,,,1303.6110273000086,1303.6265242999943,1303.6265242999943,1303.6265242999943,1305.958290599985,,,,1305.9640189000056,1305.9756665999885,1305.9756665999885,1306.0086198000063,1306.008835799992,1306.0239525999932,1306.0239525999932,1306.0239525999932,1306.1240255000012,1309.0214776000066,,,,1308.138206899981,1309.037410799996,1309.037410799996,1309.037410799996,,,,,,,,,,,,,,,up,2.3286094999930356,None,None,,,1306.0239525999932,1306.0239525999932,P114,001,2025-02-19_10h57.00.013,posner_endo_new1,2024.2.4,60.05255799697681,2025-02-19 10h57.06.658238 +0000,
cube_l.png,0.1,0.31,invalid,55,55,0,up,1.7895958000153769,None,space,0.44145390001358464,None,,,,,,,,,0,55,55,55,1309.037410799996,,,,,,,,,,,,,1309.0216395999887,1309.037410799996,1309.037410799996,1309.037410799996,1310.8364549999824,,,,1310.8421757000033,1310.8538545999909,1310.8538545999909,1310.9024558999809,1310.902681699983,1310.9188360999979,1310.9188360999979,1310.9188360999979,1311.0022895000002,1311.3692999999912,,,,,,,,,,,,,,,,,,,,,,up,1.7895958000153769,None,space,0.44145390001358464,None,,,P114,001,2025-02-19_10h57.00.013,posner_endo_new1,2024.2.4,60.05255799697681,2025-02-19 10h57.06.658238 +0000,
cube_l.png,0.1,-0.31,valid,56,56,0,up,2.450082700001076,None,space,0.3438824999902863,None,,,,,,,,,0,56,56,56,1311.3850614999828,,,,,,,,,,,,,1311.3694876999944,1311.3850614999828,1311.3850614999828,1311.3850614999828,1313.8502737999952,,,,1313.862536200002,1313.8725896999822,1313.8725896999822,1313.916086799989,1313.9163636000012,1313.9327610000037,1313.9327610000037,1313.9327610000037,1314.0159083000035,1314.28336999999,,,,,,,,,,,,,,,,,,,,,,up,2.450082700001076,None,space,0.3438824999902863,None,,,P114,001,2025-02-19_10h57.00.013,posner_endo_new1,2024.2.4,60.05255799697681,2025-02-19 10h57.06.658238 +0000,
cube_r.png,0.1,0.31,valid,57,57,0,up,2.8568582000152674,None,space,0.3888425000186544,None,,,,,,,,,0,57,57,57,1314.2988850999973,,,,,,,,,,,,,1314.283600499999,1314.2988850999973,1314.2988850999973,1314.2988850999973,1317.1636173999868,,,,1317.171610099991,1317.1823248,1317.1823248,1317.2294938999985,1317.2297935999813,1317.2460505999916,1317.2460505999916,1317.2460505999916,1317.3291686000011,1317.646323699999,,,,,,,,,,,,,,,,,,,,,,up,2.8568582000152674,None,space,0.3888425000186544,None,,,P114,001,2025-02-19_10h57.00.013,posner_endo_new1,2024.2.4,60.05255799697681,2025-02-19 10h57.06.658238 +0000,
cube_r.png,0.1,-0.31,invalid,58,58,0,up,3.7891526999883354,None,space,0.3650572999904398,None,,,,,,,,,0,58,58,58,1317.6621713000059,,,,,,,,,,,,,1317.6465494000004,1317.6621713000059,1317.6621713000059,1317.6621713000059,1321.45914359999,,,,1321.4671959999832,1321.4779101999884,1321.4779101999884,1321.5251672999875,1321.525446499989,1321.5416351000022,1321.5416351000022,1321.5416351000022,1321.6248708000057,1321.9087661999802,,,,,,,,,,,,,,,,,,,,,,up,3.7891526999883354,None,space,0.3650572999904398,None,,,P114,001,2025-02-19_10h57.00.013,posner_endo_new1,2024.2.4,60.05255799697681,2025-02-19 10h57.06.658238 +0000,
cube_l.png,0.1,0.31,invalid,59,59,0,up,12.079048599989619,None,space,0.37186310000834055,None,,,,,,,,,0,59,59,59,1321.9244399000017,,,,,,,,,,,,,1321.9089928999892,1321.9244399000017,1321.9244399000017,1321.9244399000017,1334.014082699985,,,,1334.0318471000064,1334.0432538999885,1334.0432538999885,1334.0789152999932,1334.0794786000042,1334.0953106000088,1334.0953106000088,1334.0953106000088,1334.1785539999837,1334.4802486999833,,,,,,,,,,,,,,,,,,,,,,up,12.079048599989619,None,space,0.37186310000834055,None,,,P114,001,2025-02-19_10h57.00.013,posner_endo_new1,2024.2.4,60.05255799697681,2025-02-19 10h57.06.658238 +0000,
