cue_img,cue_soa,target_x,trial,thisN,thisTrialN,thisRepN,key_control2.keys,key_control2.rt,key_control2.duration,key_resp.keys,key_resp.rt,key_resp.duration,practice.thisRepN,practice.thisTrialN,practice.thisN,practice.thisIndex,block1.thisRepN,block1.thisTrialN,block1.thisN,block1.thisIndex,block2.thisRepN,block2.thisTrialN,block2.thisN,block2.thisIndex,thisRow.t,notes,instructions.started,instructions_txt.started,key_control.started,instructions.stopped,key_control.keys,key_control.rt,key_control.duration,ready.started,ready_txt.started,ready_txt.stopped,ready.stopped,fix.started,fixation.started,key_control2.started,fixation_cross.started,fix.stopped,practice.key_control2.keys,practice.key_control2.rt,practice.key_control2.duration,cue.started,cube.started,fixation_cross_cue.started,cue.stopped,target.started,fixation_target.started,fixation_cross_target.started,key_resp.started,star.started,target.stopped,practice.key_resp.keys,practice.key_resp.rt,practice.key_resp.duration,block1.key_control2.keys,block1.key_control2.rt,block1.key_control2.duration,star.stopped,fixation_target.stopped,fixation_cross_target.stopped,key_resp.stopped,block1.key_resp.keys,block1.key_resp.rt,block1.key_resp.duration,break_2.started,text.started,key_control3.started,text.stopped,break_2.stopped,key_control3.keys,key_control3.rt,key_control3.duration,block2.key_control2.keys,block2.key_control2.rt,block2.key_control2.duration,block2.key_resp.keys,block2.key_resp.rt,block2.key_resp.duration,participant,session,date,expName,psychopyVersion,frameRate,expStart,
,,,,,,,,,,,,,,,,,,,,,,,,,,,0.007605999999213964,0.020556900009978563,0.020556900009978563,531.2154762000137,up,531.1762571999861,None,,,,,,,,,,,,,,,,,,,,,,,,,,,,,,,,,,,,,,,,,,,,,,,,,,P115,001,2025-02-19_11h50.36.437,posner_endo_new1,2024.2.4,60.016804704019236,2025-02-19 11h50.44.541352 +0000,
,,,,,,,,,,,,,,,,,,,,,,,,,,,,,,,,,,531.2155283000029,531.2287519999954,534.2289098000037,534.2094874000177,,,,,,,,,,,,,,,,,,,,,,,,,,,,,,,,,,,,,,,,,,,,,,P115,001,2025-02-19_11h50.36.437,posner_endo_new1,2024.2.4,60.016804704019236,2025-02-19 11h50.44.541352 +0000,
cube_l.png,0.1,-0.31,valid,0,0,0,up,0.7677502000005916,None,space,0.6156327000062447,None,0,0,0,0,,,,,,,,,534.2289098000037,,,,,,,,,,,,,534.2166399999987,534.2289098000037,534.2289098000037,534.2289098000037,535.0085128000064,up,0.7677502000005916,None,535.019025400019,535.0291717000073,535.0291717000073,535.0750130000233,535.0752357000019,535.091324500012,535.091324500012,535.091324500012,535.157980500022,535.7083824000147,space,0.6156327000062447,None,,,,,,,,,,,,,,,,,,,,,,,,,P115,001,2025-02-19_11h50.36.437,posner_endo_new1,2024.2.4,60.016804704019236,2025-02-19 11h50.44.541352 +0000,
cube_l.png,0.1,0.31,invalid,1,1,0,up,10.536177100002533,None,space,0.39434499997878447,None,0,1,1,1,,,,,,,,,535.7242094000103,,,,,,,,,,,,,535.7085434000182,535.7242094000103,535.7242094000103,535.7242094000103,546.2642504000105,up,10.536177100002533,None,546.2737667000038,546.2836703000066,546.2836703000066,546.3300717000093,546.3303161000076,546.3464803000097,546.3464803000097,546.3464803000097,546.4297900000238,546.7468373000156,space,0.39434499997878447,None,,,,,,,,,,,,,,,,,,,,,,,,,P115,001,2025-02-19_11h50.36.437,posner_endo_new1,2024.2.4,60.016804704019236,2025-02-19 11h50.44.541352 +0000,
cube_r.png,0.1,-0.31,invalid,2,2,0,up,3.6906189000001177,None,space,0.40485889997216873,None,0,2,2,2,,,,,,,,,546.7627149000182,,,,,,,,,,,,,546.7470201000106,546.7627149000182,546.7627149000182,546.7627149000182,550.4599163999956,up,3.6906189000001177,None,550.4670134000189,550.4787085000135,550.4787085000135,550.5257500000007,550.5259977999958,550.5422615999996,550.5422615999996,550.5422615999996,550.6257029999979,550.9593127999979,space,0.40485889997216873,None,,,,,,,,,,,,,,,,,,,,,,,,,P115,001,2025-02-19_11h50.36.437,posner_endo_new1,2024.2.4,60.016804704019236,2025-02-19 11h50.44.541352 +0000,
cube_r.png,0.1,10,catch,3,3,0,up,5.8856745999946725,None,space,0.4103940000059083,None,0,3,3,3,,,,,,,,,550.9751360000228,,,,,,,,,,,,,550.9594947000151,550.9751360000228,550.9751360000228,550.9751360000228,556.8696398000175,up,5.8856745999946725,None,556.876714700018,556.8886067999993,556.8886067999993,556.935910500004,556.9361560000107,556.9524682000047,556.9524682000047,556.9524682000047,557.0190671000164,557.3695700000098,space,0.4103940000059083,None,,,,,,,,,,,,,,,,,,,,,,,,,P115,001,2025-02-19_11h50.36.437,posner_endo_new1,2024.2.4,60.016804704019236,2025-02-19 11h50.44.541352 +0000,
cube_l.png,0.1,-0.31,valid,4,4,0,up,19.147692900005495,None,space,0.5471653999993578,None,0,4,4,4,,,,,,,,,557.3851783999999,,,,,,,,,,,,,557.369752700004,557.3851783999999,557.3851783999999,557.3851783999999,576.5497570000007,up,19.147692900005495,None,576.5568357000011,576.5686827000172,576.5686827000172,576.6157858000079,576.6160284000216,576.6322033000179,576.6322033000179,576.6322033000179,576.6988473999954,577.182678400015,space,0.5471653999993578,None,,,,,,,,,,,,,,,,,,,,,,,,,P115,001,2025-02-19_11h50.36.437,posner_endo_new1,2024.2.4,60.016804704019236,2025-02-19 11h50.44.541352 +0000,
cube_l.png,0.1,0.31,invalid,5,5,0,up,5.382178800005931,None,space,0.45803500001784414,None,0,5,5,5,,,,,,,,,577.1983564000111,,,,,,,,,,,,,577.1828652000113,577.1983564000111,577.1983564000111,577.1983564000111,582.59369780001,up,5.382178800005931,None,582.6007957000111,582.6125021000043,582.6125021000043,582.6595127000182,582.6597551000013,582.6760584000149,582.6760584000149,582.6760584000149,582.7593011000135,583.1429583000136,space,0.45803500001784414,None,,,,,,,,,,,,,,,,,,,,,,,,,P115,001,2025-02-19_11h50.36.437,posner_endo_new1,2024.2.4,60.016804704019236,2025-02-19 11h50.44.541352 +0000,
cube_r.png,0.1,-0.31,invalid,6,6,0,up,3.1097927000082564,None,space,0.4419785000209231,None,0,6,6,6,,,,,,,,,583.1589932000206,,,,,,,,,,,,,583.1431444000045,583.1589932000206,583.1589932000206,583.1589932000206,586.2733518000168,up,3.1097927000082564,None,586.2803832000063,586.2920716000081,586.2920716000081,586.3391288999992,586.3393714000122,586.355553500005,586.355553500005,586.355553500005,586.4388750000217,586.8059369999974,space,0.4419785000209231,None,,,,,,,,,,,,,,,,,,,,,,,,,P115,001,2025-02-19_11h50.36.437,posner_endo_new1,2024.2.4,60.016804704019236,2025-02-19 11h50.44.541352 +0000,
cube_r.png,0.1,0.31,valid,7,7,0,up,2.647145199996885,None,space,0.5037238000077195,None,0,7,7,7,,,,,,,,,586.8219556999975,,,,,,,,,,,,,586.8061173000024,586.8219556999975,586.8219556999975,586.8219556999975,589.4701328000228,up,2.647145199996885,None,589.4772173000092,589.4889158000005,589.4889158000005,589.5358206999954,589.5363127000164,589.5522082000098,589.5522082000098,589.5522082000098,589.6354226999974,590.0698020000127,space,0.5037238000077195,None,,,,,,,,,,,,,,,,,,,,,,,,,P115,001,2025-02-19_11h50.36.437,posner_endo_new1,2024.2.4,60.016804704019236,2025-02-19 11h50.44.541352 +0000,
cube_l.png,0.1,-0.31,valid,8,8,0,up,8.87892250000732,None,space,0.5343910999945365,None,0,8,8,8,,,,,,,,,590.0852479000168,,,,,,,,,,,,,590.0701047000184,590.0852479000168,590.0852479000168,590.0852479000168,598.9772678000154,up,8.87892250000732,None,598.9884587000124,598.9986916000198,598.9986916000198,599.0428370000154,599.0431832000031,599.0593625000038,599.0593625000038,599.0593625000038,599.1426591000054,599.6099618000153,space,0.5343910999945365,None,,,,,,,,,,,,,,,,,,,,,,,,,P115,001,2025-02-19_11h50.36.437,posner_endo_new1,2024.2.4,60.016804704019236,2025-02-19 11h50.44.541352 +0000,
cube_r.png,0.1,-0.31,invalid,9,9,0,up,2.155016800010344,None,space,0.545973000000231,None,0,9,9,9,,,,,,,,,599.625689700013,,,,,,,,,,,,,599.6102292000141,599.625689700013,599.625689700013,599.625689700013,601.7911232000042,up,2.155016800010344,None,601.8016899000213,601.8113030999957,601.8113030999957,601.8567414999998,601.8569754000055,601.8731469000049,601.8731469000049,601.8731469000049,601.9562603000086,602.4233876000217,space,0.545973000000231,None,,,,,,,,,,,,,,,,,,,,,,,,,P115,001,2025-02-19_11h50.36.437,posner_endo_new1,2024.2.4,60.016804704019236,2025-02-19 11h50.44.541352 +0000,
cube_r.png,0.1,0.31,valid,10,10,0,up,1.614108000008855,None,space,0.5027075999823865,None,0,10,10,10,,,,,,,,,602.4392627000052,,,,,,,,,,,,,602.4235542000097,602.4392627000052,602.4392627000052,602.4392627000052,604.0551243000082,up,1.614108000008855,None,604.0616479000018,604.0737708000233,604.0737708000233,604.1210412000073,604.1212647000211,604.1374710000237,604.1374710000237,604.1374710000237,604.2207758000004,604.6544583000068,space,0.5027075999823865,None,,,,,,,,,,,,,,,,,,,,,,,,,P115,001,2025-02-19_11h50.36.437,posner_endo_new1,2024.2.4,60.016804704019236,2025-02-19 11h50.44.541352 +0000,
,,,,,,,,,,,,,,,,,,,,,,,,,,,,,,,,,,604.654563500022,604.6702240000013,607.6869386000035,607.6512711000105,,,,,,,,,,,,,,,,,,,,,,,,,,,,,,,,,,,,,,,,,,,,,,P115,001,2025-02-19_11h50.36.437,posner_endo_new1,2024.2.4,60.016804704019236,2025-02-19 11h50.44.541352 +0000,
cube_l.png,0.1,10,catch,0,0,0,up,22.229307400004473,None,None,,,,,,,0,0,0,0,,,,,607.6869386000035,,,,,,,,,,,,,607.6776663000055,607.6869386000035,607.6869386000035,607.6869386000035,629.9289935000124,,,,629.9403346000181,629.9506140000012,629.9506140000012,629.9946296999988,629.9949725000188,630.0111180999957,630.0111180999957,630.0111180999957,630.094600100012,633.0088571000088,,,,up,22.229307400004473,None,632.1089980000106,633.0247005000128,633.0247005000128,633.0247005000128,None,,,,,,,,,,,,,,,,,P115,001,2025-02-19_11h50.36.437,posner_endo_new1,2024.2.4,60.016804704019236,2025-02-19 11h50.44.541352 +0000,
cube_l.png,0.1,10,catch,1,1,0,up,0.6930109999957494,None,None,,,,,,,0,1,1,1,,,,,633.0247005000128,,,,,,,,,,,,,633.0091290000128,633.0247005000128,633.0247005000128,633.0247005000128,633.7250757000002,,,,633.7362115000142,633.7466245999967,633.7466245999967,633.7907899999991,633.7911309000046,633.807285500021,633.807285500021,633.807285500021,633.8904263000004,636.8048945000046,,,,up,0.6930109999957494,None,635.9050403000147,636.8208077000163,636.8208077000163,636.8208077000163,None,,,,,,,,,,,,,,,,,P115,001,2025-02-19_11h50.36.437,posner_endo_new1,2024.2.4,60.016804704019236,2025-02-19 11h50.44.541352 +0000,
cube_l.png,0.1,0.31,invalid,2,2,0,up,0.1274486999900546,None,space,0.5048171000089496,None,,,,,0,2,2,2,,,,,636.8208077000163,,,,,,,,,,,,,636.8051569000236,636.8208077000163,636.8208077000163,636.8208077000163,636.9551840000204,,,,636.9636914000148,636.9735540999973,636.9735540999973,637.0207004999975,637.0209218999953,637.0372595000081,637.0372595000081,637.0372595000081,637.1205876000167,637.5540218999959,,,,up,0.1274486999900546,None,,,,,space,0.5048171000089496,None,,,,,,,,,,,,,,,P115,001,2025-02-19_11h50.36.437,posner_endo_new1,2024.2.4,60.016804704019236,2025-02-19 11h50.44.541352 +0000,
cube_l.png,0.1,0.31,invalid,3,3,0,up,2.2020538999931887,None,space,0.43031799999880604,None,,,,,0,3,3,3,,,,,637.5702540000202,,,,,,,,,,,,,637.5541921000113,637.5702540000202,637.5702540000202,637.5702540000202,639.7851116000093,,,,639.7908735999954,639.8024885000195,639.8024885000195,639.8512832999986,639.8515033000149,639.8677376999985,639.8677376999985,639.8677376999985,639.9342047999962,640.3013132000051,,,,up,2.2020538999931887,None,,,,,space,0.43031799999880604,None,,,,,,,,,,,,,,,P115,001,2025-02-19_11h50.36.437,posner_endo_new1,2024.2.4,60.016804704019236,2025-02-19 11h50.44.541352 +0000,
cube_l.png,0.1,-0.31,valid,4,4,0,up,2.6477745000156574,None,space,0.41076949998387136,None,,,,,0,4,4,4,,,,,640.317248700012,,,,,,,,,,,,,640.301486100012,640.317248700012,640.317248700012,640.317248700012,642.9817847000086,,,,642.9875319999992,642.9990113000094,642.9990113000094,643.0479493000021,643.0481704999984,643.0643263000238,643.0643263000238,643.0643263000238,643.1310045999999,643.4813569000107,,,,up,2.6477745000156574,None,,,,,space,0.41076949998387136,None,,,,,,,,,,,,,,,P115,001,2025-02-19_11h50.36.437,posner_endo_new1,2024.2.4,60.016804704019236,2025-02-19 11h50.44.541352 +0000,
cube_r.png,0.1,-0.31,invalid,5,5,0,up,5.747421800013399,None,space,0.46160549999331124,None,,,,,0,5,5,5,,,,,643.4972441999998,,,,,,,,,,,,,643.4815262000193,643.4972441999998,643.4972441999998,643.4972441999998,649.2587065999978,,,,649.2645362000039,649.2761798000138,649.2761798000138,649.3248541000066,649.3250762000098,649.3413092000119,649.3413092000119,649.3413092000119,649.4078844000178,649.8085399999982,,,,up,5.747421800013399,None,,,,,space,0.46160549999331124,None,,,,,,,,,,,,,,,P115,001,2025-02-19_11h50.36.437,posner_endo_new1,2024.2.4,60.016804704019236,2025-02-19 11h50.44.541352 +0000,
cube_r.png,0.1,0.31,valid,6,6,0,up,2.5885915999824647,None,space,0.38216259999899194,None,,,,,0,6,6,6,,,,,649.8241038999986,,,,,,,,,,,,,649.8087098000105,649.8241038999986,649.8241038999986,649.8241038999986,652.4223058000207,,,,652.4281667000032,652.4398978000099,652.4398978000099,652.4881804000179,652.4884031999973,652.504717200005,652.504717200005,652.504717200005,652.5880612000183,652.8886372999987,,,,up,2.5885915999824647,None,,,,,space,0.38216259999899194,None,,,,,,,,,,,,,,,P115,001,2025-02-19_11h50.36.437,posner_endo_new1,2024.2.4,60.016804704019236,2025-02-19 11h50.44.541352 +0000,
cube_r.png,0.1,-0.31,invalid,7,7,0,up,4.044128100009402,None,space,0.38754540000809357,None,,,,,0,7,7,7,,,,,652.9043179000146,,,,,,,,,,,,,652.8888042000181,652.9043179000146,652.9043179000146,652.9043179000146,656.9510267000005,,,,656.9568689000153,656.9685653000197,656.9685653000197,657.0168989000085,657.0171190999972,657.0335426000238,657.0335426000238,657.0335426000238,657.1000436000177,657.4339001000044,,,,up,4.044128100009402,None,,,,,space,0.38754540000809357,None,,,,,,,,,,,,,,,P115,001,2025-02-19_11h50.36.437,posner_endo_new1,2024.2.4,60.016804704019236,2025-02-19 11h50.44.541352 +0000,
cube_l.png,0.1,-0.31,valid,8,8,0,up,2.594564300001366,None,space,0.3784074999857694,None,,,,,0,8,8,8,,,,,657.4497225000232,,,,,,,,,,,,,657.4340689000092,657.4497225000232,657.4497225000232,657.4497225000232,660.0479459000053,,,,660.0536996000155,660.0653212000034,660.0653212000034,660.1138158999966,660.1140367000189,660.1302242000238,660.1302242000238,660.1302242000238,660.1968751999957,660.5142544000119,,,,up,2.594564300001366,None,,,,,space,0.3784074999857694,None,,,,,,,,,,,,,,,P115,001,2025-02-19_11h50.36.437,posner_endo_new1,2024.2.4,60.016804704019236,2025-02-19 11h50.44.541352 +0000,
cube_r.png,0.1,-0.31,invalid,9,9,0,up,2.3229245000111405,None,space,0.5836838999821339,None,,,,,0,9,9,9,,,,,660.5299077000236,,,,,,,,,,,,,660.5144225000113,660.5299077000236,660.5299077000236,660.5299077000236,662.8616060000204,,,,662.8675179000129,662.8791157000232,662.8791157000232,662.927620500006,662.9278423000069,662.9441231999954,662.9441231999954,662.9441231999954,663.0109188000206,663.544315200008,,,,up,2.3229245000111405,None,,,,,space,0.5836838999821339,None,,,,,,,,,,,,,,,P115,001,2025-02-19_11h50.36.437,posner_endo_new1,2024.2.4,60.016804704019236,2025-02-19 11h50.44.541352 +0000,
cube_l.png,0.1,0.31,invalid,10,10,0,up,2.116253800020786,None,space,0.4206403000280261,None,,,,,0,10,10,10,,,,,663.5601657000079,,,,,,,,,,,,,663.5444845000166,663.5601657000079,663.5601657000079,663.5601657000079,665.692139300023,,,,665.6978894000058,665.7095864000148,665.7095864000148,665.7580930000113,665.7583220000088,665.7746040000056,665.7746040000056,665.7746040000056,665.8578823000134,666.2081200999964,,,,up,2.116253800020786,None,,,,,space,0.4206403000280261,None,,,,,,,,,,,,,,,P115,001,2025-02-19_11h50.36.437,posner_endo_new1,2024.2.4,60.016804704019236,2025-02-19 11h50.44.541352 +0000,
cube_r.png,0.1,-0.31,invalid,11,11,0,up,3.1646438000025228,None,space,0.5234127000148874,None,,,,,0,11,11,11,,,,,666.2240559000056,,,,,,,,,,,,,666.2082914000202,666.2240559000056,666.2240559000056,666.2240559000056,669.4050247000123,,,,669.4108071000082,669.4224700000195,669.4224700000195,669.470902400004,669.4711265000224,669.4874123000191,669.4874123000191,669.4874123000191,669.554249000008,670.0209195000061,,,,up,3.1646438000025228,None,,,,,space,0.5234127000148874,None,,,,,,,,,,,,,,,P115,001,2025-02-19_11h50.36.437,posner_endo_new1,2024.2.4,60.016804704019236,2025-02-19 11h50.44.541352 +0000,
cube_r.png,0.1,0.31,valid,12,12,0,up,3.119795199978398,None,space,0.49190950000775047,None,,,,,0,12,12,12,,,,,670.0367767999996,,,,,,,,,,,,,670.0210883000109,670.0367767999996,670.0367767999996,670.0367767999996,673.1677494000178,,,,673.1735678999976,673.1853024000011,673.1853024000011,673.2337621000188,673.2339830000128,673.2502227000077,673.2502227000077,673.2502227000077,673.3167970000068,673.7501951000013,,,,up,3.119795199978398,None,,,,,space,0.49190950000775047,None,,,,,,,,,,,,,,,P115,001,2025-02-19_11h50.36.437,posner_endo_new1,2024.2.4,60.016804704019236,2025-02-19 11h50.44.541352 +0000,
cube_l.png,0.1,10,catch,13,13,0,up,3.798135299992282,None,None,,,,,,,0,13,13,13,,,,,673.7663279999979,,,,,,,,,,,,,673.7503633000015,673.7663279999979,673.7663279999979,673.7663279999979,677.5804864000238,,,,677.5915043000132,677.601816600014,677.601816600014,677.6459443000203,677.6462815999985,677.6624219000223,677.6624219000223,677.6624219000223,677.7456790000142,680.6600706000172,,,,up,3.798135299992282,None,679.7602899000049,680.6754545000149,680.6754545000149,680.6754545000149,None,,,,,,,,,,,,,,,,,P115,001,2025-02-19_11h50.36.437,posner_endo_new1,2024.2.4,60.016804704019236,2025-02-19 11h50.44.541352 +0000,
cube_r.png,0.1,-0.31,invalid,14,14,0,up,1.4656197000003885,None,space,0.4813946000067517,None,,,,,0,14,14,14,,,,,680.6754545000149,,,,,,,,,,,,,680.6603334000101,680.6754545000149,680.6754545000149,680.6754545000149,682.1425347000186,,,,682.1536350000242,682.1640745000041,682.1640745000041,682.2079089000181,682.2082525000151,682.2244467000128,682.2244467000128,682.2244467000128,682.3076011000085,682.7084899000183,,,,up,1.4656197000003885,None,,,,,space,0.4813946000067517,None,,,,,,,,,,,,,,,P115,001,2025-02-19_11h50.36.437,posner_endo_new1,2024.2.4,60.016804704019236,2025-02-19 11h50.44.541352 +0000,
cube_l.png,0.1,-0.31,valid,15,15,0,up,3.665215499990154,None,space,0.42010129999835044,None,,,,,0,15,15,15,,,,,682.7239745999977,,,,,,,,,,,,,682.7087772000232,682.7239745999977,682.7239745999977,682.7239745999977,686.4046479999961,,,,686.4157606000081,686.4261468000186,686.4261468000186,686.4702067000035,686.4705436000077,686.4868107000075,686.4868107000075,686.4868107000075,686.5700297000003,686.9208279000013,,,,up,3.665215499990154,None,,,,,space,0.42010129999835044,None,,,,,,,,,,,,,,,P115,001,2025-02-19_11h50.36.437,posner_endo_new1,2024.2.4,60.016804704019236,2025-02-19 11h50.44.541352 +0000,
cube_r.png,0.1,10,catch,16,16,0,up,4.436390799994115,None,None,,,,,,,0,16,16,16,,,,,686.9363106000237,,,,,,,,,,,,,686.9211097000225,686.9363106000237,686.9363106000237,686.9363106000237,691.382876800024,,,,691.3941151000035,691.4044387000031,691.4044387000031,691.4485520000162,691.4488936999987,691.4650866000156,691.4650866000156,691.4650866000156,691.5482325000048,694.4627263000002,,,,up,4.436390799994115,None,693.562940600008,694.4785567000217,694.4785567000217,694.4785567000217,None,,,,,,,,,,,,,,,,,P115,001,2025-02-19_11h50.36.437,posner_endo_new1,2024.2.4,60.016804704019236,2025-02-19 11h50.44.541352 +0000,
cube_r.png,0.1,10,catch,17,17,0,up,1.2781117999984417,None,None,,,,,,,0,17,17,17,,,,,694.4785567000217,,,,,,,,,,,,,694.4629874000093,694.4785567000217,694.4785567000217,694.4785567000217,695.7618993000069,,,,695.7729913000076,695.7833039000107,695.7833039000107,695.8274273000134,695.8277672000113,695.8438430000097,695.8438430000097,695.8438430000097,695.9272010000132,698.8415210999956,,,,up,1.2781117999984417,None,697.9417536999972,698.8575007000181,698.8575007000181,698.8575007000181,None,,,,,,,,,,,,,,,,,P115,001,2025-02-19_11h50.36.437,posner_endo_new1,2024.2.4,60.016804704019236,2025-02-19 11h50.44.541352 +0000,
cube_l.png,0.1,0.31,invalid,18,18,0,up,1.5557728999992833,None,space,0.5581414000189397,None,,,,,0,18,18,18,,,,,698.8575007000181,,,,,,,,,,,,,698.8417817000009,698.8575007000181,698.8575007000181,698.8575007000181,700.4237374000077,,,,700.4348404000048,700.4452280999976,700.4452280999976,700.4892730000138,700.489608200005,700.5057544000156,700.5057544000156,700.5057544000156,700.5889985999966,701.0729405000166,,,,up,1.5557728999992833,None,,,,,space,0.5581414000189397,None,,,,,,,,,,,,,,,P115,001,2025-02-19_11h50.36.437,posner_endo_new1,2024.2.4,60.016804704019236,2025-02-19 11h50.44.541352 +0000,
cube_l.png,0.1,10,catch,19,19,0,up,2.7481149999948684,None,None,,,,,,,0,19,19,19,,,,,701.0885434000229,,,,,,,,,,,,,701.0732253000024,701.0885434000229,701.0885434000229,701.0885434000229,703.8535146000213,,,,703.8626744000067,703.8722594999999,703.8722594999999,703.9190612999955,703.9192954000027,703.9355585000012,703.9355585000012,703.9355585000012,704.0186651000113,706.9331280000042,,,,up,2.7481149999948684,None,706.0333433000196,706.9491964000044,706.9491964000044,706.9491964000044,None,,,,,,,,,,,,,,,,,P115,001,2025-02-19_11h50.36.437,posner_endo_new1,2024.2.4,60.016804704019236,2025-02-19 11h50.44.541352 +0000,
cube_l.png,0.1,0.31,invalid,20,20,0,up,4.335866200010059,None,space,0.3806565999984741,None,,,,,0,20,20,20,,,,,706.9491964000044,,,,,,,,,,,,,706.9332964000059,706.9491964000044,706.9491964000044,706.9491964000044,711.295403600001,,,,711.3021121000056,711.3139356000174,711.3139356000174,711.3614547000034,711.3616937000188,711.3778443000047,711.3778443000047,711.3778443000047,711.4446120000212,711.7614808000217,,,,up,4.335866200010059,None,,,,,space,0.3806565999984741,None,,,,,,,,,,,,,,,P115,001,2025-02-19_11h50.36.437,posner_endo_new1,2024.2.4,60.016804704019236,2025-02-19 11h50.44.541352 +0000,
cube_l.png,0.1,-0.31,valid,21,21,0,up,5.346737600018969,None,space,0.6343862000212539,None,,,,,0,21,21,21,,,,,711.7775778000068,,,,,,,,,,,,,711.7616624000075,711.7775778000068,711.7775778000068,711.7775778000068,717.1395296000119,,,,717.1462023000058,717.157890100003,717.157890100003,717.2055097999983,717.2057350999967,717.2220953000069,717.2220953000069,717.2220953000069,717.3053288000228,717.8720406000211,,,,up,5.346737600018969,None,,,,,space,0.6343862000212539,None,,,,,,,,,,,,,,,P115,001,2025-02-19_11h50.36.437,posner_endo_new1,2024.2.4,60.016804704019236,2025-02-19 11h50.44.541352 +0000,
cube_r.png,0.1,0.31,valid,22,22,0,up,2.7890603999840096,None,space,0.45096610000473447,None,,,,,0,22,22,22,,,,,717.8880173000216,,,,,,,,,,,,,717.8722096999991,717.8880173000216,717.8880173000216,717.8880173000216,720.6857485000219,,,,720.6915193000168,720.7032229000179,720.7032229000179,720.7516428000235,720.7518621000054,720.7682982000115,720.7682982000115,720.7682982000115,720.8349856999994,721.2353145000234,,,,up,2.7890603999840096,None,,,,,space,0.45096610000473447,None,,,,,,,,,,,,,,,P115,001,2025-02-19_11h50.36.437,posner_endo_new1,2024.2.4,60.016804704019236,2025-02-19 11h50.44.541352 +0000,
cube_r.png,0.1,-0.31,invalid,23,23,0,up,3.8493847999779973,None,space,0.47215630000573583,None,,,,,0,23,23,23,,,,,721.251289900014,,,,,,,,,,,,,721.2354841000051,721.251289900014,721.251289900014,721.251289900014,725.1151232999982,,,,725.12617090001,725.136590500013,725.136590500013,725.180745300022,725.1810801000101,725.1972170000081,725.1972170000081,725.1972170000081,725.2803807000164,725.6811616000195,,,,up,3.8493847999779973,None,,,,,space,0.47215630000573583,None,,,,,,,,,,,,,,,P115,001,2025-02-19_11h50.36.437,posner_endo_new1,2024.2.4,60.016804704019236,2025-02-19 11h50.44.541352 +0000,
cube_r.png,0.1,0.31,valid,24,24,0,up,3.6199530999874696,None,space,0.4141169000067748,None,,,,,0,24,24,24,,,,,725.6966595000122,,,,,,,,,,,,,725.681451100012,725.6966595000122,725.6966595000122,725.6966595000122,729.3274282000202,,,,729.3384751999984,729.3487524000229,729.3487524000229,729.3929750000243,729.3933130000078,729.4094858000171,729.4094858000171,729.4094858000171,729.4928919000085,729.8269076000142,,,,up,3.6199530999874696,None,,,,,space,0.4141169000067748,None,,,,,,,,,,,,,,,P115,001,2025-02-19_11h50.36.437,posner_endo_new1,2024.2.4,60.016804704019236,2025-02-19 11h50.44.541352 +0000,
cube_r.png,0.1,-0.31,invalid,25,25,0,up,4.434067599999253,None,space,0.39716650001355447,None,,,,,0,25,25,25,,,,,729.8424604000174,,,,,,,,,,,,,729.8271874000202,729.8424604000174,729.8424604000174,729.8424604000174,734.2890080000216,,,,734.300060300011,734.3104153000168,734.3104153000168,734.3547545000038,734.3550892000203,734.3711074000166,734.3711074000166,734.3711074000166,734.4544458000164,734.7720720000216,,,,up,4.434067599999253,None,,,,,space,0.39716650001355447,None,,,,,,,,,,,,,,,P115,001,2025-02-19_11h50.36.437,posner_endo_new1,2024.2.4,60.016804704019236,2025-02-19 11h50.44.541352 +0000,
cube_l.png,0.1,-0.31,valid,26,26,0,up,4.456992999999784,None,space,0.3774771000025794,None,,,,,0,26,26,26,,,,,734.787521899998,,,,,,,,,,,,,734.7723597000004,734.787521899998,734.787521899998,734.787521899998,739.2506372000207,,,,739.2617593000177,739.2721176000196,739.2721176000196,739.316358400014,739.3167025000148,739.3327950999956,739.3327950999956,739.3327950999956,739.4160486000183,739.7170081000077,,,,up,4.456992999999784,None,,,,,space,0.3774771000025794,None,,,,,,,,,,,,,,,P115,001,2025-02-19_11h50.36.437,posner_endo_new1,2024.2.4,60.016804704019236,2025-02-19 11h50.44.541352 +0000,
cube_r.png,0.1,0.31,valid,27,27,0,up,3.95297230000142,None,space,0.4399676000175532,None,,,,,0,27,27,27,,,,,739.732457200007,,,,,,,,,,,,,739.7172996000154,739.732457200007,739.732457200007,739.732457200007,743.696173400007,,,,743.707206400024,743.717564599996,743.717564599996,743.7617950999993,743.7621389999986,743.7782327000168,743.7782327000168,743.7782327000168,743.8614369000134,744.228960700013,,,,up,3.95297230000142,None,,,,,space,0.4399676000175532,None,,,,,,,,,,,,,,,P115,001,2025-02-19_11h50.36.437,posner_endo_new1,2024.2.4,60.016804704019236,2025-02-19 11h50.44.541352 +0000,
cube_r.png,0.1,10,catch,28,28,0,up,4.720737700001337,None,None,,,,,,,0,28,28,28,,,,,744.2444670000114,,,,,,,,,,,,,744.2292466000072,744.2444670000114,744.2444670000114,744.2444670000114,748.9740030000103,,,,748.982756500016,748.9924754000094,748.9924754000094,749.0396536000189,749.0399025000224,749.056104999996,749.056104999996,749.056104999996,749.1393420000095,752.0535144000023,,,,up,4.720737700001337,None,751.1539034000016,752.0697100000107,752.0697100000107,752.0697100000107,None,,,,,,,,,,,,,,,,,P115,001,2025-02-19_11h50.36.437,posner_endo_new1,2024.2.4,60.016804704019236,2025-02-19 11h50.44.541352 +0000,
cube_r.png,0.1,0.31,valid,29,29,0,up,0.855126599984942,None,space,0.48418260001926683,None,,,,,0,29,29,29,,,,,752.0697100000107,,,,,,,,,,,,,752.0536857999978,752.0697100000107,752.0697100000107,752.0697100000107,752.9362036000239,,,,752.9429016000067,752.9546764999977,752.9546764999977,753.0020249000227,753.0022557000048,753.0187165000243,753.0187165000243,753.0187165000243,753.0853804000071,753.5190417999984,,,,up,0.855126599984942,None,,,,,space,0.48418260001926683,None,,,,,,,,,,,,,,,P115,001,2025-02-19_11h50.36.437,posner_endo_new1,2024.2.4,60.016804704019236,2025-02-19 11h50.44.541352 +0000,
cube_r.png,0.1,0.31,valid,30,30,0,up,3.190267500001937,None,space,0.46159970000735484,None,,,,,0,30,30,30,,,,,753.5349756000214,,,,,,,,,,,,,753.519222700008,753.5349756000214,753.5349756000214,753.5349756000214,756.7322721000237,,,,756.7389548000065,756.7507675000234,756.7507675000234,756.7981585000234,756.7983899000101,756.8149354000052,756.8149354000052,756.8149354000052,756.8815002000192,757.2819075000007,,,,up,3.190267500001937,None,,,,,space,0.46159970000735484,None,,,,,,,,,,,,,,,P115,001,2025-02-19_11h50.36.437,posner_endo_new1,2024.2.4,60.016804704019236,2025-02-19 11h50.44.541352 +0000,
cube_l.png,0.1,-0.31,valid,31,31,0,up,5.018630699982168,None,space,0.4445711000007577,None,,,,,0,31,31,31,,,,,757.297673699999,,,,,,,,,,,,,757.2820882000087,757.297673699999,757.297673699999,757.297673699999,762.3266951999976,,,,762.3333569000242,762.3450854000112,762.3450854000112,762.3926768000238,762.3929133000202,762.4093273000035,762.4093273000035,762.4093273000035,762.492448200006,762.8594431999954,,,,up,5.018630699982168,None,,,,,space,0.4445711000007577,None,,,,,,,,,,,,,,,P115,001,2025-02-19_11h50.36.437,posner_endo_new1,2024.2.4,60.016804704019236,2025-02-19 11h50.44.541352 +0000,
cube_r.png,0.1,0.31,valid,32,32,0,up,4.330202100012684,None,space,0.5476918000204023,None,,,,,0,32,32,32,,,,,762.8754588000011,,,,,,,,,,,,,762.8596242000058,762.8754588000011,762.8754588000011,762.8754588000011,767.2217318000039,,,,767.2283735000237,767.2399898000003,767.2399898000003,767.2875635000237,767.2880564000225,767.3038952000206,767.3038952000206,767.3038952000206,767.3871889000002,767.8552744000044,,,,up,4.330202100012684,None,,,,,space,0.5476918000204023,None,,,,,,,,,,,,,,,P115,001,2025-02-19_11h50.36.437,posner_endo_new1,2024.2.4,60.016804704019236,2025-02-19 11h50.44.541352 +0000,
cube_r.png,0.1,-0.31,invalid,33,33,0,up,2.4544029000098817,None,space,0.4650891000055708,None,,,,,0,33,33,33,,,,,767.8700373000174,,,,,,,,,,,,,767.8557049000228,767.8700373000174,767.8700373000174,767.8700373000174,770.3354798000073,,,,770.3439235000114,770.3539804000175,770.3539804000175,770.4010348000156,770.4012614000239,770.4177966999996,770.4177966999996,770.4177966999996,770.5009625000239,770.8846442000067,,,,up,2.4544029000098817,None,,,,,space,0.4650891000055708,None,,,,,,,,,,,,,,,P115,001,2025-02-19_11h50.36.437,posner_endo_new1,2024.2.4,60.016804704019236,2025-02-19 11h50.44.541352 +0000,
cube_r.png,0.1,10,catch,34,34,0,up,2.8319538999930955,None,None,,,,,,,0,34,34,34,,,,,770.9004511999956,,,,,,,,,,,,,770.8848108000238,770.9004511999956,770.9004511999956,770.9004511999956,773.7483787000237,,,,773.7542109000206,773.7659670000139,773.7659670000139,773.8142514000065,773.8144707000174,773.8308147000207,773.8308147000207,773.8308147000207,773.8973960000149,776.8282120000222,,,,up,2.8319538999930955,None,775.9120573000109,776.8444216000207,776.8444216000207,776.8444216000207,None,,,,,,,,,,,,,,,,,P115,001,2025-02-19_11h50.36.437,posner_endo_new1,2024.2.4,60.016804704019236,2025-02-19 11h50.44.541352 +0000,
cube_r.png,0.1,0.31,valid,35,35,0,up,0.6160819999931846,None,space,0.5303433000226505,None,,,,,0,35,35,35,,,,,776.8444216000207,,,,,,,,,,,,,776.8283672000107,776.8444216000207,776.8444216000207,776.8444216000207,777.4613588000066,,,,777.4670790999953,777.4788841000118,777.4788841000118,777.5272196000151,777.5274410000129,777.5437380000076,777.5437380000076,777.5437380000076,777.6270212000236,778.0773557000211,,,,up,0.6160819999931846,None,,,,,space,0.5303433000226505,None,,,,,,,,,,,,,,,P115,001,2025-02-19_11h50.36.437,posner_endo_new1,2024.2.4,60.016804704019236,2025-02-19 11h50.44.541352 +0000,
cube_r.png,0.1,-0.31,invalid,36,36,0,up,3.567669799987925,None,space,0.418410699989181,None,,,,,0,36,36,36,,,,,778.093119600002,,,,,,,,,,,,,778.0775299000088,778.093119600002,778.093119600002,778.093119600002,781.6735629000177,,,,781.6793888999964,781.6911611999967,781.6911611999967,781.7394904000103,781.7397091000166,781.7560985000164,781.7560985000164,781.7560985000164,781.822722700017,782.1897085000237,,,,up,3.567669799987925,None,,,,,space,0.418410699989181,None,,,,,,,,,,,,,,,P115,001,2025-02-19_11h50.36.437,posner_endo_new1,2024.2.4,60.016804704019236,2025-02-19 11h50.44.541352 +0000,
cube_l.png,0.1,0.31,invalid,37,37,0,up,3.0554927999910433,None,space,0.41227440000511706,None,,,,,0,37,37,37,,,,,782.205739099998,,,,,,,,,,,,,782.1898768999963,782.205739099998,782.205739099998,782.205739099998,785.2698959000118,,,,785.2756502999982,785.2872808999964,785.2872808999964,785.3359467000118,785.3361669000005,785.3524468000105,785.3524468000105,785.3524468000105,785.418846000015,785.7695918999962,,,,up,3.0554927999910433,None,,,,,space,0.41227440000511706,None,,,,,,,,,,,,,,,P115,001,2025-02-19_11h50.36.437,posner_endo_new1,2024.2.4,60.016804704019236,2025-02-19 11h50.44.541352 +0000,
cube_l.png,0.1,0.31,invalid,38,38,0,up,5.9400556000182405,None,space,0.3777367000002414,None,,,,,0,38,38,38,,,,,785.785379900015,,,,,,,,,,,,,785.769767699996,785.785379900015,785.785379900015,785.785379900015,791.7300334000029,,,,791.7358889000025,791.7475068000203,791.7475068000203,791.7959492000227,791.7961751999974,791.8125925000058,791.8125925000058,791.8125925000058,791.8957733999996,792.1960784000112,,,,up,5.9400556000182405,None,,,,,space,0.3777367000002414,None,,,,,,,,,,,,,,,P115,001,2025-02-19_11h50.36.437,posner_endo_new1,2024.2.4,60.016804704019236,2025-02-19 11h50.44.541352 +0000,
cube_r.png,0.1,0.31,valid,39,39,0,up,3.360892099997727,None,space,0.5239943999913521,None,,,,,0,39,39,39,,,,,792.212013500015,,,,,,,,,,,,,792.1962523999973,792.212013500015,792.212013500015,792.212013500015,795.5759728999983,,,,795.5817103000009,795.5932240000111,795.5932240000111,795.642060800019,795.6422808000061,795.6584929999954,795.6584929999954,795.6584929999954,795.7250498000067,796.1920802000095,,,,up,3.360892099997727,None,,,,,space,0.5239943999913521,None,,,,,,,,,,,,,,,P115,001,2025-02-19_11h50.36.437,posner_endo_new1,2024.2.4,60.016804704019236,2025-02-19 11h50.44.541352 +0000,
cube_l.png,0.1,0.31,invalid,40,40,0,up,3.1972342999943066,None,space,0.4443213999911677,None,,,,,0,40,40,40,,,,,796.2080325999996,,,,,,,,,,,,,796.1922477000044,796.2080325999996,796.2080325999996,796.2080325999996,799.4221480000124,,,,799.4279398000217,799.4393468000053,799.4393468000053,799.4876427999989,799.4880202000204,799.5040977000026,799.5040977000026,799.5040977000026,799.5873661000223,799.9549898999976,,,,up,3.1972342999943066,None,,,,,space,0.4443213999911677,None,,,,,,,,,,,,,,,P115,001,2025-02-19_11h50.36.437,posner_endo_new1,2024.2.4,60.016804704019236,2025-02-19 11h50.44.541352 +0000,
cube_l.png,0.1,10,catch,41,41,0,up,3.3701201000076253,None,None,,,,,,,0,41,41,41,,,,,799.9703049000236,,,,,,,,,,,,,799.9553134000162,799.9703049000236,799.9703049000236,799.9703049000236,803.351878800022,,,,803.3628998000058,803.3732646999997,803.3732646999997,803.4174309000082,803.417765500024,803.4339558000211,803.4339558000211,803.4339558000211,803.517244000017,806.431338800001,,,,up,3.3701201000076253,None,805.531692700024,806.4475593000243,806.4475593000243,806.4475593000243,None,,,,,,,,,,,,,,,,,P115,001,2025-02-19_11h50.36.437,posner_endo_new1,2024.2.4,60.016804704019236,2025-02-19 11h50.44.541352 +0000,
cube_l.png,0.1,-0.31,valid,42,42,0,up,0.037845300015760586,None,space,0.44501369999488816,None,,,,,0,42,42,42,,,,,806.4475593000243,,,,,,,,,,,,,806.4314950999978,806.4475593000243,806.4475593000243,806.4475593000243,806.4982123000082,,,,806.5043387000042,806.5161435000191,806.5161435000191,806.5641868000093,806.5644052000134,806.5808163000038,806.5808163000038,806.5808163000038,806.6472883000097,807.0311312999984,,,,up,0.037845300015760586,None,,,,,space,0.44501369999488816,None,,,,,,,,,,,,,,,P115,001,2025-02-19_11h50.36.437,posner_endo_new1,2024.2.4,60.016804704019236,2025-02-19 11h50.44.541352 +0000,
cube_l.png,0.1,10,catch,43,43,0,up,6.0455402999941725,None,None,,,,,,,0,43,43,43,,,,,807.0469389000209,,,,,,,,,,,,,807.0312991999963,807.0469389000209,807.0469389000209,807.0469389000209,813.1085928000102,,,,813.1196935000189,813.1300920000067,813.1300920000067,813.1739741000056,813.1742177999986,813.1904865000106,813.1904865000106,813.1904865000106,813.2738739000051,816.1879734999966,,,,up,6.0455402999941725,None,815.2881881000067,816.2042342000059,816.2042342000059,816.2042342000059,None,,,,,,,,,,,,,,,,,P115,001,2025-02-19_11h50.36.437,posner_endo_new1,2024.2.4,60.016804704019236,2025-02-19 11h50.44.541352 +0000,
cube_l.png,0.1,0.31,invalid,44,44,0,up,1.1046161999984179,None,space,0.5052407000039238,None,,,,,0,44,44,44,,,,,816.2042342000059,,,,,,,,,,,,,816.1881514000124,816.2042342000059,816.2042342000059,816.2042342000059,817.3204245000088,,,,817.32745110002,817.3395162000088,817.3395162000088,817.3863199000189,817.3868078000087,817.4027746000211,817.4027746000211,817.4027746000211,817.4859966000076,817.9206946000049,,,,up,1.1046161999984179,None,,,,,space,0.5052407000039238,None,,,,,,,,,,,,,,,P115,001,2025-02-19_11h50.36.437,posner_endo_new1,2024.2.4,60.016804704019236,2025-02-19 11h50.44.541352 +0000,
cube_l.png,0.1,0.31,invalid,45,45,0,up,2.517598500009626,None,space,0.549128800019389,None,,,,,0,45,45,45,,,,,817.9355537000229,,,,,,,,,,,,,817.9211368999968,817.9355537000229,817.9355537000229,817.9355537000229,820.4677964000148,,,,820.4788368000009,820.4891811000125,820.4891811000125,820.5332716999983,820.5336093000078,820.5497446000227,820.5497446000227,820.5497446000227,820.6330228000006,821.1006649000046,,,,up,2.517598500009626,None,,,,,space,0.549128800019389,None,,,,,,,,,,,,,,,P115,001,2025-02-19_11h50.36.437,posner_endo_new1,2024.2.4,60.016804704019236,2025-02-19 11h50.44.541352 +0000,
cube_r.png,0.1,0.31,valid,46,46,0,up,3.1373352000082377,None,space,0.555148100014776,None,,,,,0,46,46,46,,,,,821.1158739000093,,,,,,,,,,,,,821.1009486000112,821.1158739000093,821.1158739000093,821.1158739000093,824.2637956000108,,,,824.2748601000058,824.2852516999992,824.2852516999992,824.3295779000036,824.3299181000039,824.3458675000002,824.3458675000002,824.3458675000002,824.4290905000234,824.9131942999957,,,,up,3.1373352000082377,None,,,,,space,0.555148100014776,None,,,,,,,,,,,,,,,P115,001,2025-02-19_11h50.36.437,posner_endo_new1,2024.2.4,60.016804704019236,2025-02-19 11h50.44.541352 +0000,
cube_l.png,0.1,-0.31,valid,47,47,0,up,3.820574499986833,None,space,0.4586757000070065,None,,,,,0,47,47,47,,,,,824.928662100021,,,,,,,,,,,,,824.9134728000208,824.928662100021,824.928662100021,824.928662100021,828.7591624000052,,,,828.7701446000137,828.7805460999953,828.7805460999953,828.8248411999957,828.8251859000011,828.8414034000016,828.8414034000016,828.8414034000016,828.924500299996,829.3087760000199,,,,up,3.820574499986833,None,,,,,space,0.4586757000070065,None,,,,,,,,,,,,,,,P115,001,2025-02-19_11h50.36.437,posner_endo_new1,2024.2.4,60.016804704019236,2025-02-19 11h50.44.541352 +0000,
cube_r.png,0.1,-0.31,invalid,48,48,0,up,3.784980699972948,None,space,0.4952382000046782,None,,,,,0,48,48,48,,,,,829.3241686999972,,,,,,,,,,,,,829.309069400013,829.3241686999972,829.3241686999972,829.3241686999972,833.1214917000034,,,,833.1316624000028,833.1413328000053,833.1413328000053,833.1870645000017,833.187299400015,833.203522900003,833.203522900003,833.203522900003,833.2867793000187,833.7038012999983,,,,up,3.784980699972948,None,,,,,space,0.4952382000046782,None,,,,,,,,,,,,,,,P115,001,2025-02-19_11h50.36.437,posner_endo_new1,2024.2.4,60.016804704019236,2025-02-19 11h50.44.541352 +0000,
cube_r.png,0.1,10,catch,49,49,0,up,3.253644600015832,None,None,,,,,,,0,49,49,49,,,,,833.7196911000065,,,,,,,,,,,,,833.7039792000141,833.7196911000065,833.7196911000065,833.7196911000065,836.983701500023,,,,836.9903294999967,837.0020900999953,837.0020900999953,837.0496739000082,837.0498925000138,837.0663590000186,837.0663590000186,837.0663590000186,837.1331376000016,840.0637150999974,,,,up,3.253644600015832,None,839.1474241999967,840.0798355000152,840.0798355000152,840.0798355000152,None,,,,,,,,,,,,,,,,,P115,001,2025-02-19_11h50.36.437,posner_endo_new1,2024.2.4,60.016804704019236,2025-02-19 11h50.44.541352 +0000,
cube_l.png,0.1,-0.31,valid,50,50,0,up,None,None,space,0.5732269999862183,None,,,,,0,50,50,50,,,,,840.0798355000152,,,,,,,,,,,,,840.0638750000217,840.0798355000152,840.0798355000152,840.0798355000152,840.3136155999964,,,,840.319399,840.3308285000094,840.3308285000094,840.3796907000069,840.3799134000146,840.396223400021,840.396223400021,840.396223400021,840.462750000006,840.9795231000171,,,,up,None,None,,,,,space,0.5732269999862183,None,,,,,,,,,,,,,,,P115,001,2025-02-19_11h50.36.437,posner_endo_new1,2024.2.4,60.016804704019236,2025-02-19 11h50.44.541352 +0000,
cube_l.png,0.1,-0.31,valid,51,51,0,up,2.5696730999916326,None,space,0.5251138999883551,None,,,,,0,51,51,51,,,,,840.995636800013,,,,,,,,,,,,,840.9796998000238,840.995636800013,840.995636800013,840.995636800013,843.5770778000006,,,,843.582991400006,843.5946004000143,843.5946004000143,843.6428755000234,843.6433593000111,843.6592746000097,843.6592746000097,843.6592746000097,843.7428123000136,844.1934465000231,,,,up,2.5696730999916326,None,,,,,space,0.5251138999883551,None,,,,,,,,,,,,,,,P115,001,2025-02-19_11h50.36.437,posner_endo_new1,2024.2.4,60.016804704019236,2025-02-19 11h50.44.541352 +0000,
cube_r.png,0.1,-0.31,invalid,52,52,0,up,3.523951199982548,None,space,0.486629199993331,None,,,,,0,52,52,52,,,,,844.2089686999971,,,,,,,,,,,,,844.1937256000238,844.2089686999971,844.2089686999971,844.2089686999971,847.7398665000219,,,,847.75098110002,847.7612580000132,847.7612580000132,847.8054685000097,847.8058098000183,847.8220799000119,847.8220799000119,847.8220799000119,847.9052476000215,848.3226236000191,,,,up,3.523951199982548,None,,,,,space,0.486629199993331,None,,,,,,,,,,,,,,,P115,001,2025-02-19_11h50.36.437,posner_endo_new1,2024.2.4,60.016804704019236,2025-02-19 11h50.44.541352 +0000,
cube_l.png,0.1,-0.31,valid,53,53,0,up,2.3704162999929395,None,space,0.531975899997633,None,,,,,0,53,53,53,,,,,848.3380542000232,,,,,,,,,,,,,848.3229071999958,848.3380542000232,848.3380542000232,848.3380542000232,850.7200879000011,,,,850.731079899997,850.7413806999975,850.7413806999975,850.7858502000163,850.7861842999991,850.8021036999999,850.8021036999999,850.8021036999999,850.8855401000183,851.3361158000189,,,,up,2.3704162999929395,None,,,,,space,0.531975899997633,None,,,,,,,,,,,,,,,P115,001,2025-02-19_11h50.36.437,posner_endo_new1,2024.2.4,60.016804704019236,2025-02-19 11h50.44.541352 +0000,
cube_r.png,0.1,10,catch,54,54,0,up,3.164815099997213,None,None,,,,,,,0,54,54,54,,,,,851.3516971000063,,,,,,,,,,,,,851.336420800013,851.3516971000063,851.3516971000063,851.3516971000063,854.5328793000081,,,,854.5440334000159,854.5540813000116,854.5540813000116,854.5986201000051,854.5989561000024,854.6149204999965,854.6149204999965,854.6149204999965,854.6982621000207,857.6127192999993,,,,up,3.164815099997213,None,856.7128029000014,857.6286625000066,857.6286625000066,857.6286625000066,None,,,,,,,,,,,,,,,,,P115,001,2025-02-19_11h50.36.437,posner_endo_new1,2024.2.4,60.016804704019236,2025-02-19 11h50.44.541352 +0000,
cube_l.png,0.1,0.31,invalid,55,55,0,up,4.440037599997595,None,space,0.5782904999796301,None,,,,,0,55,55,55,,,,,857.6286625000066,,,,,,,,,,,,,857.612990900001,857.6286625000066,857.6286625000066,857.6286625000066,862.0751748000039,,,,862.0836299000075,862.0936716000142,862.0936716000142,862.140618800011,862.1408508000022,862.1573088000005,862.1573088000005,862.1573088000005,862.2405577000172,862.740870300011,,,,up,4.440037599997595,None,,,,,space,0.5782904999796301,None,,,,,,,,,,,,,,,P115,001,2025-02-19_11h50.36.437,posner_endo_new1,2024.2.4,60.016804704019236,2025-02-19 11h50.44.541352 +0000,
cube_l.png,0.1,-0.31,valid,56,56,0,up,5.592516800010344,None,space,0.6127846000017598,None,,,,,0,56,56,56,,,,,862.7566086000006,,,,,,,,,,,,,862.7410489000031,862.7566086000006,862.7566086000006,862.7566086000006,868.351916500018,,,,868.3585654000053,868.3704947000078,868.3704947000078,868.4176423000172,868.417878200009,868.4342178000079,868.4342178000079,868.4342178000079,868.5175266000151,869.0511334000039,,,,up,5.592516800010344,None,,,,,space,0.6127846000017598,None,,,,,,,,,,,,,,,P115,001,2025-02-19_11h50.36.437,posner_endo_new1,2024.2.4,60.016804704019236,2025-02-19 11h50.44.541352 +0000,
cube_r.png,0.1,0.31,valid,57,57,0,up,3.1781048999982886,None,space,0.556498299993109,None,,,,,0,57,57,57,,,,,869.0668917000003,,,,,,,,,,,,,869.0513118000235,869.0668917000003,869.0668917000003,869.0668917000003,872.2477680000011,,,,872.2544618000102,872.2663441000041,872.2663441000041,872.3136895000061,872.313925000024,872.3302449000184,872.3302449000184,872.3302449000184,872.3968734000227,872.8970655000012,,,,up,3.1781048999982886,None,,,,,space,0.556498299993109,None,,,,,,,,,,,,,,,P115,001,2025-02-19_11h50.36.437,posner_endo_new1,2024.2.4,60.016804704019236,2025-02-19 11h50.44.541352 +0000,
cube_r.png,0.1,-0.31,invalid,58,58,0,up,5.620097400009399,None,space,0.6970110999827739,None,,,,,0,58,58,58,,,,,872.9129780000076,,,,,,,,,,,,,872.8972444999963,872.9129780000076,872.9129780000076,872.9129780000076,878.5412046000129,,,,878.5479425000085,878.5600664000085,878.5600664000085,878.6072093000112,878.6077362000069,878.6236604000151,878.6236604000151,878.6236604000151,878.6902413000062,879.3241749000154,,,,up,5.620097400009399,None,,,,,space,0.6970110999827739,None,,,,,,,,,,,,,,,P115,001,2025-02-19_11h50.36.437,posner_endo_new1,2024.2.4,60.016804704019236,2025-02-19 11h50.44.541352 +0000,
cube_l.png,0.1,0.31,invalid,59,59,0,up,2.632783400011249,None,space,0.8760687000176404,None,,,,,0,59,59,59,,,,,879.3398367000045,,,,,,,,,,,,,879.3244510000222,879.3398367000045,879.3398367000045,879.3398367000045,881.9881734000228,,,,881.9992046999978,882.0096395,882.0096395,882.0536377000099,882.0539741000102,882.0703193000227,882.0703193000227,882.0703193000227,882.1535647000128,882.9537757000071,,,,up,2.632783400011249,None,,,,,space,0.8760687000176404,None,,,,,,,,,,,,,,,P115,001,2025-02-19_11h50.36.437,posner_endo_new1,2024.2.4,60.016804704019236,2025-02-19 11h50.44.541352 +0000,
,,,,,,,,,,,,,,,,,,,,,,,,,,,,,,,,,,,,,,,,,,,,,,,,,,,,,,,,,,,,,,,,,,,,,882.9539545000007,882.9693416000227,882.9693416000227,942.9745687000104,951.7665529000224,space,68.78732199998922,None,,,,,,,P115,001,2025-02-19_11h50.36.437,posner_endo_new1,2024.2.4,60.016804704019236,2025-02-19 11h50.44.541352 +0000,
,,,,,,,,,,,,,,,,,,,,,,,,,,,,,,,,,,951.7666162000096,951.7822044000204,954.7892575000005,954.7630691000086,,,,,,,,,,,,,,,,,,,,,,,,,,,,,,,,,,,,,,,,,,,,,,P115,001,2025-02-19_11h50.36.437,posner_endo_new1,2024.2.4,60.016804704019236,2025-02-19 11h50.44.541352 +0000,
cube_l.png,0.1,10,catch,0,0,0,down,7.416632000007667,None,None,,,,,,,,,,,0,0,0,0,954.7892575000005,,,,,,,,,,,,,954.780551600008,954.7892575000005,954.7892575000005,954.7892575000005,962.2228087999974,,,,962.2341704000137,962.2441817000217,962.2441817000217,962.2884395000001,962.2887969000149,962.3050066000142,962.3050066000142,962.3050066000142,962.3883250000072,965.302694300015,,,,,,,964.4027951000025,965.3185628000065,965.3185628000065,965.3185628000065,,,,,,,,,,,,down,7.416632000007667,None,None,,,P115,001,2025-02-19_11h50.36.437,posner_endo_new1,2024.2.4,60.016804704019236,2025-02-19 11h50.44.541352 +0000,
cube_l.png,0.1,10,catch,1,1,0,down,0.686682200001087,None,None,,,,,,,,,,,0,1,1,1,965.3185628000065,,,,,,,,,,,,,965.3029624000192,965.3185628000065,965.3185628000065,965.3185628000065,966.0191356000141,,,,966.0301886000088,966.0404417999962,966.0404417999962,966.0845658000035,966.0849045000214,966.1011194000021,966.1011194000021,966.1011194000021,966.184441200021,969.098722900002,,,,,,,968.1988901000004,969.1147560999962,969.1147560999962,969.1147560999962,,,,,,,,,,,,down,0.686682200001087,None,None,,,P115,001,2025-02-19_11h50.36.437,posner_endo_new1,2024.2.4,60.016804704019236,2025-02-19 11h50.44.541352 +0000,
cube_l.png,0.1,0.31,invalid,2,2,0,down,3.0103137000114657,None,space,0.42319150001276284,None,,,,,,,,,0,2,2,2,969.1147560999962,,,,,,,,,,,,,969.0989924000169,969.1147560999962,969.1147560999962,969.1147560999962,972.1296262000105,,,,972.1406775000214,972.1509536000085,972.1509536000085,972.1949818000139,972.1953162999998,972.2115867999964,972.2115867999964,972.2115867999964,972.2946788000118,972.6456142000097,,,,,,,,,,,,,,,,,,,,,,down,3.0103137000114657,None,space,0.42319150001276284,None,P115,001,2025-02-19_11h50.36.437,posner_endo_new1,2024.2.4,60.016804704019236,2025-02-19 11h50.44.541352 +0000,
cube_l.png,0.1,0.31,invalid,3,3,0,down,16.504507800011197,None,space,0.38271700000041164,None,,,,,,,,,0,3,3,3,972.6611424000002,,,,,,,,,,,,,972.6459089000127,972.6611424000002,972.6611424000002,972.6611424000002,989.1786604000081,,,,989.189740700007,989.2000387000153,989.2000387000153,989.2442808000196,989.2446224000014,989.2608082000224,989.2608082000224,989.2608082000224,989.3440316000197,989.6450655000226,,,,,,,,,,,,,,,,,,,,,,down,16.504507800011197,None,space,0.38271700000041164,None,P115,001,2025-02-19_11h50.36.437,posner_endo_new1,2024.2.4,60.016804704019236,2025-02-19 11h50.44.541352 +0000,
cube_l.png,0.1,-0.31,valid,4,4,0,down,9.992459300003247,None,space,0.29749670001911,None,,,,,,,,,0,4,4,4,989.6603506999963,,,,,,,,,,,,,989.6453565999982,989.6603506999963,989.6603506999963,989.6603506999963,999.6681324999954,,,,999.6792546000215,999.6896424000151,999.6896424000151,999.7335165000113,999.733859800006,999.7500755000219,999.7500755000219,999.7500755000219,999.8332487000152,1000.0509660000098,,,,,,,,,,,,,,,,,,,,,,down,9.992459300003247,None,space,0.29749670001911,None,P115,001,2025-02-19_11h50.36.437,posner_endo_new1,2024.2.4,60.016804704019236,2025-02-19 11h50.44.541352 +0000,
cube_r.png,0.1,-0.31,invalid,5,5,0,down,1.7635416999983136,None,space,0.3981457999907434,None,,,,,,,,,0,5,5,5,1000.0663326000213,,,,,,,,,,,,,1000.0512548999977,1000.0663326000213,1000.0663326000213,1000.0663326000213,1001.8324904000037,,,,1001.8434818000242,1001.8538765000121,1001.8538765000121,1001.8979238000175,1001.898257599998,1001.9144522999995,1001.9144522999995,1001.9144522999995,1001.9977604000014,1002.3152676000027,,,,,,,,,,,,,,,,,,,,,,down,1.7635416999983136,None,space,0.3981457999907434,None,P115,001,2025-02-19_11h50.36.437,posner_endo_new1,2024.2.4,60.016804704019236,2025-02-19 11h50.44.541352 +0000,
cube_r.png,0.1,0.31,valid,6,6,0,down,2.99549709999701,None,space,0.4800389999873005,None,,,,,,,,,0,6,6,6,1002.3308442000125,,,,,,,,,,,,,1002.3155657000025,1002.3308442000125,1002.3308442000125,1002.3308442000125,1005.329026499996,,,,1005.3400121000013,1005.3504134000104,1005.3504134000104,1005.394435299997,1005.394778100017,1005.4109753000084,1005.4109753000084,1005.4109753000084,1005.494220499997,1005.8950781000021,,,,,,,,,,,,,,,,,,,,,,down,2.99549709999701,None,space,0.4800389999873005,None,P115,001,2025-02-19_11h50.36.437,posner_endo_new1,2024.2.4,60.016804704019236,2025-02-19 11h50.44.541352 +0000,
cube_r.png,0.1,-0.31,invalid,7,7,0,down,3.0242661999945994,None,space,0.34349449997534975,None,,,,,,,,,0,7,7,7,1005.9103609000158,,,,,,,,,,,,,1005.8953639999963,1005.9103609000158,1005.9103609000158,1005.9103609000158,1008.9417809000006,,,,1008.9527595000109,1008.9631407000124,1008.9631407000124,1009.0074004000053,1009.0077447000076,1009.0239745000144,1009.0239745000144,1009.0239745000144,1009.10719900002,1009.3748430999985,,,,,,,,,,,,,,,,,,,,,,down,3.0242661999945994,None,space,0.34349449997534975,None,P115,001,2025-02-19_11h50.36.437,posner_endo_new1,2024.2.4,60.016804704019236,2025-02-19 11h50.44.541352 +0000,
cube_l.png,0.1,-0.31,valid,8,8,0,down,8.359249300003285,None,space,0.39775320002809167,None,,,,,,,,,0,8,8,8,1009.3901416000153,,,,,,,,,,,,,1009.3751319000148,1009.3901416000153,1009.3901416000153,1009.3901416000153,1017.7661363000225,,,,1017.7771825000236,1017.7871905000065,1017.7871905000065,1017.8317419000086,1017.8320780000067,1017.8483189000108,1017.8483189000108,1017.8483189000108,1017.9314409000217,1018.2490805000125,,,,,,,,,,,,,,,,,,,,,,down,8.359249300003285,None,space,0.39775320002809167,None,P115,001,2025-02-19_11h50.36.437,posner_endo_new1,2024.2.4,60.016804704019236,2025-02-19 11h50.44.541352 +0000,
cube_r.png,0.1,-0.31,invalid,9,9,0,down,5.180999300006079,None,space,0.3710080999881029,None,,,,,,,,,0,9,9,9,1018.2644977000018,,,,,,,,,,,,,1018.2493760000216,1018.2644977000018,1018.2644977000018,1018.2644977000018,1023.4602780000132,,,,1023.4714211999963,1023.4817364000191,1023.4817364000191,1023.5259166000178,1023.5262532000197,1023.5423436000128,1023.5423436000128,1023.5423436000128,1023.6257622000121,1023.9265103000216,,,,,,,,,,,,,,,,,,,,,,down,5.180999300006079,None,space,0.3710080999881029,None,P115,001,2025-02-19_11h50.36.437,posner_endo_new1,2024.2.4,60.016804704019236,2025-02-19 11h50.44.541352 +0000,
cube_l.png,0.1,0.31,invalid,10,10,0,down,1.1836758999852464,None,space,0.3732495000003837,None,,,,,,,,,0,10,10,10,1023.9419516000198,,,,,,,,,,,,,1023.9267991000088,1023.9419516000198,1023.9419516000198,1023.9419516000198,1025.141999900021,,,,1025.1531042999995,1025.1631861000205,1025.1631861000205,1025.2074702999962,1025.2078117000055,1025.2241084999987,1025.2241084999987,1025.2241084999987,1025.3072633999982,1025.6082101000065,,,,,,,,,,,,,,,,,,,,,,down,1.1836758999852464,None,space,0.3732495000003837,None,P115,001,2025-02-19_11h50.36.437,posner_endo_new1,2024.2.4,60.016804704019236,2025-02-19 11h50.44.541352 +0000,
cube_r.png,0.1,-0.31,invalid,11,11,0,down,9.93411470000865,None,space,0.44237279999651946,None,,,,,,,,,0,11,11,11,1025.6236817000026,,,,,,,,,,,,,1025.6085029000242,1025.6236817000026,1025.6236817000026,1025.6236817000026,1035.5648970000038,,,,1035.5738662000222,1035.5836889000202,1035.5836889000202,1035.6300013000146,1035.630245700013,1035.6466587000177,1035.6466587000177,1035.6466587000177,1035.72992100002,1036.097376300022,,,,,,,,,,,,,,,,,,,,,,down,9.93411470000865,None,space,0.44237279999651946,None,P115,001,2025-02-19_11h50.36.437,posner_endo_new1,2024.2.4,60.016804704019236,2025-02-19 11h50.44.541352 +0000,
cube_r.png,0.1,0.31,valid,12,12,0,down,1.5805876000085846,None,space,0.5358772000181489,None,,,,,,,,,0,12,12,12,1036.112894699996,,,,,,,,,,,,,1036.097570300015,1036.112894699996,1036.112894699996,1036.112894699996,1037.6954502000008,,,,1037.70251990002,1037.714222300012,1037.714222300012,1037.7613398999965,1037.7615833000164,1037.7777011000144,1037.7777011000144,1037.7777011000144,1037.8610361000174,1038.32815820002,,,,,,,,,,,,,,,,,,,,,,down,1.5805876000085846,None,space,0.5358772000181489,None,P115,001,2025-02-19_11h50.36.437,posner_endo_new1,2024.2.4,60.016804704019236,2025-02-19 11h50.44.541352 +0000,
cube_l.png,0.1,10,catch,13,13,0,down,11.013416700006928,None,None,,,,,,,,,,,0,13,13,13,1038.3439142999996,,,,,,,,,,,,,1038.3283521000121,1038.3439142999996,1038.3439142999996,1038.3439142999996,1049.3667891000223,,,,1049.3739264000033,1049.3857070000086,1049.3857070000086,1049.4326492999971,1049.4328924000147,1049.4491822000127,1049.4491822000127,1049.4491822000127,1049.5324580000015,1052.4467708000157,,,,,,,1051.5470617999963,1052.462758700014,1052.462758700014,1052.462758700014,,,,,,,,,,,,down,11.013416700006928,None,None,,,P115,001,2025-02-19_11h50.36.437,posner_endo_new1,2024.2.4,60.016804704019236,2025-02-19 11h50.44.541352 +0000,
cube_r.png,0.1,-0.31,invalid,14,14,0,down,6.494204299990088,None,space,0.33415599999716505,None,,,,,,,,,0,14,14,14,1052.462758700014,,,,,,,,,,,,,1052.4469622000179,1052.462758700014,1052.462758700014,1052.462758700014,1058.9736351000029,,,,1058.980694400001,1058.992440300004,1058.992440300004,1059.0396160999953,1059.0398393000069,1059.0560836000077,1059.0560836000077,1059.0560836000077,1059.1393257000018,1059.406478799996,,,,,,,,,,,,,,,,,,,,,,down,6.494204299990088,None,space,0.33415599999716505,None,P115,001,2025-02-19_11h50.36.437,posner_endo_new1,2024.2.4,60.016804704019236,2025-02-19 11h50.44.541352 +0000,
cube_l.png,0.1,-0.31,valid,15,15,0,down,2.063265100005083,None,space,0.4140393999987282,None,,,,,,,,,0,15,15,15,1059.4222143000225,,,,,,,,,,,,,1059.4066535000165,1059.4222143000225,1059.4222143000225,1059.4222143000225,1061.4878752000222,,,,1061.4936747000029,1061.5053584999987,1061.5053584999987,1061.5535837000061,1061.5538016000064,1061.5702308000182,1061.5702308000182,1061.5702308000182,1061.6533475000178,1061.987066200003,,,,,,,,,,,,,,,,,,,,,,down,2.063265100005083,None,space,0.4140393999987282,None,P115,001,2025-02-19_11h50.36.437,posner_endo_new1,2024.2.4,60.016804704019236,2025-02-19 11h50.44.541352 +0000,
cube_r.png,0.1,10,catch,16,16,0,down,1.6342504000058398,None,None,,,,,,,,,,,0,16,16,16,1062.003174100013,,,,,,,,,,,,,1061.9872388000076,1062.003174100013,1062.003174100013,1062.003174100013,1063.6521038000064,,,,1063.6578048000229,1063.669433300005,1063.669433300005,1063.7181214000157,1063.7183409999998,1063.7348172000202,1063.7348172000202,1063.7348172000202,1063.801312800002,1066.7321191000228,,,,,,,1065.8159226000134,1066.7483401000209,1066.7483401000209,1066.7483401000209,,,,,,,,,,,,down,1.6342504000058398,None,None,,,P115,001,2025-02-19_11h50.36.437,posner_endo_new1,2024.2.4,60.016804704019236,2025-02-19 11h50.44.541352 +0000,
cube_r.png,0.1,10,catch,17,17,0,down,1.3128675000043586,None,None,,,,,,,,,,,0,17,17,17,1066.7483401000209,,,,,,,,,,,,,1066.7322799999965,1066.7483401000209,1066.7483401000209,1066.7483401000209,1068.0642501999973,,,,1068.0699727000028,1068.0816154000058,1068.0816154000058,1068.1302760000108,1068.130497200007,1068.1467798000085,1068.1467798000085,1068.1467798000085,1068.2134051000176,1071.1442566000042,,,,,,,1070.2281464000116,1071.1604167000041,1071.1604167000041,1071.1604167000041,,,,,,,,,,,,down,1.3128675000043586,None,None,,,P115,001,2025-02-19_11h50.36.437,posner_endo_new1,2024.2.4,60.016804704019236,2025-02-19 11h50.44.541352 +0000,
cube_l.png,0.1,0.31,invalid,18,18,0,down,4.637299800000619,None,space,0.4485289999865927,None,,,,,,,,,0,18,18,18,1071.1604167000041,,,,,,,,,,,,,1071.1444152000186,1071.1604167000041,1071.1604167000041,1071.1604167000041,1075.8065205000166,,,,1075.8127061999985,1075.8245150000148,1075.8245150000148,1075.8721763000067,1075.8723981000076,1075.8889271000226,1075.8889271000226,1075.8889271000226,1075.9722027000098,1076.3392892999982,,,,,,,,,,,,,,,,,,,,,,down,4.637299800000619,None,space,0.4485289999865927,None,P115,001,2025-02-19_11h50.36.437,posner_endo_new1,2024.2.4,60.016804704019236,2025-02-19 11h50.44.541352 +0000,
cube_l.png,0.1,10,catch,19,19,0,down,2.6020969999954104,None,None,,,,,,,,,,,0,19,19,19,1076.3550053000217,,,,,,,,,,,,,1076.3394758000213,1076.3550053000217,1076.3550053000217,1076.3550053000217,1078.9698809999973,,,,1078.9756247000187,1078.9873082000122,1078.9873082000122,1079.0357634999964,1079.035984200018,1079.0523455000075,1079.0523455000075,1079.0523455000075,1079.1190953000041,1082.0496756000211,,,,,,,1081.1336071999976,1082.0658966000192,1082.0658966000192,1082.0658966000192,,,,,,,,,,,,down,2.6020969999954104,None,None,,,P115,001,2025-02-19_11h50.36.437,posner_endo_new1,2024.2.4,60.016804704019236,2025-02-19 11h50.44.541352 +0000,
cube_l.png,0.1,0.31,invalid,20,20,0,down,3.0111251000198536,None,space,0.36054130000411533,None,,,,,,,,,0,20,20,20,1082.0658966000192,,,,,,,,,,,,,1082.049840200023,1082.0658966000192,1082.0658966000192,1082.0658966000192,1085.0800865000056,,,,1085.0857921999996,1085.09766140001,1085.09766140001,1085.146174399997,1085.1463947000157,1085.1627190000145,1085.1627190000145,1085.1627190000145,1085.2293123000127,1085.5298335000116,,,,,,,,,,,,,,,,,,,,,,down,3.0111251000198536,None,space,0.36054130000411533,None,P115,001,2025-02-19_11h50.36.437,posner_endo_new1,2024.2.4,60.016804704019236,2025-02-19 11h50.44.541352 +0000,
cube_l.png,0.1,-0.31,valid,21,21,0,down,1.915595200000098,None,space,0.47829729999648407,None,,,,,,,,,0,21,21,21,1085.545662300021,,,,,,,,,,,,,1085.5300032000232,1085.545662300021,1085.545662300021,1085.545662300021,1087.4779845000012,,,,1087.483723500016,1087.4952541000093,1087.4952541000093,1087.5438205999963,1087.544040000008,1087.560360100004,1087.560360100004,1087.560360100004,1087.6270263000042,1088.0440318000037,,,,,,,,,,,,,,,,,,,,,,down,1.915595200000098,None,space,0.47829729999648407,None,P115,001,2025-02-19_11h50.36.437,posner_endo_new1,2024.2.4,60.016804704019236,2025-02-19 11h50.44.541352 +0000,
cube_r.png,0.1,0.31,valid,22,22,0,down,10.713323199976003,None,space,0.44533550000051036,None,,,,,,,,,0,22,22,22,1088.0598268000176,,,,,,,,,,,,,1088.044202500023,1088.0598268000176,1088.0598268000176,1088.0598268000176,1098.782865200017,,,,1098.7887267000042,1098.8004633000237,1098.8004633000237,1098.8488063999976,1098.8492914000235,1098.8652159000048,1098.8652159000048,1098.8652159000048,1098.9484615999972,1099.3166847999964,,,,,,,,,,,,,,,,,,,,,,down,10.713323199976003,None,space,0.44533550000051036,None,P115,001,2025-02-19_11h50.36.437,posner_endo_new1,2024.2.4,60.016804704019236,2025-02-19 11h50.44.541352 +0000,
cube_r.png,0.1,-0.31,invalid,23,23,0,down,2.5223111999803223,None,space,0.4639827999926638,None,,,,,,,,,0,23,23,23,1099.331425100012,,,,,,,,,,,,,1099.3171375000093,1099.331425100012,1099.331425100012,1099.331425100012,1101.8635734000127,,,,1101.872914800013,1101.882737900014,1101.882737900014,1101.928954700008,1101.9292036000115,1101.9456370999978,1101.9456370999978,1101.9456370999978,1102.0288561000198,1102.412527700013,,,,,,,,,,,,,,,,,,,,,,down,2.5223111999803223,None,space,0.4639827999926638,None,P115,001,2025-02-19_11h50.36.437,posner_endo_new1,2024.2.4,60.016804704019236,2025-02-19 11h50.44.541352 +0000,
cube_r.png,0.1,0.31,valid,24,24,0,down,2.081196800019825,None,space,0.4416746999777388,None,,,,,,,,,0,24,24,24,1102.428448200022,,,,,,,,,,,,,1102.4127226000128,1102.428448200022,1102.428448200022,1102.428448200022,1104.5106755000015,,,,1104.5176890000002,1104.5293765999959,1104.5293765999959,1104.576294700004,1104.5767864000227,1104.592705100018,1104.592705100018,1104.592705100018,1104.6759287000168,1105.0436808000086,,,,,,,,,,,,,,,,,,,,,,down,2.081196800019825,None,space,0.4416746999777388,None,P115,001,2025-02-19_11h50.36.437,posner_endo_new1,2024.2.4,60.016804704019236,2025-02-19 11h50.44.541352 +0000,
cube_r.png,0.1,-0.31,invalid,25,25,0,down,5.6508669999893755,None,space,0.44637810002313927,None,,,,,,,,,0,25,25,25,1105.05909960001,,,,,,,,,,,,,1105.043970300001,1105.05909960001,1105.05909960001,1105.05909960001,1110.7209807000181,,,,1110.732092899998,1110.7423800000106,1110.7423800000106,1110.786723199999,1110.7870642000053,1110.8032987000188,1110.8032987000188,1110.8032987000188,1110.8864658999955,1111.254233100015,,,,,,,,,,,,,,,,,,,,,,down,5.6508669999893755,None,space,0.44637810002313927,None,P115,001,2025-02-19_11h50.36.437,posner_endo_new1,2024.2.4,60.016804704019236,2025-02-19 11h50.44.541352 +0000,
cube_l.png,0.1,-0.31,valid,26,26,0,down,10.343651700008195,None,space,0.40113060001749545,None,,,,,,,,,0,26,26,26,1111.2694878000184,,,,,,,,,,,,,1111.254527800018,1111.2694878000184,1111.2694878000184,1111.2694878000184,1121.6266529000131,,,,1121.6378488000191,1121.6482214000134,1121.6482214000134,1121.6922661999997,1121.6926036000077,1121.7087707000028,1121.7087707000028,1121.7087707000028,1121.7919416000077,1122.1266391999961,,,,,,,,,,,,,,,,,,,,,,down,10.343651700008195,None,space,0.40113060001749545,None,P115,001,2025-02-19_11h50.36.437,posner_endo_new1,2024.2.4,60.016804704019236,2025-02-19 11h50.44.541352 +0000,
cube_r.png,0.1,0.31,valid,27,27,0,down,1.880633199994918,None,space,0.3935650000057649,None,,,,,,,,,0,27,27,27,1122.1415946000197,,,,,,,,,,,,,1122.1269320000138,1122.1415946000197,1122.1415946000197,1122.1415946000197,1124.0244473000057,,,,1124.0355564000201,1124.0458874000178,1124.0458874000178,1124.0898695000215,1124.0902103999979,1124.1064197000233,1124.1064197000233,1124.1064197000233,1124.1896319000225,1124.5069988000032,,,,,,,,,,,,,,,,,,,,,,down,1.880633199994918,None,space,0.3935650000057649,None,P115,001,2025-02-19_11h50.36.437,posner_endo_new1,2024.2.4,60.016804704019236,2025-02-19 11h50.44.541352 +0000,
cube_r.png,0.1,10,catch,28,28,0,down,3.8348326999985147,None,None,,,,,,,,,,,0,28,28,28,1124.5225594000076,,,,,,,,,,,,,1124.507284899999,1124.5225594000076,1124.5225594000076,1124.5225594000076,1128.3693742000032,,,,1128.37641170001,1128.3881034000078,1128.3881034000078,1128.435249000002,1128.4354912000126,1128.4517713000241,1128.4517713000241,1128.4517713000241,1128.5351380000066,1131.4492683999997,,,,,,,1130.5496561000182,1131.465365000011,1131.465365000011,1131.465365000011,,,,,,,,,,,,down,3.8348326999985147,None,None,,,P115,001,2025-02-19_11h50.36.437,posner_endo_new1,2024.2.4,60.016804704019236,2025-02-19 11h50.44.541352 +0000,
cube_r.png,0.1,0.31,valid,29,29,0,down,8.60438589999103,None,space,0.4358996999799274,None,,,,,,,,,0,29,29,29,1131.465365000011,,,,,,,,,,,,,1131.4494570000097,1131.465365000011,1131.465365000011,1131.465365000011,1140.0741469000059,,,,1140.0812691000174,1140.0930372000148,1140.0930372000148,1140.140020699997,1140.1402729999973,1140.156587800011,1140.156587800011,1140.156587800011,1140.239784800011,1140.6070020000043,,,,,,,,,,,,,,,,,,,,,,down,8.60438589999103,None,space,0.4358996999799274,None,P115,001,2025-02-19_11h50.36.437,posner_endo_new1,2024.2.4,60.016804704019236,2025-02-19 11h50.44.541352 +0000,
cube_r.png,0.1,0.31,valid,30,30,0,down,2.0551992999971844,None,space,0.42991340000298806,None,,,,,,,,,0,30,30,30,1140.622710800002,,,,,,,,,,,,,1140.6071970000048,1140.622710800002,1140.622710800002,1140.622710800002,1142.6880672000116,,,,1142.6951450000051,1142.7068904000043,1142.7068904000043,1142.753993899998,1142.7542400000093,1142.7704869000008,1142.7704869000008,1142.7704869000008,1142.837183800002,1143.20424370002,,,,,,,,,,,,,,,,,,,,,,down,2.0551992999971844,None,space,0.42991340000298806,None,P115,001,2025-02-19_11h50.36.437,posner_endo_new1,2024.2.4,60.016804704019236,2025-02-19 11h50.44.541352 +0000,
cube_l.png,0.1,-0.31,valid,31,31,0,down,4.145938600006048,None,space,0.3609117000014521,None,,,,,,,,,0,31,31,31,1143.2200653000036,,,,,,,,,,,,,1143.2044430000242,1143.2200653000036,1143.2200653000036,1143.2200653000036,1147.3668036000163,,,,1147.373879300023,1147.3854910000227,1147.3854910000227,1147.4325103000156,1147.4327543000109,1147.449248400022,1147.449248400022,1147.449248400022,1147.532406400016,1147.8162478000158,,,,,,,,,,,,,,,,,,,,,,down,4.145938600006048,None,space,0.3609117000014521,None,P115,001,2025-02-19_11h50.36.437,posner_endo_new1,2024.2.4,60.016804704019236,2025-02-19 11h50.44.541352 +0000,
cube_r.png,0.1,0.31,valid,32,32,0,down,1.7408831999928225,None,space,0.48897360000410117,None,,,,,,,,,0,32,32,32,1147.8320762000221,,,,,,,,,,,,,1147.8164534000098,1147.8320762000221,1147.8320762000221,1147.8320762000221,1149.5811645000067,,,,1149.5882589000103,1149.600048000022,1149.600048000022,1149.6469559000107,1149.6471997000044,1149.66362940002,1149.66362940002,1149.66362940002,1149.7300192000112,1150.1637334999978,,,,,,,,,,,,,,,,,,,,,,down,1.7408831999928225,None,space,0.48897360000410117,None,P115,001,2025-02-19_11h50.36.437,posner_endo_new1,2024.2.4,60.016804704019236,2025-02-19 11h50.44.541352 +0000,
cube_r.png,0.1,-0.31,invalid,33,33,0,down,2.6019513999926858,None,space,0.5266486999753397,None,,,,,,,,,0,33,33,33,1150.179699900007,,,,,,,,,,,,,1150.163929900009,1150.179699900007,1150.179699900007,1150.179699900007,1152.7944803000137,,,,1152.8015280000109,1152.8132363000186,1152.8132363000186,1152.860521399998,1152.8607653000217,1152.876954300009,1152.876954300009,1152.876954300009,1152.9599907000083,1153.4104721000185,,,,,,,,,,,,,,,,,,,,,,down,2.6019513999926858,None,space,0.5266486999753397,None,P115,001,2025-02-19_11h50.36.437,posner_endo_new1,2024.2.4,60.016804704019236,2025-02-19 11h50.44.541352 +0000,
cube_r.png,0.1,10,catch,34,34,0,down,5.283203700004378,None,None,,,,,,,,,,,0,34,34,34,1153.4263378000178,,,,,,,,,,,,,1153.4106708000181,1153.4263378000178,1153.4263378000178,1153.4263378000178,1158.7216552000027,,,,1158.7288169999956,1158.740533300006,1158.740533300006,1158.7876932000217,1158.7879433000053,1158.804242800019,1158.804242800019,1158.804242800019,1158.8705211000051,1161.801626600005,,,,,,,1160.8854242000089,1161.81777720002,1161.81777720002,1161.81777720002,,,,,,,,,,,,down,5.283203700004378,None,None,,,P115,001,2025-02-19_11h50.36.437,posner_endo_new1,2024.2.4,60.016804704019236,2025-02-19 11h50.44.541352 +0000,
cube_r.png,0.1,0.31,valid,35,35,0,down,6.404424299980747,None,space,0.3770573000074364,None,,,,,,,,,0,35,35,35,1161.81777720002,,,,,,,,,,,,,1161.8018146000104,1161.81777720002,1161.81777720002,1161.81777720002,1168.228773800016,,,,1168.235873800004,1168.247637100023,1168.247637100023,1168.2946477000078,1168.2951996000193,1168.3110519000038,1168.3110519000038,1168.3110519000038,1168.3942722000065,1168.6960219000175,,,,,,,,,,,,,,,,,,,,,,down,6.404424299980747,None,space,0.3770573000074364,None,P115,001,2025-02-19_11h50.36.437,posner_endo_new1,2024.2.4,60.016804704019236,2025-02-19 11h50.44.541352 +0000,
cube_r.png,0.1,-0.31,invalid,36,36,0,down,5.119460299989441,None,space,0.47669959999620914,None,,,,,,,,,0,36,36,36,1168.7106235999963,,,,,,,,,,,,,1168.6964931999973,1168.7106235999963,1168.7106235999963,1168.7106235999963,1173.8400575999985,,,,1173.8512023000221,1173.8616126000124,1173.8616126000124,1173.9056190999981,1173.9059601000044,1173.9221542000014,1173.9221542000014,1173.9221542000014,1174.005330200016,1174.4060176000057,,,,,,,,,,,,,,,,,,,,,,down,5.119460299989441,None,space,0.47669959999620914,None,P115,001,2025-02-19_11h50.36.437,posner_endo_new1,2024.2.4,60.016804704019236,2025-02-19 11h50.44.541352 +0000,
cube_l.png,0.1,0.31,invalid,37,37,0,down,8.48005800001556,None,space,0.42117010001675226,None,,,,,,,,,0,37,37,37,1174.4216463000048,,,,,,,,,,,,,1174.4063077000028,1174.4216463000048,1174.4216463000048,1174.4216463000048,1182.9142100000172,,,,1182.9254062999971,1182.9357089000114,1182.9357089000114,1182.9796896000043,1182.9800285000238,1182.9962414000183,1182.9962414000183,1182.9962414000183,1183.0795113000204,1183.4303367999964,,,,,,,,,,,,,,,,,,,,,,down,8.48005800001556,None,space,0.42117010001675226,None,P115,001,2025-02-19_11h50.36.437,posner_endo_new1,2024.2.4,60.016804704019236,2025-02-19 11h50.44.541352 +0000,
cube_l.png,0.1,0.31,invalid,38,38,0,down,2.439589000015985,None,space,0.4423411999887321,None,,,,,,,,,0,38,38,38,1183.4457170000242,,,,,,,,,,,,,1183.43063290001,1183.4457170000242,1183.4457170000242,1183.4457170000242,1185.894272000005,,,,1185.9028644000064,1185.912814500014,1185.912814500014,1185.9598817000224,1185.9601137000136,1185.976326700009,1185.976326700009,1185.976326700009,1186.059645100002,1186.4267789000005,,,,,,,,,,,,,,,,,,,,,,down,2.439589000015985,None,space,0.4423411999887321,None,P115,001,2025-02-19_11h50.36.437,posner_endo_new1,2024.2.4,60.016804704019236,2025-02-19 11h50.44.541352 +0000,
cube_r.png,0.1,0.31,valid,39,39,0,down,2.8666438999935053,None,space,0.4507351999927778,None,,,,,,,,,0,39,39,39,1186.442643700022,,,,,,,,,,,,,1186.4269623,1186.442643700022,1186.442643700022,1186.442643700022,1189.3236608000007,,,,1189.3295304000203,1189.3411835000152,1189.3411835000152,1189.3897330000182,1189.3899523,1189.4063940000196,1189.4063940000196,1189.4063940000196,1189.4728288000042,1189.873118700023,,,,,,,,,,,,,,,,,,,,,,down,2.8666438999935053,None,space,0.4507351999927778,None,P115,001,2025-02-19_11h50.36.437,posner_endo_new1,2024.2.4,60.016804704019236,2025-02-19 11h50.44.541352 +0000,
cube_l.png,0.1,0.31,invalid,40,40,0,down,2.3481129000138026,None,space,0.3825590999913402,None,,,,,,,,,0,40,40,40,1189.8890980000142,,,,,,,,,,,,,1189.8732887000078,1189.8890980000142,1189.8890980000142,1189.8890980000142,1192.25411910002,,,,1192.2602851999982,1192.2719055000052,1192.2719055000052,1192.3200291999965,1192.3202472999983,1192.3367061000026,1192.3367061000026,1192.3367061000026,1192.4031817000068,1192.720451000001,,,,,,,,,,,,,,,,,,,,,,down,2.3481129000138026,None,space,0.3825590999913402,None,P115,001,2025-02-19_11h50.36.437,posner_endo_new1,2024.2.4,60.016804704019236,2025-02-19 11h50.44.541352 +0000,
cube_l.png,0.1,10,catch,41,41,0,down,10.212754299980588,None,None,,,,,,,,,,,0,41,41,41,1192.7363064000092,,,,,,,,,,,,,1192.7206265999994,1192.7363064000092,1192.7363064000092,1192.7363064000092,1202.959792300011,,,,1202.9667835000146,1202.9780975000176,1202.9780975000176,1203.025638400024,1203.0261494000151,1203.0421239999996,1203.0421239999996,1203.0421239999996,1203.1253362999996,1206.039986400021,,,,,,,1205.1401717000117,1206.0559845000098,1206.0559845000098,1206.0559845000098,,,,,,,,,,,,down,10.212754299980588,None,None,,,P115,001,2025-02-19_11h50.36.437,posner_endo_new1,2024.2.4,60.016804704019236,2025-02-19 11h50.44.541352 +0000,
cube_l.png,0.1,-0.31,valid,42,42,0,down,1.7331112999818288,None,space,0.44347840000409633,None,,,,,,,,,0,42,42,42,1206.0559845000098,,,,,,,,,,,,,1206.04025250001,1206.0559845000098,1206.0559845000098,1206.0559845000098,1207.8052828000218,,,,1207.8166237999976,1207.8270851999987,1207.8270851999987,1207.8709168000205,1207.8712592000084,1207.8874481999956,1207.8874481999956,1207.8874481999956,1207.970613500016,1208.338295499998,,,,,,,,,,,,,,,,,,,,,,down,1.7331112999818288,None,space,0.44347840000409633,None,P115,001,2025-02-19_11h50.36.437,posner_endo_new1,2024.2.4,60.016804704019236,2025-02-19 11h50.44.541352 +0000,
cube_l.png,0.1,10,catch,43,43,0,down,1.1557459000032395,None,None,,,,,,,,,,,0,43,43,43,1208.353571500018,,,,,,,,,,,,,1208.3385818000243,1208.353571500018,1208.353571500018,1208.353571500018,1209.5202524000197,,,,1209.5316883000196,1209.5420004000189,1209.5420004000189,1209.585865000001,1209.5862037000188,1209.6023386000015,1209.6023386000015,1209.6023386000015,1209.6855347000237,1212.6000351000112,,,,,,,1211.700142400019,1212.6158241000085,1212.6158241000085,1212.6158241000085,,,,,,,,,,,,down,1.1557459000032395,None,None,,,P115,001,2025-02-19_11h50.36.437,posner_endo_new1,2024.2.4,60.016804704019236,2025-02-19 11h50.44.541352 +0000,
cube_l.png,0.1,0.31,invalid,44,44,0,down,2.2457398000115063,None,space,0.3745395999867469,None,,,,,,,,,0,44,44,44,1212.6158241000085,,,,,,,,,,,,,1212.6003129000019,1212.6158241000085,1212.6158241000085,1212.6158241000085,1214.864330500015,,,,1214.8702039000054,1214.8819814000162,1214.8819814000162,1214.9304314000183,1214.9306522000115,1214.9468446999963,1214.9468446999963,1214.9468446999963,1215.0133486000123,1215.3304600999982,,,,,,,,,,,,,,,,,,,,,,down,2.2457398000115063,None,space,0.3745395999867469,None,P115,001,2025-02-19_11h50.36.437,posner_endo_new1,2024.2.4,60.016804704019236,2025-02-19 11h50.44.541352 +0000,
cube_l.png,0.1,0.31,invalid,45,45,0,down,1.9637078999949154,None,space,0.9872095999890007,None,,,,,,,,,0,45,45,45,1215.346483900008,,,,,,,,,,,,,1215.330633000005,1215.346483900008,1215.346483900008,1215.346483900008,1217.3119148999976,,,,1217.3177990000113,1217.3294727000175,1217.3294727000175,1217.3775245000143,1217.377947400004,1217.3939440000104,1217.3939440000104,1217.3939440000104,1217.4772048000013,1218.3942974999954,,,,,,,,,,,,,,,,,,,,,,down,1.9637078999949154,None,space,0.9872095999890007,None,P115,001,2025-02-19_11h50.36.437,posner_endo_new1,2024.2.4,60.016804704019236,2025-02-19 11h50.44.541352 +0000,
cube_r.png,0.1,0.31,valid,46,46,0,down,8.539946399978362,None,space,0.4326158000039868,None,,,,,,,,,0,46,46,46,1218.4099915999977,,,,,,,,,,,,,1218.3945484000142,1218.4099915999977,1218.4099915999977,1218.4099915999977,1226.9520503999956,,,,1226.958075500006,1226.9699165000056,1226.9699165000056,1227.0178917000012,1227.0181153000158,1227.0344602999976,1227.0344602999976,1227.0344602999976,1227.1178199000133,1227.4681955999986,,,,,,,,,,,,,,,,,,,,,,down,8.539946399978362,None,space,0.4326158000039868,None,P115,001,2025-02-19_11h50.36.437,posner_endo_new1,2024.2.4,60.016804704019236,2025-02-19 11h50.44.541352 +0000,
cube_l.png,0.1,-0.31,valid,47,47,0,down,2.3131168999825604,None,space,0.48278900000150315,None,,,,,,,,,0,47,47,47,1227.484077800007,,,,,,,,,,,,,1227.4683740000182,1227.484077800007,1227.484077800007,1227.484077800007,1229.7990897000127,,,,1229.805021600012,1229.8169727000059,1229.8169727000059,1229.865183900023,1229.8654046000156,1229.881526800018,1229.881526800018,1229.881526800018,1229.948082500021,1230.3653509000142,,,,,,,,,,,,,,,,,,,,,,down,2.3131168999825604,None,space,0.48278900000150315,None,P115,001,2025-02-19_11h50.36.437,posner_endo_new1,2024.2.4,60.016804704019236,2025-02-19 11h50.44.541352 +0000,
cube_r.png,0.1,-0.31,invalid,48,48,0,down,2.6406316999928094,None,space,0.36877189998631366,None,,,,,,,,,0,48,48,48,1230.381121000013,,,,,,,,,,,,,1230.3655270000163,1230.381121000013,1230.381121000013,1230.381121000013,1233.0291015999974,,,,1233.0350467000098,1233.0468753000023,1233.0468753000023,1233.0951535000058,1233.0953746000014,1233.111638100003,1233.111638100003,1233.111638100003,1233.1780066000065,1233.495268300001,,,,,,,,,,,,,,,,,,,,,,down,2.6406316999928094,None,space,0.36877189998631366,None,P115,001,2025-02-19_11h50.36.437,posner_endo_new1,2024.2.4,60.016804704019236,2025-02-19 11h50.44.541352 +0000,
cube_r.png,0.1,10,catch,49,49,0,down,3.0709370999829844,None,None,,,,,,,,,,,0,49,49,49,1233.5111844000057,,,,,,,,,,,,,1233.4954369000043,1233.5111844000057,1233.5111844000057,1233.5111844000057,1236.592584099999,,,,1236.602606600005,1236.6123950000037,1236.6123950000037,1236.658090300014,1236.6583369,1236.674513200007,1236.674513200007,1236.674513200007,1236.7577265000145,1239.6719469999953,,,,,,,1238.7723349000153,1239.6882389000093,1239.6882389000093,1239.6882389000093,,,,,,,,,,,,down,3.0709370999829844,None,None,,,P115,001,2025-02-19_11h50.36.437,posner_endo_new1,2024.2.4,60.016804704019236,2025-02-19 11h50.44.541352 +0000,
cube_l.png,0.1,-0.31,valid,50,50,0,down,3.2937669999955688,None,space,0.3368297000124585,None,,,,,,,,,0,50,50,50,1239.6882389000093,,,,,,,,,,,,,1239.672131600004,1239.6882389000093,1239.6882389000093,1239.6882389000093,1242.985700500023,,,,1242.9930121000216,1243.0045454000065,1243.0045454000065,1243.051615400007,1243.0518578000192,1243.0680098000157,1243.0680098000157,1243.0680098000157,1243.1513122000033,1243.4185034999973,,,,,,,,,,,,,,,,,,,,,,down,3.2937669999955688,None,space,0.3368297000124585,None,P115,001,2025-02-19_11h50.36.437,posner_endo_new1,2024.2.4,60.016804704019236,2025-02-19 11h50.44.541352 +0000,
cube_l.png,0.1,-0.31,valid,51,51,0,down,10.379871100012679,None,space,0.43828520001261495,None,,,,,,,,,0,51,51,51,1243.4342510999995,,,,,,,,,,,,,1243.418697200017,1243.4342510999995,1243.4342510999995,1243.4342510999995,1253.8246614999953,,,,1253.832103599998,1253.8434344000125,1253.8434344000125,1253.8905414000037,1253.891088400007,1253.9069316000096,1253.9069316000096,1253.9069316000096,1253.9901320000063,1254.3583175000094,,,,,,,,,,,,,,,,,,,,,,down,10.379871100012679,None,space,0.43828520001261495,None,P115,001,2025-02-19_11h50.36.437,posner_endo_new1,2024.2.4,60.016804704019236,2025-02-19 11h50.44.541352 +0000,
cube_r.png,0.1,-0.31,invalid,52,52,0,down,1.8481108999985736,None,space,0.41730099997948855,None,,,,,,,,,0,52,52,52,1254.3731250000128,,,,,,,,,,,,,1254.3587896999961,1254.3731250000128,1254.3731250000128,1254.3731250000128,1256.2227196000167,,,,1256.234101900016,1256.2444132000091,1256.2444132000091,1256.2881011000136,1256.2884470999998,1256.3045982000185,1256.3045982000185,1256.3045982000185,1256.3878398000088,1256.738743599999,,,,,,,,,,,,,,,,,,,,,,down,1.8481108999985736,None,space,0.41730099997948855,None,P115,001,2025-02-19_11h50.36.437,posner_endo_new1,2024.2.4,60.016804704019236,2025-02-19 11h50.44.541352 +0000,
cube_l.png,0.1,-0.31,valid,53,53,0,down,5.251959599991096,None,space,0.3652732000045944,None,,,,,,,,,0,53,53,53,1256.7541524000117,,,,,,,,,,,,,1256.739040800021,1256.7541524000117,1256.7541524000117,1256.7541524000117,1262.0159822000132,,,,1262.0218864000053,1262.0336765999964,1262.0336765999964,1262.0821891000087,1262.0824098000012,1262.0986497999984,1262.0986497999984,1262.0986497999984,1262.1651630999986,1262.4656951000215,,,,,,,,,,,,,,,,,,,,,,down,5.251959599991096,None,space,0.3652732000045944,None,P115,001,2025-02-19_11h50.36.437,posner_endo_new1,2024.2.4,60.016804704019236,2025-02-19 11h50.44.541352 +0000,
cube_r.png,0.1,10,catch,54,54,0,down,5.564281700004358,None,None,,,,,,,,,,,0,54,54,54,1262.4816058000142,,,,,,,,,,,,,1262.4658663000155,1262.4816058000142,1262.4816058000142,1262.4816058000142,1268.060019299999,,,,1268.0659132,1268.0776533000171,1268.0776533000171,1268.1263053000148,1268.1265309000155,1268.142449100007,1268.142449100007,1268.142449100007,1268.2091935000208,1271.140020699997,,,,,,,1270.2237225999997,1271.1560210000025,1271.1560210000025,1271.1560210000025,,,,,,,,,,,,down,5.564281700004358,None,None,,,P115,001,2025-02-19_11h50.36.437,posner_endo_new1,2024.2.4,60.016804704019236,2025-02-19 11h50.44.541352 +0000,
cube_l.png,0.1,0.31,invalid,55,55,0,down,2.4984650000114925,None,space,0.447413099987898,None,,,,,,,,,0,55,55,55,1271.1560210000025,,,,,,,,,,,,,1271.1401793000114,1271.1560210000025,1271.1560210000025,1271.1560210000025,1273.6708967000013,,,,1273.6769131000037,1273.6879364000051,1273.6879364000051,1273.7367784000235,1273.7372681999987,1273.7532299000013,1273.7532299000013,1273.7532299000013,1273.836464300024,1274.2042994000076,,,,,,,,,,,,,,,,,,,,,,down,2.4984650000114925,None,space,0.447413099987898,None,P115,001,2025-02-19_11h50.36.437,posner_endo_new1,2024.2.4,60.016804704019236,2025-02-19 11h50.44.541352 +0000,
cube_l.png,0.1,-0.31,valid,56,56,0,down,1.8900699999940116,None,space,0.4943677000119351,None,,,,,,,,,0,56,56,56,1274.2196492000076,,,,,,,,,,,,,1274.2045920000237,1274.2196492000076,1274.2196492000076,1274.2196492000076,1276.1186780999997,,,,1276.1299179000198,1276.140404900012,1276.140404900012,1276.1845410000242,1276.184882600006,1276.2009877000237,1276.2009877000237,1276.2009877000237,1276.2841726000188,1276.701622499997,,,,,,,,,,,,,,,,,,,,,,down,1.8900699999940116,None,space,0.4943677000119351,None,P115,001,2025-02-19_11h50.36.437,posner_endo_new1,2024.2.4,60.016804704019236,2025-02-19 11h50.44.541352 +0000,
cube_r.png,0.1,0.31,valid,57,57,0,down,1.8892035000026226,None,space,0.31655830002273433,None,,,,,,,,,0,57,57,57,1276.7170752999955,,,,,,,,,,,,,1276.7019097000011,1276.7170752999955,1276.7170752999955,1276.7170752999955,1278.6163029000163,,,,1278.6274653,1278.6378419999965,1278.6378419999965,1278.681914900022,1278.682159100019,1278.6982086000207,1278.6982086000207,1278.6982086000207,1278.7815450000053,1279.015773000021,,,,,,,,,,,,,,,,,,,,,,down,1.8892035000026226,None,space,0.31655830002273433,None,P115,001,2025-02-19_11h50.36.437,posner_endo_new1,2024.2.4,60.016804704019236,2025-02-19 11h50.44.541352 +0000,
cube_r.png,0.1,-0.31,invalid,58,58,0,down,1.6383153999922797,None,space,0.4052380999783054,None,,,,,,,,,0,58,58,58,1279.0312972000102,,,,,,,,,,,,,1279.0159683000238,1279.0312972000102,1279.0312972000102,1279.0312972000102,1280.6805462000193,,,,1280.6877228000085,1280.699514900014,1280.699514900014,1280.7463525000203,1280.7466030000069,1280.7622751000163,1280.7622751000163,1280.7622751000163,1280.8462070999958,1281.1799807000207,,,,,,,,,,,,,,,,,,,,,,down,1.6383153999922797,None,space,0.4052380999783054,None,P115,001,2025-02-19_11h50.36.437,posner_endo_new1,2024.2.4,60.016804704019236,2025-02-19 11h50.44.541352 +0000,
cube_l.png,0.1,0.31,invalid,59,59,0,down,7.386098800023319,None,space,0.4326889000076335,None,,,,,,,,,0,59,59,59,1281.1959160999977,,,,,,,,,,,,,1281.1801755000197,1281.1959160999977,1281.1959160999977,1281.1959160999977,1288.5891350000165,,,,1288.596342600009,1288.6078225999954,1288.6078225999954,1288.6550375000224,1288.6552833000023,1288.671571200015,1288.671571200015,1288.671571200015,1288.7547760000161,1289.1053649999958,,,,,,,,,,,,,,,,,,,,,,down,7.386098800023319,None,space,0.4326889000076335,None,P115,001,2025-02-19_11h50.36.437,posner_endo_new1,2024.2.4,60.016804704019236,2025-02-19 11h50.44.541352 +0000,
