cue_img,cue_soa,target_x,trial,thisN,thisTrialN,thisRepN,key_control2.keys,key_control2.rt,key_control2.duration,key_resp.keys,key_resp.rt,key_resp.duration,practice.thisRepN,practice.thisTrialN,practice.thisN,practice.thisIndex,block1.thisRepN,block1.thisTrialN,block1.thisN,block1.thisIndex,block2.thisRepN,block2.thisTrialN,block2.thisN,block2.thisIndex,thisRow.t,notes,instructions.started,instructions_txt.started,key_control.started,instructions.stopped,key_control.keys,key_control.rt,key_control.duration,ready.started,ready_txt.started,ready_txt.stopped,ready.stopped,fix.started,fixation.started,key_control2.started,fixation_cross.started,fix.stopped,practice.key_control2.keys,practice.key_control2.rt,practice.key_control2.duration,cue.started,cube.started,fixation_cross_cue.started,cue.stopped,target.started,fixation_target.started,fixation_cross_target.started,key_resp.started,star.started,target.stopped,practice.key_resp.keys,practice.key_resp.rt,practice.key_resp.duration,star.stopped,fixation_target.stopped,fixation_cross_target.stopped,key_resp.stopped,block1.key_control2.keys,block1.key_control2.rt,block1.key_control2.duration,block1.key_resp.keys,block1.key_resp.rt,block1.key_resp.duration,break_2.started,text.started,key_control3.started,text.stopped,break_2.stopped,key_control3.keys,key_control3.rt,key_control3.duration,block2.key_control2.keys,block2.key_control2.rt,block2.key_control2.duration,block2.key_resp.keys,block2.key_resp.rt,block2.key_resp.duration,participant,session,date,expName,psychopyVersion,frameRate,expStart,
,,,,,,,,,,,,,,,,,,,,,,,,,,,0.0076289999997243285,0.028100399998947978,0.028100399998947978,509.21432619998814,up,509.1769581999979,None,,,,,,,,,,,,,,,,,,,,,,,,,,,,,,,,,,,,,,,,,,,,,,,,,,P116,001,2025-02-19_12h51.13.631,posner_endo_new1,2024.2.4,60.02491033530373,2025-02-19 12h51.20.867362 +0000,
,,,,,,,,,,,,,,,,,,,,,,,,,,,,,,,,,,509.2143810999987,509.22658620000584,512.2271985999832,512.2080634000013,,,,,,,,,,,,,,,,,,,,,,,,,,,,,,,,,,,,,,,,,,,,,,P116,001,2025-02-19_12h51.13.631,posner_endo_new1,2024.2.4,60.02491033530373,2025-02-19 12h51.20.867362 +0000,
cube_l.png,0.1,-0.31,valid,0,0,0,down,7.8339116999995895,None,space,0.7620576999906916,None,0,0,0,0,,,,,,,,,512.2271985999832,,,,,,,,,,,,,512.2154778999975,512.2271985999832,512.2271985999832,512.2271985999832,520.066865700006,down,7.8339116999995895,None,520.0770404000068,520.0874092000013,520.0874092000013,520.1328855000029,520.1331266000052,520.1493382999906,520.1493382999906,520.1493382999906,520.2320870999829,520.9157962999889,space,0.7620576999906916,None,,,,,,,,,,,,,,,,,,,,,,,,,P116,001,2025-02-19_12h51.13.631,posner_endo_new1,2024.2.4,60.02491033530373,2025-02-19 12h51.20.867362 +0000,
cube_l.png,0.1,0.31,invalid,1,1,0,down,1.680403500009561,None,space,0.45102830001269467,None,0,1,1,1,,,,,,,,,520.9319831999892,,,,,,,,,,,,,520.9159693999973,520.9319831999892,520.9319831999892,520.9319831999892,522.6143259000091,down,1.680403500009561,None,522.6204364000005,522.6321354999964,522.6321354999964,522.6803934999916,522.6806258999859,522.6963655999862,522.6963655999862,522.6963655999862,522.779896299995,523.163854399987,space,0.45102830001269467,None,,,,,,,,,,,,,,,,,,,,,,,,,P116,001,2025-02-19_12h51.13.631,posner_endo_new1,2024.2.4,60.02491033530373,2025-02-19 12h51.20.867362 +0000,
cube_r.png,0.1,-0.31,invalid,2,2,0,down,1.6099345000111498,None,space,0.5219985000148881,None,0,2,2,2,,,,,,,,,523.1792687999841,,,,,,,,,,,,,523.1640260999848,523.1792687999841,523.1792687999841,523.1792687999841,524.7955906999996,down,1.6099345000111498,None,524.8016503999825,524.8131771000044,524.8131771000044,524.8613026000094,524.8615356000082,524.8778144999815,524.8778144999815,524.8778144999815,524.9606172000058,525.4114677000034,space,0.5219985000148881,None,,,,,,,,,,,,,,,,,,,,,,,,,P116,001,2025-02-19_12h51.13.631,posner_endo_new1,2024.2.4,60.02491033530373,2025-02-19 12h51.20.867362 +0000,
cube_r.png,0.1,10,catch,3,3,0,down,1.650000599998748,None,None,,,0,3,3,3,,,,,,,,,525.4274426999909,,,,,,,,,,,,,525.4116369999829,525.4274426999909,525.4274426999909,525.4274426999909,527.0932299999986,down,1.650000599998748,None,527.0992814000056,527.1109272000031,527.1109272000031,527.1590230999864,527.1592523999861,527.1750835999846,527.1750835999846,527.1750835999846,527.2588853999914,530.1730803999817,None,,,529.2732533999952,530.1892275999999,530.1892275999999,530.1892275999999,,,,,,,,,,,,,,,,,,,,,P116,001,2025-02-19_12h51.13.631,posner_endo_new1,2024.2.4,60.02491033530373,2025-02-19 12h51.20.867362 +0000,
cube_l.png,0.1,-0.31,valid,4,4,0,down,0.2235854000027757,None,space,0.4366405000037048,None,0,4,4,4,,,,,,,,,530.1892275999999,,,,,,,,,,,,,530.1732458999904,530.1892275999999,530.1892275999999,530.1892275999999,530.4229601999978,down,0.2235854000027757,None,530.4290773999819,530.4406356999825,530.4406356999825,530.4889659000037,530.4892022999993,530.5050010999839,530.5050010999839,530.5050010999839,530.5886338999844,530.9556331000058,space,0.4366405000037048,None,,,,,,,,,,,,,,,,,,,,,,,,,P116,001,2025-02-19_12h51.13.631,posner_endo_new1,2024.2.4,60.02491033530373,2025-02-19 12h51.20.867362 +0000,
cube_l.png,0.1,0.31,invalid,5,5,0,down,1.3133473999914713,None,space,0.5824169999978039,None,0,5,5,5,,,,,,,,,530.971623999998,,,,,,,,,,,,,530.9558083000011,530.971623999998,530.971623999998,530.971623999998,532.287725800008,down,1.3133473999914713,None,532.2937053999922,532.3053263000038,532.3053263000038,532.3533129999996,532.3535511000082,532.3700988999917,532.3700988999917,532.3700988999917,532.4529195000068,532.9540215999878,space,0.5824169999978039,None,,,,,,,,,,,,,,,,,,,,,,,,,P116,001,2025-02-19_12h51.13.631,posner_endo_new1,2024.2.4,60.02491033530373,2025-02-19 12h51.20.867362 +0000,
cube_r.png,0.1,-0.31,invalid,6,6,0,down,2.523425399995176,None,space,0.4341658000194002,None,0,6,6,6,,,,,,,,,532.9698080999951,,,,,,,,,,,,,532.9541929999832,532.9698080999951,532.9698080999951,532.9698080999951,535.5007975999906,down,2.523425399995176,None,535.5068285999878,535.518358900008,535.518358900008,535.5668330999906,535.5670689999824,535.5834387000068,535.5834387000068,535.5834387000068,535.6502790999948,536.0335507999989,space,0.4341658000194002,None,,,,,,,,,,,,,,,,,,,,,,,,,P116,001,2025-02-19_12h51.13.631,posner_endo_new1,2024.2.4,60.02491033530373,2025-02-19 12h51.20.867362 +0000,
cube_r.png,0.1,0.31,valid,7,7,0,down,1.1465259000251535,None,space,0.42211549999774434,None,0,7,7,7,,,,,,,,,536.0498970999906,,,,,,,,,,,,,536.0337282999826,536.0498970999906,536.0498970999906,536.0498970999906,537.1992768000055,down,1.1465259000251535,None,537.2053809000063,537.2170074000023,537.2170074000023,537.2649362999946,537.265172799991,537.28176849999,537.28176849999,537.28176849999,537.3484188999864,537.7154468999943,space,0.42211549999774434,None,,,,,,,,,,,,,,,,,,,,,,,,,P116,001,2025-02-19_12h51.13.631,posner_endo_new1,2024.2.4,60.02491033530373,2025-02-19 12h51.20.867362 +0000,
cube_l.png,0.1,-0.31,valid,8,8,0,down,2.066201599984197,None,space,0.3571271999971941,None,0,8,8,8,,,,,,,,,537.7314596000069,,,,,,,,,,,,,537.7156239000033,537.7314596000069,537.7314596000069,537.7314596000069,539.8133167999913,down,2.066201599984197,None,539.8192481999868,539.830802099983,539.830802099983,539.8788271000085,539.8790620999935,539.8958927000058,539.8958927000058,539.8958927000058,539.9623518000008,540.2628180999891,space,0.3571271999971941,None,,,,,,,,,,,,,,,,,,,,,,,,,P116,001,2025-02-19_12h51.13.631,posner_endo_new1,2024.2.4,60.02491033530373,2025-02-19 12h51.20.867362 +0000,
cube_r.png,0.1,-0.31,invalid,9,9,0,down,1.8377553000173066,None,space,0.22754859999986365,None,0,9,9,9,,,,,,,,,540.2788624000095,,,,,,,,,,,,,540.2629878000007,540.2788624000095,540.2788624000095,540.2788624000095,542.1274758999934,down,1.8377553000173066,None,542.1334483999817,542.1451179999858,542.1451179999858,542.1934567999851,542.1936891000078,542.2102341999998,542.2102341999998,542.2102341999998,542.2765224000032,542.4434716000105,space,0.22754859999986365,None,,,,,,,,,,,,,,,,,,,,,,,,,P116,001,2025-02-19_12h51.13.631,posner_endo_new1,2024.2.4,60.02491033530373,2025-02-19 12h51.20.867362 +0000,
cube_r.png,0.1,0.31,valid,10,10,0,down,1.89709449998918,None,space,0.33066509998752736,None,0,10,10,10,,,,,,,,,542.4598774999904,,,,,,,,,,,,,542.4436405999877,542.4598774999904,542.4598774999904,542.4598774999904,544.3586654000101,down,1.89709449998918,None,544.3646347000031,544.3762906999909,544.3762906999909,544.4247219999961,544.4249543999904,544.4407026999979,544.4407026999979,544.4407026999979,544.5079283000086,544.7752069999988,space,0.33066509998752736,None,,,,,,,,,,,,,,,,,,,,,,,,,P116,001,2025-02-19_12h51.13.631,posner_endo_new1,2024.2.4,60.02491033530373,2025-02-19 12h51.20.867362 +0000,
,,,,,,,,,,,,,,,,,,,,,,,,,,,,,,,,,,544.7753262000042,544.7909742000047,547.7937707999954,547.7715815999836,,,,,,,,,,,,,,,,,,,,,,,,,,,,,,,,,,,,,,,,,,,,,,P116,001,2025-02-19_12h51.13.631,posner_endo_new1,2024.2.4,60.02491033530373,2025-02-19 12h51.20.867362 +0000,
cube_l.png,0.1,10,catch,0,0,0,down,7.626777900004527,None,None,,,,,,,0,0,0,0,,,,,547.7937707999954,,,,,,,,,,,,,547.7850838000013,547.7937707999954,547.7937707999954,547.7937707999954,555.4305194999906,,,,555.4367339999881,555.4483202999982,555.4483202999982,555.496473200008,555.4967084999953,555.5133249000064,555.5133249000064,555.5133249000064,555.5798778999888,558.5107026000042,,,,557.5943071999936,558.526589599991,558.526589599991,558.526589599991,down,7.626777900004527,None,None,,,,,,,,,,,,,,,,,P116,001,2025-02-19_12h51.13.631,posner_endo_new1,2024.2.4,60.02491033530373,2025-02-19 12h51.20.867362 +0000,
cube_l.png,0.1,10,catch,1,1,0,down,1.438284300005762,None,None,,,,,,,0,1,1,1,,,,,558.526589599991,,,,,,,,,,,,,558.5108699999982,558.526589599991,558.526589599991,558.526589599991,559.9760842999967,,,,559.9821242000035,559.9937062999816,559.9937062999816,560.042185600003,560.0424186000018,560.0586575999914,560.0586575999914,560.0586575999914,560.1418579999881,563.0560665999947,,,,562.1560673000058,563.0720938000013,563.0720938000013,563.0720938000013,down,1.438284300005762,None,None,,,,,,,,,,,,,,,,,P116,001,2025-02-19_12h51.13.631,posner_endo_new1,2024.2.4,60.02491033530373,2025-02-19 12h51.20.867362 +0000,
cube_l.png,0.1,0.31,invalid,2,2,0,down,1.4927853000117466,None,space,0.3939740000059828,None,,,,,0,2,2,2,,,,,563.0720938000013,,,,,,,,,,,,,563.056236400007,563.0720938000013,563.0720938000013,563.0720938000013,564.5710857000086,,,,564.5770305999904,564.588696699997,564.588696699997,564.6370642999827,564.6372938999848,564.6537399000081,564.6537399000081,564.6537399000081,564.7199304999958,565.0543481000059,,,,,,,,down,1.4927853000117466,None,space,0.3939740000059828,None,,,,,,,,,,,,,,,P116,001,2025-02-19_12h51.13.631,posner_endo_new1,2024.2.4,60.02491033530373,2025-02-19 12h51.20.867362 +0000,
cube_l.png,0.1,0.31,invalid,3,3,0,down,1.7112212000065483,None,space,0.4110260000161361,None,,,,,0,3,3,3,,,,,565.0699243999843,,,,,,,,,,,,,565.0545310000016,565.0699243999843,565.0699243999843,565.0699243999843,566.7859564999817,,,,566.7918991000042,566.8034749999933,566.8034749999933,566.8516691999976,566.8519067000016,566.8683911999979,566.8683911999979,566.8683911999979,566.9515140999865,567.2849122000043,,,,,,,,down,1.7112212000065483,None,space,0.4110260000161361,None,,,,,,,,,,,,,,,P116,001,2025-02-19_12h51.13.631,posner_endo_new1,2024.2.4,60.02491033530373,2025-02-19 12h51.20.867362 +0000,
cube_l.png,0.1,-0.31,valid,4,4,0,down,1.7195906999986619,None,space,0.2946378999913577,None,,,,,0,4,4,4,,,,,567.3010660999862,,,,,,,,,,,,,567.2850962000084,567.3010660999862,567.3010660999862,567.3010660999862,569.0334478000004,,,,569.0394239999878,569.0508441999846,569.0508441999846,569.0997048999998,569.0999374999956,569.1159066999971,569.1159066999971,569.1159066999971,569.1825890000036,569.4166819000093,,,,,,,,down,1.7195906999986619,None,space,0.2946378999913577,None,,,,,,,,,,,,,,,P116,001,2025-02-19_12h51.13.631,posner_endo_new1,2024.2.4,60.02491033530373,2025-02-19 12h51.20.867362 +0000,
cube_r.png,0.1,-0.31,invalid,5,5,0,down,1.460927400010405,None,space,0.34299979999195784,None,,,,,0,5,5,5,,,,,569.4323369000049,,,,,,,,,,,,,569.4168614000082,569.4323369000049,569.4323369000049,569.4323369000049,570.8984452000004,,,,570.9044307000004,570.9161165999831,570.9161165999831,570.9644625000074,570.964702600002,570.980341699993,570.980341699993,570.980341699993,571.064023599989,571.3312185999821,,,,,,,,down,1.460927400010405,None,space,0.34299979999195784,None,,,,,,,,,,,,,,,P116,001,2025-02-19_12h51.13.631,posner_endo_new1,2024.2.4,60.02491033530373,2025-02-19 12h51.20.867362 +0000,
cube_r.png,0.1,0.31,valid,6,6,0,down,1.497598799993284,None,space,0.4164174000034109,None,,,,,0,6,6,6,,,,,571.346967999998,,,,,,,,,,,,,571.3313960999949,571.346967999998,571.346967999998,571.346967999998,572.8459394999954,,,,572.8519019999949,572.8635772999842,572.8635772999842,572.9123330999864,572.9125645000022,572.9285698999884,572.9285698999884,572.9285698999884,572.9953435999923,573.3459575999877,,,,,,,,down,1.497598799993284,None,space,0.4164174000034109,None,,,,,,,,,,,,,,,P116,001,2025-02-19_12h51.13.631,posner_endo_new1,2024.2.4,60.02491033530373,2025-02-19 12h51.20.867362 +0000,
cube_r.png,0.1,-0.31,invalid,7,7,0,down,1.3400051999778952,None,space,0.4786498000030406,None,,,,,0,7,7,7,,,,,573.3613397000008,,,,,,,,,,,,,573.3461367999844,573.3613397000008,573.3613397000008,573.3613397000008,574.7104816999927,,,,574.7165176999988,574.7282294000033,574.7282294000033,574.7767918999889,574.7770236000069,574.7936015999876,574.7936015999876,574.7936015999876,574.8601519000076,575.2770203999826,,,,,,,,down,1.3400051999778952,None,space,0.4786498000030406,None,,,,,,,,,,,,,,,P116,001,2025-02-19_12h51.13.631,posner_endo_new1,2024.2.4,60.02491033530373,2025-02-19 12h51.20.867362 +0000,
cube_l.png,0.1,-0.31,valid,8,8,0,down,1.6636983999924269,None,space,0.29667070001596585,None,,,,,0,8,8,8,,,,,575.2929450999945,,,,,,,,,,,,,575.2772040999844,575.2929450999945,575.2929450999945,575.2929450999945,576.9584483999934,,,,576.9643765999936,576.9761088000087,576.9761088000087,577.0246929999848,577.0249252000067,577.0412508999871,577.0412508999871,577.0412508999871,577.1076948999835,577.3412715999875,,,,,,,,down,1.6636983999924269,None,space,0.29667070001596585,None,,,,,,,,,,,,,,,P116,001,2025-02-19_12h51.13.631,posner_endo_new1,2024.2.4,60.02491033530373,2025-02-19 12h51.20.867362 +0000,
cube_r.png,0.1,-0.31,invalid,9,9,0,down,1.7278601999860257,None,space,0.5104127999802586,None,,,,,0,9,9,9,,,,,577.357499100006,,,,,,,,,,,,,577.3414586999861,577.357499100006,577.357499100006,577.357499100006,579.0898622999957,,,,579.0958607000066,579.1076375999837,579.1076375999837,579.1560470999975,579.1562780000095,579.1722718999954,579.1722718999954,579.1722718999954,579.2389427000016,579.6891278999974,,,,,,,,down,1.7278601999860257,None,space,0.5104127999802586,None,,,,,,,,,,,,,,,P116,001,2025-02-19_12h51.13.631,posner_endo_new1,2024.2.4,60.02491033530373,2025-02-19 12h51.20.867362 +0000,
cube_l.png,0.1,0.31,invalid,10,10,0,down,4.363745800015749,None,space,0.4913665999774821,None,,,,,0,10,10,10,,,,,579.705255799985,,,,,,,,,,,,,579.6893047000049,579.705255799985,579.705255799985,579.705255799985,584.0847856999899,,,,584.0908311000094,584.1023232000007,584.1023232000007,584.1507539000013,584.1509880000085,584.166939399991,584.166939399991,584.166939399991,584.2339457999915,584.6671188999899,,,,,,,,down,4.363745800015749,None,space,0.4913665999774821,None,,,,,,,,,,,,,,,P116,001,2025-02-19_12h51.13.631,posner_endo_new1,2024.2.4,60.02491033530373,2025-02-19 12h51.20.867362 +0000,
cube_r.png,0.1,-0.31,invalid,11,11,0,down,1.0418957000074442,None,space,0.6035903999872971,None,,,,,0,11,11,11,,,,,584.683349400002,,,,,,,,,,,,,584.6673034999985,584.683349400002,584.683349400002,584.683349400002,585.7331852999923,,,,585.7392269999837,585.7507944999961,585.7507944999961,585.7994787000061,585.7997087999829,585.8156274000066,585.8156274000066,585.8156274000066,585.8990198999818,586.431945999997,,,,,,,,down,1.0418957000074442,None,space,0.6035903999872971,None,,,,,,,,,,,,,,,P116,001,2025-02-19_12h51.13.631,posner_endo_new1,2024.2.4,60.02491033530373,2025-02-19 12h51.20.867362 +0000,
cube_r.png,0.1,0.31,valid,12,12,0,down,3.1251164999848697,None,space,0.4591645000036806,None,,,,,0,12,12,12,,,,,586.4483828000084,,,,,,,,,,,,,586.4321236000105,586.4483828000084,586.4483828000084,586.4483828000084,589.5792167999898,,,,589.5856040999934,589.5973352000001,589.5973352000001,589.644881699991,589.6453183999984,589.661609200004,589.661609200004,589.661609200004,589.7447730999847,590.128695499996,,,,,,,,down,3.1251164999848697,None,space,0.4591645000036806,None,,,,,,,,,,,,,,,P116,001,2025-02-19_12h51.13.631,posner_endo_new1,2024.2.4,60.02491033530373,2025-02-19 12h51.20.867362 +0000,
cube_l.png,0.1,10,catch,13,13,0,down,1.1168421999900602,None,space,1.012424699991243,None,,,,,0,13,13,13,,,,,590.1444575999922,,,,,,,,,,,,,590.1289548999921,590.1444575999922,590.1444575999922,590.1444575999922,591.2774551000039,,,,591.2870074000093,591.2972259999951,591.2972259999951,591.3431049000064,591.3434213,591.3595735999988,591.3595735999988,591.3595735999988,591.4432154000096,592.3763972999877,,,,,,,,down,1.1168421999900602,None,space,1.012424699991243,None,,,,,,,,,,,,,,,P116,001,2025-02-19_12h51.13.631,posner_endo_new1,2024.2.4,60.02491033530373,2025-02-19 12h51.20.867362 +0000,
cube_r.png,0.1,-0.31,invalid,14,14,0,down,1.476733299990883,None,space,0.42830239998875186,None,,,,,0,14,14,14,,,,,592.3918537999853,,,,,,,,,,,,,592.3766562000092,592.3918537999853,592.3918537999853,592.3918537999853,593.8749652999977,,,,593.8844737999898,593.8950116999913,593.8950116999913,593.940463100007,593.9407800000045,593.9571870999935,593.9571870999935,593.9571870999935,594.0405643999984,594.3909075999982,,,,,,,,down,1.476733299990883,None,space,0.42830239998875186,None,,,,,,,,,,,,,,,P116,001,2025-02-19_12h51.13.631,posner_endo_new1,2024.2.4,60.02491033530373,2025-02-19 12h51.20.867362 +0000,
cube_l.png,0.1,-0.31,valid,15,15,0,down,4.438032400008524,None,space,0.3397847999876831,None,,,,,0,15,15,15,,,,,594.4068555999838,,,,,,,,,,,,,594.391178299993,594.4068555999838,594.4068555999838,594.4068555999838,598.8533052999992,,,,598.8629686000058,598.8733494000044,598.8733494000044,598.9191212999867,598.9194366000011,598.935157800006,598.935157800006,598.935157800006,599.0183470000047,599.2863522999978,,,,,,,,down,4.438032400008524,None,space,0.3397847999876831,None,,,,,,,,,,,,,,,P116,001,2025-02-19_12h51.13.631,posner_endo_new1,2024.2.4,60.02491033530373,2025-02-19 12h51.20.867362 +0000,
cube_r.png,0.1,10,catch,16,16,0,down,1.3594182999804616,None,None,,,,,,,0,16,16,16,,,,,599.3013539999956,,,,,,,,,,,,,599.2866128000023,599.3013539999956,599.3013539999956,599.3013539999956,600.6681853999908,,,,600.6777746999869,600.688161500002,600.688161500002,600.7338019000017,600.7341134999879,600.7500044000044,600.7500044000044,600.7500044000044,600.8335860999941,603.7479419999872,,,,602.8481009000097,603.7639714999823,603.7639714999823,603.7639714999823,down,1.3594182999804616,None,None,,,,,,,,,,,,,,,,,P116,001,2025-02-19_12h51.13.631,posner_endo_new1,2024.2.4,60.02491033530373,2025-02-19 12h51.20.867362 +0000,
cube_r.png,0.1,10,catch,17,17,0,down,4.369100100011565,None,None,,,,,,,0,17,17,17,,,,,603.7639714999823,,,,,,,,,,,,,603.7481823999842,603.7639714999823,603.7639714999823,603.7639714999823,608.1446052000101,,,,608.1616465999978,608.1730058999965,608.1730058999965,608.2091252999962,608.2094083999982,608.2258581999922,608.2258581999922,608.2258581999922,608.308918900002,611.2234447000083,,,,610.3235145999934,611.2395895000082,611.2395895000082,611.2395895000082,down,4.369100100011565,None,None,,,,,,,,,,,,,,,,,P116,001,2025-02-19_12h51.13.631,posner_endo_new1,2024.2.4,60.02491033530373,2025-02-19 12h51.20.867362 +0000,
cube_l.png,0.1,0.31,invalid,18,18,0,down,1.9656720999919344,None,space,0.44264140000450425,None,,,,,0,18,18,18,,,,,611.2395895000082,,,,,,,,,,,,,611.2236708999844,611.2395895000082,611.2395895000082,611.2395895000082,613.2214650000096,,,,613.2297482999857,613.240501799999,613.240501799999,613.2872872999869,613.2875742999895,613.3040737999836,613.3040737999836,613.3040737999836,613.3872214999865,613.7546858999995,,,,,,,,down,1.9656720999919344,None,space,0.44264140000450425,None,,,,,,,,,,,,,,,P116,001,2025-02-19_12h51.13.631,posner_endo_new1,2024.2.4,60.02491033530373,2025-02-19 12h51.20.867362 +0000,
cube_l.png,0.1,10,catch,19,19,0,down,2.0104947999934666,None,None,,,,,,,0,19,19,19,,,,,613.7704833000025,,,,,,,,,,,,,613.754914899997,613.7704833000025,613.7704833000025,613.7704833000025,615.7856692000059,,,,615.7939734999964,615.8048932999955,615.8048932999955,615.8513061999984,615.8515884999943,615.8678921000101,615.8678921000101,615.8678921000101,615.9515507000033,618.8654054999934,,,,617.9659997999843,618.8813658999861,618.8813658999861,618.8813658999861,down,2.0104947999934666,None,None,,,,,,,,,,,,,,,,,P116,001,2025-02-19_12h51.13.631,posner_endo_new1,2024.2.4,60.02491033530373,2025-02-19 12h51.20.867362 +0000,
cube_l.png,0.1,0.31,invalid,20,20,0,down,5.628463600005489,None,space,0.4689336000010371,None,,,,,0,20,20,20,,,,,618.8813658999861,,,,,,,,,,,,,618.865622399986,618.8813658999861,618.8813658999861,618.8813658999861,624.5265832000005,,,,624.5349585000076,624.5456232999859,624.5456232999859,624.5923966999981,624.5926913000003,624.6089066999848,624.6089066999848,624.6089066999848,624.6925294999965,625.0927632999956,,,,,,,,down,5.628463600005489,None,space,0.4689336000010371,None,,,,,,,,,,,,,,,P116,001,2025-02-19_12h51.13.631,posner_endo_new1,2024.2.4,60.02491033530373,2025-02-19 12h51.20.867362 +0000,
cube_l.png,0.1,-0.31,valid,21,21,0,down,1.64863779998268,None,space,0.49425150000024587,None,,,,,0,21,21,21,,,,,625.1083639999852,,,,,,,,,,,,,625.0930032999895,625.1083639999852,625.1083639999852,625.1083639999852,626.7581869999995,,,,626.76665830001,626.7769468000042,626.7769468000042,626.823518499994,626.8238100000017,626.8399942999822,626.8399942999822,626.8399942999822,626.9231729999883,627.3405388999963,,,,,,,,down,1.64863779998268,None,space,0.49425150000024587,None,,,,,,,,,,,,,,,P116,001,2025-02-19_12h51.13.631,posner_endo_new1,2024.2.4,60.02491033530373,2025-02-19 12h51.20.867362 +0000,
cube_r.png,0.1,0.31,valid,22,22,0,down,1.5203579000080936,None,space,0.402904300019145,None,,,,,0,22,22,22,,,,,627.3560997000022,,,,,,,,,,,,,627.3407748999889,627.3560997000022,627.3560997000022,627.3560997000022,628.8890758999914,,,,628.8973833000055,628.9078113999858,628.9078113999858,628.9551111999899,628.9553414999973,628.9715836000105,628.9715836000105,628.9715836000105,629.0547781999921,629.3886960000091,,,,,,,,down,1.5203579000080936,None,space,0.402904300019145,None,,,,,,,,,,,,,,,P116,001,2025-02-19_12h51.13.631,posner_endo_new1,2024.2.4,60.02491033530373,2025-02-19 12h51.20.867362 +0000,
cube_r.png,0.1,-0.31,invalid,23,23,0,down,1.1364900000044145,None,space,0.7331135999993421,None,,,,,0,23,23,23,,,,,629.4040775999893,,,,,,,,,,,,,629.3888771999918,629.4040775999893,629.4040775999893,629.4040775999893,630.5539951999963,,,,630.5599440000078,630.571628500009,630.571628500009,630.6199140999815,630.6201463000034,630.6365787000104,630.6365787000104,630.6365787000104,630.7031177000026,631.3865645999904,,,,,,,,down,1.1364900000044145,None,space,0.7331135999993421,None,,,,,,,,,,,,,,,P116,001,2025-02-19_12h51.13.631,posner_endo_new1,2024.2.4,60.02491033530373,2025-02-19 12h51.20.867362 +0000,
cube_r.png,0.1,0.31,valid,24,24,0,down,19.25137840001844,None,space,0.41232589998980984,None,,,,,0,24,24,24,,,,,631.4018990999903,,,,,,,,,,,,,631.3867492999998,631.4018990999903,631.4018990999903,631.4018990999903,650.6667463000049,,,,650.6728242000099,650.684339600004,650.684339600004,650.7325410000049,650.7327782000066,650.7492615999945,650.7492615999945,650.7492615999945,650.8155733000021,651.1662737999868,,,,,,,,down,19.25137840001844,None,space,0.41232589998980984,None,,,,,,,,,,,,,,,P116,001,2025-02-19_12h51.13.631,posner_endo_new1,2024.2.4,60.02491033530373,2025-02-19 12h51.20.867362 +0000,
cube_r.png,0.1,-0.31,invalid,25,25,0,down,1.9270633999840356,None,space,0.44104249999509193,None,,,,,0,25,25,25,,,,,651.1816803999827,,,,,,,,,,,,,651.1664546999964,651.1816803999827,651.1816803999827,651.1816803999827,653.1139643999923,,,,653.1200787999842,653.1316893000039,653.1316893000039,653.1797482999973,653.1799809999939,653.1969549999922,653.1969549999922,653.1969549999922,653.2631466999883,653.6466851999867,,,,,,,,down,1.9270633999840356,None,space,0.44104249999509193,None,,,,,,,,,,,,,,,P116,001,2025-02-19_12h51.13.631,posner_endo_new1,2024.2.4,60.02491033530373,2025-02-19 12h51.20.867362 +0000,
cube_l.png,0.1,-0.31,valid,26,26,0,down,2.006436100025894,None,space,0.435622399993008,None,,,,,0,26,26,26,,,,,653.6628906999831,,,,,,,,,,,,,653.6468632000033,653.6628906999831,653.6628906999831,653.6628906999831,655.6784260999993,,,,655.6844186999951,655.696022899996,655.696022899996,655.7440476999909,655.7442818999989,655.7607739999949,655.7607739999949,655.7607739999949,655.8269303999841,656.211353199993,,,,,,,,down,2.006436100025894,None,space,0.435622399993008,None,,,,,,,,,,,,,,,P116,001,2025-02-19_12h51.13.631,posner_endo_new1,2024.2.4,60.02491033530373,2025-02-19 12h51.20.867362 +0000,
cube_r.png,0.1,0.31,valid,27,27,0,down,1.3063588000077289,None,space,0.42898389999754727,None,,,,,0,27,27,27,,,,,656.2271207000013,,,,,,,,,,,,,656.2115395999863,656.2271207000013,656.2271207000013,656.2271207000013,657.5429407999909,,,,657.548888099991,657.5605749000097,657.5605749000097,657.6090033999935,657.609241099999,657.6256062999892,657.6256062999892,657.6256062999892,657.7088199999998,658.0590737999883,,,,,,,,down,1.3063588000077289,None,space,0.42898389999754727,None,,,,,,,,,,,,,,,P116,001,2025-02-19_12h51.13.631,posner_endo_new1,2024.2.4,60.02491033530373,2025-02-19 12h51.20.867362 +0000,
cube_r.png,0.1,10,catch,28,28,0,down,2.0735288999858312,None,None,,,,,,,0,28,28,28,,,,,658.0752255999832,,,,,,,,,,,,,658.0592518000049,658.0752255999832,658.0752255999832,658.0752255999832,660.1570321999898,,,,660.1630441999878,660.174518099986,660.174518099986,660.2231151000015,660.2233457999828,660.2394583999994,660.2394583999994,660.2394583999994,660.3223504000052,663.23689130001,,,,662.3374650999904,663.2530678999901,663.2530678999901,663.2530678999901,down,2.0735288999858312,None,None,,,,,,,,,,,,,,,,,P116,001,2025-02-19_12h51.13.631,posner_endo_new1,2024.2.4,60.02491033530373,2025-02-19 12h51.20.867362 +0000,
cube_r.png,0.1,0.31,valid,29,29,0,down,0.2397720000008121,None,space,0.4429303000215441,None,,,,,0,29,29,29,,,,,663.2530678999901,,,,,,,,,,,,,663.2370612999948,663.2530678999901,663.2530678999901,663.2530678999901,663.5033182000043,,,,663.5093067999987,663.5209885000077,663.5209885000077,663.5694546999875,663.5696927999961,663.5861326000013,663.5861326000013,663.5861326000013,663.652737700002,664.0364769999869,,,,,,,,down,0.2397720000008121,None,space,0.4429303000215441,None,,,,,,,,,,,,,,,P116,001,2025-02-19_12h51.13.631,posner_endo_new1,2024.2.4,60.02491033530373,2025-02-19 12h51.20.867362 +0000,
cube_r.png,0.1,0.31,valid,30,30,0,down,1.928689000022132,None,space,0.3963231000234373,None,,,,,0,30,30,30,,,,,664.0523708999972,,,,,,,,,,,,,664.0366596000094,664.0523708999972,664.0523708999972,664.0523708999972,665.9845940000087,,,,665.9905472999963,666.0020971999911,666.0020971999911,666.0505211999989,666.0507564999862,666.0667134000105,666.0667134000105,666.0667134000105,666.149872000009,666.4675257999916,,,,,,,,down,1.928689000022132,None,space,0.3963231000234373,None,,,,,,,,,,,,,,,P116,001,2025-02-19_12h51.13.631,posner_endo_new1,2024.2.4,60.02491033530373,2025-02-19 12h51.20.867362 +0000,
cube_l.png,0.1,-0.31,valid,31,31,0,down,3.3060799000086263,None,space,0.3589616999961436,None,,,,,0,31,31,31,,,,,666.4829035000002,,,,,,,,,,,,,666.4677048999874,666.4829035000002,666.4829035000002,666.4829035000002,669.7971097999834,,,,669.803099599987,669.8146586999937,669.8146586999937,669.8633441999846,669.8635788999964,669.8794887999829,669.8794887999829,669.8794887999829,669.9629166999948,670.246716499998,,,,,,,,down,3.3060799000086263,None,space,0.3589616999961436,None,,,,,,,,,,,,,,,P116,001,2025-02-19_12h51.13.631,posner_endo_new1,2024.2.4,60.02491033530373,2025-02-19 12h51.20.867362 +0000,
cube_r.png,0.1,0.31,valid,32,32,0,down,2.2632851999951527,None,space,0.37833050001063384,None,,,,,0,32,32,32,,,,,670.2621254999831,,,,,,,,,,,,,670.2468937000085,670.2621254999831,670.2621254999831,670.2621254999831,672.5279013999971,,,,672.5338754999975,672.5454332999943,672.5454332999943,672.5937886000029,672.5940258000046,672.6103006000048,672.6103006000048,672.6103006000048,672.6770020999829,672.9939363999874,,,,,,,,down,2.2632851999951527,None,space,0.37833050001063384,None,,,,,,,,,,,,,,,P116,001,2025-02-19_12h51.13.631,posner_endo_new1,2024.2.4,60.02491033530373,2025-02-19 12h51.20.867362 +0000,
cube_r.png,0.1,-0.31,invalid,33,33,0,down,1.971626999991713,None,space,0.42089039998245426,None,,,,,0,33,33,33,,,,,673.00982810001,,,,,,,,,,,,,672.9941214999999,673.00982810001,673.00982810001,673.00982810001,674.9914188999974,,,,674.9974142999854,675.0089437999995,675.0089437999995,675.0577659999835,675.0580069999851,675.0743329999968,675.0743329999968,675.0743329999968,675.1409088000073,675.5083030000096,,,,,,,,down,1.971626999991713,None,space,0.42089039998245426,None,,,,,,,,,,,,,,,P116,001,2025-02-19_12h51.13.631,posner_endo_new1,2024.2.4,60.02491033530373,2025-02-19 12h51.20.867362 +0000,
cube_r.png,0.1,10,catch,34,34,0,down,1.648884199996246,None,None,,,,,,,0,34,34,34,,,,,675.5235791000014,,,,,,,,,,,,,675.5084898000059,675.5235791000014,675.5235791000014,675.5235791000014,677.1893898999842,,,,677.1953778000025,677.2068374000082,677.2068374000082,677.2551545999886,677.2553876999882,677.2722733999835,677.2722733999835,677.2722733999835,677.3388345999992,680.2696792999923,,,,679.3533755000099,680.2854578999977,680.2854578999977,680.2854578999977,down,1.648884199996246,None,None,,,,,,,,,,,,,,,,,P116,001,2025-02-19_12h51.13.631,posner_endo_new1,2024.2.4,60.02491033530373,2025-02-19 12h51.20.867362 +0000,
cube_r.png,0.1,0.31,valid,35,35,0,down,None,None,space,0.4089778999914415,None,,,,,0,35,35,35,,,,,680.2854578999977,,,,,,,,,,,,,680.2698489000031,680.2854578999977,680.2854578999977,680.2854578999977,680.7361995000101,,,,680.7422088999883,680.753721999994,680.753721999994,680.8023914000078,680.8026264999935,680.8185192999954,680.8185192999954,680.8185192999954,680.9017423999903,681.2355406999995,,,,,,,,down,None,None,space,0.4089778999914415,None,,,,,,,,,,,,,,,P116,001,2025-02-19_12h51.13.631,posner_endo_new1,2024.2.4,60.02491033530373,2025-02-19 12h51.20.867362 +0000,
cube_r.png,0.1,-0.31,invalid,36,36,0,down,1.617278299992904,None,space,0.7553889999981038,None,,,,,0,36,36,36,,,,,681.2515271999873,,,,,,,,,,,,,681.2357247000036,681.2515271999873,681.2515271999873,681.2515271999873,682.8837182999996,,,,682.889720200008,682.9013001999992,682.9013001999992,682.9497832999914,682.9500127999927,682.9663638999918,682.9663638999918,682.9663638999918,683.0327611000102,683.7329061999917,,,,,,,,down,1.617278299992904,None,space,0.7553889999981038,None,,,,,,,,,,,,,,,P116,001,2025-02-19_12h51.13.631,posner_endo_new1,2024.2.4,60.02491033530373,2025-02-19 12h51.20.867362 +0000,
cube_l.png,0.1,0.31,invalid,37,37,0,down,1.5195950999914203,None,space,0.7229853999742772,None,,,,,0,37,37,37,,,,,683.7489274999825,,,,,,,,,,,,,683.7330859999929,683.7489274999825,683.7489274999825,683.7489274999825,685.2815501999867,,,,685.2875967999862,685.2993406000023,685.2993406000023,685.3471093999979,685.3473416999914,685.3636254000012,685.3636254000012,685.3636254000012,685.4472453999915,686.0973546000023,,,,,,,,down,1.5195950999914203,None,space,0.7229853999742772,None,,,,,,,,,,,,,,,P116,001,2025-02-19_12h51.13.631,posner_endo_new1,2024.2.4,60.02491033530373,2025-02-19 12h51.20.867362 +0000,
cube_l.png,0.1,0.31,invalid,38,38,0,down,1.4594638000125997,None,space,0.5395474000251852,None,,,,,0,38,38,38,,,,,686.1130823999993,,,,,,,,,,,,,686.0975384000049,686.1130823999993,686.1130823999993,686.1130823999993,687.5786744999932,,,,687.5846892999834,687.5962336999946,687.5962336999946,687.6448980999994,687.6451361000072,687.6613198999839,687.6613198999839,687.6613198999839,687.7279665000096,688.2118869999831,,,,,,,,down,1.4594638000125997,None,space,0.5395474000251852,None,,,,,,,,,,,,,,,P116,001,2025-02-19_12h51.13.631,posner_endo_new1,2024.2.4,60.02491033530373,2025-02-19 12h51.20.867362 +0000,
cube_r.png,0.1,0.31,valid,39,39,0,down,4.225295999989612,None,space,0.5381736000126693,None,,,,,0,39,39,39,,,,,688.2277538999915,,,,,,,,,,,,,688.212068599998,688.2277538999915,688.2277538999915,688.2277538999915,692.4574289000011,,,,692.4634689000086,692.4748971000081,692.4748971000081,692.523452399997,692.523684499989,692.54006259999,692.54006259999,692.54006259999,692.6064298999845,693.090128699987,,,,,,,,down,4.225295999989612,None,space,0.5381736000126693,None,,,,,,,,,,,,,,,P116,001,2025-02-19_12h51.13.631,posner_endo_new1,2024.2.4,60.02491033530373,2025-02-19 12h51.20.867362 +0000,
cube_l.png,0.1,0.31,invalid,40,40,0,down,3.8678741000185255,None,space,0.4061368999828119,None,,,,,0,40,40,40,,,,,693.1055167999875,,,,,,,,,,,,,693.0903078999836,693.1055167999875,693.1055167999875,693.1055167999875,696.9861445999995,,,,696.9921211999899,697.0035063000105,697.0035063000105,697.0519500999944,697.0521852000093,697.0686100999883,697.0686100999883,697.0686100999883,697.1519757999922,697.485626299982,,,,,,,,down,3.8678741000185255,None,space,0.4061368999828119,None,,,,,,,,,,,,,,,P116,001,2025-02-19_12h51.13.631,posner_endo_new1,2024.2.4,60.02491033530373,2025-02-19 12h51.20.867362 +0000,
cube_l.png,0.1,10,catch,41,41,0,down,3.559993000002578,None,None,,,,,,,0,41,41,41,,,,,697.5014397999912,,,,,,,,,,,,,697.4858051000047,697.5014397999912,697.5014397999912,697.5014397999912,701.0651283999905,,,,701.071160499996,701.0824178000039,701.0824178000039,701.1312240999832,701.1314581999904,701.1472924999835,701.1472924999835,701.1472924999835,701.2139868999948,704.1453984999971,,,,703.229056799988,704.1608420999837,704.1608420999837,704.1608420999837,down,3.559993000002578,None,None,,,,,,,,,,,,,,,,,P116,001,2025-02-19_12h51.13.631,posner_endo_new1,2024.2.4,60.02491033530373,2025-02-19 12h51.20.867362 +0000,
cube_l.png,0.1,-0.31,valid,42,42,0,down,1.8439895999908913,None,space,0.5672331000096165,None,,,,,0,42,42,42,,,,,704.1608420999837,,,,,,,,,,,,,704.1455731999886,704.1608420999837,704.1608420999837,704.1608420999837,706.0098198000051,,,,706.0158066999866,706.0276823999884,706.0276823999884,706.0762780999939,706.0765139999858,706.0927011999884,706.0927011999884,706.0927011999884,706.1760618999833,706.6763212000078,,,,,,,,down,1.8439895999908913,None,space,0.5672331000096165,None,,,,,,,,,,,,,,,P116,001,2025-02-19_12h51.13.631,posner_endo_new1,2024.2.4,60.02491033530373,2025-02-19 12h51.20.867362 +0000,
cube_l.png,0.1,10,catch,43,43,0,down,1.4495340999856126,None,None,,,,,,,0,43,43,43,,,,,706.6915623999957,,,,,,,,,,,,,706.6765054999851,706.6915623999957,706.6915623999957,706.6915623999957,708.1581867999921,,,,708.1641255999857,708.1754684000043,708.1754684000043,708.2239762999816,708.2242095999827,708.2406520000077,708.2406520000077,708.2406520000077,708.323467899987,711.237893499987,,,,710.3383782999881,711.2542624000052,711.2542624000052,711.2542624000052,down,1.4495340999856126,None,None,,,,,,,,,,,,,,,,,P116,001,2025-02-19_12h51.13.631,posner_endo_new1,2024.2.4,60.02491033530373,2025-02-19 12h51.20.867362 +0000,
cube_l.png,0.1,0.31,invalid,44,44,0,down,4.69502939999802,None,space,0.48533759999554604,None,,,,,0,44,44,44,,,,,711.2542624000052,,,,,,,,,,,,,711.2380657999893,711.2542624000052,711.2542624000052,711.2542624000052,715.9666101000039,,,,715.9726582999865,715.984051699983,715.984051699983,716.0327946000034,716.0330302999937,716.0489012000035,716.0489012000035,716.0489012000035,716.115893899987,716.549459700007,,,,,,,,down,4.69502939999802,None,space,0.48533759999554604,None,,,,,,,,,,,,,,,P116,001,2025-02-19_12h51.13.631,posner_endo_new1,2024.2.4,60.02491033530373,2025-02-19 12h51.20.867362 +0000,
cube_l.png,0.1,0.31,invalid,45,45,0,down,4.304172100004507,None,space,0.8176166000193916,None,,,,,0,45,45,45,,,,,716.5653555000026,,,,,,,,,,,,,716.5496372999914,716.5653555000026,716.5653555000026,716.5653555000026,720.878203500004,,,,720.8841747999832,720.895755400008,720.895755400008,720.9441404999816,720.9443761000002,720.9609325999918,720.9609325999918,720.9609325999918,721.0270263999992,721.7943837000057,,,,,,,,down,4.304172100004507,None,space,0.8176166000193916,None,,,,,,,,,,,,,,,P116,001,2025-02-19_12h51.13.631,posner_endo_new1,2024.2.4,60.02491033530373,2025-02-19 12h51.20.867362 +0000,
cube_r.png,0.1,0.31,valid,46,46,0,down,1.923659200023394,None,space,1.0149630999949295,None,,,,,0,46,46,46,,,,,721.809453599999,,,,,,,,,,,,,721.7945585999987,721.809453599999,721.809453599999,721.809453599999,723.7422568000038,,,,723.7482542000071,723.7598551999836,723.7598551999836,723.8077505999827,723.8079902000027,723.8246931000031,723.8246931000031,723.8246931000031,723.9079352999979,724.8410012999957,,,,,,,,down,1.923659200023394,None,space,1.0149630999949295,None,,,,,,,,,,,,,,,P116,001,2025-02-19_12h51.13.631,posner_endo_new1,2024.2.4,60.02491033530373,2025-02-19 12h51.20.867362 +0000,
cube_l.png,0.1,-0.31,valid,47,47,0,down,4.259658499999205,None,space,0.8963530999899376,None,,,,,0,47,47,47,,,,,724.8570425999933,,,,,,,,,,,,,724.8411799999885,724.8570425999933,724.8570425999933,724.8570425999933,729.1196859999909,,,,729.1256198000046,729.1373946999956,729.1373946999956,729.1857653000043,729.185997499997,729.2024944000004,729.2024944000004,729.2024944000004,729.2685263000021,730.1024996000051,,,,,,,,down,4.259658499999205,None,space,0.8963530999899376,None,,,,,,,,,,,,,,,P116,001,2025-02-19_12h51.13.631,posner_endo_new1,2024.2.4,60.02491033530373,2025-02-19 12h51.20.867362 +0000,
cube_r.png,0.1,-0.31,invalid,48,48,0,down,1.774818600009894,None,space,0.4325496000237763,None,,,,,0,48,48,48,,,,,730.1183700999827,,,,,,,,,,,,,730.1026771999896,730.1183700999827,730.1183700999827,730.1183700999827,731.9005380999879,,,,731.9065296000044,731.9180825999938,731.9180825999938,731.9660697999934,731.96630249999,731.9829995000036,731.9829995000036,731.9829995000036,732.0497538000054,732.4168030000001,,,,,,,,down,1.774818600009894,None,space,0.4325496000237763,None,,,,,,,,,,,,,,,P116,001,2025-02-19_12h51.13.631,posner_endo_new1,2024.2.4,60.02491033530373,2025-02-19 12h51.20.867362 +0000,
cube_r.png,0.1,10,catch,49,49,0,down,1.9488113999832422,None,None,,,,,,,0,49,49,49,,,,,732.43246489999,,,,,,,,,,,,,732.4169786999992,732.43246489999,732.43246489999,732.43246489999,734.398051199998,,,,734.404223599995,734.4156124999863,734.4156124999863,734.4638943999889,734.4641347999859,734.4804089999816,734.4804089999816,734.4804089999816,734.5634825000016,737.4779871999926,,,,736.5783411999873,737.4933787999908,737.4933787999908,737.4933787999908,down,1.9488113999832422,None,None,,,,,,,,,,,,,,,,,P116,001,2025-02-19_12h51.13.631,posner_endo_new1,2024.2.4,60.02491033530373,2025-02-19 12h51.20.867362 +0000,
cube_l.png,0.1,-0.31,valid,50,50,0,down,1.9597547999874223,None,space,0.3853469000023324,None,,,,,0,50,50,50,,,,,737.4933787999908,,,,,,,,,,,,,737.4781575000088,737.4933787999908,737.4933787999908,737.4933787999908,739.4595109999937,,,,739.4655641999852,739.4772226999921,739.4772226999921,739.5249140000087,739.5251477999846,739.5420557000034,739.5420557000034,739.5420557000034,739.6246711999993,739.9423880999966,,,,,,,,down,1.9597547999874223,None,space,0.3853469000023324,None,,,,,,,,,,,,,,,P116,001,2025-02-19_12h51.13.631,posner_endo_new1,2024.2.4,60.02491033530373,2025-02-19 12h51.20.867362 +0000,
cube_l.png,0.1,-0.31,valid,51,51,0,down,1.927398900006665,None,space,0.6013413000036962,None,,,,,0,51,51,51,,,,,739.9581722999865,,,,,,,,,,,,,739.9425692000077,739.9581722999865,739.9581722999865,739.9581722999865,741.8901869999827,,,,741.8961129999952,741.9077376000059,741.9077376000059,741.9559706999862,741.9562070999818,741.9723110999912,741.9723110999912,741.9723110999912,742.0558357999835,742.5898035999853,,,,,,,,down,1.927398900006665,None,space,0.6013413000036962,None,,,,,,,,,,,,,,,P116,001,2025-02-19_12h51.13.631,posner_endo_new1,2024.2.4,60.02491033530373,2025-02-19 12h51.20.867362 +0000,
cube_r.png,0.1,-0.31,invalid,52,52,0,down,2.080514100001892,None,space,0.36650509998435155,None,,,,,0,52,52,52,,,,,742.6054521999904,,,,,,,,,,,,,742.5899788000097,742.6054521999904,742.6054521999904,742.6054521999904,744.6875381999998,,,,744.6934418999881,744.7048233000096,744.7048233000096,744.753043899982,744.7532758000016,744.769784700009,744.769784700009,744.769784700009,744.8526872000075,745.1371065999847,,,,,,,,down,2.080514100001892,None,space,0.36650509998435155,None,,,,,,,,,,,,,,,P116,001,2025-02-19_12h51.13.631,posner_endo_new1,2024.2.4,60.02491033530373,2025-02-19 12h51.20.867362 +0000,
cube_l.png,0.1,-0.31,valid,53,53,0,down,2.0760074999998324,None,space,0.3462007000052836,None,,,,,0,53,53,53,,,,,745.1528654999856,,,,,,,,,,,,,745.1372856000089,745.1528654999856,745.1528654999856,745.1528654999856,747.2344915999856,,,,747.2404817999923,747.2522251000046,747.2522251000046,747.3009794999962,747.3012107000104,747.3171625999967,747.3171625999967,747.3171625999967,747.3839548999968,747.6678314000019,,,,,,,,down,2.0760074999998324,None,space,0.3462007000052836,None,,,,,,,,,,,,,,,P116,001,2025-02-19_12h51.13.631,posner_endo_new1,2024.2.4,60.02491033530373,2025-02-19 12h51.20.867362 +0000,
cube_r.png,0.1,10,catch,54,54,0,down,1.6013749999983702,None,None,,,,,,,0,54,54,54,,,,,747.6837383999955,,,,,,,,,,,,,747.6680054999888,747.6837383999955,747.6837383999955,747.6837383999955,749.2989511000051,,,,749.3048110000091,749.3164495000092,749.3164495000092,749.365064499987,749.3652948999952,749.381602599984,749.381602599984,749.381602599984,749.4483826000069,752.3791964999982,,,,751.4631656999991,752.3953484999947,752.3953484999947,752.3953484999947,down,1.6013749999983702,None,None,,,,,,,,,,,,,,,,,P116,001,2025-02-19_12h51.13.631,posner_endo_new1,2024.2.4,60.02491033530373,2025-02-19 12h51.20.867362 +0000,
cube_l.png,0.1,0.31,invalid,55,55,0,down,2.7622229999979027,None,space,0.3354166999924928,None,,,,,0,55,55,55,,,,,752.3953484999947,,,,,,,,,,,,,752.3793707999866,752.3953484999947,752.3953484999947,752.3953484999947,755.1596306999854,,,,755.1657118999865,755.1773105000029,755.1773105000029,755.2259181999834,755.2261532999983,755.2423164999927,755.2423164999927,755.2423164999927,755.3085773999919,755.5931047000049,,,,,,,,down,2.7622229999979027,None,space,0.3354166999924928,None,,,,,,,,,,,,,,,P116,001,2025-02-19_12h51.13.631,posner_endo_new1,2024.2.4,60.02491033530373,2025-02-19 12h51.20.867362 +0000,
cube_l.png,0.1,-0.31,valid,56,56,0,down,1.8683926000085194,None,space,0.6624606999976095,None,,,,,0,56,56,56,,,,,755.6087815999927,,,,,,,,,,,,,755.5932825999917,755.6087815999927,755.6087815999927,755.6087815999927,757.4910011999891,,,,757.4970060999913,757.5085867999878,757.5085867999878,757.5564790999924,757.5567119999905,757.5735421999998,757.5735421999998,757.5735421999998,757.6399186000053,758.240332299989,,,,,,,,down,1.8683926000085194,None,space,0.6624606999976095,None,,,,,,,,,,,,,,,P116,001,2025-02-19_12h51.13.631,posner_endo_new1,2024.2.4,60.02491033530373,2025-02-19 12h51.20.867362 +0000,
cube_r.png,0.1,0.31,valid,57,57,0,down,1.8293192999844905,None,space,0.5985758000169881,None,,,,,0,57,57,57,,,,,758.2559907000104,,,,,,,,,,,,,758.240507599985,758.2559907000104,758.2559907000104,758.2559907000104,760.0885074999824,,,,760.0944802000013,760.1061082000087,760.1061082000087,760.1541675000044,760.154398499988,760.170424299984,760.170424299984,760.170424299984,760.2540990999842,760.7709107999981,,,,,,,,down,1.8293192999844905,None,space,0.5985758000169881,None,,,,,,,,,,,,,,,P116,001,2025-02-19_12h51.13.631,posner_endo_new1,2024.2.4,60.02491033530373,2025-02-19 12h51.20.867362 +0000,
cube_r.png,0.1,-0.31,invalid,58,58,0,down,2.0825700999994297,None,space,0.3747972999990452,None,,,,,0,58,58,58,,,,,760.7868801000004,,,,,,,,,,,,,760.7710882000101,760.7868801000004,760.7868801000004,760.7868801000004,762.8853578999988,,,,762.8913472999993,762.9030948999862,762.9030948999862,762.9513441000017,762.9515798999928,762.9677851999877,762.9677851999877,762.9677851999877,763.051054999989,763.3516336999892,,,,,,,,down,2.0825700999994297,None,space,0.3747972999990452,None,,,,,,,,,,,,,,,P116,001,2025-02-19_12h51.13.631,posner_endo_new1,2024.2.4,60.02491033530373,2025-02-19 12h51.20.867362 +0000,
cube_l.png,0.1,0.31,invalid,59,59,0,down,1.573674499988556,None,space,0.3737651999981608,None,,,,,0,59,59,59,,,,,763.3675226999912,,,,,,,,,,,,,763.3518091999867,763.3675226999912,763.3675226999912,763.3675226999912,764.9495609999867,,,,764.9555288999982,764.9672280999948,764.9672280999948,765.0157395999995,765.0159706999839,765.0323734999984,765.0323734999984,765.0323734999984,765.098604800005,765.4164832000097,,,,,,,,down,1.573674499988556,None,space,0.3737651999981608,None,,,,,,,,,,,,,,,P116,001,2025-02-19_12h51.13.631,posner_endo_new1,2024.2.4,60.02491033530373,2025-02-19 12h51.20.867362 +0000,
,,,,,,,,,,,,,,,,,,,,,,,,,,,,,,,,,,,,,,,,,,,,,,,,,,,,,,,,,,,,,,,,,,,,,765.4165992999915,765.4322334000026,765.4322334000026,825.437382300006,839.007600699988,space,73.57387939997716,None,,,,,,,P116,001,2025-02-19_12h51.13.631,posner_endo_new1,2024.2.4,60.02491033530373,2025-02-19 12h51.20.867362 +0000,
,,,,,,,,,,,,,,,,,,,,,,,,,,,,,,,,,,839.0076709999994,839.0232055000088,842.0336998999992,842.0040174000023,,,,,,,,,,,,,,,,,,,,,,,,,,,,,,,,,,,,,,,,,,,,,,P116,001,2025-02-19_12h51.13.631,posner_endo_new1,2024.2.4,60.02491033530373,2025-02-19 12h51.20.867362 +0000,
cube_l.png,0.1,10,catch,0,0,0,up,2.251577700022608,None,None,,,,,,,,,,,0,0,0,0,842.0336998999992,,,,,,,,,,,,,842.0227434999833,842.0336998999992,842.0336998999992,842.0336998999992,844.3020763999957,,,,844.3086298999842,844.3201361999963,844.3201361999963,844.3683198000072,844.3685543999891,844.3848039000004,844.3848039000004,844.3848039000004,844.451493600005,847.3822632000083,,,,846.4660051999963,847.3983589999843,847.3983589999843,847.3983589999843,,,,,,,,,,,,,,,up,2.251577700022608,None,None,,,P116,001,2025-02-19_12h51.13.631,posner_endo_new1,2024.2.4,60.02491033530373,2025-02-19 12h51.20.867362 +0000,
cube_l.png,0.1,10,catch,1,1,0,up,1.415002000023378,None,None,,,,,,,,,,,0,1,1,1,847.3983589999843,,,,,,,,,,,,,847.3824350000068,847.3983589999843,847.3983589999843,847.3983589999843,848.8146516999986,,,,848.8207727999834,848.8326249000093,848.8326249000093,848.8803394999995,848.8805745999853,848.896859600005,848.896859600005,848.896859600005,848.9800355999905,851.8943312999909,,,,850.9945993000001,851.9105512000096,851.9105512000096,851.9105512000096,,,,,,,,,,,,,,,up,1.415002000023378,None,None,,,P116,001,2025-02-19_12h51.13.631,posner_endo_new1,2024.2.4,60.02491033530373,2025-02-19 12h51.20.867362 +0000,
cube_l.png,0.1,0.31,invalid,2,2,0,up,0.11870609998004511,None,space,0.45109790001879446,None,,,,,,,,,0,2,2,2,851.9105512000096,,,,,,,,,,,,,851.894501200004,851.9105512000096,851.9105512000096,851.9105512000096,852.0444275999907,,,,852.0505133999977,852.0622109000105,852.0622109000105,852.1099731999857,852.1102066999883,852.1266995999904,852.1266995999904,852.1266995999904,852.2101447999885,852.5938519999909,,,,,,,,,,,,,,,,,,,,,,up,0.11870609998004511,None,space,0.45109790001879446,None,P116,001,2025-02-19_12h51.13.631,posner_endo_new1,2024.2.4,60.02491033530373,2025-02-19 12h51.20.867362 +0000,
cube_l.png,0.1,0.31,invalid,3,3,0,up,1.5397607000195421,None,space,0.5861797999823466,None,,,,,,,,,0,3,3,3,852.6098300000012,,,,,,,,,,,,,852.5940349999873,852.6098300000012,852.6098300000012,852.6098300000012,854.1588301000011,,,,854.1649769000069,854.1766942999966,854.1766942999966,854.2248428000021,854.2250749999948,854.240962699987,854.240962699987,854.240962699987,854.3080960999941,854.8415676000004,,,,,,,,,,,,,,,,,,,,,,up,1.5397607000195421,None,space,0.5861797999823466,None,P116,001,2025-02-19_12h51.13.631,posner_endo_new1,2024.2.4,60.02491033530373,2025-02-19 12h51.20.867362 +0000,
cube_l.png,0.1,-0.31,valid,4,4,0,up,3.5252350000082515,None,space,0.41392629998154007,None,,,,,,,,,0,4,4,4,854.8567965999828,,,,,,,,,,,,,854.8417494999885,854.8567965999828,854.8567965999828,854.8567965999828,858.387473699986,,,,858.3937618999917,858.4055049000017,858.4055049000017,858.4536179999996,858.4538506999961,858.4703720999823,858.4703720999823,858.4703720999823,858.53711569999,858.8874691000092,,,,,,,,,,,,,,,,,,,,,,up,3.5252350000082515,None,space,0.41392629998154007,None,P116,001,2025-02-19_12h51.13.631,posner_endo_new1,2024.2.4,60.02491033530373,2025-02-19 12h51.20.867362 +0000,
cube_r.png,0.1,-0.31,invalid,5,5,0,up,4.238302400015527,None,space,0.5437011999893002,None,,,,,,,,,0,5,5,5,858.9032535000006,,,,,,,,,,,,,858.8876564000093,858.9032535000006,858.9032535000006,858.9032535000006,863.1495144999935,,,,863.1561172000074,863.1680127999862,863.1680127999862,863.2156129000068,863.215844099992,863.2316673999885,863.2316673999885,863.2316673999885,863.2992961999844,863.7821648999816,,,,,,,,,,,,,,,,,,,,,,up,4.238302400015527,None,space,0.5437011999893002,None,P116,001,2025-02-19_12h51.13.631,posner_endo_new1,2024.2.4,60.02491033530373,2025-02-19 12h51.20.867362 +0000,
cube_r.png,0.1,0.31,valid,6,6,0,up,3.366887600015616,None,space,0.607836099981796,None,,,,,,,,,0,6,6,6,863.7985617000086,,,,,,,,,,,,,863.7823487999849,863.7985617000086,863.7985617000086,863.7985617000086,867.1784033000004,,,,867.1844576000003,867.1959965999995,867.1959965999995,867.2447100999998,867.2449471,867.2612946000008,867.2612946000008,867.2612946000008,867.3282863000059,867.8782520999957,,,,,,,,,,,,,,,,,,,,,,up,3.366887600015616,None,space,0.607836099981796,None,P116,001,2025-02-19_12h51.13.631,posner_endo_new1,2024.2.4,60.02491033530373,2025-02-19 12h51.20.867362 +0000,
cube_r.png,0.1,-0.31,invalid,7,7,0,up,0.895799599995371,None,space,0.8083943999954499,None,,,,,,,,,0,7,7,7,867.8937045999919,,,,,,,,,,,,,867.8784315999947,867.8937045999919,867.8937045999919,867.8937045999919,868.7935901999881,,,,868.7997314000095,868.8115072000073,868.8115072000073,868.8597959000035,868.8600303999847,868.8759408000042,868.8759408000042,868.8759408000042,868.9429327999824,869.693097099982,,,,,,,,,,,,,,,,,,,,,,up,0.895799599995371,None,space,0.8083943999954499,None,P116,001,2025-02-19_12h51.13.631,posner_endo_new1,2024.2.4,60.02491033530373,2025-02-19 12h51.20.867362 +0000,
cube_l.png,0.1,-0.31,valid,8,8,0,up,2.0246730000071693,None,space,0.4096733999904245,None,,,,,,,,,0,8,8,8,869.7087976000039,,,,,,,,,,,,,869.6932865999988,869.7087976000039,869.7087976000039,869.7087976000039,871.7410443999979,,,,871.7470872999984,871.7587847999821,871.7587847999821,871.806849399989,871.8070867999922,871.8234586000035,871.8234586000035,871.8234586000035,871.8898973999894,872.2404681000044,,,,,,,,,,,,,,,,,,,,,,up,2.0246730000071693,None,space,0.4096733999904245,None,P116,001,2025-02-19_12h51.13.631,posner_endo_new1,2024.2.4,60.02491033530373,2025-02-19 12h51.20.867362 +0000,
cube_r.png,0.1,-0.31,invalid,9,9,0,up,1.365564700012328,None,space,0.39099030001671053,None,,,,,,,,,0,9,9,9,872.256183599995,,,,,,,,,,,,,872.2406576999929,872.256183599995,872.256183599995,872.256183599995,873.6225033999945,,,,873.6285819000041,873.6403282000101,873.6403282000101,873.6882205999864,873.6884534999845,873.7045673000102,873.7045673000102,873.7045673000102,873.7876719000051,874.1052144999849,,,,,,,,,,,,,,,,,,,,,,up,1.365564700012328,None,space,0.39099030001671053,None,P116,001,2025-02-19_12h51.13.631,posner_endo_new1,2024.2.4,60.02491033530373,2025-02-19 12h51.20.867362 +0000,
cube_l.png,0.1,0.31,invalid,10,10,0,up,4.324143500009086,None,space,0.3196764999884181,None,,,,,,,,,0,10,10,10,874.1211583999975,,,,,,,,,,,,,874.1053977999836,874.1211583999975,874.1211583999975,874.1211583999975,878.4509450999903,,,,878.457388699986,878.4691526000097,878.4691526000097,878.5167038000072,878.516932700004,878.5332932999881,878.5332932999881,878.5332932999881,878.6163622000022,878.8669081999979,,,,,,,,,,,,,,,,,,,,,,up,4.324143500009086,None,space,0.3196764999884181,None,P116,001,2025-02-19_12h51.13.631,posner_endo_new1,2024.2.4,60.02491033530373,2025-02-19 12h51.20.867362 +0000,
cube_r.png,0.1,-0.31,invalid,11,11,0,up,3.4103082999936305,None,space,0.3968975000025239,None,,,,,,,,,0,11,11,11,878.8830222999968,,,,,,,,,,,,,878.8671010999824,878.8830222999968,878.8830222999968,878.8830222999968,882.2969082999916,,,,882.303058999998,882.3147549999994,882.3147549999994,882.3627276000043,882.3629618999839,882.3793822999869,882.3793822999869,882.3793822999869,882.4625557999825,882.7796024999989,,,,,,,,,,,,,,,,,,,,,,up,3.4103082999936305,None,space,0.3968975000025239,None,P116,001,2025-02-19_12h51.13.631,posner_endo_new1,2024.2.4,60.02491033530373,2025-02-19 12h51.20.867362 +0000,
cube_r.png,0.1,0.31,valid,12,12,0,up,2.0420014999981504,None,space,0.3391066000040155,None,,,,,,,,,0,12,12,12,882.7956455000094,,,,,,,,,,,,,882.7797918999859,882.7956455000094,882.7956455000094,882.7956455000094,884.8443125000049,,,,884.8503883999947,884.8619967999985,884.8619967999985,884.9101867999998,884.9104184999887,884.9268244999985,884.9268244999985,884.9268244999985,885.0095871000085,885.276978799986,,,,,,,,,,,,,,,,,,,,,,up,2.0420014999981504,None,space,0.3391066000040155,None,P116,001,2025-02-19_12h51.13.631,posner_endo_new1,2024.2.4,60.02491033530373,2025-02-19 12h51.20.867362 +0000,
cube_l.png,0.1,10,catch,13,13,0,up,3.144290899974294,None,None,,,,,,,,,,,0,13,13,13,885.2930250999925,,,,,,,,,,,,,885.27716279999,885.2930250999925,885.2930250999925,885.2930250999925,888.4405498999986,,,,888.4467061999894,888.4583833999932,888.4583833999932,888.5063054999919,888.5065360000008,888.5229615999851,888.5229615999851,888.5229615999851,888.6062570000067,891.5198705999937,,,,890.6209323999938,891.5365812999953,891.5365812999953,891.5365812999953,,,,,,,,,,,,,,,up,3.144290899974294,None,None,,,P116,001,2025-02-19_12h51.13.631,posner_endo_new1,2024.2.4,60.02491033530373,2025-02-19 12h51.20.867362 +0000,
cube_r.png,0.1,-0.31,invalid,14,14,0,up,0.2128194000106305,None,space,0.5501828000124078,None,,,,,,,,,0,14,14,14,891.5365812999953,,,,,,,,,,,,,891.5200538999925,891.5365812999953,891.5365812999953,891.5365812999953,891.754125300009,,,,891.7601715000055,891.7717300000077,891.7717300000077,891.819477299985,891.8197089000023,891.8362523000105,891.8362523000105,891.8362523000105,891.9193580999854,892.4032874999975,,,,,,,,,,,,,,,,,,,,,,up,0.2128194000106305,None,space,0.5501828000124078,None,P116,001,2025-02-19_12h51.13.631,posner_endo_new1,2024.2.4,60.02491033530373,2025-02-19 12h51.20.867362 +0000,
cube_l.png,0.1,-0.31,valid,15,15,0,up,1.0583191000041552,None,space,0.7693402000004426,None,,,,,,,,,0,15,15,15,892.4190245000063,,,,,,,,,,,,,892.4034696999879,892.4190245000063,892.4190245000063,892.4190245000063,893.4851473000017,,,,893.4912297999836,893.5028226999857,893.5028226999857,893.5511311999871,893.5513673000096,893.5678322000022,893.5678322000022,893.5678322000022,893.6346030999848,894.3514055999985,,,,,,,,,,,,,,,,,,,,,,up,1.0583191000041552,None,space,0.7693402000004426,None,P116,001,2025-02-19_12h51.13.631,posner_endo_new1,2024.2.4,60.02491033530373,2025-02-19 12h51.20.867362 +0000,
cube_r.png,0.1,10,catch,16,16,0,up,1.342816699994728,None,None,,,,,,,,,,,0,16,16,16,894.366534300003,,,,,,,,,,,,,894.3515845999937,894.366534300003,894.366534300003,894.366534300003,895.7164338000002,,,,895.7231136999908,895.7349522000004,895.7349522000004,895.7824446999875,895.7826778999879,895.7992818999919,895.7992818999919,895.7992818999919,895.8819570000051,898.7964995999937,,,,897.8967723000096,898.8119849000068,898.8119849000068,898.8119849000068,,,,,,,,,,,,,,,up,1.342816699994728,None,None,,,P116,001,2025-02-19_12h51.13.631,posner_endo_new1,2024.2.4,60.02491033530373,2025-02-19 12h51.20.867362 +0000,
cube_r.png,0.1,10,catch,17,17,0,up,1.9053338000085205,None,None,,,,,,,,,,,0,17,17,17,898.8119849000068,,,,,,,,,,,,,898.7966801000002,898.8119849000068,898.8119849000068,898.8119849000068,900.7274656000081,,,,900.7340402999835,900.745576699992,900.745576699992,900.7940166000044,900.7942504000093,900.8099099999818,900.8099099999818,900.8099099999818,900.8766807999928,903.8077622999845,,,,902.8918372000044,903.8242105999961,903.8242105999961,903.8242105999961,,,,,,,,,,,,,,,up,1.9053338000085205,None,None,,,P116,001,2025-02-19_12h51.13.631,posner_endo_new1,2024.2.4,60.02491033530373,2025-02-19 12h51.20.867362 +0000,
cube_l.png,0.1,0.31,invalid,18,18,0,up,0.5416090000071563,None,space,0.42121509998105466,None,,,,,,,,,0,18,18,18,903.8242105999961,,,,,,,,,,,,,903.807933300006,903.8242105999961,903.8242105999961,903.8242105999961,904.374330599996,,,,904.3809256000095,904.3928060999897,904.3928060999897,904.4401930999884,904.4404253000102,904.4567259000032,904.4567259000032,904.4567259000032,904.5399880000041,904.8904993000033,,,,,,,,,,,,,,,,,,,,,,up,0.5416090000071563,None,space,0.42121509998105466,None,P116,001,2025-02-19_12h51.13.631,posner_endo_new1,2024.2.4,60.02491033530373,2025-02-19 12h51.20.867362 +0000,
cube_l.png,0.1,10,catch,19,19,0,up,2.395182600012049,None,None,,,,,,,,,,,0,19,19,19,904.9058874000038,,,,,,,,,,,,,904.8906788000022,904.9058874000038,904.9058874000038,904.9058874000038,907.3045948999934,,,,907.3107840000011,907.3225345000101,907.3225345000101,907.3706227999937,907.3708548999857,907.3868488000007,907.3868488000007,907.3868488000007,907.4535434999852,910.3846393999993,,,,909.4682636999933,910.4007603999926,910.4007603999926,910.4007603999926,,,,,,,,,,,,,,,up,2.395182600012049,None,None,,,P116,001,2025-02-19_12h51.13.631,posner_endo_new1,2024.2.4,60.02491033530373,2025-02-19 12h51.20.867362 +0000,
cube_l.png,0.1,0.31,invalid,20,20,0,up,0.1086836000031326,None,space,0.4270399999804795,None,,,,,,,,,0,20,20,20,910.4007603999926,,,,,,,,,,,,,910.3848134999862,910.4007603999926,910.4007603999926,910.4007603999926,910.5179775999859,,,,910.5240969999868,910.5355225999956,910.5355225999956,910.5839759999944,910.5842080999864,910.6005460000015,910.6005460000015,910.6005460000015,910.6838402999856,911.0341541999951,,,,,,,,,,,,,,,,,,,,,,up,0.1086836000031326,None,space,0.4270399999804795,None,P116,001,2025-02-19_12h51.13.631,posner_endo_new1,2024.2.4,60.02491033530373,2025-02-19 12h51.20.867362 +0000,
cube_l.png,0.1,-0.31,valid,21,21,0,up,2.2918894000176806,None,space,0.4557552000042051,None,,,,,,,,,0,21,21,21,911.0500444000063,,,,,,,,,,,,,911.0343364999862,911.0500444000063,911.0500444000063,911.0500444000063,913.3478848999948,,,,913.3539992999868,913.3655782999995,913.3655782999995,913.4144738999894,913.4147071999905,913.4309607000032,913.4309607000032,913.4309607000032,913.4976166999841,913.8977479999885,,,,,,,,,,,,,,,,,,,,,,up,2.2918894000176806,None,space,0.4557552000042051,None,P116,001,2025-02-19_12h51.13.631,posner_endo_new1,2024.2.4,60.02491033530373,2025-02-19 12h51.20.867362 +0000,
cube_r.png,0.1,0.31,valid,22,22,0,up,1.9166083000018261,None,space,0.38990899999043904,None,,,,,,,,,0,22,22,22,913.9132646000071,,,,,,,,,,,,,913.8979460999835,913.9132646000071,913.9132646000071,913.9132646000071,915.8458315999887,,,,915.8520957999863,915.8638068999862,915.8638068999862,915.9115222999826,915.9117582000035,915.9282267999952,915.9282267999952,915.9282267999952,915.9944012000051,916.3287975999992,,,,,,,,,,,,,,,,,,,,,,up,1.9166083000018261,None,space,0.38990899999043904,None,P116,001,2025-02-19_12h51.13.631,posner_endo_new1,2024.2.4,60.02491033530373,2025-02-19 12h51.20.867362 +0000,
cube_r.png,0.1,-0.31,invalid,23,23,0,up,1.853371099976357,None,space,0.48177729998133145,None,,,,,,,,,0,23,23,23,916.3444547999825,,,,,,,,,,,,,916.3289789999835,916.3444547999825,916.3444547999825,916.3444547999825,918.2102033999981,,,,918.2162719999906,918.2279150999966,918.2279150999966,918.2762609999918,918.2764988999988,918.2926898000005,918.2926898000005,918.2926898000005,918.3757585999847,918.7762963999994,,,,,,,,,,,,,,,,,,,,,,up,1.853371099976357,None,space,0.48177729998133145,None,P116,001,2025-02-19_12h51.13.631,posner_endo_new1,2024.2.4,60.02491033530373,2025-02-19 12h51.20.867362 +0000,
cube_r.png,0.1,0.31,valid,24,24,0,up,2.277227299986407,None,space,0.40110790001926944,None,,,,,,,,,0,24,24,24,918.7921923999966,,,,,,,,,,,,,918.7764818999858,918.7921923999966,918.7921923999966,918.7921923999966,921.0740841999941,,,,921.0801394000009,921.0917942000087,921.0917942000087,921.1396989999921,921.139931999991,921.1558661999879,921.1558661999879,921.1558661999879,921.2396166999824,921.5734904999845,,,,,,,,,,,,,,,,,,,,,,up,2.277227299986407,None,space,0.40110790001926944,None,P116,001,2025-02-19_12h51.13.631,posner_endo_new1,2024.2.4,60.02491033530373,2025-02-19 12h51.20.867362 +0000,
cube_r.png,0.1,-0.31,invalid,25,25,0,up,1.912684500013711,None,space,0.37369559999206103,None,,,,,,,,,0,25,25,25,921.5888006000023,,,,,,,,,,,,,921.573673100007,921.5888006000023,921.5888006000023,921.5888006000023,923.5046626999974,,,,923.5107228999841,923.5223181000038,923.5223181000038,923.5704642999917,923.5706968999875,923.5871594999917,923.5871594999917,923.5871594999917,923.6538786999881,923.9710828000098,,,,,,,,,,,,,,,,,,,,,,up,1.912684500013711,None,space,0.37369559999206103,None,P116,001,2025-02-19_12h51.13.631,posner_endo_new1,2024.2.4,60.02491033530373,2025-02-19 12h51.20.867362 +0000,
cube_l.png,0.1,-0.31,valid,26,26,0,up,1.995626899995841,None,space,0.3669227999926079,None,,,,,,,,,0,26,26,26,923.9862038999854,,,,,,,,,,,,,923.9712645999971,923.9862038999854,923.9862038999854,923.9862038999854,925.98549620001,,,,925.9916053999914,926.0032004000095,926.0032004000095,926.0514884000004,926.0517237999884,926.0680624000088,926.0680624000088,926.0680624000088,926.1343484999961,926.4518666999938,,,,,,,,,,,,,,,,,,,,,,up,1.995626899995841,None,space,0.3669227999926079,None,P116,001,2025-02-19_12h51.13.631,posner_endo_new1,2024.2.4,60.02491033530373,2025-02-19 12h51.20.867362 +0000,
cube_r.png,0.1,0.31,valid,27,27,0,up,2.3539446000067983,None,space,0.2954868000233546,None,,,,,,,,,0,27,27,27,926.4676473999862,,,,,,,,,,,,,926.4520487999835,926.4676473999862,926.4676473999862,926.4676473999862,928.8324811999919,,,,928.8386177000066,928.8502958999889,928.8502958999889,928.8983581000066,928.8985955000098,928.9149554999894,928.9149554999894,928.9149554999894,928.9817190000031,929.2156285000092,,,,,,,,,,,,,,,,,,,,,,up,2.3539446000067983,None,space,0.2954868000233546,None,P116,001,2025-02-19_12h51.13.631,posner_endo_new1,2024.2.4,60.02491033530373,2025-02-19 12h51.20.867362 +0000,
cube_r.png,0.1,10,catch,28,28,0,up,2.23005149999517,None,None,,,,,,,,,,,0,28,28,28,929.2314841999905,,,,,,,,,,,,,929.2158092999889,929.2314841999905,929.2314841999905,929.2314841999905,931.4636455999862,,,,931.4702237999882,931.4821988999902,931.4821988999902,931.529171800008,931.5294083000044,931.5456054999959,931.5456054999959,931.5456054999959,931.6290287000011,934.5432599000051,,,,933.6435091999883,934.5592816999997,934.5592816999997,934.5592816999997,,,,,,,,,,,,,,,up,2.23005149999517,None,None,,,P116,001,2025-02-19_12h51.13.631,posner_endo_new1,2024.2.4,60.02491033530373,2025-02-19 12h51.20.867362 +0000,
cube_r.png,0.1,0.31,valid,29,29,0,up,2.2058953999949154,None,space,0.46055170000181533,None,,,,,,,,,0,29,29,29,934.5592816999997,,,,,,,,,,,,,934.543439400004,934.5592816999997,934.5592816999997,934.5592816999997,936.7741561000003,,,,936.7804324000026,936.7920250000025,936.7920250000025,936.8403684000077,936.8406062999857,936.8569712000026,936.8569712000026,936.8569712000026,936.9236123999872,937.3240567999892,,,,,,,,,,,,,,,,,,,,,,up,2.2058953999949154,None,space,0.46055170000181533,None,P116,001,2025-02-19_12h51.13.631,posner_endo_new1,2024.2.4,60.02491033530373,2025-02-19 12h51.20.867362 +0000,
cube_r.png,0.1,0.31,valid,30,30,0,up,2.2977429000020493,None,space,0.3695131999847945,None,,,,,,,,,0,30,30,30,937.3399894000031,,,,,,,,,,,,,937.3242366999912,937.3399894000031,937.3399894000031,937.3399894000031,939.6385024999909,,,,939.6446425000031,939.6564230000076,939.6564230000076,939.7042222000018,939.7044605999836,939.7206259999948,939.7206259999948,939.7206259999948,939.8035109000048,940.1039633000037,,,,,,,,,,,,,,,,,,,,,,up,2.2977429000020493,None,space,0.3695131999847945,None,P116,001,2025-02-19_12h51.13.631,posner_endo_new1,2024.2.4,60.02491033530373,2025-02-19 12h51.20.867362 +0000,
cube_l.png,0.1,-0.31,valid,31,31,0,up,2.2213896999892313,None,space,0.3715665000199806,None,,,,,,,,,0,31,31,31,940.1201985999942,,,,,,,,,,,,,940.1041448999895,940.1201985999942,940.1201985999942,940.1201985999942,942.3515915999888,,,,942.3578108999936,942.3696102999966,942.3696102999966,942.4182380999846,942.4184678999882,942.434646699985,942.434646699985,942.434646699985,942.501102899987,942.8184184999845,,,,,,,,,,,,,,,,,,,,,,up,2.2213896999892313,None,space,0.3715665000199806,None,P116,001,2025-02-19_12h51.13.631,posner_endo_new1,2024.2.4,60.02491033530373,2025-02-19 12h51.20.867362 +0000,
cube_r.png,0.1,0.31,valid,32,32,0,up,1.9399004000006244,None,space,0.399180799984606,None,,,,,,,,,0,32,32,32,942.8338048000005,,,,,,,,,,,,,942.8186046000046,942.8338048000005,942.8338048000005,942.8338048000005,944.7825278000091,,,,944.7887646000017,944.8004828999983,944.8004828999983,944.8490157999913,944.8492449999903,944.865486900002,944.865486900002,944.865486900002,944.9320831999939,945.2655422999815,,,,,,,,,,,,,,,,,,,,,,up,1.9399004000006244,None,space,0.399180799984606,None,P116,001,2025-02-19_12h51.13.631,posner_endo_new1,2024.2.4,60.02491033530373,2025-02-19 12h51.20.867362 +0000,
cube_r.png,0.1,-0.31,invalid,33,33,0,up,4.947793500003172,None,space,0.4073831000132486,None,,,,,,,,,0,33,33,33,945.2818675999879,,,,,,,,,,,,,945.2657293000084,945.2818675999879,945.2818675999879,945.2818675999879,950.2435304999817,,,,950.249819699995,950.261514599988,950.261514599988,950.3100025999884,950.3102358999895,950.3265641999897,950.3265641999897,950.3265641999897,950.3932556000073,950.7432096999837,,,,,,,,,,,,,,,,,,,,,,up,4.947793500003172,None,space,0.4073831000132486,None,P116,001,2025-02-19_12h51.13.631,posner_endo_new1,2024.2.4,60.02491033530373,2025-02-19 12h51.20.867362 +0000,
cube_r.png,0.1,10,catch,34,34,0,up,3.0383002999878954,None,None,,,,,,,,,,,0,34,34,34,950.7590748000075,,,,,,,,,,,,,950.7433899999887,950.7590748000075,950.7590748000075,950.7590748000075,953.8070934999851,,,,953.8132483999943,953.8246349999972,953.8246349999972,953.8730007999984,953.8732419000007,953.8897320000106,953.8897320000106,953.8897320000106,953.9561141000013,956.8871761999908,,,,955.9709094999998,956.9034226000076,956.9034226000076,956.9034226000076,,,,,,,,,,,,,,,up,3.0383002999878954,None,None,,,P116,001,2025-02-19_12h51.13.631,posner_endo_new1,2024.2.4,60.02491033530373,2025-02-19 12h51.20.867362 +0000,
cube_r.png,0.1,0.31,valid,35,35,0,up,1.1667676999932155,None,space,0.4279796999762766,None,,,,,,,,,0,35,35,35,956.9034226000076,,,,,,,,,,,,,956.8873514999868,956.9034226000076,956.9034226000076,956.9034226000076,958.0860715000017,,,,958.0922385999875,958.1039109999838,958.1039109999838,958.1520409999939,958.1522830000031,958.1687069000036,958.1687069000036,958.1687069000036,958.2352774000028,958.602277900005,,,,,,,,,,,,,,,,,,,,,,up,1.1667676999932155,None,space,0.4279796999762766,None,P116,001,2025-02-19_12h51.13.631,posner_endo_new1,2024.2.4,60.02491033530373,2025-02-19 12h51.20.867362 +0000,
cube_r.png,0.1,-0.31,invalid,36,36,0,up,3.7876008999883197,None,space,0.4629892000230029,None,,,,,,,,,0,36,36,36,958.6182168000087,,,,,,,,,,,,,958.6024599999946,958.6182168000087,958.6182168000087,958.6182168000087,962.4147246000066,,,,962.4208915999916,962.4327117000066,962.4327117000066,962.4808757999854,962.4811065999966,962.4971844000102,962.4971844000102,962.4971844000102,962.5641478000034,962.9645552999864,,,,,,,,,,,,,,,,,,,,,,up,3.7876008999883197,None,space,0.4629892000230029,None,P116,001,2025-02-19_12h51.13.631,posner_endo_new1,2024.2.4,60.02491033530373,2025-02-19 12h51.20.867362 +0000,
cube_l.png,0.1,0.31,invalid,37,37,0,up,14.273998799995752,None,space,1.513097499992,None,,,,,,,,,0,37,37,37,962.9796819000039,,,,,,,,,,,,,962.9647380000097,962.9796819000039,962.9796819000039,962.9796819000039,977.2661100999976,,,,977.2730470999959,977.2846314999915,977.2846314999915,977.3321192000003,977.3323574000096,977.3490656999929,977.3490656999929,977.3490656999929,977.4155341000005,978.8649801999854,,,,,,,,,,,,,,,,,,,,,,up,14.273998799995752,None,space,1.513097499992,None,P116,001,2025-02-19_12h51.13.631,posner_endo_new1,2024.2.4,60.02491033530373,2025-02-19 12h51.20.867362 +0000,
cube_l.png,0.1,0.31,invalid,38,38,0,up,5.508818800008157,None,space,0.5355122000037227,None,,,,,,,,,0,38,38,38,978.8806354999833,,,,,,,,,,,,,978.8651637999865,978.8806354999833,978.8806354999833,978.8806354999833,984.3923560999974,,,,984.3987346999929,984.4104013000033,984.4104013000033,984.4583278000064,984.4585619999852,984.4745430999901,984.4745430999901,984.4745430999901,984.5410539000004,985.0252541000082,,,,,,,,,,,,,,,,,,,,,,up,5.508818800008157,None,space,0.5355122000037227,None,P116,001,2025-02-19_12h51.13.631,posner_endo_new1,2024.2.4,60.02491033530373,2025-02-19 12h51.20.867362 +0000,
cube_r.png,0.1,0.31,valid,39,39,0,up,2.5257273000024725,None,space,0.4057316999824252,None,,,,,,,,,0,39,39,39,985.040643699991,,,,,,,,,,,,,985.0254341999826,985.040643699991,985.040643699991,985.040643699991,987.5722210000094,,,,987.5783100999834,987.5899777000013,987.5899777000013,987.6384029999899,987.6386350999819,987.6549664000049,987.6549664000049,987.6549664000049,987.721615699993,988.0722248000093,,,,,,,,,,,,,,,,,,,,,,up,2.5257273000024725,None,space,0.4057316999824252,None,P116,001,2025-02-19_12h51.13.631,posner_endo_new1,2024.2.4,60.02491033530373,2025-02-19 12h51.20.867362 +0000,
cube_l.png,0.1,0.31,invalid,40,40,0,up,2.8219893999921624,None,space,0.5986644999939017,None,,,,,,,,,0,40,40,40,988.0878665999917,,,,,,,,,,,,,988.0724084000103,988.0878665999917,988.0878665999917,988.0878665999917,990.9189558000071,,,,990.9250258000102,990.9366833000095,990.9366833000095,990.9849829000013,990.9852141999872,991.0016836999857,991.0016836999857,991.0016836999857,991.0848890999914,991.6021221999836,,,,,,,,,,,,,,,,,,,,,,up,2.8219893999921624,None,space,0.5986644999939017,None,P116,001,2025-02-19_12h51.13.631,posner_endo_new1,2024.2.4,60.02491033530373,2025-02-19 12h51.20.867362 +0000,
cube_l.png,0.1,10,catch,41,41,0,up,2.547968900005799,None,None,,,,,,,,,,,0,41,41,41,991.617786399991,,,,,,,,,,,,,991.6023064999899,991.617786399991,991.617786399991,991.617786399991,994.1826736000075,,,,994.1888045000087,994.200408100005,994.200408100005,994.2482296999951,994.2484683000075,994.2649910000036,994.2649910000036,994.2649910000036,994.347815999994,997.2619471999933,,,,996.3629632999946,997.2786567999865,997.2786567999865,997.2786567999865,,,,,,,,,,,,,,,up,2.547968900005799,None,None,,,P116,001,2025-02-19_12h51.13.631,posner_endo_new1,2024.2.4,60.02491033530373,2025-02-19 12h51.20.867362 +0000,
cube_l.png,0.1,-0.31,valid,42,42,0,up,0.3184700999991037,None,space,0.5062618999800179,None,,,,,,,,,0,42,42,42,997.2786567999865,,,,,,,,,,,,,997.2621181999857,997.2786567999865,997.2786567999865,997.2786567999865,997.6123024999979,,,,997.6184363999928,997.6301960999845,997.6301960999845,997.6777847000048,997.6780182000075,997.6947897000064,997.6947897000064,997.6947897000064,997.7609137999825,998.2118307999917,,,,,,,,,,,,,,,,,,,,,,up,0.3184700999991037,None,space,0.5062618999800179,None,P116,001,2025-02-19_12h51.13.631,posner_endo_new1,2024.2.4,60.02491033530373,2025-02-19 12h51.20.867362 +0000,
cube_l.png,0.1,10,catch,43,43,0,up,1.6813456999952905,None,None,,,,,,,,,,,0,43,43,43,998.2277858000016,,,,,,,,,,,,,998.2120108999952,998.2277858000016,998.2277858000016,998.2277858000016,999.9101440999948,,,,999.9162836000032,999.9279687000089,999.9279687000089,999.9757801000087,999.9760128000053,999.992547700007,999.992547700007,999.992547700007,1000.0591934999975,1002.9902143999934,,,,1002.0736888000101,1003.0061729000008,1003.0061729000008,1003.0061729000008,,,,,,,,,,,,,,,up,1.6813456999952905,None,None,,,P116,001,2025-02-19_12h51.13.631,posner_endo_new1,2024.2.4,60.02491033530373,2025-02-19 12h51.20.867362 +0000,
cube_l.png,0.1,0.31,invalid,44,44,0,up,2.1435453000012785,None,space,0.42086909999488853,None,,,,,,,,,0,44,44,44,1003.0061729000008,,,,,,,,,,,,,1002.9903857999889,1003.0061729000008,1003.0061729000008,1003.0061729000008,1005.1546866999997,,,,1005.1608043999877,1005.1724773999886,1005.1724773999886,1005.2204153999919,1005.2206509000098,1005.2371165000077,1005.2371165000077,1005.2371165000077,1005.3204473000078,1005.6703016999818,,,,,,,,,,,,,,,,,,,,,,up,2.1435453000012785,None,space,0.42086909999488853,None,P116,001,2025-02-19_12h51.13.631,posner_endo_new1,2024.2.4,60.02491033530373,2025-02-19 12h51.20.867362 +0000,
cube_l.png,0.1,0.31,invalid,45,45,0,up,2.446469000016805,None,space,0.5877303000015672,None,,,,,,,,,0,45,45,45,1005.6868048000033,,,,,,,,,,,,,1005.6704845000058,1005.6868048000033,1005.6868048000033,1005.6868048000033,1008.1349621999834,,,,1008.1409167000093,1008.1524400000053,1008.1524400000053,1008.2005231000076,1008.2007557000034,1008.2174659000011,1008.2174659000011,1008.2174659000011,1008.300495500007,1008.8176286999951,,,,,,,,,,,,,,,,,,,,,,up,2.446469000016805,None,space,0.5877303000015672,None,P116,001,2025-02-19_12h51.13.631,posner_endo_new1,2024.2.4,60.02491033530373,2025-02-19 12h51.20.867362 +0000,
cube_r.png,0.1,0.31,valid,46,46,0,up,2.116188300016802,None,space,0.5861792000068817,None,,,,,,,,,0,46,46,46,1008.8330015999964,,,,,,,,,,,,,1008.8178107999847,1008.8330015999964,1008.8330015999964,1008.8330015999964,1010.9655757999863,,,,1010.9715141000052,1010.9830823999946,1010.9830823999946,1011.0311456999916,1011.0313815999834,1011.047783499991,1011.047783499991,1011.047783499991,1011.1310574999952,1011.6482205000066,,,,,,,,,,,,,,,,,,,,,,up,2.116188300016802,None,space,0.5861792000068817,None,P116,001,2025-02-19_12h51.13.631,posner_endo_new1,2024.2.4,60.02491033530373,2025-02-19 12h51.20.867362 +0000,
cube_l.png,0.1,-0.31,valid,47,47,0,up,1.1740401000133716,None,space,0.5082168999942951,None,,,,,,,,,0,47,47,47,1011.6638515999948,,,,,,,,,,,,,1011.6484006999817,1011.6638515999948,1011.6638515999948,1011.6638515999948,1012.846704399999,,,,1012.8527510999993,1012.8644838999899,1012.8644838999899,1012.9128817000019,1012.9131166999869,1012.9292820999981,1012.9292820999981,1012.9292820999981,1012.9953474999929,1013.4462995000067,,,,,,,,,,,,,,,,,,,,,,up,1.1740401000133716,None,space,0.5082168999942951,None,P116,001,2025-02-19_12h51.13.631,posner_endo_new1,2024.2.4,60.02491033530373,2025-02-19 12h51.20.867362 +0000,
cube_r.png,0.1,-0.31,invalid,48,48,0,up,2.0240816999867093,None,space,0.408732100011548,None,,,,,,,,,0,48,48,48,1013.4618824000063,,,,,,,,,,,,,1013.4464869000076,1013.4618824000063,1013.4618824000063,1013.4618824000063,1015.493679999985,,,,1015.499595900008,1015.5112471999892,1015.5112471999892,1015.5600990999956,1015.5603283999953,1015.5766333999927,1015.5766333999927,1015.5766333999927,1015.643269799999,1015.993077799998,,,,,,,,,,,,,,,,,,,,,,up,2.0240816999867093,None,space,0.408732100011548,None,P116,001,2025-02-19_12h51.13.631,posner_endo_new1,2024.2.4,60.02491033530373,2025-02-19 12h51.20.867362 +0000,
cube_r.png,0.1,10,catch,49,49,0,up,1.323946899996372,None,None,,,,,,,,,,,0,49,49,49,1016.009550399991,,,,,,,,,,,,,1015.9932574999984,1016.009550399991,1016.009550399991,1016.009550399991,1017.3422264999826,,,,1017.3482132999925,1017.3597090999829,1017.3597090999829,1017.4082157000084,1017.4084504999919,1017.4247781999875,1017.4247781999875,1017.4247781999875,1017.5076654999866,1020.422109999985,,,,1019.5224780999997,1020.4384459999856,1020.4384459999856,1020.4384459999856,,,,,,,,,,,,,,,up,1.323946899996372,None,None,,,P116,001,2025-02-19_12h51.13.631,posner_endo_new1,2024.2.4,60.02491033530373,2025-02-19 12h51.20.867362 +0000,
cube_l.png,0.1,-0.31,valid,50,50,0,up,2.3993007999961264,None,space,0.4632131999824196,None,,,,,,,,,0,50,50,50,1020.4384459999856,,,,,,,,,,,,,1020.4222815000103,1020.4384459999856,1020.4384459999856,1020.4384459999856,1022.8532510999939,,,,1022.8592919000075,1022.8709921999834,1022.8709921999834,1022.9191171999846,1022.9193498000095,1022.9356569999945,1022.9356569999945,1022.9356569999945,1023.001762800006,1023.4021885999828,,,,,,,,,,,,,,,,,,,,,,up,2.3993007999961264,None,space,0.4632131999824196,None,P116,001,2025-02-19_12h51.13.631,posner_endo_new1,2024.2.4,60.02491033530373,2025-02-19 12h51.20.867362 +0000,
cube_l.png,0.1,-0.31,valid,51,51,0,up,1.9547509000112768,None,space,0.41079310001805425,None,,,,,,,,,0,51,51,51,1023.4185463000031,,,,,,,,,,,,,1023.4023712000053,1023.4185463000031,1023.4185463000031,1023.4185463000031,1025.3840733999969,,,,1025.3900974999997,1025.4015508999873,1025.4015508999873,1025.4501593000023,1025.4503908999905,1025.466531299986,1025.466531299986,1025.466531299986,1025.5493713000033,1025.883499699994,,,,,,,,,,,,,,,,,,,,,,up,1.9547509000112768,None,space,0.41079310001805425,None,P116,001,2025-02-19_12h51.13.631,posner_endo_new1,2024.2.4,60.02491033530373,2025-02-19 12h51.20.867362 +0000,
cube_r.png,0.1,-0.31,invalid,52,52,0,up,2.7863192000077106,None,space,0.39477730001090094,None,,,,,,,,,0,52,52,52,1025.899389600003,,,,,,,,,,,,,1025.8836859999865,1025.899389600003,1025.899389600003,1025.899389600003,1028.696808699984,,,,1028.702875099989,1028.7145260999969,1028.7145260999969,1028.7632816999976,1028.7635229000007,1028.7798649999895,1028.7798649999895,1028.7798649999895,1028.8464127999905,1029.17971940001,,,,,,,,,,,,,,,,,,,,,,up,2.7863192000077106,None,space,0.39477730001090094,None,P116,001,2025-02-19_12h51.13.631,posner_endo_new1,2024.2.4,60.02491033530373,2025-02-19 12h51.20.867362 +0000,
cube_l.png,0.1,-0.31,valid,53,53,0,up,3.3058316000096966,None,space,0.4699751000152901,None,,,,,,,,,0,53,53,53,1029.1958892999974,,,,,,,,,,,,,1029.179905900004,1029.1958892999974,1029.1958892999974,1029.1958892999974,1032.5095419999852,,,,1032.5154896999884,1032.5271137999953,1032.5271137999953,1032.5757461999892,1032.5759785999835,1032.5926133999892,1032.5926133999892,1032.5926133999892,1032.6591565999843,1033.0760531999986,,,,,,,,,,,,,,,,,,,,,,up,3.3058316000096966,None,space,0.4699751000152901,None,P116,001,2025-02-19_12h51.13.631,posner_endo_new1,2024.2.4,60.02491033530373,2025-02-19 12h51.20.867362 +0000,
cube_r.png,0.1,10,catch,54,54,0,up,1.1372889000049327,None,None,,,,,,,,,,,0,54,54,54,1033.0920284999884,,,,,,,,,,,,,1033.0762399999949,1033.0920284999884,1033.0920284999884,1033.0920284999884,1034.2415315999824,,,,1034.2475580000028,1034.2592410999932,1034.2592410999932,1034.3074218999827,1034.307653099997,1034.3241903999879,1034.3241903999879,1034.3241903999879,1034.3901646999875,1037.3211314000073,,,,1036.40521550001,1037.3374499999918,1037.3374499999918,1037.3374499999918,,,,,,,,,,,,,,,up,1.1372889000049327,None,None,,,P116,001,2025-02-19_12h51.13.631,posner_endo_new1,2024.2.4,60.02491033530373,2025-02-19 12h51.20.867362 +0000,
cube_l.png,0.1,0.31,invalid,55,55,0,up,0.3884128999779932,None,space,0.6329139999870677,None,,,,,,,,,0,55,55,55,1037.3374499999918,,,,,,,,,,,,,1037.3213030000043,1037.3374499999918,1037.3374499999918,1037.3374499999918,1037.7380540999875,,,,1037.744234199985,1037.755703600007,1037.755703600007,1037.8039051000087,1037.8041371,1037.8202746000024,1037.8202746000024,1037.8202746000024,1037.903622199985,1038.4540046000038,,,,,,,,,,,,,,,,,,,,,,up,0.3884128999779932,None,space,0.6329139999870677,None,P116,001,2025-02-19_12h51.13.631,posner_endo_new1,2024.2.4,60.02491033530373,2025-02-19 12h51.20.867362 +0000,
cube_l.png,0.1,-0.31,valid,56,56,0,up,1.1913525000272784,None,space,0.5522655000095256,None,,,,,,,,,0,56,56,56,1038.4699721999932,,,,,,,,,,,,,1038.4541935999878,1038.4699721999932,1038.4699721999932,1038.4699721999932,1039.6691975999856,,,,1039.6751816000033,1039.6868912999926,1039.6868912999926,1039.7353438999853,1039.7355771999864,1039.7516463999928,1039.7516463999928,1039.7516463999928,1039.818260800006,1040.318700200005,,,,,,,,,,,,,,,,,,,,,,up,1.1913525000272784,None,space,0.5522655000095256,None,P116,001,2025-02-19_12h51.13.631,posner_endo_new1,2024.2.4,60.02491033530373,2025-02-19 12h51.20.867362 +0000,
cube_r.png,0.1,0.31,valid,57,57,0,up,6.24759109999286,None,space,0.4472512999782339,None,,,,,,,,,0,57,57,57,1040.3346425000054,,,,,,,,,,,,,1040.318890800001,1040.3346425000054,1040.3346425000054,1040.3346425000054,1046.5957123999833,,,,1046.601750300004,1046.6134112,1046.6134112,1046.6617228999967,1046.6619586999877,1046.6781868999824,1046.6781868999824,1046.6781868999824,1046.7608395999996,1047.1280539,,,,,,,,,,,,,,,,,,,,,,up,6.24759109999286,None,space,0.4472512999782339,None,P116,001,2025-02-19_12h51.13.631,posner_endo_new1,2024.2.4,60.02491033530373,2025-02-19 12h51.20.867362 +0000,
cube_r.png,0.1,-0.31,invalid,58,58,0,up,2.837723799981177,None,space,0.45941470001707785,None,,,,,,,,,0,58,58,58,1047.1443049999943,,,,,,,,,,,,,1047.1282385000086,1047.1443049999943,1047.1443049999943,1047.1443049999943,1049.9920119000017,,,,1049.9980772999988,1050.0096035999886,1050.0096035999886,1050.0580856000015,1050.058322900004,1050.0746950999892,1050.0746950999892,1050.0746950999892,1050.1410594999907,1050.5416221999913,,,,,,,,,,,,,,,,,,,,,,up,2.837723799981177,None,space,0.45941470001707785,None,P116,001,2025-02-19_12h51.13.631,posner_endo_new1,2024.2.4,60.02491033530373,2025-02-19 12h51.20.867362 +0000,
cube_l.png,0.1,0.31,invalid,59,59,0,up,3.3289171000069473,None,space,0.3625647000153549,None,,,,,,,,,0,59,59,59,1050.5569747999834,,,,,,,,,,,,,1050.54180430001,1050.5569747999834,1050.5569747999834,1050.5569747999834,1053.888467199984,,,,1053.8943965999933,1053.9059157999873,1053.9059157999873,1053.9540605999937,1053.954292999988,1053.9705837999936,1053.9705837999936,1053.9705837999936,1054.0533999000036,1054.3380303999875,,,,,,,,,,,,,,,,,,,,,,up,3.3289171000069473,None,space,0.3625647000153549,None,P116,001,2025-02-19_12h51.13.631,posner_endo_new1,2024.2.4,60.02491033530373,2025-02-19 12h51.20.867362 +0000,
