cue_img,cue_soa,target_x,trial,thisN,thisTrialN,thisRepN,key_control2.keys,key_control2.rt,key_control2.duration,key_resp.keys,key_resp.rt,key_resp.duration,practice.thisRepN,practice.thisTrialN,practice.thisN,practice.thisIndex,block1.thisRepN,block1.thisTrialN,block1.thisN,block1.thisIndex,block2.thisRepN,block2.thisTrialN,block2.thisN,block2.thisIndex,thisRow.t,notes,instructions.started,instructions_txt.started,key_control.started,instructions.stopped,key_control.keys,key_control.rt,key_control.duration,ready.started,ready_txt.started,ready_txt.stopped,ready.stopped,fix.started,fixation.started,key_control2.started,fixation_cross.started,fix.stopped,practice.key_control2.keys,practice.key_control2.rt,practice.key_control2.duration,cue.started,cube.started,fixation_cross_cue.started,cue.stopped,target.started,fixation_target.started,fixation_cross_target.started,key_resp.started,star.started,target.stopped,practice.key_resp.keys,practice.key_resp.rt,practice.key_resp.duration,star.stopped,fixation_target.stopped,fixation_cross_target.stopped,key_resp.stopped,block1.key_control2.keys,block1.key_control2.rt,block1.key_control2.duration,block1.key_resp.keys,block1.key_resp.rt,block1.key_resp.duration,cube.stopped,fixation_cross_cue.stopped,break_2.started,text.started,key_control3.started,text.stopped,break_2.stopped,key_control3.keys,key_control3.rt,key_control3.duration,block2.key_control2.keys,block2.key_control2.rt,block2.key_control2.duration,block2.key_resp.keys,block2.key_resp.rt,block2.key_resp.duration,participant,session,date,expName,psychopyVersion,frameRate,expStart,
,,,,,,,,,,,,,,,,,,,,,,,,,,,0.007442200003424659,0.01951279997592792,0.01951279997592792,64.82549029999063,up,64.79302730000927,None,,,,,,,,,,,,,,,,,,,,,,,,,,,,,,,,,,,,,,,,,,,,,,,,,,,,P117,001,2025-02-19_14h20.48.368,posner_endo_new1,2024.2.4,60.03348667876166,2025-02-19 14h20.56.636180 +0000,
,,,,,,,,,,,,,,,,,,,,,,,,,,,,,,,,,,64.8255635999958,64.83765089997905,67.83966489997692,67.81801299998187,,,,,,,,,,,,,,,,,,,,,,,,,,,,,,,,,,,,,,,,,,,,,,,,P117,001,2025-02-19_14h20.48.368,posner_endo_new1,2024.2.4,60.03348667876166,2025-02-19 14h20.56.636180 +0000,
cube_l.png,0.1,-0.31,valid,0,0,0,up,14.85197970000445,None,space,0.5020108000026084,None,0,0,0,0,,,,,,,,,67.83966489997692,,,,,,,,,,,,,67.82901769998716,67.83966489997692,67.83966489997692,67.83966489997692,82.70292339997832,up,14.85197970000445,None,82.71304659999441,82.72306689998368,82.72306689998368,82.76887790000183,82.76911500000278,82.7849476999836,82.7849476999836,82.7849476999836,82.86836809999659,83.30221629998414,space,0.5020108000026084,None,,,,,,,,,,,,,,,,,,,,,,,,,,,P117,001,2025-02-19_14h20.48.368,posner_endo_new1,2024.2.4,60.03348667876166,2025-02-19 14h20.56.636180 +0000,
cube_l.png,0.1,0.31,invalid,1,1,0,up,3.8956042999925558,None,space,0.3899824999971315,None,0,1,1,1,,,,,,,,,83.31804259997443,,,,,,,,,,,,,83.30238779998035,83.31804259997443,83.31804259997443,83.31804259997443,87.21482319998904,up,3.8956042999925558,None,87.22161680000136,87.23277649999363,87.23277649999363,87.28068899997743,87.28091569998651,87.29735779998009,87.29735779998009,87.29735779998009,87.36402229999658,87.69775130000198,space,0.3899824999971315,None,,,,,,,,,,,,,,,,,,,,,,,,,,,P117,001,2025-02-19_14h20.48.368,posner_endo_new1,2024.2.4,60.03348667876166,2025-02-19 14h20.56.636180 +0000,
cube_r.png,0.1,-0.31,invalid,2,2,0,up,5.690696899982868,None,space,0.3337539999920409,None,0,2,2,2,,,,,,,,,87.71361469998374,,,,,,,,,,,,,87.69791639997857,87.71361469998374,87.71361469998374,87.71361469998374,93.4086965000024,up,5.690696899982868,None,93.4153695999994,93.42677399999229,93.42677399999229,93.47470219997922,93.47492769997916,93.49108099998557,93.49108099998557,93.49108099998557,93.55767859998741,93.84142779998365,space,0.3337539999920409,None,,,,,,,,,,,,,,,,,,,,,,,,,,,P117,001,2025-02-19_14h20.48.368,posner_endo_new1,2024.2.4,60.03348667876166,2025-02-19 14h20.56.636180 +0000,
cube_r.png,0.1,10,catch,3,3,0,up,13.530902800004696,None,None,,,0,3,3,3,,,,,,,,,93.85733509997954,,,,,,,,,,,,,93.84159060000093,93.85733509997954,93.85733509997954,93.85733509997954,107.394103300001,up,13.530902800004696,None,107.40053379998426,107.41229969999404,107.41229969999404,107.46038829997997,107.4606132999761,107.47651999999653,107.47651999999653,107.47651999999653,107.54359249997651,110.4740230999887,None,,,109.55801589999464,110.49042889999691,110.49042889999691,110.49042889999691,,,,,,,,,,,,,,,,,,,,,,,P117,001,2025-02-19_14h20.48.368,posner_endo_new1,2024.2.4,60.03348667876166,2025-02-19 14h20.56.636180 +0000,
cube_l.png,0.1,-0.31,valid,4,4,0,up,6.818118800001685,None,space,0.38198250002460554,None,0,4,4,4,,,,,,,,,110.49042889999691,,,,,,,,,,,,,110.47417390000192,110.49042889999691,110.49042889999691,110.49042889999691,117.31704589998117,up,6.818118800001685,None,117.32349349997821,117.33502790000057,117.33502790000057,117.38311450000037,117.38334619998932,117.40001589999883,117.40001589999883,117.40001589999883,117.46649419999449,117.78399719999288,space,0.38198250002460554,None,,,,,,,,,,,,,,,,,,,,,,,,,,,P117,001,2025-02-19_14h20.48.368,posner_endo_new1,2024.2.4,60.03348667876166,2025-02-19 14h20.56.636180 +0000,
cube_l.png,0.1,0.31,invalid,5,5,0,up,5.516439200000605,None,space,0.38924129999941215,None,0,5,5,5,,,,,,,,,117.79937209998025,,,,,,,,,,,,,117.78416129999096,117.79937209998025,117.79937209998025,117.79937209998025,123.32814659998985,up,5.516439200000605,None,123.33453880000161,123.34649239998544,123.34649239998544,123.39382889997796,123.39405409997562,123.41026389997569,123.41026389997569,123.41026389997569,123.49393279998912,123.81077650000225,space,0.38924129999941215,None,,,,,,,,,,,,,,,,,,,,,,,,,,,P117,001,2025-02-19_14h20.48.368,posner_endo_new1,2024.2.4,60.03348667876166,2025-02-19 14h20.56.636180 +0000,
cube_r.png,0.1,-0.31,invalid,6,6,0,up,6.321236300020246,None,space,0.4643248000065796,None,0,6,6,6,,,,,,,,,123.8265495999949,,,,,,,,,,,,,123.81093869998585,123.8265495999949,123.8265495999949,123.8265495999949,130.1545692999789,up,6.321236300020246,None,130.16133390000323,130.17283239998505,130.17283239998505,130.22034369999892,130.22056879999582,130.2370377999905,130.2370377999905,130.2370377999905,130.30347789998632,130.70379390000016,space,0.4643248000065796,None,,,,,,,,,,,,,,,,,,,,,,,,,,,P117,001,2025-02-19_14h20.48.368,posner_endo_new1,2024.2.4,60.03348667876166,2025-02-19 14h20.56.636180 +0000,
cube_r.png,0.1,0.31,valid,7,7,0,up,4.88469599999371,None,space,0.418831399991177,None,0,7,7,7,,,,,,,,,130.71967039999436,,,,,,,,,,,,,130.70396419998724,130.71967039999436,130.71967039999436,130.71967039999436,135.61552949997713,up,4.88469599999371,None,135.62159369999426,135.6334050000005,135.6334050000005,135.68136089999462,135.68158899998525,135.69812079999247,135.69812079999247,135.69812079999247,135.76453849999234,136.13174099999014,space,0.418831399991177,None,,,,,,,,,,,,,,,,,,,,,,,,,,,P117,001,2025-02-19_14h20.48.368,posner_endo_new1,2024.2.4,60.03348667876166,2025-02-19 14h20.56.636180 +0000,
cube_l.png,0.1,-0.31,valid,8,8,0,up,6.032376899995143,None,space,0.3266721999971196,None,0,8,8,8,,,,,,,,,136.14763159997528,,,,,,,,,,,,,136.13190269999905,136.14763159997528,136.14763159997528,136.14763159997528,142.19202759998734,up,6.032376899995143,None,142.1979592999851,142.2097152999777,142.2097152999777,142.25806100000045,142.2582892999926,142.2745883000025,142.2745883000025,142.2745883000025,142.3411489999853,142.60827219998464,space,0.3266721999971196,None,,,,,,,,,,,,,,,,,,,,,,,,,,,P117,001,2025-02-19_14h20.48.368,posner_endo_new1,2024.2.4,60.03348667876166,2025-02-19 14h20.56.636180 +0000,
cube_r.png,0.1,-0.31,invalid,9,9,0,up,5.220174400019459,None,space,0.46354120000614785,None,0,9,9,9,,,,,,,,,142.62437679999857,,,,,,,,,,,,,142.60843520000344,142.62437679999857,142.62437679999857,142.62437679999857,147.85281709997798,up,5.220174400019459,None,147.85876189998817,147.8703423999832,147.8703423999832,147.9185963999771,147.91882259998238,147.93553769998834,147.93553769998834,147.93553769998834,148.00199299998349,148.40228949999437,space,0.46354120000614785,None,,,,,,,,,,,,,,,,,,,,,,,,,,,P117,001,2025-02-19_14h20.48.368,posner_endo_new1,2024.2.4,60.03348667876166,2025-02-19 14h20.56.636180 +0000,
cube_r.png,0.1,0.31,valid,10,10,0,up,4.947026500012726,None,space,0.33418959999107756,None,0,10,10,10,,,,,,,,,148.41824899998028,,,,,,,,,,,,,148.40245309998863,148.41824899998028,148.41824899998028,148.41824899998028,153.38076040000306,up,4.947026500012726,None,153.38667509998777,153.3984040999785,153.3984040999785,153.44635649997508,153.44659969999339,153.46306209999602,153.46306209999602,153.46306209999602,153.5301728999766,153.81354479998117,space,0.33418959999107756,None,,,,,,,,,,,,,,,,,,,,,,,,,,,P117,001,2025-02-19_14h20.48.368,posner_endo_new1,2024.2.4,60.03348667876166,2025-02-19 14h20.56.636180 +0000,
,,,,,,,,,,,,,,,,,,,,,,,,,,,,,,,,,,153.8136533999932,153.82948679997935,156.8320601999876,156.81003079999937,,,,,,,,,,,,,,,,,,,,,,,,,,,,,,,,,,,,,,,,,,,,,,,,P117,001,2025-02-19_14h20.48.368,posner_endo_new1,2024.2.4,60.03348667876166,2025-02-19 14h20.56.636180 +0000,
cube_l.png,0.1,10,catch,0,0,0,up,5.212451400002465,None,None,,,,,,,0,0,0,0,,,,,156.8320601999876,,,,,,,,,,,,,156.82337869997718,156.8320601999876,156.8320601999876,156.8320601999876,162.05504439998185,,,,162.0652111999807,162.07530109997606,162.07530109997606,162.1209387999843,162.12124829998356,162.13768709998112,162.13768709998112,162.13768709998112,162.204152899998,165.1350395999907,,,,164.21892689997912,165.1509007999848,165.1509007999848,165.1509007999848,up,5.212451400002465,None,None,,,,,,,,,,,,,,,,,,,P117,001,2025-02-19_14h20.48.368,posner_endo_new1,2024.2.4,60.03348667876166,2025-02-19 14h20.56.636180 +0000,
cube_l.png,0.1,10,catch,1,1,0,up,0.3017025000008289,None,None,,,,,,,0,1,1,1,,,,,165.1509007999848,,,,,,,,,,,,,165.13527979998617,165.1509007999848,165.1509007999848,165.1509007999848,165.46867489998112,,,,165.4780604999978,165.48765269998694,165.48765269998694,165.53412579998258,165.53435229999013,165.55079449998448,165.55079449998448,165.55079449998448,165.63395049999235,168.54848769999808,,,,167.64874479998252,168.56386669998756,168.56386669998756,168.56386669998756,up,0.3017025000008289,None,None,,,,,,,,,,,,,,,,,,,P117,001,2025-02-19_14h20.48.368,posner_endo_new1,2024.2.4,60.03348667876166,2025-02-19 14h20.56.636180 +0000,
cube_l.png,0.1,0.31,invalid,2,2,0,up,9.000653299997794,None,space,0.468558300024597,None,,,,,0,2,2,2,,,,,168.56386669998756,,,,,,,,,,,,,168.54865409998456,168.56386669998756,168.56386669998756,168.56386669998756,177.5725201999885,,,,177.5792359999905,177.5908894999884,177.5908894999884,177.6384239999752,177.638652499998,177.65509069999098,177.65509069999098,177.65509069999098,177.72161609999603,178.1385411999945,,,,,,,,up,9.000653299997794,None,space,0.468558300024597,None,,,,,,,,,,,,,,,,,P117,001,2025-02-19_14h20.48.368,posner_endo_new1,2024.2.4,60.03348667876166,2025-02-19 14h20.56.636180 +0000,
cube_l.png,0.1,0.31,invalid,3,3,0,up,4.217488499998581,None,space,0.5302740999904927,None,,,,,0,3,3,3,,,,,178.15459549997468,,,,,,,,,,,,,178.13872029999038,178.15459549997468,178.15459549997468,178.15459549997468,182.38454359999741,,,,182.39086620000307,182.40279949997785,182.40279949997785,182.45045459998073,182.4506784999976,182.46663459998672,182.46663459998672,182.46663459998672,182.55005389999133,183.00051739998162,,,,,,,,up,4.217488499998581,None,space,0.5302740999904927,None,,,,,,,,,,,,,,,,,P117,001,2025-02-19_14h20.48.368,posner_endo_new1,2024.2.4,60.03348667876166,2025-02-19 14h20.56.636180 +0000,
cube_l.png,0.1,-0.31,valid,4,4,0,up,3.996747299999697,None,space,0.37122860000818036,None,,,,,0,4,4,4,,,,,183.0164814000018,,,,,,,,,,,,,183.00069459999213,183.0164814000018,183.0164814000018,183.0164814000018,187.0295343999751,,,,187.0355618999747,187.0471326999832,187.0471326999832,187.0956301999977,187.0958557999984,187.11202579998644,187.11202579998644,187.11202579998644,187.1787379999878,187.49574429998756,,,,,,,,up,3.996747299999697,None,space,0.37122860000818036,None,,,,,,,,,,,,,,,,,P117,001,2025-02-19_14h20.48.368,posner_endo_new1,2024.2.4,60.03348667876166,2025-02-19 14h20.56.636180 +0000,
cube_r.png,0.1,-0.31,invalid,5,5,0,up,4.9482480000006035,None,space,0.3831814000150189,None,,,,,0,5,5,5,,,,,187.51179649998085,,,,,,,,,,,,,187.49591509997845,187.51179649998085,187.51179649998085,187.51179649998085,192.47384049999528,,,,192.47985389997484,192.4915641999978,192.4915641999978,192.54000199999427,192.5402375999838,192.55652220000047,192.55652220000047,192.55652220000047,192.6231329999864,192.94041769998148,,,,,,,,up,4.9482480000006035,None,space,0.3831814000150189,None,,,,,,,,,,,,,,,,,P117,001,2025-02-19_14h20.48.368,posner_endo_new1,2024.2.4,60.03348667876166,2025-02-19 14h20.56.636180 +0000,
cube_r.png,0.1,0.31,valid,6,6,0,up,5.945096299983561,None,space,0.36059349999413826,None,,,,,0,6,6,6,,,,,192.95567209998262,,,,,,,,,,,,,192.94059399998514,192.95567209998262,192.95567209998262,192.95567209998262,198.91745809998247,,,,198.9233258999884,198.93475629997556,198.93475629997556,198.9832903999777,198.9835172999883,199.00007209999603,199.00007209999603,199.00007209999603,199.08329159999266,199.3671470999834,,,,,,,,up,5.945096299983561,None,space,0.36059349999413826,None,,,,,,,,,,,,,,,,,P117,001,2025-02-19_14h20.48.368,posner_endo_new1,2024.2.4,60.03348667876166,2025-02-19 14h20.56.636180 +0000,
cube_r.png,0.1,-0.31,invalid,7,7,0,up,12.461493800015887,None,space,0.5587943000136875,None,,,,,0,7,7,7,,,,,199.38275389999035,,,,,,,,,,,,,199.36732649998157,199.38275389999035,199.38275389999035,199.38275389999035,211.85512319998816,,,,211.8719306999992,211.8828579999972,211.8828579999972,211.91982699997607,211.9201176999777,211.93662139997468,211.93662139997468,211.93662139997468,212.01959559999523,212.50377549999394,,,,,,,,up,12.461493800015887,None,space,0.5587943000136875,None,,,,,,,,,,,,,,,,,P117,001,2025-02-19_14h20.48.368,posner_endo_new1,2024.2.4,60.03348667876166,2025-02-19 14h20.56.636180 +0000,
cube_l.png,0.1,-0.31,valid,8,8,0,up,5.397469999996247,None,space,0.40119880001293495,None,,,,,0,8,8,8,,,,,212.51935180000146,,,,,,,,,,,,,212.5040208999999,212.51935180000146,212.51935180000146,212.51935180000146,217.9312532999902,,,,217.94015549999312,217.95020329998806,217.95020329998806,217.9970067999966,217.99730479999562,218.01364170000306,218.01364170000306,218.01364170000306,218.09679660000256,218.4308584999817,,,,,,,,up,5.397469999996247,None,space,0.40119880001293495,None,,,,,,,,,,,,,,,,,P117,001,2025-02-19_14h20.48.368,posner_endo_new1,2024.2.4,60.03348667876166,2025-02-19 14h20.56.636180 +0000,
cube_r.png,0.1,-0.31,invalid,9,9,0,up,5.230168900015997,None,space,0.3989319000102114,None,,,,,0,9,9,9,,,,,218.44638939999277,,,,,,,,,,,,,218.43110210000305,218.44638939999277,218.44638939999277,218.44638939999277,223.6922677999828,,,,223.6983139999793,223.7098246999958,223.7098246999958,223.75820219999878,223.75842629998806,223.7747679000022,223.7747679000022,223.7747679000022,223.8580748999957,224.17540019997978,,,,,,,,up,5.230168900015997,None,space,0.3989319000102114,None,,,,,,,,,,,,,,,,,P117,001,2025-02-19_14h20.48.368,posner_endo_new1,2024.2.4,60.03348667876166,2025-02-19 14h20.56.636180 +0000,
cube_l.png,0.1,0.31,invalid,10,10,0,up,5.493841400020756,None,space,0.399792600015644,None,,,,,0,10,10,10,,,,,224.19050239998614,,,,,,,,,,,,,224.17557819999638,224.19050239998614,224.19050239998614,224.19050239998614,229.685776600003,,,,229.6921885999909,229.70383139999467,229.70383139999467,229.75216360000195,229.75241349998396,229.76816869998584,229.76816869998584,229.76816869998584,229.85175780000282,230.16906919999747,,,,,,,,up,5.493841400020756,None,space,0.399792600015644,None,,,,,,,,,,,,,,,,,P117,001,2025-02-19_14h20.48.368,posner_endo_new1,2024.2.4,60.03348667876166,2025-02-19 14h20.56.636180 +0000,
cube_r.png,0.1,-0.31,invalid,11,11,0,up,5.17174759999034,None,space,0.3879919000028167,None,,,,,0,11,11,11,,,,,230.18482689998928,,,,,,,,,,,,,230.1692439999897,230.18482689998928,230.18482689998928,230.18482689998928,235.363329099986,,,,235.36951869999757,235.38139639998553,235.38139639998553,235.42951529999846,235.42975559999468,235.44562699997914,235.44562699997914,235.44562699997914,235.5126273999922,235.84599589998834,,,,,,,,up,5.17174759999034,None,space,0.3879919000028167,None,,,,,,,,,,,,,,,,,P117,001,2025-02-19_14h20.48.368,posner_endo_new1,2024.2.4,60.03348667876166,2025-02-19 14h20.56.636180 +0000,
cube_r.png,0.1,0.31,valid,12,12,0,up,5.926526499999454,None,space,0.3595913000172004,None,,,,,0,12,12,12,,,,,235.86231579998275,,,,,,,,,,,,,235.8461793999886,235.86231579998275,235.86231579998275,235.86231579998275,241.79058649999206,,,,241.79671499997494,241.80861310000182,241.80861310000182,241.85643669997808,241.85667539999122,241.87293219999992,241.87293219999992,241.87293219999992,241.9560685000033,242.2401106999896,,,,,,,,up,5.926526499999454,None,space,0.3595913000172004,None,,,,,,,,,,,,,,,,,P117,001,2025-02-19_14h20.48.368,posner_endo_new1,2024.2.4,60.03348667876166,2025-02-19 14h20.56.636180 +0000,
cube_l.png,0.1,10,catch,13,13,0,up,4.660935799998697,None,space,0.3132045000093058,None,,,,,0,13,13,13,,,,,242.25591149998945,,,,,,,,,,,,,242.2402886999771,242.25591149998945,242.25591149998945,242.25591149998945,246.9186191999761,,,,246.9246451999934,246.93628599998192,246.93628599998192,246.98446690000128,246.98471049999353,247.00104619999183,247.00104619999183,247.00104619999183,247.08428459998686,247.31782599998405,,,,,,,,up,4.660935799998697,None,space,0.3132045000093058,None,,,,,,,,,,,,,,,,,P117,001,2025-02-19_14h20.48.368,posner_endo_new1,2024.2.4,60.03348667876166,2025-02-19 14h20.56.636180 +0000,
cube_r.png,0.1,-0.31,invalid,14,14,0,up,5.039357500005281,None,space,0.39470359997358173,None,,,,,0,14,14,14,,,,,247.33404289997998,,,,,,,,,,,,,247.31800430000294,247.33404289997998,247.33404289997998,247.33404289997998,252.3791729999939,,,,252.3854504999763,252.39705839997623,252.39705839997623,252.4451512999949,252.44539909999003,252.46197869998286,252.46197869998286,252.46197869998286,252.52884069998981,252.8624667999975,,,,,,,,up,5.039357500005281,None,space,0.39470359997358173,None,,,,,,,,,,,,,,,,,P117,001,2025-02-19_14h20.48.368,posner_endo_new1,2024.2.4,60.03348667876166,2025-02-19 14h20.56.636180 +0000,
cube_l.png,0.1,-0.31,valid,15,15,0,up,3.622463100007735,None,space,0.38993559998925775,None,,,,,0,15,15,15,,,,,252.87812039998244,,,,,,,,,,,,,252.86264869998558,252.87812039998244,252.87812039998244,252.87812039998244,256.5086605999968,,,,256.51458999997703,256.5262140999839,256.5262140999839,256.5746078999946,256.57483830000274,256.59108829998877,256.59108829998877,256.59108829998877,256.6577428999881,256.99156049999874,,,,,,,,up,3.622463100007735,None,space,0.38993559998925775,None,,,,,,,,,,,,,,,,,P117,001,2025-02-19_14h20.48.368,posner_endo_new1,2024.2.4,60.03348667876166,2025-02-19 14h20.56.636180 +0000,
cube_r.png,0.1,10,catch,16,16,0,up,13.7569097999949,None,None,,,,,,,0,16,16,16,,,,,257.0074892999837,,,,,,,,,,,,,256.99173869998776,257.0074892999837,257.0074892999837,257.0074892999837,270.7768749999814,,,,270.7828304999857,270.79451869998593,270.79451869998593,270.84331830000156,270.8435510999989,270.8599508999905,270.8599508999905,270.8599508999905,270.92634249999537,273.8571232999966,,,,272.94101439998485,273.8733516999928,273.8733516999928,273.8733516999928,up,13.7569097999949,None,None,,,,,,,,,,,,,,,,,,,P117,001,2025-02-19_14h20.48.368,posner_endo_new1,2024.2.4,60.03348667876166,2025-02-19 14h20.56.636180 +0000,
cube_r.png,0.1,10,catch,17,17,0,up,1.3307152999914251,None,None,,,,,,,0,17,17,17,,,,,273.8733516999928,,,,,,,,,,,,,273.8572932999814,273.8733516999928,273.8733516999928,273.8733516999928,275.2065631999867,,,,275.21298209999804,275.22469699999783,275.22469699999783,275.27133989997674,275.2715782999876,275.2887887999823,275.2887887999823,275.2887887999823,275.3718150999921,278.2856721999997,,,,277.3866876999964,278.30226699999184,278.30226699999184,278.30226699999184,up,1.3307152999914251,None,None,,,,,,,,,,,,,,,,,,,P117,001,2025-02-19_14h20.48.368,posner_endo_new1,2024.2.4,60.03348667876166,2025-02-19 14h20.56.636180 +0000,
cube_l.png,0.1,0.31,invalid,18,18,0,up,0.5418518999940716,None,space,0.5366749000095297,None,,,,,0,18,18,18,,,,,278.30226699999184,,,,,,,,,,,,,278.2858451999782,278.30226699999184,278.30226699999184,278.30226699999184,278.8526007999899,,,,278.8587990999804,278.87052929998026,278.87052929998026,278.91836270000204,278.9185995000007,278.9349357000028,278.9349357000028,278.9349357000028,279.01833679998526,279.4853205999825,,,,,,,,up,0.5418518999940716,None,space,0.5366749000095297,None,,,,,,,,,,,,,,,,,P117,001,2025-02-19_14h20.48.368,posner_endo_new1,2024.2.4,60.03348667876166,2025-02-19 14h20.56.636180 +0000,
cube_l.png,0.1,10,catch,19,19,0,up,2.735766400001012,None,None,,,,,,,0,19,19,19,,,,,279.50123009999515,,,,,,,,,,,,,279.48549520000233,279.50123009999515,279.50123009999515,279.50123009999515,282.24895769997966,,,,282.25505739997607,282.26679739999236,282.26679739999236,282.3149618000025,282.31520039998577,282.3316733999818,282.3316733999818,282.3316733999818,282.41487119998783,285.32919809999294,,,,284.42927649998455,285.3447470999963,285.3447470999963,285.3447470999963,up,2.735766400001012,None,None,,,,,,,,,,,,,,,,,,,P117,001,2025-02-19_14h20.48.368,posner_endo_new1,2024.2.4,60.03348667876166,2025-02-19 14h20.56.636180 +0000,
cube_l.png,0.1,0.31,invalid,20,20,0,up,0.8754611999902409,None,space,0.48249930000747554,None,,,,,0,20,20,20,,,,,285.3447470999963,,,,,,,,,,,,,285.3293674000015,285.3447470999963,285.3447470999963,285.3447470999963,286.2283771999937,,,,286.2342543999839,286.245955099992,286.245955099992,286.29429199997685,286.29451939999126,286.31087739998475,286.31087739998475,286.31087739998475,286.394220999995,286.79439189998084,,,,,,,,up,0.8754611999902409,None,space,0.48249930000747554,None,,,,,,,,,,,,,,,,,P117,001,2025-02-19_14h20.48.368,posner_endo_new1,2024.2.4,60.03348667876166,2025-02-19 14h20.56.636180 +0000,
cube_l.png,0.1,-0.31,valid,21,21,0,up,3.251338300004136,None,space,0.507505499990657,None,,,,,0,21,21,21,,,,,286.8097512999957,,,,,,,,,,,,,286.79457529998035,286.8097512999957,286.8097512999957,286.8097512999957,290.07449800000177,,,,290.0803782999865,290.09208989999024,290.09208989999024,290.1403655000031,290.1405988999759,290.15671429998474,290.15671429998474,290.15671429998474,290.2403279999853,290.6738885999948,,,,,,,,up,3.251338300004136,None,space,0.507505499990657,None,,,,,,,,,,,,,,,,,P117,001,2025-02-19_14h20.48.368,posner_endo_new1,2024.2.4,60.03348667876166,2025-02-19 14h20.56.636180 +0000,
cube_r.png,0.1,0.31,valid,22,22,0,up,1.554750300012529,None,space,0.4693612999981269,None,,,,,0,22,22,22,,,,,290.6898266999924,,,,,,,,,,,,,290.67406550000305,290.6898266999924,290.6898266999924,290.6898266999924,292.25549549999414,,,,292.26139810000313,292.2732041999989,292.2732041999989,292.3214599999774,292.3216891999764,292.3374588000006,292.3374588000006,292.3374588000006,292.4207976999751,292.8210923000006,,,,,,,,up,1.554750300012529,None,space,0.4693612999981269,None,,,,,,,,,,,,,,,,,P117,001,2025-02-19_14h20.48.368,posner_endo_new1,2024.2.4,60.03348667876166,2025-02-19 14h20.56.636180 +0000,
cube_r.png,0.1,-0.31,invalid,23,23,0,up,4.895602100004908,None,space,0.4279210999957286,None,,,,,0,23,23,23,,,,,292.83731459997944,,,,,,,,,,,,,292.8212700999866,292.83731459997944,292.83731459997944,292.83731459997944,297.74964749999344,,,,297.7554929999751,297.7669923999929,297.7669923999929,297.815720899991,297.8159464999917,297.83226759999525,297.83226759999525,297.83226759999525,297.8987543999974,298.26565259997733,,,,,,,,up,4.895602100004908,None,space,0.4279210999957286,None,,,,,,,,,,,,,,,,,P117,001,2025-02-19_14h20.48.368,posner_endo_new1,2024.2.4,60.03348667876166,2025-02-19 14h20.56.636180 +0000,
cube_r.png,0.1,0.31,valid,24,24,0,up,4.6823580999916885,None,space,0.3581654999870807,None,,,,,0,24,24,24,,,,,298.28194329998223,,,,,,,,,,,,,298.2658357999753,298.28194329998223,298.28194329998223,298.28194329998223,302.9779375999933,,,,302.9838417999854,302.9956745999807,302.9956745999807,303.0438661999942,303.04409819998546,303.06045769999037,303.06045769999037,303.06045769999037,303.1436831999745,303.42742319998797,,,,,,,,up,4.6823580999916885,None,space,0.3581654999870807,None,,,,,,,,,,,,,,,,,P117,001,2025-02-19_14h20.48.368,posner_endo_new1,2024.2.4,60.03348667876166,2025-02-19 14h20.56.636180 +0000,
cube_r.png,0.1,-0.31,invalid,25,25,0,up,4.976632499980042,None,space,0.47786319997976534,None,,,,,0,25,25,25,,,,,303.4434395999997,,,,,,,,,,,,,303.42762119998224,303.4434395999997,303.4434395999997,303.4434395999997,308.42190849999315,,,,308.42792309998185,308.43948199998704,308.43948199998704,308.4885856999899,308.4888387999963,308.5044505999831,308.5044505999831,308.5044505999831,308.57115789997624,308.98828759999014,,,,,,,,up,4.976632499980042,None,space,0.47786319997976534,None,,,,,,,,,,,,,,,,,P117,001,2025-02-19_14h20.48.368,posner_endo_new1,2024.2.4,60.03348667876166,2025-02-19 14h20.56.636180 +0000,
cube_l.png,0.1,-0.31,valid,26,26,0,up,4.448071899998467,None,space,0.40948200001730584,None,,,,,0,26,26,26,,,,,309.0043812999793,,,,,,,,,,,,,308.9884661999822,309.0043812999793,309.0043812999793,309.0043812999793,313.4672907999775,,,,313.47328069998184,313.4850254999765,313.4850254999765,313.5335554999765,313.53379369998584,313.5497686000017,313.5497686000017,313.5497686000017,313.63259989998187,313.96679029997904,,,,,,,,up,4.448071899998467,None,space,0.40948200001730584,None,,,,,,,,,,,,,,,,,P117,001,2025-02-19_14h20.48.368,posner_endo_new1,2024.2.4,60.03348667876166,2025-02-19 14h20.56.636180 +0000,
cube_r.png,0.1,0.31,valid,27,27,0,up,5.614417000004323,None,space,0.40179150001495145,None,,,,,0,27,27,27,,,,,313.98209939998924,,,,,,,,,,,,,313.9669712999894,313.98209939998924,313.98209939998924,313.98209939998924,319.610764299985,,,,319.61689859998296,319.62867019997793,319.62867019997793,319.67693970000255,319.67718369999784,319.6934501999931,319.6934501999931,319.6934501999931,319.776360399992,320.11048169998685,,,,,,,,up,5.614417000004323,None,space,0.40179150001495145,None,,,,,,,,,,,,,,,,,P117,001,2025-02-19_14h20.48.368,posner_endo_new1,2024.2.4,60.03348667876166,2025-02-19 14h20.56.636180 +0000,
cube_r.png,0.1,10,catch,28,28,0,up,5.302554099995177,None,None,,,,,,,0,28,28,28,,,,,320.1263762000017,,,,,,,,,,,,,320.1106576999882,320.1263762000017,320.1263762000017,320.1263762000017,325.43804399998044,,,,325.4439029999776,325.4554239999852,325.4554239999852,325.50382589999936,325.50405229997705,325.5208483999886,325.5208483999886,325.5208483999886,325.5873575999867,328.5181407999771,,,,327.6016980999848,328.53424409998115,328.53424409998115,328.53424409998115,up,5.302554099995177,None,None,,,,,,,,,,,,,,,,,,,P117,001,2025-02-19_14h20.48.368,posner_endo_new1,2024.2.4,60.03348667876166,2025-02-19 14h20.56.636180 +0000,
cube_r.png,0.1,0.31,valid,29,29,0,up,3.238524700020207,None,space,0.3941814000136219,None,,,,,0,29,29,29,,,,,328.53424409998115,,,,,,,,,,,,,328.51831039998797,328.53424409998115,328.53424409998115,328.53424409998115,331.7816810999939,,,,331.78757239997503,331.7992943999998,331.7992943999998,331.84760639999877,331.8478308999911,331.86424619998434,331.86424619998434,331.86424619998434,331.9307169999811,332.2645421999914,,,,,,,,up,3.238524700020207,None,space,0.3941814000136219,None,,,,,,,,,,,,,,,,,P117,001,2025-02-19_14h20.48.368,posner_endo_new1,2024.2.4,60.03348667876166,2025-02-19 14h20.56.636180 +0000,
cube_r.png,0.1,0.31,valid,30,30,0,up,5.092996599996695,None,space,0.4614790999912657,None,,,,,0,30,30,30,,,,,332.28014739998616,,,,,,,,,,,,,332.2647264999978,332.28014739998616,332.28014739998616,332.28014739998616,337.3759086999926,,,,337.3819421999797,337.39361129997997,337.39361129997997,337.442123899993,337.4423614999978,337.4585633999959,337.4585633999959,337.4585633999959,337.5252299999993,337.9254973999923,,,,,,,,up,5.092996599996695,None,space,0.4614790999912657,None,,,,,,,,,,,,,,,,,P117,001,2025-02-19_14h20.48.368,posner_endo_new1,2024.2.4,60.03348667876166,2025-02-19 14h20.56.636180 +0000,
cube_l.png,0.1,-0.31,valid,31,31,0,up,5.623214699997334,None,space,0.4221615999995265,None,,,,,0,31,31,31,,,,,337.94123219998437,,,,,,,,,,,,,337.92567430000054,337.94123219998437,337.94123219998437,337.94123219998437,343.56989220000105,,,,343.5756660999905,343.58733859998756,343.58733859998756,343.6357464999892,343.63597089998075,343.6523692999908,343.6523692999908,343.6523692999908,343.7189385999809,344.08568180000293,,,,,,,,up,5.623214699997334,None,space,0.4221615999995265,None,,,,,,,,,,,,,,,,,P117,001,2025-02-19_14h20.48.368,posner_endo_new1,2024.2.4,60.03348667876166,2025-02-19 14h20.56.636180 +0000,
cube_r.png,0.1,0.31,valid,32,32,0,up,4.718567700008862,None,space,0.3958633000147529,None,,,,,0,32,32,32,,,,,344.10173779999604,,,,,,,,,,,,,344.08585329999914,344.10173779999604,344.10173779999604,344.10173779999604,348.83080599998357,,,,348.83667269998114,348.8484197999933,348.8484197999933,348.8970861999842,348.8973169999954,348.91358219998074,348.91358219998074,348.91358219998074,348.9797931999783,349.3139792000002,,,,,,,,up,4.718567700008862,None,space,0.3958633000147529,None,,,,,,,,,,,,,,,,,P117,001,2025-02-19_14h20.48.368,posner_endo_new1,2024.2.4,60.03348667876166,2025-02-19 14h20.56.636180 +0000,
cube_r.png,0.1,-0.31,invalid,33,33,0,up,8.708236600010423,None,space,0.43571849999716505,None,,,,,0,33,33,33,,,,,349.3297569999995,,,,,,,,,,,,,349.3141540999932,349.3297569999995,349.3297569999995,349.3297569999995,358.05429999998887,,,,358.0601953000005,358.07158299998264,358.07158299998264,358.1045892999973,358.10481219997746,358.12069959999644,358.12069959999644,358.12069959999644,358.2040191999986,358.5705714999931,,,,,,,,up,8.708236600010423,None,space,0.43571849999716505,None,358.12069959999644,358.12069959999644,,,,,,,,,,,,,,,P117,001,2025-02-19_14h20.48.368,posner_endo_new1,2024.2.4,60.03348667876166,2025-02-19 14h20.56.636180 +0000,
cube_r.png,0.1,10,catch,34,34,0,up,6.113443300011568,None,None,,,,,,,0,34,34,34,,,,,358.58692419997533,,,,,,,,,,,,,358.57074499997543,358.58692419997533,358.58692419997533,358.58692419997533,364.71445089997724,,,,364.7202456999803,364.7317897999892,364.7317897999892,364.7806722999958,364.78089619998354,364.79728749999776,364.79728749999776,364.79728749999776,364.86357190000126,367.7948157999781,,,,366.8783401999972,367.81065199998557,367.81065199998557,367.81065199998557,up,6.113443300011568,None,None,,,,,,,,,,,,,,,,,,,P117,001,2025-02-19_14h20.48.368,posner_endo_new1,2024.2.4,60.03348667876166,2025-02-19 14h20.56.636180 +0000,
cube_r.png,0.1,0.31,valid,35,35,0,up,3.7302730999945197,None,space,0.4238605999853462,None,,,,,0,35,35,35,,,,,367.81065199998557,,,,,,,,,,,,,367.7949877999781,367.81065199998557,367.81065199998557,367.81065199998557,371.55775349997566,,,,371.56394299998647,371.5755425999814,371.5755425999814,371.62380449997727,371.62403609999456,371.64047199999914,371.64047199999914,371.64047199999914,371.70702020000317,372.07338339998387,,,,,,,,up,3.7302730999945197,None,space,0.4238605999853462,None,,,,,,,,,,,,,,,,,P117,001,2025-02-19_14h20.48.368,posner_endo_new1,2024.2.4,60.03348667876166,2025-02-19 14h20.56.636180 +0000,
cube_r.png,0.1,-0.31,invalid,36,36,0,up,19.259012900001835,None,space,0.45342529998742975,None,,,,,0,36,36,36,,,,,372.0899924999976,,,,,,,,,,,,,372.0735587999807,372.0899924999976,372.0899924999976,372.0899924999976,391.35384999998496,,,,391.36012309999205,391.37174409997533,391.37174409997533,391.4201622999972,391.42038850000245,391.43661479998264,391.43661479998264,391.43661479998264,391.5033854999929,391.90357439999934,,,,,,,,up,19.259012900001835,None,space,0.45342529998742975,None,,,,,,,,,,,,,,,,,P117,001,2025-02-19_14h20.48.368,posner_endo_new1,2024.2.4,60.03348667876166,2025-02-19 14h20.56.636180 +0000,
cube_l.png,0.1,0.31,invalid,37,37,0,up,2.7012090000207536,None,space,0.3779258000140544,None,,,,,0,37,37,37,,,,,391.9196917999943,,,,,,,,,,,,,391.9037548999768,391.9196917999943,391.9196917999943,391.9196917999943,394.63439729998936,,,,394.6404730999784,394.6520996999752,394.6520996999752,394.7001237999939,394.7003586999781,394.71671709997463,394.71671709997463,394.71671709997463,394.7999806999869,395.1000344999775,,,,,,,,up,2.7012090000207536,None,space,0.3779258000140544,None,,,,,,,,,,,,,,,,,P117,001,2025-02-19_14h20.48.368,posner_endo_new1,2024.2.4,60.03348667876166,2025-02-19 14h20.56.636180 +0000,
cube_l.png,0.1,0.31,invalid,38,38,0,up,4.4640546000155155,None,space,0.4828298999927938,None,,,,,0,38,38,38,,,,,395.11618529999396,,,,,,,,,,,,,395.1002168999985,395.11618529999396,395.11618529999396,395.11618529999396,399.5957876999746,,,,399.60162760000094,399.61325419999775,399.61325419999775,399.6617797999934,399.6620125999907,399.678333799995,399.678333799995,399.678333799995,399.7448694999912,400.16211159998784,,,,,,,,up,4.4640546000155155,None,space,0.4828298999927938,None,,,,,,,,,,,,,,,,,P117,001,2025-02-19_14h20.48.368,posner_endo_new1,2024.2.4,60.03348667876166,2025-02-19 14h20.56.636180 +0000,
cube_r.png,0.1,0.31,valid,39,39,0,up,1.9071412999765016,None,space,0.46740419999696314,None,,,,,0,39,39,39,,,,,400.17786149997846,,,,,,,,,,,,,400.16228599997703,400.17786149997846,400.17786149997846,400.17786149997846,402.09306629997445,,,,402.0990677999798,402.110698399978,402.110698399978,402.15921230000095,402.15943819997483,402.17574389997753,402.17574389997753,402.17574389997753,402.2424125999969,402.65956849997747,,,,,,,,up,1.9071412999765016,None,space,0.46740419999696314,None,,,,,,,,,,,,,,,,,P117,001,2025-02-19_14h20.48.368,posner_endo_new1,2024.2.4,60.03348667876166,2025-02-19 14h20.56.636180 +0000,
cube_l.png,0.1,0.31,invalid,40,40,0,up,2.169155299983686,None,space,0.652065499976743,None,,,,,0,40,40,40,,,,,402.6749718999781,,,,,,,,,,,,,402.6597479999764,402.6749718999781,402.6749718999781,402.6749718999781,404.85699219998787,,,,404.8628431999823,404.8742506999988,404.8742506999988,404.9230642999755,404.9232937999768,404.9396276999905,404.9396276999905,404.9396276999905,405.02281949997996,405.60624379999354,,,,,,,,up,2.169155299983686,None,space,0.652065499976743,None,,,,,,,,,,,,,,,,,P117,001,2025-02-19_14h20.48.368,posner_endo_new1,2024.2.4,60.03348667876166,2025-02-19 14h20.56.636180 +0000,
cube_l.png,0.1,10,catch,41,41,0,up,1.3907247000024654,None,None,,,,,,,0,41,41,41,,,,,405.62209459999576,,,,,,,,,,,,,405.60642179998104,405.62209459999576,405.62209459999576,405.62209459999576,407.0211088999931,,,,407.02704089999315,407.0388660999888,407.0388660999888,407.087495099986,407.0877208999882,407.1039949999831,407.1039949999831,407.1039949999831,407.17057739998563,410.10131009999895,,,,409.18526469997596,410.1177167999849,410.1177167999849,410.1177167999849,up,1.3907247000024654,None,None,,,,,,,,,,,,,,,,,,,P117,001,2025-02-19_14h20.48.368,posner_endo_new1,2024.2.4,60.03348667876166,2025-02-19 14h20.56.636180 +0000,
cube_l.png,0.1,-0.31,valid,42,42,0,up,2.4870496000221465,None,space,0.5336639999877661,None,,,,,0,42,42,42,,,,,410.1177167999849,,,,,,,,,,,,,410.1014754999778,410.1177167999849,410.1177167999849,410.1177167999849,412.6158586999809,,,,412.6218577999971,412.63342269998975,412.63342269998975,412.6819000999967,412.6821233999799,412.6984021999815,412.6984021999815,412.6984021999815,412.76501219999045,413.2480043999967,,,,,,,,up,2.4870496000221465,None,space,0.5336639999877661,None,,,,,,,,,,,,,,,,,P117,001,2025-02-19_14h20.48.368,posner_endo_new1,2024.2.4,60.03348667876166,2025-02-19 14h20.56.636180 +0000,
cube_l.png,0.1,10,catch,43,43,0,up,2.3405752000107896,None,None,,,,,,,0,43,43,43,,,,,413.2642924999818,,,,,,,,,,,,,413.24818719999166,413.2642924999818,413.2642924999818,413.2642924999818,415.6127598999883,,,,415.618750499998,415.6305194000015,415.6305194000015,415.67881549999584,415.6790574999759,415.69514259998687,415.69514259998687,415.69514259998687,415.7617425999779,418.692793299997,,,,417.7759872000024,418.70871700000134,418.70871700000134,418.70871700000134,up,2.3405752000107896,None,None,,,,,,,,,,,,,,,,,,,P117,001,2025-02-19_14h20.48.368,posner_endo_new1,2024.2.4,60.03348667876166,2025-02-19 14h20.56.636180 +0000,
cube_l.png,0.1,0.31,invalid,44,44,0,up,3.176478200010024,None,space,0.4498357999837026,None,,,,,0,44,44,44,,,,,418.70871700000134,,,,,,,,,,,,,418.69295899997815,418.70871700000134,418.70871700000134,418.70871700000134,421.8893235999858,,,,421.89529249997577,421.90695209999103,421.90695209999103,421.9556048999948,421.95584409998264,421.9723643999896,421.9723643999896,421.9723643999896,422.03841989999637,422.4393663999799,,,,,,,,up,3.176478200010024,None,space,0.4498357999837026,None,,,,,,,,,,,,,,,,,P117,001,2025-02-19_14h20.48.368,posner_endo_new1,2024.2.4,60.03348667876166,2025-02-19 14h20.56.636180 +0000,
cube_l.png,0.1,0.31,invalid,45,45,0,up,2.5265424999815878,None,space,0.40971340000396594,None,,,,,0,45,45,45,,,,,422.45452609998756,,,,,,,,,,,,,422.43954639998265,422.45452609998756,422.45452609998756,422.45452609998756,424.9866323999886,,,,424.99257669999497,425.0041962999967,425.0041962999967,425.0524626999977,425.0526874999923,425.0690811999957,425.0690811999957,425.0690811999957,425.1522205999936,425.4859092999832,,,,,,,,up,2.5265424999815878,None,space,0.40971340000396594,None,,,,,,,,,,,,,,,,,P117,001,2025-02-19_14h20.48.368,posner_endo_new1,2024.2.4,60.03348667876166,2025-02-19 14h20.56.636180 +0000,
cube_r.png,0.1,0.31,valid,46,46,0,up,2.3023837999789976,None,space,0.3463968000141904,None,,,,,0,46,46,46,,,,,425.50198139998247,,,,,,,,,,,,,425.4860843999777,425.50198139998247,425.50198139998247,425.50198139998247,427.8171600999776,,,,427.8231571999786,427.8349936000013,427.8349936000013,427.88280279998435,427.88303949998226,427.8992904999759,427.8992904999759,427.8992904999759,427.9658819999895,428.24993419999373,,,,,,,,up,2.3023837999789976,None,space,0.3463968000141904,None,,,,,,,,,,,,,,,,,P117,001,2025-02-19_14h20.48.368,posner_endo_new1,2024.2.4,60.03348667876166,2025-02-19 14h20.56.636180 +0000,
cube_l.png,0.1,-0.31,valid,47,47,0,up,2.3709960999840405,None,space,0.34449859999585897,None,,,,,0,47,47,47,,,,,428.26578499999596,,,,,,,,,,,,,428.2501112000027,428.26578499999596,428.26578499999596,428.26578499999596,430.64721619998454,,,,430.6532249999873,430.6646533999883,430.6646533999883,430.71344599997974,430.71368399998755,430.73001349999686,430.73001349999686,430.73001349999686,430.7966056999867,431.0800147999835,,,,,,,,up,2.3709960999840405,None,space,0.34449859999585897,None,,,,,,,,,,,,,,,,,P117,001,2025-02-19_14h20.48.368,posner_endo_new1,2024.2.4,60.03348667876166,2025-02-19 14h20.56.636180 +0000,
cube_r.png,0.1,-0.31,invalid,48,48,0,up,2.4042979999794625,None,space,0.3907558000064455,None,,,,,0,48,48,48,,,,,431.0963473999873,,,,,,,,,,,,,431.0801896999765,431.0963473999873,431.0963473999873,431.0963473999873,433.51057039998705,,,,433.5165812999767,433.5281433999771,433.5281433999771,433.57697219998227,433.57719499999075,433.59365049999906,433.59365049999906,433.59365049999906,433.6602165999939,433.99340209999355,,,,,,,,up,2.4042979999794625,None,space,0.3907558000064455,None,,,,,,,,,,,,,,,,,P117,001,2025-02-19_14h20.48.368,posner_endo_new1,2024.2.4,60.03348667876166,2025-02-19 14h20.56.636180 +0000,
cube_r.png,0.1,10,catch,49,49,0,up,2.3867783000168856,None,None,,,,,,,0,49,49,49,,,,,434.0098333999922,,,,,,,,,,,,,433.99358509999,434.0098333999922,434.0098333999922,434.0098333999922,436.4081274999771,,,,436.41410119997454,436.4256083999935,436.4256083999935,436.47411769998143,436.47434999997495,436.49068789999,436.49068789999,436.49068789999,436.57407469998,439.4880407000019,,,,438.5886507999967,439.50429419998545,439.50429419998545,439.50429419998545,up,2.3867783000168856,None,None,,,,,,,,,,,,,,,,,,,P117,001,2025-02-19_14h20.48.368,posner_endo_new1,2024.2.4,60.03348667876166,2025-02-19 14h20.56.636180 +0000,
cube_l.png,0.1,-0.31,valid,50,50,0,up,2.020535199990263,None,space,0.44662020000396296,None,,,,,0,50,50,50,,,,,439.50429419998545,,,,,,,,,,,,,439.48820939997677,439.50429419998545,439.50429419998545,439.50429419998545,441.5360977999808,,,,441.5421045999974,441.5536642999796,441.5536642999796,441.60229509999044,441.60253469998133,441.6186564999807,441.6186564999807,441.6186564999807,441.6851934999868,442.06943989999127,,,,,,,,up,2.020535199990263,None,space,0.44662020000396296,None,,,,,,,,,,,,,,,,,P117,001,2025-02-19_14h20.48.368,posner_endo_new1,2024.2.4,60.03348667876166,2025-02-19 14h20.56.636180 +0000,
cube_l.png,0.1,-0.31,valid,51,51,0,up,1.935943699994823,None,space,0.44757960000424646,None,,,,,0,51,51,51,,,,,442.0850978999806,,,,,,,,,,,,,442.0696162999957,442.0850978999806,442.0850978999806,442.0850978999806,444.03395859999,,,,444.03993319999427,444.05136509999284,444.05136509999284,444.0996328999754,444.0998563999892,444.11611649999395,444.11611649999395,444.11611649999395,444.19958079999196,444.56640280000283,,,,,,,,up,1.935943699994823,None,space,0.44757960000424646,None,,,,,,,,,,,,,,,,,P117,001,2025-02-19_14h20.48.368,posner_endo_new1,2024.2.4,60.03348667876166,2025-02-19 14h20.56.636180 +0000,
cube_r.png,0.1,-0.31,invalid,52,52,0,up,2.031816599977901,None,space,0.42036330001428723,None,,,,,0,52,52,52,,,,,444.58232809999026,,,,,,,,,,,,,444.5665836999833,444.58232809999026,444.58232809999026,444.58232809999026,446.6312992000021,,,,446.6372796999931,446.64859929998056,446.64859929998056,446.6970883999893,446.69732659999863,446.7137278000009,446.7137278000009,446.7137278000009,446.7802629999933,447.1470819999813,,,,,,,,up,2.031816599977901,None,space,0.42036330001428723,None,,,,,,,,,,,,,,,,,P117,001,2025-02-19_14h20.48.368,posner_endo_new1,2024.2.4,60.03348667876166,2025-02-19 14h20.56.636180 +0000,
cube_l.png,0.1,-0.31,valid,53,53,0,up,1.6896643999789376,None,space,0.37466209998819977,None,,,,,0,53,53,53,,,,,447.16314829999465,,,,,,,,,,,,,447.14726019999944,447.16314829999465,447.16314829999465,447.16314829999465,448.86166929997853,,,,448.8675478999794,448.87913149999804,448.87913149999804,448.9280323999992,448.9282719999901,448.94462470000144,448.94462470000144,448.94462470000144,449.0111590999877,449.32792749998043,,,,,,,,up,1.6896643999789376,None,space,0.37466209998819977,None,,,,,,,,,,,,,,,,,P117,001,2025-02-19_14h20.48.368,posner_endo_new1,2024.2.4,60.03348667876166,2025-02-19 14h20.56.636180 +0000,
cube_r.png,0.1,10,catch,54,54,0,up,1.5882483999885153,None,None,,,,,,,0,54,54,54,,,,,449.34428569997544,,,,,,,,,,,,,449.328100099985,449.34428569997544,449.34428569997544,449.34428569997544,450.94285809999565,,,,450.94885539999814,450.9602927999804,450.9602927999804,450.99319349997677,450.9934210999927,451.00930749997497,451.00930749997497,451.00930749997497,451.0923753999814,454.00623699999414,,,,453.1072559999884,454.0226948999916,454.0226948999916,454.0226948999916,up,1.5882483999885153,None,None,,,451.00930749997497,451.00930749997497,,,,,,,,,,,,,,,P117,001,2025-02-19_14h20.48.368,posner_endo_new1,2024.2.4,60.03348667876166,2025-02-19 14h20.56.636180 +0000,
cube_l.png,0.1,0.31,invalid,55,55,0,up,1.5824467999918852,None,space,0.3993099999788683,None,,,,,0,55,55,55,,,,,454.0226948999916,,,,,,,,,,,,,454.00641029997496,454.0226948999916,454.0226948999916,454.0226948999916,455.6219538000005,,,,455.6279411999858,455.63951799998176,455.63951799998176,455.687686499994,455.6879246000026,455.7044154999894,455.7044154999894,455.7044154999894,455.7709084999806,456.104926,,,,,,,,up,1.5824467999918852,None,space,0.3993099999788683,None,,,,,,,,,,,,,,,,,P117,001,2025-02-19_14h20.48.368,posner_endo_new1,2024.2.4,60.03348667876166,2025-02-19 14h20.56.636180 +0000,
cube_l.png,0.1,-0.31,valid,56,56,0,up,1.6282722000032663,None,space,0.440668099996401,None,,,,,0,56,56,56,,,,,456.1204838999838,,,,,,,,,,,,,456.1051002999884,456.1204838999838,456.1204838999838,456.1204838999838,457.7531652000034,,,,457.75911659997655,457.7705824000004,457.7705824000004,457.8187204999849,457.8189458999841,457.83505850000074,457.83505850000074,457.83505850000074,457.918671499996,458.28579209998134,,,,,,,,up,1.6282722000032663,None,space,0.440668099996401,None,,,,,,,,,,,,,,,,,P117,001,2025-02-19_14h20.48.368,posner_endo_new1,2024.2.4,60.03348667876166,2025-02-19 14h20.56.636180 +0000,
cube_r.png,0.1,0.31,valid,57,57,0,up,1.8148213000094984,None,space,0.3404032999824267,None,,,,,0,57,57,57,,,,,458.30179009999847,,,,,,,,,,,,,458.28596949999337,458.30179009999847,458.30179009999847,458.30179009999847,460.1175931999751,,,,460.12355509999907,460.13540709999506,460.13540709999506,460.18318719998933,460.18343009997625,460.1997633999854,460.1997633999854,460.1997633999854,460.28272719998495,460.5500083999941,,,,,,,,up,1.8148213000094984,None,space,0.3404032999824267,None,,,,,,,,,,,,,,,,,P117,001,2025-02-19_14h20.48.368,posner_endo_new1,2024.2.4,60.03348667876166,2025-02-19 14h20.56.636180 +0000,
cube_r.png,0.1,-0.31,invalid,58,58,0,up,1.831025799998315,None,space,0.3619775999977719,None,,,,,0,58,58,58,,,,,460.56623509997735,,,,,,,,,,,,,460.5501815000025,460.56623509997735,460.56623509997735,460.56623509997735,462.3982160000014,,,,462.40427239998826,462.41577749999124,462.41577749999124,462.46451059999526,462.4647444000002,462.48091519999434,462.48091519999434,462.48091519999434,462.5475276999932,462.8475980999938,,,,,,,,up,1.831025799998315,None,space,0.3619775999977719,None,,,,,,,,,,,,,,,,,P117,001,2025-02-19_14h20.48.368,posner_endo_new1,2024.2.4,60.03348667876166,2025-02-19 14h20.56.636180 +0000,
cube_l.png,0.1,0.31,invalid,59,59,0,up,1.765255200007232,None,space,0.4654404000029899,None,,,,,0,59,59,59,,,,,462.8638594999793,,,,,,,,,,,,,462.84777279998525,462.8638594999793,462.8638594999793,462.8638594999793,464.6459842999757,,,,464.6518743999768,464.66340049999417,464.66340049999417,464.7119431000028,464.71217739998247,464.72823320000316,464.72823320000316,464.72823320000316,464.81154389999574,465.19542569998885,,,,,,,,up,1.765255200007232,None,space,0.4654404000029899,None,,,,,,,,,,,,,,,,,P117,001,2025-02-19_14h20.48.368,posner_endo_new1,2024.2.4,60.03348667876166,2025-02-19 14h20.56.636180 +0000,
,,,,,,,,,,,,,,,,,,,,,,,,,,,,,,,,,,,,,,,,,,,,,,,,,,,,,,,,,,,,,,,,,,,,,,,465.19554210000206,465.2113232999982,465.2113232999982,525.2164609000029,529.1301128999912,space,63.90522630000487,None,,,,,,,P117,001,2025-02-19_14h20.48.368,posner_endo_new1,2024.2.4,60.03348667876166,2025-02-19 14h20.56.636180 +0000,
,,,,,,,,,,,,,,,,,,,,,,,,,,,,,,,,,,529.1301629999944,529.1460580999847,532.149402399984,532.1266757999838,,,,,,,,,,,,,,,,,,,,,,,,,,,,,,,,,,,,,,,,,,,,,,,,P117,001,2025-02-19_14h20.48.368,posner_endo_new1,2024.2.4,60.03348667876166,2025-02-19 14h20.56.636180 +0000,
cube_l.png,0.1,10,catch,0,0,0,down,5.063535599998431,None,None,,,,,,,,,,,0,0,0,0,532.149402399984,,,,,,,,,,,,,532.1406128999952,532.149402399984,532.149402399984,532.149402399984,537.2216163999983,,,,537.2276961999887,537.2392344999826,537.2392344999826,537.287877099996,537.2881251999934,537.3043707000033,537.3043707000033,537.3043707000033,537.3709382999805,540.3019068999856,,,,539.3850511999917,540.318065200001,540.318065200001,540.318065200001,,,,,,,,,,,,,,,,,down,5.063535599998431,None,None,,,P117,001,2025-02-19_14h20.48.368,posner_endo_new1,2024.2.4,60.03348667876166,2025-02-19 14h20.56.636180 +0000,
cube_l.png,0.1,10,catch,1,1,0,down,2.5428060999838635,None,None,,,,,,,,,,,0,1,1,1,540.318065200001,,,,,,,,,,,,,540.3020809000009,540.318065200001,540.318065200001,540.318065200001,542.8657304999942,,,,542.8717746999755,542.8834044999967,542.8834044999967,542.9322804999829,542.9325201000029,542.9484798999911,542.9484798999911,542.9484798999911,543.0148865999945,545.9462345999782,,,,545.0298673999787,545.9623797999811,545.9623797999811,545.9623797999811,,,,,,,,,,,,,,,,,down,2.5428060999838635,None,None,,,P117,001,2025-02-19_14h20.48.368,posner_endo_new1,2024.2.4,60.03348667876166,2025-02-19 14h20.56.636180 +0000,
cube_l.png,0.1,0.31,invalid,2,2,0,down,1.2986285999941174,None,space,0.42616220001946203,None,,,,,,,,,0,2,2,2,545.9623797999811,,,,,,,,,,,,,545.946410399978,545.9623797999811,545.9623797999811,545.9623797999811,547.2617595999909,,,,547.2677484999876,547.2794132999843,547.2794132999843,547.327678200003,547.3279194999777,547.3437613999995,547.3437613999995,547.3437613999995,547.4108295999758,547.7779499999888,,,,,,,,,,,,,,,,,,,,,,,,down,1.2986285999941174,None,space,0.42616220001946203,None,P117,001,2025-02-19_14h20.48.368,posner_endo_new1,2024.2.4,60.03348667876166,2025-02-19 14h20.56.636180 +0000,
cube_l.png,0.1,0.31,invalid,3,3,0,down,4.236133400001563,None,space,0.42281950000324287,None,,,,,,,,,0,3,3,3,547.7931702999922,,,,,,,,,,,,,547.7781329999852,547.7931702999922,547.7931702999922,547.7931702999922,552.0399383999757,,,,552.0461925999844,552.0579312999907,552.0579312999907,552.1055833999999,552.1058208000031,552.1223180999805,552.1223180999805,552.1223180999805,552.1892384999956,552.5563590999809,,,,,,,,,,,,,,,,,,,,,,,,down,4.236133400001563,None,space,0.42281950000324287,None,P117,001,2025-02-19_14h20.48.368,posner_endo_new1,2024.2.4,60.03348667876166,2025-02-19 14h20.56.636180 +0000,
cube_l.png,0.1,-0.31,valid,4,4,0,down,11.513761300011538,None,space,0.4055549999757204,None,,,,,,,,,0,4,4,4,552.5716348999995,,,,,,,,,,,,,552.5565395999874,552.5716348999995,552.5716348999995,552.5716348999995,564.0945900999941,,,,564.1005557999888,564.1122309999773,564.1122309999773,564.1601274999848,564.1603663999995,564.1767884999863,564.1767884999863,564.1767884999863,564.2601346999872,564.5941786999756,,,,,,,,,,,,,,,,,,,,,,,,down,11.513761300011538,None,space,0.4055549999757204,None,P117,001,2025-02-19_14h20.48.368,posner_endo_new1,2024.2.4,60.03348667876166,2025-02-19 14h20.56.636180 +0000,
cube_r.png,0.1,-0.31,invalid,5,5,0,down,5.667608299991116,None,space,0.44236610000371,None,,,,,,,,,0,5,5,5,564.6097903999907,,,,,,,,,,,,,564.5943575999991,564.6097903999907,564.6097903999907,564.6097903999907,570.2880434999825,,,,570.2940932999772,570.3055230999889,570.3055230999889,570.354145499994,570.3543851999857,570.3705883999937,570.3705883999937,570.3705883999937,570.453592099977,570.8204364999838,,,,,,,,,,,,,,,,,,,,,,,,down,5.667608299991116,None,space,0.44236610000371,None,P117,001,2025-02-19_14h20.48.368,posner_endo_new1,2024.2.4,60.03348667876166,2025-02-19 14h20.56.636180 +0000,
cube_r.png,0.1,0.31,valid,6,6,0,down,5.744157600012841,None,space,0.4708764999813866,None,,,,,,,,,0,6,6,6,570.8367230999866,,,,,,,,,,,,,570.8206163999857,570.8367230999866,570.8367230999866,570.8367230999866,576.5819192999916,,,,576.5879871999787,576.5996883999906,576.5996883999906,576.6475996999943,576.6478405999951,576.6641688999953,576.6641688999953,576.6641688999953,576.7475731000013,577.1475552999764,,,,,,,,,,,,,,,,,,,,,,,,down,5.744157600012841,None,space,0.4708764999813866,None,P117,001,2025-02-19_14h20.48.368,posner_endo_new1,2024.2.4,60.03348667876166,2025-02-19 14h20.56.636180 +0000,
cube_r.png,0.1,-0.31,invalid,7,7,0,down,7.409663800004637,None,space,0.43760699999984354,None,,,,,,,,,0,7,7,7,577.1637106999988,,,,,,,,,,,,,577.1477346999745,577.1637106999988,577.1637106999988,577.1637106999988,584.5901603999955,,,,584.5961109999917,584.6076258999819,584.6076258999819,584.6557937999896,584.6560310999921,584.672573799995,584.672573799995,584.672573799995,584.739078899991,585.1230667999771,,,,,,,,,,,,,,,,,,,,,,,,down,7.409663800004637,None,space,0.43760699999984354,None,P117,001,2025-02-19_14h20.48.368,posner_endo_new1,2024.2.4,60.03348667876166,2025-02-19 14h20.56.636180 +0000,
cube_l.png,0.1,-0.31,valid,8,8,0,down,4.978389199997764,None,space,0.39961170000606216,None,,,,,,,,,0,8,8,8,585.1384242999775,,,,,,,,,,,,,585.1232440999884,585.1384242999775,585.1384242999775,585.1384242999775,590.1180825999763,,,,590.1241147999826,590.1358936000033,590.1358936000033,590.1838303999975,590.1840713999991,590.200113799976,590.200113799976,590.200113799976,590.2836641999893,590.6009238999977,,,,,,,,,,,,,,,,,,,,,,,,down,4.978389199997764,None,space,0.39961170000606216,None,P117,001,2025-02-19_14h20.48.368,posner_endo_new1,2024.2.4,60.03348667876166,2025-02-19 14h20.56.636180 +0000,
cube_r.png,0.1,-0.31,invalid,9,9,0,down,5.684548799996264,None,space,0.3547375999914948,None,,,,,,,,,0,9,9,9,590.6166879999801,,,,,,,,,,,,,590.6011051999812,590.6166879999801,590.6166879999801,590.6166879999801,596.3109906000027,,,,596.316830900003,596.3284319999802,596.3284319999802,596.3774349000014,596.3776628999913,596.3941074000031,596.3941074000031,596.3941074000031,596.4608536000014,596.7609327999817,,,,,,,,,,,,,,,,,,,,,,,,down,5.684548799996264,None,space,0.3547375999914948,None,P117,001,2025-02-19_14h20.48.368,posner_endo_new1,2024.2.4,60.03348667876166,2025-02-19 14h20.56.636180 +0000,
cube_l.png,0.1,0.31,invalid,10,10,0,down,6.771668700006558,None,space,0.4176432999956887,None,,,,,,,,,0,10,10,10,596.7770211999887,,,,,,,,,,,,,596.7611176999926,596.7770211999887,596.7770211999887,596.7770211999887,603.5541375999746,,,,603.5601884999778,603.5720594000013,603.5720594000013,603.6200750999851,603.6203145999752,603.6365229999938,603.6365229999938,603.6365229999938,603.7198671999795,604.0704841999977,,,,,,,,,,,,,,,,,,,,,,,,down,6.771668700006558,None,space,0.4176432999956887,None,P117,001,2025-02-19_14h20.48.368,posner_endo_new1,2024.2.4,60.03348667876166,2025-02-19 14h20.56.636180 +0000,
cube_r.png,0.1,-0.31,invalid,11,11,0,down,6.614692800008925,None,space,0.4092196999990847,None,,,,,,,,,0,11,11,11,604.0862179999822,,,,,,,,,,,,,604.0706643000012,604.0862179999822,604.0862179999822,604.0862179999822,610.7134134999942,,,,610.7194563999947,610.7310208999843,610.7310208999843,610.7789788999944,610.779217000003,610.7958000999934,610.7958000999934,610.7958000999934,610.8626674999832,611.2131637999846,,,,,,,,,,,,,,,,,,,,,,,,down,6.614692800008925,None,space,0.4092196999990847,None,P117,001,2025-02-19_14h20.48.368,posner_endo_new1,2024.2.4,60.03348667876166,2025-02-19 14h20.56.636180 +0000,
cube_r.png,0.1,0.31,valid,12,12,0,down,7.968181899981573,None,space,0.43474549998063594,None,,,,,,,,,0,12,12,12,611.2289514000004,,,,,,,,,,,,,611.2133476999879,611.2289514000004,611.2289514000004,611.2289514000004,619.2048845999816,,,,619.2108615000034,619.2225456000015,619.2225456000015,619.270839099976,619.2710816999897,619.2870207999949,619.2870207999949,619.2870207999949,619.3704933999979,619.7373081999831,,,,,,,,,,,,,,,,,,,,,,,,down,7.968181899981573,None,space,0.43474549998063594,None,P117,001,2025-02-19_14h20.48.368,posner_endo_new1,2024.2.4,60.03348667876166,2025-02-19 14h20.56.636180 +0000,
cube_l.png,0.1,10,catch,13,13,0,down,8.091258300002664,None,None,,,,,,,,,,,0,13,13,13,619.7534104999795,,,,,,,,,,,,,619.7374875999813,619.7534104999795,619.7534104999795,619.7534104999795,627.846109599981,,,,627.8522937999805,627.8640322999854,627.8640322999854,627.9120330000005,627.9122834999871,627.9284504999814,627.9284504999814,627.9284504999814,628.0118573999789,630.9259971999854,,,,630.0263534999976,630.9416074999899,630.9416074999899,630.9416074999899,,,,,,,,,,,,,,,,,down,8.091258300002664,None,None,,,P117,001,2025-02-19_14h20.48.368,posner_endo_new1,2024.2.4,60.03348667876166,2025-02-19 14h20.56.636180 +0000,
cube_r.png,0.1,-0.31,invalid,14,14,0,down,4.19185859998106,None,space,0.46118400001432747,None,,,,,,,,,0,14,14,14,630.9416074999899,,,,,,,,,,,,,630.9261753999745,630.9416074999899,630.9416074999899,630.9416074999899,635.1385465999774,,,,635.1444254999806,635.1560898000025,635.1560898000025,635.2043755999766,635.2046007000026,635.2210793999839,635.2210793999839,635.2210793999839,635.3041470999888,635.687547199981,,,,,,,,,,,,,,,,,,,,,,,,down,4.19185859998106,None,space,0.46118400001432747,None,P117,001,2025-02-19_14h20.48.368,posner_endo_new1,2024.2.4,60.03348667876166,2025-02-19 14h20.56.636180 +0000,
cube_l.png,0.1,-0.31,valid,15,15,0,down,6.813519799994538,None,space,0.634664499986684,None,,,,,,,,,0,15,15,15,635.7034323999833,,,,,,,,,,,,,635.6877273999853,635.7034323999833,635.7034323999833,635.7034323999833,642.5313102999935,,,,642.5374526999949,642.5492872000032,642.5492872000032,642.5968646999972,642.5971071999811,642.6136844999855,642.6136844999855,642.6136844999855,642.6966885000002,643.2636433999869,,,,,,,,,,,,,,,,,,,,,,,,down,6.813519799994538,None,space,0.634664499986684,None,P117,001,2025-02-19_14h20.48.368,posner_endo_new1,2024.2.4,60.03348667876166,2025-02-19 14h20.56.636180 +0000,
cube_r.png,0.1,10,catch,16,16,0,down,6.189806600013981,None,None,,,,,,,,,,,0,16,16,16,643.2792205000005,,,,,,,,,,,,,643.2638210000005,643.2792205000005,643.2792205000005,643.2792205000005,649.47402959998,,,,649.4799737999856,649.4915762000019,649.4915762000019,649.5399917000032,649.5402177999786,649.5560579999874,649.5560579999874,649.5560579999874,649.6396309999982,652.5539461000008,,,,651.6540871000034,652.5695801999827,652.5695801999827,652.5695801999827,,,,,,,,,,,,,,,,,down,6.189806600013981,None,None,,,P117,001,2025-02-19_14h20.48.368,posner_endo_new1,2024.2.4,60.03348667876166,2025-02-19 14h20.56.636180 +0000,
cube_r.png,0.1,10,catch,17,17,0,down,3.7953231999999844,None,None,,,,,,,,,,,0,17,17,17,652.5695801999827,,,,,,,,,,,,,652.5541157999833,652.5695801999827,652.5695801999827,652.5695801999827,656.366669799987,,,,656.3726819999865,656.3844215999998,656.3844215999998,656.4327053999878,656.4329512999975,656.4488792999764,656.4488792999764,656.4488792999764,656.5158091999765,659.4465711999801,,,,658.530090699991,659.4629008999909,659.4629008999909,659.4629008999909,,,,,,,,,,,,,,,,,down,3.7953231999999844,None,None,,,P117,001,2025-02-19_14h20.48.368,posner_endo_new1,2024.2.4,60.03348667876166,2025-02-19 14h20.56.636180 +0000,
cube_l.png,0.1,0.31,invalid,18,18,0,down,3.599560800008476,None,space,0.4743377999984659,None,,,,,,,,,0,18,18,18,659.4629008999909,,,,,,,,,,,,,659.4467439999862,659.4629008999909,659.4629008999909,659.4629008999909,663.0764777000004,,,,663.0825559999794,663.0939338000026,663.0939338000026,663.1425134000019,663.1427532999951,663.1588870999985,663.1588870999985,663.1588870999985,663.225740599999,663.6421655000013,,,,,,,,,,,,,,,,,,,,,,,,down,3.599560800008476,None,space,0.4743377999984659,None,P117,001,2025-02-19_14h20.48.368,posner_endo_new1,2024.2.4,60.03348667876166,2025-02-19 14h20.56.636180 +0000,
cube_l.png,0.1,10,catch,19,19,0,down,6.786357500008307,None,None,,,,,,,,,,,0,19,19,19,663.6587290999887,,,,,,,,,,,,,663.6423499999801,663.6587290999887,663.6587290999887,663.6587290999887,670.452498300001,,,,670.4583541000029,670.470070099982,670.470070099982,670.5182623000001,670.5184886999778,670.5354205999756,670.5354205999756,670.5354205999756,670.6180691999907,673.5325698999804,,,,672.6327045999933,673.5483333999873,673.5483333999873,673.5483333999873,,,,,,,,,,,,,,,,,down,6.786357500008307,None,None,,,P117,001,2025-02-19_14h20.48.368,posner_endo_new1,2024.2.4,60.03348667876166,2025-02-19 14h20.56.636180 +0000,
cube_l.png,0.1,0.31,invalid,20,20,0,down,7.56132730000536,None,space,0.3859246000065468,None,,,,,,,,,0,20,20,20,673.5483333999873,,,,,,,,,,,,,673.5327399999951,673.5483333999873,673.5483333999873,673.5483333999873,681.1243414999917,,,,681.1302006999904,681.1416792999953,681.1416792999953,681.190694799996,681.1909192999883,681.2072595999925,681.2072595999925,681.2072595999925,681.2738947999896,681.6078813999775,,,,,,,,,,,,,,,,,,,,,,,,down,7.56132730000536,None,space,0.3859246000065468,None,P117,001,2025-02-19_14h20.48.368,posner_endo_new1,2024.2.4,60.03348667876166,2025-02-19 14h20.56.636180 +0000,
cube_l.png,0.1,-0.31,valid,21,21,0,down,10.60574140000972,None,space,0.4196519000106491,None,,,,,,,,,0,21,21,21,681.6231544999755,,,,,,,,,,,,,681.6080607999756,681.6231544999755,681.6231544999755,681.6231544999755,692.2298786999891,,,,692.2359865999897,692.2476254999929,692.2476254999929,692.2957331999787,692.2959724999964,692.3126639999973,692.3126639999973,692.3126639999973,692.3795231999829,692.7462920999969,,,,,,,,,,,,,,,,,,,,,,,,down,10.60574140000972,None,space,0.4196519000106491,None,P117,001,2025-02-19_14h20.48.368,posner_endo_new1,2024.2.4,60.03348667876166,2025-02-19 14h20.56.636180 +0000,
cube_r.png,0.1,0.31,valid,22,22,0,down,8.106805300019914,None,space,0.3442279000009876,None,,,,,,,,,0,22,22,22,692.7621505999996,,,,,,,,,,,,,692.7464742999873,692.7621505999996,692.7621505999996,692.7621505999996,700.8715007999854,,,,700.8774514999823,700.8891517999873,700.8891517999873,700.9373994999914,700.9376260999998,700.9539807999972,700.9539807999972,700.9539807999972,701.037173699995,701.3043451999838,,,,,,,,,,,,,,,,,,,,,,,,down,8.106805300019914,None,space,0.3442279000009876,None,P117,001,2025-02-19_14h20.48.368,posner_endo_new1,2024.2.4,60.03348667876166,2025-02-19 14h20.56.636180 +0000,
cube_r.png,0.1,-0.31,invalid,23,23,0,down,7.973585300002014,None,space,0.4593270999903325,None,,,,,,,,,0,23,23,23,701.3197311999975,,,,,,,,,,,,,701.3045359999815,701.3197311999975,701.3197311999975,701.3197311999975,709.2960934999865,,,,709.3022027999978,709.3138329999929,709.3138329999929,709.362139099976,709.362386199995,709.3786325999827,709.3786325999827,709.3786325999827,709.4618504999962,709.8455627999792,,,,,,,,,,,,,,,,,,,,,,,,down,7.973585300002014,None,space,0.4593270999903325,None,P117,001,2025-02-19_14h20.48.368,posner_endo_new1,2024.2.4,60.03348667876166,2025-02-19 14h20.56.636180 +0000,
cube_r.png,0.1,0.31,valid,24,24,0,down,7.375916499993764,None,space,0.44044859998393804,None,,,,,,,,,0,24,24,24,709.8614034999919,,,,,,,,,,,,,709.8457449999987,709.8614034999919,709.8614034999919,709.8614034999919,717.2381913999852,,,,717.2442543999932,717.2559906999813,717.2559906999813,717.3039553999843,717.3041823999956,717.3204317999771,717.3204317999771,717.3204317999771,717.4038150999986,717.7703638999956,,,,,,,,,,,,,,,,,,,,,,,,down,7.375916499993764,None,space,0.44044859998393804,None,P117,001,2025-02-19_14h20.48.368,posner_endo_new1,2024.2.4,60.03348667876166,2025-02-19 14h20.56.636180 +0000,
cube_r.png,0.1,-0.31,invalid,25,25,0,down,6.01106059999438,None,space,0.39569519998622127,None,,,,,,,,,0,25,25,25,717.7865049999964,,,,,,,,,,,,,717.7705432999937,717.7865049999964,717.7865049999964,717.7865049999964,723.8144962999795,,,,723.8203226999904,723.8316768999794,723.8316768999794,723.8804922999989,723.8807188999781,723.8969999999972,723.8969999999972,723.8969999999972,723.9636143999815,724.2973771999823,,,,,,,,,,,,,,,,,,,,,,,,down,6.01106059999438,None,space,0.39569519998622127,None,P117,001,2025-02-19_14h20.48.368,posner_endo_new1,2024.2.4,60.03348667876166,2025-02-19 14h20.56.636180 +0000,
cube_l.png,0.1,-0.31,valid,26,26,0,down,6.243769399996381,None,space,0.7695836999919266,None,,,,,,,,,0,26,26,26,724.3133054999926,,,,,,,,,,,,,724.2975507999945,724.3133054999926,724.3133054999926,724.3133054999926,730.5578227999795,,,,730.5638962999801,730.5756425999862,730.5756425999862,730.6233770999825,730.6236154999933,730.6401820999745,730.6401820999745,730.6401820999745,730.7233541999885,731.4232160999964,,,,,,,,,,,,,,,,,,,,,,,,down,6.243769399996381,None,space,0.7695836999919266,None,P117,001,2025-02-19_14h20.48.368,posner_endo_new1,2024.2.4,60.03348667876166,2025-02-19 14h20.56.636180 +0000,
cube_r.png,0.1,0.31,valid,27,27,0,down,6.711187099979725,None,space,0.3951213000109419,None,,,,,,,,,0,27,27,27,731.4395343999786,,,,,,,,,,,,,731.4233967999753,731.4395343999786,731.4395343999786,731.4395343999786,738.1665945999848,,,,738.1726185999869,738.184202799981,738.184202799981,738.2326114999887,738.2328511999804,738.2490150999802,738.2490150999802,738.2490150999802,738.3157969999884,738.6494043999992,,,,,,,,,,,,,,,,,,,,,,,,down,6.711187099979725,None,space,0.3951213000109419,None,P117,001,2025-02-19_14h20.48.368,posner_endo_new1,2024.2.4,60.03348667876166,2025-02-19 14h20.56.636180 +0000,
cube_r.png,0.1,10,catch,28,28,0,down,10.116254199994728,None,None,,,,,,,,,,,0,28,28,28,738.6653154999949,,,,,,,,,,,,,738.6495849999774,738.6653154999949,738.6653154999949,738.6653154999949,748.7891790999856,,,,748.7951401999744,748.8066306999826,748.8066306999826,748.8551108999818,748.8553479999828,748.8716562999762,748.8716562999762,748.8716562999762,748.9548828999978,751.8690594999935,,,,750.969227900001,751.8849302000017,751.8849302000017,751.8849302000017,,,,,,,,,,,,,,,,,down,10.116254199994728,None,None,,,P117,001,2025-02-19_14h20.48.368,posner_endo_new1,2024.2.4,60.03348667876166,2025-02-19 14h20.56.636180 +0000,
cube_r.png,0.1,0.31,valid,29,29,0,down,11.199845700000878,None,space,0.49897920002695173,None,,,,,,,,,0,29,29,29,751.8849302000017,,,,,,,,,,,,,751.869228800002,751.8849302000017,751.8849302000017,751.8849302000017,763.0913319999818,,,,763.0974038999993,763.1089342999912,763.1089342999912,763.1572404000035,763.1574809000012,763.1733191999956,763.1733191999956,763.1733191999956,763.2568902999919,763.6741063999943,,,,,,,,,,,,,,,,,,,,,,,,down,11.199845700000878,None,space,0.49897920002695173,None,P117,001,2025-02-19_14h20.48.368,posner_endo_new1,2024.2.4,60.03348667876166,2025-02-19 14h20.56.636180 +0000,
cube_r.png,0.1,0.31,valid,30,30,0,down,6.659158099995693,None,space,0.5181905000063125,None,,,,,,,,,0,30,30,30,763.6898351999989,,,,,,,,,,,,,763.6742902999977,763.6898351999989,763.6898351999989,763.6898351999989,770.3506173999922,,,,770.3564016000018,770.3680506999954,770.3680506999954,770.4162209999922,770.4164435999992,770.4326515999855,770.4326515999855,770.4326515999855,770.516189099988,770.9665900999971,,,,,,,,,,,,,,,,,,,,,,,,down,6.659158099995693,None,space,0.5181905000063125,None,P117,001,2025-02-19_14h20.48.368,posner_endo_new1,2024.2.4,60.03348667876166,2025-02-19 14h20.56.636180 +0000,
cube_l.png,0.1,-0.31,valid,31,31,0,down,11.398987100023078,None,space,0.43244449998019263,None,,,,,,,,,0,31,31,31,770.9822034999961,,,,,,,,,,,,,770.9667715999822,770.9822034999961,770.9822034999961,770.9822034999961,782.3878734000027,,,,782.3939066999883,782.4054345999903,782.4054345999903,782.4541981999937,782.4544232999906,782.4705210999819,782.4705210999819,782.4705210999819,782.5366046999989,782.9041589999979,,,,,,,,,,,,,,,,,,,,,,,,down,11.398987100023078,None,space,0.43244449998019263,None,P117,001,2025-02-19_14h20.48.368,posner_endo_new1,2024.2.4,60.03348667876166,2025-02-19 14h20.56.636180 +0000,
cube_r.png,0.1,0.31,valid,32,32,0,down,5.629251699981978,None,space,0.37430090000270866,None,,,,,,,,,0,32,32,32,782.9202110999904,,,,,,,,,,,,,782.9043452999904,782.9202110999904,782.9202110999904,782.9202110999904,788.565188299981,,,,788.571100399975,788.5828417000012,788.5828417000012,788.6311508999788,788.631376299978,788.6476850999752,788.6476850999752,788.6476850999752,788.7308113999898,789.0318159000017,,,,,,,,,,,,,,,,,,,,,,,,down,5.629251699981978,None,space,0.37430090000270866,None,P117,001,2025-02-19_14h20.48.368,posner_endo_new1,2024.2.4,60.03348667876166,2025-02-19 14h20.56.636180 +0000,
cube_r.png,0.1,-0.31,invalid,33,33,0,down,6.502679400000488,None,space,0.4769267000083346,None,,,,,,,,,0,33,33,33,789.0466304000001,,,,,,,,,,,,,789.0319986999966,789.0466304000001,789.0466304000001,789.0466304000001,795.558183199988,,,,795.5693966999825,795.5792220000003,795.5792220000003,795.6241060000029,795.6243658000021,795.640035199991,795.640035199991,795.640035199991,795.7235875999904,796.1242687999911,,,,,,,,,,,,,,,,,,,,,,,,down,6.502679400000488,None,space,0.4769267000083346,None,P117,001,2025-02-19_14h20.48.368,posner_endo_new1,2024.2.4,60.03348667876166,2025-02-19 14h20.56.636180 +0000,
cube_r.png,0.1,10,catch,34,34,0,down,6.889971900003729,None,None,,,,,,,,,,,0,34,34,34,796.1399610999797,,,,,,,,,,,,,796.1244716999936,796.1399610999797,796.1399610999797,796.1399610999797,803.0333880999824,,,,803.0406667999923,803.0523394999909,803.0523394999909,803.0995841999829,803.0998461999989,803.1161445999751,803.1161445999751,803.1161445999751,803.1824014000013,806.1137433999975,,,,805.197428399988,806.1292662999767,806.1292662999767,806.1292662999767,,,,,,,,,,,,,,,,,down,6.889971900003729,None,None,,,P117,001,2025-02-19_14h20.48.368,posner_endo_new1,2024.2.4,60.03348667876166,2025-02-19 14h20.56.636180 +0000,
cube_r.png,0.1,0.31,valid,35,35,0,down,5.563972500007367,None,space,0.4747969000018202,None,,,,,,,,,0,35,35,35,806.1292662999767,,,,,,,,,,,,,806.1139353000035,806.1292662999767,806.1292662999767,806.1292662999767,811.7081678999821,,,,811.715429999982,811.726909399993,811.726909399993,811.7738114999956,811.7740730999794,811.7906153999793,811.7906153999793,811.7906153999793,811.8567777999851,812.2742121999909,,,,,,,,,,,,,,,,,,,,,,,,down,5.563972500007367,None,space,0.4747969000018202,None,P117,001,2025-02-19_14h20.48.368,posner_endo_new1,2024.2.4,60.03348667876166,2025-02-19 14h20.56.636180 +0000,
cube_r.png,0.1,-0.31,invalid,36,36,0,down,10.292040800006362,None,space,0.445157999987714,None,,,,,,,,,0,36,36,36,812.2895956999855,,,,,,,,,,,,,812.2744164000032,812.2895956999855,812.2895956999855,812.2895956999855,822.596919499978,,,,822.6042387999769,822.6160553999944,822.6160553999944,822.6630500000028,822.6633169999986,822.6793238999962,822.6793238999962,822.6793238999962,822.7623915000004,823.1295030999754,,,,,,,,,,,,,,,,,,,,,,,,down,10.292040800006362,None,space,0.445157999987714,None,P117,001,2025-02-19_14h20.48.368,posner_endo_new1,2024.2.4,60.03348667876166,2025-02-19 14h20.56.636180 +0000,
cube_l.png,0.1,0.31,invalid,37,37,0,down,6.4040660000173375,None,space,0.4028796999773476,None,,,,,,,,,0,37,37,37,823.1453859999892,,,,,,,,,,,,,823.1297046999971,823.1453859999892,823.1453859999892,823.1453859999892,829.5567330999766,,,,829.5639698999876,829.5869249999814,829.5869249999814,829.6221384999808,829.6224014999752,829.6390147999919,829.6390147999919,829.6390147999919,829.721974199987,830.0561136000033,,,,,,,,,,,,,,,,,,,,,,,,down,6.4040660000173375,None,space,0.4028796999773476,None,P117,001,2025-02-19_14h20.48.368,posner_endo_new1,2024.2.4,60.03348667876166,2025-02-19 14h20.56.636180 +0000,
cube_l.png,0.1,0.31,invalid,38,38,0,down,6.397761600004742,None,space,0.38681159997940995,None,,,,,,,,,0,38,38,38,830.0715270999935,,,,,,,,,,,,,830.0563184999919,830.0715270999935,830.0715270999935,830.0715270999935,836.4829755999963,,,,836.4902535000001,836.5017165000027,836.5017165000027,836.548378699983,836.5486351999862,836.5653507999959,836.5653507999959,836.5653507999959,836.6321128999989,836.9655722999887,,,,,,,,,,,,,,,,,,,,,,,,down,6.397761600004742,None,space,0.38681159997940995,None,P117,001,2025-02-19_14h20.48.368,posner_endo_new1,2024.2.4,60.03348667876166,2025-02-19 14h20.56.636180 +0000,
cube_r.png,0.1,0.31,valid,39,39,0,down,7.559971699985908,None,space,0.44148219999624416,None,,,,,,,,,0,39,39,39,836.981698699994,,,,,,,,,,,,,836.9657830999931,836.981698699994,836.981698699994,836.981698699994,844.5580443999788,,,,844.565228099993,844.5768419999804,844.5768419999804,844.6239358999883,844.6241849999933,844.6402241000033,844.6402241000033,844.6402241000033,844.7235335999867,845.0905730999948,,,,,,,,,,,,,,,,,,,,,,,,down,7.559971699985908,None,space,0.44148219999624416,None,P117,001,2025-02-19_14h20.48.368,posner_endo_new1,2024.2.4,60.03348667876166,2025-02-19 14h20.56.636180 +0000,
cube_l.png,0.1,0.31,invalid,40,40,0,down,6.9466030999901704,None,space,0.3568921000114642,None,,,,,,,,,0,40,40,40,845.1065578999987,,,,,,,,,,,,,845.0907806000032,845.1065578999987,845.1065578999987,845.1065578999987,852.0663929999864,,,,852.0734726999945,852.0853123999841,852.0853123999841,852.132452299993,852.1327049999963,852.1491998999845,852.1491998999845,852.1491998999845,852.2154706000001,852.5165751999884,,,,,,,,,,,,,,,,,,,,,,,,down,6.9466030999901704,None,space,0.3568921000114642,None,P117,001,2025-02-19_14h20.48.368,posner_endo_new1,2024.2.4,60.03348667876166,2025-02-19 14h20.56.636180 +0000,
cube_l.png,0.1,10,catch,41,41,0,down,7.5938516999885906,None,None,,,,,,,,,,,0,41,41,41,852.531894099986,,,,,,,,,,,,,852.5167811999854,852.531894099986,852.531894099986,852.531894099986,860.1420939999807,,,,860.149208399991,860.1610054999765,860.1610054999765,860.2079517999955,860.2082094999787,860.2243746999884,860.2243746999884,860.2243746999884,860.3078870000027,863.2216915999888,,,,862.3218933999888,863.2376750999829,863.2376750999829,863.2376750999829,,,,,,,,,,,,,,,,,down,7.5938516999885906,None,None,,,P117,001,2025-02-19_14h20.48.368,posner_endo_new1,2024.2.4,60.03348667876166,2025-02-19 14h20.56.636180 +0000,
cube_l.png,0.1,-0.31,valid,42,42,0,down,3.8314781000080984,None,space,0.49120679998304695,None,,,,,,,,,0,42,42,42,863.2376750999829,,,,,,,,,,,,,863.2218886999763,863.2376750999829,863.2376750999829,863.2376750999829,867.0846658999799,,,,867.0919842000003,867.1035797999939,867.1035797999939,867.1510264999815,867.1512872999883,867.1672796999919,867.1672796999919,867.1672796999919,867.2335491999984,867.667300000001,,,,,,,,,,,,,,,,,,,,,,,,down,3.8314781000080984,None,space,0.49120679998304695,None,P117,001,2025-02-19_14h20.48.368,posner_endo_new1,2024.2.4,60.03348667876166,2025-02-19 14h20.56.636180 +0000,
cube_l.png,0.1,10,catch,43,43,0,down,5.930663899984211,None,None,,,,,,,,,,,0,43,43,43,867.6834800999786,,,,,,,,,,,,,867.6675073999795,867.6834800999786,867.6834800999786,867.6834800999786,873.6278846999921,,,,873.6351746,873.6468937000027,873.6468937000027,873.6937193999765,873.693990699976,873.7103710999945,873.7103710999945,873.7103710999945,873.79399809998,876.7077506999776,,,,875.8086815999995,876.724077699997,876.724077699997,876.724077699997,,,,,,,,,,,,,,,,,down,5.930663899984211,None,None,,,P117,001,2025-02-19_14h20.48.368,posner_endo_new1,2024.2.4,60.03348667876166,2025-02-19 14h20.56.636180 +0000,
cube_l.png,0.1,0.31,invalid,44,44,0,down,1.593678600009298,None,space,0.48412770000868477,None,,,,,,,,,0,44,44,44,876.724077699997,,,,,,,,,,,,,876.7079438999936,876.724077699997,876.724077699997,876.724077699997,878.3235450999928,,,,878.330727499997,878.3421830000007,878.3421830000007,878.389466099994,878.3897293999908,878.4059450999775,878.4059450999775,878.4059450999775,878.4888088000007,878.9063403999899,,,,,,,,,,,,,,,,,,,,,,,,down,1.593678600009298,None,space,0.48412770000868477,None,P117,001,2025-02-19_14h20.48.368,posner_endo_new1,2024.2.4,60.03348667876166,2025-02-19 14h20.56.636180 +0000,
cube_l.png,0.1,0.31,invalid,45,45,0,down,5.244066000013845,None,space,0.4081902999896556,None,,,,,,,,,0,45,45,45,878.9216527999961,,,,,,,,,,,,,878.906547999999,878.9216527999961,878.9216527999961,878.9216527999961,884.1677617999958,,,,884.1749730999873,884.1861639999843,884.1861639999843,884.2331387999875,884.2334028999903,884.2500515999855,884.2500515999855,884.2500515999855,884.3329260000028,884.6667052999837,,,,,,,,,,,,,,,,,,,,,,,,down,5.244066000013845,None,space,0.4081902999896556,None,P117,001,2025-02-19_14h20.48.368,posner_endo_new1,2024.2.4,60.03348667876166,2025-02-19 14h20.56.636180 +0000,
cube_r.png,0.1,0.31,valid,46,46,0,down,4.394417399977101,None,space,0.36197529998025857,None,,,,,,,,,0,46,46,46,884.6826757999952,,,,,,,,,,,,,884.6669089999923,884.6826757999952,884.6826757999952,884.6826757999952,889.0794086999958,,,,889.0866185999766,889.0978520999779,889.0978520999779,889.1450134999759,889.1452835999953,889.1617597999866,889.1617597999866,889.1617597999866,889.2448024999758,889.5283588999882,,,,,,,,,,,,,,,,,,,,,,,,down,4.394417399977101,None,space,0.36197529998025857,None,P117,001,2025-02-19_14h20.48.368,posner_endo_new1,2024.2.4,60.03348667876166,2025-02-19 14h20.56.636180 +0000,
cube_l.png,0.1,-0.31,valid,47,47,0,down,2.9976059999899007,None,space,0.39157810001051985,None,,,,,,,,,0,47,47,47,889.5445477999747,,,,,,,,,,,,,889.5285625999968,889.5445477999747,889.5445477999747,889.5445477999747,892.5584763999796,,,,892.5657283999899,892.5775642999797,892.5775642999797,892.6243957999977,892.6246569999785,892.6409994999995,892.6409994999995,892.6409994999995,892.7245776999916,893.0419164999912,,,,,,,,,,,,,,,,,,,,,,,,down,2.9976059999899007,None,space,0.39157810001051985,None,P117,001,2025-02-19_14h20.48.368,posner_endo_new1,2024.2.4,60.03348667876166,2025-02-19 14h20.56.636180 +0000,
cube_r.png,0.1,-0.31,invalid,48,48,0,down,4.356675699993502,None,space,0.3063211999833584,None,,,,,,,,,0,48,48,48,893.0576164999802,,,,,,,,,,,,,893.0421264999895,893.0576164999802,893.0576164999802,893.0576164999802,897.4207712999778,,,,897.4280377999821,897.4395375000022,897.4395375000022,897.4865403999866,897.4867958999821,897.5032435999892,897.5032435999892,897.5032435999892,897.5858536000014,897.8202807999915,,,,,,,,,,,,,,,,,,,,,,,,down,4.356675699993502,None,space,0.3063211999833584,None,P117,001,2025-02-19_14h20.48.368,posner_endo_new1,2024.2.4,60.03348667876166,2025-02-19 14h20.56.636180 +0000,
cube_r.png,0.1,10,catch,49,49,0,down,3.488823299994692,None,None,,,,,,,,,,,0,49,49,49,897.8361109999823,,,,,,,,,,,,,897.8204849000031,897.8361109999823,897.8361109999823,897.8361109999823,901.3332028999866,,,,901.3404119999905,901.352067699976,901.352067699976,901.399256899982,901.3995192000002,901.4157522000023,901.4157522000023,901.4157522000023,901.4985624999972,904.4130242999818,,,,903.513518199994,904.4291769999836,904.4291769999836,904.4291769999836,,,,,,,,,,,,,,,,,down,3.488823299994692,None,None,,,P117,001,2025-02-19_14h20.48.368,posner_endo_new1,2024.2.4,60.03348667876166,2025-02-19 14h20.56.636180 +0000,
cube_l.png,0.1,-0.31,valid,50,50,0,down,2.127922200015746,None,space,0.4524428000149783,None,,,,,,,,,0,50,50,50,904.4291769999836,,,,,,,,,,,,,904.4132141000009,904.4291769999836,904.4291769999836,904.4291769999836,906.5610204999975,,,,906.5682489999745,906.5800932999991,906.5800932999991,906.627199199982,906.6274684999953,906.6434907999937,906.6434907999937,906.6434907999937,906.7103015999892,907.1107737999992,,,,,,,,,,,,,,,,,,,,,,,,down,2.127922200015746,None,space,0.4524428000149783,None,P117,001,2025-02-19_14h20.48.368,posner_endo_new1,2024.2.4,60.03348667876166,2025-02-19 14h20.56.636180 +0000,
cube_l.png,0.1,-0.31,valid,51,51,0,down,8.246671400003834,None,space,0.3637936000013724,None,,,,,,,,,0,51,51,51,907.1266074999876,,,,,,,,,,,,,907.1109862999874,907.1266074999876,907.1266074999876,907.1266074999876,915.385996500001,,,,915.3974523999786,915.4076548999874,915.4076548999874,915.4515641999897,915.4518260999757,915.4678921999875,915.4678921999875,915.4678921999875,915.5507929000014,915.8353586999874,,,,,,,,,,,,,,,,,,,,,,,,down,8.246671400003834,None,space,0.3637936000013724,None,P117,001,2025-02-19_14h20.48.368,posner_endo_new1,2024.2.4,60.03348667876166,2025-02-19 14h20.56.636180 +0000,
cube_r.png,0.1,-0.31,invalid,52,52,0,down,4.6743098000006285,None,space,0.46253459999570623,None,,,,,,,,,0,52,52,52,915.8508050999953,,,,,,,,,,,,,915.8355666999996,915.8508050999953,915.8508050999953,915.8508050999953,920.5299593999807,,,,920.5371469999955,920.5489458999946,920.5489458999946,920.5962844000023,920.5965568999818,920.6123513999919,920.6123513999919,920.6123513999919,920.6789308000007,921.0797185999982,,,,,,,,,,,,,,,,,,,,,,,,down,4.6743098000006285,None,space,0.46253459999570623,None,P117,001,2025-02-19_14h20.48.368,posner_endo_new1,2024.2.4,60.03348667876166,2025-02-19 14h20.56.636180 +0000,
cube_l.png,0.1,-0.31,valid,53,53,0,down,4.366359200008446,None,space,0.3312649000145029,None,,,,,,,,,0,53,53,53,921.0955538999988,,,,,,,,,,,,,921.0799325999978,921.0955538999988,921.0955538999988,921.0955538999988,925.475298299978,,,,925.4825532999821,925.4942297999805,925.4942297999805,925.5406937999942,925.540952899988,925.5573256999778,925.5573256999778,925.5573256999778,925.6407576999918,925.8914375999884,,,,,,,,,,,,,,,,,,,,,,,,down,4.366359200008446,None,space,0.3312649000145029,None,P117,001,2025-02-19_14h20.48.368,posner_endo_new1,2024.2.4,60.03348667876166,2025-02-19 14h20.56.636180 +0000,
cube_r.png,0.1,10,catch,54,54,0,down,3.731469399994239,None,None,,,,,,,,,,,0,54,54,54,925.9068804999988,,,,,,,,,,,,,925.8916543999803,925.9068804999988,925.9068804999988,925.9068804999988,929.6546125999885,,,,929.6619524999987,929.6732019999763,929.6732019999763,929.7198535999923,929.7201209999912,929.7369125999976,929.7369125999976,929.7369125999976,929.8196140999789,932.7341329999908,,,,931.8344986999873,932.7503683999821,932.7503683999821,932.7503683999821,,,,,,,,,,,,,,,,,down,3.731469399994239,None,None,,,P117,001,2025-02-19_14h20.48.368,posner_endo_new1,2024.2.4,60.03348667876166,2025-02-19 14h20.56.636180 +0000,
cube_l.png,0.1,0.31,invalid,55,55,0,down,3.3990877000032924,None,space,0.9189894000010099,None,,,,,,,,,0,55,55,55,932.7503683999821,,,,,,,,,,,,,932.7343277999898,932.7503683999821,932.7503683999821,932.7503683999821,936.1643552999885,,,,936.1716510999831,936.1830602999835,936.1830602999835,936.2303774999746,936.2306378999783,936.2467518999765,936.2467518999765,936.2467518999765,936.329639899981,937.179570999986,,,,,,,,,,,,,,,,,,,,,,,,down,3.3990877000032924,None,space,0.9189894000010099,None,P117,001,2025-02-19_14h20.48.368,posner_endo_new1,2024.2.4,60.03348667876166,2025-02-19 14h20.56.636180 +0000,
cube_l.png,0.1,-0.31,valid,56,56,0,down,3.5054260999895632,None,space,0.35532010000315495,None,,,,,,,,,0,56,56,56,937.1961268000014,,,,,,,,,,,,,937.1797783999937,937.1961268000014,937.1961268000014,937.1961268000014,940.7093873999838,,,,940.716651499999,940.7282922999875,940.7282922999875,940.7757260999933,940.7759910000023,940.7919949999778,940.7919949999778,940.7919949999778,940.8587409000029,941.1592006999999,,,,,,,,,,,,,,,,,,,,,,,,down,3.5054260999895632,None,space,0.35532010000315495,None,P117,001,2025-02-19_14h20.48.368,posner_endo_new1,2024.2.4,60.03348667876166,2025-02-19 14h20.56.636180 +0000,
cube_r.png,0.1,0.31,valid,57,57,0,down,3.14248830001452,None,space,0.37016940000467,None,,,,,,,,,0,57,57,57,941.1749363999988,,,,,,,,,,,,,941.1594144999981,941.1749363999988,941.1749363999988,941.1749363999988,944.3227954999893,,,,944.3299686999817,944.3412833999901,944.3412833999901,944.3881172999972,944.388377700001,944.4048739999998,944.4048739999998,944.4048739999998,944.4883870999911,944.7885025999858,,,,,,,,,,,,,,,,,,,,,,,,down,3.14248830001452,None,space,0.37016940000467,None,P117,001,2025-02-19_14h20.48.368,posner_endo_new1,2024.2.4,60.03348667876166,2025-02-19 14h20.56.636180 +0000,
cube_r.png,0.1,-0.31,invalid,58,58,0,down,2.8965414999984205,None,space,0.395403799979249,None,,,,,,,,,0,58,58,58,944.8047047999862,,,,,,,,,,,,,944.7887068999989,944.8047047999862,944.8047047999862,944.8047047999862,947.7022823999869,,,,947.7095200999756,947.721260899998,947.721260899998,947.768528799992,947.7687956999871,947.7847651999909,947.7847651999909,947.7847651999909,947.8513465999858,948.1854832999816,,,,,,,,,,,,,,,,,,,,,,,,down,2.8965414999984205,None,space,0.395403799979249,None,P117,001,2025-02-19_14h20.48.368,posner_endo_new1,2024.2.4,60.03348667876166,2025-02-19 14h20.56.636180 +0000,
cube_l.png,0.1,0.31,invalid,59,59,0,down,4.060245599976042,None,space,0.39567160001024604,None,,,,,,,,,0,59,59,59,948.2010937999876,,,,,,,,,,,,,948.1856899999839,948.2010937999876,948.2010937999876,948.2010937999876,952.2644929999951,,,,952.2717329000006,952.2832598999958,952.2832598999958,952.3304633999942,952.3307277999993,952.3469131999882,952.3469131999882,952.3469131999882,952.4302150000003,952.7470846999786,,,,,,,,,,,,,,,,,,,,,,,,down,4.060245599976042,None,space,0.39567160001024604,None,P117,001,2025-02-19_14h20.48.368,posner_endo_new1,2024.2.4,60.03348667876166,2025-02-19 14h20.56.636180 +0000,
