cue_img,cue_soa,target_x,trial,thisN,thisTrialN,thisRepN,key_control2.keys,key_control2.rt,key_control2.duration,key_resp.keys,key_resp.rt,key_resp.duration,practice.thisRepN,practice.thisTrialN,practice.thisN,practice.thisIndex,block1.thisRepN,block1.thisTrialN,block1.thisN,block1.thisIndex,block2.thisRepN,block2.thisTrialN,block2.thisN,block2.thisIndex,thisRow.t,notes,instructions.started,instructions_txt.started,key_control.started,instructions.stopped,key_control.keys,key_control.rt,key_control.duration,ready.started,ready_txt.started,ready_txt.stopped,ready.stopped,fix.started,fixation.started,key_control2.started,fixation_cross.started,fix.stopped,practice.key_control2.keys,practice.key_control2.rt,practice.key_control2.duration,cue.started,cube.started,fixation_cross_cue.started,cue.stopped,target.started,fixation_target.started,fixation_cross_target.started,key_resp.started,star.started,target.stopped,practice.key_resp.keys,practice.key_resp.rt,practice.key_resp.duration,star.stopped,fixation_target.stopped,fixation_cross_target.stopped,key_resp.stopped,block1.key_control2.keys,block1.key_control2.rt,block1.key_control2.duration,block1.key_resp.keys,block1.key_resp.rt,block1.key_resp.duration,break_2.started,text.started,key_control3.started,text.stopped,break_2.stopped,key_control3.keys,key_control3.rt,key_control3.duration,block2.key_control2.keys,block2.key_control2.rt,block2.key_control2.duration,block2.key_resp.keys,block2.key_resp.rt,block2.key_resp.duration,participant,session,date,expName,psychopyVersion,frameRate,expStart,
,,,,,,,,,,,,,,,,,,,,,,,,,,,0.0075078999798279256,0.02768989998730831,0.02768989998730831,20.65946850000182,up,20.61381509999046,None,,,,,,,,,,,,,,,,,,,,,,,,,,,,,,,,,,,,,,,,,,,,,,,,,,P118,001,2025-02-20_11h18.57.645,posner_endo_new1,2024.2.4,60.03406333181516,2025-02-20 11h19.07.666394 +0000,
,,,,,,,,,,,,,,,,,,,,,,,,,,,,,,,,,,20.659534899983555,20.6738852999988,23.678358299977845,23.65484789997572,,,,,,,,,,,,,,,,,,,,,,,,,,,,,,,,,,,,,,,,,,,,,,P118,001,2025-02-20_11h18.57.645,posner_endo_new1,2024.2.4,60.03406333181516,2025-02-20 11h19.07.666394 +0000,
cube_l.png,0.1,-0.31,valid,0,0,0,down,7.93938630001503,None,space,0.355194500007201,None,0,0,0,0,,,,,,,,,23.678358299977845,,,,,,,,,,,,,23.666563299979316,23.678358299977845,23.678358299977845,23.678358299977845,31.630641899973853,down,7.93938630001503,None,31.6468558999768,31.657724099990446,31.657724099990446,31.696276499977103,31.696513099974254,31.712712399981683,31.712712399981683,31.712712399981683,31.79591249997611,32.079902099998435,space,0.355194500007201,None,,,,,,,,,,,,,,,,,,,,,,,,,P118,001,2025-02-20_11h18.57.645,posner_endo_new1,2024.2.4,60.03406333181516,2025-02-20 11h19.07.666394 +0000,
cube_l.png,0.1,0.31,invalid,1,1,0,down,5.577689700003248,None,space,0.3210189000237733,None,0,1,1,1,,,,,,,,,32.09559069998795,,,,,,,,,,,,,32.08007489997544,32.09559069998795,32.09559069998795,32.09559069998795,37.674095299997134,down,5.577689700003248,None,37.68134889999055,37.69285259998287,37.69285259998287,37.73987589997705,37.740117099980125,37.75652209998225,37.75652209998225,37.75652209998225,37.83981119998498,38.090282199991634,space,0.3210189000237733,None,,,,,,,,,,,,,,,,,,,,,,,,,P118,001,2025-02-20_11h18.57.645,posner_endo_new1,2024.2.4,60.03406333181516,2025-02-20 11h19.07.666394 +0000,
cube_r.png,0.1,-0.31,invalid,2,2,0,down,6.431455799989635,None,space,0.29051319998688996,None,0,2,2,2,,,,,,,,,38.1061698999838,,,,,,,,,,,,,38.09045609997702,38.1061698999838,38.1061698999838,38.1061698999838,44.55009439997957,down,6.431455799989635,None,44.557763299992075,44.569322600000305,44.569322600000305,44.616345899994485,44.61658559998614,44.632809299975634,44.632809299975634,44.632809299975634,44.69950479999534,44.93332469998859,space,0.29051319998688996,None,,,,,,,,,,,,,,,,,,,,,,,,,P118,001,2025-02-20_11h18.57.645,posner_endo_new1,2024.2.4,60.03406333181516,2025-02-20 11h19.07.666394 +0000,
cube_r.png,0.1,10,catch,3,3,0,down,6.51635510000051,None,None,,,0,3,3,3,,,,,,,,,44.949198499991326,,,,,,,,,,,,,44.93349799999851,44.949198499991326,44.949198499991326,44.949198499991326,51.476664599991636,down,6.51635510000051,None,51.48290019997512,51.49454960000003,51.49454960000003,51.54244759998983,51.54268399998546,51.5589406999934,51.5589406999934,51.5589406999934,51.62581339999451,54.55665919999592,None,,,53.64030629998888,54.572652499977266,54.572652499977266,54.572652499977266,,,,,,,,,,,,,,,,,,,,,P118,001,2025-02-20_11h18.57.645,posner_endo_new1,2024.2.4,60.03406333181516,2025-02-20 11h19.07.666394 +0000,
cube_l.png,0.1,-0.31,valid,4,4,0,down,3.261514599988004,None,space,0.31289919998380356,None,0,4,4,4,,,,,,,,,54.572652499977266,,,,,,,,,,,,,54.556887999991886,54.572652499977266,54.572652499977266,54.572652499977266,57.83725630000117,down,3.261514599988004,None,57.84733559997403,57.85761009997805,57.85761009997805,57.90271169997868,57.90303989997483,57.919240499992156,57.919240499992156,57.919240499992156,58.00263389997417,58.236891299980925,space,0.31289919998380356,None,,,,,,,,,,,,,,,,,,,,,,,,,P118,001,2025-02-20_11h18.57.645,posner_endo_new1,2024.2.4,60.03406333181516,2025-02-20 11h19.07.666394 +0000,
cube_l.png,0.1,0.31,invalid,5,5,0,down,6.228991900017718,None,space,0.32214119998388924,None,0,5,5,5,,,,,,,,,58.252379499987,,,,,,,,,,,,,58.23715029997402,58.252379499987,58.252379499987,58.252379499987,64.49708319999627,down,6.228991900017718,None,64.50766209998983,64.51779189999797,64.51779189999797,64.5625744999852,64.56288959999802,64.57918289999361,64.57918289999361,64.57918289999361,64.6624293999921,64.91321389999939,space,0.32214119998388924,None,,,,,,,,,,,,,,,,,,,,,,,,,P118,001,2025-02-20_11h18.57.645,posner_endo_new1,2024.2.4,60.03406333181516,2025-02-20 11h19.07.666394 +0000,
cube_r.png,0.1,-0.31,invalid,6,6,0,down,5.736293800000567,None,space,0.2447550999931991,None,0,6,6,6,,,,,,,,,64.92880179997883,,,,,,,,,,,,,64.91346260000137,64.92880179997883,64.92880179997883,64.92880179997883,70.6739905999857,down,5.736293800000567,None,70.68386479999754,70.69407109997701,70.69407109997701,70.73972889999277,70.7400449999841,70.75606970000081,70.75606970000081,70.75606970000081,70.83931289997417,71.00690479998593,space,0.2447550999931991,None,,,,,,,,,,,,,,,,,,,,,,,,,P118,001,2025-02-20_11h18.57.645,posner_endo_new1,2024.2.4,60.03406333181516,2025-02-20 11h19.07.666394 +0000,
cube_r.png,0.1,0.31,valid,7,7,0,down,4.6193281000014395,None,space,0.35826300000189804,None,0,7,7,7,,,,,,,,,71.02248829999007,,,,,,,,,,,,,71.00715579997632,71.02248829999007,71.02248829999007,71.02248829999007,75.65237199998228,down,4.6193281000014395,None,75.6621799999848,75.67248829998425,75.67248829998425,75.71782099999837,75.71813169997768,75.73437510000076,75.73437510000076,75.73437510000076,75.81755339997471,76.10177499998827,space,0.35826300000189804,None,,,,,,,,,,,,,,,,,,,,,,,,,P118,001,2025-02-20_11h18.57.645,posner_endo_new1,2024.2.4,60.03406333181516,2025-02-20 11h19.07.666394 +0000,
cube_l.png,0.1,-0.31,valid,8,8,0,down,5.308539399993606,None,space,0.3557320999971125,None,0,8,8,8,,,,,,,,,76.11724669998512,,,,,,,,,,,,,76.10202999998,76.11724669998512,76.11724669998512,76.11724669998512,81.42974219997996,down,5.308539399993606,None,81.44024239998544,81.45034959999612,81.45034959999612,81.49528619999182,81.4956000999955,81.51173909998033,81.51173909998033,81.51173909998033,81.5950919999741,81.87918629997876,space,0.3557320999971125,None,,,,,,,,,,,,,,,,,,,,,,,,,P118,001,2025-02-20_11h18.57.645,posner_endo_new1,2024.2.4,60.03406333181516,2025-02-20 11h19.07.666394 +0000,
cube_r.png,0.1,-0.31,invalid,9,9,0,down,10.30668219999643,None,space,0.35344760000589304,None,0,9,9,9,,,,,,,,,81.89481659999001,,,,,,,,,,,,,81.8794338000007,81.89481659999001,81.89481659999001,81.89481659999001,92.2185297999822,down,10.30668219999643,None,92.22770039999159,92.23732319998089,92.23732319998089,92.28427079998073,92.28450869998778,92.30071819998557,92.30071819998557,92.30071819998557,92.38395509999827,92.6678694000002,space,0.35344760000589304,None,,,,,,,,,,,,,,,,,,,,,,,,,P118,001,2025-02-20_11h18.57.645,posner_endo_new1,2024.2.4,60.03406333181516,2025-02-20 11h19.07.666394 +0000,
cube_r.png,0.1,0.31,valid,10,10,0,down,5.829601900011767,None,space,0.421788400009973,None,0,10,10,10,,,,,,,,,92.68393289999221,,,,,,,,,,,,,92.66803689999506,92.68393289999221,92.68393289999221,92.68393289999221,98.52855829999316,down,5.829601900011767,None,98.53517009998905,98.54681129998062,98.54681129998062,98.5943848999741,98.59461979998741,98.61085759999696,98.61085759999696,98.61085759999696,98.67737579997629,99.04469249999966,space,0.421788400009973,None,,,,,,,,,,,,,,,,,,,,,,,,,P118,001,2025-02-20_11h18.57.645,posner_endo_new1,2024.2.4,60.03406333181516,2025-02-20 11h19.07.666394 +0000,
,,,,,,,,,,,,,,,,,,,,,,,,,,,,,,,,,,99.04480929998681,99.06054149998818,102.06455229999847,102.04116599998088,,,,,,,,,,,,,,,,,,,,,,,,,,,,,,,,,,,,,,,,,,,,,,P118,001,2025-02-20_11h18.57.645,posner_endo_new1,2024.2.4,60.03406333181516,2025-02-20 11h19.07.666394 +0000,
cube_l.png,0.1,10,catch,0,0,0,down,12.192677099985303,None,None,,,,,,,0,0,0,0,,,,,102.06455229999847,,,,,,,,,,,,,102.05582569999387,102.06455229999847,102.06455229999847,102.06455229999847,114.26269809997757,,,,114.26923659999738,114.28096309999819,114.28096309999819,114.32830699998885,114.3285466999805,114.34496039999067,114.34496039999067,114.34496039999067,114.42822380000143,117.34241049998673,,,,116.44276659999741,117.35850549998577,117.35850549998577,117.35850549998577,down,12.192677099985303,None,None,,,,,,,,,,,,,,,,,P118,001,2025-02-20_11h18.57.645,posner_endo_new1,2024.2.4,60.03406333181516,2025-02-20 11h19.07.666394 +0000,
cube_l.png,0.1,10,catch,1,1,0,down,3.771468699997058,None,None,,,,,,,0,1,1,1,,,,,117.35850549998577,,,,,,,,,,,,,117.34257649999927,117.35850549998577,117.35850549998577,117.35850549998577,121.13893359998474,,,,121.14523319998989,121.15688639998552,121.15688639998552,121.20470319999731,121.20493739997619,121.22136060000048,121.22136060000048,121.22136060000048,121.30469169997377,124.21883209998487,,,,123.31917429997702,124.23502969997935,124.23502969997935,124.23502969997935,down,3.771468699997058,None,None,,,,,,,,,,,,,,,,,P118,001,2025-02-20_11h18.57.645,posner_endo_new1,2024.2.4,60.03406333181516,2025-02-20 11h19.07.666394 +0000,
cube_l.png,0.1,0.31,invalid,2,2,0,down,3.470152100024279,None,space,0.4377171999949496,None,,,,,0,2,2,2,,,,,124.23502969997935,,,,,,,,,,,,,124.2190006999881,124.23502969997935,124.23502969997935,124.23502969997935,127.71540229997481,,,,127.72198349999962,127.73371599998791,127.73371599998791,127.78134129999671,127.78157579997787,127.79792659997474,127.79792659997474,127.79792659997474,127.86449929999071,128.24828869997873,,,,,,,,down,3.470152100024279,None,space,0.4377171999949496,None,,,,,,,,,,,,,,,P118,001,2025-02-20_11h18.57.645,posner_endo_new1,2024.2.4,60.03406333181516,2025-02-20 11h19.07.666394 +0000,
cube_l.png,0.1,0.31,invalid,3,3,0,down,5.355026600009296,None,space,0.4034640000027139,None,,,,,0,3,3,3,,,,,128.2641675999912,,,,,,,,,,,,,128.24847049999516,128.2641675999912,128.2641675999912,128.2641675999912,133.62711189998663,,,,133.64376300000004,133.65492569998605,133.65492569998605,133.69194339998649,133.69224099998246,133.70852379998541,133.70852379998541,133.70852379998541,133.7918458999775,134.1257810999814,,,,,,,,down,5.355026600009296,None,space,0.4034640000027139,None,,,,,,,,,,,,,,,P118,001,2025-02-20_11h18.57.645,posner_endo_new1,2024.2.4,60.03406333181516,2025-02-20 11h19.07.666394 +0000,
cube_l.png,0.1,-0.31,valid,4,4,0,down,5.468591000011656,None,space,0.39373799998429604,None,,,,,0,4,4,4,,,,,134.14138479999383,,,,,,,,,,,,,134.12603119999403,134.14138479999383,134.14138479999383,134.14138479999383,139.62044159998186,,,,139.63469559999066,139.6451922999986,139.6451922999986,139.685582599981,139.686063000001,139.70200579997618,139.70200579997618,139.70200579997618,139.78527649998432,140.10337579998304,,,,,,,,down,5.468591000011656,None,space,0.39373799998429604,None,,,,,,,,,,,,,,,P118,001,2025-02-20_11h18.57.645,posner_endo_new1,2024.2.4,60.03406333181516,2025-02-20 11h19.07.666394 +0000,
cube_r.png,0.1,-0.31,invalid,5,5,0,down,5.515652100002626,None,space,0.4801920999889262,None,,,,,0,5,5,5,,,,,140.11827029997949,,,,,,,,,,,,,140.10376339999493,140.11827029997949,140.11827029997949,140.11827029997949,145.6473484999733,,,,145.65610989998095,145.66633839998394,145.66633839998394,145.71306349997758,145.71336439999868,145.7295279999962,145.7295279999962,145.7295279999962,145.8128233999887,146.21361019997858,,,,,,,,down,5.515652100002626,None,space,0.4801920999889262,None,,,,,,,,,,,,,,,P118,001,2025-02-20_11h18.57.645,posner_endo_new1,2024.2.4,60.03406333181516,2025-02-20 11h19.07.666394 +0000,
cube_r.png,0.1,0.31,valid,6,6,0,down,6.3404633999743965,None,space,0.2824974000104703,None,,,,,0,6,6,6,,,,,146.2291300999932,,,,,,,,,,,,,146.21385269999155,146.2291300999932,146.2291300999932,146.2291300999932,152.5735889999778,,,,152.58233359997394,152.59256429999368,152.59256429999368,152.63935199999833,152.6396456999937,152.65586149998126,152.65586149998126,152.65586149998126,152.73902129998896,152.94008809997467,,,,,,,,down,6.3404633999743965,None,space,0.2824974000104703,None,,,,,,,,,,,,,,,P118,001,2025-02-20_11h18.57.645,posner_endo_new1,2024.2.4,60.03406333181516,2025-02-20 11h19.07.666394 +0000,
cube_r.png,0.1,-0.31,invalid,7,7,0,down,5.310486899979878,None,space,0.37670799999614246,None,,,,,0,7,7,7,,,,,152.955421199993,,,,,,,,,,,,,152.9403325000021,152.955421199993,152.955421199993,152.955421199993,158.26805869999225,,,,158.27698119997513,158.2871879999875,158.2871879999875,158.3335147999751,158.3338127999741,158.3499948999961,158.3499948999961,158.3499948999961,158.43325279999408,158.73403689998668,,,,,,,,down,5.310486899979878,None,space,0.37670799999614246,None,,,,,,,,,,,,,,,P118,001,2025-02-20_11h18.57.645,posner_endo_new1,2024.2.4,60.03406333181516,2025-02-20 11h19.07.666394 +0000,
cube_l.png,0.1,-0.31,valid,8,8,0,down,5.684288399992511,None,space,0.3356189999904018,None,,,,,0,8,8,8,,,,,158.74956579998252,,,,,,,,,,,,,158.73428279999644,158.74956579998252,158.74956579998252,158.74956579998252,164.4448376999935,,,,164.45355809998,164.46380279998994,164.46380279998994,164.51041649997933,164.51071209998918,164.52702949999366,164.52702949999366,164.52702949999366,164.61027029997786,164.877703199978,,,,,,,,down,5.684288399992511,None,space,0.3356189999904018,None,,,,,,,,,,,,,,,P118,001,2025-02-20_11h18.57.645,posner_endo_new1,2024.2.4,60.03406333181516,2025-02-20 11h19.07.666394 +0000,
cube_r.png,0.1,-0.31,invalid,9,9,0,down,5.805037599988282,None,space,0.4059516999986954,None,,,,,0,9,9,9,,,,,164.89330879997578,,,,,,,,,,,,,164.87794459998258,164.89330879997578,164.89330879997578,164.89330879997578,170.70517729999847,,,,170.7138883000007,170.72419349997654,170.72419349997654,170.77073859999655,170.77103379997425,170.78724330000114,170.78724330000114,170.78724330000114,170.87060129997553,171.20443139999406,,,,,,,,down,5.805037599988282,None,space,0.4059516999986954,None,,,,,,,,,,,,,,,P118,001,2025-02-20_11h18.57.645,posner_endo_new1,2024.2.4,60.03406333181516,2025-02-20 11h19.07.666394 +0000,
cube_l.png,0.1,0.31,invalid,10,10,0,down,5.9653189000091515,None,space,0.3188735000148881,None,,,,,0,10,10,10,,,,,171.22016409999924,,,,,,,,,,,,,171.2046721999941,171.22016409999924,171.22016409999924,171.22016409999924,177.19837389999884,,,,177.20710379999946,177.2174167999765,177.2174167999765,177.2641010999796,177.26441119998344,177.28039089997765,177.28039089997765,177.28039089997765,177.34720609997748,177.6148084999877,,,,,,,,down,5.9653189000091515,None,space,0.3188735000148881,None,,,,,,,,,,,,,,,P118,001,2025-02-20_11h18.57.645,posner_endo_new1,2024.2.4,60.03406333181516,2025-02-20 11h19.07.666394 +0000,
cube_r.png,0.1,-0.31,invalid,11,11,0,down,5.643136800004868,None,space,0.3842464000044856,None,,,,,0,11,11,11,,,,,177.63024819997372,,,,,,,,,,,,,177.61504739997326,177.63024819997372,177.63024819997372,177.63024819997372,183.27565909997793,,,,183.28444519999903,183.29461849998916,183.29461849998916,183.3412902999844,183.341583899979,183.35776819998864,183.35776819998864,183.35776819998864,183.44097089997376,183.75845470000058,,,,,,,,down,5.643136800004868,None,space,0.3842464000044856,None,,,,,,,,,,,,,,,P118,001,2025-02-20_11h18.57.645,posner_endo_new1,2024.2.4,60.03406333181516,2025-02-20 11h19.07.666394 +0000,
cube_r.png,0.1,0.31,valid,12,12,0,down,4.8275982000050135,None,space,0.36077289999229833,None,,,,,0,12,12,12,,,,,183.7740966999845,,,,,,,,,,,,,183.75869389998843,183.7740966999845,183.7740966999845,183.7740966999845,188.60359439998865,,,,188.61229409999214,188.62259579999954,188.62259579999954,188.6691246999835,188.66941909998422,188.6856182999909,188.6856182999909,188.6856182999909,188.7689330999856,189.05296519998228,,,,,,,,down,4.8275982000050135,None,space,0.36077289999229833,None,,,,,,,,,,,,,,,P118,001,2025-02-20_11h18.57.645,posner_endo_new1,2024.2.4,60.03406333181516,2025-02-20 11h19.07.666394 +0000,
cube_l.png,0.1,10,catch,13,13,0,down,6.478592400002526,None,None,,,,,,,0,13,13,13,,,,,189.06862099998398,,,,,,,,,,,,,189.05320219998248,189.06862099998398,189.06862099998398,189.06862099998398,195.563095599995,,,,195.5720940999745,195.58236569998553,195.58236569998553,195.6286540000001,195.6289499999839,195.64523429999826,195.64523429999826,195.64523429999826,195.72852819997934,198.64282629999798,,,,197.743103899993,198.6588566999999,198.6588566999999,198.6588566999999,down,6.478592400002526,None,None,,,,,,,,,,,,,,,,,P118,001,2025-02-20_11h18.57.645,posner_endo_new1,2024.2.4,60.03406333181516,2025-02-20 11h19.07.666394 +0000,
cube_r.png,0.1,-0.31,invalid,14,14,0,down,3.5273187999846414,None,space,0.32024230001843534,None,,,,,0,14,14,14,,,,,198.6588566999999,,,,,,,,,,,,,198.6430543999886,198.6588566999999,198.6588566999999,198.6588566999999,202.1895674999978,,,,202.19835089999833,202.20867219998036,202.20867219998036,202.25526849998278,202.25556089999736,202.27177329998813,202.27177329998813,202.27177329998813,202.35507769999094,202.60581229999661,,,,,,,,down,3.5273187999846414,None,space,0.32024230001843534,None,,,,,,,,,,,,,,,P118,001,2025-02-20_11h18.57.645,posner_endo_new1,2024.2.4,60.03406333181516,2025-02-20 11h19.07.666394 +0000,
cube_l.png,0.1,-0.31,valid,15,15,0,down,7.500542200024938,None,space,0.3191761000198312,None,,,,,0,15,15,15,,,,,202.6213335999928,,,,,,,,,,,,,202.60605829997803,202.6213335999928,202.6213335999928,202.6213335999928,210.13140519999433,,,,210.14026729998295,210.15049159998307,210.15049159998307,210.1972433999763,210.19779929998913,210.21361959999194,210.21361959999194,210.21361959999194,210.29684129997622,210.5485931999865,,,,,,,,down,7.500542200024938,None,space,0.3191761000198312,None,,,,,,,,,,,,,,,P118,001,2025-02-20_11h18.57.645,posner_endo_new1,2024.2.4,60.03406333181516,2025-02-20 11h19.07.666394 +0000,
cube_r.png,0.1,10,catch,16,16,0,down,7.246831099997507,None,None,,,,,,,0,16,16,16,,,,,210.56328069997835,,,,,,,,,,,,,210.54907769997953,210.56328069997835,210.56328069997835,210.56328069997835,217.82446909998544,,,,217.8425564999925,217.85414469998796,217.85414469998796,217.88936029997421,217.8899116999819,217.90577259997372,217.90577259997372,217.90577259997372,217.98902579999412,220.90391339999042,,,,220.00365719999536,220.9193461999821,220.9193461999821,220.9193461999821,down,7.246831099997507,None,None,,,,,,,,,,,,,,,,,P118,001,2025-02-20_11h18.57.645,posner_endo_new1,2024.2.4,60.03406333181516,2025-02-20 11h19.07.666394 +0000,
cube_r.png,0.1,10,catch,17,17,0,down,3.3075166999769863,None,None,,,,,,,0,17,17,17,,,,,220.9193461999821,,,,,,,,,,,,,220.90435799999977,220.9193461999821,220.9193461999821,220.9193461999821,224.23475409997627,,,,224.25288279997767,224.2643742999935,224.2643742999935,224.29942519997712,224.29974359998596,224.31599249999272,224.31599249999272,224.31599249999272,224.39915669997572,227.31400149999536,,,,226.41372269997373,227.32942029999685,227.32942029999685,227.32942029999685,down,3.3075166999769863,None,None,,,,,,,,,,,,,,,,,P118,001,2025-02-20_11h18.57.645,posner_endo_new1,2024.2.4,60.03406333181516,2025-02-20 11h19.07.666394 +0000,
cube_l.png,0.1,0.31,invalid,18,18,0,down,3.944806499988772,None,space,0.391256600007182,None,,,,,0,18,18,18,,,,,227.32942029999685,,,,,,,,,,,,,227.31444759998703,227.32942029999685,227.32942029999685,227.32942029999685,231.27765340000042,,,,231.29602979999618,231.30742859997554,231.30742859997554,231.34211369999684,231.34246769998572,231.3587410999753,231.3587410999753,231.3587410999753,231.44196209998336,231.75955509999767,,,,,,,,down,3.944806499988772,None,space,0.391256600007182,None,,,,,,,,,,,,,,,P118,001,2025-02-20_11h18.57.645,posner_endo_new1,2024.2.4,60.03406333181516,2025-02-20 11h19.07.666394 +0000,
cube_l.png,0.1,10,catch,19,19,0,down,6.826783099997556,None,None,,,,,,,0,19,19,19,,,,,231.7749794999836,,,,,,,,,,,,,231.75984879999305,231.7749794999836,231.7749794999836,231.7749794999836,238.60369459999492,,,,238.62184539998998,238.6339439000003,238.6339439000003,238.6679604999954,238.6682530999824,238.6845892999845,238.6845892999845,238.6845892999845,238.76774619999924,241.6820770999766,,,,240.78242730000056,241.6981832999736,241.6981832999736,241.6981832999736,down,6.826783099997556,None,None,,,,,,,,,,,,,,,,,P118,001,2025-02-20_11h18.57.645,posner_endo_new1,2024.2.4,60.03406333181516,2025-02-20 11h19.07.666394 +0000,
cube_l.png,0.1,0.31,invalid,20,20,0,down,3.599782699981006,None,space,0.39421960001345724,None,,,,,0,20,20,20,,,,,241.6981832999736,,,,,,,,,,,,,241.68230179999955,241.6981832999736,241.6981832999736,241.6981832999736,245.31304989999626,,,,245.33122779999394,245.34267849999014,245.34267849999014,245.3779639999848,245.37827939999988,245.39440019999165,245.39440019999165,245.39440019999165,245.47774029997527,245.7950850999914,,,,,,,,down,3.599782699981006,None,space,0.39421960001345724,None,,,,,,,,,,,,,,,P118,001,2025-02-20_11h18.57.645,posner_endo_new1,2024.2.4,60.03406333181516,2025-02-20 11h19.07.666394 +0000,
cube_l.png,0.1,-0.31,valid,21,21,0,down,13.431083299976308,None,space,0.46133359998930246,None,,,,,0,21,21,21,,,,,245.81056849999004,,,,,,,,,,,,,245.79534959999728,245.81056849999004,245.81056849999004,245.81056849999004,259.2488393999811,,,,259.2671346999996,259.2786244999734,259.2786244999734,259.3137394999794,259.3142942999839,259.3300948999822,259.3300948999822,259.3300948999822,259.41335709998384,259.79837319999933,,,,,,,,down,13.431083299976308,None,space,0.46133359998930246,None,,,,,,,,,,,,,,,P118,001,2025-02-20_11h18.57.645,posner_endo_new1,2024.2.4,60.03406333181516,2025-02-20 11h19.07.666394 +0000,
cube_r.png,0.1,0.31,valid,22,22,0,down,6.757278600009158,None,space,0.3172345999919344,None,,,,,0,22,22,22,,,,,259.8129974999756,,,,,,,,,,,,,259.7988691999926,259.8129974999756,259.8129974999756,259.8129974999756,266.5750262999791,,,,266.59317859998555,266.6046974999772,266.6046974999772,266.639560599986,266.64011159999063,266.65595699998084,266.65595699998084,266.65595699998084,266.7392231999838,266.99071419998654,,,,,,,,down,6.757278600009158,None,space,0.3172345999919344,None,,,,,,,,,,,,,,,P118,001,2025-02-20_11h18.57.645,posner_endo_new1,2024.2.4,60.03406333181516,2025-02-20 11h19.07.666394 +0000,
cube_r.png,0.1,-0.31,invalid,23,23,0,down,7.500450599996839,None,space,0.3521106999833137,None,,,,,0,23,23,23,,,,,267.0057123999868,,,,,,,,,,,,,266.99120109999785,267.0057123999868,267.0057123999868,267.0057123999868,274.5165944999899,,,,274.53484119998757,274.5454689999751,274.5454689999751,274.5814976999827,274.5818102999765,274.59798059999594,274.59798059999594,274.59798059999594,274.68110929999966,274.965217799996,,,,,,,,down,7.500450599996839,None,space,0.3521106999833137,None,,,,,,,,,,,,,,,P118,001,2025-02-20_11h18.57.645,posner_endo_new1,2024.2.4,60.03406333181516,2025-02-20 11h19.07.666394 +0000,
cube_r.png,0.1,0.31,valid,24,24,0,down,8.28501259998302,None,space,0.7068770999903791,None,,,,,0,24,24,24,,,,,274.9809088999755,,,,,,,,,,,,,274.96547460000147,274.9809088999755,274.9809088999755,274.9809088999755,283.27435219998006,,,,283.2924258999992,283.3042590999976,283.3042590999976,283.3391097999993,283.3394261999929,283.35547409998253,283.35547409998253,283.35547409998253,283.4388554999896,284.07276089998777,,,,,,,,down,8.28501259998302,None,space,0.7068770999903791,None,,,,,,,,,,,,,,,P118,001,2025-02-20_11h18.57.645,posner_endo_new1,2024.2.4,60.03406333181516,2025-02-20 11h19.07.666394 +0000,
cube_r.png,0.1,-0.31,invalid,25,25,0,down,8.722164200007683,None,space,0.36234319998766296,None,,,,,0,25,25,25,,,,,284.08824989999994,,,,,,,,,,,,,284.07301939997706,284.08824989999994,284.08824989999994,284.08824989999994,292.8138551999873,,,,292.82511979999254,292.8355653999897,292.8355653999897,292.879252099985,292.8796073999838,292.8958273999742,292.8958273999742,292.8958273999742,292.97914009998203,293.263157999987,,,,,,,,down,8.722164200007683,None,space,0.36234319998766296,None,,,,,,,,,,,,,,,P118,001,2025-02-20_11h18.57.645,posner_endo_new1,2024.2.4,60.03406333181516,2025-02-20 11h19.07.666394 +0000,
cube_l.png,0.1,-0.31,valid,26,26,0,down,6.404456099990057,None,space,0.8102358999894932,None,,,,,0,26,26,26,,,,,293.2789017999894,,,,,,,,,,,,,293.2633608999895,293.2789017999894,293.2789017999894,293.2789017999894,299.68984829998226,,,,299.6971261999861,299.7085412000015,299.7085412000015,299.7553560999804,299.75562279997393,299.77230229999986,299.77230229999986,299.77230229999986,299.85513409998384,300.58888969998225,,,,,,,,down,6.404456099990057,None,space,0.8102358999894932,None,,,,,,,,,,,,,,,P118,001,2025-02-20_11h18.57.645,posner_endo_new1,2024.2.4,60.03406333181516,2025-02-20 11h19.07.666394 +0000,
cube_r.png,0.1,0.31,valid,27,27,0,down,12.901953699998558,None,space,0.3204016999807209,None,,,,,0,27,27,27,,,,,300.6045367999759,,,,,,,,,,,,,300.58909639998456,300.6045367999759,300.6045367999759,300.6045367999759,313.5090023999801,,,,313.5162691999867,313.53909629999544,313.53909629999544,313.5749281999888,313.57549979997566,313.59134779998567,313.59134779998567,313.59134779998567,313.67456849999144,313.9264176999859,,,,,,,,down,12.901953699998558,None,space,0.3204016999807209,None,,,,,,,,,,,,,,,P118,001,2025-02-20_11h18.57.645,posner_endo_new1,2024.2.4,60.03406333181516,2025-02-20 11h19.07.666394 +0000,
cube_r.png,0.1,10,catch,28,28,0,down,7.317333999992115,None,None,,,,,,,0,28,28,28,,,,,313.9409974000009,,,,,,,,,,,,,313.92691359997843,313.9409974000009,313.9409974000009,313.9409974000009,321.2690664999827,,,,321.28728079999564,321.2987907999777,321.2987907999777,321.3337069999834,321.33406129997456,321.35005319997435,321.35005319997435,321.35005319997435,321.4333773999824,324.34792390000075,,,,323.44794409998576,324.3638323999767,324.3638323999767,324.3638323999767,down,7.317333999992115,None,None,,,,,,,,,,,,,,,,,P118,001,2025-02-20_11h18.57.645,posner_endo_new1,2024.2.4,60.03406333181516,2025-02-20 11h19.07.666394 +0000,
cube_r.png,0.1,0.31,valid,29,29,0,down,4.637751199974446,None,space,0.31747680000262335,None,,,,,0,29,29,29,,,,,324.3638323999767,,,,,,,,,,,,,324.34820069998386,324.3638323999767,324.3638323999767,324.3638323999767,329.0103833999892,,,,329.0192623999901,329.02908409998054,329.02908409998054,329.0757345999882,329.0759775999759,329.09220089999144,329.09220089999144,329.09220089999144,329.175545999984,329.42617259998224,,,,,,,,down,4.637751199974446,None,space,0.31747680000262335,None,,,,,,,,,,,,,,,P118,001,2025-02-20_11h18.57.645,posner_endo_new1,2024.2.4,60.03406333181516,2025-02-20 11h19.07.666394 +0000,
cube_r.png,0.1,0.31,valid,30,30,0,down,7.768322199990507,None,space,0.34428269998170435,None,,,,,0,30,30,30,,,,,329.4418110999977,,,,,,,,,,,,,329.4263915999909,329.4418110999977,329.4418110999977,329.4418110999977,337.21822329997667,,,,337.224894199986,337.2365083999757,337.2365083999757,337.2840312999906,337.284273999976,337.3005705999967,337.3005705999967,337.3005705999967,337.38352519998443,337.6509729999816,,,,,,,,down,7.768322199990507,None,space,0.34428269998170435,None,,,,,,,,,,,,,,,P118,001,2025-02-20_11h18.57.645,posner_endo_new1,2024.2.4,60.03406333181516,2025-02-20 11h19.07.666394 +0000,
cube_l.png,0.1,-0.31,valid,31,31,0,down,5.935145100025693,None,space,0.37171350000426173,None,,,,,0,31,31,31,,,,,337.6668515999918,,,,,,,,,,,,,337.651163499977,337.6668515999918,337.6668515999918,337.6668515999918,343.6117114999797,,,,343.61838529998204,343.6298764999956,343.6298764999956,343.6774328999745,343.6776769999997,343.6940576999914,343.6940576999914,343.6940576999914,343.77715499998885,344.07766539999284,,,,,,,,down,5.935145100025693,None,space,0.37171350000426173,None,,,,,,,,,,,,,,,P118,001,2025-02-20_11h18.57.645,posner_endo_new1,2024.2.4,60.03406333181516,2025-02-20 11h19.07.666394 +0000,
cube_r.png,0.1,0.31,valid,32,32,0,down,7.5249820000026375,None,space,0.3089480999915395,None,,,,,0,32,32,32,,,,,344.0935217999795,,,,,,,,,,,,,344.07785419997526,344.0935217999795,344.0935217999795,344.0935217999795,351.6202269999776,,,,351.6269675999938,351.6384524999885,351.6384524999885,351.68600549999974,351.6862510999781,351.70240219999687,351.70240219999687,351.70240219999687,351.78578949999064,352.0196660999791,,,,,,,,down,7.5249820000026375,None,space,0.3089480999915395,None,,,,,,,,,,,,,,,P118,001,2025-02-20_11h18.57.645,posner_endo_new1,2024.2.4,60.03406333181516,2025-02-20 11h19.07.666394 +0000,
cube_r.png,0.1,-0.31,invalid,33,33,0,down,6.623099600023124,None,space,0.38416099999449216,None,,,,,0,33,33,33,,,,,352.0353885999939,,,,,,,,,,,,,352.01985869999044,352.0353885999939,352.0353885999939,352.0353885999939,358.6628878999909,,,,358.6696851999732,358.6813000999973,358.6813000999973,358.728624499985,358.72887769999215,358.74526309999055,358.74526309999055,358.74526309999055,358.82855949999066,359.14575589998276,,,,,,,,down,6.623099600023124,None,space,0.38416099999449216,None,,,,,,,,,,,,,,,P118,001,2025-02-20_11h18.57.645,posner_endo_new1,2024.2.4,60.03406333181516,2025-02-20 11h19.07.666394 +0000,
cube_r.png,0.1,10,catch,34,34,0,down,6.352895599993644,None,None,,,,,,,0,34,34,34,,,,,359.16148260000045,,,,,,,,,,,,,359.1459446999943,359.16148260000045,359.16148260000045,359.16148260000045,365.52258719998645,,,,365.5292698999983,365.5410042000003,365.5410042000003,365.58844989998033,365.5886967999977,365.60491080000065,365.60491080000065,365.60491080000065,365.688136199984,368.6024829999951,,,,367.70271659997525,368.618450799986,368.618450799986,368.618450799986,down,6.352895599993644,None,None,,,,,,,,,,,,,,,,,P118,001,2025-02-20_11h18.57.645,posner_endo_new1,2024.2.4,60.03406333181516,2025-02-20 11h19.07.666394 +0000,
cube_r.png,0.1,0.31,valid,35,35,0,down,4.191245800000615,None,space,0.3470892000186723,None,,,,,0,35,35,35,,,,,368.618450799986,,,,,,,,,,,,,368.6026638999756,368.618450799986,368.618450799986,368.618450799986,372.8150279999827,,,,372.8217577999749,372.83343519998016,372.83343519998016,372.88086699999985,372.8811033999955,372.89749839997967,372.89749839997967,372.89749839997967,372.98053789997357,373.2480677999847,,,,,,,,down,4.191245800000615,None,space,0.3470892000186723,None,,,,,,,,,,,,,,,P118,001,2025-02-20_11h18.57.645,posner_endo_new1,2024.2.4,60.03406333181516,2025-02-20 11h19.07.666394 +0000,
cube_r.png,0.1,-0.31,invalid,36,36,0,down,7.770943799987435,None,space,0.2494478999869898,None,,,,,0,36,36,36,,,,,373.2636831999989,,,,,,,,,,,,,373.24825169998803,373.2636831999989,373.2636831999989,373.2636831999989,381.0399244999862,,,,381.0458690999949,381.05747770000016,381.05747770000016,381.1058327999781,381.10606809999445,381.1224279999733,381.1224279999733,381.1224279999733,381.1891040999908,381.37310830000206,,,,,,,,down,7.770943799987435,None,space,0.2494478999869898,None,,,,,,,,,,,,,,,P118,001,2025-02-20_11h18.57.645,posner_endo_new1,2024.2.4,60.03406333181516,2025-02-20 11h19.07.666394 +0000,
cube_l.png,0.1,0.31,invalid,37,37,0,down,8.14909219997935,None,space,0.45823429999290965,None,,,,,0,37,37,37,,,,,381.38885079999454,,,,,,,,,,,,,381.37328739999793,381.38885079999454,381.38885079999454,381.38885079999454,389.54779389998293,,,,389.5538217999856,389.565337899985,389.565337899985,389.6138358999742,389.61407149999286,389.63052889998653,389.63052889998653,389.63052889998653,389.6969868999731,390.0973392999731,,,,,,,,down,8.14909219997935,None,space,0.45823429999290965,None,,,,,,,,,,,,,,,P118,001,2025-02-20_11h18.57.645,posner_endo_new1,2024.2.4,60.03406333181516,2025-02-20 11h19.07.666394 +0000,
cube_l.png,0.1,0.31,invalid,38,38,0,down,5.681328599981498,None,space,0.3417087999987416,None,,,,,0,38,38,38,,,,,390.1131562999799,,,,,,,,,,,,,390.09752309997566,390.1131562999799,390.1131562999799,390.1131562999799,395.80827539999154,,,,395.81428719998803,395.8259407999867,395.8259407999867,395.8740974999964,395.87434139999095,395.8907097999763,395.8907097999763,395.8907097999763,395.9738435999898,396.2411320999963,,,,,,,,down,5.681328599981498,None,space,0.3417087999987416,None,,,,,,,,,,,,,,,P118,001,2025-02-20_11h18.57.645,posner_endo_new1,2024.2.4,60.03406333181516,2025-02-20 11h19.07.666394 +0000,
cube_r.png,0.1,0.31,valid,39,39,0,down,6.417365500004962,None,space,0.3361543999926653,None,,,,,0,39,39,39,,,,,396.2569979999971,,,,,,,,,,,,,396.2413127999753,396.2569979999971,396.2569979999971,396.2569979999971,402.68438379999134,,,,402.6903999999922,402.70188869998674,402.70188869998674,402.75035799999023,402.75058999998146,402.76688589999685,402.76688589999685,402.76688589999685,402.8336378999811,403.1172982999997,,,,,,,,down,6.417365500004962,None,space,0.3361543999926653,None,,,,,,,,,,,,,,,P118,001,2025-02-20_11h18.57.645,posner_endo_new1,2024.2.4,60.03406333181516,2025-02-20 11h19.07.666394 +0000,
cube_l.png,0.1,0.31,invalid,40,40,0,down,5.621753900020849,None,space,0.41637220000848174,None,,,,,0,40,40,40,,,,,403.1332258999755,,,,,,,,,,,,,403.1174753999803,403.1332258999755,403.1332258999755,403.1332258999755,408.7617313999799,,,,408.7677958999993,408.77924189998885,408.77924189998885,408.82738099998096,408.8276141999813,408.8440717999765,408.8440717999765,408.8440717999765,408.92730609999853,409.26125779998256,,,,,,,,down,5.621753900020849,None,space,0.41637220000848174,None,,,,,,,,,,,,,,,P118,001,2025-02-20_11h18.57.645,posner_endo_new1,2024.2.4,60.03406333181516,2025-02-20 11h19.07.666394 +0000,
cube_l.png,0.1,10,catch,41,41,0,down,5.852947800012771,None,None,,,,,,,0,41,41,41,,,,,409.2770220999955,,,,,,,,,,,,,409.2614379999868,409.2770220999955,409.2770220999955,409.2770220999955,415.1385352999787,,,,415.1444771999959,415.15596219999134,415.15596219999134,415.2043940000003,415.20463199997903,415.22080389998155,415.22080389998155,415.22080389998155,415.30430829999386,418.2184105999768,,,,417.31869739998365,418.2343340999796,418.2343340999796,418.2343340999796,down,5.852947800012771,None,None,,,,,,,,,,,,,,,,,P118,001,2025-02-20_11h18.57.645,posner_endo_new1,2024.2.4,60.03406333181516,2025-02-20 11h19.07.666394 +0000,
cube_l.png,0.1,-0.31,valid,42,42,0,down,3.575804899999639,None,space,0.40790259998175316,None,,,,,0,42,42,42,,,,,418.2343340999796,,,,,,,,,,,,,418.21858529999736,418.2343340999796,418.2343340999796,418.2343340999796,421.81506719999015,,,,421.82108289998723,421.83277909999015,421.83277909999015,421.88086209999165,421.88109729997814,421.89752279999084,421.89752279999084,421.89752279999084,421.98074109997833,422.3143490999937,,,,,,,,down,3.575804899999639,None,space,0.40790259998175316,None,,,,,,,,,,,,,,,P118,001,2025-02-20_11h18.57.645,posner_endo_new1,2024.2.4,60.03406333181516,2025-02-20 11h19.07.666394 +0000,
cube_l.png,0.1,10,catch,43,43,0,down,11.935735600010958,None,None,,,,,,,0,43,43,43,,,,,422.3302811999747,,,,,,,,,,,,,422.3145241999882,422.3302811999747,422.3302811999747,422.3302811999747,434.26874539998244,,,,434.275072599994,434.2867321999802,434.2867321999802,434.3347291999962,434.33496219999506,434.3512762999744,434.3512762999744,434.3512762999744,434.4180463999801,437.348779699998,,,,436.43255249998765,437.3649916999857,437.3649916999857,437.3649916999857,down,11.935735600010958,None,None,,,,,,,,,,,,,,,,,P118,001,2025-02-20_11h18.57.645,posner_endo_new1,2024.2.4,60.03406333181516,2025-02-20 11h19.07.666394 +0000,
cube_l.png,0.1,0.31,invalid,44,44,0,down,3.3730163000000175,None,space,0.4204197000071872,None,,,,,0,44,44,44,,,,,437.3649916999857,,,,,,,,,,,,,437.34894539997913,437.3649916999857,437.3649916999857,437.3649916999857,440.7458512999874,,,,440.75213949999306,440.7637659999891,440.7637659999891,440.8115928999905,440.81183079999755,440.828140699974,440.828140699974,440.828140699974,440.91129399999045,441.26167649999843,,,,,,,,down,3.3730163000000175,None,space,0.4204197000071872,None,,,,,,,,,,,,,,,P118,001,2025-02-20_11h18.57.645,posner_endo_new1,2024.2.4,60.03406333181516,2025-02-20 11h19.07.666394 +0000,
cube_l.png,0.1,0.31,invalid,45,45,0,down,6.284542500012321,None,space,0.3102601999999024,None,,,,,0,45,45,45,,,,,441.27761289998307,,,,,,,,,,,,,441.26186319999397,441.27761289998307,441.27761289998307,441.27761289998307,447.57185259999824,,,,447.57786689998466,447.5893373999861,447.5893373999861,447.6378958999994,447.63813389997813,447.6544601999922,447.6544601999922,447.6544601999922,447.72100929997396,447.9713892999862,,,,,,,,down,6.284542500012321,None,space,0.3102601999999024,None,,,,,,,,,,,,,,,P118,001,2025-02-20_11h18.57.645,posner_endo_new1,2024.2.4,60.03406333181516,2025-02-20 11h19.07.666394 +0000,
cube_r.png,0.1,0.31,valid,46,46,0,down,5.1275678999954835,None,space,0.31252770000719465,None,,,,,0,46,46,46,,,,,447.9872991000011,,,,,,,,,,,,,447.9715638999769,447.9872991000011,447.9872991000011,447.9872991000011,453.1164166999806,,,,453.12240919997566,453.1338453999779,453.1338453999779,453.1821420999768,453.18237739999313,453.1986179999949,453.1986179999949,453.1986179999949,453.28194459999213,453.51607139999396,,,,,,,,down,5.1275678999954835,None,space,0.31252770000719465,None,,,,,,,,,,,,,,,P118,001,2025-02-20_11h18.57.645,posner_endo_new1,2024.2.4,60.03406333181516,2025-02-20 11h19.07.666394 +0000,
cube_l.png,0.1,-0.31,valid,47,47,0,down,7.038838299980853,None,space,0.42927250001230277,None,,,,,0,47,47,47,,,,,453.5316680999822,,,,,,,,,,,,,453.51626489998307,453.5316680999822,453.5316680999822,453.5316680999822,460.5753392999759,,,,460.58154129999457,460.59319539999706,460.59319539999706,460.64125019998755,460.64148719998775,460.657850699994,460.657850699994,460.657850699994,460.74114759999793,461.09165309998207,,,,,,,,down,7.038838299980853,None,space,0.42927250001230277,None,,,,,,,,,,,,,,,P118,001,2025-02-20_11h18.57.645,posner_endo_new1,2024.2.4,60.03406333181516,2025-02-20 11h19.07.666394 +0000,
cube_r.png,0.1,-0.31,invalid,48,48,0,down,6.654736099997535,None,space,0.28564250000636093,None,,,,,0,48,48,48,,,,,461.1073193999764,,,,,,,,,,,,,461.09183530000155,461.1073193999764,461.1073193999764,461.1073193999764,467.76799449999817,,,,467.774124699994,467.7858185999794,467.7858185999794,467.8339322999818,467.8341656999837,467.8504442999838,467.8504442999838,467.8504442999838,467.917186799983,468.15094049999607,,,,,,,,down,6.654736099997535,None,space,0.28564250000636093,None,,,,,,,,,,,,,,,P118,001,2025-02-20_11h18.57.645,posner_endo_new1,2024.2.4,60.03406333181516,2025-02-20 11h19.07.666394 +0000,
cube_r.png,0.1,10,catch,49,49,0,down,7.740022400015732,None,None,,,,,,,0,49,49,49,,,,,468.166641799995,,,,,,,,,,,,,468.1511198999942,468.166641799995,468.166641799995,468.166641799995,475.9096400999988,,,,475.9155800000008,475.9272328999941,475.9272328999941,475.9754009999742,475.9756341999746,475.9921983999957,475.9921983999957,475.9921983999957,476.07536969997454,478.9895478999824,,,,478.08994889998576,479.0055811999773,479.0055811999773,479.0055811999773,down,7.740022400015732,None,None,,,,,,,,,,,,,,,,,P118,001,2025-02-20_11h18.57.645,posner_endo_new1,2024.2.4,60.03406333181516,2025-02-20 11h19.07.666394 +0000,
cube_l.png,0.1,-0.31,valid,50,50,0,down,3.3326390000001993,None,space,0.38540470000589266,None,,,,,0,50,50,50,,,,,479.0055811999773,,,,,,,,,,,,,478.9897134999919,479.0055811999773,479.0055811999773,479.0055811999773,482.3530680999975,,,,482.35922949999804,482.3707899999863,482.3707899999863,482.41908139997395,482.4193156999827,482.4355672999809,482.4355672999809,482.4355672999809,482.518728199997,482.82320259997505,,,,,,,,down,3.3326390000001993,None,space,0.38540470000589266,None,,,,,,,,,,,,,,,P118,001,2025-02-20_11h18.57.645,posner_endo_new1,2024.2.4,60.03406333181516,2025-02-20 11h19.07.666394 +0000,
cube_l.png,0.1,-0.31,valid,51,51,0,down,5.934817300003488,None,space,0.42014209998887964,None,,,,,0,51,51,51,,,,,482.8349643999827,,,,,,,,,,,,,482.8233869999822,482.8349643999827,482.8349643999827,482.8349643999827,488.78004519999376,,,,488.7886179999914,488.79884639999364,488.79884639999364,488.8458715999732,488.84616739998455,488.86232739998377,488.86232739998377,488.86232739998377,488.9454340999946,489.29618869998376,,,,,,,,down,5.934817300003488,None,space,0.42014209998887964,None,,,,,,,,,,,,,,,P118,001,2025-02-20_11h18.57.645,posner_endo_new1,2024.2.4,60.03406333181516,2025-02-20 11h19.07.666394 +0000,
cube_r.png,0.1,-0.31,invalid,52,52,0,down,8.066377699986333,None,space,0.3448516000062227,None,,,,,0,52,52,52,,,,,489.31188559997827,,,,,,,,,,,,,489.2964286999777,489.31188559997827,489.31188559997827,489.31188559997827,497.38763119999203,,,,497.39367189997574,497.4053278999927,497.4053278999927,497.45353859997704,497.4537719999789,497.4701573999773,497.4701573999773,497.4701573999773,497.53682489998755,497.82065489998786,,,,,,,,down,8.066377699986333,None,space,0.3448516000062227,None,,,,,,,,,,,,,,,P118,001,2025-02-20_11h18.57.645,posner_endo_new1,2024.2.4,60.03406333181516,2025-02-20 11h19.07.666394 +0000,
cube_l.png,0.1,-0.31,valid,53,53,0,down,7.614128899993375,None,space,0.35457060000044294,None,,,,,0,53,53,53,,,,,497.83649519999744,,,,,,,,,,,,,497.82083099999,497.83649519999744,497.83649519999744,497.83649519999744,505.46282869999413,,,,505.46892629997456,505.4805292999954,505.4805292999954,505.5287778999773,505.52901189998374,505.54505389998667,505.54505389998667,505.54505389998667,505.62814129999606,505.91230529997847,,,,,,,,down,7.614128899993375,None,space,0.35457060000044294,None,,,,,,,,,,,,,,,P118,001,2025-02-20_11h18.57.645,posner_endo_new1,2024.2.4,60.03406333181516,2025-02-20 11h19.07.666394 +0000,
cube_r.png,0.1,10,catch,54,54,0,down,5.682150799984811,None,None,,,,,,,0,54,54,54,,,,,505.92815880000126,,,,,,,,,,,,,505.91248649999034,505.92815880000126,505.92815880000126,505.92815880000126,511.62315569998464,,,,511.6291193999932,511.64075059999595,511.64075059999595,511.6890950999805,511.6893347000005,511.7056948999816,511.7056948999816,511.7056948999816,511.7722493999754,514.7031223999802,,,,513.7868274999782,514.7193284999812,514.7193284999812,514.7193284999812,down,5.682150799984811,None,None,,,,,,,,,,,,,,,,,P118,001,2025-02-20_11h18.57.645,posner_endo_new1,2024.2.4,60.03406333181516,2025-02-20 11h19.07.666394 +0000,
cube_l.png,0.1,0.31,invalid,55,55,0,down,4.755764500005171,None,space,0.35366379999322817,None,,,,,0,55,55,55,,,,,514.7193284999812,,,,,,,,,,,,,514.7032939999772,514.7193284999812,514.7193284999812,514.7193284999812,519.4818919999816,,,,519.4879910000018,519.4998393999995,519.4998393999995,519.5477845999994,519.5480194999836,519.5641874999856,519.5641874999856,519.5641874999856,519.6475371999841,519.9314038000011,,,,,,,,down,4.755764500005171,None,space,0.35366379999322817,None,,,,,,,,,,,,,,,P118,001,2025-02-20_11h18.57.645,posner_endo_new1,2024.2.4,60.03406333181516,2025-02-20 11h19.07.666394 +0000,
cube_l.png,0.1,-0.31,valid,56,56,0,down,7.911814599996433,None,space,0.2923375000245869,None,,,,,0,56,56,56,,,,,519.9472104999877,,,,,,,,,,,,,519.9315782999911,519.9472104999877,519.9472104999877,519.9472104999877,527.8732361999864,,,,527.8792704999796,527.8908441999811,527.8908441999811,527.9391295999812,527.9393640999915,527.9558329999854,527.9558329999854,527.9558329999854,528.038945999986,528.2563152999792,,,,,,,,down,7.911814599996433,None,space,0.2923375000245869,None,,,,,,,,,,,,,,,P118,001,2025-02-20_11h18.57.645,posner_endo_new1,2024.2.4,60.03406333181516,2025-02-20 11h19.07.666394 +0000,
cube_r.png,0.1,0.31,valid,57,57,0,down,9.571382399997674,None,space,0.30334809998748824,None,,,,,0,57,57,57,,,,,528.2720737999771,,,,,,,,,,,,,528.256493199995,528.2720737999771,528.2720737999771,528.2720737999771,537.8470053999918,,,,537.8583406999824,537.8687118999951,537.8687118999951,537.9122589999752,537.912612199987,537.9288991999929,537.9288991999929,537.9288991999929,538.0120373999816,538.2464976999909,,,,,,,,down,9.571382399997674,None,space,0.30334809998748824,None,,,,,,,,,,,,,,,P118,001,2025-02-20_11h18.57.645,posner_endo_new1,2024.2.4,60.03406333181516,2025-02-20 11h19.07.666394 +0000,
cube_r.png,0.1,-0.31,invalid,58,58,0,down,6.652274400024908,None,space,0.36396360001526773,None,,,,,0,58,58,58,,,,,538.2618817999901,,,,,,,,,,,,,538.2467868999811,538.2618817999901,538.2618817999901,538.2618817999901,544.9224349999859,,,,544.9287654999935,544.9403020999744,544.9403020999744,544.9883348000003,544.9885687999777,545.0048764999956,545.0048764999956,545.0048764999956,545.0882772999757,545.3719590999826,,,,,,,,down,6.652274400024908,None,space,0.36396360001526773,None,,,,,,,,,,,,,,,P118,001,2025-02-20_11h18.57.645,posner_endo_new1,2024.2.4,60.03406333181516,2025-02-20 11h19.07.666394 +0000,
cube_l.png,0.1,0.31,invalid,59,59,0,down,5.366804799996316,None,space,0.39539150000200607,None,,,,,0,59,59,59,,,,,545.3879080999759,,,,,,,,,,,,,545.3721328999964,545.3879080999759,545.3879080999759,545.3879080999759,550.7666150000005,,,,550.7729625999928,550.7844512999873,550.7844512999873,550.832434299984,550.8326712999842,550.8489944999747,550.8489944999747,550.8489944999747,550.9322574999824,551.2493314000021,,,,,,,,down,5.366804799996316,None,space,0.39539150000200607,None,,,,,,,,,,,,,,,P118,001,2025-02-20_11h18.57.645,posner_endo_new1,2024.2.4,60.03406333181516,2025-02-20 11h19.07.666394 +0000,
,,,,,,,,,,,,,,,,,,,,,,,,,,,,,,,,,,,,,,,,,,,,,,,,,,,,,,,,,,,,,,,,,,,,,551.2494499999739,551.2651709999773,551.2651709999773,611.2706339999859,624.6408786999818,space,73.36187910000444,None,,,,,,,P118,001,2025-02-20_11h18.57.645,posner_endo_new1,2024.2.4,60.03406333181516,2025-02-20 11h19.07.666394 +0000,
,,,,,,,,,,,,,,,,,,,,,,,,,,,,,,,,,,624.6409357999801,624.6567908999859,627.6616795999871,627.637665199989,,,,,,,,,,,,,,,,,,,,,,,,,,,,,,,,,,,,,,,,,,,,,,P118,001,2025-02-20_11h18.57.645,posner_endo_new1,2024.2.4,60.03406333181516,2025-02-20 11h19.07.666394 +0000,
cube_l.png,0.1,10,catch,0,0,0,up,12.493202899990138,None,None,,,,,,,,,,,0,0,0,0,627.6616795999871,,,,,,,,,,,,,627.6529089999967,627.6616795999871,627.6616795999871,627.6616795999871,640.1587128999818,,,,640.165135999996,640.1766616999812,640.1766616999812,640.2245020999981,640.2247481999802,640.2410191999807,640.2410191999807,640.2410191999807,640.3243395999889,643.2384063999925,,,,642.3388909999921,643.2544991999748,643.2544991999748,643.2544991999748,,,,,,,,,,,,,,,up,12.493202899990138,None,None,,,P118,001,2025-02-20_11h18.57.645,posner_endo_new1,2024.2.4,60.03406333181516,2025-02-20 11h19.07.666394 +0000,
cube_l.png,0.1,10,catch,1,1,0,up,5.0357268000079785,None,None,,,,,,,,,,,0,1,1,1,643.2544991999748,,,,,,,,,,,,,643.2385741999897,643.2544991999748,643.2544991999748,643.2544991999748,648.3001456999918,,,,648.3066328999994,648.3181479999912,648.3181479999912,648.3661432999943,648.3663781999785,648.3825593999936,648.3825593999936,648.3825593999936,648.4492590999871,651.3800284999888,,,,650.4638674999878,651.3963595999812,651.3963595999812,651.3963595999812,,,,,,,,,,,,,,,up,5.0357268000079785,None,None,,,P118,001,2025-02-20_11h18.57.645,posner_endo_new1,2024.2.4,60.03406333181516,2025-02-20 11h19.07.666394 +0000,
cube_l.png,0.1,0.31,invalid,2,2,0,up,4.04589589999523,None,space,0.3505141000205185,None,,,,,,,,,0,2,2,2,651.3963595999812,,,,,,,,,,,,,651.3802048999933,651.3963595999812,651.3963595999812,651.3963595999812,655.4431676999957,,,,655.4494934999966,655.4611205999972,655.4611205999972,655.5087916999764,655.5090259999852,655.5253704999923,655.5253704999923,655.5253704999923,655.6086660999863,655.8925272999913,,,,,,,,,,,,,,,,,,,,,,up,4.04589589999523,None,space,0.3505141000205185,None,P118,001,2025-02-20_11h18.57.645,posner_endo_new1,2024.2.4,60.03406333181516,2025-02-20 11h19.07.666394 +0000,
cube_l.png,0.1,0.31,invalid,3,3,0,up,7.461900499998592,None,space,0.3630787000001874,None,,,,,,,,,0,3,3,3,655.9083070999768,,,,,,,,,,,,,655.892710199987,655.9083070999768,655.9083070999768,655.9083070999768,663.3848230000003,,,,663.3911381999787,663.4023529999831,663.4023529999831,663.4505155999796,663.4509557999845,663.4669352999772,663.4669352999772,663.4669352999772,663.5502004000009,663.8347086999856,,,,,,,,,,,,,,,,,,,,,,up,7.461900499998592,None,space,0.3630787000001874,None,P118,001,2025-02-20_11h18.57.645,posner_endo_new1,2024.2.4,60.03406333181516,2025-02-20 11h19.07.666394 +0000,
cube_l.png,0.1,-0.31,valid,4,4,0,up,7.960828800016316,None,space,0.3671316999825649,None,,,,,,,,,0,4,4,4,663.8501566999767,,,,,,,,,,,,,663.8349627999996,663.8501566999767,663.8501566999767,663.8501566999767,671.8265102999867,,,,671.8350864999811,671.8452533999807,671.8452533999807,671.8921042000002,671.8923998999817,671.9086412999895,671.9086412999895,671.9086412999895,671.9919156999968,672.292629899981,,,,,,,,,,,,,,,,,,,,,,up,7.960828800016316,None,space,0.3671316999825649,None,P118,001,2025-02-20_11h18.57.645,posner_endo_new1,2024.2.4,60.03406333181516,2025-02-20 11h19.07.666394 +0000,
cube_r.png,0.1,-0.31,invalid,5,5,0,up,6.175106300011976,None,space,0.39037520001875237,None,,,,,,,,,0,5,5,5,672.3081641999888,,,,,,,,,,,,,672.2928755999892,672.3081641999888,672.3081641999888,672.3081641999888,678.486365299992,,,,678.4949084999971,678.5051312999858,678.5051312999858,678.5520026999875,678.5523032999772,678.5686170999834,678.5686170999834,678.5686170999834,678.651778999978,678.9691445999779,,,,,,,,,,,,,,,,,,,,,,up,6.175106300011976,None,space,0.39037520001875237,None,P118,001,2025-02-20_11h18.57.645,posner_endo_new1,2024.2.4,60.03406333181516,2025-02-20 11h19.07.666394 +0000,
cube_r.png,0.1,0.31,valid,6,6,0,up,7.514473999995971,None,space,0.33241989999078214,None,,,,,,,,,0,6,6,6,678.9847147999972,,,,,,,,,,,,,678.9693838999956,678.9847147999972,678.9847147999972,678.9847147999972,686.5114960999927,,,,686.5200731999939,686.5302849999862,686.5302849999862,686.5771329999843,686.5774288999964,686.5936655999976,686.5936655999976,686.5936655999976,686.6768771999923,686.9278231999779,,,,,,,,,,,,,,,,,,,,,,up,7.514473999995971,None,space,0.33241989999078214,None,P118,001,2025-02-20_11h18.57.645,posner_endo_new1,2024.2.4,60.03406333181516,2025-02-20 11h19.07.666394 +0000,
cube_r.png,0.1,-0.31,invalid,7,7,0,up,7.443002300016815,None,space,0.3209002999938093,None,,,,,,,,,0,7,7,7,686.9434030999837,,,,,,,,,,,,,686.9280728999875,686.9434030999837,686.9434030999837,686.9434030999837,694.4032290999894,,,,694.4117860999831,694.4218939999992,694.4218939999992,694.4690242999932,694.469323999976,694.4856681999809,694.4856681999809,694.4856681999809,694.5521970999835,694.8195884999877,,,,,,,,,,,,,,,,,,,,,,up,7.443002300016815,None,space,0.3209002999938093,None,P118,001,2025-02-20_11h18.57.645,posner_endo_new1,2024.2.4,60.03406333181516,2025-02-20 11h19.07.666394 +0000,
cube_l.png,0.1,-0.31,valid,8,8,0,up,7.20775090000825,None,space,0.302192200004356,None,,,,,,,,,0,8,8,8,694.8351009999751,,,,,,,,,,,,,694.8198329999868,694.8351009999751,694.8351009999751,694.8351009999751,702.0456626999949,,,,702.0544338999898,702.0647870999819,702.0647870999819,702.1112646999827,702.1115577999735,702.1277881999849,702.1277881999849,702.1277881999849,702.2110127999913,702.4450979999965,,,,,,,,,,,,,,,,,,,,,,up,7.20775090000825,None,space,0.302192200004356,None,P118,001,2025-02-20_11h18.57.645,posner_endo_new1,2024.2.4,60.03406333181516,2025-02-20 11h19.07.666394 +0000,
cube_r.png,0.1,-0.31,invalid,9,9,0,up,7.086970800010022,None,space,0.2310097000154201,None,,,,,,,,,0,9,9,9,702.4607759999926,,,,,,,,,,,,,702.4453467999992,702.4607759999926,702.4607759999926,702.4607759999926,709.5546783999889,,,,709.5633072999772,709.5735172999848,709.5735172999848,709.620408799994,709.6207039000001,709.6367940999917,709.6367940999917,709.6367940999917,709.7201608999749,709.8709656999854,,,,,,,,,,,,,,,,,,,,,,up,7.086970800010022,None,space,0.2310097000154201,None,P118,001,2025-02-20_11h18.57.645,posner_endo_new1,2024.2.4,60.03406333181516,2025-02-20 11h19.07.666394 +0000,
cube_l.png,0.1,0.31,invalid,10,10,0,up,6.468455499998527,None,space,0.35818740000831895,None,,,,,,,,,0,10,10,10,709.8864417999866,,,,,,,,,,,,,709.8712166999758,709.8864417999866,709.8864417999866,709.8864417999866,716.3642930999922,,,,716.3728604999778,716.3830792999943,716.3830792999943,716.4299709999759,716.4302670999896,716.4464475999994,716.4464475999994,716.4464475999994,716.5297799999826,716.8137488999928,,,,,,,,,,,,,,,,,,,,,,up,6.468455499998527,None,space,0.35818740000831895,None,P118,001,2025-02-20_11h18.57.645,posner_endo_new1,2024.2.4,60.03406333181516,2025-02-20 11h19.07.666394 +0000,
cube_r.png,0.1,-0.31,invalid,11,11,0,up,6.189076000009663,None,space,0.32402640001964755,None,,,,,,,,,0,11,11,11,716.8293885999883,,,,,,,,,,,,,716.8140154999855,716.8293885999883,716.8293885999883,716.8293885999883,723.0243380999891,,,,723.0329498999927,723.0431394999905,723.0431394999905,723.0899286999775,723.0902226999751,723.106280499982,723.106280499982,723.106280499982,723.1896736999915,723.4404491999885,,,,,,,,,,,,,,,,,,,,,,up,6.189076000009663,None,space,0.32402640001964755,None,P118,001,2025-02-20_11h18.57.645,posner_endo_new1,2024.2.4,60.03406333181516,2025-02-20 11h19.07.666394 +0000,
cube_r.png,0.1,0.31,valid,12,12,0,up,7.514668999996502,None,space,0.35966869999538176,None,,,,,,,,,0,12,12,12,723.4559519999893,,,,,,,,,,,,,723.4406915,723.4559519999893,723.4559519999893,723.4559519999893,730.9826566999836,,,,730.9914375999942,731.0019835999992,731.0019835999992,731.0484446999908,731.0487429999921,731.0649375999928,731.0649375999928,731.0649375999928,731.1482143999892,731.4321602999989,,,,,,,,,,,,,,,,,,,,,,up,7.514668999996502,None,space,0.35966869999538176,None,P118,001,2025-02-20_11h18.57.645,posner_endo_new1,2024.2.4,60.03406333181516,2025-02-20 11h19.07.666394 +0000,
cube_l.png,0.1,10,catch,13,13,0,up,6.267127200000687,None,space,0.3320133999804966,None,,,,,,,,,0,13,13,13,731.4479166999809,,,,,,,,,,,,,731.4323998999898,731.4479166999809,731.4479166999809,731.4479166999809,737.7257333999733,,,,737.734299099975,737.7445574000012,737.7445574000012,737.7915120999969,737.7918072999746,737.808042699995,737.808042699995,737.808042699995,737.8912911999796,738.1420643999882,,,,,,,,,,,,,,,,,,,,,,up,6.267127200000687,None,space,0.3320133999804966,None,P118,001,2025-02-20_11h18.57.645,posner_endo_new1,2024.2.4,60.03406333181516,2025-02-20 11h19.07.666394 +0000,
cube_r.png,0.1,-0.31,invalid,14,14,0,up,6.308740899985423,None,space,0.4299472999991849,None,,,,,,,,,0,14,14,14,738.1576289999939,,,,,,,,,,,,,738.1423153999785,738.1576289999939,738.1576289999939,738.1576289999939,744.4689453999745,,,,744.4774965999823,744.4875866999791,744.4875866999791,744.534660699981,744.5349532999971,744.5511283999949,744.5511283999949,744.5511283999949,744.6344553999952,744.9851749999798,,,,,,,,,,,,,,,,,,,,,,up,6.308740899985423,None,space,0.4299472999991849,None,P118,001,2025-02-20_11h18.57.645,posner_endo_new1,2024.2.4,60.03406333181516,2025-02-20 11h19.07.666394 +0000,
cube_l.png,0.1,-0.31,valid,15,15,0,up,6.018233999988297,None,space,0.5845310000004247,None,,,,,,,,,0,15,15,15,745.0006024999893,,,,,,,,,,,,,744.9854168999882,745.0006024999893,745.0006024999893,745.0006024999893,751.0289074999746,,,,751.0375107,751.047774799983,751.047774799983,751.0945523999981,751.0948492999887,751.1111516999954,751.1111516999954,751.1111516999954,751.1943743999873,751.7115010999842,,,,,,,,,,,,,,,,,,,,,,up,6.018233999988297,None,space,0.5845310000004247,None,P118,001,2025-02-20_11h18.57.645,posner_endo_new1,2024.2.4,60.03406333181516,2025-02-20 11h19.07.666394 +0000,
cube_r.png,0.1,10,catch,16,16,0,up,5.179716700018616,None,None,,,,,,,,,,,0,16,16,16,751.7271113999886,,,,,,,,,,,,,751.7117519999738,751.7271113999886,751.7271113999886,751.7271113999886,756.9228728999733,,,,756.931443599984,756.9417235000001,756.9417235000001,756.988503599976,756.9888055999763,757.0049008999777,757.0049008999777,757.0049008999777,757.0882774999773,760.0027362999972,,,,759.1029126999783,760.0186023999995,760.0186023999995,760.0186023999995,,,,,,,,,,,,,,,up,5.179716700018616,None,None,,,P118,001,2025-02-20_11h18.57.645,posner_endo_new1,2024.2.4,60.03406333181516,2025-02-20 11h19.07.666394 +0000,
cube_r.png,0.1,10,catch,17,17,0,up,3.0164456000202335,None,None,,,,,,,,,,,0,17,17,17,760.0186023999995,,,,,,,,,,,,,760.0029637999833,760.0186023999995,760.0186023999995,760.0186023999995,763.0498958999815,,,,763.0578651999822,763.0684795999841,763.0684795999841,763.1155226999836,763.1157705999794,763.1320677999756,763.1320677999756,763.1320677999756,763.2153038999822,766.1295134999964,,,,765.2299724999757,766.1458218999906,766.1458218999906,766.1458218999906,,,,,,,,,,,,,,,up,3.0164456000202335,None,None,,,P118,001,2025-02-20_11h18.57.645,posner_endo_new1,2024.2.4,60.03406333181516,2025-02-20 11h19.07.666394 +0000,
cube_l.png,0.1,0.31,invalid,18,18,0,up,4.744845999986865,None,space,0.42855410001357086,None,,,,,,,,,0,18,18,18,766.1458218999906,,,,,,,,,,,,,766.129683999985,766.1458218999906,766.1458218999906,766.1458218999906,770.8917919999803,,,,770.8978289999941,770.909419499978,770.909419499978,770.9573953999789,770.9576295999868,770.973994,770.973994,770.973994,771.057368299982,771.4078781999997,,,,,,,,,,,,,,,,,,,,,,up,4.744845999986865,None,space,0.42855410001357086,None,P118,001,2025-02-20_11h18.57.645,posner_endo_new1,2024.2.4,60.03406333181516,2025-02-20 11h19.07.666394 +0000,
cube_l.png,0.1,10,catch,19,19,0,up,7.747175099997548,None,None,,,,,,,,,,,0,19,19,19,771.4236093999934,,,,,,,,,,,,,771.408062499977,771.4236093999934,771.4236093999934,771.4236093999934,779.183191899996,,,,779.189235799975,779.2009045000013,779.2009045000013,779.2489567000011,779.2491909999808,779.2656898999994,779.2656898999994,779.2656898999994,779.3490267999878,782.2630147999735,,,,781.3632994999934,782.2791628999985,782.2791628999985,782.2791628999985,,,,,,,,,,,,,,,up,7.747175099997548,None,None,,,P118,001,2025-02-20_11h18.57.645,posner_endo_new1,2024.2.4,60.03406333181516,2025-02-20 11h19.07.666394 +0000,
cube_l.png,0.1,0.31,invalid,20,20,0,up,4.363579999975627,None,space,0.32475780000095256,None,,,,,,,,,0,20,20,20,782.2791628999985,,,,,,,,,,,,,782.2631868999742,782.2791628999985,782.2791628999985,782.2791628999985,786.6588927999837,,,,786.6649534999742,786.6766008999839,786.6766008999839,786.7247608999896,786.7252761999844,786.7412035999878,786.7412035999878,786.7412035999878,786.824430299981,787.0759852999763,,,,,,,,,,,,,,,,,,,,,,up,4.363579999975627,None,space,0.32475780000095256,None,P118,001,2025-02-20_11h18.57.645,posner_endo_new1,2024.2.4,60.03406333181516,2025-02-20 11h19.07.666394 +0000,
cube_l.png,0.1,-0.31,valid,21,21,0,up,7.793120000016643,None,space,0.3977675999922212,None,,,,,,,,,0,21,21,21,787.0908248999913,,,,,,,,,,,,,787.0764296999841,787.0908248999913,787.0908248999913,787.0908248999913,794.9009076999791,,,,794.9116407999827,794.9216181999946,794.9216181999946,794.9663145999948,794.9666507999937,794.9829763000016,794.9829763000016,794.9829763000016,795.0660531999893,795.383697399986,,,,,,,,,,,,,,,,,,,,,,up,7.793120000016643,None,space,0.3977675999922212,None,P118,001,2025-02-20_11h18.57.645,posner_endo_new1,2024.2.4,60.03406333181516,2025-02-20 11h19.07.666394 +0000,
cube_r.png,0.1,0.31,valid,22,22,0,up,5.515234100021189,None,space,0.3380073000153061,None,,,,,,,,,0,22,22,22,795.3992126999947,,,,,,,,,,,,,795.3839835999825,795.3992126999947,795.3992126999947,795.3992126999947,800.9280408999766,,,,800.9387836999958,800.949040699983,800.949040699983,800.9936753999791,800.9940154999786,801.0100416999776,801.0100416999776,801.0100416999776,801.0934341999819,801.361041199998,,,,,,,,,,,,,,,,,,,,,,up,5.515234100021189,None,space,0.3380073000153061,None,P118,001,2025-02-20_11h18.57.645,posner_endo_new1,2024.2.4,60.03406333181516,2025-02-20 11h19.07.666394 +0000,
cube_r.png,0.1,-0.31,invalid,23,23,0,up,6.6025228000071365,None,space,0.44657749999896623,None,,,,,,,,,0,23,23,23,801.3763500999776,,,,,,,,,,,,,801.3613277999975,801.3763500999776,801.3763500999776,801.3763500999776,807.9876376999891,,,,807.9978692999866,808.0074182999961,808.0074182999961,808.0528918999771,808.0531375999853,808.0695219999761,808.0695219999761,808.0695219999761,808.1527610999765,808.5198775999888,,,,,,,,,,,,,,,,,,,,,,up,6.6025228000071365,None,space,0.44657749999896623,None,P118,001,2025-02-20_11h18.57.645,posner_endo_new1,2024.2.4,60.03406333181516,2025-02-20 11h19.07.666394 +0000,
cube_r.png,0.1,0.31,valid,24,24,0,up,5.898889300005976,None,space,0.366681499988772,None,,,,,,,,,0,24,24,24,808.5357071999751,,,,,,,,,,,,,808.5200713999802,808.5357071999751,808.5357071999751,808.5357071999751,814.447191299987,,,,814.45385239998,814.4654708999733,814.4654708999733,814.5129653999757,814.5132080999902,814.5297656999901,814.5297656999901,814.5297656999901,814.6129092999909,814.9133720999816,,,,,,,,,,,,,,,,,,,,,,up,5.898889300005976,None,space,0.366681499988772,None,P118,001,2025-02-20_11h18.57.645,posner_endo_new1,2024.2.4,60.03406333181516,2025-02-20 11h19.07.666394 +0000,
cube_r.png,0.1,-0.31,invalid,25,25,0,up,6.913811199978227,None,space,0.3774754000187386,None,,,,,,,,,0,25,25,25,814.929175600002,,,,,,,,,,,,,814.913565899973,814.929175600002,814.929175600002,814.929175600002,821.8561226999736,,,,821.8628800000006,821.8745066999982,821.8745066999982,821.9221994999971,821.9224422999832,821.938689499977,821.938689499977,821.938689499977,822.0052142999775,822.3225925999868,,,,,,,,,,,,,,,,,,,,,,up,6.913811199978227,None,space,0.3774754000187386,None,P118,001,2025-02-20_11h18.57.645,posner_endo_new1,2024.2.4,60.03406333181516,2025-02-20 11h19.07.666394 +0000,
cube_l.png,0.1,-0.31,valid,26,26,0,up,6.297285599983297,None,space,0.2971495999954641,None,,,,,,,,,0,26,26,26,822.3381713999843,,,,,,,,,,,,,822.3227805999923,822.3381713999843,822.3381713999843,822.3381713999843,828.6494119999988,,,,828.6560473999998,828.6676062999759,828.6676062999759,828.7153968999919,828.7156390000018,828.7316238999774,828.7316238999774,828.7316238999774,828.8150444999919,829.0324641999905,,,,,,,,,,,,,,,,,,,,,,up,6.297285599983297,None,space,0.2971495999954641,None,P118,001,2025-02-20_11h18.57.645,posner_endo_new1,2024.2.4,60.03406333181516,2025-02-20 11h19.07.666394 +0000,
cube_r.png,0.1,0.31,valid,27,27,0,up,3.6590938000008464,None,space,0.47265700000571087,None,,,,,,,,,0,27,27,27,829.0478745999862,,,,,,,,,,,,,829.0326551999897,829.0478745999862,829.0478745999862,829.0478745999862,832.7117042999889,,,,832.7183175999962,832.7299200999842,832.7299200999842,832.7776554999873,832.7778973999957,832.7942599999951,832.7942599999951,832.7942599999951,832.8772956999892,833.2778869999747,,,,,,,,,,,,,,,,,,,,,,up,3.6590938000008464,None,space,0.47265700000571087,None,P118,001,2025-02-20_11h18.57.645,posner_endo_new1,2024.2.4,60.03406333181516,2025-02-20 11h19.07.666394 +0000,
cube_r.png,0.1,10,catch,28,28,0,up,5.397417900006985,None,space,0.27742850000504404,None,,,,,,,,,0,28,28,28,833.2937979999988,,,,,,,,,,,,,833.278078399977,833.2937979999988,833.2937979999988,833.2937979999988,838.7058229999966,,,,838.7124737999984,838.7241279000009,838.7241279000009,838.7716528000019,838.7718966999964,838.7881032000005,838.7881032000005,838.7881032000005,838.8713482999883,839.072047099995,,,,,,,,,,,,,,,,,,,,,,up,5.397417900006985,None,space,0.27742850000504404,None,P118,001,2025-02-20_11h18.57.645,posner_endo_new1,2024.2.4,60.03406333181516,2025-02-20 11h19.07.666394 +0000,
cube_r.png,0.1,0.31,valid,29,29,0,up,6.443244800000684,None,space,0.28990420000627637,None,,,,,,,,,0,29,29,29,839.0877953999734,,,,,,,,,,,,,839.0722341999935,839.0877953999734,839.0877953999734,839.0877953999734,845.5322483999771,,,,845.5389141999767,845.5506243999989,845.5506243999989,845.5978722999862,845.5981053999858,845.614520699979,845.614520699979,845.614520699979,845.6978679999884,845.9150479999953,,,,,,,,,,,,,,,,,,,,,,up,6.443244800000684,None,space,0.28990420000627637,None,P118,001,2025-02-20_11h18.57.645,posner_endo_new1,2024.2.4,60.03406333181516,2025-02-20 11h19.07.666394 +0000,
cube_r.png,0.1,0.31,valid,30,30,0,up,5.568305599997984,None,space,0.3087305999943055,None,,,,,,,,,0,30,30,30,845.9308292999922,,,,,,,,,,,,,845.9152346999908,845.9308292999922,845.9308292999922,845.9308292999922,851.5092984999937,,,,851.5152850000013,851.5269693000009,851.5269693000009,851.5750157999864,851.5752496999921,851.5917963999964,851.5917963999964,851.5917963999964,851.675059399975,851.908740599989,,,,,,,,,,,,,,,,,,,,,,up,5.568305599997984,None,space,0.3087305999943055,None,P118,001,2025-02-20_11h18.57.645,posner_endo_new1,2024.2.4,60.03406333181516,2025-02-20 11h19.07.666394 +0000,
cube_l.png,0.1,-0.31,valid,31,31,0,up,6.518242699996335,None,space,0.35617079999065027,None,,,,,,,,,0,31,31,31,851.9248054999916,,,,,,,,,,,,,851.9089214999985,851.9248054999916,851.9248054999916,851.9248054999916,858.4520973999752,,,,858.4580145999789,858.4695733999833,858.4695733999833,858.5181314999936,858.5183632999833,858.534645799984,858.534645799984,858.534645799984,858.601346099982,858.9016439999978,,,,,,,,,,,,,,,,,,,,,,up,6.518242699996335,None,space,0.35617079999065027,None,P118,001,2025-02-20_11h18.57.645,posner_endo_new1,2024.2.4,60.03406333181516,2025-02-20 11h19.07.666394 +0000,
cube_r.png,0.1,0.31,valid,32,32,0,up,5.468990499997744,None,space,0.36276890002773143,None,,,,,,,,,0,32,32,32,858.9175554999965,,,,,,,,,,,,,858.9018308999948,858.9175554999965,858.9175554999965,858.9175554999965,864.3961320999952,,,,864.4022012999922,864.413703499973,864.413703499973,864.4621026999957,864.462340899976,864.4785211999842,864.4785211999842,864.4785211999842,864.5617745999771,864.8456788999902,,,,,,,,,,,,,,,,,,,,,,up,5.468990499997744,None,space,0.36276890002773143,None,P118,001,2025-02-20_11h18.57.645,posner_endo_new1,2024.2.4,60.03406333181516,2025-02-20 11h19.07.666394 +0000,
cube_r.png,0.1,-0.31,invalid,33,33,0,up,5.717346599994926,None,space,0.5136842000065371,None,,,,,,,,,0,33,33,33,864.8614123000007,,,,,,,,,,,,,864.8458624999912,864.8614123000007,864.8614123000007,864.8614123000007,870.5896565000003,,,,870.5956634999893,870.6073599999945,870.6073599999945,870.6558216999983,870.6560578999924,870.6721295999887,870.6721295999887,870.6721295999887,870.7388383999933,871.1894503999793,,,,,,,,,,,,,,,,,,,,,,up,5.717346599994926,None,space,0.5136842000065371,None,P118,001,2025-02-20_11h18.57.645,posner_endo_new1,2024.2.4,60.03406333181516,2025-02-20 11h19.07.666394 +0000,
cube_r.png,0.1,10,catch,34,34,0,up,6.133881699992344,None,None,,,,,,,,,,,0,34,34,34,871.2050864999765,,,,,,,,,,,,,871.1896299999789,871.2050864999765,871.2050864999765,871.2050864999765,877.3496315999946,,,,877.3556286999956,877.3671044999792,877.3671044999792,877.415525599994,877.4157783999981,877.4319610999955,877.4319610999955,877.4319610999955,877.5151088999992,880.429621999996,,,,879.5298092000012,880.445554099977,880.445554099977,880.445554099977,,,,,,,,,,,,,,,up,6.133881699992344,None,None,,,P118,001,2025-02-20_11h18.57.645,posner_endo_new1,2024.2.4,60.03406333181516,2025-02-20 11h19.07.666394 +0000,
cube_r.png,0.1,0.31,valid,35,35,0,up,2.109848799998872,None,space,0.3856532000063453,None,,,,,,,,,0,35,35,35,880.445554099977,,,,,,,,,,,,,880.4298909999779,880.445554099977,880.445554099977,880.445554099977,882.5611721999885,,,,882.5719157999847,882.5822226999735,882.5822226999735,882.62688169998,882.6272342999873,882.6434274999774,882.6434274999774,882.6434274999774,882.7267188999976,883.044024999981,,,,,,,,,,,,,,,,,,,,,,up,2.109848799998872,None,space,0.3856532000063453,None,P118,001,2025-02-20_11h18.57.645,posner_endo_new1,2024.2.4,60.03406333181516,2025-02-20 11h19.07.666394 +0000,
cube_r.png,0.1,-0.31,invalid,36,36,0,up,6.344664200005354,None,space,0.3607058000052348,None,,,,,,,,,0,36,36,36,883.0594771999749,,,,,,,,,,,,,883.0443222999747,883.0594771999749,883.0594771999749,883.0594771999749,889.4209963999747,,,,889.4317137999751,889.4418329999899,889.4418329999899,889.4865569999965,889.4868959999876,889.5033110999793,889.5033110999793,889.5033110999793,889.586344499985,889.870531499997,,,,,,,,,,,,,,,,,,,,,,up,6.344664200005354,None,space,0.3607058000052348,None,P118,001,2025-02-20_11h18.57.645,posner_endo_new1,2024.2.4,60.03406333181516,2025-02-20 11h19.07.666394 +0000,
cube_l.png,0.1,0.31,invalid,37,37,0,up,5.285086500021862,None,space,0.8762670000141952,None,,,,,,,,,0,37,37,37,889.8859725999937,,,,,,,,,,,,,889.8708241999848,889.8859725999937,889.8859725999937,889.8859725999937,895.1817013999971,,,,895.1925156999787,895.2026736999978,895.2026736999978,895.2472387999878,895.2475788999873,895.2636733999825,895.2636733999825,895.2636733999825,895.346979199996,896.1468813999963,,,,,,,,,,,,,,,,,,,,,,up,5.285086500021862,None,space,0.8762670000141952,None,P118,001,2025-02-20_11h18.57.645,posner_endo_new1,2024.2.4,60.03406333181516,2025-02-20 11h19.07.666394 +0000,
cube_l.png,0.1,0.31,invalid,38,38,0,up,5.376478299993323,None,space,0.3856937999953516,None,,,,,,,,,0,38,38,38,896.1627644999826,,,,,,,,,,,,,896.1470811999752,896.1627644999826,896.1627644999826,896.1627644999826,901.5414170000004,,,,901.5482828999811,901.5600140999886,901.5600140999886,901.6074664999906,901.6077192999946,901.6239458999771,901.6239458999771,901.6239458999771,901.6905632999842,902.024371699983,,,,,,,,,,,,,,,,,,,,,,up,5.376478299993323,None,space,0.3856937999953516,None,P118,001,2025-02-20_11h18.57.645,posner_endo_new1,2024.2.4,60.03406333181516,2025-02-20 11h19.07.666394 +0000,
cube_r.png,0.1,0.31,valid,39,39,0,up,4.954996900021797,None,space,0.5264115000027232,None,,,,,,,,,0,39,39,39,902.0401546999929,,,,,,,,,,,,,902.0245651000005,902.0401546999929,902.0401546999929,902.0401546999929,907.0026934999914,,,,907.0094793999742,907.0211541999888,907.0211541999888,907.0685470999742,907.0687860999897,907.0848690999846,907.0848690999846,907.0848690999846,907.1683326999773,907.6183182999957,,,,,,,,,,,,,,,,,,,,,,up,4.954996900021797,None,space,0.5264115000027232,None,P118,001,2025-02-20_11h18.57.645,posner_endo_new1,2024.2.4,60.03406333181516,2025-02-20 11h19.07.666394 +0000,
cube_l.png,0.1,0.31,invalid,40,40,0,up,10.624253499991028,None,space,0.411782300012419,None,,,,,,,,,0,40,40,40,907.634569899994,,,,,,,,,,,,,907.6185004999861,907.634569899994,907.634569899994,907.634569899994,918.2743374999845,,,,918.2803794999782,918.2918658999843,918.2918658999843,918.3403327999986,918.3405650999921,918.3567605999997,918.3567605999997,918.3567605999997,918.440219799988,918.7740335999988,,,,,,,,,,,,,,,,,,,,,,up,10.624253499991028,None,space,0.411782300012419,None,P118,001,2025-02-20_11h18.57.645,posner_endo_new1,2024.2.4,60.03406333181516,2025-02-20 11h19.07.666394 +0000,
cube_l.png,0.1,10,catch,41,41,0,up,5.981605399982072,None,None,,,,,,,,,,,0,41,41,41,918.789767099981,,,,,,,,,,,,,918.7742151999846,918.789767099981,918.789767099981,918.789767099981,924.7849588999816,,,,924.7961991999764,924.8066178000008,924.8066178000008,924.8504104999884,924.8507656999864,924.86684469998,924.86684469998,924.86684469998,924.9501328999759,927.8645103999879,,,,926.9647901999997,927.8804563999875,927.8804563999875,927.8804563999875,,,,,,,,,,,,,,,up,5.981605399982072,None,None,,,P118,001,2025-02-20_11h18.57.645,posner_endo_new1,2024.2.4,60.03406333181516,2025-02-20 11h19.07.666394 +0000,
cube_l.png,0.1,-0.31,valid,42,42,0,up,1.594142699992517,None,space,0.44020569999702275,None,,,,,,,,,0,42,42,42,927.8804563999875,,,,,,,,,,,,,927.8647939999937,927.8804563999875,927.8804563999875,927.8804563999875,929.4800595999986,,,,929.4911514999985,929.5017727999948,929.5017727999948,929.5456714999746,929.5460245999857,929.5619269000017,929.5619269000017,929.5619269000017,929.6453458999749,930.0129279999819,,,,,,,,,,,,,,,,,,,,,,up,1.594142699992517,None,space,0.44020569999702275,None,P118,001,2025-02-20_11h18.57.645,posner_endo_new1,2024.2.4,60.03406333181516,2025-02-20 11h19.07.666394 +0000,
cube_l.png,0.1,10,catch,43,43,0,up,5.982936500018695,None,None,,,,,,,,,,,0,43,43,43,930.0282321999839,,,,,,,,,,,,,930.013231399993,930.0282321999839,930.0282321999839,930.0282321999839,936.0234426999814,,,,936.0347335999832,936.0452279999736,936.0452279999736,936.0889186999993,936.0892769999919,936.1054637999914,936.1054637999914,936.1054637999914,936.1886789999844,939.103111799981,,,,938.2032515999745,939.1189264999994,939.1189264999994,939.1189264999994,,,,,,,,,,,,,,,up,5.982936500018695,None,None,,,P118,001,2025-02-20_11h18.57.645,posner_endo_new1,2024.2.4,60.03406333181516,2025-02-20 11h19.07.666394 +0000,
cube_l.png,0.1,0.31,invalid,44,44,0,up,3.204441299982136,None,space,0.4125171999912709,None,,,,,,,,,0,44,44,44,939.1189264999994,,,,,,,,,,,,,939.1033916999877,939.1189264999994,939.1189264999994,939.1189264999994,942.3338309999963,,,,942.3450477999868,942.3554201999796,942.3554201999796,942.3991668999952,942.399523799977,942.4156529999746,942.4156529999746,942.4156529999746,942.4991868999787,942.8331399000017,,,,,,,,,,,,,,,,,,,,,,up,3.204441299982136,None,space,0.4125171999912709,None,P118,001,2025-02-20_11h18.57.645,posner_endo_new1,2024.2.4,60.03406333181516,2025-02-20 11h19.07.666394 +0000,
cube_l.png,0.1,0.31,invalid,45,45,0,up,5.834082400018815,None,space,0.3735404000035487,None,,,,,,,,,0,45,45,45,942.848504900001,,,,,,,,,,,,,942.83343899998,942.848504900001,942.848504900001,942.848504900001,948.6939211999997,,,,948.7052608999948,948.7155946999846,948.7155946999846,948.7592405999894,948.7595980999758,948.7757890999783,948.7757890999783,948.7757890999783,948.859032599983,949.1599701999803,,,,,,,,,,,,,,,,,,,,,,up,5.834082400018815,None,space,0.3735404000035487,None,P118,001,2025-02-20_11h18.57.645,posner_endo_new1,2024.2.4,60.03406333181516,2025-02-20 11h19.07.666394 +0000,
cube_r.png,0.1,0.31,valid,46,46,0,up,5.763190300000133,None,space,0.31297559998347424,None,,,,,,,,,0,46,46,46,949.1754711999965,,,,,,,,,,,,,949.1602731999883,949.1754711999965,949.1754711999965,949.1754711999965,954.9541381999734,,,,954.9653791999735,954.9757969999919,954.9757969999919,955.0194920999929,955.0197457999748,955.0360294999846,955.0360294999846,955.0360294999846,955.1191698999901,955.3534248999786,,,,,,,,,,,,,,,,,,,,,,up,5.763190300000133,None,space,0.31297559998347424,None,P118,001,2025-02-20_11h18.57.645,posner_endo_new1,2024.2.4,60.03406333181516,2025-02-20 11h19.07.666394 +0000,
cube_l.png,0.1,-0.31,valid,47,47,0,up,5.945551499986323,None,space,0.40373819999513216,None,,,,,,,,,0,47,47,47,955.369097799994,,,,,,,,,,,,,955.3536202999821,955.369097799994,955.369097799994,955.369097799994,961.3304191999778,,,,961.3372700999898,961.3489004999865,961.3489004999865,961.3963211999799,961.396852099977,961.4127393999952,961.4127393999952,961.4127393999952,961.4959447000001,961.8310641999997,,,,,,,,,,,,,,,,,,,,,,up,5.945551499986323,None,space,0.40373819999513216,None,P118,001,2025-02-20_11h18.57.645,posner_endo_new1,2024.2.4,60.03406333181516,2025-02-20 11h19.07.666394 +0000,
cube_r.png,0.1,-0.31,invalid,48,48,0,up,5.8545803999877535,None,space,0.37225909999688156,None,,,,,,,,,0,48,48,48,961.8456344000006,,,,,,,,,,,,,961.8315191000002,961.8456344000006,961.8456344000006,961.8456344000006,967.707411499985,,,,967.7182106999971,967.7284823999798,967.7284823999798,967.7732655,967.7736076999863,967.7896940999781,967.7896940999781,967.7896940999781,967.8729306999885,968.1737856999971,,,,,,,,,,,,,,,,,,,,,,up,5.8545803999877535,None,space,0.37225909999688156,None,P118,001,2025-02-20_11h18.57.645,posner_endo_new1,2024.2.4,60.03406333181516,2025-02-20 11h19.07.666394 +0000,
cube_r.png,0.1,10,catch,49,49,0,up,5.022145499999169,None,None,,,,,,,,,,,0,49,49,49,968.1892414999893,,,,,,,,,,,,,968.1740749999881,968.1892414999893,968.1892414999893,968.1892414999893,973.218764499994,,,,973.2295780999993,973.2399311999907,973.2399311999907,973.2841850999976,973.2845359999919,973.3007674999826,973.3007674999826,973.3007674999826,973.3839167999977,976.2983510999766,,,,975.398659599974,976.3142665999767,976.3142665999767,976.3142665999767,,,,,,,,,,,,,,,up,5.022145499999169,None,None,,,P118,001,2025-02-20_11h18.57.645,posner_endo_new1,2024.2.4,60.03406333181516,2025-02-20 11h19.07.666394 +0000,
cube_l.png,0.1,-0.31,valid,50,50,0,up,4.689464700000826,None,space,0.34368250000989065,None,,,,,,,,,0,50,50,50,976.3142665999767,,,,,,,,,,,,,976.2986181000015,976.3142665999767,976.3142665999767,976.3142665999767,981.010755299998,,,,981.0214550999808,981.031691399985,981.031691399985,981.0762957999832,981.0766384999733,981.0928077999852,981.0928077999852,981.0928077999852,981.1760851999861,981.4434564999829,,,,,,,,,,,,,,,,,,,,,,up,4.689464700000826,None,space,0.34368250000989065,None,P118,001,2025-02-20_11h18.57.645,posner_endo_new1,2024.2.4,60.03406333181516,2025-02-20 11h19.07.666394 +0000,
cube_l.png,0.1,-0.31,valid,51,51,0,up,6.840304799989099,None,space,0.2629725000006147,None,,,,,,,,,0,51,51,51,981.4591467999853,,,,,,,,,,,,,981.4437401999894,981.4591467999853,981.4591467999853,981.4591467999853,988.3033908999932,,,,988.3141475000011,988.3244936999981,988.3244936999981,988.3688469999761,988.3691844999848,988.3853173999814,988.3853173999814,988.3853173999814,988.4686519999814,988.6529541999917,,,,,,,,,,,,,,,,,,,,,,up,6.840304799989099,None,space,0.2629725000006147,None,P118,001,2025-02-20_11h18.57.645,posner_endo_new1,2024.2.4,60.03406333181516,2025-02-20 11h19.07.666394 +0000,
cube_r.png,0.1,-0.31,invalid,52,52,0,up,5.910337199980859,None,space,0.3364720999961719,None,,,,,,,,,0,52,52,52,988.6684367999842,,,,,,,,,,,,,988.6532462999749,988.6684367999842,988.6684367999842,988.6684367999842,994.5803365999891,,,,994.5910802999861,994.6013586999907,994.6013586999907,994.6457215999835,994.6460627999913,994.6621760999842,994.6621760999842,994.6621760999842,994.7454639999778,995.0131804999837,,,,,,,,,,,,,,,,,,,,,,up,5.910337199980859,None,space,0.3364720999961719,None,P118,001,2025-02-20_11h18.57.645,posner_endo_new1,2024.2.4,60.03406333181516,2025-02-20 11h19.07.666394 +0000,
cube_l.png,0.1,-0.31,valid,53,53,0,up,4.886330799985444,None,space,0.6176748999860138,None,,,,,,,,,0,53,53,53,995.0285740999971,,,,,,,,,,,,,995.0134789999865,995.0285740999971,995.0285740999971,995.0285740999971,999.924680199998,,,,999.9354070999834,999.9457810999884,999.9457810999884,999.99023939998,999.9905782999995,1000.0067711999873,1000.0067711999873,1000.0067711999873,1000.0900015999796,1000.6407352999959,,,,,,,,,,,,,,,,,,,,,,up,4.886330799985444,None,space,0.6176748999860138,None,P118,001,2025-02-20_11h18.57.645,posner_endo_new1,2024.2.4,60.03406333181516,2025-02-20 11h19.07.666394 +0000,
cube_r.png,0.1,10,catch,54,54,0,up,5.115262999985134,None,None,,,,,,,,,,,0,54,54,54,1000.6560511999996,,,,,,,,,,,,,1000.6410192999756,1000.6560511999996,1000.6560511999996,1000.6560511999996,1005.785227299988,,,,1005.7960759999987,1005.8063762999955,1005.8063762999955,1005.8508946999791,1005.8512397999875,1005.8674465999939,1005.8674465999939,1005.8674465999939,1005.9506974999967,1008.8651417999936,,,,1007.9653277999896,1008.8810103999858,1008.8810103999858,1008.8810103999858,,,,,,,,,,,,,,,up,5.115262999985134,None,None,,,P118,001,2025-02-20_11h18.57.645,posner_endo_new1,2024.2.4,60.03406333181516,2025-02-20 11h19.07.666394 +0000,
cube_l.png,0.1,0.31,invalid,55,55,0,up,2.6020562000048812,None,space,0.33450870000524446,None,,,,,,,,,0,55,55,55,1008.8810103999858,,,,,,,,,,,,,1008.8654091999924,1008.8810103999858,1008.8810103999858,1008.8810103999858,1011.496250999975,,,,1011.5070472999942,1011.5173560999974,1011.5173560999974,1011.5617847999965,1011.5621266999806,1011.5782380999881,1011.5782380999881,1011.5782380999881,1011.6616309999954,1011.9291629999934,,,,,,,,,,,,,,,,,,,,,,up,2.6020562000048812,None,space,0.33450870000524446,None,P118,001,2025-02-20_11h18.57.645,posner_endo_new1,2024.2.4,60.03406333181516,2025-02-20 11h19.07.666394 +0000,
cube_l.png,0.1,-0.31,valid,56,56,0,up,6.194353600003524,None,space,0.3474296000204049,None,,,,,,,,,0,56,56,56,1011.9445395999937,,,,,,,,,,,,,1011.929458300001,1011.9445395999937,1011.9445395999937,1011.9445395999937,1018.1561763999925,,,,1018.1669324999966,1018.1770575999981,1018.1770575999981,1018.2215438999992,1018.2218865999894,1018.2381755999813,1018.2381755999813,1018.2381755999813,1018.3213705999951,1018.589313399978,,,,,,,,,,,,,,,,,,,,,,up,6.194353600003524,None,space,0.3474296000204049,None,P118,001,2025-02-20_11h18.57.645,posner_endo_new1,2024.2.4,60.03406333181516,2025-02-20 11h19.07.666394 +0000,
cube_r.png,0.1,0.31,valid,57,57,0,up,5.51926669999375,None,space,0.31810000000405125,None,,,,,,,,,0,57,57,57,1018.6044334999751,,,,,,,,,,,,,1018.5896057999926,1018.6044334999751,1018.6044334999751,1018.6044334999751,1024.1329781999812,,,,1024.1398006999807,1024.15145819998,1024.15145819998,1024.1988614999864,1024.1991134999844,1024.2154308999889,1024.2154308999889,1024.2154308999889,1024.2986447000003,1024.5492462999828,,,,,,,,,,,,,,,,,,,,,,up,5.51926669999375,None,space,0.31810000000405125,None,P118,001,2025-02-20_11h18.57.645,posner_endo_new1,2024.2.4,60.03406333181516,2025-02-20 11h19.07.666394 +0000,
cube_r.png,0.1,-0.31,invalid,58,58,0,up,4.894220600021072,None,space,0.3710022999730427,None,,,,,,,,,0,58,58,58,1024.5650263999996,,,,,,,,,,,,,1024.5494466999953,1024.5650263999996,1024.5650263999996,1024.5650263999996,1029.4609032000008,,,,1029.4676447999955,1029.4791633999848,1029.4791633999848,1029.5267363999737,1029.5272719999775,1029.5431387999852,1029.5431387999852,1029.5431387999852,1029.6263940999925,1029.9279141000006,,,,,,,,,,,,,,,,,,,,,,up,4.894220600021072,None,space,0.3710022999730427,None,P118,001,2025-02-20_11h18.57.645,posner_endo_new1,2024.2.4,60.03406333181516,2025-02-20 11h19.07.666394 +0000,
cube_l.png,0.1,0.31,invalid,59,59,0,up,5.268009899999015,None,space,0.2634144000185188,None,,,,,,,,,0,59,59,59,1029.9427089999954,,,,,,,,,,,,,1029.928375699994,1029.9427089999954,1029.9427089999954,1029.9427089999954,1035.221965899982,,,,1035.2327431000012,1035.2430655999924,1035.2430655999924,1035.2875522999966,1035.2878926999983,1035.3040253999934,1035.3040253999934,1035.3040253999934,1035.3872029999911,1035.571835299983,,,,,,,,,,,,,,,,,,,,,,up,5.268009899999015,None,space,0.2634144000185188,None,P118,001,2025-02-20_11h18.57.645,posner_endo_new1,2024.2.4,60.03406333181516,2025-02-20 11h19.07.666394 +0000,
