cue_img,cue_soa,target_x,trial,thisN,thisTrialN,thisRepN,key_control2.keys,key_control2.rt,key_control2.duration,key_resp.keys,key_resp.rt,key_resp.duration,practice.thisRepN,practice.thisTrialN,practice.thisN,practice.thisIndex,block1.thisRepN,block1.thisTrialN,block1.thisN,block1.thisIndex,block2.thisRepN,block2.thisTrialN,block2.thisN,block2.thisIndex,thisRow.t,notes,instructions.started,instructions_txt.started,key_control.started,instructions.stopped,key_control.keys,key_control.rt,key_control.duration,ready.started,ready_txt.started,ready_txt.stopped,ready.stopped,fix.started,fixation.started,key_control2.started,fixation_cross.started,fix.stopped,practice.key_control2.keys,practice.key_control2.rt,practice.key_control2.duration,cue.started,cube.started,fixation_cross_cue.started,cue.stopped,target.started,fixation_target.started,fixation_cross_target.started,key_resp.started,star.started,target.stopped,practice.key_resp.keys,practice.key_resp.rt,practice.key_resp.duration,star.stopped,fixation_target.stopped,fixation_cross_target.stopped,key_resp.stopped,block1.key_control2.keys,block1.key_control2.rt,block1.key_control2.duration,block1.key_resp.keys,block1.key_resp.rt,block1.key_resp.duration,break_2.started,text.started,key_control3.started,text.stopped,break_2.stopped,key_control3.keys,key_control3.rt,key_control3.duration,block2.key_control2.keys,block2.key_control2.rt,block2.key_control2.duration,block2.key_resp.keys,block2.key_resp.rt,block2.key_resp.duration,participant,session,date,expName,psychopyVersion,frameRate,expStart,
,,,,,,,,,,,,,,,,,,,,,,,,,,,0.007475399994291365,0.023119500023312867,0.023119500023312867,3.544720400008373,up,3.4999456999939866,None,,,,,,,,,,,,,,,,,,,,,,,,,,,,,,,,,,,,,,,,,,,,,,,,,,P119,001,2025-02-20_14h10.01.907,posner_endo_new1,2024.2.4,60.04264228072264,2025-02-20 14h10.10.330014 +0000,
,,,,,,,,,,,,,,,,,,,,,,,,,,,,,,,,,,3.544786899990868,3.556284799997229,6.553814799990505,6.534316700010095,,,,,,,,,,,,,,,,,,,,,,,,,,,,,,,,,,,,,,,,,,,,,,P119,001,2025-02-20_14h10.01.907,posner_endo_new1,2024.2.4,60.04264228072264,2025-02-20 14h10.10.330014 +0000,
cube_l.png,0.1,-0.31,valid,0,0,0,up,22.39359870000044,None,space,0.7059115000301972,None,0,0,0,0,,,,,,,,,6.553814799990505,,,,,,,,,,,,,6.541199700033758,6.553814799990505,6.553814799990505,6.553814799990505,28.962187200027984,up,22.39359870000044,None,28.977683100034483,28.988677699991968,28.988677699991968,29.027828100020997,29.028136000037193,29.04413230001228,29.04413230001228,29.04413230001228,29.12763649999397,29.761373299988918,space,0.7059115000301972,None,,,,,,,,,,,,,,,,,,,,,,,,,P119,001,2025-02-20_14h10.01.907,posner_endo_new1,2024.2.4,60.04264228072264,2025-02-20 14h10.10.330014 +0000,
cube_l.png,0.1,0.31,invalid,1,1,0,up,4.906402299995534,None,space,0.45832530001644045,None,0,1,1,1,,,,,,,,,29.776924000005238,,,,,,,,,,,,,29.761618899996392,29.776924000005238,29.776924000005238,29.776924000005238,34.6895697999862,up,4.906402299995534,None,34.70082490000641,34.71092680003494,34.71092680003494,34.75525300001027,34.75556439999491,34.771781000017654,34.771781000017654,34.771781000017654,34.85505469999043,35.23902530001942,space,0.45832530001644045,None,,,,,,,,,,,,,,,,,,,,,,,,,P119,001,2025-02-20_14h10.01.907,posner_endo_new1,2024.2.4,60.04264228072264,2025-02-20 14h10.10.330014 +0000,
cube_r.png,0.1,-0.31,invalid,2,2,0,up,3.684177799965255,None,space,0.39355740003520623,None,0,2,2,2,,,,,,,,,35.25474629999371,,,,,,,,,,,,,35.23926970001776,35.25474629999371,35.25474629999371,35.25474629999371,38.95195870002499,up,3.684177799965255,None,38.9627755000256,38.97290950000752,38.97290950000752,39.0176053000032,39.017924099985976,39.03421850001905,39.03421850001905,39.03421850001905,39.11732890002895,39.43467079999391,space,0.39355740003520623,None,,,,,,,,,,,,,,,,,,,,,,,,,P119,001,2025-02-20_14h10.01.907,posner_endo_new1,2024.2.4,60.04264228072264,2025-02-20 14h10.10.330014 +0000,
cube_r.png,0.1,10,catch,3,3,0,up,3.704263899999205,None,None,,,0,3,3,3,,,,,,,,,39.45045730000129,,,,,,,,,,,,,39.434913200035226,39.45045730000129,39.45045730000129,39.45045730000129,43.16409520001616,up,3.704263899999205,None,43.17443600000115,43.18465320003452,43.18465320003452,43.22993580001639,43.23024120001355,43.24648239999078,43.24648239999078,43.24648239999078,43.329783499997575,46.24410589999752,None,,,45.344239600002766,46.26009619998513,46.26009619998513,46.26009619998513,,,,,,,,,,,,,,,,,,,,,P119,001,2025-02-20_14h10.01.907,posner_endo_new1,2024.2.4,60.04264228072264,2025-02-20 14h10.10.330014 +0000,
cube_l.png,0.1,-0.31,valid,4,4,0,up,0.8553065999876708,None,space,0.5170467999996617,None,0,4,4,4,,,,,,,,,46.26009619998513,,,,,,,,,,,,,46.24432789999992,46.26009619998513,46.26009619998513,46.26009619998513,47.126841599994805,up,0.8553065999876708,None,47.137905700015835,47.14808399998583,47.14808399998583,47.19256290001795,47.19286930002272,47.209086399991065,47.209086399991065,47.209086399991065,47.292378000041936,47.74295109999366,space,0.5170467999996617,None,,,,,,,,,,,,,,,,,,,,,,,,,P119,001,2025-02-20_14h10.01.907,posner_endo_new1,2024.2.4,60.04264228072264,2025-02-20 14h10.10.330014 +0000,
cube_l.png,0.1,0.31,invalid,5,5,0,up,3.212600899976678,None,space,0.49514640000415966,None,0,5,5,5,,,,,,,,,47.75851539999712,,,,,,,,,,,,,47.74320160003845,47.75851539999712,47.75851539999712,47.75851539999712,50.97278850001749,up,3.212600899976678,None,50.97955039999215,50.991328500036616,50.991328500036616,51.03856790001737,51.03879439999582,51.0551558000152,51.0551558000152,51.0551558000152,51.13852580002276,51.5554523000028,space,0.49514640000415966,None,,,,,,,,,,,,,,,,,,,,,,,,,P119,001,2025-02-20_14h10.01.907,posner_endo_new1,2024.2.4,60.04264228072264,2025-02-20 14h10.10.330014 +0000,
cube_r.png,0.1,-0.31,invalid,6,6,0,up,3.272237800003495,None,space,0.4636817999999039,None,0,6,6,6,,,,,,,,,51.57132210000418,,,,,,,,,,,,,51.55561450001551,51.57132210000418,51.57132210000418,51.57132210000418,54.85214690002613,up,3.272237800003495,None,54.8585568999988,54.87022010004148,54.87022010004148,54.91795159998583,54.91817620000802,54.93453120003687,54.93453120003687,54.93453120003687,55.00094180001179,55.40138370002387,space,0.4636817999999039,None,,,,,,,,,,,,,,,,,,,,,,,,,P119,001,2025-02-20_14h10.01.907,posner_endo_new1,2024.2.4,60.04264228072264,2025-02-20 14h10.10.330014 +0000,
cube_r.png,0.1,0.31,valid,7,7,0,up,3.049338800017722,None,space,0.4395938999950886,None,0,7,7,7,,,,,,,,,55.41731109999819,,,,,,,,,,,,,55.401546799985226,55.41731109999819,55.41731109999819,55.41731109999819,58.48157360003097,up,3.049338800017722,None,58.48781409999356,58.499528800020926,58.499528800020926,58.54760340001667,58.547830700001214,58.5640922000166,58.5640922000166,58.5640922000166,58.63088620000053,59.014439499995206,space,0.4395938999950886,None,,,,,,,,,,,,,,,,,,,,,,,,,P119,001,2025-02-20_14h10.01.907,posner_endo_new1,2024.2.4,60.04264228072264,2025-02-20 14h10.10.330014 +0000,
cube_l.png,0.1,-0.31,valid,8,8,0,up,3.0930822999798693,None,space,0.4544892000267282,None,0,8,8,8,,,,,,,,,59.03042359999381,,,,,,,,,,,,,59.01460669998778,59.03042359999381,59.03042359999381,59.03042359999381,62.12795630004257,up,3.0930822999798693,None,62.134266300010495,62.14596940000774,62.14596940000774,62.193821199995,62.19404580001719,62.210480400011875,62.210480400011875,62.210480400011875,62.27660610002931,62.6773921000422,space,0.4544892000267282,None,,,,,,,,,,,,,,,,,,,,,,,,,P119,001,2025-02-20_14h10.01.907,posner_endo_new1,2024.2.4,60.04264228072264,2025-02-20 14h10.10.330014 +0000,
cube_r.png,0.1,-0.31,invalid,9,9,0,up,3.646491000021342,None,space,0.4963522999896668,None,0,9,9,9,,,,,,,,,62.69276970002102,,,,,,,,,,,,,62.67770240001846,62.69276970002102,62.69276970002102,62.69276970002102,66.34076839999761,up,3.646491000021342,None,66.34960509999655,66.35951979999663,66.35951979999663,66.40628769999603,66.40656550001586,66.42276919999858,66.42276919999858,66.42276919999858,66.50593590002973,66.92338900000323,space,0.4963522999896668,None,,,,,,,,,,,,,,,,,,,,,,,,,P119,001,2025-02-20_14h10.01.907,posner_endo_new1,2024.2.4,60.04264228072264,2025-02-20 14h10.10.330014 +0000,
cube_r.png,0.1,0.31,valid,10,10,0,up,2.7681280999677256,None,space,0.5291629999992438,None,0,10,10,10,,,,,,,,,66.93882560002385,,,,,,,,,,,,,66.92360109998845,66.93882560002385,66.93882560002385,66.93882560002385,69.72020760003943,up,2.7681280999677256,None,69.72862220002571,69.73873899999307,69.73873899999307,69.78605550003704,69.7863314000424,69.80272490001516,69.80272490001516,69.80272490001516,69.86929210001836,70.33658960001776,space,0.5291629999992438,None,,,,,,,,,,,,,,,,,,,,,,,,,P119,001,2025-02-20_14h10.01.907,posner_endo_new1,2024.2.4,60.04264228072264,2025-02-20 14h10.10.330014 +0000,
,,,,,,,,,,,,,,,,,,,,,,,,,,,,,,,,,,70.33672960003605,70.35184260003734,73.3550843000412,73.33265810000012,,,,,,,,,,,,,,,,,,,,,,,,,,,,,,,,,,,,,,,,,,,,,,P119,001,2025-02-20_14h10.01.907,posner_endo_new1,2024.2.4,60.04264228072264,2025-02-20 14h10.10.330014 +0000,
cube_l.png,0.1,10,catch,0,0,0,up,1.687684000004083,None,None,,,,,,,0,0,0,0,,,,,73.3550843000412,,,,,,,,,,,,,73.34625020000385,73.3550843000412,73.3550843000412,73.3550843000412,75.04816870001378,,,,75.06151160004083,75.07155769999372,75.07155769999372,75.11358390003443,75.11397609999403,75.13006150000729,75.13006150000729,75.13006150000729,75.21331850002753,78.12805360002676,,,,77.22852529998636,78.14419640001142,78.14419640001142,78.14419640001142,up,1.687684000004083,None,None,,,,,,,,,,,,,,,,,P119,001,2025-02-20_14h10.01.907,posner_endo_new1,2024.2.4,60.04264228072264,2025-02-20 14h10.10.330014 +0000,
cube_l.png,0.1,10,catch,1,1,0,up,0.7631448000320233,None,None,,,,,,,0,1,1,1,,,,,78.14419640001142,,,,,,,,,,,,,78.12825960002374,78.14419640001142,78.14419640001142,78.14419640001142,78.9108045999892,,,,78.9172663000063,78.92903050000314,78.92903050000314,78.9766176000121,78.97684479999589,78.99322579998989,78.99322579998989,78.99322579998989,79.05998220003676,81.99067870003637,,,,81.07440560002578,82.0069405999966,82.0069405999966,82.0069405999966,up,0.7631448000320233,None,None,,,,,,,,,,,,,,,,,P119,001,2025-02-20_14h10.01.907,posner_endo_new1,2024.2.4,60.04264228072264,2025-02-20 14h10.10.330014 +0000,
cube_l.png,0.1,0.31,invalid,2,2,0,up,1.3406760000507347,None,space,0.634370099985972,None,,,,,0,2,2,2,,,,,82.0069405999966,,,,,,,,,,,,,81.99083770002471,82.0069405999966,82.0069405999966,82.0069405999966,83.35636979999254,,,,83.3623862999957,83.37395350000588,83.37395350000588,83.42212970001856,83.42235629999777,83.43871870002476,83.43871870002476,83.43871870002476,83.52195670001674,84.08882569998968,,,,,,,,up,1.3406760000507347,None,space,0.634370099985972,None,,,,,,,,,,,,,,,P119,001,2025-02-20_14h10.01.907,posner_endo_new1,2024.2.4,60.04264228072264,2025-02-20 14h10.10.330014 +0000,
cube_l.png,0.1,0.31,invalid,3,3,0,up,3.1314571000402793,None,space,0.5027472999645397,None,,,,,0,3,3,3,,,,,84.10473339998862,,,,,,,,,,,,,84.08899960003328,84.10473339998862,84.10473339998862,84.10473339998862,87.25236000004224,,,,87.25871329999063,87.2704042000114,87.2704042000114,87.31808749999618,87.31859350000741,87.33458700001938,87.33458700001938,87.33458700001938,87.41773550002836,87.85238590004155,,,,,,,,up,3.1314571000402793,None,space,0.5027472999645397,None,,,,,,,,,,,,,,,P119,001,2025-02-20_14h10.01.907,posner_endo_new1,2024.2.4,60.04264228072264,2025-02-20 14h10.10.330014 +0000,
cube_l.png,0.1,-0.31,valid,4,4,0,up,2.5116565999924205,None,space,0.542294499988202,None,,,,,0,4,4,4,,,,,87.8673531000386,,,,,,,,,,,,,87.85283119999804,87.8673531000386,87.8673531000386,87.8673531000386,90.38280419999501,,,,90.39178700000048,90.40146190003725,90.40146190003725,90.44841060001636,90.44863709999481,90.46482560003642,90.46482560003642,90.46482560003642,90.54815089999465,91.01507860003039,,,,,,,,up,2.5116565999924205,None,space,0.542294499988202,None,,,,,,,,,,,,,,,P119,001,2025-02-20_14h10.01.907,posner_endo_new1,2024.2.4,60.04264228072264,2025-02-20 14h10.10.330014 +0000,
cube_r.png,0.1,-0.31,invalid,5,5,0,up,3.0847589999902993,None,space,0.4662894999491982,None,,,,,0,5,5,5,,,,,91.0309077000129,,,,,,,,,,,,,91.01524919999065,91.0309077000129,91.0309077000129,91.0309077000129,94.12844410003163,,,,94.13503150001634,94.14659610000672,94.14659610000672,94.19450869999127,94.19473809999181,94.21102300001075,94.21102300001075,94.21102300001075,94.2777132000192,94.67835699999705,,,,,,,,up,3.0847589999902993,None,space,0.4662894999491982,None,,,,,,,,,,,,,,,P119,001,2025-02-20_14h10.01.907,posner_endo_new1,2024.2.4,60.04264228072264,2025-02-20 14h10.10.330014 +0000,
cube_r.png,0.1,0.31,valid,6,6,0,up,3.6213789000175893,None,space,0.5220951000228524,None,,,,,0,6,6,6,,,,,94.69381790002808,,,,,,,,,,,,,94.67852960003074,94.69381790002808,94.69381790002808,94.69381790002808,98.32532390003325,,,,98.3426375000272,98.35306320001837,98.35306320001837,98.39032170001883,98.39066889998503,98.40672190004261,98.40672190004261,98.40672190004261,98.49002379999729,98.94082730001537,,,,,,,,up,3.6213789000175893,None,space,0.5220951000228524,None,,,,,,,,,,,,,,,P119,001,2025-02-20_14h10.01.907,posner_endo_new1,2024.2.4,60.04264228072264,2025-02-20 14h10.10.330014 +0000,
cube_r.png,0.1,-0.31,invalid,7,7,0,up,3.814544000022579,None,space,0.6325378000037745,None,,,,,0,7,7,7,,,,,98.95622940000612,,,,,,,,,,,,,98.94111409998732,98.95622940000612,98.95622940000612,98.95622940000612,102.78743570001097,,,,102.80667890002951,102.81696660001762,102.81696660001762,102.85243140003877,102.85274270002265,102.86889260000316,102.86889260000316,102.86889260000316,102.95211600000039,103.50278620002791,,,,,,,,up,3.814544000022579,None,space,0.6325378000037745,None,,,,,,,,,,,,,,,P119,001,2025-02-20_14h10.01.907,posner_endo_new1,2024.2.4,60.04264228072264,2025-02-20 14h10.10.330014 +0000,
cube_l.png,0.1,-0.31,valid,8,8,0,up,3.092796599958092,None,space,0.4464470000239089,None,,,,,0,8,8,8,,,,,103.51829060004093,,,,,,,,,,,,,103.50303910003277,103.51829060004093,103.51829060004093,103.51829060004093,106.61629320000065,,,,106.62817700003507,106.63861449999968,106.63861449999968,106.68186150002293,106.6822124000173,106.6983285000315,106.6983285000315,106.6983285000315,106.78159209998557,107.14912399998866,,,,,,,,up,3.092796599958092,None,space,0.4464470000239089,None,,,,,,,,,,,,,,,P119,001,2025-02-20_14h10.01.907,posner_endo_new1,2024.2.4,60.04264228072264,2025-02-20 14h10.10.330014 +0000,
cube_r.png,0.1,-0.31,invalid,9,9,0,up,2.2473719000117853,None,space,0.5299789999844506,None,,,,,0,9,9,9,,,,,107.16443599999184,,,,,,,,,,,,,107.14941489999183,107.16443599999184,107.16443599999184,107.16443599999184,109.41347110003699,,,,109.42509570001857,109.43538020004053,109.43538020004053,109.4792010000092,109.47954610001761,109.49547339999117,109.49547339999117,109.49547339999117,109.57868580002105,110.0293890000321,,,,,,,,up,2.2473719000117853,None,space,0.5299789999844506,None,,,,,,,,,,,,,,,P119,001,2025-02-20_14h10.01.907,posner_endo_new1,2024.2.4,60.04264228072264,2025-02-20 14h10.10.330014 +0000,
cube_l.png,0.1,0.31,invalid,10,10,0,up,2.11851519998163,None,space,0.456880200013984,None,,,,,0,10,10,10,,,,,110.04494849999901,,,,,,,,,,,,,110.02967700001318,110.04494849999901,110.04494849999901,110.04494849999901,112.17716510000173,,,,112.18876370001817,112.19904520001728,112.19904520001728,112.2428038000362,112.24315190000925,112.25928210001439,112.25928210001439,112.25928210001439,112.34262210002635,112.72668790002353,,,,,,,,up,2.11851519998163,None,space,0.456880200013984,None,,,,,,,,,,,,,,,P119,001,2025-02-20_14h10.01.907,posner_endo_new1,2024.2.4,60.04264228072264,2025-02-20 14h10.10.330014 +0000,
cube_r.png,0.1,-0.31,invalid,11,11,0,up,3.717716399987694,None,space,0.40648979996331036,None,,,,,0,11,11,11,,,,,112.74203389999457,,,,,,,,,,,,,112.72697830002289,112.74203389999457,112.74203389999457,112.74203389999457,116.47271280002315,,,,116.48451640002895,116.49482010002248,116.49482010002248,116.53845980000915,116.53880959999515,116.55489420000231,116.55489420000231,116.55489420000231,116.63821450003888,116.9722352999961,,,,,,,,up,3.717716399987694,None,space,0.40648979996331036,None,,,,,,,,,,,,,,,P119,001,2025-02-20_14h10.01.907,posner_endo_new1,2024.2.4,60.04264228072264,2025-02-20 14h10.10.330014 +0000,
cube_r.png,0.1,0.31,valid,12,12,0,up,3.095418399956543,None,space,0.4121424999902956,None,,,,,0,12,12,12,,,,,116.98784940002952,,,,,,,,,,,,,116.97252539999317,116.98784940002952,116.98784940002952,116.98784940002952,120.08594509999966,,,,120.0974009000347,120.10782740003197,120.10782740003197,120.15138649998698,120.15173169999616,120.16785289999098,120.16785289999098,120.16785289999098,120.25114489998668,120.58541110000806,,,,,,,,up,3.095418399956543,None,space,0.4121424999902956,None,,,,,,,,,,,,,,,P119,001,2025-02-20_14h10.01.907,posner_endo_new1,2024.2.4,60.04264228072264,2025-02-20 14h10.10.330014 +0000,
cube_l.png,0.1,10,catch,13,13,0,up,3.6344468999886885,None,None,,,,,,,0,13,13,13,,,,,120.60088079998968,,,,,,,,,,,,,120.58569750003517,120.60088079998968,120.60088079998968,120.60088079998968,124.24805759999435,,,,124.25956219999352,124.26989470003173,124.26989470003173,124.31385109998519,124.31420349999098,124.33035870001186,124.33035870001186,124.33035870001186,124.41355659998953,127.32803249999415,,,,126.42822579998756,127.34377480001422,127.34377480001422,127.34377480001422,up,3.6344468999886885,None,None,,,,,,,,,,,,,,,,,P119,001,2025-02-20_14h10.01.907,posner_endo_new1,2024.2.4,60.04264228072264,2025-02-20 14h10.10.330014 +0000,
cube_r.png,0.1,-0.31,invalid,14,14,0,up,0.5157891000271775,None,space,0.48805370001355186,None,,,,,0,14,14,14,,,,,127.34377480001422,,,,,,,,,,,,,127.32829999999376,127.34377480001422,127.34377480001422,127.34377480001422,127.86134990002029,,,,127.87275229999796,127.88319590000901,127.88319590000901,127.92692110000644,127.92726690002019,127.94320829998469,127.94320829998469,127.94320829998469,128.02655240002787,128.4439427999896,,,,,,,,up,0.5157891000271775,None,space,0.48805370001355186,None,,,,,,,,,,,,,,,P119,001,2025-02-20_14h10.01.907,posner_endo_new1,2024.2.4,60.04264228072264,2025-02-20 14h10.10.330014 +0000,
cube_l.png,0.1,-0.31,valid,15,15,0,up,3.143377500004135,None,space,0.47004159999778494,None,,,,,0,15,15,15,,,,,128.4594863000093,,,,,,,,,,,,,128.44423790002475,128.4594863000093,128.4594863000093,128.4594863000093,131.60749409999698,,,,131.6191153000109,131.62940110004274,131.62940110004274,131.67305410001427,131.6733994000242,131.6895139000262,131.6895139000262,131.6895139000262,131.77263930003392,132.17348550003953,,,,,,,,up,3.143377500004135,None,space,0.47004159999778494,None,,,,,,,,,,,,,,,P119,001,2025-02-20_14h10.01.907,posner_endo_new1,2024.2.4,60.04264228072264,2025-02-20 14h10.10.330014 +0000,
cube_r.png,0.1,10,catch,16,16,0,up,3.709873699990567,None,None,,,,,,,0,16,16,16,,,,,132.1889436999918,,,,,,,,,,,,,132.17377140000463,132.1889436999918,132.1889436999918,132.1889436999918,135.9030902000377,,,,135.91461209999397,135.92484719998902,135.92484719998902,135.9685785000329,135.96892940002726,135.9851548000006,135.9851548000006,135.9851548000006,136.0683053000248,138.98283260001335,,,,138.083054799994,138.9986197000253,138.9986197000253,138.9986197000253,up,3.709873699990567,None,None,,,,,,,,,,,,,,,,,P119,001,2025-02-20_14h10.01.907,posner_endo_new1,2024.2.4,60.04264228072264,2025-02-20 14h10.10.330014 +0000,
cube_r.png,0.1,10,catch,17,17,0,up,1.0440923999994993,None,None,,,,,,,0,17,17,17,,,,,138.9986197000253,,,,,,,,,,,,,138.98311080003623,138.9986197000253,138.9986197000253,138.9986197000253,140.04891100001987,,,,140.06079870002577,140.07108240004163,140.07108240004163,140.11431390000507,140.11466710001696,140.13090039999224,140.13090039999224,140.13090039999224,140.2141144000343,143.12864400004037,,,,142.2287066000281,143.14445040002465,143.14445040002465,143.14445040002465,up,1.0440923999994993,None,None,,,,,,,,,,,,,,,,,P119,001,2025-02-20_14h10.01.907,posner_endo_new1,2024.2.4,60.04264228072264,2025-02-20 14h10.10.330014 +0000,
cube_l.png,0.1,0.31,invalid,18,18,0,up,1.211034899984952,None,space,0.41025239997543395,None,,,,,0,18,18,18,,,,,143.14445040002465,,,,,,,,,,,,,143.1289109000354,143.14445040002465,143.14445040002465,143.14445040002465,144.36101679998683,,,,144.37235110002803,144.38273529999424,144.38273529999424,144.42658209998626,144.42692709999392,144.44306329998653,144.44306329998653,144.44306329998653,144.5263924000319,144.86049160000402,,,,,,,,up,1.211034899984952,None,space,0.41025239997543395,None,,,,,,,,,,,,,,,P119,001,2025-02-20_14h10.01.907,posner_endo_new1,2024.2.4,60.04264228072264,2025-02-20 14h10.10.330014 +0000,
cube_l.png,0.1,10,catch,19,19,0,up,2.3592021000222303,None,None,,,,,,,0,19,19,19,,,,,144.87596860004123,,,,,,,,,,,,,144.86077930004103,144.87596860004123,144.87596860004123,144.87596860004123,147.2415447999956,,,,147.25291520002065,147.2633182000136,147.2633182000136,147.3069947999902,147.30734579998534,147.32352780003566,147.32352780003566,147.32352780003566,147.4067949000164,150.3211375999963,,,,149.4213728000177,150.3371971999877,150.3371971999877,150.3371971999877,up,2.3592021000222303,None,None,,,,,,,,,,,,,,,,,P119,001,2025-02-20_14h10.01.907,posner_endo_new1,2024.2.4,60.04264228072264,2025-02-20 14h10.10.330014 +0000,
cube_l.png,0.1,0.31,invalid,20,20,0,up,1.3861141000525095,None,space,0.6229623000253923,None,,,,,0,20,20,20,,,,,150.3371971999877,,,,,,,,,,,,,150.32140489999438,150.3371971999877,150.3371971999877,150.3371971999877,151.73680070001865,,,,151.74815569998464,151.7584345000214,151.7584345000214,151.80236590001732,151.80271260003792,151.81892620003782,151.81892620003782,151.81892620003782,151.90197290002834,152.45267400000012,,,,,,,,up,1.3861141000525095,None,space,0.6229623000253923,None,,,,,,,,,,,,,,,P119,001,2025-02-20_14h10.01.907,posner_endo_new1,2024.2.4,60.04264228072264,2025-02-20 14h10.10.330014 +0000,
cube_l.png,0.1,-0.31,valid,21,21,0,up,2.71052740002051,None,space,0.63859250000678,None,,,,,0,21,21,21,,,,,152.468262600014,,,,,,,,,,,,,152.4529787999927,152.468262600014,152.468262600014,152.468262600014,155.18338350002887,,,,155.1922978000366,155.20212420000462,155.20212420000462,155.24889230000554,155.2491200999939,155.26527249999344,155.26527249999344,155.26527249999344,155.34858570003416,155.91541860002326,,,,,,,,up,2.71052740002051,None,space,0.63859250000678,None,,,,,,,,,,,,,,,P119,001,2025-02-20_14h10.01.907,posner_endo_new1,2024.2.4,60.04264228072264,2025-02-20 14h10.10.330014 +0000,
cube_r.png,0.1,0.31,valid,22,22,0,up,2.257327399973292,None,space,0.45163299998966977,None,,,,,0,22,22,22,,,,,155.93134740000824,,,,,,,,,,,,,155.91559560003225,155.93134740000824,155.93134740000824,155.93134740000824,158.19642150000436,,,,158.20230760000413,158.21399960003328,158.21399960003328,158.26243370003067,158.26266280002892,158.27893989998847,158.27893989998847,158.27893989998847,158.3455510000349,158.74581940000644,,,,,,,,up,2.257327399973292,None,space,0.45163299998966977,None,,,,,,,,,,,,,,,P119,001,2025-02-20_14h10.01.907,posner_endo_new1,2024.2.4,60.04264228072264,2025-02-20 14h10.10.330014 +0000,
cube_r.png,0.1,-0.31,invalid,23,23,0,up,2.961420400009956,None,space,0.44044550001854077,None,,,,,0,23,23,23,,,,,158.76176439999836,,,,,,,,,,,,,158.74598980002338,158.76176439999836,158.76176439999836,158.76176439999836,161.72630209999625,,,,161.7328413000214,161.7444379000226,161.7444379000226,161.7918172000209,161.79204369999934,161.80839130003005,161.80839130003005,161.80839130003005,161.89147110003978,162.2592580000055,,,,,,,,up,2.961420400009956,None,space,0.44044550001854077,None,,,,,,,,,,,,,,,P119,001,2025-02-20_14h10.01.907,posner_endo_new1,2024.2.4,60.04264228072264,2025-02-20 14h10.10.330014 +0000,
cube_r.png,0.1,0.31,valid,24,24,0,up,3.1916390999685973,None,space,0.39635549997910857,None,,,,,0,24,24,24,,,,,162.27519429998938,,,,,,,,,,,,,162.2594248999958,162.27519429998938,162.27519429998938,162.27519429998938,165.4723643999896,,,,165.47831430000952,165.4899926999933,165.4899926999933,165.53815810004016,165.53838290000567,165.5548650000128,165.5548650000128,165.5548650000128,165.6214842000045,165.9552670000121,,,,,,,,up,3.1916390999685973,None,space,0.39635549997910857,None,,,,,,,,,,,,,,,P119,001,2025-02-20_14h10.01.907,posner_endo_new1,2024.2.4,60.04264228072264,2025-02-20 14h10.10.330014 +0000,
cube_r.png,0.1,-0.31,invalid,25,25,0,up,5.447873500001151,None,space,0.46906989999115467,None,,,,,0,25,25,25,,,,,165.97097289998783,,,,,,,,,,,,,165.955441099999,165.97097289998783,165.97097289998783,165.97097289998783,171.43284910003422,,,,171.43896200001473,171.45072700001765,171.45072700001765,171.49885209999047,171.4990800000378,171.51540090003982,171.51540090003982,171.51540090003982,171.5819948000135,171.9989563000272,,,,,,,,up,5.447873500001151,None,space,0.46906989999115467,None,,,,,,,,,,,,,,,P119,001,2025-02-20_14h10.01.907,posner_endo_new1,2024.2.4,60.04264228072264,2025-02-20 14h10.10.330014 +0000,
cube_l.png,0.1,-0.31,valid,26,26,0,up,2.9800791000016034,None,space,0.3984587999875657,None,,,,,0,26,26,26,,,,,172.01485510001658,,,,,,,,,,,,,171.99912839999888,172.01485510001658,172.01485510001658,172.01485510001658,174.99589820002439,,,,175.00206430000253,175.01390389999142,175.01390389999142,175.06188819999807,175.0621237999876,175.0784580000327,175.0784580000327,175.0784580000327,175.14505039999494,175.4788879000116,,,,,,,,up,2.9800791000016034,None,space,0.3984587999875657,None,,,,,,,,,,,,,,,P119,001,2025-02-20_14h10.01.907,posner_endo_new1,2024.2.4,60.04264228072264,2025-02-20 14h10.10.330014 +0000,
cube_r.png,0.1,0.31,valid,27,27,0,up,3.3482348000397906,None,space,0.46271480002906173,None,,,,,0,27,27,27,,,,,175.49468480003998,,,,,,,,,,,,,175.47906550002517,175.49468480003998,175.49468480003998,175.49468480003998,178.8591098000179,,,,178.87322130001849,178.88380539999343,178.88380539999343,178.92467320000287,178.92495320003945,178.94116089999443,178.94116089999443,178.94116089999443,179.02446779998718,179.40847389999544,,,,,,,,up,3.3482348000397906,None,space,0.46271480002906173,None,,,,,,,,,,,,,,,P119,001,2025-02-20_14h10.01.907,posner_endo_new1,2024.2.4,60.04264228072264,2025-02-20 14h10.10.330014 +0000,
cube_r.png,0.1,10,catch,28,28,0,up,3.3800760000012815,None,None,,,,,,,0,28,28,28,,,,,179.42364200000884,,,,,,,,,,,,,179.4088566999999,179.42364200000884,179.42364200000884,179.42364200000884,182.80491110001458,,,,182.81436760001816,182.82471800001804,182.82471800001804,182.87061600002926,182.87092910002684,182.88712329999544,182.88712329999544,182.88712329999544,182.97048469999572,185.88479879999068,,,,184.98507420002716,185.90070220001508,185.90070220001508,185.90070220001508,up,3.3800760000012815,None,None,,,,,,,,,,,,,,,,,P119,001,2025-02-20_14h10.01.907,posner_endo_new1,2024.2.4,60.04264228072264,2025-02-20 14h10.10.330014 +0000,
cube_r.png,0.1,0.31,valid,29,29,0,up,0.6144406999810599,None,space,0.4389719000319019,None,,,,,0,29,29,29,,,,,185.90070220001508,,,,,,,,,,,,,185.8850337000331,185.90070220001508,185.90070220001508,185.90070220001508,186.51793140004156,,,,186.52753710001707,186.53772560000652,186.53772560000652,186.58358820003923,186.5838936000364,186.60011759999907,186.60011759999907,186.60011759999907,186.68338150001364,187.05051030003233,,,,,,,,up,0.6144406999810599,None,space,0.4389719000319019,None,,,,,,,,,,,,,,,P119,001,2025-02-20_14h10.01.907,posner_endo_new1,2024.2.4,60.04264228072264,2025-02-20 14h10.10.330014 +0000,
cube_r.png,0.1,0.31,valid,30,30,0,up,3.513027700013481,None,space,0.48432749998755753,None,,,,,0,30,30,30,,,,,187.06626270001289,,,,,,,,,,,,,187.0507712000399,187.06626270001289,187.06626270001289,187.06626270001289,190.5805524000316,,,,190.58977299998514,190.59952690004138,190.59952690004138,190.64620479999576,190.64643100003013,190.66246309998678,190.66246309998678,190.66246309998678,190.7458050000132,191.16269259998808,,,,,,,,up,3.513027700013481,None,space,0.48432749998755753,None,,,,,,,,,,,,,,,P119,001,2025-02-20_14h10.01.907,posner_endo_new1,2024.2.4,60.04264228072264,2025-02-20 14h10.10.330014 +0000,
cube_l.png,0.1,-0.31,valid,31,31,0,up,3.5762203999911435,None,space,0.4639047000091523,None,,,,,0,31,31,31,,,,,191.17868419998558,,,,,,,,,,,,,191.16288469999563,191.17868419998558,191.17868419998558,191.17868419998558,194.7591941000428,,,,194.7654457000317,194.77720469998894,194.77720469998894,194.82508260000031,194.82531019998714,194.84152270003688,194.84152270003688,194.84152270003688,194.92493269999977,195.30855040001916,,,,,,,,up,3.5762203999911435,None,space,0.4639047000091523,None,,,,,,,,,,,,,,,P119,001,2025-02-20_14h10.01.907,posner_endo_new1,2024.2.4,60.04264228072264,2025-02-20 14h10.10.330014 +0000,
cube_r.png,0.1,0.31,valid,32,32,0,up,4.118636599974707,None,space,0.3822465999983251,None,,,,,0,32,32,32,,,,,195.32449730002554,,,,,,,,,,,,,195.3087213000399,195.32449730002554,195.32449730002554,195.32449730002554,199.45407390000764,,,,199.4599726999877,199.4716916999896,199.4716916999896,199.52019509999081,199.52042340004118,199.53687140002148,199.53687140002148,199.53687140002148,199.60339860001113,199.92078829999082,,,,,,,,up,4.118636599974707,None,space,0.3822465999983251,None,,,,,,,,,,,,,,,P119,001,2025-02-20_14h10.01.907,posner_endo_new1,2024.2.4,60.04264228072264,2025-02-20 14h10.10.330014 +0000,
cube_r.png,0.1,-0.31,invalid,33,33,0,up,3.6352718000416644,None,space,0.5469136000028811,None,,,,,0,33,33,33,,,,,199.93634320003912,,,,,,,,,,,,,199.92096489999676,199.93634320003912,199.93634320003912,199.93634320003912,203.5833950000233,,,,203.58922520000488,203.60099080001237,203.60099080001237,203.64932840003166,203.6495530999964,203.66600309999194,203.66600309999194,203.66600309999194,203.73247200000333,204.21589480002876,,,,,,,,up,3.6352718000416644,None,space,0.5469136000028811,None,,,,,,,,,,,,,,,P119,001,2025-02-20_14h10.01.907,posner_endo_new1,2024.2.4,60.04264228072264,2025-02-20 14h10.10.330014 +0000,
cube_r.png,0.1,10,catch,34,34,0,up,3.5469690999598242,None,None,,,,,,,0,34,34,34,,,,,204.2320082000224,,,,,,,,,,,,,204.21606509998674,204.2320082000224,204.2320082000224,204.2320082000224,207.79563330003293,,,,207.8015326000168,207.81304089998594,207.81304089998594,207.86178620002465,207.8620143000153,207.87819170003058,207.87819170003058,207.87819170003058,207.94482199999038,210.8756608000258,,,,209.95948080002563,210.89183600002434,210.89183600002434,210.89183600002434,up,3.5469690999598242,None,None,,,,,,,,,,,,,,,,,P119,001,2025-02-20_14h10.01.907,posner_endo_new1,2024.2.4,60.04264228072264,2025-02-20 14h10.10.330014 +0000,
cube_r.png,0.1,0.31,valid,35,35,0,up,0.2152380000334233,None,space,0.44593149999855086,None,,,,,0,35,35,35,,,,,210.89183600002434,,,,,,,,,,,,,210.87582000001566,210.89183600002434,210.89183600002434,210.89183600002434,211.10904529999243,,,,211.11482590000378,211.12643020000542,211.12643020000542,211.1750236999942,211.17525130003924,211.19157770002494,211.19157770002494,211.19157770002494,211.25831870001275,211.64176140003838,,,,,,,,up,0.2152380000334233,None,space,0.44593149999855086,None,,,,,,,,,,,,,,,P119,001,2025-02-20_14h10.01.907,posner_endo_new1,2024.2.4,60.04264228072264,2025-02-20 14h10.10.330014 +0000,
cube_r.png,0.1,-0.31,invalid,36,36,0,up,3.4492404999909922,None,space,0.6108479999820702,None,,,,,0,36,36,36,,,,,211.65770280000288,,,,,,,,,,,,,211.64193839998916,211.65770280000288,211.65770280000288,211.65770280000288,215.12205270002596,,,,215.13141920004273,215.14120630000252,215.14120630000252,215.187495900027,215.18774480000138,215.2040375000215,215.2040375000215,215.2040375000215,215.2872803999926,215.8208421000163,,,,,,,,up,3.4492404999909922,None,space,0.6108479999820702,None,,,,,,,,,,,,,,,P119,001,2025-02-20_14h10.01.907,posner_endo_new1,2024.2.4,60.04264228072264,2025-02-20 14h10.10.330014 +0000,
cube_l.png,0.1,0.31,invalid,37,37,0,up,2.998714499990456,None,space,0.3680717999814078,None,,,,,0,37,37,37,,,,,215.8371535000042,,,,,,,,,,,,,215.8210381999961,215.8371535000042,215.8371535000042,215.8371535000042,218.85116399999242,,,,218.8583057000069,218.8699396000011,218.8699396000011,218.91704339999706,218.91729200002737,218.9336967000272,218.9336967000272,218.9336967000272,219.00027240003692,219.3173095000093,,,,,,,,up,2.998714499990456,None,space,0.3680717999814078,None,,,,,,,,,,,,,,,P119,001,2025-02-20_14h10.01.907,posner_endo_new1,2024.2.4,60.04264228072264,2025-02-20 14h10.10.330014 +0000,
cube_l.png,0.1,0.31,invalid,38,38,0,up,3.526209400035441,None,space,0.4520536999916658,None,,,,,0,38,38,38,,,,,219.3332566000172,,,,,,,,,,,,,219.31751240004087,219.3332566000172,219.3332566000172,219.3332566000172,222.8637343000155,,,,222.87092419998953,222.88263120001648,222.88263120001648,222.92948039999465,222.92974240001058,222.9461094000144,222.9461094000144,222.9461094000144,223.02923859999282,223.4131016000174,,,,,,,,up,3.526209400035441,None,space,0.4520536999916658,None,,,,,,,,,,,,,,,P119,001,2025-02-20_14h10.01.907,posner_endo_new1,2024.2.4,60.04264228072264,2025-02-20 14h10.10.330014 +0000,
cube_r.png,0.1,0.31,valid,39,39,0,up,3.342037499998696,None,space,0.44902350002666935,None,,,,,0,39,39,39,,,,,223.42890960001387,,,,,,,,,,,,,223.41329890000634,223.42890960001387,223.42890960001387,223.42890960001387,226.77644530002726,,,,226.78368910000427,226.79532199999085,226.79532199999085,226.84221390000312,226.8427160999854,226.8586770000402,226.8586770000402,226.8586770000402,226.94187440001406,227.3102676999988,,,,,,,,up,3.342037499998696,None,space,0.44902350002666935,None,,,,,,,,,,,,,,,P119,001,2025-02-20_14h10.01.907,posner_endo_new1,2024.2.4,60.04264228072264,2025-02-20 14h10.10.330014 +0000,
cube_l.png,0.1,0.31,invalid,40,40,0,up,2.8699707000050694,None,space,0.40718929999275133,None,,,,,0,40,40,40,,,,,227.3248340000282,,,,,,,,,,,,,227.31070380000165,227.3248340000282,227.3248340000282,227.3248340000282,230.2059653000324,,,,230.21306490001734,230.22482470003888,230.22482470003888,230.2720815000357,230.27233469998464,230.28873400000157,230.28873400000157,230.28873400000157,230.35538760002237,230.70582700002706,,,,,,,,up,2.8699707000050694,None,space,0.40718929999275133,None,,,,,,,,,,,,,,,P119,001,2025-02-20_14h10.01.907,posner_endo_new1,2024.2.4,60.04264228072264,2025-02-20 14h10.10.330014 +0000,
cube_l.png,0.1,10,catch,41,41,0,up,4.1134772000368685,None,None,,,,,,,0,41,41,41,,,,,230.72136170003796,,,,,,,,,,,,,230.70602760004112,230.72136170003796,230.72136170003796,230.72136170003796,234.8514893000247,,,,234.85867270000745,234.87020720000146,234.87020720000146,234.9172084000311,234.91745870001614,234.93395320000127,234.93395320000127,234.93395320000127,235.01731020002626,237.9312567000161,,,,237.03198030003114,237.94764860003488,237.94764860003488,237.94764860003488,up,4.1134772000368685,None,None,,,,,,,,,,,,,,,,,P119,001,2025-02-20_14h10.01.907,posner_endo_new1,2024.2.4,60.04264228072264,2025-02-20 14h10.10.330014 +0000,
cube_l.png,0.1,-0.31,valid,42,42,0,up,0.8959891999838874,None,space,0.4414293000008911,None,,,,,0,42,42,42,,,,,237.94764860003488,,,,,,,,,,,,,237.9314321000129,237.94764860003488,237.94764860003488,237.94764860003488,238.84739380003884,,,,238.8532083000173,238.8649841999868,238.8649841999868,238.91342220001388,238.9136495999992,238.92987600003835,238.92987600003835,238.92987600003835,238.99640080000972,239.380055000016,,,,,,,,up,0.8959891999838874,None,space,0.4414293000008911,None,,,,,,,,,,,,,,,P119,001,2025-02-20_14h10.01.907,posner_endo_new1,2024.2.4,60.04264228072264,2025-02-20 14h10.10.330014 +0000,
cube_l.png,0.1,10,catch,43,43,0,up,2.880118799977936,None,None,,,,,,,0,43,43,43,,,,,239.39585600001737,,,,,,,,,,,,,239.3802232000162,239.39585600001737,239.39585600001737,239.39585600001737,242.27717000001576,,,,242.2830615999992,242.29481170000508,242.29481170000508,242.3428970000241,242.3431212999858,242.35972990002483,242.35972990002483,242.35972990002483,242.4262391999946,245.35712930001318,,,,244.4409222000395,245.37334640003974,245.37334640003974,245.37334640003974,up,2.880118799977936,None,None,,,,,,,,,,,,,,,,,P119,001,2025-02-20_14h10.01.907,posner_endo_new1,2024.2.4,60.04264228072264,2025-02-20 14h10.10.330014 +0000,
cube_l.png,0.1,0.31,invalid,44,44,0,up,0.9903835000004619,None,space,0.43978819996118546,None,,,,,0,44,44,44,,,,,245.37334640003974,,,,,,,,,,,,,245.35728880000534,245.37334640003974,245.37334640003974,245.37334640003974,246.3729240000248,,,,246.37867440003902,246.3902112999931,246.3902112999931,246.43888920004247,246.43911440001102,246.45542000001296,246.45542000001296,246.45542000001296,246.52213260001736,246.90579450002406,,,,,,,,up,0.9903835000004619,None,space,0.43978819996118546,None,,,,,,,,,,,,,,,P119,001,2025-02-20_14h10.01.907,posner_endo_new1,2024.2.4,60.04264228072264,2025-02-20 14h10.10.330014 +0000,
cube_l.png,0.1,0.31,invalid,45,45,0,up,3.3854899000143632,None,space,0.4403749000048265,None,,,,,0,45,45,45,,,,,246.92167250002967,,,,,,,,,,,,,246.90597250004066,246.92167250002967,246.92167250002967,246.92167250002967,250.31896720000077,,,,250.32484600000316,250.33682820003014,250.33682820003014,250.3848455999978,250.38506920001237,250.4015039000078,250.4015039000078,250.4015039000078,250.46815949998563,250.85181650001323,,,,,,,,up,3.3854899000143632,None,space,0.4403749000048265,None,,,,,,,,,,,,,,,P119,001,2025-02-20_14h10.01.907,posner_endo_new1,2024.2.4,60.04264228072264,2025-02-20 14h10.10.330014 +0000,
cube_r.png,0.1,0.31,valid,46,46,0,up,3.751495300035458,None,space,0.45845070003997535,None,,,,,0,46,46,46,,,,,250.86771230003797,,,,,,,,,,,,,250.85198360000504,250.86771230003797,250.86771230003797,250.86771230003797,254.631182000041,,,,254.63705170003232,254.64874440000858,254.64874440000858,254.6971990999882,254.69743350002682,254.71365580003476,254.71365580003476,254.71365580003476,254.78040300001157,255.18061869998928,,,,,,,,up,3.751495300035458,None,space,0.45845070003997535,None,,,,,,,,,,,,,,,P119,001,2025-02-20_14h10.01.907,posner_endo_new1,2024.2.4,60.04264228072264,2025-02-20 14h10.10.330014 +0000,
cube_l.png,0.1,-0.31,valid,47,47,0,up,3.1346969000296667,None,space,0.46859619999304414,None,,,,,0,47,47,47,,,,,255.19652370002586,,,,,,,,,,,,,255.18078789999709,255.19652370002586,255.19652370002586,255.19652370002586,258.3438395000412,,,,258.3499219000223,258.36166560003767,258.36166560003767,258.41011550003896,258.41034450003644,258.4265414000256,258.4265414000256,258.4265414000256,258.49326600000495,258.910184700042,,,,,,,,up,3.1346969000296667,None,space,0.46859619999304414,None,,,,,,,,,,,,,,,P119,001,2025-02-20_14h10.01.907,posner_endo_new1,2024.2.4,60.04264228072264,2025-02-20 14h10.10.330014 +0000,
cube_r.png,0.1,-0.31,invalid,48,48,0,up,3.021811600017827,None,space,0.3991045000148006,None,,,,,0,48,48,48,,,,,258.9259210000164,,,,,,,,,,,,,258.91036720003467,258.9259210000164,258.9259210000164,258.9259210000164,261.95692299999064,,,,261.96275110001443,261.97443719999865,261.97443719999865,262.02320580004016,262.02343430003384,262.0396737999981,262.0396737999981,262.0396737999981,262.1062607000349,262.43996089999564,,,,,,,,up,3.021811600017827,None,space,0.3991045000148006,None,,,,,,,,,,,,,,,P119,001,2025-02-20_14h10.01.907,posner_endo_new1,2024.2.4,60.04264228072264,2025-02-20 14h10.10.330014 +0000,
cube_r.png,0.1,10,catch,49,49,0,up,2.9954861999722198,None,None,,,,,,,0,49,49,49,,,,,262.45595430000685,,,,,,,,,,,,,262.4401302000042,262.45595430000685,262.45595430000685,262.45595430000685,265.453600000008,,,,265.4593988000415,265.4712845000322,265.4712845000322,265.5194508000277,265.5196835999959,265.5359391000238,265.5359391000238,265.5359391000238,265.6025050000171,268.53350550000323,,,,267.61718400003156,268.54963700001827,268.54963700001827,268.54963700001827,up,2.9954861999722198,None,None,,,,,,,,,,,,,,,,,P119,001,2025-02-20_14h10.01.907,posner_endo_new1,2024.2.4,60.04264228072264,2025-02-20 14h10.10.330014 +0000,
cube_l.png,0.1,-0.31,valid,50,50,0,up,0.6856831000186503,None,space,0.4342845000210218,None,,,,,0,50,50,50,,,,,268.54963700001827,,,,,,,,,,,,,268.53371660003904,268.54963700001827,268.54963700001827,268.54963700001827,269.2502041000407,,,,269.26224180002464,269.2722812999855,269.2722812999855,269.3154531000182,269.3157162000425,269.3320601999876,269.3320601999876,269.3320601999876,269.4153371999855,269.7824629000388,,,,,,,,up,0.6856831000186503,None,space,0.4342845000210218,None,,,,,,,,,,,,,,,P119,001,2025-02-20_14h10.01.907,posner_endo_new1,2024.2.4,60.04264228072264,2025-02-20 14h10.10.330014 +0000,
cube_l.png,0.1,-0.31,valid,51,51,0,up,3.58084070001496,None,space,0.46445530001074076,None,,,,,0,51,51,51,,,,,269.79825880000135,,,,,,,,,,,,,269.78267390001565,269.79825880000135,269.79825880000135,269.79825880000135,273.3955203000223,,,,273.40781850001076,273.41746820003027,273.41746820003027,273.46095060004154,273.46134440001333,273.4774311000365,273.4774311000365,273.4774311000365,273.56067770003574,273.94509890000336,,,,,,,,up,3.58084070001496,None,space,0.46445530001074076,None,,,,,,,,,,,,,,,P119,001,2025-02-20_14h10.01.907,posner_endo_new1,2024.2.4,60.04264228072264,2025-02-20 14h10.10.330014 +0000,
cube_r.png,0.1,-0.31,invalid,52,52,0,up,2.8431578999734484,None,space,0.533949600008782,None,,,,,0,52,52,52,,,,,273.96030840004096,,,,,,,,,,,,,273.94541530002607,273.96030840004096,273.96030840004096,273.96030840004096,276.80897060001735,,,,276.8211725000292,276.83132639998803,276.83132639998803,276.8744140000199,276.87468499998795,276.8912010000204,276.8912010000204,276.8912010000204,276.97385820001364,277.44140970002627,,,,,,,,up,2.8431578999734484,None,space,0.533949600008782,None,,,,,,,,,,,,,,,P119,001,2025-02-20_14h10.01.907,posner_endo_new1,2024.2.4,60.04264228072264,2025-02-20 14h10.10.330014 +0000,
cube_l.png,0.1,-0.31,valid,53,53,0,up,2.93897040002048,None,space,0.5595670000184327,None,,,,,0,53,53,53,,,,,277.45670280000195,,,,,,,,,,,,,277.4417286000098,277.45670280000195,277.45670280000195,277.45670280000195,280.405098200019,,,,280.4141129000345,280.42403990001185,280.42403990001185,280.47085149999475,280.4711293000146,280.48732590000145,280.48732590000145,280.48732590000145,280.570574900019,281.05432280001696,,,,,,,,up,2.93897040002048,None,space,0.5595670000184327,None,,,,,,,,,,,,,,,P119,001,2025-02-20_14h10.01.907,posner_endo_new1,2024.2.4,60.04264228072264,2025-02-20 14h10.10.330014 +0000,
cube_r.png,0.1,10,catch,54,54,0,up,2.733186100027524,None,None,,,,,,,0,54,54,54,,,,,281.0698589000385,,,,,,,,,,,,,281.0545475000399,281.0698589000385,281.0698589000385,281.0698589000385,283.81830179999815,,,,283.82635700004175,283.83719450002536,283.83719450002536,283.8840882999939,283.88437819998944,283.9005717000109,283.9005717000109,283.9005717000109,283.98388020001585,286.89807360002305,,,,285.99848579999525,286.91422100004274,286.91422100004274,286.91422100004274,up,2.733186100027524,None,None,,,,,,,,,,,,,,,,,P119,001,2025-02-20_14h10.01.907,posner_endo_new1,2024.2.4,60.04264228072264,2025-02-20 14h10.10.330014 +0000,
cube_l.png,0.1,0.31,invalid,55,55,0,up,1.049600799975451,None,space,0.6481027000118047,None,,,,,0,55,55,55,,,,,286.91422100004274,,,,,,,,,,,,,286.8982827999862,286.91422100004274,286.91422100004274,286.91422100004274,287.980815500021,,,,287.9888735000277,287.999364599993,287.999364599993,288.0464931000024,288.04677499999525,288.06279639998684,288.06279639998684,288.06279639998684,288.1462210000027,288.71329019998666,,,,,,,,up,1.049600799975451,None,space,0.6481027000118047,None,,,,,,,,,,,,,,,P119,001,2025-02-20_14h10.01.907,posner_endo_new1,2024.2.4,60.04264228072264,2025-02-20 14h10.10.330014 +0000,
cube_l.png,0.1,-0.31,valid,56,56,0,up,8.242865399981383,None,space,0.552223100035917,None,,,,,0,56,56,56,,,,,288.72894210001687,,,,,,,,,,,,,288.713507700013,288.72894210001687,288.72894210001687,288.72894210001687,296.98816519998945,,,,296.99627830000827,297.0068201000104,297.0068201000104,297.05400589999044,297.0542844000156,297.07044949999545,297.07044949999545,297.07044949999545,297.1536597000086,297.63749689998804,,,,,,,,up,8.242865399981383,None,space,0.552223100035917,None,,,,,,,,,,,,,,,P119,001,2025-02-20_14h10.01.907,posner_endo_new1,2024.2.4,60.04264228072264,2025-02-20 14h10.10.330014 +0000,
cube_r.png,0.1,0.31,valid,57,57,0,up,2.301917099975981,None,space,0.4813130000256933,None,,,,,0,57,57,57,,,,,297.6532268000301,,,,,,,,,,,,,297.6377184999874,297.6532268000301,297.6532268000301,297.6532268000301,299.96854110003915,,,,299.97662600001786,299.987067900016,299.987067900016,300.0341677000397,300.0346714000334,300.05056870001135,300.05056870001135,300.05056870001135,300.1338029000326,300.5354171000072,,,,,,,,up,2.301917099975981,None,space,0.4813130000256933,None,,,,,,,,,,,,,,,P119,001,2025-02-20_14h10.01.907,posner_endo_new1,2024.2.4,60.04264228072264,2025-02-20 14h10.10.330014 +0000,
cube_r.png,0.1,-0.31,invalid,58,58,0,up,3.0852686000289395,None,space,0.48543420003261417,None,,,,,0,58,58,58,,,,,300.55004500004,,,,,,,,,,,,,300.53584480000427,300.55004500004,300.55004500004,300.55004500004,303.64819989999523,,,,303.65867340000113,303.66889460000675,303.66889460000675,303.713894799992,303.71423039998626,303.73046859999886,303.73046859999886,303.73046859999886,303.8136355000315,304.2310291000176,,,,,,,,up,3.0852686000289395,None,space,0.48543420003261417,None,,,,,,,,,,,,,,,P119,001,2025-02-20_14h10.01.907,posner_endo_new1,2024.2.4,60.04264228072264,2025-02-20 14h10.10.330014 +0000,
cube_l.png,0.1,0.31,invalid,59,59,0,up,3.365637800015975,None,space,0.42807860003085807,None,,,,,0,59,59,59,,,,,304.246423900011,,,,,,,,,,,,,304.2312982000294,304.246423900011,304.246423900011,304.246423900011,307.62740009999834,,,,307.6378825000138,307.64816680003423,307.64816680003423,307.6930799999973,307.6934101000079,307.709738000005,307.709738000005,307.709738000005,307.7929524999927,308.14363700000104,,,,,,,,up,3.365637800015975,None,space,0.42807860003085807,None,,,,,,,,,,,,,,,P119,001,2025-02-20_14h10.01.907,posner_endo_new1,2024.2.4,60.04264228072264,2025-02-20 14h10.10.330014 +0000,
,,,,,,,,,,,,,,,,,,,,,,,,,,,,,,,,,,,,,,,,,,,,,,,,,,,,,,,,,,,,,,,,,,,,,308.1438111999887,308.1591924999957,308.1591924999957,368.1644587999908,369.61415510001825,space,61.44449069997063,None,,,,,,,P119,001,2025-02-20_14h10.01.907,posner_endo_new1,2024.2.4,60.04264228072264,2025-02-20 14h10.10.330014 +0000,
,,,,,,,,,,,,,,,,,,,,,,,,,,,,,,,,,,369.6142403000267,369.6296750000329,372.642376600008,372.6104625000153,,,,,,,,,,,,,,,,,,,,,,,,,,,,,,,,,,,,,,,,,,,,,,P119,001,2025-02-20_14h10.01.907,posner_endo_new1,2024.2.4,60.04264228072264,2025-02-20 14h10.10.330014 +0000,
cube_l.png,0.1,10,catch,0,0,0,down,9.82524569996167,None,None,,,,,,,,,,,0,0,0,0,372.642376600008,,,,,,,,,,,,,372.6334552000044,372.642376600008,372.642376600008,372.642376600008,382.4844196999911,,,,382.4953649000381,382.50535009999294,382.50535009999294,382.5500405000057,382.5503792000236,382.56648239999777,382.56648239999777,382.56648239999777,382.64981020003324,385.5641677000094,,,,384.6644464000128,385.5800918000168,385.5800918000168,385.5800918000168,,,,,,,,,,,,,,,down,9.82524569996167,None,None,,,P119,001,2025-02-20_14h10.01.907,posner_endo_new1,2024.2.4,60.04264228072264,2025-02-20 14h10.10.330014 +0000,
cube_l.png,0.1,10,catch,1,1,0,down,2.0159385000006296,None,None,,,,,,,,,,,0,1,1,1,385.5800918000168,,,,,,,,,,,,,385.5644258999964,385.5800918000168,385.5800918000168,385.5800918000168,387.61257350002415,,,,387.62315470003523,387.63312600000063,387.63312600000063,387.6781270999927,387.6784588000155,387.69458390004,387.69458390004,387.69458390004,387.77786630002083,390.6922149999882,,,,389.79239940003026,390.7082776000025,390.7082776000025,390.7082776000025,,,,,,,,,,,,,,,down,2.0159385000006296,None,None,,,P119,001,2025-02-20_14h10.01.907,posner_endo_new1,2024.2.4,60.04264228072264,2025-02-20 14h10.10.330014 +0000,
cube_l.png,0.1,0.31,invalid,2,2,0,down,3.1675181000027806,None,space,0.6052881000214256,None,,,,,,,,,0,2,2,2,390.7082776000025,,,,,,,,,,,,,390.69246709998697,390.7082776000025,390.7082776000025,390.7082776000025,393.8893614000408,,,,393.8994776000036,393.90911710000364,393.90911710000364,393.9548533000052,393.95507930003805,393.97151569998823,393.97151569998823,393.97151569998823,394.05442970001604,394.58819239999866,,,,,,,,,,,,,,,,,,,,,,down,3.1675181000027806,None,space,0.6052881000214256,None,P119,001,2025-02-20_14h10.01.907,posner_endo_new1,2024.2.4,60.04264228072264,2025-02-20 14h10.10.330014 +0000,
cube_l.png,0.1,0.31,invalid,3,3,0,down,3.887386299960781,None,space,0.4246201000059955,None,,,,,,,,,0,3,3,3,394.6041875000228,,,,,,,,,,,,,394.5883662000415,394.6041875000228,394.6041875000228,394.6041875000228,398.50086319999536,,,,398.5070128000225,398.5187653999892,398.5187653999892,398.566734299995,398.56696010002634,398.5832807000261,398.5832807000261,398.5832807000261,398.65005360002397,399.01683750003576,,,,,,,,,,,,,,,,,,,,,,down,3.887386299960781,None,space,0.4246201000059955,None,P119,001,2025-02-20_14h10.01.907,posner_endo_new1,2024.2.4,60.04264228072264,2025-02-20 14h10.10.330014 +0000,
cube_l.png,0.1,-0.31,valid,4,4,0,down,3.035075100022368,None,space,0.3963733999989927,None,,,,,,,,,0,4,4,4,399.0329750000383,,,,,,,,,,,,,399.01701680000406,399.0329750000383,399.0329750000383,399.0329750000383,402.08064609998837,,,,402.08638890000293,402.09745300002396,402.09745300002396,402.1465005000355,402.1469996999949,402.16291930002626,402.16291930002626,402.16291930002626,402.24617609998677,402.5642329000402,,,,,,,,,,,,,,,,,,,,,,down,3.035075100022368,None,space,0.3963733999989927,None,P119,001,2025-02-20_14h10.01.907,posner_endo_new1,2024.2.4,60.04264228072264,2025-02-20 14h10.10.330014 +0000,
cube_r.png,0.1,-0.31,invalid,5,5,0,down,3.560453400015831,None,space,0.43254810001235455,None,,,,,,,,,0,5,5,5,402.5791535000317,,,,,,,,,,,,,402.56466750003165,402.5791535000317,402.5791535000317,402.5791535000317,406.14365089999046,,,,406.15468850004254,406.1650246999925,406.1650246999925,406.2092123000184,406.2095637000166,406.22577590000583,406.22577590000583,406.22577590000583,406.30890900001395,406.6598176000407,,,,,,,,,,,,,,,,,,,,,,down,3.560453400015831,None,space,0.43254810001235455,None,P119,001,2025-02-20_14h10.01.907,posner_endo_new1,2024.2.4,60.04264228072264,2025-02-20 14h10.10.330014 +0000,
cube_r.png,0.1,0.31,valid,6,6,0,down,4.1361287999898195,None,space,0.35170180001296103,None,,,,,,,,,0,6,6,6,406.67526390001876,,,,,,,,,,,,,406.66010800004005,406.67526390001876,406.67526390001876,406.67526390001876,410.8215526000131,,,,410.8281614999869,410.84028910001507,410.84028910001507,410.88757040002383,410.88808860001154,410.90393690002384,410.90393690002384,410.90393690002384,410.9706035000272,411.2720830999897,,,,,,,,,,,,,,,,,,,,,,down,4.1361287999898195,None,space,0.35170180001296103,None,P119,001,2025-02-20_14h10.01.907,posner_endo_new1,2024.2.4,60.04264228072264,2025-02-20 14h10.10.330014 +0000,
cube_r.png,0.1,-0.31,invalid,7,7,0,down,3.756976399978157,None,space,0.4075400000438094,None,,,,,,,,,0,7,7,7,411.2869148000027,,,,,,,,,,,,,411.27251350000734,411.2869148000027,411.2869148000027,411.2869148000027,415.05143130000215,,,,415.0624828999862,415.07289449998643,415.07289449998643,415.11674880003557,415.11709890002385,415.1331678000279,415.1331678000279,415.1331678000279,415.216531699989,415.5506627000286,,,,,,,,,,,,,,,,,,,,,,down,3.756976399978157,None,space,0.4075400000438094,None,P119,001,2025-02-20_14h10.01.907,posner_endo_new1,2024.2.4,60.04264228072264,2025-02-20 14h10.10.330014 +0000,
cube_l.png,0.1,-0.31,valid,8,8,0,down,3.501952600025106,None,space,0.5203206999576651,None,,,,,,,,,0,8,8,8,415.5661240000045,,,,,,,,,,,,,415.5509638999938,415.5661240000045,415.5661240000045,415.5661240000045,419.08044849999715,,,,419.09148270002333,419.10182159999385,419.10182159999385,419.14593960001366,419.14628759998595,419.1625055000186,419.1625055000186,419.1625055000186,419.2456449000165,419.6964366000029,,,,,,,,,,,,,,,,,,,,,,down,3.501952600025106,None,space,0.5203206999576651,None,P119,001,2025-02-20_14h10.01.907,posner_endo_new1,2024.2.4,60.04264228072264,2025-02-20 14h10.10.330014 +0000,
cube_r.png,0.1,-0.31,invalid,9,9,0,down,3.8352137999609113,None,space,0.42150160000892356,None,,,,,,,,,0,9,9,9,419.71195860003354,,,,,,,,,,,,,419.6967311000335,419.71195860003354,419.71195860003354,419.71195860003354,423.55906450003386,,,,423.5701119999867,423.5804341000039,423.5804341000039,423.62464749999344,423.6249928000034,423.64131310000084,423.64131310000084,423.64131310000084,423.72454230004223,424.0753790999879,,,,,,,,,,,,,,,,,,,,,,down,3.8352137999609113,None,space,0.42150160000892356,None,P119,001,2025-02-20_14h10.01.907,posner_endo_new1,2024.2.4,60.04264228072264,2025-02-20 14h10.10.330014 +0000,
cube_l.png,0.1,0.31,invalid,10,10,0,down,2.9127336000092328,None,space,0.4684943000320345,None,,,,,,,,,0,10,10,10,424.0907301999978,,,,,,,,,,,,,424.0756684000371,424.0907301999978,424.0907301999978,424.0907301999978,427.00585310003953,,,,427.0168479999993,427.02714960003505,427.02714960003505,427.071235200041,427.07158350001555,427.0877399999881,427.0877399999881,427.0877399999881,427.17094470001757,427.5716969000059,,,,,,,,,,,,,,,,,,,,,,down,2.9127336000092328,None,space,0.4684943000320345,None,P119,001,2025-02-20_14h10.01.907,posner_endo_new1,2024.2.4,60.04264228072264,2025-02-20 14h10.10.330014 +0000,
cube_r.png,0.1,-0.31,invalid,11,11,0,down,3.8244032000075094,None,space,0.6134554999880493,None,,,,,,,,,0,11,11,11,427.5871969999862,,,,,,,,,,,,,427.5719861999969,427.5871969999862,427.5871969999862,427.5871969999862,431.41796370001975,,,,431.4290259000263,431.43926590000046,431.43926590000046,431.4834395000362,431.48378710000543,431.49986919999355,431.49986919999355,431.49986919999355,431.58304530003807,432.1170850000344,,,,,,,,,,,,,,,,,,,,,,down,3.8244032000075094,None,space,0.6134554999880493,None,P119,001,2025-02-20_14h10.01.907,posner_endo_new1,2024.2.4,60.04264228072264,2025-02-20 14h10.10.330014 +0000,
cube_r.png,0.1,0.31,valid,12,12,0,down,3.3586435000179335,None,space,0.46088440000312403,None,,,,,,,,,0,12,12,12,432.13264630001504,,,,,,,,,,,,,432.1173850999912,432.13264630001504,432.13264630001504,432.13264630001504,435.4968944999855,,,,435.5079345999984,435.5183212000411,435.5183212000411,435.56266830000095,435.5630245000357,435.57902910001576,435.57902910001576,435.57902910001576,435.6623075000243,436.04630520002684,,,,,,,,,,,,,,,,,,,,,,down,3.3586435000179335,None,space,0.46088440000312403,None,P119,001,2025-02-20_14h10.01.907,posner_endo_new1,2024.2.4,60.04264228072264,2025-02-20 14h10.10.330014 +0000,
cube_l.png,0.1,10,catch,13,13,0,down,3.421673999982886,None,None,,,,,,,,,,,0,13,13,13,436.0619138000184,,,,,,,,,,,,,436.04659620003076,436.0619138000184,436.0619138000184,436.0619138000184,439.49307269998826,,,,439.5018557999865,439.5116735000047,439.5116735000047,439.55826090002665,439.5585112000117,439.5748539000051,439.5748539000051,439.5748539000051,439.65807210002095,442.5723102000193,,,,441.67268600000534,442.5884296000004,442.5884296000004,442.5884296000004,,,,,,,,,,,,,,,down,3.421673999982886,None,None,,,P119,001,2025-02-20_14h10.01.907,posner_endo_new1,2024.2.4,60.04264228072264,2025-02-20 14h10.10.330014 +0000,
cube_r.png,0.1,-0.31,invalid,14,14,0,down,1.6628722000168636,None,space,0.42450570000801235,None,,,,,,,,,0,14,14,14,442.5884296000004,,,,,,,,,,,,,442.5725000000093,442.5884296000004,442.5884296000004,442.5884296000004,444.25397800002247,,,,444.2610086000059,444.27287310000975,444.27287310000975,444.31989220000105,444.3201454000082,444.33683490002295,444.33683490002295,444.33683490002295,444.40325750003103,444.77022940001916,,,,,,,,,,,,,,,,,,,,,,down,1.6628722000168636,None,space,0.42450570000801235,None,P119,001,2025-02-20_14h10.01.907,posner_endo_new1,2024.2.4,60.04264228072264,2025-02-20 14h10.10.330014 +0000,
cube_l.png,0.1,-0.31,valid,15,15,0,down,3.418149999983143,None,space,0.3735774999950081,None,,,,,,,,,0,15,15,15,444.7861933000386,,,,,,,,,,,,,444.7704298000317,444.7861933000386,444.7861933000386,444.7861933000386,448.21687800000655,,,,448.2239193000132,448.23564160004025,448.23564160004025,448.2825902000186,448.2828401000006,448.29926579998573,448.29926579998573,448.29926579998573,448.3827008000226,448.68298430001596,,,,,,,,,,,,,,,,,,,,,,down,3.418149999983143,None,space,0.3735774999950081,None,P119,001,2025-02-20_14h10.01.907,posner_endo_new1,2024.2.4,60.04264228072264,2025-02-20 14h10.10.330014 +0000,
cube_r.png,0.1,10,catch,16,16,0,down,6.553996000031475,None,None,,,,,,,,,,,0,16,16,16,448.69889260001946,,,,,,,,,,,,,448.6831788000418,448.69889260001946,448.69889260001946,448.69889260001946,455.25968320004176,,,,455.26678140001604,455.2785328000318,455.2785328000318,455.3253618000308,455.3256115000113,455.3419850000064,455.3419850000064,455.3419850000064,455.40868190000765,458.3397829000023,,,,457.42315889999736,458.355538600008,458.355538600008,458.355538600008,,,,,,,,,,,,,,,down,6.553996000031475,None,None,,,P119,001,2025-02-20_14h10.01.907,posner_endo_new1,2024.2.4,60.04264228072264,2025-02-20 14h10.10.330014 +0000,
cube_r.png,0.1,10,catch,17,17,0,down,1.1043158000102267,None,None,,,,,,,,,,,0,17,17,17,458.355538600008,,,,,,,,,,,,,458.33996760001173,458.355538600008,458.355538600008,458.355538600008,459.4720675999997,,,,459.4791295999894,459.49088310002116,459.49088310002116,459.53803500003414,459.5383040999877,459.55435280001257,459.55435280001257,459.55435280001257,459.6376618000213,462.5520288000116,,,,461.6521466000122,462.5678676000098,462.5678676000098,462.5678676000098,,,,,,,,,,,,,,,down,1.1043158000102267,None,None,,,P119,001,2025-02-20_14h10.01.907,posner_endo_new1,2024.2.4,60.04264228072264,2025-02-20 14h10.10.330014 +0000,
cube_l.png,0.1,0.31,invalid,18,18,0,down,0.8442110000178218,None,space,0.48276340001029894,None,,,,,,,,,0,18,18,18,462.5678676000098,,,,,,,,,,,,,462.552213500021,462.5678676000098,462.5678676000098,462.5678676000098,463.4180575000355,,,,463.42509500001324,463.4369119000039,463.4369119000039,463.48371870000847,463.48396809998667,463.5003870000364,463.5003870000364,463.5003870000364,463.58359799999744,463.9840637000161,,,,,,,,,,,,,,,,,,,,,,down,0.8442110000178218,None,space,0.48276340001029894,None,P119,001,2025-02-20_14h10.01.907,posner_endo_new1,2024.2.4,60.04264228072264,2025-02-20 14h10.10.330014 +0000,
cube_l.png,0.1,10,catch,19,19,0,down,2.5410676000174135,None,None,,,,,,,,,,,0,19,19,19,464.0000207000412,,,,,,,,,,,,,463.984264800034,464.0000207000412,464.0000207000412,464.0000207000412,466.5479180000257,,,,466.5549129000283,466.56662270001834,466.56662270001834,466.6139303999953,466.614182099991,466.6305606000242,466.6305606000242,466.6305606000242,466.6971762999892,469.62794730003225,,,,468.7117237999919,469.6441025999957,469.6441025999957,469.6441025999957,,,,,,,,,,,,,,,down,2.5410676000174135,None,None,,,P119,001,2025-02-20_14h10.01.907,posner_endo_new1,2024.2.4,60.04264228072264,2025-02-20 14h10.10.330014 +0000,
cube_l.png,0.1,0.31,invalid,20,20,0,down,1.3202015000279061,None,space,0.43669870001031086,None,,,,,,,,,0,20,20,20,469.6441025999957,,,,,,,,,,,,,469.6281323999865,469.6441025999957,469.6441025999957,469.6441025999957,470.9769427999854,,,,470.98395439999877,470.99574560002657,470.99574560002657,471.04267009999603,471.0429186000256,471.0594737000065,471.0594737000065,471.0594737000065,471.14256790000945,471.50978670001496,,,,,,,,,,,,,,,,,,,,,,down,1.3202015000279061,None,space,0.43669870001031086,None,P119,001,2025-02-20_14h10.01.907,posner_endo_new1,2024.2.4,60.04264228072264,2025-02-20 14h10.10.330014 +0000,
cube_l.png,0.1,-0.31,valid,21,21,0,down,3.6942172999843024,None,space,0.5250405999831855,None,,,,,,,,,0,21,21,21,471.5254855999956,,,,,,,,,,,,,471.5099845000077,471.5254855999956,471.5254855999956,471.5254855999956,475.2224506000057,,,,475.2295029000379,475.24131190002663,475.24131190002663,475.28833640000084,475.28858759999275,475.3048230999848,475.3048230999848,475.3048230999848,475.37142059998587,475.83870449999813,,,,,,,,,,,,,,,,,,,,,,down,3.6942172999843024,None,space,0.5250405999831855,None,P119,001,2025-02-20_14h10.01.907,posner_endo_new1,2024.2.4,60.04264228072264,2025-02-20 14h10.10.330014 +0000,
cube_r.png,0.1,0.31,valid,22,22,0,down,2.1494115999666974,None,space,0.45263419998809695,None,,,,,,,,,0,22,22,22,475.8542698000092,,,,,,,,,,,,,475.8389064000221,475.8542698000092,475.8542698000092,475.8542698000092,478.0197160000098,,,,478.02683680003975,478.0385621000314,478.0385621000314,478.0856252000085,478.0861295000068,478.10200040001655,478.10200040001655,478.10200040001655,478.1852649000357,478.57017449999694,,,,,,,,,,,,,,,,,,,,,,down,2.1494115999666974,None,space,0.45263419998809695,None,P119,001,2025-02-20_14h10.01.907,posner_endo_new1,2024.2.4,60.04264228072264,2025-02-20 14h10.10.330014 +0000,
cube_r.png,0.1,-0.31,invalid,23,23,0,down,2.435686400043778,None,space,0.4973263999563642,None,,,,,,,,,0,23,23,23,478.5848113000393,,,,,,,,,,,,,478.5706144000287,478.5848113000393,478.5848113000393,478.5848113000393,481.03366509999614,,,,481.0447001000284,481.055139700009,481.055139700009,481.0992549000075,481.0996146000107,481.115873200004,481.115873200004,481.115873200004,481.19905300001847,481.61653460003436,,,,,,,,,,,,,,,,,,,,,,down,2.435686400043778,None,space,0.4973263999563642,None,P119,001,2025-02-20_14h10.01.907,posner_endo_new1,2024.2.4,60.04264228072264,2025-02-20 14h10.10.330014 +0000,
cube_r.png,0.1,0.31,valid,24,24,0,down,3.227655599999707,None,space,0.41527410002890974,None,,,,,,,,,0,24,24,24,481.6321033000131,,,,,,,,,,,,,481.6168245000299,481.6321033000131,481.6321033000131,481.6321033000131,484.8632981000119,,,,484.8743434000062,484.8846422000206,484.8846422000206,484.9288120000274,484.92915700003505,484.9452178000356,484.9452178000356,484.9452178000356,485.02844530000584,485.36284389998764,,,,,,,,,,,,,,,,,,,,,,down,3.227655599999707,None,space,0.41527410002890974,None,P119,001,2025-02-20_14h10.01.907,posner_endo_new1,2024.2.4,60.04264228072264,2025-02-20 14h10.10.330014 +0000,
cube_r.png,0.1,-0.31,invalid,25,25,0,down,3.4258296999614686,None,space,0.41856650001136586,None,,,,,,,,,0,25,25,25,485.3781228000298,,,,,,,,,,,,,485.3631371000083,485.3781228000298,485.3781228000298,485.3781228000298,488.8091472000233,,,,488.8202228000155,488.8304959000088,488.8304959000088,488.87470230000326,488.87505319999764,488.891179200029,488.891179200029,488.891179200029,488.97450910002226,489.3253307000268,,,,,,,,,,,,,,,,,,,,,,down,3.4258296999614686,None,space,0.41856650001136586,None,P119,001,2025-02-20_14h10.01.907,posner_endo_new1,2024.2.4,60.04264228072264,2025-02-20 14h10.10.330014 +0000,
cube_l.png,0.1,-0.31,valid,26,26,0,down,3.2877072999835946,None,space,0.3746079999837093,None,,,,,,,,,0,26,26,26,489.3406181000173,,,,,,,,,,,,,489.3256226000376,489.3406181000173,489.3406181000173,489.3406181000173,492.63841300003696,,,,492.64942289999453,492.65981169999577,492.65981169999577,492.70418540004175,492.7045364000369,492.72055969998473,492.72055969998473,492.72055969998473,492.8038594000391,493.10481709998567,,,,,,,,,,,,,,,,,,,,,,down,3.2877072999835946,None,space,0.3746079999837093,None,P119,001,2025-02-20_14h10.01.907,posner_endo_new1,2024.2.4,60.04264228072264,2025-02-20 14h10.10.330014 +0000,
cube_r.png,0.1,0.31,valid,27,27,0,down,3.5642133000073954,None,space,0.42918810003902763,None,,,,,,,,,0,27,27,27,493.1202193000354,,,,,,,,,,,,,493.10511210002005,493.1202193000354,493.1202193000354,493.1202193000354,496.7010994000011,,,,496.7104348000139,496.71990740002366,496.71990740002366,496.7664192999946,496.7666573000024,496.783059999987,496.783059999987,496.783059999987,496.86635950003983,497.2165040000109,,,,,,,,,,,,,,,,,,,,,,down,3.5642133000073954,None,space,0.42918810003902763,None,P119,001,2025-02-20_14h10.01.907,posner_endo_new1,2024.2.4,60.04264228072264,2025-02-20 14h10.10.330014 +0000,
cube_r.png,0.1,10,catch,28,28,0,down,3.2115655999514274,None,None,,,,,,,,,,,0,28,28,28,497.2325204000226,,,,,,,,,,,,,497.2166900000302,497.2325204000226,497.2325204000226,497.2325204000226,500.4468557999935,,,,500.45348810002906,500.4654147000401,500.4654147000401,500.5127778000315,500.5130169999902,500.52930059999926,500.52930059999926,500.52930059999926,500.5957327000215,503.52672010002425,,,,502.6104692000081,503.5428275000304,503.5428275000304,503.5428275000304,,,,,,,,,,,,,,,down,3.2115655999514274,None,None,,,P119,001,2025-02-20_14h10.01.907,posner_endo_new1,2024.2.4,60.04264228072264,2025-02-20 14h10.10.330014 +0000,
cube_r.png,0.1,0.31,valid,29,29,0,down,0.6529711000039242,None,space,0.4523579999804497,None,,,,,,,,,0,29,29,29,503.5428275000304,,,,,,,,,,,,,503.5268938000081,503.5428275000304,503.5428275000304,503.5428275000304,504.20955840003444,,,,504.2162091000355,504.2279878000263,504.2279878000263,504.27554030000465,504.27578399999766,504.2919501999859,504.2919501999859,504.2919501999859,504.35877699998673,504.7590225000167,,,,,,,,,,,,,,,,,,,,,,down,0.6529711000039242,None,space,0.4523579999804497,None,P119,001,2025-02-20_14h10.01.907,posner_endo_new1,2024.2.4,60.04264228072264,2025-02-20 14h10.10.330014 +0000,
cube_r.png,0.1,0.31,valid,30,30,0,down,2.78052430000389,None,space,0.30806770001072437,None,,,,,,,,,0,30,30,30,504.7748696000199,,,,,,,,,,,,,504.75921029999154,504.7748696000199,504.7748696000199,504.7748696000199,507.5561724000145,,,,507.5628159000189,507.5746725000208,507.5746725000208,507.621940299985,507.62217950000195,507.6385200000368,507.6385200000368,507.6385200000368,507.7053601000225,507.9555720000062,,,,,,,,,,,,,,,,,,,,,,down,2.78052430000389,None,space,0.30806770001072437,None,P119,001,2025-02-20_14h10.01.907,posner_endo_new1,2024.2.4,60.04264228072264,2025-02-20 14h10.10.330014 +0000,
cube_l.png,0.1,-0.31,valid,31,31,0,down,3.1999627000186592,None,space,0.38730939995730296,None,,,,,,,,,0,31,31,31,507.9716213000356,,,,,,,,,,,,,507.9557624000008,507.9716213000356,507.9716213000356,507.9716213000356,511.18582770001376,,,,511.19249490002403,511.20453620003536,511.20453620003536,511.25153639999917,511.2517764000222,511.2683601999888,511.2683601999888,511.2683601999888,511.3349367000046,511.66877150000073,,,,,,,,,,,,,,,,,,,,,,down,3.1999627000186592,None,space,0.38730939995730296,None,P119,001,2025-02-20_14h10.01.907,posner_endo_new1,2024.2.4,60.04264228072264,2025-02-20 14h10.10.330014 +0000,
cube_r.png,0.1,0.31,valid,32,32,0,down,3.2956474000238813,None,space,0.41304569999920204,None,,,,,,,,,0,32,32,32,511.68460760003654,,,,,,,,,,,,,511.66896470001666,511.68460760003654,511.68460760003654,511.68460760003654,514.9819637000328,,,,514.9886123000178,515.0002385000116,515.0002385000116,515.0478462000028,515.0480847000144,515.0644651000039,515.0644651000039,515.0644651000039,515.130803100008,515.4815462999977,,,,,,,,,,,,,,,,,,,,,,down,3.2956474000238813,None,space,0.41304569999920204,None,P119,001,2025-02-20_14h10.01.907,posner_endo_new1,2024.2.4,60.04264228072264,2025-02-20 14h10.10.330014 +0000,
cube_r.png,0.1,-0.31,invalid,33,33,0,down,8.186212999979034,None,space,0.40667120000580326,None,,,,,,,,,0,33,33,33,515.4971355000162,,,,,,,,,,,,,515.4817426000373,515.4971355000162,515.4971355000162,515.4971355000162,523.6896616999875,,,,523.6963402000256,523.7082021000097,523.7082021000097,523.7557191000087,523.7559473000001,523.7722440999933,523.7722440999933,523.7722440999933,523.8390748000238,524.1889779000194,,,,,,,,,,,,,,,,,,,,,,down,8.186212999979034,None,space,0.40667120000580326,None,P119,001,2025-02-20_14h10.01.907,posner_endo_new1,2024.2.4,60.04264228072264,2025-02-20 14h10.10.330014 +0000,
cube_r.png,0.1,10,catch,34,34,0,down,2.863518900005147,None,None,,,,,,,,,,,0,34,34,34,524.2051006000256,,,,,,,,,,,,,524.189149199985,524.2051006000256,524.2051006000256,524.2051006000256,527.0695836000377,,,,527.0752420999925,527.0867168999976,527.0867168999976,527.1355486999964,527.1357774999924,527.1520831999951,527.1520831999951,527.1520831999951,527.2186923000263,530.1495893000392,,,,529.233348400041,530.1657113000401,530.1657113000401,530.1657113000401,,,,,,,,,,,,,,,down,2.863518900005147,None,None,,,P119,001,2025-02-20_14h10.01.907,posner_endo_new1,2024.2.4,60.04264228072264,2025-02-20 14h10.10.330014 +0000,
cube_r.png,0.1,0.31,valid,35,35,0,down,0.18224739999277517,None,space,0.3881740000215359,None,,,,,,,,,0,35,35,35,530.1657113000401,,,,,,,,,,,,,530.1497493000352,530.1657113000401,530.1657113000401,530.1657113000401,530.3496725999867,,,,530.3554513000418,530.3670438000117,530.3670438000117,530.4155145999976,530.4157372000045,530.4319795999909,530.4319795999909,530.4319795999909,530.4988251000177,530.832301300019,,,,,,,,,,,,,,,,,,,,,,down,0.18224739999277517,None,space,0.3881740000215359,None,P119,001,2025-02-20_14h10.01.907,posner_endo_new1,2024.2.4,60.04264228072264,2025-02-20 14h10.10.330014 +0000,
cube_r.png,0.1,-0.31,invalid,36,36,0,down,3.3074264000169933,None,space,0.4730963999754749,None,,,,,,,,,0,36,36,36,530.8482430999866,,,,,,,,,,,,,530.832474099996,530.8482430999866,530.8482430999866,530.8482430999866,534.1622016000329,,,,534.1679743999848,534.1795784999849,534.1795784999849,534.2284840000211,534.2287183000008,534.2448694999912,534.2448694999912,534.2448694999912,534.3114921000088,534.7281737999874,,,,,,,,,,,,,,,,,,,,,,down,3.3074264000169933,None,space,0.4730963999754749,None,P119,001,2025-02-20_14h10.01.907,posner_endo_new1,2024.2.4,60.04264228072264,2025-02-20 14h10.10.330014 +0000,
cube_l.png,0.1,0.31,invalid,37,37,0,down,3.115170000004582,None,space,0.47474949999013916,None,,,,,,,,,0,37,37,37,534.7443177000387,,,,,,,,,,,,,534.7283482000348,534.7443177000387,534.7443177000387,534.7443177000387,537.876037500042,,,,537.8920989999897,537.9027037000051,537.9027037000051,537.941211300029,537.9415009000222,537.9576699000318,537.9576699000318,537.9576699000318,538.0409191999934,538.4415098000318,,,,,,,,,,,,,,,,,,,,,,down,3.115170000004582,None,space,0.47474949999013916,None,P119,001,2025-02-20_14h10.01.907,posner_endo_new1,2024.2.4,60.04264228072264,2025-02-20 14h10.10.330014 +0000,
cube_l.png,0.1,0.31,invalid,38,38,0,down,0.7872237999690697,None,space,0.5602904999977909,None,,,,,,,,,0,38,38,38,538.4571567000239,,,,,,,,,,,,,538.4417499999981,538.4571567000239,538.4571567000239,538.4571567000239,539.257900400029,,,,539.2739112999989,539.2853372000391,539.2853372000391,539.3233447000384,539.3236505000386,539.3397089000209,539.3397089000209,539.3397089000209,539.4228919000016,539.9070886000409,,,,,,,,,,,,,,,,,,,,,,down,0.7872237999690697,None,space,0.5602904999977909,None,P119,001,2025-02-20_14h10.01.907,posner_endo_new1,2024.2.4,60.04264228072264,2025-02-20 14h10.10.330014 +0000,
cube_r.png,0.1,0.31,valid,39,39,0,down,11.889387200004421,None,space,0.4554122000117786,None,,,,,,,,,0,39,39,39,539.9224281000206,,,,,,,,,,,,,539.9073649999918,539.9224281000206,539.9224281000206,539.9224281000206,551.82798370003,,,,551.8386234000209,551.849067400035,551.849067400035,551.8936804000405,551.8940161000355,551.9101883000112,551.9101883000112,551.9101883000112,551.9934823000222,552.377562300011,,,,,,,,,,,,,,,,,,,,,,down,11.889387200004421,None,space,0.4554122000117786,None,P119,001,2025-02-20_14h10.01.907,posner_endo_new1,2024.2.4,60.04264228072264,2025-02-20 14h10.10.330014 +0000,
cube_l.png,0.1,0.31,invalid,40,40,0,down,4.083115899993572,None,space,0.4140104000107385,None,,,,,,,,,0,40,40,40,552.3929968000157,,,,,,,,,,,,,552.3778391000233,552.3929968000157,552.3929968000157,552.3929968000157,556.4900306999916,,,,556.5000449999934,556.5096021000063,556.5096021000063,556.5554540000157,556.5556795999873,556.5719903000281,556.5719903000281,556.5719903000281,556.6553459000424,556.9888828000403,,,,,,,,,,,,,,,,,,,,,,down,4.083115899993572,None,space,0.4140104000107385,None,P119,001,2025-02-20_14h10.01.907,posner_endo_new1,2024.2.4,60.04264228072264,2025-02-20 14h10.10.330014 +0000,
cube_l.png,0.1,10,catch,41,41,0,down,2.9111011000350118,None,None,,,,,,,,,,,0,41,41,41,557.0049372999929,,,,,,,,,,,,,556.9890651000314,557.0049372999929,557.0049372999929,557.0049372999929,559.919277500012,,,,559.9254130999907,559.9371443000273,559.9371443000273,559.9854221999994,559.9856549000251,560.0018504000036,560.0018504000036,560.0018504000036,560.0683717000065,562.9992612000206,,,,562.0830299000372,563.0155150000355,563.0155150000355,563.0155150000355,,,,,,,,,,,,,,,down,2.9111011000350118,None,None,,,P119,001,2025-02-20_14h10.01.907,posner_endo_new1,2024.2.4,60.04264228072264,2025-02-20 14h10.10.330014 +0000,
cube_l.png,0.1,-0.31,valid,42,42,0,down,0.2839757999754511,None,space,0.4359173999982886,None,,,,,,,,,0,42,42,42,563.0155150000355,,,,,,,,,,,,,562.9994196000043,563.0155150000355,563.0155150000355,563.0155150000355,563.3158375000348,,,,563.3215736999991,563.3331297000404,563.3331297000404,563.3817938999855,563.3820175000001,563.3984838000033,563.3984838000033,563.3984838000033,563.4649895000039,563.8486062000156,,,,,,,,,,,,,,,,,,,,,,down,0.2839757999754511,None,space,0.4359173999982886,None,P119,001,2025-02-20_14h10.01.907,posner_endo_new1,2024.2.4,60.04264228072264,2025-02-20 14h10.10.330014 +0000,
cube_l.png,0.1,10,catch,43,43,0,down,2.8910417999722995,None,None,,,,,,,,,,,0,43,43,43,563.864676200028,,,,,,,,,,,,,563.8487784999888,563.864676200028,563.864676200028,563.864676200028,566.7627029999858,,,,566.7718691999908,566.782030900009,566.782030900009,566.8284857000108,566.8288031000411,566.8449408999877,566.8449408999877,566.8449408999877,566.9281725999899,569.8424181999872,,,,568.9427993000136,569.8584620000329,569.8584620000329,569.8584620000329,,,,,,,,,,,,,,,down,2.8910417999722995,None,None,,,P119,001,2025-02-20_14h10.01.907,posner_endo_new1,2024.2.4,60.04264228072264,2025-02-20 14h10.10.330014 +0000,
cube_l.png,0.1,0.31,invalid,44,44,0,down,0.5055960000026971,None,space,0.4782751000020653,None,,,,,,,,,0,44,44,44,569.8584620000329,,,,,,,,,,,,,569.8426628999878,569.8584620000329,569.8584620000329,569.8584620000329,570.3757277000113,,,,570.3849655000377,570.3953390000388,570.3953390000388,570.4413209999911,570.4416270999936,570.4578925000387,570.4578925000387,570.4578925000387,570.5409792999853,570.9419746000203,,,,,,,,,,,,,,,,,,,,,,down,0.5055960000026971,None,space,0.4782751000020653,None,P119,001,2025-02-20_14h10.01.907,posner_endo_new1,2024.2.4,60.04264228072264,2025-02-20 14h10.10.330014 +0000,
cube_l.png,0.1,0.31,invalid,45,45,0,down,2.9988579000346363,None,space,0.9045387000078335,None,,,,,,,,,0,45,45,45,570.9574270999874,,,,,,,,,,,,,570.9422326000058,570.9574270999874,570.9574270999874,570.9574270999874,573.9720793000306,,,,573.9812177999993,573.9915238000103,573.9915238000103,574.0377198000206,574.0380259000231,574.0542368000024,574.0542368000024,574.0542368000024,574.137513499998,574.9710774000268,,,,,,,,,,,,,,,,,,,,,,down,2.9988579000346363,None,space,0.9045387000078335,None,P119,001,2025-02-20_14h10.01.907,posner_endo_new1,2024.2.4,60.04264228072264,2025-02-20 14h10.10.330014 +0000,
cube_r.png,0.1,0.31,valid,46,46,0,down,3.817304599971976,None,space,0.4446087999967858,None,,,,,,,,,0,46,46,46,574.9865464000031,,,,,,,,,,,,,574.9713302000309,574.9865464000031,574.9865464000031,574.9865464000031,578.8168978000176,,,,578.8260939000174,578.8365993000334,578.8365993000334,578.8827740999986,578.8830882000038,578.8992438000278,578.8992438000278,578.8992438000278,578.9825579000171,579.3498297000187,,,,,,,,,,,,,,,,,,,,,,down,3.817304599971976,None,space,0.4446087999967858,None,P119,001,2025-02-20_14h10.01.907,posner_endo_new1,2024.2.4,60.04264228072264,2025-02-20 14h10.10.330014 +0000,
cube_l.png,0.1,-0.31,valid,47,47,0,down,2.2551985000027344,None,space,0.45285649999277666,None,,,,,,,,,0,47,47,47,579.3653484000242,,,,,,,,,,,,,579.3500895000179,579.3653484000242,579.3653484000242,579.3653484000242,581.6306853999849,,,,581.6391511000111,581.649348100007,581.649348100007,581.6964593000012,581.6966843000264,581.7129818000249,581.7129818000249,581.7129818000249,581.7962241999921,582.1799929999979,,,,,,,,,,,,,,,,,,,,,,down,2.2551985000027344,None,space,0.45285649999277666,None,P119,001,2025-02-20_14h10.01.907,posner_endo_new1,2024.2.4,60.04264228072264,2025-02-20 14h10.10.330014 +0000,
cube_r.png,0.1,-0.31,invalid,48,48,0,down,3.7770367999910377,None,space,0.6672204000060447,None,,,,,,,,,0,48,48,48,582.1958229999873,,,,,,,,,,,,,582.180174899986,582.1958229999873,582.1958229999873,582.1958229999873,585.9759162000264,,,,585.9820466000238,585.9937281000311,585.9937281000311,586.0420285,586.0422537000268,586.0585623999941,586.0585623999941,586.0585623999941,586.1251421000343,586.7419854000327,,,,,,,,,,,,,,,,,,,,,,down,3.7770367999910377,None,space,0.6672204000060447,None,P119,001,2025-02-20_14h10.01.907,posner_endo_new1,2024.2.4,60.04264228072264,2025-02-20 14h10.10.330014 +0000,
cube_r.png,0.1,10,catch,49,49,0,down,3.174352700007148,None,None,,,,,,,,,,,0,49,49,49,586.7580097999889,,,,,,,,,,,,,586.7421598000219,586.7580097999889,586.7580097999889,586.7580097999889,589.9387863000156,,,,589.9449668999878,589.9566660000128,589.9566660000128,590.0045476999949,590.0047756000422,590.0211268000421,590.0211268000421,590.0211268000421,590.1044889999903,593.0188614000217,,,,592.119170400023,593.03476770001,593.03476770001,593.03476770001,,,,,,,,,,,,,,,down,3.174352700007148,None,None,,,P119,001,2025-02-20_14h10.01.907,posner_endo_new1,2024.2.4,60.04264228072264,2025-02-20 14h10.10.330014 +0000,
cube_l.png,0.1,-0.31,valid,50,50,0,down,0.7132312000030652,None,space,0.4615879000048153,None,,,,,,,,,0,50,50,50,593.03476770001,,,,,,,,,,,,,593.0191465000389,593.03476770001,593.03476770001,593.03476770001,593.7520299000316,,,,593.761182199989,593.7709206999862,593.7709206999862,593.817498199991,593.8177413000376,593.8339057000121,593.8339057000121,593.8339057000121,593.9172635999857,594.3010789999971,,,,,,,,,,,,,,,,,,,,,,down,0.7132312000030652,None,space,0.4615879000048153,None,P119,001,2025-02-20_14h10.01.907,posner_endo_new1,2024.2.4,60.04264228072264,2025-02-20 14h10.10.330014 +0000,
cube_l.png,0.1,-0.31,valid,51,51,0,down,5.734871299995575,None,space,0.3559337999904528,None,,,,,,,,,0,51,51,51,594.3167063000146,,,,,,,,,,,,,594.3012661000248,594.3167063000146,594.3167063000146,594.3167063000146,600.0616080000182,,,,600.0683142000344,600.0802236000309,600.0802236000309,600.1276572000352,600.1278962999932,600.144101199985,600.144101199985,600.144101199985,600.2106635000091,600.511112200038,,,,,,,,,,,,,,,,,,,,,,down,5.734871299995575,None,space,0.3559337999904528,None,P119,001,2025-02-20_14h10.01.907,posner_endo_new1,2024.2.4,60.04264228072264,2025-02-20 14h10.10.330014 +0000,
cube_r.png,0.1,-0.31,invalid,52,52,0,down,2.9174177999957465,None,space,0.4279537000111304,None,,,,,,,,,0,52,52,52,600.5271267000353,,,,,,,,,,,,,600.5112990000052,600.5271267000353,600.5271267000353,600.5271267000353,603.4582236999995,,,,603.4648727999884,603.476712600037,603.476712600037,603.5241027000011,603.5246073000017,603.5405458000023,603.5405458000023,603.5405458000023,603.6237762999954,603.9751541999867,,,,,,,,,,,,,,,,,,,,,,down,2.9174177999957465,None,space,0.4279537000111304,None,P119,001,2025-02-20_14h10.01.907,posner_endo_new1,2024.2.4,60.04264228072264,2025-02-20 14h10.10.330014 +0000,
cube_l.png,0.1,-0.31,valid,53,53,0,down,3.917774899979122,None,space,0.4675386000308208,None,,,,,,,,,0,53,53,53,603.9900606999872,,,,,,,,,,,,,603.9756056999904,603.9900606999872,603.9900606999872,603.9900606999872,607.9206392000197,,,,607.9317943000351,607.9420687000384,607.9420687000384,607.9863317999989,607.9866760000004,608.0029380000196,608.0029380000196,608.0029380000196,608.0860707000247,608.4868700000225,,,,,,,,,,,,,,,,,,,,,,down,3.917774899979122,None,space,0.4675386000308208,None,P119,001,2025-02-20_14h10.01.907,posner_endo_new1,2024.2.4,60.04264228072264,2025-02-20 14h10.10.330014 +0000,
cube_r.png,0.1,10,catch,54,54,0,down,4.197015100042336,None,None,,,,,,,,,,,0,54,54,54,608.502445399994,,,,,,,,,,,,,608.487159500015,608.502445399994,608.502445399994,608.502445399994,612.7157902999897,,,,612.7268778000143,612.736957199988,612.736957199988,612.7814801000059,612.7818340000231,612.7979309000075,612.7979309000075,612.7979309000075,612.8811247000122,615.795692500018,,,,614.8958415000234,615.8115153000108,615.8115153000108,615.8115153000108,,,,,,,,,,,,,,,down,4.197015100042336,None,None,,,P119,001,2025-02-20_14h10.01.907,posner_endo_new1,2024.2.4,60.04264228072264,2025-02-20 14h10.10.330014 +0000,
cube_l.png,0.1,0.31,invalid,55,55,0,down,0.953108100045938,None,space,0.5178256999934092,None,,,,,,,,,0,55,55,55,615.8115153000108,,,,,,,,,,,,,615.7959683000227,615.8115153000108,615.8115153000108,615.8115153000108,616.7783849000116,,,,616.7894089000183,616.7997799000004,616.7997799000004,616.8439389000414,616.8442812000285,616.8604542000103,616.8604542000103,616.8604542000103,616.9437738000415,617.3944131000317,,,,,,,,,,,,,,,,,,,,,,down,0.953108100045938,None,space,0.5178256999934092,None,P119,001,2025-02-20_14h10.01.907,posner_endo_new1,2024.2.4,60.04264228072264,2025-02-20 14h10.10.330014 +0000,
cube_l.png,0.1,-0.31,valid,56,56,0,down,3.8660945000010543,None,space,0.49301249999552965,None,,,,,,,,,0,56,56,56,617.4099390000338,,,,,,,,,,,,,617.3947012000135,617.4099390000338,617.4099390000338,617.4099390000338,621.2904251000145,,,,621.3004870000295,621.3103269999847,621.3103269999847,621.356015700032,621.35625479999,621.3724321000045,621.3724321000045,621.3724321000045,621.4556845999905,621.8726780000143,,,,,,,,,,,,,,,,,,,,,,down,3.8660945000010543,None,space,0.49301249999552965,None,P119,001,2025-02-20_14h10.01.907,posner_endo_new1,2024.2.4,60.04264228072264,2025-02-20 14h10.10.330014 +0000,
cube_r.png,0.1,0.31,valid,57,57,0,down,3.355167200032156,None,space,0.48587599996244535,None,,,,,,,,,0,57,57,57,621.8885251000174,,,,,,,,,,,,,621.8728649000404,621.8885251000174,621.8885251000174,621.8885251000174,625.2525731000351,,,,625.2592800999992,625.2712563000387,625.2712563000387,625.3185526999878,625.3187974999892,625.3351945999893,625.3351945999893,625.3351945999893,625.4016795000061,625.8353277000133,,,,,,,,,,,,,,,,,,,,,,down,3.355167200032156,None,space,0.48587599996244535,None,P119,001,2025-02-20_14h10.01.907,posner_endo_new1,2024.2.4,60.04264228072264,2025-02-20 14h10.10.330014 +0000,
cube_r.png,0.1,-0.31,invalid,58,58,0,down,3.5289653000072576,None,space,0.4109248999739066,None,,,,,,,,,0,58,58,58,625.851295600005,,,,,,,,,,,,,625.8355153999873,625.851295600005,625.851295600005,625.851295600005,629.3818806000054,,,,629.3884729000274,629.4002739000134,629.4002739000134,629.4475912000053,629.4478168000351,629.4643755999859,629.4643755999859,629.4643755999859,629.547541100008,629.8811643000226,,,,,,,,,,,,,,,,,,,,,,down,3.5289653000072576,None,space,0.4109248999739066,None,P119,001,2025-02-20_14h10.01.907,posner_endo_new1,2024.2.4,60.04264228072264,2025-02-20 14h10.10.330014 +0000,
cube_l.png,0.1,0.31,invalid,59,59,0,down,3.6429405999951996,None,space,0.534602600033395,None,,,,,,,,,0,59,59,59,629.8970834999927,,,,,,,,,,,,,629.8813391000149,629.8970834999927,629.8970834999927,629.8970834999927,633.5441646000254,,,,633.5498771000421,633.5615914000082,633.5615914000082,633.6101444000378,633.6103699000087,633.6264620000147,633.6264620000147,633.6264620000147,633.7099976000027,634.1768930000253,,,,,,,,,,,,,,,,,,,,,,down,3.6429405999951996,None,space,0.534602600033395,None,P119,001,2025-02-20_14h10.01.907,posner_endo_new1,2024.2.4,60.04264228072264,2025-02-20 14h10.10.330014 +0000,
