cue_img,cue_soa,target_x,trial,thisN,thisTrialN,thisRepN,key_control2.keys,key_control2.rt,key_control2.duration,key_resp.keys,key_resp.rt,key_resp.duration,practice.thisRepN,practice.thisTrialN,practice.thisN,practice.thisIndex,block1.thisRepN,block1.thisTrialN,block1.thisN,block1.thisIndex,block2.thisRepN,block2.thisTrialN,block2.thisN,block2.thisIndex,thisRow.t,notes,instructions.started,instructions_txt.started,key_control.started,instructions.stopped,key_control.keys,key_control.rt,key_control.duration,ready.started,ready_txt.started,ready_txt.stopped,ready.stopped,fix.started,fixation.started,key_control2.started,fixation_cross.started,fix.stopped,practice.key_control2.keys,practice.key_control2.rt,practice.key_control2.duration,cue.started,cube.started,fixation_cross_cue.started,cue.stopped,target.started,fixation_target.started,fixation_cross_target.started,key_resp.started,star.started,target.stopped,practice.key_resp.keys,practice.key_resp.rt,practice.key_resp.duration,star.stopped,fixation_target.stopped,fixation_cross_target.stopped,key_resp.stopped,block1.key_control2.keys,block1.key_control2.rt,block1.key_control2.duration,block1.key_resp.keys,block1.key_resp.rt,block1.key_resp.duration,break_2.started,text.started,key_control3.started,text.stopped,break_2.stopped,key_control3.keys,key_control3.rt,key_control3.duration,block2.key_control2.keys,block2.key_control2.rt,block2.key_control2.duration,block2.key_resp.keys,block2.key_resp.rt,block2.key_resp.duration,participant,session,date,expName,psychopyVersion,frameRate,expStart,
,,,,,,,,,,,,,,,,,,,,,,,,,,,0.007519399980083108,0.028582600003574044,0.028582600003574044,53.92710059997626,up,53.8961245000246,None,,,,,,,,,,,,,,,,,,,,,,,,,,,,,,,,,,,,,,,,,,,,,,,,,,P120,001,2025-02-21_09h11.06.874,posner_endo_new1,2024.2.4,60.08257750078947,2025-02-21 09h11.16.193451 +0000,
,,,,,,,,,,,,,,,,,,,,,,,,,,,,,,,,,,53.92715289996704,53.942756799981,56.94267750001745,56.923418699996546,,,,,,,,,,,,,,,,,,,,,,,,,,,,,,,,,,,,,,,,,,,,,,P120,001,2025-02-21_09h11.06.874,posner_endo_new1,2024.2.4,60.08257750078947,2025-02-21 09h11.16.193451 +0000,
cube_l.png,0.1,-0.31,valid,0,0,0,down,4.254959599988069,None,space,0.5163328000344336,None,0,0,0,0,,,,,,,,,56.94267750001745,,,,,,,,,,,,,56.93043249996845,56.94267750001745,56.94267750001745,56.94267750001745,61.20279529999243,down,4.254959599988069,None,61.220361099985894,61.23330789996544,61.23330789996544,61.26872180000646,61.26920629997039,61.28513849998126,61.28513849998126,61.28513849998126,61.368426500004716,61.80329219996929,space,0.5163328000344336,None,,,,,,,,,,,,,,,,,,,,,,,,,P120,001,2025-02-21_09h11.06.874,posner_endo_new1,2024.2.4,60.08257750078947,2025-02-21 09h11.16.193451 +0000,
cube_l.png,0.1,0.31,invalid,1,1,0,down,2.2912252999958582,None,space,0.48132010002154857,None,0,1,1,1,,,,,,,,,61.81794679997256,,,,,,,,,,,,,61.80370689998381,61.81794679997256,61.81794679997256,61.81794679997256,64.11693540000124,down,2.2912252999958582,None,64.12619129999075,64.13577100000111,64.13577100000111,64.18246989999898,64.1826996000018,64.19892549997894,64.19892549997894,64.19892549997894,64.28214600001229,64.6827419999754,space,0.48132010002154857,None,,,,,,,,,,,,,,,,,,,,,,,,,P120,001,2025-02-21_09h11.06.874,posner_endo_new1,2024.2.4,60.08257750078947,2025-02-21 09h11.16.193451 +0000,
cube_r.png,0.1,-0.31,invalid,2,2,0,down,2.961665299953893,None,space,0.42907420004485175,None,0,2,2,2,,,,,,,,,64.69851829996333,,,,,,,,,,,,,64.68291189998854,64.69851829996333,64.69851829996333,64.69851829996333,67.66289679997135,down,2.961665299953893,None,67.67148499999894,67.68151929997839,67.68151929997839,67.72873229999095,67.72895089996746,67.74534129997483,67.74534129997483,67.74534129997483,67.82844499999192,68.18008989997907,space,0.42907420004485175,None,,,,,,,,,,,,,,,,,,,,,,,,,P120,001,2025-02-21_09h11.06.874,posner_endo_new1,2024.2.4,60.08257750078947,2025-02-21 09h11.16.193451 +0000,
cube_r.png,0.1,10,catch,3,3,0,down,3.1620998000144027,None,None,,,0,3,3,3,,,,,,,,,68.19476639997447,,,,,,,,,,,,,68.18049609998707,68.19476639997447,68.19476639997447,68.19476639997447,71.35953740001423,down,3.1620998000144027,None,71.37074509996455,71.38100619998295,71.38100619998295,71.42505029996391,71.42538839997724,71.44167279999238,71.44167279999238,71.44167279999238,71.52491420001024,74.4392551999772,None,,,73.53941420000046,74.4552268999978,74.4552268999978,74.4552268999978,,,,,,,,,,,,,,,,,,,,,P120,001,2025-02-21_09h11.06.874,posner_endo_new1,2024.2.4,60.08257750078947,2025-02-21 09h11.16.193451 +0000,
cube_l.png,0.1,-0.31,valid,4,4,0,down,1.2212386000319384,None,space,0.4455409000511281,None,0,4,4,4,,,,,,,,,74.4552268999978,,,,,,,,,,,,,74.4395046000136,74.4552268999978,74.4552268999978,74.4552268999978,75.68853260000469,down,1.2212386000319384,None,75.69991919997847,75.71028800000204,75.71028800000204,75.75388179998845,75.75412130000768,75.77052730001742,75.77052730001742,75.77052730001742,75.85367719997885,76.22122579999268,space,0.4455409000511281,None,,,,,,,,,,,,,,,,,,,,,,,,,P120,001,2025-02-21_09h11.06.874,posner_endo_new1,2024.2.4,60.08257750078947,2025-02-21 09h11.16.193451 +0000,
cube_l.png,0.1,0.31,invalid,5,5,0,down,3.767504999996163,None,space,0.3950720999855548,None,0,5,5,5,,,,,,,,,76.23656130000018,,,,,,,,,,,,,76.22139969997806,76.23656130000018,76.23656130000018,76.23656130000018,80.01680189999752,down,3.767504999996163,None,80.02398459997494,80.03604799997993,80.03604799997993,80.08278120000614,80.0830125999637,80.0993390000076,80.0993390000076,80.0993390000076,80.16607139998814,80.49995059997309,space,0.3950720999855548,None,,,,,,,,,,,,,,,,,,,,,,,,,P120,001,2025-02-21_09h11.06.874,posner_endo_new1,2024.2.4,60.08257750078947,2025-02-21 09h11.16.193451 +0000,
cube_r.png,0.1,-0.31,invalid,6,6,0,down,2.649428600037936,None,space,0.3311878999811597,None,0,6,6,6,,,,,,,,,80.51551559998188,,,,,,,,,,,,,80.50012390001211,80.51551559998188,80.51551559998188,80.51551559998188,83.18035099998815,down,2.649428600037936,None,83.18755580001744,83.1993167999899,83.1993167999899,83.24650999996811,83.24673050001729,83.2627577999956,83.2627577999956,83.2627577999956,83.32939109997824,83.59664339997107,space,0.3311878999811597,None,,,,,,,,,,,,,,,,,,,,,,,,,P120,001,2025-02-21_09h11.06.874,posner_endo_new1,2024.2.4,60.08257750078947,2025-02-21 09h11.16.193451 +0000,
cube_r.png,0.1,0.31,valid,7,7,0,down,2.15987380000297,None,space,0.3714788000215776,None,0,7,7,7,,,,,,,,,83.6124752999749,,,,,,,,,,,,,83.596809700015,83.6124752999749,83.6124752999749,83.6124752999749,85.77768090000609,down,2.15987380000297,None,85.78355890000239,85.79529460001504,85.79529460001504,85.84340060001705,85.8436177999829,85.86011639999924,85.86011639999924,85.86011639999924,85.92662569996901,86.24373789998936,space,0.3714788000215776,None,,,,,,,,,,,,,,,,,,,,,,,,,P120,001,2025-02-21_09h11.06.874,posner_endo_new1,2024.2.4,60.08257750078947,2025-02-21 09h11.16.193451 +0000,
cube_l.png,0.1,-0.31,valid,8,8,0,down,3.297400799987372,None,space,0.41171810001833364,None,0,8,8,8,,,,,,,,,86.25977339997189,,,,,,,,,,,,,86.24390219995985,86.25977339997189,86.25977339997189,86.25977339997189,89.55944579996867,down,3.297400799987372,None,89.58214069996029,89.59458079998149,89.59458079998149,89.62274670001352,89.62312900001416,89.63922349998029,89.63922349998029,89.63922349998029,89.72245699999621,90.05684699997073,space,0.41171810001833364,None,,,,,,,,,,,,,,,,,,,,,,,,,P120,001,2025-02-21_09h11.06.874,posner_endo_new1,2024.2.4,60.08257750078947,2025-02-21 09h11.16.193451 +0000,
cube_r.png,0.1,-0.31,invalid,9,9,0,down,2.7242810999741778,None,space,0.4755244999541901,None,0,9,9,9,,,,,,,,,90.07212349999463,,,,,,,,,,,,,90.0571554999915,90.07212349999463,90.07212349999463,90.07212349999463,92.8041385000106,down,2.7242810999741778,None,92.81642270000884,92.82648250000784,92.82648250000784,92.86973360000411,92.86998899996979,92.88631889998214,92.88631889998214,92.88631889998214,92.9695553999627,93.3701723999693,space,0.4755244999541901,None,,,,,,,,,,,,,,,,,,,,,,,,,P120,001,2025-02-21_09h11.06.874,posner_endo_new1,2024.2.4,60.08257750078947,2025-02-21 09h11.16.193451 +0000,
cube_r.png,0.1,0.31,valid,10,10,0,down,3.034695499984082,None,space,0.4434004000504501,None,0,10,10,10,,,,,,,,,93.38584609999089,,,,,,,,,,,,,93.3703674999997,93.38584609999089,93.38584609999089,93.38584609999089,96.43364559998736,down,3.034695499984082,None,96.44597309996607,96.45602629997302,96.45602629997302,96.4994615999749,96.4997172000003,96.51588389999233,96.51588389999233,96.51588389999233,96.59916119999252,96.96629379998194,space,0.4434004000504501,None,,,,,,,,,,,,,,,,,,,,,,,,,P120,001,2025-02-21_09h11.06.874,posner_endo_new1,2024.2.4,60.08257750078947,2025-02-21 09h11.16.193451 +0000,
,,,,,,,,,,,,,,,,,,,,,,,,,,,,,,,,,,96.9664216999663,96.98207590001402,100.00161229999503,99.96270939998794,,,,,,,,,,,,,,,,,,,,,,,,,,,,,,,,,,,,,,,,,,,,,,P120,001,2025-02-21_09h11.06.874,posner_endo_new1,2024.2.4,60.08257750078947,2025-02-21 09h11.16.193451 +0000,
cube_l.png,0.1,10,catch,0,0,0,down,6.56295140000293,None,None,,,,,,,0,0,0,0,,,,,100.00161229999503,,,,,,,,,,,,,99.99263930000598,100.00161229999503,100.00161229999503,100.00161229999503,106.57339259999571,,,,106.58577399997739,106.5958192999824,106.5958192999824,106.63904679997358,106.63930410001194,106.65565470000729,106.65565470000729,106.65565470000729,106.73868479998782,109.6530400000047,,,,108.75348239997402,109.6692263999721,109.6692263999721,109.6692263999721,down,6.56295140000293,None,None,,,,,,,,,,,,,,,,,P120,001,2025-02-21_09h11.06.874,posner_endo_new1,2024.2.4,60.08257750078947,2025-02-21 09h11.16.193451 +0000,
cube_l.png,0.1,10,catch,1,1,0,down,0.95178709999891,None,None,,,,,,,0,1,1,1,,,,,109.6692263999721,,,,,,,,,,,,,109.65323019999778,109.6692263999721,109.6692263999721,109.6692263999721,110.63575580000179,,,,110.64818319998449,110.65822169999592,110.65822169999592,110.70121749996906,110.70159899996361,110.71767819998786,110.71767819998786,110.71767819998786,110.80092760000844,113.71543460001703,,,,112.81554300000425,113.7312809000141,113.7312809000141,113.7312809000141,down,0.95178709999891,None,None,,,,,,,,,,,,,,,,,P120,001,2025-02-21_09h11.06.874,posner_endo_new1,2024.2.4,60.08257750078947,2025-02-21 09h11.16.193451 +0000,
cube_l.png,0.1,0.31,invalid,2,2,0,down,0.23304590000770986,None,space,0.5556658999994397,None,,,,,0,2,2,2,,,,,113.7312809000141,,,,,,,,,,,,,113.71573309996165,113.7312809000141,113.7312809000141,113.7312809000141,113.96596150001278,,,,113.9781684000045,113.9882004999672,113.9882004999672,114.03114510001615,114.03152849996695,114.04762259998824,114.04762259998824,114.04762259998824,114.13086149998708,114.61503479996463,,,,,,,,down,0.23304590000770986,None,space,0.5556658999994397,None,,,,,,,,,,,,,,,P120,001,2025-02-21_09h11.06.874,posner_endo_new1,2024.2.4,60.08257750078947,2025-02-21 09h11.16.193451 +0000,
cube_l.png,0.1,0.31,invalid,3,3,0,down,2.758328999974765,None,space,0.7939828000380658,None,,,,,0,3,3,3,,,,,114.63035059999675,,,,,,,,,,,,,114.6153745999909,114.63035059999675,114.63035059999675,114.63035059999675,117.39566579996608,,,,117.40812259999802,117.4182020999724,117.4182020999724,117.46098139998503,117.46135970001342,117.47745369997574,117.47745369997574,117.47745369997574,117.56069579999894,118.27798810001696,,,,,,,,down,2.758328999974765,None,space,0.7939828000380658,None,,,,,,,,,,,,,,,P120,001,2025-02-21_09h11.06.874,posner_endo_new1,2024.2.4,60.08257750078947,2025-02-21 09h11.16.193451 +0000,
cube_l.png,0.1,-0.31,valid,4,4,0,down,2.191617700038478,None,space,0.38620730000548065,None,,,,,0,4,4,4,,,,,118.29328320000786,,,,,,,,,,,,,118.27831829997012,118.29328320000786,118.29328320000786,118.29328320000786,120.49245279998286,,,,120.50514459999977,120.51518789998954,120.51518789998954,120.55816239997512,120.55841529997997,120.57467369997175,120.57467369997175,120.57467369997175,120.65807060000952,120.97524469997734,,,,,,,,down,2.191617700038478,None,space,0.38620730000548065,None,,,,,,,,,,,,,,,P120,001,2025-02-21_09h11.06.874,posner_endo_new1,2024.2.4,60.08257750078947,2025-02-21 09h11.16.193451 +0000,
cube_r.png,0.1,-0.31,invalid,5,5,0,down,1.9891586999874562,None,space,0.4398929000017233,None,,,,,0,5,5,5,,,,,120.99100649997126,,,,,,,,,,,,,120.97545149998041,120.99100649997126,120.99100649997126,120.99100649997126,122.98977499996545,,,,122.99739069998031,123.00861389999045,123.00861389999045,123.05552569997963,123.05579239997314,123.07210429996485,123.07210429996485,123.07210429996485,123.15537170000607,123.52244179998524,,,,,,,,down,1.9891586999874562,None,space,0.4398929000017233,None,,,,,,,,,,,,,,,P120,001,2025-02-21_09h11.06.874,posner_endo_new1,2024.2.4,60.08257750078947,2025-02-21 09h11.16.193451 +0000,
cube_r.png,0.1,0.31,valid,6,6,0,down,2.266173699987121,None,space,0.35088270000414923,None,,,,,0,6,6,6,,,,,123.53825459996006,,,,,,,,,,,,,123.52265539998189,123.53825459996006,123.53825459996006,123.53825459996006,125.820256099978,,,,125.83265429997118,125.84271629998693,125.84271629998693,125.88570029998664,125.88607700000284,125.9022312000161,125.9022312000161,125.9022312000161,125.98542430001544,126.26985340000829,,,,,,,,down,2.266173699987121,None,space,0.35088270000414923,None,,,,,,,,,,,,,,,P120,001,2025-02-21_09h11.06.874,posner_endo_new1,2024.2.4,60.08257750078947,2025-02-21 09h11.16.193451 +0000,
cube_r.png,0.1,-0.31,invalid,7,7,0,down,2.6151320000062697,None,space,0.3571757000172511,None,,,,,0,7,7,7,,,,,126.28537970001344,,,,,,,,,,,,,126.27018120000139,126.28537970001344,126.28537970001344,126.28537970001344,128.91712729999563,,,,128.92532659997232,128.9358413000009,128.9358413000009,128.98287499998696,128.98314199998276,128.99939030001406,128.99939030001406,128.99939030001406,129.082705000008,129.36672320001526,,,,,,,,down,2.6151320000062697,None,space,0.3571757000172511,None,,,,,,,,,,,,,,,P120,001,2025-02-21_09h11.06.874,posner_endo_new1,2024.2.4,60.08257750078947,2025-02-21 09h11.16.193451 +0000,
cube_l.png,0.1,-0.31,valid,8,8,0,down,2.9182966999942437,None,space,0.3837255999678746,None,,,,,0,8,8,8,,,,,129.38240649999352,,,,,,,,,,,,,129.36695150000742,129.38240649999352,129.38240649999352,129.38240649999352,132.3136308999965,,,,132.3218984999694,132.33233790000668,132.33233790000668,132.37944549997337,132.37971730000572,132.39601490000496,132.39601490000496,132.39601490000496,132.4792768000043,132.79655349999666,,,,,,,,down,2.9182966999942437,None,space,0.3837255999678746,None,,,,,,,,,,,,,,,P120,001,2025-02-21_09h11.06.874,posner_endo_new1,2024.2.4,60.08257750078947,2025-02-21 09h11.16.193451 +0000,
cube_r.png,0.1,-0.31,invalid,9,9,0,down,3.1045962999924086,None,space,0.47784119995776564,None,,,,,0,9,9,9,,,,,132.81218690000242,,,,,,,,,,,,,132.79678480001166,132.81218690000242,132.81218690000242,132.81218690000242,135.92655849998118,,,,135.93479570001364,135.94531179999467,135.94531179999467,135.9924420999596,135.99271560000489,136.0089857999701,136.0089857999701,136.0089857999701,136.0921984000015,136.49267010000767,,,,,,,,down,3.1045962999924086,None,space,0.47784119995776564,None,,,,,,,,,,,,,,,P120,001,2025-02-21_09h11.06.874,posner_endo_new1,2024.2.4,60.08257750078947,2025-02-21 09h11.16.193451 +0000,
cube_l.png,0.1,0.31,invalid,10,10,0,down,2.568144599965308,None,space,0.5052445000037551,None,,,,,0,10,10,10,,,,,136.5084812999703,,,,,,,,,,,,,136.4928942999686,136.5084812999703,136.5084812999703,136.5084812999703,139.09013229998527,,,,139.09837520000292,139.10879590001423,139.10879590001423,139.15592330001527,139.1561945999856,139.17233879998093,139.17233879998093,139.17233879998093,139.25558190001175,139.68948499998078,,,,,,,,down,2.568144599965308,None,space,0.5052445000037551,None,,,,,,,,,,,,,,,P120,001,2025-02-21_09h11.06.874,posner_endo_new1,2024.2.4,60.08257750078947,2025-02-21 09h11.16.193451 +0000,
cube_r.png,0.1,-0.31,invalid,11,11,0,down,2.803878100006841,None,space,0.4210908000241034,None,,,,,0,11,11,11,,,,,139.70519179996336,,,,,,,,,,,,,139.6897071999847,139.70519179996336,139.70519179996336,139.70519179996336,142.51984399999492,,,,142.52801479998743,142.538614399964,142.538614399964,142.5857157999999,142.58598829997936,142.60217480000574,142.60217480000574,142.60217480000574,142.6853944999748,143.03605930000776,,,,,,,,down,2.803878100006841,None,space,0.4210908000241034,None,,,,,,,,,,,,,,,P120,001,2025-02-21_09h11.06.874,posner_endo_new1,2024.2.4,60.08257750078947,2025-02-21 09h11.16.193451 +0000,
cube_r.png,0.1,0.31,valid,12,12,0,down,2.792842000024393,None,space,0.38308490003691986,None,,,,,0,12,12,12,,,,,143.05172210000455,,,,,,,,,,,,,143.0362917999737,143.05172210000455,143.05172210000455,143.05172210000455,145.84980560000986,,,,145.8579118999769,145.86846939998213,145.86846939998213,145.9156124999863,145.9158837000141,145.93228269997053,145.93228269997053,145.93228269997053,145.9987748999847,146.316321899998,,,,,,,,down,2.792842000024393,None,space,0.38308490003691986,None,,,,,,,,,,,,,,,P120,001,2025-02-21_09h11.06.874,posner_endo_new1,2024.2.4,60.08257750078947,2025-02-21 09h11.16.193451 +0000,
cube_l.png,0.1,10,catch,13,13,0,down,3.1373218999942765,None,None,,,,,,,0,13,13,13,,,,,146.33173279999755,,,,,,,,,,,,,146.31654480000725,146.33173279999755,146.33173279999755,146.33173279999755,149.47939990001032,,,,149.48753340000985,149.49800809996668,149.49800809996668,149.54517990001477,149.5454496999737,149.56171769998036,149.56171769998036,149.56171769998036,149.64510620001238,152.55940289999126,,,,151.65972049999982,152.5753268999979,152.5753268999979,152.5753268999979,down,3.1373218999942765,None,None,,,,,,,,,,,,,,,,,P120,001,2025-02-21_09h11.06.874,posner_endo_new1,2024.2.4,60.08257750078947,2025-02-21 09h11.16.193451 +0000,
cube_r.png,0.1,-0.31,invalid,14,14,0,down,3.517424499965273,None,space,0.4376604999997653,None,,,,,0,14,14,14,,,,,152.5753268999979,,,,,,,,,,,,,152.55960659997072,152.5753268999979,152.5753268999979,152.5753268999979,156.10591939999722,,,,156.11430279997876,156.12481359997764,156.12481359997764,156.17176749999635,156.17203710001195,156.18837659998098,156.18837659998098,156.18837659998098,156.2549571999698,156.63893149996875,,,,,,,,down,3.517424499965273,None,space,0.4376604999997653,None,,,,,,,,,,,,,,,P120,001,2025-02-21_09h11.06.874,posner_endo_new1,2024.2.4,60.08257750078947,2025-02-21 09h11.16.193451 +0000,
cube_l.png,0.1,-0.31,valid,15,15,0,down,4.854325200023595,None,space,0.3961937999702059,None,,,,,0,15,15,15,,,,,156.6545013000141,,,,,,,,,,,,,156.639160599967,156.6545013000141,156.6545013000141,156.6545013000141,161.51717979996465,,,,161.52563920000102,161.53578669996932,161.53578669996932,161.58303089998662,161.58329909999156,161.59954679996008,161.59954679996008,161.59954679996008,161.68269109999528,162.00012199999765,,,,,,,,down,4.854325200023595,None,space,0.3961937999702059,None,,,,,,,,,,,,,,,P120,001,2025-02-21_09h11.06.874,posner_endo_new1,2024.2.4,60.08257750078947,2025-02-21 09h11.16.193451 +0000,
cube_r.png,0.1,10,catch,16,16,0,down,2.605418400024064,None,None,,,,,,,0,16,16,16,,,,,162.0157002999913,,,,,,,,,,,,,162.0003422999871,162.0157002999913,162.0157002999913,162.0157002999913,164.6302634999738,,,,164.63632769999094,164.64797779999208,164.64797779999208,164.69657540001208,164.6967928999802,164.71298700000625,164.71298700000625,164.71298700000625,164.77957489999244,167.71032879996346,,,,166.79385509999702,167.72656759998063,167.72656759998063,167.72656759998063,down,2.605418400024064,None,None,,,,,,,,,,,,,,,,,P120,001,2025-02-21_09h11.06.874,posner_endo_new1,2024.2.4,60.08257750078947,2025-02-21 09h11.16.193451 +0000,
cube_r.png,0.1,10,catch,17,17,0,down,2.6782819000072777,None,None,,,,,,,0,17,17,17,,,,,167.72656759998063,,,,,,,,,,,,,167.71048569999402,167.72656759998063,167.72656759998063,167.72656759998063,170.40786929999013,,,,170.41818149999017,170.43031269998755,170.43031269998755,170.4742314000032,170.47488120000344,170.49065240001073,170.49065240001073,170.49065240001073,170.55723069998203,173.48894989996916,,,,172.57178810000187,173.50424430001294,173.50424430001294,173.50424430001294,down,2.6782819000072777,None,None,,,,,,,,,,,,,,,,,P120,001,2025-02-21_09h11.06.874,posner_endo_new1,2024.2.4,60.08257750078947,2025-02-21 09h11.16.193451 +0000,
cube_l.png,0.1,0.31,invalid,18,18,0,down,0.5970670999959111,None,space,0.6116264999727719,None,,,,,0,18,18,18,,,,,173.50424430001294,,,,,,,,,,,,,173.48950979998335,173.50424430001294,173.50424430001294,173.50424430001294,174.10605419997592,,,,174.12757339997916,174.13983539998299,174.13983539998299,174.169625599985,174.16995000001043,174.18632529996103,174.18632529996103,174.18632529996103,174.2698984000017,174.80387359997258,,,,,,,,down,0.5970670999959111,None,space,0.6116264999727719,None,,,,,,,,,,,,,,,P120,001,2025-02-21_09h11.06.874,posner_endo_new1,2024.2.4,60.08257750078947,2025-02-21 09h11.16.193451 +0000,
cube_l.png,0.1,10,catch,19,19,0,down,2.649767199996859,None,None,,,,,,,0,19,19,19,,,,,174.81935689999955,,,,,,,,,,,,,174.8041470000171,174.81935689999955,174.81935689999955,174.81935689999955,177.48587370000314,,,,177.50764079997316,177.51920310000423,177.51920310000423,177.54959459998645,177.54997629998252,177.56610569998156,177.56610569998156,177.56610569998156,177.64930819999427,180.5640561999753,,,,179.6643025999656,180.58012399997097,180.58012399997097,180.58012399997097,down,2.649767199996859,None,None,,,,,,,,,,,,,,,,,P120,001,2025-02-21_09h11.06.874,posner_endo_new1,2024.2.4,60.08257750078947,2025-02-21 09h11.16.193451 +0000,
cube_l.png,0.1,0.31,invalid,20,20,0,down,0.5938698999816552,None,space,0.4074714999878779,None,,,,,0,20,20,20,,,,,180.58012399997097,,,,,,,,,,,,,180.56425920000765,180.58012399997097,180.58012399997097,180.58012399997097,181.18038380000507,,,,181.18845889996737,181.19918619998498,181.19918619998498,181.24614880001172,181.24641939997673,181.26273819996277,181.26273819996277,181.26273819996277,181.34588069998426,181.67988040001364,,,,,,,,down,0.5938698999816552,None,space,0.4074714999878779,None,,,,,,,,,,,,,,,P120,001,2025-02-21_09h11.06.874,posner_endo_new1,2024.2.4,60.08257750078947,2025-02-21 09h11.16.193451 +0000,
cube_l.png,0.1,-0.31,valid,21,21,0,down,4.020958799985237,None,space,0.42172779998509213,None,,,,,0,21,21,21,,,,,181.69564429996535,,,,,,,,,,,,,181.6801012000069,181.69564429996535,181.69564429996535,181.69564429996535,185.7257157000131,,,,185.73372179997386,185.7445247999858,185.7445247999858,185.79155500000343,185.79182769998442,185.80812150001293,185.80812150001293,185.80812150001293,185.8912987000076,186.24189910001587,,,,,,,,down,4.020958799985237,None,space,0.42172779998509213,None,,,,,,,,,,,,,,,P120,001,2025-02-21_09h11.06.874,posner_endo_new1,2024.2.4,60.08257750078947,2025-02-21 09h11.16.193451 +0000,
cube_r.png,0.1,0.31,valid,22,22,0,down,1.6117366999969818,None,space,0.2922491999925114,None,,,,,0,22,22,22,,,,,186.2576764000114,,,,,,,,,,,,,186.2421267000027,186.2576764000114,186.2576764000114,186.2576764000114,187.87350519996835,,,,187.88148489996092,187.89226140000392,187.89226140000392,187.93934489996172,187.93961439997656,187.95598219998647,187.95598219998647,187.95598219998647,188.03907429997344,188.25644869997632,,,,,,,,down,1.6117366999969818,None,space,0.2922491999925114,None,,,,,,,,,,,,,,,P120,001,2025-02-21_09h11.06.874,posner_endo_new1,2024.2.4,60.08257750078947,2025-02-21 09h11.16.193451 +0000,
cube_r.png,0.1,-0.31,invalid,23,23,0,down,2.989212199987378,None,space,0.49198759999126196,None,,,,,0,23,23,23,,,,,188.27217030001339,,,,,,,,,,,,,188.25667239999166,188.27217030001339,188.27217030001339,188.27217030001339,191.2701870999881,,,,191.2782650999725,191.28870490001282,191.28870490001282,191.3358453999972,191.3361142000067,191.35244639997836,191.35244639997836,191.35244639997836,191.43567979999352,191.85272229998372,,,,,,,,down,2.989212199987378,None,space,0.49198759999126196,None,,,,,,,,,,,,,,,P120,001,2025-02-21_09h11.06.874,posner_endo_new1,2024.2.4,60.08257750078947,2025-02-21 09h11.16.193451 +0000,
cube_r.png,0.1,0.31,valid,24,24,0,down,2.927724599954672,None,space,0.416411500016693,None,,,,,0,24,24,24,,,,,191.8686228999868,,,,,,,,,,,,,191.85294339997927,191.8686228999868,191.8686228999868,191.8686228999868,194.79992049996508,,,,194.80787540000165,194.81852929998422,194.81852929998422,194.86569730000338,194.86596610001288,194.8821494000149,194.8821494000149,194.8821494000149,194.96534369996516,195.29950319998898,,,,,,,,down,2.927724599954672,None,space,0.416411500016693,None,,,,,,,,,,,,,,,P120,001,2025-02-21_09h11.06.874,posner_endo_new1,2024.2.4,60.08257750078947,2025-02-21 09h11.16.193451 +0000,
cube_r.png,0.1,-0.31,invalid,25,25,0,down,5.833305099979043,None,space,0.41757410002173856,None,,,,,0,25,25,25,,,,,195.31499939999776,,,,,,,,,,,,,195.29972469998756,195.31499939999776,195.31499939999776,195.31499939999776,201.16000159998657,,,,201.1681865999708,201.17862729995977,201.17862729995977,201.2257141000009,201.2259862999781,201.24238650000188,201.24238650000188,201.24238650000188,201.3254525999655,201.6762453999836,,,,,,,,down,5.833305099979043,None,space,0.41757410002173856,None,,,,,,,,,,,,,,,P120,001,2025-02-21_09h11.06.874,posner_endo_new1,2024.2.4,60.08257750078947,2025-02-21 09h11.16.193451 +0000,
cube_l.png,0.1,-0.31,valid,26,26,0,down,2.856429100036621,None,space,0.40340249997098,None,,,,,0,26,26,26,,,,,201.69180989998858,,,,,,,,,,,,,201.67646849999437,201.69180989998858,201.69180989998858,201.69180989998858,204.5565207999898,,,,204.56450009997934,204.57515049999347,204.57515049999347,204.62227439996786,204.62254509999184,204.63890570000513,204.63890570000513,204.63890570000513,204.7220609000069,205.0560331000015,,,,,,,,down,2.856429100036621,None,space,0.40340249997098,None,,,,,,,,,,,,,,,P120,001,2025-02-21_09h11.06.874,posner_endo_new1,2024.2.4,60.08257750078947,2025-02-21 09h11.16.193451 +0000,
cube_r.png,0.1,0.31,valid,27,27,0,down,3.085608699999284,None,space,0.418428800010588,None,,,,,0,27,27,27,,,,,205.0716994999675,,,,,,,,,,,,,205.0562597999815,205.0716994999675,205.0716994999675,205.0716994999675,208.16945739998482,,,,208.17747220001183,208.18816510000033,208.18816510000033,208.23528590000933,208.23555599997053,208.25190099998144,208.25190099998144,208.25190099998144,208.33503809996182,208.68556820001686,,,,,,,,down,3.085608699999284,None,space,0.418428800010588,None,,,,,,,,,,,,,,,P120,001,2025-02-21_09h11.06.874,posner_endo_new1,2024.2.4,60.08257750078947,2025-02-21 09h11.16.193451 +0000,
cube_r.png,0.1,10,catch,28,28,0,down,3.4796409999835305,None,None,,,,,,,0,28,28,28,,,,,208.7013156999601,,,,,,,,,,,,,208.68578970001545,208.7013156999601,208.7013156999601,208.7013156999601,212.1822061999701,,,,212.1902111999807,212.2007350999629,212.2007350999629,212.2479131,212.24818809999852,212.26439259998733,212.26439259998733,212.26439259998733,212.34757099999115,215.26199209998595,,,,214.3622566999984,215.27791080001043,215.27791080001043,215.27791080001043,down,3.4796409999835305,None,None,,,,,,,,,,,,,,,,,P120,001,2025-02-21_09h11.06.874,posner_endo_new1,2024.2.4,60.08257750078947,2025-02-21 09h11.16.193451 +0000,
cube_r.png,0.1,0.31,valid,29,29,0,down,2.078847799974028,None,space,0.4515587999485433,None,,,,,0,29,29,29,,,,,215.27791080001043,,,,,,,,,,,,,215.26219859998673,215.27791080001043,215.27791080001043,215.27791080001043,217.36010029999306,,,,217.36812170001213,217.37882509996416,217.37882509996416,217.425790600013,217.4260595999658,217.4424646999687,217.4424646999687,217.4424646999687,217.52564619999612,217.9095995000098,,,,,,,,down,2.078847799974028,None,space,0.4515587999485433,None,,,,,,,,,,,,,,,P120,001,2025-02-21_09h11.06.874,posner_endo_new1,2024.2.4,60.08257750078947,2025-02-21 09h11.16.193451 +0000,
cube_r.png,0.1,0.31,valid,30,30,0,down,3.127177100046538,None,space,0.469787499983795,None,,,,,0,30,30,30,,,,,217.92526009998983,,,,,,,,,,,,,217.9098199,217.92526009998983,217.92526009998983,217.92526009998983,221.05648400000064,,,,221.06450599996606,221.0750847000163,221.0750847000163,221.12212549999822,221.12239420000697,221.1387328999699,221.1387328999699,221.1387328999699,221.22180050000316,221.62237200001255,,,,,,,,down,3.127177100046538,None,space,0.469787499983795,None,,,,,,,,,,,,,,,P120,001,2025-02-21_09h11.06.874,posner_endo_new1,2024.2.4,60.08257750078947,2025-02-21 09h11.16.193451 +0000,
cube_l.png,0.1,-0.31,valid,31,31,0,down,3.0310914000147022,None,space,0.5080509000108577,None,,,,,0,31,31,31,,,,,221.63817399996333,,,,,,,,,,,,,221.62259939999785,221.63817399996333,221.63817399996333,221.63817399996333,224.6859412000049,,,,224.69393060001312,224.7046449999907,224.7046449999907,224.75165109999944,224.7519195000059,224.76825590000954,224.76825590000954,224.76825590000954,224.85142520000227,225.28544329997385,,,,,,,,down,3.0310914000147022,None,space,0.5080509000108577,None,,,,,,,,,,,,,,,P120,001,2025-02-21_09h11.06.874,posner_endo_new1,2024.2.4,60.08257750078947,2025-02-21 09h11.16.193451 +0000,
cube_r.png,0.1,0.31,valid,32,32,0,down,3.3836494000279345,None,space,0.3591931000119075,None,,,,,0,32,32,32,,,,,225.30104039999424,,,,,,,,,,,,,225.2856643999694,225.30104039999424,225.30104039999424,225.30104039999424,228.69851309998194,,,,228.7065150999697,228.71719060000032,228.71719060000032,228.76421980001032,228.76448909996543,228.7808962999843,228.7808962999843,228.7808962999843,228.86419569997815,229.1480501999613,,,,,,,,down,3.3836494000279345,None,space,0.3591931000119075,None,,,,,,,,,,,,,,,P120,001,2025-02-21_09h11.06.874,posner_endo_new1,2024.2.4,60.08257750078947,2025-02-21 09h11.16.193451 +0000,
cube_r.png,0.1,-0.31,invalid,33,33,0,down,2.3128116999869235,None,space,0.4081438999855891,None,,,,,0,33,33,33,,,,,229.1637910999707,,,,,,,,,,,,,229.14827259996673,229.1637910999707,229.1637910999707,229.1637910999707,231.47906859999057,,,,231.48705429997062,231.4977848000126,231.4977848000126,231.54481920000399,231.54509939998388,231.5614007000113,231.5614007000113,231.5614007000113,231.64458009996451,231.97861749998992,,,,,,,,down,2.3128116999869235,None,space,0.4081438999855891,None,,,,,,,,,,,,,,,P120,001,2025-02-21_09h11.06.874,posner_endo_new1,2024.2.4,60.08257750078947,2025-02-21 09h11.16.193451 +0000,
cube_r.png,0.1,10,catch,34,34,0,down,3.747022800031118,None,None,,,,,,,0,34,34,34,,,,,231.9942369000055,,,,,,,,,,,,,231.9788400999969,231.9942369000055,231.9942369000055,231.9942369000055,235.7580075999722,,,,235.7660553000169,235.7762777999742,235.7762777999742,235.82379619998392,235.82406849996187,235.84017350000795,235.84017350000795,235.84017350000795,235.92353229998844,238.83781669999007,,,,237.93811380001716,238.8539295999799,238.8539295999799,238.8539295999799,down,3.747022800031118,None,None,,,,,,,,,,,,,,,,,P120,001,2025-02-21_09h11.06.874,posner_endo_new1,2024.2.4,60.08257750078947,2025-02-21 09h11.16.193451 +0000,
cube_r.png,0.1,0.31,valid,35,35,0,down,0.814564700005576,None,space,0.41727480001281947,None,,,,,0,35,35,35,,,,,238.8539295999799,,,,,,,,,,,,,238.8380227999878,238.8539295999799,238.8539295999799,238.8539295999799,239.67081979999784,,,,239.67878509999719,239.68923509999877,239.68923509999877,239.73639859998366,239.73666930000763,239.75309159996687,239.75309159996687,239.75309159996687,239.8362230999628,240.18677829997614,,,,,,,,down,0.814564700005576,None,space,0.41727480001281947,None,,,,,,,,,,,,,,,P120,001,2025-02-21_09h11.06.874,posner_endo_new1,2024.2.4,60.08257750078947,2025-02-21 09h11.16.193451 +0000,
cube_r.png,0.1,-0.31,invalid,36,36,0,down,3.8742099999799393,None,space,0.6039593999739736,None,,,,,0,36,36,36,,,,,240.20244909997564,,,,,,,,,,,,,240.18700099998387,240.20244909997564,240.20244909997564,240.20244909997564,244.08298169996124,,,,244.0909489999758,244.1015153999906,244.1015153999906,244.1487226000172,244.14899829996284,244.1652241999982,244.1652241999982,244.1652241999982,244.2483226999757,244.7820020999643,,,,,,,,down,3.8742099999799393,None,space,0.6039593999739736,None,,,,,,,,,,,,,,,P120,001,2025-02-21_09h11.06.874,posner_endo_new1,2024.2.4,60.08257750078947,2025-02-21 09h11.16.193451 +0000,
cube_l.png,0.1,0.31,invalid,37,37,0,down,7.42282180004986,None,space,0.681987099989783,None,,,,,0,37,37,37,,,,,244.7978221999947,,,,,,,,,,,,,244.7822426999919,244.7978221999947,244.7978221999947,244.7978221999947,252.22447989997454,,,,252.23252189997584,252.2432678999612,252.2432678999612,252.2904014000087,252.290680599981,252.30682170001091,252.30682170001091,252.30682170001091,252.38999349996448,252.99060650001047,,,,,,,,down,7.42282180004986,None,space,0.681987099989783,None,,,,,,,,,,,,,,,P120,001,2025-02-21_09h11.06.874,posner_endo_new1,2024.2.4,60.08257750078947,2025-02-21 09h11.16.193451 +0000,
cube_l.png,0.1,0.31,invalid,38,38,0,down,2.07104629999958,None,space,0.4396398999961093,None,,,,,0,38,38,38,,,,,253.00596629997017,,,,,,,,,,,,,252.9908397999825,253.00596629997017,253.00596629997017,253.00596629997017,255.08790009998484,,,,255.09586409997428,255.10691309999675,255.10691309999675,255.1540598999709,255.15434020000976,255.17046850000042,255.17046850000042,255.17046850000042,255.23709349997807,255.62092909996863,,,,,,,,down,2.07104629999958,None,space,0.4396398999961093,None,,,,,,,,,,,,,,,P120,001,2025-02-21_09h11.06.874,posner_endo_new1,2024.2.4,60.08257750078947,2025-02-21 09h11.16.193451 +0000,
cube_r.png,0.1,0.31,valid,39,39,0,down,3.959843799995724,None,space,0.39093359996331856,None,,,,,0,39,39,39,,,,,255.6367450999678,,,,,,,,,,,,,255.62115209997864,255.6367450999678,255.6367450999678,255.6367450999678,259.6003881999641,,,,259.6084003999713,259.61880210001254,259.61880210001254,259.66609179996885,259.66636350000044,259.68259469995974,259.68259469995974,259.68259469995974,259.76584790000925,260.08310869999696,,,,,,,,down,3.959843799995724,None,space,0.39093359996331856,None,,,,,,,,,,,,,,,P120,001,2025-02-21_09h11.06.874,posner_endo_new1,2024.2.4,60.08257750078947,2025-02-21 09h11.16.193451 +0000,
cube_l.png,0.1,0.31,invalid,40,40,0,down,3.3697132999659516,None,space,0.4544705000007525,None,,,,,0,40,40,40,,,,,260.09868349996395,,,,,,,,,,,,,260.0833276999765,260.09868349996395,260.09868349996395,260.09868349996395,263.47964089998277,,,,263.487670100003,263.4982428000076,263.4982428000076,263.54543399997056,263.5457026999793,263.5620230999775,263.5620230999775,263.5620230999775,263.64526560000377,264.0290986999753,,,,,,,,down,3.3697132999659516,None,space,0.4544705000007525,None,,,,,,,,,,,,,,,P120,001,2025-02-21_09h11.06.874,posner_endo_new1,2024.2.4,60.08257750078947,2025-02-21 09h11.16.193451 +0000,
cube_l.png,0.1,10,catch,41,41,0,down,8.952159799984656,None,None,,,,,,,0,41,41,41,,,,,264.04480480001075,,,,,,,,,,,,,264.0293200999731,264.04480480001075,264.04480480001075,264.04480480001075,273.0032511000172,,,,273.0112814999884,273.0220274999738,273.0220274999738,273.0689915000112,273.06926269998075,273.08564289996866,273.08564289996866,273.08564289996866,273.16879189998144,276.0831116999616,,,,275.1834536999813,276.09905809996417,276.09905809996417,276.09905809996417,down,8.952159799984656,None,None,,,,,,,,,,,,,,,,,P120,001,2025-02-21_09h11.06.874,posner_endo_new1,2024.2.4,60.08257750078947,2025-02-21 09h11.16.193451 +0000,
cube_l.png,0.1,-0.31,valid,42,42,0,down,1.0670360999647528,None,space,0.5176874000462703,None,,,,,0,42,42,42,,,,,276.09905809996417,,,,,,,,,,,,,276.08331519999774,276.09905809996417,276.09905809996417,276.09905809996417,277.18243049999,,,,277.1904904000112,277.20106749999104,277.20106749999104,277.24816129996907,277.2484347000136,277.26455989998067,277.26455989998067,277.26455989998067,277.3478996999911,277.7985171999899,,,,,,,,down,1.0670360999647528,None,space,0.5176874000462703,None,,,,,,,,,,,,,,,P120,001,2025-02-21_09h11.06.874,posner_endo_new1,2024.2.4,60.08257750078947,2025-02-21 09h11.16.193451 +0000,
cube_l.png,0.1,10,catch,43,43,0,down,4.856259900028817,None,None,,,,,,,0,43,43,43,,,,,277.8139707999653,,,,,,,,,,,,,277.7987340000109,277.8139707999653,277.8139707999653,277.8139707999653,282.6768302000128,,,,282.6848416000139,282.69542339997133,282.69542339997133,282.7424653999624,282.7427356999833,282.759032699978,282.759032699978,282.759032699978,282.84230019996176,285.7564857999678,,,,284.8569548999658,285.77262010000413,285.77262010000413,285.77262010000413,down,4.856259900028817,None,None,,,,,,,,,,,,,,,,,P120,001,2025-02-21_09h11.06.874,posner_endo_new1,2024.2.4,60.08257750078947,2025-02-21 09h11.16.193451 +0000,
cube_l.png,0.1,0.31,invalid,44,44,0,down,5.6324872999684885,None,space,0.47741699998732656,None,,,,,0,44,44,44,,,,,285.77262010000413,,,,,,,,,,,,,285.75669309997465,285.77262010000413,285.77262010000413,285.77262010000413,291.4178271999699,,,,291.42584859998897,291.4364843000076,291.4364843000076,291.4834755999618,291.4837460999843,291.4999261999619,291.4999261999619,291.4999261999619,291.583273599972,291.98393629997736,,,,,,,,down,5.6324872999684885,None,space,0.47741699998732656,None,,,,,,,,,,,,,,,P120,001,2025-02-21_09h11.06.874,posner_endo_new1,2024.2.4,60.08257750078947,2025-02-21 09h11.16.193451 +0000,
cube_l.png,0.1,0.31,invalid,45,45,0,down,3.301022500032559,None,space,0.567125000001397,None,,,,,0,45,45,45,,,,,291.99955030001,,,,,,,,,,,,,291.9841571999714,291.99955030001,291.99955030001,291.99955030001,295.31373449997045,,,,295.3217801999999,295.3325759000145,295.3325759000145,295.3795776999905,295.3798485000152,295.39620720001403,295.39620720001403,295.39620720001403,295.4793479999644,295.97963399998844,,,,,,,,down,3.301022500032559,None,space,0.567125000001397,None,,,,,,,,,,,,,,,P120,001,2025-02-21_09h11.06.874,posner_endo_new1,2024.2.4,60.08257750078947,2025-02-21 09h11.16.193451 +0000,
cube_r.png,0.1,0.31,valid,46,46,0,down,2.4826017000013962,None,space,0.35494250000920147,None,,,,,0,46,46,46,,,,,295.9952937999624,,,,,,,,,,,,,295.9798512000125,295.9952937999624,295.9952937999624,295.9952937999624,298.49390509998193,,,,298.50194340001326,298.5125379000092,298.5125379000092,298.5596682999749,298.5599471000023,298.5761871999712,298.5761871999712,298.5761871999712,298.6594530000002,298.9434498999617,,,,,,,,down,2.4826017000013962,None,space,0.35494250000920147,None,,,,,,,,,,,,,,,P120,001,2025-02-21_09h11.06.874,posner_endo_new1,2024.2.4,60.08257750078947,2025-02-21 09h11.16.193451 +0000,
cube_l.png,0.1,-0.31,valid,47,47,0,down,3.437786899972707,None,space,0.3695397999836132,None,,,,,0,47,47,47,,,,,298.9590758999693,,,,,,,,,,,,,298.94366839999566,298.9590758999693,298.9590758999693,298.9590758999693,302.4065793000045,,,,302.41458989999956,302.42516479996266,302.42516479996266,302.4724077999708,302.47267940000165,302.4888824999798,302.4888824999798,302.4888824999798,302.57205359998625,302.87270259996876,,,,,,,,down,3.437786899972707,None,space,0.3695397999836132,None,,,,,,,,,,,,,,,P120,001,2025-02-21_09h11.06.874,posner_endo_new1,2024.2.4,60.08257750078947,2025-02-21 09h11.16.193451 +0000,
cube_r.png,0.1,-0.31,invalid,48,48,0,down,2.652239399962127,None,space,0.3411813999991864,None,,,,,0,48,48,48,,,,,302.8885139999911,,,,,,,,,,,,,302.8729203999974,302.8885139999911,302.8885139999911,302.8885139999911,305.55336029996397,,,,305.5613147999975,305.5720350999618,305.5720350999618,305.61909549997654,305.61936609999975,305.6356374999741,305.6356374999741,305.6356374999741,305.71892159996787,305.98621259996435,,,,,,,,down,2.652239399962127,None,space,0.3411813999991864,None,,,,,,,,,,,,,,,P120,001,2025-02-21_09h11.06.874,posner_endo_new1,2024.2.4,60.08257750078947,2025-02-21 09h11.16.193451 +0000,
cube_r.png,0.1,10,catch,49,49,0,down,3.298787000006996,None,None,,,,,,,0,49,49,49,,,,,306.0020637999987,,,,,,,,,,,,,305.98642759997165,306.0020637999987,306.0020637999987,306.0020637999987,309.31614710000576,,,,309.32409289997304,309.33470399997896,309.33470399997896,309.38208999997005,309.3823684999952,309.39842649997445,309.39842649997445,309.39842649997445,309.48164710000856,312.39610929996707,,,,311.4963818999822,312.4120642999769,312.4120642999769,312.4120642999769,down,3.298787000006996,None,None,,,,,,,,,,,,,,,,,P120,001,2025-02-21_09h11.06.874,posner_endo_new1,2024.2.4,60.08257750078947,2025-02-21 09h11.16.193451 +0000,
cube_l.png,0.1,-0.31,valid,50,50,0,down,0.7689424999989569,None,space,0.466040899977088,None,,,,,0,50,50,50,,,,,312.4120642999769,,,,,,,,,,,,,312.39631919999374,312.4120642999769,312.4120642999769,312.4120642999769,313.19552609999664,,,,313.2035326999612,313.21426849998534,313.21426849998534,313.26137319998816,313.2616416999954,313.2779406000045,313.2779406000045,313.2779406000045,313.3610977999633,313.7450633000117,,,,,,,,down,0.7689424999989569,None,space,0.466040899977088,None,,,,,,,,,,,,,,,P120,001,2025-02-21_09h11.06.874,posner_endo_new1,2024.2.4,60.08257750078947,2025-02-21 09h11.16.193451 +0000,
cube_l.png,0.1,-0.31,valid,51,51,0,down,3.0039382000104524,None,space,0.33034450002014637,None,,,,,0,51,51,51,,,,,313.76076189999003,,,,,,,,,,,,,313.74529829999665,313.76076189999003,313.76076189999003,313.76076189999003,316.77524659998016,,,,316.78345960000297,316.79383039998356,316.79383039998356,316.8408899999922,316.8411583999987,316.85757100000046,316.85757100000046,316.85757100000046,316.94080899999244,317.1915565999807,,,,,,,,down,3.0039382000104524,None,space,0.33034450002014637,None,,,,,,,,,,,,,,,P120,001,2025-02-21_09h11.06.874,posner_endo_new1,2024.2.4,60.08257750078947,2025-02-21 09h11.16.193451 +0000,
cube_r.png,0.1,-0.31,invalid,52,52,0,down,3.093581900000572,None,space,0.5254587999661453,None,,,,,0,52,52,52,,,,,317.2071810999769,,,,,,,,,,,,,317.19177400000626,317.2071810999769,317.2071810999769,317.2071810999769,320.304920799972,,,,320.31292389996815,320.32364909996977,320.32364909996977,320.3707751999609,320.3710437999689,320.3873325000168,320.3873325000168,320.3873325000168,320.47053709998727,320.92079309996916,,,,,,,,down,3.093581900000572,None,space,0.5254587999661453,None,,,,,,,,,,,,,,,P120,001,2025-02-21_09h11.06.874,posner_endo_new1,2024.2.4,60.08257750078947,2025-02-21 09h11.16.193451 +0000,
cube_l.png,0.1,-0.31,valid,53,53,0,down,11.508702199964318,None,space,0.40793480002321303,None,,,,,0,53,53,53,,,,,320.93664189998526,,,,,,,,,,,,,320.92100989999017,320.93664189998526,320.93664189998526,320.93664189998526,332.4589807000011,,,,332.4647161999601,332.4767237000051,332.4767237000051,332.52504849998513,332.5252676999662,332.54132339998614,332.54132339998614,332.54132339998614,332.60804219997954,332.95830639998894,,,,,,,,down,11.508702199964318,None,space,0.40793480002321303,None,,,,,,,,,,,,,,,P120,001,2025-02-21_09h11.06.874,posner_endo_new1,2024.2.4,60.08257750078947,2025-02-21 09h11.16.193451 +0000,
cube_r.png,0.1,10,catch,54,54,0,down,2.646339600032661,None,None,,,,,,,0,54,54,54,,,,,332.97471430001315,,,,,,,,,,,,,332.95847339998,332.97471430001315,332.97471430001315,332.97471430001315,335.62292719999095,,,,335.6320696999901,335.64221839996753,335.64221839996753,335.6883636999992,335.68866280000657,335.7048504999839,335.7048504999839,335.7048504999839,335.788120799989,338.7025535000139,,,,337.8027483999613,338.7184903000016,338.7184903000016,338.7184903000016,down,2.646339600032661,None,None,,,,,,,,,,,,,,,,,P120,001,2025-02-21_09h11.06.874,posner_endo_new1,2024.2.4,60.08257750078947,2025-02-21 09h11.16.193451 +0000,
cube_l.png,0.1,0.31,invalid,55,55,0,down,6.614347200025804,None,space,0.4494385999860242,None,,,,,0,55,55,55,,,,,338.7184903000016,,,,,,,,,,,,,338.7027934999787,338.7184903000016,338.7184903000016,338.7184903000016,345.34621290001087,,,,345.35536429996137,345.3655634999741,345.3655634999741,345.41178429999854,345.4120852999622,345.42835419997573,345.42835419997573,345.42835419997573,345.51162569998996,345.87898599996697,,,,,,,,down,6.614347200025804,None,space,0.4494385999860242,None,,,,,,,,,,,,,,,P120,001,2025-02-21_09h11.06.874,posner_endo_new1,2024.2.4,60.08257750078947,2025-02-21 09h11.16.193451 +0000,
cube_l.png,0.1,-0.31,valid,56,56,0,down,4.0623852999997325,None,space,0.4154473000089638,None,,,,,0,56,56,56,,,,,345.89453629998025,,,,,,,,,,,,,345.8792306999676,345.89453629998025,345.89453629998025,345.89453629998025,349.9582255000132,,,,349.9675034999964,349.9780656999792,349.9780656999792,350.0238614999689,350.02416279999306,350.0403104000143,350.0403104000143,350.0403104000143,350.1234948000056,350.4577644999954,,,,,,,,down,4.0623852999997325,None,space,0.4154473000089638,None,,,,,,,,,,,,,,,P120,001,2025-02-21_09h11.06.874,posner_endo_new1,2024.2.4,60.08257750078947,2025-02-21 09h11.16.193451 +0000,
cube_r.png,0.1,0.31,valid,57,57,0,down,4.179899199982174,None,space,0.34533789998386055,None,,,,,0,57,57,57,,,,,350.4735330999829,,,,,,,,,,,,,350.45800889999373,350.4735330999829,350.4735330999829,350.4735330999829,354.66994419996627,,,,354.6791182999732,354.68912619998446,354.68912619998446,354.73572359996615,354.7360198000097,354.7522278999677,354.7522278999677,354.7522278999677,354.8354340000078,355.1028586999746,,,,,,,,down,4.179899199982174,None,space,0.34533789998386055,None,,,,,,,,,,,,,,,P120,001,2025-02-21_09h11.06.874,posner_endo_new1,2024.2.4,60.08257750078947,2025-02-21 09h11.16.193451 +0000,
cube_r.png,0.1,-0.31,invalid,58,58,0,down,6.25502460001735,None,space,0.6154738999903202,None,,,,,0,58,58,58,,,,,355.1183505000081,,,,,,,,,,,,,355.1031021999661,355.1183505000081,355.1183505000081,355.1183505000081,361.379842299968,,,,361.38903139997274,361.3992419000133,361.3992419000133,361.44542880001245,361.4457281999639,361.4619418999646,361.4619418999646,361.4619418999646,361.5451598999789,362.0793230999843,,,,,,,,down,6.25502460001735,None,space,0.6154738999903202,None,,,,,,,,,,,,,,,P120,001,2025-02-21_09h11.06.874,posner_endo_new1,2024.2.4,60.08257750078947,2025-02-21 09h11.16.193451 +0000,
cube_l.png,0.1,0.31,invalid,59,59,0,down,15.310159200045746,None,space,0.5252326000481844,None,,,,,0,59,59,59,,,,,362.0946324999677,,,,,,,,,,,,,362.07957399997395,362.0946324999677,362.0946324999677,362.0946324999677,377.4133933999692,,,,377.42266219999874,377.4329411999788,377.4329411999788,377.47918560000835,377.47948310000356,377.495561299962,377.495561299962,377.495561299962,377.5788132000016,378.02946160000283,,,,,,,,down,15.310159200045746,None,space,0.5252326000481844,None,,,,,,,,,,,,,,,P120,001,2025-02-21_09h11.06.874,posner_endo_new1,2024.2.4,60.08257750078947,2025-02-21 09h11.16.193451 +0000,
,,,,,,,,,,,,,,,,,,,,,,,,,,,,,,,,,,,,,,,,,,,,,,,,,,,,,,,,,,,,,,,,,,,,,378.02962350001326,378.04501589998836,378.04501589998836,438.0504032999743,443.4457005999866,space,65.38373409997439,None,,,,,,,P120,001,2025-02-21_09h11.06.874,posner_endo_new1,2024.2.4,60.08257750078947,2025-02-21 09h11.16.193451 +0000,
,,,,,,,,,,,,,,,,,,,,,,,,,,,,,,,,,,443.445770499995,443.4614776999806,446.4752709000022,446.44233799999347,,,,,,,,,,,,,,,,,,,,,,,,,,,,,,,,,,,,,,,,,,,,,,P120,001,2025-02-21_09h11.06.874,posner_endo_new1,2024.2.4,60.08257750078947,2025-02-21 09h11.16.193451 +0000,
cube_l.png,0.1,10,catch,0,0,0,up,7.033803199999966,None,None,,,,,,,,,,,0,0,0,0,446.4752709000022,,,,,,,,,,,,,446.4658185999724,446.4752709000022,446.4752709000022,446.4752709000022,453.5189728999976,,,,453.52849389996845,453.5387410999974,453.5387410999974,453.58472320000874,453.5850305999629,453.60122549999505,453.60122549999505,453.60122549999505,453.6844207000104,456.5986216000165,,,,455.699002999987,456.61476359999506,456.61476359999506,456.61476359999506,,,,,,,,,,,,,,,up,7.033803199999966,None,None,,,P120,001,2025-02-21_09h11.06.874,posner_endo_new1,2024.2.4,60.08257750078947,2025-02-21 09h11.16.193451 +0000,
cube_l.png,0.1,10,catch,1,1,0,up,0.2624229000066407,None,None,,,,,,,,,,,0,1,1,1,456.61476359999506,,,,,,,,,,,,,456.59885559999384,456.61476359999506,456.61476359999506,456.61476359999506,456.88232079998124,,,,456.8914340999909,456.9016368999728,456.9016368999728,456.9479064999614,456.94820990000153,456.96431040001335,456.96431040001335,456.96431040001335,457.04770669998834,459.9619227999938,,,,459.0622233999893,459.9780123999808,459.9780123999808,459.9780123999808,,,,,,,,,,,,,,,up,0.2624229000066407,None,None,,,P120,001,2025-02-21_09h11.06.874,posner_endo_new1,2024.2.4,60.08257750078947,2025-02-21 09h11.16.193451 +0000,
cube_l.png,0.1,0.31,invalid,2,2,0,up,2.9788927999907173,None,space,0.7057471000007354,None,,,,,,,,,0,2,2,2,459.9780123999808,,,,,,,,,,,,,459.9621567999711,459.9780123999808,459.9780123999808,459.9780123999808,462.9593845999916,,,,462.9686560999835,462.97886939998716,462.97886939998716,463.02492789999815,463.02522519999184,463.0415226999903,463.0415226999903,463.0415226999903,463.1248085999978,463.7584228999913,,,,,,,,,,,,,,,,,,,,,,up,2.9788927999907173,None,space,0.7057471000007354,None,P120,001,2025-02-21_09h11.06.874,posner_endo_new1,2024.2.4,60.08257750078947,2025-02-21 09h11.16.193451 +0000,
cube_l.png,0.1,0.31,invalid,3,3,0,up,6.487799299997278,None,space,0.39403190003940836,None,,,,,,,,,0,3,3,3,463.77401349996217,,,,,,,,,,,,,463.75867319997633,463.77401349996217,463.77401349996217,463.77401349996217,470.268445099995,,,,470.2777005999815,470.2879286999814,470.2879286999814,470.33411880000494,470.334417200007,470.3506394000142,470.3506394000142,470.3506394000142,470.43389419995947,470.7514102999703,,,,,,,,,,,,,,,,,,,,,,up,6.487799299997278,None,space,0.39403190003940836,None,P120,001,2025-02-21_09h11.06.874,posner_endo_new1,2024.2.4,60.08257750078947,2025-02-21 09h11.16.193451 +0000,
cube_l.png,0.1,-0.31,valid,4,4,0,up,2.638263200002257,None,space,0.3186549000092782,None,,,,,,,,,0,4,4,4,470.76687709998805,,,,,,,,,,,,,470.7516715999809,470.76687709998805,470.76687709998805,470.76687709998805,473.4153168000048,,,,473.4245433000033,473.43462079996243,473.43462079996243,473.4810722999973,473.48137539997697,473.4974662999739,473.4974662999739,473.4974662999739,473.5807963999687,473.8316014999873,,,,,,,,,,,,,,,,,,,,,,up,2.638263200002257,None,space,0.3186549000092782,None,P120,001,2025-02-21_09h11.06.874,posner_endo_new1,2024.2.4,60.08257750078947,2025-02-21 09h11.16.193451 +0000,
cube_r.png,0.1,-0.31,invalid,5,5,0,up,3.621981100004632,None,space,0.5068587000132538,None,,,,,,,,,0,5,5,5,473.84702200000174,,,,,,,,,,,,,473.8318519999739,473.84702200000174,473.84702200000174,473.84702200000174,477.478064099967,,,,477.4871906999615,477.49732229998335,477.49732229998335,477.54347309999866,477.54377039999235,477.5600009000045,477.5600009000045,477.5600009000045,477.64331219997257,478.07701959996484,,,,,,,,,,,,,,,,,,,,,,up,3.621981100004632,None,space,0.5068587000132538,None,P120,001,2025-02-21_09h11.06.874,posner_endo_new1,2024.2.4,60.08257750078947,2025-02-21 09h11.16.193451 +0000,
cube_r.png,0.1,0.31,valid,6,6,0,up,2.888711499981582,None,space,0.27967670001089573,None,,,,,,,,,0,6,6,6,478.092797899968,,,,,,,,,,,,,478.0772699000081,478.092797899968,478.092797899968,478.092797899968,480.99098870001035,,,,481.00007359997835,481.0102804999915,481.0102804999915,481.05667069996707,481.05696789996,481.07309289998375,481.07309289998375,481.07309289998375,481.1563226999715,481.35736149997683,,,,,,,,,,,,,,,,,,,,,,up,2.888711499981582,None,space,0.27967670001089573,None,P120,001,2025-02-21_09h11.06.874,posner_endo_new1,2024.2.4,60.08257750078947,2025-02-21 09h11.16.193451 +0000,
cube_r.png,0.1,-0.31,invalid,7,7,0,up,2.8966524999705143,None,space,0.3844977999688126,None,,,,,,,,,0,7,7,7,481.3727778000175,,,,,,,,,,,,,481.3576155999908,481.3727778000175,481.3727778000175,481.3727778000175,484.2710473999614,,,,484.28017230000114,484.2903084999998,484.2903084999998,484.33655419998104,484.3368525999831,484.35309019999113,484.35309019999113,484.35309019999113,484.4362791000167,484.7535889999708,,,,,,,,,,,,,,,,,,,,,,up,2.8966524999705143,None,space,0.3844977999688126,None,P120,001,2025-02-21_09h11.06.874,posner_endo_new1,2024.2.4,60.08257750078947,2025-02-21 09h11.16.193451 +0000,
cube_l.png,0.1,-0.31,valid,8,8,0,up,2.827775300014764,None,space,0.35603849997278303,None,,,,,,,,,0,8,8,8,484.7693100000033,,,,,,,,,,,,,484.75383910001256,484.7693100000033,484.7693100000033,484.7693100000033,487.6009664000012,,,,487.6101296999841,487.6203721999773,487.6203721999773,487.66645319998497,487.6667480999604,487.68297239998356,487.68297239998356,487.68297239998356,487.766216399963,488.0501680999878,,,,,,,,,,,,,,,,,,,,,,up,2.827775300014764,None,space,0.35603849997278303,None,P120,001,2025-02-21_09h11.06.874,posner_endo_new1,2024.2.4,60.08257750078947,2025-02-21 09h11.16.193451 +0000,
cube_r.png,0.1,-0.31,invalid,9,9,0,up,3.051664900034666,None,space,0.43215690000215545,None,,,,,,,,,0,9,9,9,488.06596009997884,,,,,,,,,,,,,488.05041889997665,488.06596009997884,488.06596009997884,488.06596009997884,491.1305127000087,,,,491.1396397000062,491.14987789996667,491.14987789996667,491.19617879996076,491.19647670001723,491.212661699974,491.212661699974,491.212661699974,491.29588759999024,491.64673109998694,,,,,,,,,,,,,,,,,,,,,,up,3.051664900034666,None,space,0.43215690000215545,None,P120,001,2025-02-21_09h11.06.874,posner_endo_new1,2024.2.4,60.08257750078947,2025-02-21 09h11.16.193451 +0000,
cube_l.png,0.1,0.31,invalid,10,10,0,up,2.551377700001467,None,space,0.29918430000543594,None,,,,,,,,,0,10,10,10,491.66221969999606,,,,,,,,,,,,,491.64697989996057,491.66221969999606,491.66221969999606,491.66221969999606,494.22738820000086,,,,494.2365626000101,494.2467704999726,494.2467704999726,494.29311189998407,494.2934088999755,494.3093441000092,494.3093441000092,494.3093441000092,494.39285589999054,494.6105075000087,,,,,,,,,,,,,,,,,,,,,,up,2.551377700001467,None,space,0.29918430000543594,None,P120,001,2025-02-21_09h11.06.874,posner_endo_new1,2024.2.4,60.08257750078947,2025-02-21 09h11.16.193451 +0000,
cube_r.png,0.1,-0.31,invalid,11,11,0,up,3.099545400007628,None,space,0.40161999996053055,None,,,,,,,,,0,11,11,11,494.62584409996634,,,,,,,,,,,,,494.61075699998764,494.62584409996634,494.62584409996634,494.62584409996634,497.7402884999756,,,,497.7493926999741,497.75957920000656,497.75957920000656,497.8062449999852,497.80654610000784,497.8226357999956,497.8226357999956,497.8226357999956,497.90590369998245,498.23986629996216,,,,,,,,,,,,,,,,,,,,,,up,3.099545400007628,None,space,0.40161999996053055,None,P120,001,2025-02-21_09h11.06.874,posner_endo_new1,2024.2.4,60.08257750078947,2025-02-21 09h11.16.193451 +0000,
cube_r.png,0.1,0.31,valid,12,12,0,up,2.8063061999855563,None,space,0.4403260000399314,None,,,,,,,,,0,12,12,12,498.2555951999966,,,,,,,,,,,,,498.2401175000123,498.2555951999966,498.2555951999966,498.2555951999966,501.0704159999732,,,,501.079474499973,501.0897251999704,501.0897251999704,501.1359435999766,501.1362421999802,501.15257569996174,501.15257569996174,501.15257569996174,501.2358196999994,501.6031018999638,,,,,,,,,,,,,,,,,,,,,,up,2.8063061999855563,None,space,0.4403260000399314,None,P120,001,2025-02-21_09h11.06.874,posner_endo_new1,2024.2.4,60.08257750078947,2025-02-21 09h11.16.193451 +0000,
cube_l.png,0.1,10,catch,13,13,0,up,2.7629672999610193,None,space,0.2830711000133306,None,,,,,,,,,0,13,13,13,501.6187975999783,,,,,,,,,,,,,501.6033502999926,501.6187975999783,501.6187975999783,501.6187975999783,504.3837407999672,,,,504.39277979999315,504.4029420000152,504.4029420000152,504.4494043000159,504.4497030999628,504.46583269996336,504.46583269996336,504.46583269996336,504.54903389996616,504.75007770000957,,,,,,,,,,,,,,,,,,,,,,up,2.7629672999610193,None,space,0.2830711000133306,None,P120,001,2025-02-21_09h11.06.874,posner_endo_new1,2024.2.4,60.08257750078947,2025-02-21 09h11.16.193451 +0000,
cube_r.png,0.1,-0.31,invalid,14,14,0,up,3.2160829000058584,None,space,0.5560326000559144,None,,,,,,,,,0,14,14,14,504.7655781999929,,,,,,,,,,,,,504.75033650000114,504.7655781999929,504.7655781999929,504.7655781999929,507.9966001000139,,,,508.0043746000156,508.01520879997406,508.01520879997406,508.06224529998144,508.06246489996556,508.07883069996024,508.07883069996024,508.07883069996024,508.1620281999931,508.645660899987,,,,,,,,,,,,,,,,,,,,,,up,3.2160829000058584,None,space,0.5560326000559144,None,P120,001,2025-02-21_09h11.06.874,posner_endo_new1,2024.2.4,60.08257750078947,2025-02-21 09h11.16.193451 +0000,
cube_l.png,0.1,-0.31,valid,15,15,0,up,2.3435036999871954,None,space,0.5760035999701358,None,,,,,,,,,0,15,15,15,508.6615062999772,,,,,,,,,,,,,508.6458316000062,508.6615062999772,508.6615062999772,508.6615062999772,511.00962369999615,,,,511.0156691999873,511.0270610000007,511.0270610000007,511.0759891999769,511.07620670000324,511.09255870000925,511.09255870000925,511.09255870000925,511.15903069998603,511.67598860000726,,,,,,,,,,,,,,,,,,,,,,up,2.3435036999871954,None,space,0.5760035999701358,None,P120,001,2025-02-21_09h11.06.874,posner_endo_new1,2024.2.4,60.08257750078947,2025-02-21 09h11.16.193451 +0000,
cube_r.png,0.1,10,catch,16,16,0,up,2.6814653999754228,None,None,,,,,,,,,,,0,16,16,16,511.69172969996,,,,,,,,,,,,,511.6761580000166,511.69172969996,511.69172969996,511.69172969996,514.3903091999819,,,,514.4040652000112,514.414101900009,514.414101900009,514.4555112000089,514.4559329999611,514.4719776000129,514.4719776000129,514.4719776000129,514.5552091000136,517.4698397999746,,,,516.5700561999693,517.4857886999962,517.4857886999962,517.4857886999962,,,,,,,,,,,,,,,up,2.6814653999754228,None,None,,,P120,001,2025-02-21_09h11.06.874,posner_endo_new1,2024.2.4,60.08257750078947,2025-02-21 09h11.16.193451 +0000,
cube_r.png,0.1,10,catch,17,17,0,up,10.015649700013455,None,None,,,,,,,,,,,0,17,17,17,517.4857886999962,,,,,,,,,,,,,517.4700769999763,517.4857886999962,517.4857886999962,517.4857886999962,527.5101749000023,,,,527.5195243000053,527.5297326999716,527.5297326999716,527.575740100001,527.5760371999932,527.5922768000164,527.5922768000164,527.5922768000164,527.6752003000001,530.5898231999599,,,,529.690057699976,530.6057690000162,530.6057690000162,530.6057690000162,,,,,,,,,,,,,,,up,10.015649700013455,None,None,,,P120,001,2025-02-21_09h11.06.874,posner_endo_new1,2024.2.4,60.08257750078947,2025-02-21 09h11.16.193451 +0000,
cube_l.png,0.1,0.31,invalid,18,18,0,up,2.2807495999732055,None,space,0.6731879999861121,None,,,,,,,,,0,18,18,18,530.6057690000162,,,,,,,,,,,,,530.5900640999898,530.6057690000162,530.6057690000162,530.6057690000162,532.887836400012,,,,532.8970319000073,532.9072850999655,532.9072850999655,532.953462800011,532.9537617999595,532.9700603999663,532.9700603999663,532.9700603999663,533.0532342999941,533.6537268999964,,,,,,,,,,,,,,,,,,,,,,up,2.2807495999732055,None,space,0.6731879999861121,None,P120,001,2025-02-21_09h11.06.874,posner_endo_new1,2024.2.4,60.08257750078947,2025-02-21 09h11.16.193451 +0000,
cube_l.png,0.1,10,catch,19,19,0,up,11.359533299983013,None,None,,,,,,,,,,,0,19,19,19,533.6693852000171,,,,,,,,,,,,,533.6539772999822,533.6693852000171,533.6693852000171,533.6693852000171,545.0418921000091,,,,545.0509885000065,545.0610711000045,545.0610711000045,545.1077350999694,545.10803329997,545.1243559999857,545.1243559999857,545.1243559999857,545.1909063999774,548.1218895000056,,,,547.2055781999952,548.1377745000063,548.1377745000063,548.1377745000063,,,,,,,,,,,,,,,up,11.359533299983013,None,None,,,P120,001,2025-02-21_09h11.06.874,posner_endo_new1,2024.2.4,60.08257750078947,2025-02-21 09h11.16.193451 +0000,
cube_l.png,0.1,0.31,invalid,20,20,0,up,0.5160050999838859,None,space,0.49438459996599704,None,,,,,,,,,0,20,20,20,548.1377745000063,,,,,,,,,,,,,548.122123499983,548.1377745000063,548.1377745000063,548.1377745000063,548.6551428000093,,,,548.6645995000144,548.6749204999651,548.6749204999651,548.7207268999773,548.7210230999626,548.7373346000095,548.7373346000095,548.7373346000095,548.8205015999847,549.2377019000123,,,,,,,,,,,,,,,,,,,,,,up,0.5160050999838859,None,space,0.49438459996599704,None,P120,001,2025-02-21_09h11.06.874,posner_endo_new1,2024.2.4,60.08257750078947,2025-02-21 09h11.16.193451 +0000,
cube_l.png,0.1,-0.31,valid,21,21,0,up,2.9522371999919415,None,space,0.44846429995959625,None,,,,,,,,,0,21,21,21,549.2534240999958,,,,,,,,,,,,,549.2379507999867,549.2534240999958,549.2534240999958,549.2534240999958,552.2180108999601,,,,552.2270490999799,552.237282499962,552.237282499962,552.2836788999848,552.2839761999785,552.3003997000051,552.3003997000051,552.3003997000051,552.3835683999932,552.7509042000165,,,,,,,,,,,,,,,,,,,,,,up,2.9522371999919415,None,space,0.44846429995959625,None,P120,001,2025-02-21_09h11.06.874,posner_endo_new1,2024.2.4,60.08257750078947,2025-02-21 09h11.16.193451 +0000,
cube_r.png,0.1,0.31,valid,22,22,0,up,3.1913488999707624,None,space,0.44096079998416826,None,,,,,,,,,0,22,22,22,552.7665041,,,,,,,,,,,,,552.7511548000039,552.7665041,552.7665041,552.7665041,555.9642538999906,,,,555.9729209999787,555.9828785000136,555.9828785000136,556.0299059000099,556.030125099991,556.0465337999631,556.0465337999631,556.0465337999631,556.1298728999682,556.4967465999653,,,,,,,,,,,,,,,,,,,,,,up,3.1913488999707624,None,space,0.44096079998416826,None,P120,001,2025-02-21_09h11.06.874,posner_endo_new1,2024.2.4,60.08257750078947,2025-02-21 09h11.16.193451 +0000,
cube_r.png,0.1,-0.31,invalid,23,23,0,up,2.25281019997783,None,space,0.39763849996961653,None,,,,,,,,,0,23,23,23,556.5126686000149,,,,,,,,,,,,,556.4969220999628,556.5126686000149,556.5126686000149,556.5126686000149,558.7776844999753,,,,558.7838064999669,558.7951963999658,558.7951963999658,558.8437376999645,558.8442374999868,558.8601380999899,558.8601380999899,558.8601380999899,558.9267374000046,559.2616580000031,,,,,,,,,,,,,,,,,,,,,,up,2.25281019997783,None,space,0.39763849996961653,None,P120,001,2025-02-21_09h11.06.874,posner_endo_new1,2024.2.4,60.08257750078947,2025-02-21 09h11.16.193451 +0000,
cube_r.png,0.1,0.31,valid,24,24,0,up,3.217020299984142,None,space,0.4265511999838054,None,,,,,,,,,0,24,24,24,559.2763467999757,,,,,,,,,,,,,559.26209069998,559.2763467999757,559.2763467999757,559.2763467999757,562.5080946999951,,,,562.5241071999772,562.5350581000093,562.5350581000093,562.5732786000008,562.5737719999743,562.5896495999768,562.5896495999768,562.5896495999768,562.6728899999871,563.0244589999784,,,,,,,,,,,,,,,,,,,,,,up,3.217020299984142,None,space,0.4265511999838054,None,P120,001,2025-02-21_09h11.06.874,posner_endo_new1,2024.2.4,60.08257750078947,2025-02-21 09h11.16.193451 +0000,
cube_r.png,0.1,-0.31,invalid,25,25,0,up,3.686342599976342,None,space,0.4085155999637209,None,,,,,,,,,0,25,25,25,563.039137099986,,,,,,,,,,,,,563.0248892999953,563.039137099986,563.039137099986,563.039137099986,566.7371607999667,,,,566.7532738000154,566.7642727000057,566.7642727000057,566.8022418000037,566.802731600008,566.8186667999835,566.8186667999835,566.8186667999835,566.901945199992,567.2367221000022,,,,,,,,,,,,,,,,,,,,,,up,3.686342599976342,None,space,0.4085155999637209,None,P120,001,2025-02-21_09h11.06.874,posner_endo_new1,2024.2.4,60.08257750078947,2025-02-21 09h11.16.193451 +0000,
cube_l.png,0.1,-0.31,valid,26,26,0,up,3.313573700026609,None,space,0.4341790999751538,None,,,,,,,,,0,26,26,26,567.2515613000141,,,,,,,,,,,,,567.237159500015,567.2515613000141,567.2515613000141,567.2515613000141,570.5668814000092,,,,570.5829989999766,570.5939309999812,570.5939309999812,570.6316595000098,570.6321535999887,570.6480961999623,570.6480961999623,570.6480961999623,570.7313410000061,571.0994159000111,,,,,,,,,,,,,,,,,,,,,,up,3.313573700026609,None,space,0.4341790999751538,None,P120,001,2025-02-21_09h11.06.874,posner_endo_new1,2024.2.4,60.08257750078947,2025-02-21 09h11.16.193451 +0000,
cube_r.png,0.1,0.31,valid,27,27,0,up,3.3149417999666184,None,space,0.4709129999973811,None,,,,,,,,,0,27,27,27,571.1142517999979,,,,,,,,,,,,,571.0998431000044,571.1142517999979,571.1142517999979,571.1142517999979,574.4459893999738,,,,574.4620108999661,574.472566100012,574.472566100012,574.5110171000124,574.5115125000011,574.5274642999866,574.5274642999866,574.5274642999866,574.610693399969,575.0120566000114,,,,,,,,,,,,,,,,,,,,,,up,3.3149417999666184,None,space,0.4709129999973811,None,P120,001,2025-02-21_09h11.06.874,posner_endo_new1,2024.2.4,60.08257750078947,2025-02-21 09h11.16.193451 +0000,
cube_r.png,0.1,10,catch,28,28,0,up,2.746425800025463,None,None,,,,,,,,,,,0,28,28,28,575.0269573999685,,,,,,,,,,,,,575.0124901999952,575.0269573999685,575.0269573999685,575.0269573999685,577.7757577999728,,,,577.7847022999777,577.7945112999878,577.7945112999878,577.8409581999877,577.8411888999981,577.8575170999975,577.8575170999975,577.8575170999975,577.9406736000092,580.8550313999876,,,,579.9553812000086,580.871086900006,580.871086900006,580.871086900006,,,,,,,,,,,,,,,up,2.746425800025463,None,None,,,P120,001,2025-02-21_09h11.06.874,posner_endo_new1,2024.2.4,60.08257750078947,2025-02-21 09h11.16.193451 +0000,
cube_r.png,0.1,0.31,valid,29,29,0,up,0.5741319000371732,None,space,0.41575440001906827,None,,,,,,,,,0,29,29,29,580.871086900006,,,,,,,,,,,,,580.85520489997,580.871086900006,580.871086900006,580.871086900006,581.4548155000084,,,,581.4613858999801,581.4737578000058,581.4737578000058,581.5207447999856,581.5209911999991,581.5373738000053,581.5373738000053,581.5373738000053,581.603529200016,581.9542677999707,,,,,,,,,,,,,,,,,,,,,,up,0.5741319000371732,None,space,0.41575440001906827,None,P120,001,2025-02-21_09h11.06.874,posner_endo_new1,2024.2.4,60.08257750078947,2025-02-21 09h11.16.193451 +0000,
cube_r.png,0.1,0.31,valid,30,30,0,up,2.547471800004132,None,space,0.46004430000903085,None,,,,,,,,,0,30,30,30,581.9700242999825,,,,,,,,,,,,,581.9544532999862,581.9700242999825,581.9700242999825,581.9700242999825,584.51827890001,,,,584.5248098999728,584.5362661000108,584.5362661000108,584.5840746999602,584.5845713000163,584.6005149999983,584.6005149999983,584.6005149999983,584.6837700000033,585.0686545000062,,,,,,,,,,,,,,,,,,,,,,up,2.547471800004132,None,space,0.46004430000903085,None,P120,001,2025-02-21_09h11.06.874,posner_endo_new1,2024.2.4,60.08257750078947,2025-02-21 09h11.16.193451 +0000,
cube_l.png,0.1,-0.31,valid,31,31,0,up,3.057858800049871,None,space,0.4246587000088766,None,,,,,,,,,0,31,31,31,585.0833509999793,,,,,,,,,,,,,585.069081900001,585.0833509999793,585.0833509999793,585.0833509999793,588.1487735999981,,,,588.1647048000013,588.1756643999834,588.1756643999834,588.2136657999945,588.2141596999718,588.2301598999766,588.2301598999766,588.2301598999766,588.3133482999983,588.6647661000025,,,,,,,,,,,,,,,,,,,,,,up,3.057858800049871,None,space,0.4246587000088766,None,P120,001,2025-02-21_09h11.06.874,posner_endo_new1,2024.2.4,60.08257750078947,2025-02-21 09h11.16.193451 +0000,
cube_r.png,0.1,0.31,valid,32,32,0,up,2.9576044999994338,None,space,0.48565440002130345,None,,,,,,,,,0,32,32,32,588.679635700013,,,,,,,,,,,,,588.6652073999867,588.679635700013,588.679635700013,588.679635700013,591.6453056999599,,,,591.6612437000149,591.6722357000108,591.6722357000108,591.710164899996,591.7104611999821,591.7267599999905,591.7267599999905,591.7267599999905,591.8099161999999,592.2272511000047,,,,,,,,,,,,,,,,,,,,,,up,2.9576044999994338,None,space,0.48565440002130345,None,P120,001,2025-02-21_09h11.06.874,posner_endo_new1,2024.2.4,60.08257750078947,2025-02-21 09h11.16.193451 +0000,
cube_r.png,0.1,-0.31,invalid,33,33,0,up,3.466330500028562,None,space,0.40525179996620864,None,,,,,,,,,0,33,33,33,592.2428686000057,,,,,,,,,,,,,592.2275092999917,592.2428686000057,592.2428686000057,592.2428686000057,595.7242086000042,,,,595.7402079000021,595.7511571999639,595.7511571999639,595.7893813999835,595.7896597000072,595.8059139999677,595.8059139999677,595.8059139999677,595.8891211000155,596.2234330999781,,,,,,,,,,,,,,,,,,,,,,up,3.466330500028562,None,space,0.40525179996620864,None,P120,001,2025-02-21_09h11.06.874,posner_endo_new1,2024.2.4,60.08257750078947,2025-02-21 09h11.16.193451 +0000,
cube_r.png,0.1,10,catch,34,34,0,up,3.0956778999534436,None,space,0.3345044999732636,None,,,,,,,,,0,34,34,34,596.2388140999828,,,,,,,,,,,,,596.223720000009,596.2388140999828,596.2388140999828,596.2388140999828,599.3369793000165,,,,599.348025699961,599.3583190999925,599.3583190999925,599.4024115999928,599.402756800002,599.4187885000138,599.4187885000138,599.4187885000138,599.5020780999912,599.7698191999807,,,,,,,,,,,,,,,,,,,,,,up,3.0956778999534436,None,space,0.3345044999732636,None,P120,001,2025-02-21_09h11.06.874,posner_endo_new1,2024.2.4,60.08257750078947,2025-02-21 09h11.16.193451 +0000,
cube_r.png,0.1,0.31,valid,35,35,0,up,3.3164214999997057,None,space,0.5459976999554783,None,,,,,,,,,0,35,35,35,599.7851965000154,,,,,,,,,,,,,599.7701121999999,599.7851965000154,599.7851965000154,599.7851965000154,603.1162004999933,,,,603.1272349999635,603.1375754000037,603.1375754000037,603.1818232999649,603.1821669999626,603.1983659999678,603.1983659999678,603.1983659999678,603.2815923999879,603.7490767000127,,,,,,,,,,,,,,,,,,,,,,up,3.3164214999997057,None,space,0.5459976999554783,None,P120,001,2025-02-21_09h11.06.874,posner_endo_new1,2024.2.4,60.08257750078947,2025-02-21 09h11.16.193451 +0000,
cube_r.png,0.1,-0.31,invalid,36,36,0,up,2.776802400010638,None,space,0.6743375999503769,None,,,,,,,,,0,36,36,36,603.7644007999916,,,,,,,,,,,,,603.7493678000174,603.7644007999916,603.7644007999916,603.7644007999916,606.5462249999982,,,,606.5552250999608,606.5651497999788,606.5651497999788,606.6116093000164,606.6118404999725,606.6280964000034,606.6280964000034,606.6280964000034,606.7114754999639,607.3114786999649,,,,,,,,,,,,,,,,,,,,,,up,2.776802400010638,None,space,0.6743375999503769,None,P120,001,2025-02-21_09h11.06.874,posner_endo_new1,2024.2.4,60.08257750078947,2025-02-21 09h11.16.193451 +0000,
cube_l.png,0.1,0.31,invalid,37,37,0,up,3.1655511999852024,None,space,0.6523046999936923,None,,,,,,,,,0,37,37,37,607.3275006999611,,,,,,,,,,,,,607.3116678000079,607.3275006999611,607.3275006999611,607.3275006999611,610.5083491000114,,,,610.5149274999858,610.5269484000164,610.5269484000164,610.5742170999874,610.5744510999648,610.5908306000056,610.5908306000056,610.5908306000056,610.6573964999989,611.2574801999726,,,,,,,,,,,,,,,,,,,,,,up,3.1655511999852024,None,space,0.6523046999936923,None,P120,001,2025-02-21_09h11.06.874,posner_endo_new1,2024.2.4,60.08257750078947,2025-02-21 09h11.16.193451 +0000,
cube_l.png,0.1,0.31,invalid,38,38,0,up,2.725505099981092,None,space,0.7286091999849305,None,,,,,,,,,0,38,38,38,611.2734186999733,,,,,,,,,,,,,611.2576717999764,611.2734186999733,611.2734186999733,611.2734186999733,614.0046978999744,,,,614.011311499984,614.0231698999996,614.0231698999996,614.070661899983,614.0708813999663,614.0871549000149,614.0871549000149,614.0871549000149,614.1705750999972,614.8214109999826,,,,,,,,,,,,,,,,,,,,,,up,2.725505099981092,None,space,0.7286091999849305,None,P120,001,2025-02-21_09h11.06.874,posner_endo_new1,2024.2.4,60.08257750078947,2025-02-21 09h11.16.193451 +0000,
cube_r.png,0.1,0.31,valid,39,39,0,up,3.1216090000234544,None,space,0.5341038000187837,None,,,,,,,,,0,39,39,39,614.8362698999699,,,,,,,,,,,,,614.8218480999931,614.8362698999699,614.8362698999699,614.8362698999699,617.9678731000167,,,,617.9788375999779,617.9890503999777,617.9890503999777,618.0334430999937,618.0337772999774,618.0497455999721,618.0497455999721,618.0497455999721,618.1330887000076,618.6004725999665,,,,,,,,,,,,,,,,,,,,,,up,3.1216090000234544,None,space,0.5341038000187837,None,P120,001,2025-02-21_09h11.06.874,posner_endo_new1,2024.2.4,60.08257750078947,2025-02-21 09h11.16.193451 +0000,
cube_l.png,0.1,0.31,invalid,40,40,0,up,2.74124139995547,None,space,0.4386120000272058,None,,,,,,,,,0,40,40,40,618.6160011999891,,,,,,,,,,,,,618.6007655999856,618.6160011999891,618.6160011999891,618.6160011999891,621.3642475999659,,,,621.3745565999998,621.3841149999644,621.3841149999644,621.4296693999786,621.4299061999773,621.4462254999671,621.4462254999671,621.4462254999671,621.5296333999722,621.8966624999885,,,,,,,,,,,,,,,,,,,,,,up,2.74124139995547,None,space,0.4386120000272058,None,P120,001,2025-02-21_09h11.06.874,posner_endo_new1,2024.2.4,60.08257750078947,2025-02-21 09h11.16.193451 +0000,
cube_l.png,0.1,10,catch,41,41,0,up,2.940847499994561,None,None,,,,,,,,,,,0,41,41,41,621.912594399997,,,,,,,,,,,,,621.8968531999853,621.912594399997,621.912594399997,621.912594399997,624.8603274999768,,,,624.8669148999616,624.8787742999848,624.8787742999848,624.9261914999806,624.9267039999831,624.9426373000024,624.9426373000024,624.9426373000024,625.0258653999772,627.9405005999724,,,,627.0406167999608,627.9564540999709,627.9564540999709,627.9564540999709,,,,,,,,,,,,,,,up,2.940847499994561,None,None,,,P120,001,2025-02-21_09h11.06.874,posner_endo_new1,2024.2.4,60.08257750078947,2025-02-21 09h11.16.193451 +0000,
cube_l.png,0.1,-0.31,valid,42,42,0,up,0.7852634000009857,None,space,0.523544600000605,None,,,,,,,,,0,42,42,42,627.9564540999709,,,,,,,,,,,,,627.9407745999633,627.9564540999709,627.9564540999709,627.9564540999709,628.756679699989,,,,628.7677740000072,628.7780416000169,628.7780416000169,628.82238279999,628.8227243999718,628.8388419999974,628.8388419999974,628.8388419999974,628.9219537000172,629.372729900002,,,,,,,,,,,,,,,,,,,,,,up,0.7852634000009857,None,space,0.523544600000605,None,P120,001,2025-02-21_09h11.06.874,posner_endo_new1,2024.2.4,60.08257750078947,2025-02-21 09h11.16.193451 +0000,
cube_l.png,0.1,10,catch,43,43,0,up,3.0812741999980062,None,None,,,,,,,,,,,0,43,43,43,629.3882303999853,,,,,,,,,,,,,629.3730141000124,629.3882303999853,629.3882303999853,629.3882303999853,632.4863227999886,,,,632.4973351999652,632.5073577999719,632.5073577999719,632.5518650999875,632.5522058999632,632.5683217999758,632.5683217999758,632.5683217999758,632.6515661000158,635.566024300002,,,,634.6662364999647,635.5819602999836,635.5819602999836,635.5819602999836,,,,,,,,,,,,,,,up,3.0812741999980062,None,None,,,P120,001,2025-02-21_09h11.06.874,posner_endo_new1,2024.2.4,60.08257750078947,2025-02-21 09h11.16.193451 +0000,
cube_l.png,0.1,0.31,invalid,44,44,0,up,0.4322048000176437,None,space,0.5008488000021316,None,,,,,,,,,0,44,44,44,635.5819602999836,,,,,,,,,,,,,635.5663004000089,635.5819602999836,635.5819602999836,635.5819602999836,636.0161001000088,,,,636.0270622000098,636.0373697999748,636.0373697999748,636.0815761999693,636.0819116999628,636.0980402000132,636.0980402000132,636.0980402000132,636.1812754999846,636.6153768000077,,,,,,,,,,,,,,,,,,,,,,up,0.4322048000176437,None,space,0.5008488000021316,None,P120,001,2025-02-21_09h11.06.874,posner_endo_new1,2024.2.4,60.08257750078947,2025-02-21 09h11.16.193451 +0000,
cube_l.png,0.1,0.31,invalid,45,45,0,up,3.3024806999601424,None,space,0.6377796999877319,None,,,,,,,,,0,45,45,45,636.6308686999837,,,,,,,,,,,,,636.615662999975,636.6308686999837,636.6308686999837,636.6308686999837,639.9452509999974,,,,639.9562155000167,639.9665644000052,639.9665644000052,640.0109213999822,640.0112585999887,640.0274208000046,640.0274208000046,640.0274208000046,640.1106678000069,640.677858799987,,,,,,,,,,,,,,,,,,,,,,up,3.3024806999601424,None,space,0.6377796999877319,None,P120,001,2025-02-21_09h11.06.874,posner_endo_new1,2024.2.4,60.08257750078947,2025-02-21 09h11.16.193451 +0000,
cube_r.png,0.1,0.31,valid,46,46,0,up,3.7840350000187755,None,space,0.5743917999789119,None,,,,,,,,,0,46,46,46,640.6933403000003,,,,,,,,,,,,,640.6781514000031,640.6933403000003,640.6933403000003,640.6933403000003,644.4907079999684,,,,644.5017153999652,644.5120315999957,644.5120315999957,644.5562130999751,644.5565542000113,644.5727588000009,644.5727588000009,644.5727588000009,644.6559828000027,645.1565988999791,,,,,,,,,,,,,,,,,,,,,,up,3.7840350000187755,None,space,0.5743917999789119,None,P120,001,2025-02-21_09h11.06.874,posner_endo_new1,2024.2.4,60.08257750078947,2025-02-21 09h11.16.193451 +0000,
cube_l.png,0.1,-0.31,valid,47,47,0,up,2.721326600003522,None,space,0.4174013999872841,None,,,,,,,,,0,47,47,47,645.1721921999706,,,,,,,,,,,,,645.1568942000158,645.1721921999706,645.1721921999706,645.1721921999706,647.9038904999616,,,,647.9148784999852,647.9252348999726,647.9252348999726,647.9694275999791,647.9697609000141,647.9858957999968,647.9858957999968,647.9858957999968,648.0691910000169,648.4198997999774,,,,,,,,,,,,,,,,,,,,,,up,2.721326600003522,None,space,0.4174013999872841,None,P120,001,2025-02-21_09h11.06.874,posner_endo_new1,2024.2.4,60.08257750078947,2025-02-21 09h11.16.193451 +0000,
cube_r.png,0.1,-0.31,invalid,48,48,0,up,3.47353189997375,None,space,0.4622686000075191,None,,,,,,,,,0,48,48,48,648.4355408999836,,,,,,,,,,,,,648.420196299965,648.4355408999836,648.4355408999836,648.4355408999836,651.9163131999667,,,,651.927265700011,651.9376400999608,651.9376400999608,651.981990100001,651.9823289999622,651.9984757999773,651.9984757999773,651.9984757999773,652.0816677999683,652.4660157999606,,,,,,,,,,,,,,,,,,,,,,up,3.47353189997375,None,space,0.4622686000075191,None,P120,001,2025-02-21_09h11.06.874,posner_endo_new1,2024.2.4,60.08257750078947,2025-02-21 09h11.16.193451 +0000,
cube_r.png,0.1,10,catch,49,49,0,up,2.7166557999444194,None,space,0.30070289998548105,None,,,,,,,,,0,49,49,49,652.4813168999972,,,,,,,,,,,,,652.4663043000037,652.4813168999972,652.4813168999972,652.4813168999972,655.21305999998,,,,655.2240685999859,655.2343582999893,655.2343582999893,655.2786572999903,655.2789967000135,655.2951633000048,655.2951633000048,655.2951633000048,655.378342800017,655.6127359999809,,,,,,,,,,,,,,,,,,,,,,up,2.7166557999444194,None,space,0.30070289998548105,None,P120,001,2025-02-21_09h11.06.874,posner_endo_new1,2024.2.4,60.08257750078947,2025-02-21 09h11.16.193451 +0000,
cube_l.png,0.1,-0.31,valid,50,50,0,up,8.521099900011905,None,space,0.7798856000299565,None,,,,,,,,,0,50,50,50,655.6280980000156,,,,,,,,,,,,,655.6130338999792,655.6280980000156,655.6280980000156,655.6280980000156,664.1539789999952,,,,664.1650043000118,664.1753412999678,664.1753412999678,664.219407800003,664.2197418999858,664.2359935999848,664.2359935999848,664.2359935999848,664.319237699965,665.0196952999686,,,,,,,,,,,,,,,,,,,,,,up,8.521099900011905,None,space,0.7798856000299565,None,P120,001,2025-02-21_09h11.06.874,posner_endo_new1,2024.2.4,60.08257750078947,2025-02-21 09h11.16.193451 +0000,
cube_l.png,0.1,-0.31,valid,51,51,0,up,5.538475800014567,None,space,0.5465502999722958,None,,,,,,,,,0,51,51,51,665.0351350000128,,,,,,,,,,,,,665.0199866999756,665.0351350000128,665.0351350000128,665.0351350000128,670.5806878000149,,,,670.5916941000032,670.6020084999618,670.6020084999618,670.6462656999938,670.646614999976,670.6627568000113,670.6627568000113,670.6627568000113,670.746078199998,671.2134812999866,,,,,,,,,,,,,,,,,,,,,,up,5.538475800014567,None,space,0.5465502999722958,None,P120,001,2025-02-21_09h11.06.874,posner_endo_new1,2024.2.4,60.08257750078947,2025-02-21 09h11.16.193451 +0000,
cube_r.png,0.1,-0.31,invalid,52,52,0,up,4.329067199956626,None,space,0.6176019000122324,None,,,,,,,,,0,52,52,52,671.2288073999807,,,,,,,,,,,,,671.2137690999662,671.2288073999807,671.2288073999807,671.2288073999807,675.5590616000118,,,,675.5701069000061,675.5804243999883,675.5804243999883,675.6245217999676,675.6248644000152,675.6410232000053,675.6410232000053,675.6410232000053,675.7242978999857,676.2750213000108,,,,,,,,,,,,,,,,,,,,,,up,4.329067199956626,None,space,0.6176019000122324,None,P120,001,2025-02-21_09h11.06.874,posner_endo_new1,2024.2.4,60.08257750078947,2025-02-21 09h11.16.193451 +0000,
cube_l.png,0.1,-0.31,valid,53,53,0,up,3.603344200004358,None,space,0.6161022000014782,None,,,,,,,,,0,53,53,53,676.2904442999861,,,,,,,,,,,,,676.2753185000038,676.2904442999861,676.2904442999861,676.2904442999861,679.9044287999859,,,,679.9154985999921,679.9259040000034,679.9259040000034,679.9701862999937,679.9705229999963,679.9866173999617,679.9866173999617,679.9866173999617,680.0697366999811,680.603918400011,,,,,,,,,,,,,,,,,,,,,,up,3.603344200004358,None,space,0.6161022000014782,None,P120,001,2025-02-21_09h11.06.874,posner_endo_new1,2024.2.4,60.08257750078947,2025-02-21 09h11.16.193451 +0000,
cube_r.png,0.1,10,catch,54,54,0,up,3.506475700007286,None,None,,,,,,,,,,,0,54,54,54,680.6192169999704,,,,,,,,,,,,,680.6042026999639,680.6192169999704,680.6192169999704,680.6192169999704,684.1335981999873,,,,684.1445076999953,684.1547935999697,684.1547935999697,684.1991928999778,684.1995309999911,684.2155079999939,684.2155079999939,684.2155079999939,684.2987785000005,687.2132357999799,,,,686.3134549999959,687.2291875999654,687.2291875999654,687.2291875999654,,,,,,,,,,,,,,,up,3.506475700007286,None,None,,,P120,001,2025-02-21_09h11.06.874,posner_endo_new1,2024.2.4,60.08257750078947,2025-02-21 09h11.16.193451 +0000,
cube_l.png,0.1,0.31,invalid,55,55,0,up,1.1047820000094362,None,space,0.6156673000077717,None,,,,,,,,,0,55,55,55,687.2291875999654,,,,,,,,,,,,,687.2135098999715,687.2291875999654,687.2291875999654,687.2291875999654,688.3457837000024,,,,688.3567389000091,688.3671023999923,688.3671023999923,688.4114639000036,688.41180110001,688.4280248999712,688.4280248999712,688.4280248999712,688.511180099973,689.0453718999634,,,,,,,,,,,,,,,,,,,,,,up,1.1047820000094362,None,space,0.6156673000077717,None,P120,001,2025-02-21_09h11.06.874,posner_endo_new1,2024.2.4,60.08257750078947,2025-02-21 09h11.16.193451 +0000,
cube_l.png,0.1,-0.31,valid,56,56,0,up,2.873109399981331,None,space,0.55815239995718,None,,,,,,,,,0,56,56,56,689.0605333999847,,,,,,,,,,,,,689.0456713999738,689.0605333999847,689.0605333999847,689.0605333999847,691.9422482000082,,,,691.9532720000134,691.9637646999909,691.9637646999909,692.0077704999712,692.0081056999625,692.0242276999634,692.0242276999634,692.0242276999634,692.1074807000114,692.5916287999717,,,,,,,,,,,,,,,,,,,,,,up,2.873109399981331,None,space,0.55815239995718,None,P120,001,2025-02-21_09h11.06.874,posner_endo_new1,2024.2.4,60.08257750078947,2025-02-21 09h11.16.193451 +0000,
cube_r.png,0.1,0.31,valid,57,57,0,up,3.206848900008481,None,space,0.5068531999713741,None,,,,,,,,,0,57,57,57,692.607009099971,,,,,,,,,,,,,692.591917200014,692.607009099971,692.607009099971,692.607009099971,695.8216219000169,,,,695.8326825000113,695.8429338000133,695.8429338000133,695.8871847999981,695.8875215000007,695.9035673000035,695.9035673000035,695.9035673000035,695.9869292000076,696.4209595000139,,,,,,,,,,,,,,,,,,,,,,up,3.206848900008481,None,space,0.5068531999713741,None,P120,001,2025-02-21_09h11.06.874,posner_endo_new1,2024.2.4,60.08257750078947,2025-02-21 09h11.16.193451 +0000,
cube_r.png,0.1,-0.31,invalid,58,58,0,up,2.92122289998224,None,space,0.5152140000136569,None,,,,,,,,,0,58,58,58,696.4364852000144,,,,,,,,,,,,,696.4212472999934,696.4364852000144,696.4364852000144,696.4364852000144,699.3679367000004,,,,699.3762189999688,699.3863729999866,699.3863729999866,699.4333412999986,699.4335827999748,699.4499169999617,699.4499169999617,699.4499169999617,699.5330926000024,699.966900600004,,,,,,,,,,,,,,,,,,,,,,up,2.92122289998224,None,space,0.5152140000136569,None,P120,001,2025-02-21_09h11.06.874,posner_endo_new1,2024.2.4,60.08257750078947,2025-02-21 09h11.16.193451 +0000,
cube_l.png,0.1,0.31,invalid,59,59,0,up,2.8390523999696597,None,space,0.4872027999954298,None,,,,,,,,,0,59,59,59,699.9826928999973,,,,,,,,,,,,,699.9671051999903,699.9826928999973,699.9826928999973,699.9826928999973,702.8305985999759,,,,702.8375707999803,702.8493620000081,702.8493620000081,702.8965759999701,702.8968163999962,702.9131026999676,702.9131026999676,702.9131026999676,702.9964024999645,703.4133787999745,,,,,,,,,,,,,,,,,,,,,,up,2.8390523999696597,None,space,0.4872027999954298,None,P120,001,2025-02-21_09h11.06.874,posner_endo_new1,2024.2.4,60.08257750078947,2025-02-21 09h11.16.193451 +0000,
