cue_img,cue_soa,target_x,trial,thisN,thisTrialN,thisRepN,key_control2.keys,key_control2.rt,key_control2.duration,key_resp.keys,key_resp.rt,key_resp.duration,practice.thisRepN,practice.thisTrialN,practice.thisN,practice.thisIndex,block1.thisRepN,block1.thisTrialN,block1.thisN,block1.thisIndex,block2.thisRepN,block2.thisTrialN,block2.thisN,block2.thisIndex,thisRow.t,notes,instructions.started,instructions_txt.started,key_control.started,instructions.stopped,key_control.keys,key_control.rt,key_control.duration,ready.started,ready_txt.started,ready_txt.stopped,ready.stopped,fix.started,fixation.started,key_control2.started,fixation_cross.started,fix.stopped,practice.key_control2.keys,practice.key_control2.rt,practice.key_control2.duration,cue.started,cube.started,fixation_cross_cue.started,cue.stopped,target.started,fixation_target.started,fixation_cross_target.started,key_resp.started,star.started,target.stopped,practice.key_resp.keys,practice.key_resp.rt,practice.key_resp.duration,star.stopped,fixation_target.stopped,fixation_cross_target.stopped,key_resp.stopped,block1.key_control2.keys,block1.key_control2.rt,block1.key_control2.duration,block1.key_resp.keys,block1.key_resp.rt,block1.key_resp.duration,cube.stopped,fixation_cross_cue.stopped,break_2.started,text.started,key_control3.started,text.stopped,break_2.stopped,key_control3.keys,key_control3.rt,key_control3.duration,block2.key_control2.keys,block2.key_control2.rt,block2.key_control2.duration,block2.key_resp.keys,block2.key_resp.rt,block2.key_resp.duration,participant,session,date,expName,psychopyVersion,frameRate,expStart,
,,,,,,,,,,,,,,,,,,,,,,,,,,,0.008015700033865869,0.027453100017737597,0.027453100017737597,370.85480829997687,up,370.81408330000704,None,,,,,,,,,,,,,,,,,,,,,,,,,,,,,,,,,,,,,,,,,,,,,,,,,,,,P121,001,2025-02-21_10h54.38.850,posner_endo_new1,2024.2.4,60.081999894352805,2025-02-21 10h54.51.695109 +0000,
,,,,,,,,,,,,,,,,,,,,,,,,,,,,,,,,,,370.85486840002704,370.8673137000296,373.8775295999949,373.8481901999912,,,,,,,,,,,,,,,,,,,,,,,,,,,,,,,,,,,,,,,,,,,,,,,,P121,001,2025-02-21_10h54.38.850,posner_endo_new1,2024.2.4,60.081999894352805,2025-02-21 10h54.51.695109 +0000,
cube_l.png,0.1,-0.31,valid,0,0,0,up,25.03618120000465,None,space,0.5605159999686293,None,0,0,0,0,,,,,,,,,373.8775295999949,,,,,,,,,,,,,373.86402570002247,373.8775295999949,373.8775295999949,373.8775295999949,398.92253280000295,up,25.03618120000465,None,398.932728099986,398.94306150003104,398.94306150003104,398.988865500025,398.9890875000274,399.0050807999796,399.0050807999796,399.0050807999796,399.07141789997695,399.5722201000317,space,0.5605159999686293,None,,,,,,,,,,,,,,,,,,,,,,,,,,,P121,001,2025-02-21_10h54.38.850,posner_endo_new1,2024.2.4,60.081999894352805,2025-02-21 10h54.51.695109 +0000,
cube_l.png,0.1,0.31,invalid,1,1,0,up,3.205073299992364,None,space,0.32520319998729974,None,0,1,1,1,,,,,,,,,399.58815209998284,,,,,,,,,,,,,399.57238219998544,399.58815209998284,399.58815209998284,399.58815209998284,402.8021670000162,up,3.205073299992364,None,402.8080781000317,402.8195728000137,402.8195728000137,402.86782510002377,402.86804630002007,402.88461459998507,402.88461459998507,402.88461459998507,402.96768599998904,403.2186603000155,space,0.32520319998729974,None,,,,,,,,,,,,,,,,,,,,,,,,,,,P121,001,2025-02-21_10h54.38.850,posner_endo_new1,2024.2.4,60.081999894352805,2025-02-21 10h54.51.695109 +0000,
cube_r.png,0.1,-0.31,invalid,2,2,0,up,3.047034299990628,None,space,0.3769865999929607,None,0,2,2,2,,,,,,,,,403.23457430000417,,,,,,,,,,,,,403.2188214000198,403.23457430000417,403.23457430000417,403.23457430000417,406.2823562999838,up,3.047034299990628,None,406.2884229000192,406.30044810002437,406.30044810002437,406.3480405000155,406.3482600999996,406.3645827000146,406.3645827000146,406.3645827000146,406.4477124999976,406.748275800026,space,0.3769865999929607,None,,,,,,,,,,,,,,,,,,,,,,,,,,,P121,001,2025-02-21_10h54.38.850,posner_endo_new1,2024.2.4,60.081999894352805,2025-02-21 10h54.51.695109 +0000,
cube_r.png,0.1,10,catch,3,3,0,up,2.4859315000358038,None,None,,,0,3,3,3,,,,,,,,,406.7641176999896,,,,,,,,,,,,,406.74843660002807,406.7641176999896,406.7641176999896,406.7641176999896,409.26194160000887,up,2.4859315000358038,None,409.2688599000103,409.2807951000286,409.2807951000286,409.32801930001006,409.32826300000306,409.3448245000327,409.3448245000327,409.3448245000327,409.4115222999826,412.342504500004,None,,,411.42551179998554,412.35793689999264,412.35793689999264,412.35793689999264,,,,,,,,,,,,,,,,,,,,,,,P121,001,2025-02-21_10h54.38.850,posner_endo_new1,2024.2.4,60.081999894352805,2025-02-21 10h54.51.695109 +0000,
cube_l.png,0.1,-0.31,valid,4,4,0,up,0.7492351999972016,None,space,0.359249799977988,None,0,4,4,4,,,,,,,,,412.35793689999264,,,,,,,,,,,,,412.34267280000495,412.35793689999264,412.35793689999264,412.35793689999264,413.1085922999773,up,0.7492351999972016,None,413.1154455000069,413.1270917999791,413.1270917999791,413.1738365999772,413.1740858000121,413.19088890001876,413.19088890001876,413.19088890001876,413.2737156000221,413.5581264999928,space,0.359249799977988,None,,,,,,,,,,,,,,,,,,,,,,,,,,,P121,001,2025-02-21_10h54.38.850,posner_endo_new1,2024.2.4,60.081999894352805,2025-02-21 10h54.51.695109 +0000,
cube_l.png,0.1,0.31,invalid,5,5,0,up,2.4753881999640726,None,space,0.30833390000043437,None,0,5,5,5,,,,,,,,,413.5737458000076,,,,,,,,,,,,,413.558315799979,413.5737458000076,413.5737458000076,413.5737458000076,416.0550375999883,up,2.4753881999640726,None,416.0619007999776,416.07352939998964,416.07352939998964,416.1213601999916,416.12161059997743,416.1376377000124,416.1376377000124,416.1376377000124,416.2045831999858,416.45516439998755,space,0.30833390000043437,None,,,,,,,,,,,,,,,,,,,,,,,,,,,P121,001,2025-02-21_10h54.38.850,posner_endo_new1,2024.2.4,60.081999894352805,2025-02-21 10h54.51.695109 +0000,
cube_r.png,0.1,-0.31,invalid,6,6,0,up,3.1790774999535643,None,space,0.3257675999775529,None,0,6,6,6,,,,,,,,,416.4709373000078,,,,,,,,,,,,,416.4553436000133,416.4709373000078,416.4709373000078,416.4709373000078,419.65150690003065,up,3.1790774999535643,None,419.6582153000054,419.67018770001596,419.67018770001596,419.7177216000273,419.7179581000237,419.73434279998764,419.73434279998764,419.73434279998764,419.8006800999865,420.06818619999103,space,0.3257675999775529,None,,,,,,,,,,,,,,,,,,,,,,,,,,,P121,001,2025-02-21_10h54.38.850,posner_endo_new1,2024.2.4,60.081999894352805,2025-02-21 10h54.51.695109 +0000,
cube_r.png,0.1,0.31,valid,7,7,0,up,3.4146003000205383,None,space,0.4441685000201687,None,0,7,7,7,,,,,,,,,420.0840382000315,,,,,,,,,,,,,420.0683594000293,420.0840382000315,420.0840382000315,420.0840382000315,423.51450380001916,up,3.4146003000205383,None,423.521235799999,423.5330212999834,423.5330212999834,423.58008340001106,423.58030259999214,423.5968275999767,423.5968275999767,423.5968275999767,423.6799408000079,424.04739830002654,space,0.4441685000201687,None,,,,,,,,,,,,,,,,,,,,,,,,,,,P121,001,2025-02-21_10h54.38.850,posner_endo_new1,2024.2.4,60.081999894352805,2025-02-21 10h54.51.695109 +0000,
cube_l.png,0.1,-0.31,valid,8,8,0,up,3.092058500042185,None,space,0.3320185999618843,None,0,8,8,8,,,,,,,,,424.06281239999225,,,,,,,,,,,,,424.04756410000846,424.06281239999225,424.06281239999225,424.06281239999225,427.1602229999844,up,3.092058500042185,None,427.16684700001497,427.1783415999962,427.1783415999962,427.22635429998627,427.2265753999818,427.2432043000008,427.2432043000008,427.2432043000008,427.3098212000332,427.5768285000231,space,0.3320185999618843,None,,,,,,,,,,,,,,,,,,,,,,,,,,,P121,001,2025-02-21_10h54.38.850,posner_endo_new1,2024.2.4,60.081999894352805,2025-02-21 10h54.51.695109 +0000,
cube_r.png,0.1,-0.31,invalid,9,9,0,up,3.849029100034386,None,space,0.36165959999198094,None,0,9,9,9,,,,,,,,,427.5928788000019,,,,,,,,,,,,,427.57698980002897,427.5928788000019,427.5928788000019,427.5928788000019,431.45614090003073,up,3.849029100034386,None,431.46227030002046,431.47430499998154,431.47430499998154,431.5221535000019,431.5223775000195,431.538833300001,431.538833300001,431.538833300001,431.6055292999954,431.9058221000014,space,0.36165959999198094,None,,,,,,,,,,,,,,,,,,,,,,,,,,,P121,001,2025-02-21_10h54.38.850,posner_endo_new1,2024.2.4,60.081999894352805,2025-02-21 10h54.51.695109 +0000,
cube_r.png,0.1,0.31,valid,10,10,0,up,4.064456099993549,None,space,0.2835503999958746,None,0,10,10,10,,,,,,,,,431.92186479998054,,,,,,,,,,,,,431.90598109998973,431.92186479998054,431.92186479998054,431.92186479998054,436.0016734999954,up,4.064456099993549,None,436.0079620000324,436.0199770000181,436.0199770000181,436.0672442999785,436.06747569999425,436.08417669998016,436.08417669998016,436.08417669998016,436.1671638999833,436.38429020001786,space,0.2835503999958746,None,,,,,,,,,,,,,,,,,,,,,,,,,,,P121,001,2025-02-21_10h54.38.850,posner_endo_new1,2024.2.4,60.081999894352805,2025-02-21 10h54.51.695109 +0000,
,,,,,,,,,,,,,,,,,,,,,,,,,,,,,,,,,,436.3844036000082,436.4006593999802,439.403488299984,439.3811572000268,,,,,,,,,,,,,,,,,,,,,,,,,,,,,,,,,,,,,,,,,,,,,,,,P121,001,2025-02-21_10h54.38.850,posner_endo_new1,2024.2.4,60.081999894352805,2025-02-21 10h54.51.695109 +0000,
cube_l.png,0.1,10,catch,0,0,0,up,9.046253699983936,None,space,0.26395100000081584,None,,,,,0,0,0,0,,,,,439.403488299984,,,,,,,,,,,,,439.39458730001934,439.403488299984,439.403488299984,439.403488299984,448.45553769997787,,,,448.4615154999774,448.4735100999824,448.4735100999824,448.52111999999033,448.5213476999779,448.53787280002143,448.53787280002143,448.53787280002143,448.60476750001544,448.8051581000327,,,,,,,,up,9.046253699983936,None,space,0.26395100000081584,None,,,,,,,,,,,,,,,,,P121,001,2025-02-21_10h54.38.850,posner_endo_new1,2024.2.4,60.081999894352805,2025-02-21 10h54.51.695109 +0000,
cube_l.png,0.1,10,catch,1,1,0,up,3.5487442000303417,None,None,,,,,,,0,1,1,1,,,,,448.8211627000128,,,,,,,,,,,,,448.80532749998383,448.8211627000128,448.8211627000128,448.8211627000128,452.3846407000092,,,,452.3904391999822,452.40194050001446,452.40194050001446,452.4508391999989,452.45106180000585,452.46743399999104,452.46743399999104,452.46743399999104,452.5506427999935,455.46503949997714,,,,454.56538290000753,455.48050280002644,455.48050280002644,455.48050280002644,up,3.5487442000303417,None,None,,,,,,,,,,,,,,,,,,,P121,001,2025-02-21_10h54.38.850,posner_endo_new1,2024.2.4,60.081999894352805,2025-02-21 10h54.51.695109 +0000,
cube_l.png,0.1,0.31,invalid,2,2,0,up,0.5852947999956086,None,space,0.30543079995550215,None,,,,,0,2,2,2,,,,,455.48050280002644,,,,,,,,,,,,,455.46519810002064,455.48050280002644,455.48050280002644,455.48050280002644,456.0811041999841,,,,456.08696859999327,456.09853790001944,456.09853790001944,456.14702779997606,456.1472489000298,456.1634655999951,456.1634655999951,456.1634655999951,456.2297266999958,456.48085019999417,,,,,,,,up,0.5852947999956086,None,space,0.30543079995550215,None,,,,,,,,,,,,,,,,,P121,001,2025-02-21_10h54.38.850,posner_endo_new1,2024.2.4,60.081999894352805,2025-02-21 10h54.51.695109 +0000,
cube_l.png,0.1,0.31,invalid,3,3,0,up,3.6006407999666408,None,space,0.4052254999987781,None,,,,,0,3,3,3,,,,,456.4967616000213,,,,,,,,,,,,,456.48101839999435,456.4967616000213,456.4967616000213,456.4967616000213,460.11021469999105,,,,460.1161255000043,460.1278400000301,460.1278400000301,460.1764135999838,460.1766333000269,460.1929246999789,460.1929246999789,460.1929246999789,460.2756009000004,460.6098430000129,,,,,,,,up,3.6006407999666408,None,space,0.4052254999987781,None,,,,,,,,,,,,,,,,,P121,001,2025-02-21_10h54.38.850,posner_endo_new1,2024.2.4,60.081999894352805,2025-02-21 10h54.51.695109 +0000,
cube_l.png,0.1,-0.31,valid,4,4,0,up,4.168041099968832,None,space,0.3969535999931395,None,,,,,0,4,4,4,,,,,460.62543299997924,,,,,,,,,,,,,460.6100184000097,460.62543299997924,460.62543299997924,460.62543299997924,464.80539420002606,,,,464.8111454999889,464.82271959999343,464.82271959999343,464.8715339000337,464.87175729998853,464.88785290002124,464.88785290002124,464.88785290002124,464.9543653000146,465.2880762999994,,,,,,,,up,4.168041099968832,None,space,0.3969535999931395,None,,,,,,,,,,,,,,,,,P121,001,2025-02-21_10h54.38.850,posner_endo_new1,2024.2.4,60.081999894352805,2025-02-21 10h54.51.695109 +0000,
cube_r.png,0.1,-0.31,invalid,5,5,0,up,4.169718399993144,None,space,0.5253364000236616,None,,,,,0,5,5,5,,,,,465.304396099993,,,,,,,,,,,,,465.2882446000003,465.304396099993,465.304396099993,465.304396099993,469.48395080002956,,,,469.48971160000656,469.50139699998545,469.50139699998545,469.5501712000114,469.55041630001506,469.566646900028,469.566646900028,469.566646900028,469.63307650003117,470.100104800018,,,,,,,,up,4.169718399993144,None,space,0.5253364000236616,None,,,,,,,,,,,,,,,,,P121,001,2025-02-21_10h54.38.850,posner_endo_new1,2024.2.4,60.081999894352805,2025-02-21 10h54.51.695109 +0000,
cube_r.png,0.1,0.31,valid,6,6,0,up,4.1257763000321575,None,space,0.3305219999747351,None,,,,,0,6,6,6,,,,,470.1160707999952,,,,,,,,,,,,,470.1002743000281,470.1160707999952,470.1160707999952,470.1160707999952,474.246109300002,,,,474.251909899991,474.2637241000193,474.2637241000193,474.31181220000144,474.3120348000084,474.32790259999456,474.32790259999456,474.32790259999456,474.4117730000289,474.6617827999871,,,,,,,,up,4.1257763000321575,None,space,0.3305219999747351,None,,,,,,,,,,,,,,,,,P121,001,2025-02-21_10h54.38.850,posner_endo_new1,2024.2.4,60.081999894352805,2025-02-21 10h54.51.695109 +0000,
cube_r.png,0.1,-0.31,invalid,7,7,0,up,3.459775900002569,None,space,0.3987934000324458,None,,,,,0,7,7,7,,,,,474.6780231000157,,,,,,,,,,,,,474.66195089998655,474.6780231000157,474.6780231000157,474.6780231000157,478.14197589998366,,,,478.1480595000321,478.15989150002133,478.15989150002133,478.20766790001653,478.20788910001284,478.2243473000126,478.2243473000126,478.2243473000126,478.30766510003014,478.6250153000001,,,,,,,,up,3.459775900002569,None,space,0.3987934000324458,None,,,,,,,,,,,,,,,,,P121,001,2025-02-21_10h54.38.850,posner_endo_new1,2024.2.4,60.081999894352805,2025-02-21 10h54.51.695109 +0000,
cube_l.png,0.1,-0.31,valid,8,8,0,up,3.9688912999699824,None,space,0.25785870000254363,None,,,,,0,8,8,8,,,,,478.6406812000205,,,,,,,,,,,,,478.6251870000269,478.6406812000205,478.6406812000205,478.6406812000205,482.620548899984,,,,482.62683630001266,482.6387567999773,482.6387567999773,482.6861435000319,482.6863771000062,482.7033071999904,482.7033071999904,482.7033071999904,482.76995899999747,482.9701376000303,,,,,,,,up,3.9688912999699824,None,space,0.25785870000254363,None,,,,,,,,,,,,,,,,,P121,001,2025-02-21_10h54.38.850,posner_endo_new1,2024.2.4,60.081999894352805,2025-02-21 10h54.51.695109 +0000,
cube_r.png,0.1,-0.31,invalid,9,9,0,up,4.359750500007067,None,space,0.31298569997306913,None,,,,,0,9,9,9,,,,,482.9863111000159,,,,,,,,,,,,,482.97032239998225,482.9863111000159,482.9863111000159,482.9863111000159,487.3492522999877,,,,487.3551211000304,487.3668275999953,487.3668275999953,487.4151542999898,487.4153735000291,487.43168400001014,487.43168400001014,487.43168400001014,487.5146467000013,487.74895670003025,,,,,,,,up,4.359750500007067,None,space,0.31298569997306913,None,,,,,,,,,,,,,,,,,P121,001,2025-02-21_10h54.38.850,posner_endo_new1,2024.2.4,60.081999894352805,2025-02-21 10h54.51.695109 +0000,
cube_l.png,0.1,0.31,invalid,10,10,0,up,4.397226300032344,None,space,0.3990428000106476,None,,,,,0,10,10,10,,,,,487.7646226999932,,,,,,,,,,,,,487.749127099989,487.7646226999932,487.7646226999932,487.7646226999932,492.1769868999836,,,,492.1827983999974,492.1944422000088,492.1944422000088,492.2435334000038,492.243759999983,492.26003589999164,492.26003589999164,492.26003589999164,492.32662170002004,492.66013460000977,,,,,,,,up,4.397226300032344,None,space,0.3990428000106476,None,,,,,,,,,,,,,,,,,P121,001,2025-02-21_10h54.38.850,posner_endo_new1,2024.2.4,60.081999894352805,2025-02-21 10h54.51.695109 +0000,
cube_r.png,0.1,-0.31,invalid,11,11,0,up,3.101935999991838,None,space,0.3300010999664664,None,,,,,0,11,11,11,,,,,492.6761706999969,,,,,,,,,,,,,492.66030590003356,492.6761706999969,492.6761706999969,492.6761706999969,495.79062019998673,,,,495.79638930002693,495.8081106999889,495.8081106999889,495.85644070000853,495.8566608999972,495.87315930001205,495.87315930001205,495.87315930001205,495.9562573999865,496.2068387999898,,,,,,,,up,3.101935999991838,None,space,0.3300010999664664,None,,,,,,,,,,,,,,,,,P121,001,2025-02-21_10h54.38.850,posner_endo_new1,2024.2.4,60.081999894352805,2025-02-21 10h54.51.695109 +0000,
cube_r.png,0.1,0.31,valid,12,12,0,up,4.202706300013233,None,space,0.478476700023748,None,,,,,0,12,12,12,,,,,496.2226037000073,,,,,,,,,,,,,496.2070074999938,496.2226037000073,496.2226037000073,496.2226037000073,500.43580680002924,,,,500.4419056000188,500.4535074000014,500.4535074000014,500.50134030001936,500.5015607000096,500.51841010001954,500.51841010001954,500.51841010001954,500.5849916000152,501.00146320002386,,,,,,,,up,4.202706300013233,None,space,0.478476700023748,None,,,,,,,,,,,,,,,,,P121,001,2025-02-21_10h54.38.850,posner_endo_new1,2024.2.4,60.081999894352805,2025-02-21 10h54.51.695109 +0000,
cube_l.png,0.1,10,catch,13,13,0,up,4.21614709997084,None,None,,,,,,,0,13,13,13,,,,,501.017724299978,,,,,,,,,,,,,501.0016367000062,501.017724299978,501.017724299978,501.017724299978,505.24746360001154,,,,505.2532892000163,505.26499689999036,505.26499689999036,505.3135822999757,505.3138041999773,505.3300236000214,505.3300236000214,505.3300236000214,505.3964890000061,508.32742889999645,,,,507.41094189998694,508.34354049997637,508.34354049997637,508.34354049997637,up,4.21614709997084,None,None,,,,,,,,,,,,,,,,,,,P121,001,2025-02-21_10h54.38.850,posner_endo_new1,2024.2.4,60.081999894352805,2025-02-21 10h54.51.695109 +0000,
cube_r.png,0.1,-0.31,invalid,14,14,0,up,1.0987263999995776,None,space,0.4159810999990441,None,,,,,0,14,14,14,,,,,508.34354049997637,,,,,,,,,,,,,508.3275899,508.34354049997637,508.34354049997637,508.34354049997637,509.4433764999849,,,,509.44914819998667,509.46076789998915,509.46076789998915,509.50912330002757,509.5093447000254,509.52581249998184,509.52581249998184,509.52581249998184,509.60880410001846,509.94284000003245,,,,,,,,up,1.0987263999995776,None,space,0.4159810999990441,None,,,,,,,,,,,,,,,,,P121,001,2025-02-21_10h54.38.850,posner_endo_new1,2024.2.4,60.081999894352805,2025-02-21 10h54.51.695109 +0000,
cube_l.png,0.1,-0.31,valid,15,15,0,up,3.55609570001252,None,space,0.3861039000330493,None,,,,,0,15,15,15,,,,,509.958186200005,,,,,,,,,,,,,509.94301099999575,509.958186200005,509.958186200005,509.958186200005,513.5219429000281,,,,513.5277617999818,513.5392636000179,513.5392636000179,513.5720995999873,513.5723083000048,513.5883007000084,513.5883007000084,513.5883007000084,513.6715676999884,513.9883932999801,,,,,,,,up,3.55609570001252,None,space,0.3861039000330493,None,513.5883007000084,513.5883007000084,,,,,,,,,,,,,,,P121,001,2025-02-21_10h54.38.850,posner_endo_new1,2024.2.4,60.081999894352805,2025-02-21 10h54.51.695109 +0000,
cube_r.png,0.1,10,catch,16,16,0,up,3.4689590000198223,None,None,,,,,,,0,16,16,16,,,,,514.0045484000002,,,,,,,,,,,,,513.9885637999978,514.0045484000002,514.0045484000002,514.0045484000002,517.4846133000101,,,,517.4907777999761,517.5025541000068,517.5025541000068,517.5510748000233,517.5512949000113,517.5672186000156,517.5672186000156,517.5672186000156,517.6340381000191,520.5644803000032,,,,519.6487750000088,520.5812499999884,520.5812499999884,520.5812499999884,up,3.4689590000198223,None,None,,,,,,,,,,,,,,,,,,,P121,001,2025-02-21_10h54.38.850,posner_endo_new1,2024.2.4,60.081999894352805,2025-02-21 10h54.51.695109 +0000,
cube_r.png,0.1,10,catch,17,17,0,up,1.2928824999835342,None,None,,,,,,,0,17,17,17,,,,,520.5812499999884,,,,,,,,,,,,,520.564641600009,520.5812499999884,520.5812499999884,520.5812499999884,521.8805348000024,,,,521.8863409999758,521.897943900025,521.897943900025,521.9465770000243,521.9467969000107,521.9630614999915,521.9630614999915,521.9630614999915,522.0292558000074,524.9603637999971,,,,524.0443773000152,524.9765886000241,524.9765886000241,524.9765886000241,up,1.2928824999835342,None,None,,,,,,,,,,,,,,,,,,,P121,001,2025-02-21_10h54.38.850,posner_endo_new1,2024.2.4,60.081999894352805,2025-02-21 10h54.51.695109 +0000,
cube_l.png,0.1,0.31,invalid,18,18,0,up,1.0090953999897465,None,space,0.36111140000866726,None,,,,,0,18,18,18,,,,,524.9765886000241,,,,,,,,,,,,,524.9605240999954,524.9765886000241,524.9765886000241,524.9765886000241,525.9926030000206,,,,525.9984286000254,526.0102756000124,526.0102756000124,526.0590439999942,526.059265399992,526.0754982000217,526.0754982000217,526.0754982000217,526.1421241000062,526.4423977999832,,,,,,,,up,1.0090953999897465,None,space,0.36111140000866726,None,,,,,,,,,,,,,,,,,P121,001,2025-02-21_10h54.38.850,posner_endo_new1,2024.2.4,60.081999894352805,2025-02-21 10h54.51.695109 +0000,
cube_l.png,0.1,10,catch,19,19,0,up,3.7591457000235096,None,None,,,,,,,0,19,19,19,,,,,526.4583207999822,,,,,,,,,,,,,526.442567799997,526.4583207999822,526.4583207999822,526.4583207999822,530.2220965999877,,,,530.2279800000251,530.2394726999919,530.2394726999919,530.2877906999784,530.2880114000291,530.3044598000124,530.3044598000124,530.3044598000124,530.3712842999958,533.3020460000262,,,,532.3853383000242,533.3181388999801,533.3181388999801,533.3181388999801,up,3.7591457000235096,None,None,,,,,,,,,,,,,,,,,,,P121,001,2025-02-21_10h54.38.850,posner_endo_new1,2024.2.4,60.081999894352805,2025-02-21 10h54.51.695109 +0000,
cube_l.png,0.1,0.31,invalid,20,20,0,up,1.5001092000165954,None,space,0.3949830999481492,None,,,,,0,20,20,20,,,,,533.3181388999801,,,,,,,,,,,,,533.3022028999985,533.3181388999801,533.3181388999801,533.3181388999801,534.83396920003,,,,534.8397324000252,534.8514963000198,534.8514963000198,534.8997613000101,534.8999808999943,534.9163043000153,534.9163043000153,534.9163043000153,534.9827104000142,535.317019900016,,,,,,,,up,1.5001092000165954,None,space,0.3949830999481492,None,,,,,,,,,,,,,,,,,P121,001,2025-02-21_10h54.38.850,posner_endo_new1,2024.2.4,60.081999894352805,2025-02-21 10h54.51.695109 +0000,
cube_l.png,0.1,-0.31,valid,21,21,0,up,4.4688238999806345,None,space,0.3640507999807596,None,,,,,0,21,21,21,,,,,535.3325986000127,,,,,,,,,,,,,535.3171949000098,535.3325986000127,535.3325986000127,535.3325986000127,539.8121360000223,,,,539.8179775000317,539.8296325000119,539.8296325000119,539.8781910000253,539.8784181000083,539.8947295999969,539.8947295999969,539.8947295999969,539.9610958999838,540.2618191000074,,,,,,,,up,4.4688238999806345,None,space,0.3640507999807596,None,,,,,,,,,,,,,,,,,P121,001,2025-02-21_10h54.38.850,posner_endo_new1,2024.2.4,60.081999894352805,2025-02-21 10h54.51.695109 +0000,
cube_r.png,0.1,0.31,valid,22,22,0,up,4.556993499980308,None,space,0.3310020000208169,None,,,,,0,22,22,22,,,,,540.2776297000237,,,,,,,,,,,,,540.2619940000004,540.2776297000237,540.2776297000237,540.2776297000237,544.840586700011,,,,544.8464207000216,544.8580931000179,544.8580931000179,544.9064239999861,544.9066478000022,544.9229716000264,544.9229716000264,544.9229716000264,544.9896905000205,545.2568006999791,,,,,,,,up,4.556993499980308,None,space,0.3310020000208169,None,,,,,,,,,,,,,,,,,P121,001,2025-02-21_10h54.38.850,posner_endo_new1,2024.2.4,60.081999894352805,2025-02-21 10h54.51.695109 +0000,
cube_r.png,0.1,-0.31,invalid,23,23,0,up,4.474252300045919,None,space,0.4129162000026554,None,,,,,0,23,23,23,,,,,545.2727103999932,,,,,,,,,,,,,545.2569713999983,545.2727103999932,545.2727103999932,545.2727103999932,549.7517252999824,,,,549.7575006000116,549.7689871999901,549.7689871999901,549.8019034999888,549.8021129000117,549.8179197999998,549.8179197999998,549.8179197999998,549.9011254999787,550.2352385999984,,,,,,,,up,4.474252300045919,None,space,0.4129162000026554,None,549.8179197999998,549.8179197999998,,,,,,,,,,,,,,,P121,001,2025-02-21_10h54.38.850,posner_endo_new1,2024.2.4,60.081999894352805,2025-02-21 10h54.51.695109 +0000,
cube_r.png,0.1,0.31,valid,24,24,0,up,4.375478899979498,None,space,0.3787729000323452,None,,,,,0,24,24,24,,,,,550.2509126000223,,,,,,,,,,,,,550.2354156000074,550.2509126000223,550.2509126000223,550.2509126000223,554.6304371000151,,,,554.6362288999953,554.6479712,554.6479712,554.6962448999984,554.696466399997,554.7130807000212,554.7130807000212,554.7130807000212,554.7796320000198,555.0968484000186,,,,,,,,up,4.375478899979498,None,space,0.3787729000323452,None,,,,,,,,,,,,,,,,,P121,001,2025-02-21_10h54.38.850,posner_endo_new1,2024.2.4,60.081999894352805,2025-02-21 10h54.51.695109 +0000,
cube_r.png,0.1,-0.31,invalid,25,25,0,up,3.8890657000010833,None,space,0.366017299995292,None,,,,,0,25,25,25,,,,,555.1124933999963,,,,,,,,,,,,,555.0970164000173,555.1124933999963,555.1124933999963,555.1124933999963,559.0092809000053,,,,559.0152613000246,559.0268587000319,559.0268587000319,559.0751299000112,559.0753498999984,559.0917411000119,559.0917411000119,559.0917411000119,559.158442999993,559.4588982000132,,,,,,,,up,3.8890657000010833,None,space,0.366017299995292,None,,,,,,,,,,,,,,,,,P121,001,2025-02-21_10h54.38.850,posner_endo_new1,2024.2.4,60.081999894352805,2025-02-21 10h54.51.695109 +0000,
cube_l.png,0.1,-0.31,valid,26,26,0,up,4.1516684999805875,None,space,0.37469480000436306,None,,,,,0,26,26,26,,,,,559.4744408000261,,,,,,,,,,,,,559.4590682000271,559.4744408000261,559.4744408000261,559.4744408000261,563.63790229999,,,,563.6437227000133,563.6554289999767,563.6554289999767,563.703983400017,563.7042110000039,563.720453499991,563.720453499991,563.720453499991,563.7866451999871,564.1040832999861,,,,,,,,up,4.1516684999805875,None,space,0.37469480000436306,None,,,,,,,,,,,,,,,,,P121,001,2025-02-21_10h54.38.850,posner_endo_new1,2024.2.4,60.081999894352805,2025-02-21 10h54.51.695109 +0000,
cube_r.png,0.1,0.31,valid,27,27,0,up,5.129969900008291,None,space,0.42948859999887645,None,,,,,0,27,27,27,,,,,564.1200771000003,,,,,,,,,,,,,564.1042600999936,564.1200771000003,564.1200771000003,564.1200771000003,569.2654496000032,,,,569.2713002000237,569.2830415000208,569.2830415000208,569.3313247000333,569.3315507000079,569.3480875000241,569.3480875000241,569.3480875000241,569.414664299984,569.7812975000124,,,,,,,,up,5.129969900008291,None,space,0.42948859999887645,None,,,,,,,,,,,,,,,,,P121,001,2025-02-21_10h54.38.850,posner_endo_new1,2024.2.4,60.081999894352805,2025-02-21 10h54.51.695109 +0000,
cube_r.png,0.1,10,catch,28,28,0,up,3.172550900024362,None,None,,,,,,,0,28,28,28,,,,,569.797645499988,,,,,,,,,,,,,569.7814646000043,569.797645499988,569.797645499988,569.797645499988,572.9779232000001,,,,572.9838678999804,572.9953963999869,572.9953963999869,573.0441587999812,573.0443781000213,573.0607940999907,573.0607940999907,573.0607940999907,573.1274505000329,576.0578643000335,,,,575.1418247999973,576.0747799000237,576.0747799000237,576.0747799000237,up,3.172550900024362,None,None,,,,,,,,,,,,,,,,,,,P121,001,2025-02-21_10h54.38.850,posner_endo_new1,2024.2.4,60.081999894352805,2025-02-21 10h54.51.695109 +0000,
cube_r.png,0.1,0.31,valid,29,29,0,up,1.9834619999746792,None,space,0.3681619999697432,None,,,,,0,29,29,29,,,,,576.0747799000237,,,,,,,,,,,,,576.0580353999976,576.0747799000237,576.0747799000237,576.0747799000237,578.072811799997,,,,578.0787334999768,578.0905564000132,578.0905564000132,578.1385530999978,578.1387724999804,578.1555923999986,578.1555923999986,578.1555923999986,578.222465400002,578.5394008000148,,,,,,,,up,1.9834619999746792,None,space,0.3681619999697432,None,,,,,,,,,,,,,,,,,P121,001,2025-02-21_10h54.38.850,posner_endo_new1,2024.2.4,60.081999894352805,2025-02-21 10h54.51.695109 +0000,
cube_r.png,0.1,0.31,valid,30,30,0,up,4.430806299962569,None,space,0.3785611999919638,None,,,,,0,30,30,30,,,,,578.555334899982,,,,,,,,,,,,,578.5395777000231,578.555334899982,578.555334899982,578.555334899982,583.0012959000305,,,,583.0070780999959,583.0184999000048,583.0184999000048,583.0673174000112,583.0675392000121,583.0841237999848,583.0841237999848,583.0841237999848,583.1505468999967,583.467688100005,,,,,,,,up,4.430806299962569,None,space,0.3785611999919638,None,,,,,,,,,,,,,,,,,P121,001,2025-02-21_10h54.38.850,posner_endo_new1,2024.2.4,60.081999894352805,2025-02-21 10h54.51.695109 +0000,
cube_l.png,0.1,-0.31,valid,31,31,0,up,4.279231099993922,None,space,0.4688395000412129,None,,,,,0,31,31,31,,,,,583.4829705000157,,,,,,,,,,,,,583.4678567000083,583.4829705000157,583.4829705000157,583.4829705000157,587.76329480001,,,,587.7690940999892,587.7805792000145,587.7805792000145,587.8291650000028,587.8293878000113,587.8454272000236,587.8454272000236,587.8454272000236,587.9118754999945,588.3293319999939,,,,,,,,up,4.279231099993922,None,space,0.4688395000412129,None,,,,,,,,,,,,,,,,,P121,001,2025-02-21_10h54.38.850,posner_endo_new1,2024.2.4,60.081999894352805,2025-02-21 10h54.51.695109 +0000,
cube_r.png,0.1,0.31,valid,32,32,0,up,4.080507699982263,None,space,0.322036899975501,None,,,,,0,32,32,32,,,,,588.3453934999998,,,,,,,,,,,,,588.3295090000029,588.3453934999998,588.3453934999998,588.3453934999998,592.4416728999931,,,,592.4474973999895,592.4590786999906,592.4590786999906,592.5077857000288,592.5080075000296,592.5243486000109,592.5243486000109,592.5243486000109,592.5910426999908,592.858033400029,,,,,,,,up,4.080507699982263,None,space,0.322036899975501,None,,,,,,,,,,,,,,,,,P121,001,2025-02-21_10h54.38.850,posner_endo_new1,2024.2.4,60.081999894352805,2025-02-21 10h54.51.695109 +0000,
cube_r.png,0.1,-0.31,invalid,33,33,0,up,4.471499599982053,None,space,0.3673406000016257,None,,,,,0,33,33,33,,,,,592.8740926000173,,,,,,,,,,,,,592.8582079000189,592.8740926000173,592.8740926000173,592.8740926000173,597.353436800011,,,,597.35930250003,597.3710240999935,597.3710240999935,597.4194305000128,597.4196583000012,597.4358924999833,597.4358924999833,597.4358924999833,597.5021866000025,597.8197206999757,,,,,,,,up,4.471499599982053,None,space,0.3673406000016257,None,,,,,,,,,,,,,,,,,P121,001,2025-02-21_10h54.38.850,posner_endo_new1,2024.2.4,60.081999894352805,2025-02-21 10h54.51.695109 +0000,
cube_r.png,0.1,10,catch,34,34,0,up,4.911178199981805,None,None,,,,,,,0,34,34,34,,,,,597.8355180000071,,,,,,,,,,,,,597.8198890999774,597.8355180000071,597.8355180000071,597.8355180000071,602.7480261999881,,,,602.7537761999993,602.7655277000158,602.7655277000158,602.8136980999843,602.8139176000259,602.8305294000311,602.8305294000311,602.8305294000311,602.8970379999955,605.8279989000293,,,,604.9117200000328,605.8439405999961,605.8439405999961,605.8439405999961,up,4.911178199981805,None,None,,,,,,,,,,,,,,,,,,,P121,001,2025-02-21_10h54.38.850,posner_endo_new1,2024.2.4,60.081999894352805,2025-02-21 10h54.51.695109 +0000,
cube_r.png,0.1,0.31,valid,35,35,0,up,2.6385145999956876,None,space,0.3368653000216,None,,,,,0,35,35,35,,,,,605.8439405999961,,,,,,,,,,,,,605.8281664000242,605.8439405999961,605.8439405999961,605.8439405999961,608.4923695999896,,,,608.5049639000208,608.5151321000303,608.5151321000303,608.557691199996,608.5580849000253,608.5743341000052,608.5743341000052,608.5743341000052,608.6574116999982,608.9253013000125,,,,,,,,up,2.6385145999956876,None,space,0.3368653000216,None,,,,,,,,,,,,,,,,,P121,001,2025-02-21_10h54.38.850,posner_endo_new1,2024.2.4,60.081999894352805,2025-02-21 10h54.51.695109 +0000,
cube_r.png,0.1,-0.31,invalid,36,36,0,up,3.509861800004728,None,space,0.3490965999662876,None,,,,,0,36,36,36,,,,,608.9404921000241,,,,,,,,,,,,,608.9256402000319,608.9404921000241,608.9404921000241,608.9404921000241,612.454626700026,,,,612.4630260000122,612.4736356000067,612.4736356000067,612.520343000011,612.5206302999868,612.5368513999856,612.5368513999856,612.5368513999856,612.6200451999903,612.8876307000173,,,,,,,,up,3.509861800004728,None,space,0.3490965999662876,None,,,,,,,,,,,,,,,,,P121,001,2025-02-21_10h54.38.850,posner_endo_new1,2024.2.4,60.081999894352805,2025-02-21 10h54.51.695109 +0000,
cube_l.png,0.1,0.31,invalid,37,37,0,up,4.650599399989005,None,space,0.4260798000032082,None,,,,,0,37,37,37,,,,,612.9031460999977,,,,,,,,,,,,,612.8878625999787,612.9031460999977,612.9031460999977,612.9031460999977,617.5660881000222,,,,617.574274500017,617.5849877999863,617.5849877999863,617.6317963000038,617.6320699999924,617.648522500007,617.648522500007,617.648522500007,617.7314856000012,618.082515600021,,,,,,,,up,4.650599399989005,None,space,0.4260798000032082,None,,,,,,,,,,,,,,,,,P121,001,2025-02-21_10h54.38.850,posner_endo_new1,2024.2.4,60.081999894352805,2025-02-21 10h54.51.695109 +0000,
cube_l.png,0.1,0.31,invalid,38,38,0,up,4.0404215000453405,None,space,0.3522225999622606,None,,,,,0,38,38,38,,,,,618.0980217999895,,,,,,,,,,,,,618.082742700004,618.0980217999895,618.0980217999895,618.0980217999895,622.1445056999801,,,,622.152631999983,622.1635222000186,622.1635222000186,622.2106685999897,622.2109495000332,622.2272263999912,622.2272263999912,622.2272263999912,622.2935527000227,622.5940694999881,,,,,,,,up,4.0404215000453405,None,space,0.3522225999622606,None,,,,,,,,,,,,,,,,,P121,001,2025-02-21_10h54.38.850,posner_endo_new1,2024.2.4,60.081999894352805,2025-02-21 10h54.51.695109 +0000,
cube_r.png,0.1,0.31,valid,39,39,0,up,4.408281899988651,None,space,0.37860659998841584,None,,,,,0,39,39,39,,,,,622.6102288999828,,,,,,,,,,,,,622.5942957000225,622.6102288999828,622.6102288999828,622.6102288999828,627.0229604999768,,,,627.0311018999782,627.0419852000196,627.0419852000196,627.0887669000076,627.0890378000331,627.1055464000092,627.1055464000092,627.1055464000092,627.1885097000049,627.4892299000057,,,,,,,,up,4.408281899988651,None,space,0.37860659998841584,None,,,,,,,,,,,,,,,,,P121,001,2025-02-21_10h54.38.850,posner_endo_new1,2024.2.4,60.081999894352805,2025-02-21 10h54.51.695109 +0000,
cube_l.png,0.1,0.31,invalid,40,40,0,up,4.8089583000401035,None,space,0.30695720005314797,None,,,,,0,40,40,40,,,,,627.5051039999817,,,,,,,,,,,,,627.4894483999815,627.5051039999817,627.5051039999817,627.5051039999817,632.3176206999924,,,,632.3257713000057,632.3364717999939,632.3364717999939,632.3833381999866,632.3836078000022,632.3998623000225,632.3998623000225,632.3998623000225,632.4834994000266,632.7172089000233,,,,,,,,up,4.8089583000401035,None,space,0.30695720005314797,None,,,,,,,,,,,,,,,,,P121,001,2025-02-21_10h54.38.850,posner_endo_new1,2024.2.4,60.081999894352805,2025-02-21 10h54.51.695109 +0000,
cube_l.png,0.1,10,catch,41,41,0,up,4.068833599973004,None,space,0.30284319998463616,None,,,,,0,41,41,41,,,,,632.7328678999911,,,,,,,,,,,,,632.7174267999944,632.7328678999911,632.7328678999911,632.7328678999911,636.8128367000027,,,,636.8209973999765,636.8319129000301,636.8319129000301,636.8786916999961,636.8789685000083,636.8952095999848,636.8952095999848,636.8952095999848,636.9622442999971,637.2125430000015,,,,,,,,up,4.068833599973004,None,space,0.30284319998463616,None,,,,,,,,,,,,,,,,,P121,001,2025-02-21_10h54.38.850,posner_endo_new1,2024.2.4,60.081999894352805,2025-02-21 10h54.51.695109 +0000,
cube_l.png,0.1,-0.31,valid,42,42,0,up,5.149958699999843,None,space,0.4871642999933101,None,,,,,0,42,42,42,,,,,637.2284703000332,,,,,,,,,,,,,637.2127809000085,637.2284703000332,637.2284703000332,637.2284703000332,642.390662699996,,,,642.3988442000118,642.4097465000232,642.4097465000232,642.4565919000306,642.4568665000261,642.4732564000296,642.4732564000296,642.4732564000296,642.5565704000182,642.9732743999921,,,,,,,,up,5.149958699999843,None,space,0.4871642999933101,None,,,,,,,,,,,,,,,,,P121,001,2025-02-21_10h54.38.850,posner_endo_new1,2024.2.4,60.081999894352805,2025-02-21 10h54.51.695109 +0000,
cube_l.png,0.1,10,catch,43,43,0,up,4.588461600011215,None,None,,,,,,,0,43,43,43,,,,,642.9894040999934,,,,,,,,,,,,,642.973509399977,642.9894040999934,642.9894040999934,642.9894040999934,647.5856103000115,,,,647.5937467000331,647.6042383000022,647.6042383000022,647.6511208000011,647.6513937999844,647.6675727000111,647.6675727000111,647.6675727000111,647.7510419000173,650.6655209999881,,,,649.7654222000274,650.6814900999889,650.6814900999889,650.6814900999889,up,4.588461600011215,None,None,,,,,,,,,,,,,,,,,,,P121,001,2025-02-21_10h54.38.850,posner_endo_new1,2024.2.4,60.081999894352805,2025-02-21 10h54.51.695109 +0000,
cube_l.png,0.1,0.31,invalid,44,44,0,up,2.297028200002387,None,space,0.46740910003427416,None,,,,,0,44,44,44,,,,,650.6814900999889,,,,,,,,,,,,,650.6657438999973,650.6814900999889,650.6814900999889,650.6814900999889,652.9802805000218,,,,652.9885718000005,652.9989136999939,652.9989136999939,653.0456168000237,653.0459018999827,653.062150600017,653.062150600017,653.062150600017,653.1455546999932,653.546208899992,,,,,,,,up,2.297028200002387,None,space,0.46740910003427416,None,,,,,,,,,,,,,,,,,P121,001,2025-02-21_10h54.38.850,posner_endo_new1,2024.2.4,60.081999894352805,2025-02-21 10h54.51.695109 +0000,
cube_l.png,0.1,0.31,invalid,45,45,0,up,3.512338600005023,None,space,0.3874762000050396,None,,,,,0,45,45,45,,,,,653.5619444000185,,,,,,,,,,,,,653.5464360000333,653.5619444000185,653.5619444000185,653.5619444000185,657.0759176000138,,,,657.0842312999885,657.0945986000006,657.0945986000006,657.1414863999817,657.1417691999814,657.158214199997,657.158214199997,657.158214199997,657.2411594000296,657.5584834000329,,,,,,,,up,3.512338600005023,None,space,0.3874762000050396,None,,,,,,,,,,,,,,,,,P121,001,2025-02-21_10h54.38.850,posner_endo_new1,2024.2.4,60.081999894352805,2025-02-21 10h54.51.695109 +0000,
cube_r.png,0.1,0.31,valid,46,46,0,up,3.7798709999769926,None,space,0.5075364999938756,None,,,,,0,46,46,46,,,,,657.5741745000123,,,,,,,,,,,,,657.5587140999851,657.5741745000123,657.5741745000123,657.5741745000123,661.355240600009,,,,661.3635929999873,661.37369019998,661.37369019998,661.4203939000145,661.4206777000218,661.4368668000097,661.4368668000097,661.4368668000097,661.5202960000024,661.9543970000232,,,,,,,,up,3.7798709999769926,None,space,0.5075364999938756,None,,,,,,,,,,,,,,,,,P121,001,2025-02-21_10h54.38.850,posner_endo_new1,2024.2.4,60.081999894352805,2025-02-21 10h54.51.695109 +0000,
cube_l.png,0.1,-0.31,valid,47,47,0,up,5.856491399987135,None,space,0.3882340000127442,None,,,,,0,47,47,47,,,,,661.9696166000213,,,,,,,,,,,,,661.9546236000024,661.9696166000213,661.9696166000213,661.9696166000213,667.8313168000313,,,,667.8394716000184,667.8503353000269,667.8503353000269,667.8971034000278,667.8973801999819,667.9135145000182,667.9135145000182,667.9135145000182,667.997009099985,668.3146336000063,,,,,,,,up,5.856491399987135,None,space,0.3882340000127442,None,,,,,,,,,,,,,,,,,P121,001,2025-02-21_10h54.38.850,posner_endo_new1,2024.2.4,60.081999894352805,2025-02-21 10h54.51.695109 +0000,
cube_r.png,0.1,-0.31,invalid,48,48,0,up,5.05701330001466,None,space,0.4172250000410713,None,,,,,0,48,48,48,,,,,668.3296694000019,,,,,,,,,,,,,668.3148892000318,668.3296694000019,668.3296694000019,668.3296694000019,673.3922502999776,,,,673.400364400004,673.4112466999795,673.4112466999795,673.4579860999947,673.4582588999765,673.4745410000323,673.4745410000323,673.4745410000323,673.5582128000096,673.9083015000215,,,,,,,,up,5.05701330001466,None,space,0.4172250000410713,None,,,,,,,,,,,,,,,,,P121,001,2025-02-21_10h54.38.850,posner_endo_new1,2024.2.4,60.081999894352805,2025-02-21 10h54.51.695109 +0000,
cube_r.png,0.1,10,catch,49,49,0,up,4.669818900001701,None,None,,,,,,,0,49,49,49,,,,,673.9245444000117,,,,,,,,,,,,,673.9085174999782,673.9245444000117,673.9245444000117,673.9245444000117,678.6036242999835,,,,678.6117912000045,678.6226544000092,678.6226544000092,678.6697671000147,678.6700371000334,678.6862247000099,678.6862247000099,678.6862247000099,678.769186999998,681.6833960000076,,,,680.7837739000097,681.6995216999785,681.6995216999785,681.6995216999785,up,4.669818900001701,None,None,,,,,,,,,,,,,,,,,,,P121,001,2025-02-21_10h54.38.850,posner_endo_new1,2024.2.4,60.081999894352805,2025-02-21 10h54.51.695109 +0000,
cube_l.png,0.1,-0.31,valid,50,50,0,up,0.7349943000008352,None,space,0.43520860001444817,None,,,,,0,50,50,50,,,,,681.6995216999785,,,,,,,,,,,,,681.6835993999848,681.6995216999785,681.6995216999785,681.6995216999785,682.4496818000334,,,,682.4579550999915,682.4687244999805,682.4687244999805,682.5154349000077,682.5157113000168,682.5321416999795,682.5321416999795,682.5321416999795,682.6153290999937,682.9825035000104,,,,,,,,up,0.7349943000008352,None,space,0.43520860001444817,None,,,,,,,,,,,,,,,,,P121,001,2025-02-21_10h54.38.850,posner_endo_new1,2024.2.4,60.081999894352805,2025-02-21 10h54.51.695109 +0000,
cube_l.png,0.1,-0.31,valid,51,51,0,up,3.803515499981586,None,space,0.39255089999642223,None,,,,,0,51,51,51,,,,,682.9982007999788,,,,,,,,,,,,,682.982725800015,682.9982007999788,682.9982007999788,682.9982007999788,686.8118316000327,,,,686.8199142999947,686.830932300014,686.830932300014,686.8778789999778,686.8781480999896,686.8941871999996,686.8941871999996,686.8941871999996,686.9773990000249,687.2948014999856,,,,,,,,up,3.803515499981586,None,space,0.39255089999642223,None,,,,,,,,,,,,,,,,,P121,001,2025-02-21_10h54.38.850,posner_endo_new1,2024.2.4,60.081999894352805,2025-02-21 10h54.51.695109 +0000,
cube_r.png,0.1,-0.31,invalid,52,52,0,up,4.195158499991521,None,space,0.4268999000196345,None,,,,,0,52,52,52,,,,,687.3106487999903,,,,,,,,,,,,,687.2950189000112,687.3106487999903,687.3106487999903,687.3106487999903,691.5076424999861,,,,691.5158203000319,691.5261578999925,691.5261578999925,691.5729220000212,691.5731938999961,691.5896709000226,691.5896709000226,691.5896709000226,691.6729428999824,692.0237224000157,,,,,,,,up,4.195158499991521,None,space,0.4268999000196345,None,,,,,,,,,,,,,,,,,P121,001,2025-02-21_10h54.38.850,posner_endo_new1,2024.2.4,60.081999894352805,2025-02-21 10h54.51.695109 +0000,
cube_l.png,0.1,-0.31,valid,53,53,0,up,4.434811399958562,None,space,0.5656042000046,None,,,,,0,53,53,53,,,,,692.0389926999924,,,,,,,,,,,,,692.0239503000048,692.0389926999924,692.0389926999924,692.0389926999924,696.4854494000319,,,,696.4935222999775,696.5043597000185,696.5043597000185,696.5510902000242,696.5513602999854,696.5678694000235,696.5678694000235,696.5678694000235,696.6513007000322,697.1347889000317,,,,,,,,up,4.434811399958562,None,space,0.5656042000046,None,,,,,,,,,,,,,,,,,P121,001,2025-02-21_10h54.38.850,posner_endo_new1,2024.2.4,60.081999894352805,2025-02-21 10h54.51.695109 +0000,
cube_r.png,0.1,10,catch,54,54,0,up,4.219531100010499,None,space,0.24460880004335195,None,,,,,0,54,54,54,,,,,697.1504712000024,,,,,,,,,,,,,697.1350111999782,697.1504712000024,697.1504712000024,697.1504712000024,701.3801964999875,,,,701.3882620999939,701.399447600008,701.399447600008,701.4465614000219,701.4468419000041,701.4630128000281,701.4630128000281,701.4630128000281,701.5292759999866,701.7135563000338,,,,,,,,up,4.219531100010499,None,space,0.24460880004335195,None,,,,,,,,,,,,,,,,,P121,001,2025-02-21_10h54.38.850,posner_endo_new1,2024.2.4,60.081999894352805,2025-02-21 10h54.51.695109 +0000,
cube_l.png,0.1,0.31,invalid,55,55,0,up,4.090175300021656,None,space,0.4634141999995336,None,,,,,0,55,55,55,,,,,701.7294310000143,,,,,,,,,,,,,701.713799500023,701.7294310000143,701.7294310000143,701.7294310000143,705.8258190000197,,,,705.8339318999788,705.8446098000277,705.8446098000277,705.8919173000031,705.8921909999917,705.9084769000183,705.9084769000183,705.9084769000183,705.9746409999789,706.3755228000227,,,,,,,,up,4.090175300021656,None,space,0.4634141999995336,None,,,,,,,,,,,,,,,,,P121,001,2025-02-21_10h54.38.850,posner_endo_new1,2024.2.4,60.081999894352805,2025-02-21 10h54.51.695109 +0000,
cube_l.png,0.1,-0.31,valid,56,56,0,up,3.363641200005077,None,space,0.43661540001630783,None,,,,,0,56,56,56,,,,,706.3909962000325,,,,,,,,,,,,,706.3757405999932,706.3909962000325,706.3909962000325,706.3909962000325,709.7715976000181,,,,709.7796603000024,709.7908341999864,709.7908341999864,709.8375128000043,709.8377885000082,709.854066000029,709.854066000029,709.854066000029,709.9208881999948,710.3046266000019,,,,,,,,up,3.363641200005077,None,space,0.43661540001630783,None,,,,,,,,,,,,,,,,,P121,001,2025-02-21_10h54.38.850,posner_endo_new1,2024.2.4,60.081999894352805,2025-02-21 10h54.51.695109 +0000,
cube_r.png,0.1,0.31,valid,57,57,0,up,4.0267878999584354,None,space,0.4942064000060782,None,,,,,0,57,57,57,,,,,710.320185300021,,,,,,,,,,,,,710.3048523000325,710.320185300021,710.320185300021,710.320185300021,714.3506632000208,,,,714.3589245000039,714.3693332999828,714.3693332999828,714.4161962000071,714.4164803000167,714.4327902999939,714.4327902999939,714.4327902999939,714.5159061999875,714.9331657000002,,,,,,,,up,4.0267878999584354,None,space,0.4942064000060782,None,,,,,,,,,,,,,,,,,P121,001,2025-02-21_10h54.38.850,posner_endo_new1,2024.2.4,60.081999894352805,2025-02-21 10h54.51.695109 +0000,
cube_r.png,0.1,-0.31,invalid,58,58,0,up,3.221145100018475,None,space,0.5902520999661647,None,,,,,0,58,58,58,,,,,714.9488752000034,,,,,,,,,,,,,714.9334096999955,714.9488752000034,714.9488752000034,714.9488752000034,718.1797779999906,,,,718.1880851000315,718.1989040999906,718.1989040999906,718.2460957000148,718.2463722000248,718.2621526999865,718.2621526999865,718.2621526999865,718.3291446000221,718.8624486000044,,,,,,,,up,3.221145100018475,None,space,0.5902520999661647,None,,,,,,,,,,,,,,,,,P121,001,2025-02-21_10h54.38.850,posner_endo_new1,2024.2.4,60.081999894352805,2025-02-21 10h54.51.695109 +0000,
cube_l.png,0.1,0.31,invalid,59,59,0,up,4.083106499980204,None,space,0.42017329996451735,None,,,,,0,59,59,59,,,,,718.878626300022,,,,,,,,,,,,,718.8626749999821,718.878626300022,718.878626300022,718.878626300022,722.9748723999946,,,,722.9830485000275,722.9941249000258,722.9941249000258,723.0407038999838,723.0409772000276,723.0574405000079,723.0574405000079,723.0574405000079,723.1405290000257,723.4911181000061,,,,,,,,up,4.083106499980204,None,space,0.42017329996451735,None,,,,,,,,,,,,,,,,,P121,001,2025-02-21_10h54.38.850,posner_endo_new1,2024.2.4,60.081999894352805,2025-02-21 10h54.51.695109 +0000,
,,,,,,,,,,,,,,,,,,,,,,,,,,,,,,,,,,,,,,,,,,,,,,,,,,,,,,,,,,,,,,,,,,,,,,,723.4912573000183,723.5067438000115,723.5067438000115,783.512598500005,801.4280909000081,space,77.91150649997871,None,,,,,,,P121,001,2025-02-21_10h54.38.850,posner_endo_new1,2024.2.4,60.081999894352805,2025-02-21 10h54.51.695109 +0000,
,,,,,,,,,,,,,,,,,,,,,,,,,,,,,,,,,,801.4281634999788,801.4441803999944,804.4546509999782,804.4247379000299,,,,,,,,,,,,,,,,,,,,,,,,,,,,,,,,,,,,,,,,,,,,,,,,P121,001,2025-02-21_10h54.38.850,posner_endo_new1,2024.2.4,60.081999894352805,2025-02-21 10h54.51.695109 +0000,
cube_l.png,0.1,10,catch,0,0,0,down,2.1713094000006095,None,None,,,,,,,,,,,0,0,0,0,804.4546509999782,,,,,,,,,,,,,804.4457098999992,804.4546509999782,804.4546509999782,804.4546509999782,806.6397230000002,,,,806.6458367999876,806.6572732999921,806.6572732999921,806.7056270000176,806.705869700003,806.7221837000106,806.7221837000106,806.7221837000106,806.8052513999864,809.71918309998,,,,808.8199726000312,809.735889100004,809.735889100004,809.735889100004,,,,,,,,,,,,,,,,,down,2.1713094000006095,None,None,,,P121,001,2025-02-21_10h54.38.850,posner_endo_new1,2024.2.4,60.081999894352805,2025-02-21 10h54.51.695109 +0000,
cube_l.png,0.1,10,catch,1,1,0,down,0.5628094000276178,None,None,,,,,,,,,,,0,1,1,1,809.735889100004,,,,,,,,,,,,,809.7193558000145,809.735889100004,809.735889100004,809.735889100004,810.302582000033,,,,810.3083248999901,810.3198143999907,810.3198143999907,810.3680635999772,810.3682839000248,810.3851659999928,810.3851659999928,810.3851659999928,810.451602599991,813.3821598999784,,,,812.4664877000032,813.3986276999931,813.3986276999931,813.3986276999931,,,,,,,,,,,,,,,,,down,0.5628094000276178,None,None,,,P121,001,2025-02-21_10h54.38.850,posner_endo_new1,2024.2.4,60.081999894352805,2025-02-21 10h54.51.695109 +0000,
cube_l.png,0.1,0.31,invalid,2,2,0,down,1.5553554999642074,None,space,0.45005320000927895,None,,,,,,,,,0,2,2,2,813.3986276999931,,,,,,,,,,,,,813.3823207999812,813.3986276999931,813.3986276999931,813.3986276999931,814.9643670999794,,,,814.9701534999767,814.9818661999889,814.9818661999889,815.030464600015,815.0306842999998,815.0469135000021,815.0469135000021,815.0469135000021,815.1135728000081,815.513941799989,,,,,,,,,,,,,,,,,,,,,,,,down,1.5553554999642074,None,space,0.45005320000927895,None,P121,001,2025-02-21_10h54.38.850,posner_endo_new1,2024.2.4,60.081999894352805,2025-02-21 10h54.51.695109 +0000,
cube_l.png,0.1,0.31,invalid,3,3,0,down,5.657049099972937,None,space,0.45914549997542053,None,,,,,,,,,0,3,3,3,815.5295938000199,,,,,,,,,,,,,815.5141129000112,815.5295938000199,815.5295938000199,815.5295938000199,821.1915281999973,,,,821.197272200021,821.2091391999857,821.2091391999857,821.2574805000331,821.2577004000195,821.2738747000112,821.2738747000112,821.2738747000112,821.3572149000247,821.7407567999908,,,,,,,,,,,,,,,,,,,,,,,,down,5.657049099972937,None,space,0.45914549997542053,None,P121,001,2025-02-21_10h54.38.850,posner_endo_new1,2024.2.4,60.081999894352805,2025-02-21 10h54.51.695109 +0000,
cube_l.png,0.1,-0.31,valid,4,4,0,down,3.878917799971532,None,space,0.551230899989605,None,,,,,,,,,0,4,4,4,821.7563191999798,,,,,,,,,,,,,821.7409284000169,821.7563191999798,821.7563191999798,821.7563191999798,825.6368759000325,,,,825.6428027999937,825.6542436000309,825.6542436000309,825.7028588000103,825.703096000012,825.7195871000295,825.7195871000295,825.7195871000295,825.7861142000183,826.2858997000149,,,,,,,,,,,,,,,,,,,,,,,,down,3.878917799971532,None,space,0.551230899989605,None,P121,001,2025-02-21_10h54.38.850,posner_endo_new1,2024.2.4,60.081999894352805,2025-02-21 10h54.51.695109 +0000,
cube_r.png,0.1,-0.31,invalid,5,5,0,down,4.956736300024204,None,space,0.4045423999777995,None,,,,,,,,,0,5,5,5,826.3021295000217,,,,,,,,,,,,,826.2860729999957,826.3021295000217,826.3021295000217,826.3021295000217,831.2645501000225,,,,831.2704074999783,831.2820304000052,831.2820304000052,831.3304935999913,831.3307155999937,831.34706,831.34706,831.34706,831.4135866999859,831.7638790999772,,,,,,,,,,,,,,,,,,,,,,,,down,4.956736300024204,None,space,0.4045423999777995,None,P121,001,2025-02-21_10h54.38.850,posner_endo_new1,2024.2.4,60.081999894352805,2025-02-21 10h54.51.695109 +0000,
cube_r.png,0.1,0.31,valid,6,6,0,down,4.4861942999996245,None,space,0.4747687000199221,None,,,,,,,,,0,6,6,6,831.7800378000247,,,,,,,,,,,,,831.7640485999873,831.7800378000247,831.7800378000247,831.7800378000247,836.2759864000254,,,,836.2818113000249,836.2935145000229,836.2935145000229,836.3419529999956,836.3421721999766,836.3585322999861,836.3585322999861,836.3585322999861,836.4413195999805,836.8421474000206,,,,,,,,,,,,,,,,,,,,,,,,down,4.4861942999996245,None,space,0.4747687000199221,None,P121,001,2025-02-21_10h54.38.850,posner_endo_new1,2024.2.4,60.081999894352805,2025-02-21 10h54.51.695109 +0000,
cube_r.png,0.1,-0.31,invalid,7,7,0,down,5.192424599954393,None,space,0.46145220001926646,None,,,,,,,,,0,7,7,7,836.8580196999828,,,,,,,,,,,,,836.8423201999976,836.8580196999828,836.8580196999828,836.8580196999828,842.0532949999906,,,,842.059271999984,842.0709485000116,842.0709485000116,842.1194461000268,842.1196693999809,842.1358527999837,842.1358527999837,842.1358527999837,842.2020934000029,842.6028823999804,,,,,,,,,,,,,,,,,,,,,,,,down,5.192424599954393,None,space,0.46145220001926646,None,P121,001,2025-02-21_10h54.38.850,posner_endo_new1,2024.2.4,60.081999894352805,2025-02-21 10h54.51.695109 +0000,
cube_l.png,0.1,-0.31,valid,8,8,0,down,3.927618599962443,None,space,0.3159593000309542,None,,,,,,,,,0,8,8,8,842.618352200021,,,,,,,,,,,,,842.6030548000126,842.618352200021,842.618352200021,842.618352200021,846.5486574000097,,,,846.5544745000079,846.5659043000196,846.5659043000196,846.6143008000217,846.6145208000089,846.6312039000331,846.6312039000331,846.6312039000331,846.6979352000053,846.9480234999792,,,,,,,,,,,,,,,,,,,,,,,,down,3.927618599962443,None,space,0.3159593000309542,None,P121,001,2025-02-21_10h54.38.850,posner_endo_new1,2024.2.4,60.081999894352805,2025-02-21 10h54.51.695109 +0000,
cube_r.png,0.1,-0.31,invalid,9,9,0,down,3.9817210999899544,None,space,0.3362447000108659,None,,,,,,,,,0,9,9,9,846.9644118000288,,,,,,,,,,,,,846.9482062000316,846.9644118000288,846.9644118000288,846.9644118000288,850.9605112000136,,,,850.9662672000122,850.9780820999877,850.9780820999877,851.0269972999813,851.0272216000012,851.0434477999806,851.0434477999806,851.0434477999806,851.1099839999806,851.3939716999885,,,,,,,,,,,,,,,,,,,,,,,,down,3.9817210999899544,None,space,0.3362447000108659,None,P121,001,2025-02-21_10h54.38.850,posner_endo_new1,2024.2.4,60.081999894352805,2025-02-21 10h54.51.695109 +0000,
cube_l.png,0.1,0.31,invalid,10,10,0,down,5.1930724999983795,None,space,0.4357542000361718,None,,,,,,,,,0,10,10,10,851.4099034999963,,,,,,,,,,,,,851.3941428000107,851.4099034999963,851.4099034999963,851.4099034999963,856.6053421000252,,,,856.6111195000121,856.6228467000183,856.6228467000183,856.6712371000322,856.6714578000247,856.6876879000338,856.6876879000338,856.6876879000338,856.7544243999873,857.1379764000303,,,,,,,,,,,,,,,,,,,,,,,,down,5.1930724999983795,None,space,0.4357542000361718,None,P121,001,2025-02-21_10h54.38.850,posner_endo_new1,2024.2.4,60.081999894352805,2025-02-21 10h54.51.695109 +0000,
cube_r.png,0.1,-0.31,invalid,11,11,0,down,4.936555799969938,None,space,0.4598487999755889,None,,,,,,,,,0,11,11,11,857.1537778999773,,,,,,,,,,,,,857.1381460999837,857.1537778999773,857.1537778999773,857.1537778999773,862.0996709000319,,,,862.1055370999966,862.1172651000088,862.1172651000088,862.1654864000157,862.1657093000249,862.1820476999856,862.1820476999856,862.1820476999856,862.2650627000257,862.64905800001,,,,,,,,,,,,,,,,,,,,,,,,down,4.936555799969938,None,space,0.4598487999755889,None,P121,001,2025-02-21_10h54.38.850,posner_endo_new1,2024.2.4,60.081999894352805,2025-02-21 10h54.51.695109 +0000,
cube_r.png,0.1,0.31,valid,12,12,0,down,4.7055109000066295,None,space,0.37279320001835003,None,,,,,,,,,0,12,12,12,862.6648987000226,,,,,,,,,,,,,862.6492302999832,862.6648987000226,862.6648987000226,862.6648987000226,867.3776101000258,,,,867.3833548999974,867.3949442000012,867.3949442000012,867.4435013000038,867.4437244000146,867.4601859999821,867.4601859999821,867.4601859999821,867.5433625000296,867.8437896000105,,,,,,,,,,,,,,,,,,,,,,,,down,4.7055109000066295,None,space,0.37279320001835003,None,P121,001,2025-02-21_10h54.38.850,posner_endo_new1,2024.2.4,60.081999894352805,2025-02-21 10h54.51.695109 +0000,
cube_l.png,0.1,10,catch,13,13,0,down,5.639646700001322,None,None,,,,,,,,,,,0,13,13,13,867.8593229000107,,,,,,,,,,,,,867.8439583000145,867.8593229000107,867.8593229000107,867.8593229000107,873.5046456999844,,,,873.5104674000177,873.5219123000279,873.5219123000279,873.5701925000176,873.5704125000047,873.5870549000101,873.5870549000101,873.5870549000101,873.653702599986,876.5845506999758,,,,875.6684746000101,876.6006775000133,876.6006775000133,876.6006775000133,,,,,,,,,,,,,,,,,down,5.639646700001322,None,None,,,P121,001,2025-02-21_10h54.38.850,posner_endo_new1,2024.2.4,60.081999894352805,2025-02-21 10h54.51.695109 +0000,
cube_r.png,0.1,-0.31,invalid,14,14,0,down,6.090161900036037,None,space,0.28828950005117804,None,,,,,,,,,0,14,14,14,876.6006775000133,,,,,,,,,,,,,876.5847134999931,876.6006775000133,876.6006775000133,876.6006775000133,882.6953183999867,,,,882.7013809999917,882.7130351000233,882.7130351000233,882.7612031000317,882.7614244000288,882.7775155000272,882.7775155000272,882.7775155000272,882.8444007000071,883.0781531999819,,,,,,,,,,,,,,,,,,,,,,,,down,6.090161900036037,None,space,0.28828950005117804,None,P121,001,2025-02-21_10h54.38.850,posner_endo_new1,2024.2.4,60.081999894352805,2025-02-21 10h54.51.695109 +0000,
cube_l.png,0.1,-0.31,valid,15,15,0,down,4.429087700031232,None,space,0.4900055000325665,None,,,,,,,,,0,15,15,15,883.0937817000085,,,,,,,,,,,,,883.0783246000065,883.0937817000085,883.0937817000085,883.0937817000085,887.5238284000079,,,,887.5296094000223,887.5412596000242,887.5412596000242,887.5896733999834,887.5898934000288,887.6058837000164,887.6058837000164,887.6058837000164,887.6892439000076,888.106171499996,,,,,,,,,,,,,,,,,,,,,,,,down,4.429087700031232,None,space,0.4900055000325665,None,P121,001,2025-02-21_10h54.38.850,posner_endo_new1,2024.2.4,60.081999894352805,2025-02-21 10h54.51.695109 +0000,
cube_r.png,0.1,10,catch,16,16,0,down,4.464812299993355,None,None,,,,,,,,,,,0,16,16,16,888.1222336000064,,,,,,,,,,,,,888.1063403000007,888.1222336000064,888.1222336000064,888.1222336000064,892.6016736000311,,,,892.6075302999816,892.619203499984,892.619203499984,892.6676932999981,892.6679135999875,892.6843047000002,892.6843047000002,892.6843047000002,892.7507446000236,895.6815987000009,,,,894.7654463999788,895.6977123999968,895.6977123999968,895.6977123999968,,,,,,,,,,,,,,,,,down,4.464812299993355,None,None,,,P121,001,2025-02-21_10h54.38.850,posner_endo_new1,2024.2.4,60.081999894352805,2025-02-21 10h54.51.695109 +0000,
cube_r.png,0.1,10,catch,17,17,0,down,2.097085600020364,None,None,,,,,,,,,,,0,17,17,17,895.6977123999968,,,,,,,,,,,,,895.6817609000136,895.6977123999968,895.6977123999968,895.6977123999968,897.7966144999955,,,,897.8023834999767,897.8141689000186,897.8141689000186,897.8624816000229,897.8627027000184,897.8789687000099,897.8789687000099,897.8789687000099,897.9621317000128,900.8764512999915,,,,899.9768821999896,900.892178500013,900.892178500013,900.892178500013,,,,,,,,,,,,,,,,,down,2.097085600020364,None,None,,,P121,001,2025-02-21_10h54.38.850,posner_endo_new1,2024.2.4,60.081999894352805,2025-02-21 10h54.51.695109 +0000,
cube_l.png,0.1,0.31,invalid,18,18,0,down,2.646633099997416,None,space,0.4920356000075117,None,,,,,,,,,0,18,18,18,900.892178500013,,,,,,,,,,,,,900.8766113999882,900.892178500013,900.892178500013,900.892178500013,903.5407243000227,,,,903.5464583000285,903.5582668000134,903.5582668000134,903.606590099982,903.6068219000008,903.6231566999923,903.6231566999923,903.6231566999923,903.7065509000095,904.1229223000119,,,,,,,,,,,,,,,,,,,,,,,,down,2.646633099997416,None,space,0.4920356000075117,None,P121,001,2025-02-21_10h54.38.850,posner_endo_new1,2024.2.4,60.081999894352805,2025-02-21 10h54.51.695109 +0000,
cube_l.png,0.1,10,catch,19,19,0,down,5.552692400000524,None,None,,,,,,,,,,,0,19,19,19,904.139233599999,,,,,,,,,,,,,904.1230930000311,904.139233599999,904.139233599999,904.139233599999,909.700892599998,,,,909.7066756000277,909.7182661999832,909.7182661999832,909.767076899996,909.7673004000098,909.7832788000233,909.7832788000233,909.7832788000233,909.8496660999954,912.7808116999804,,,,911.864782300021,912.7968043999863,912.7968043999863,912.7968043999863,,,,,,,,,,,,,,,,,down,5.552692400000524,None,None,,,P121,001,2025-02-21_10h54.38.850,posner_endo_new1,2024.2.4,60.081999894352805,2025-02-21 10h54.51.695109 +0000,
cube_l.png,0.1,0.31,invalid,20,20,0,down,1.9255752000026405,None,space,0.42740290000801906,None,,,,,,,,,0,20,20,20,912.7968043999863,,,,,,,,,,,,,912.7809724999825,912.7968043999863,912.7968043999863,912.7968043999863,914.7291965999757,,,,914.7351739000296,914.7469557999866,914.7469557999866,914.7951686999877,914.7953892999794,914.8116640999797,914.8116640999797,914.8116640999797,914.8781716999947,915.244855099998,,,,,,,,,,,,,,,,,,,,,,,,down,1.9255752000026405,None,space,0.42740290000801906,None,P121,001,2025-02-21_10h54.38.850,posner_endo_new1,2024.2.4,60.081999894352805,2025-02-21 10h54.51.695109 +0000,
cube_l.png,0.1,-0.31,valid,21,21,0,down,2.637240199954249,None,space,0.7527391000185162,None,,,,,,,,,0,21,21,21,915.261440799979,,,,,,,,,,,,,915.2450260000187,915.261440799979,915.261440799979,915.261440799979,917.9094574999763,,,,917.9152394999983,917.9269972000038,917.9269972000038,917.9757832000032,917.9760072000208,917.9916320000193,917.9916320000193,917.9916320000193,918.0746649000212,918.758266400022,,,,,,,,,,,,,,,,,,,,,,,,down,2.637240199954249,None,space,0.7527391000185162,None,P121,001,2025-02-21_10h54.38.850,posner_endo_new1,2024.2.4,60.081999894352805,2025-02-21 10h54.51.695109 +0000,
cube_r.png,0.1,0.31,valid,22,22,0,down,4.364186700026039,None,space,0.4476497999858111,None,,,,,,,,,0,22,22,22,918.7744610999944,,,,,,,,,,,,,918.758439600002,918.7744610999944,918.7744610999944,918.7744610999944,923.1537638999871,,,,923.159701000026,923.1713721000124,923.1713721000124,923.2194836999988,923.2197044999921,923.2366055999883,923.2366055999883,923.2366055999883,923.3030805999879,923.6867828000104,,,,,,,,,,,,,,,,,,,,,,,,down,4.364186700026039,None,space,0.4476497999858111,None,P121,001,2025-02-21_10h54.38.850,posner_endo_new1,2024.2.4,60.081999894352805,2025-02-21 10h54.51.695109 +0000,
cube_r.png,0.1,-0.31,invalid,23,23,0,down,3.755879400006961,None,space,0.3657509000040591,None,,,,,,,,,0,23,23,23,923.7023081000079,,,,,,,,,,,,,923.6869579000049,923.7023081000079,923.7023081000079,923.7023081000079,927.4660539000179,,,,927.471965899982,927.4835198000073,927.4835198000073,927.5322774000233,927.5325004999759,927.5487859999994,927.5487859999994,927.5487859999994,927.6153164000134,927.9158047999954,,,,,,,,,,,,,,,,,,,,,,,,down,3.755879400006961,None,space,0.3657509000040591,None,P121,001,2025-02-21_10h54.38.850,posner_endo_new1,2024.2.4,60.081999894352805,2025-02-21 10h54.51.695109 +0000,
cube_r.png,0.1,0.31,valid,24,24,0,down,4.175520599994343,None,space,0.4323867000057362,None,,,,,,,,,0,24,24,24,927.9311861000024,,,,,,,,,,,,,927.9159748000093,927.9311861000024,927.9311861000024,927.9311861000024,932.1115481000161,,,,932.1173722000094,932.1290265999851,932.1290265999851,932.1772844999796,932.1775027000112,932.1938221000019,932.1938221000019,932.1938221000019,932.2771478000213,932.6277992000105,,,,,,,,,,,,,,,,,,,,,,,,down,4.175520599994343,None,space,0.4323867000057362,None,P121,001,2025-02-21_10h54.38.850,posner_endo_new1,2024.2.4,60.081999894352805,2025-02-21 10h54.51.695109 +0000,
cube_r.png,0.1,-0.31,invalid,25,25,0,down,3.670530300005339,None,space,0.5025733000366017,None,,,,,,,,,0,25,25,25,932.6434971999843,,,,,,,,,,,,,932.6279708999791,932.6434971999843,932.6434971999843,932.6434971999843,936.3239346999908,,,,936.3296867000172,936.3410227000131,936.3410227000131,936.3898675999953,936.390089499997,936.4061523000128,936.4061523000128,936.4061523000128,936.4894268999924,936.9230776000186,,,,,,,,,,,,,,,,,,,,,,,,down,3.670530300005339,None,space,0.5025733000366017,None,P121,001,2025-02-21_10h54.38.850,posner_endo_new1,2024.2.4,60.081999894352805,2025-02-21 10h54.51.695109 +0000,
cube_l.png,0.1,-0.31,valid,26,26,0,down,3.8407797000254504,None,space,0.3895856000017375,None,,,,,,,,,0,26,26,26,936.9389991000062,,,,,,,,,,,,,936.9232488999842,936.9389991000062,936.9389991000062,936.9389991000062,940.7855630000122,,,,940.791385199991,940.8028777000145,940.8028777000145,940.8518956000335,940.8521156000206,940.868384899979,940.868384899979,940.868384899979,940.9349353000289,941.2687372000073,,,,,,,,,,,,,,,,,,,,,,,,down,3.8407797000254504,None,space,0.3895856000017375,None,P121,001,2025-02-21_10h54.38.850,posner_endo_new1,2024.2.4,60.081999894352805,2025-02-21 10h54.51.695109 +0000,
cube_r.png,0.1,0.31,valid,27,27,0,down,5.238582400023006,None,space,0.4002525999676436,None,,,,,,,,,0,27,27,27,941.2841491000145,,,,,,,,,,,,,941.2689076000242,941.2841491000145,941.2841491000145,941.2841491000145,946.530116799986,,,,946.5360359000042,946.5476832999848,946.5476832999848,946.595749799977,946.5959767000168,946.6125933000003,946.6125933000003,946.6125933000003,946.6791048999876,947.029377400002,,,,,,,,,,,,,,,,,,,,,,,,down,5.238582400023006,None,space,0.4002525999676436,None,P121,001,2025-02-21_10h54.38.850,posner_endo_new1,2024.2.4,60.081999894352805,2025-02-21 10h54.51.695109 +0000,
cube_r.png,0.1,10,catch,28,28,0,down,3.4453255000407808,None,None,,,,,,,,,,,0,28,28,28,947.0454882999766,,,,,,,,,,,,,947.0295479000197,947.0454882999766,947.0454882999766,947.0454882999766,950.4927221999969,,,,950.4987353000324,950.5104793999926,950.5104793999926,950.5585768999881,950.5587979999837,950.5752594000078,950.5752594000078,950.5752594000078,950.6584146000096,953.5726787000312,,,,952.6730146000045,953.5885356999934,953.5885356999934,953.5885356999934,,,,,,,,,,,,,,,,,down,3.4453255000407808,None,None,,,P121,001,2025-02-21_10h54.38.850,posner_endo_new1,2024.2.4,60.081999894352805,2025-02-21 10h54.51.695109 +0000,
cube_r.png,0.1,0.31,valid,29,29,0,down,2.1895812000148,None,space,0.3918730999575928,None,,,,,,,,,0,29,29,29,953.5885356999934,,,,,,,,,,,,,953.5728384000249,953.5885356999934,953.5885356999934,953.5885356999934,955.7871855000267,,,,955.7930439999909,955.8047691999818,955.8047691999818,955.8532208999968,955.8534456000198,955.8697884000139,955.8697884000139,955.8697884000139,955.9363802000298,956.2701085000299,,,,,,,,,,,,,,,,,,,,,,,,down,2.1895812000148,None,space,0.3918730999575928,None,P121,001,2025-02-21_10h54.38.850,posner_endo_new1,2024.2.4,60.081999894352805,2025-02-21 10h54.51.695109 +0000,
cube_r.png,0.1,0.31,valid,30,30,0,down,2.7898747000144795,None,space,0.5164140000124462,None,,,,,,,,,0,30,30,30,956.2860962999985,,,,,,,,,,,,,956.270279599994,956.2860962999985,956.2860962999985,956.2860962999985,959.0837605000124,,,,959.089627999987,959.1014558000024,959.1014558000024,959.149874499999,959.1500985000166,959.1665050000302,959.1665050000302,959.1665050000302,959.2330969999894,959.7001109999837,,,,,,,,,,,,,,,,,,,,,,,,down,2.7898747000144795,None,space,0.5164140000124462,None,P121,001,2025-02-21_10h54.38.850,posner_endo_new1,2024.2.4,60.081999894352805,2025-02-21 10h54.51.695109 +0000,
cube_l.png,0.1,-0.31,valid,31,31,0,down,4.478497400006745,None,space,0.41433679999317974,None,,,,,,,,,0,31,31,31,959.7159604000044,,,,,,,,,,,,,959.7002895000041,959.7159604000044,959.7159604000044,959.7159604000044,964.1953919000225,,,,964.2014571999898,964.2133507999824,964.2133507999824,964.261217900028,964.2614396000281,964.2778486000025,964.2778486000025,964.2778486000025,964.3610642999993,964.6948721000226,,,,,,,,,,,,,,,,,,,,,,,,down,4.478497400006745,None,space,0.41433679999317974,None,P121,001,2025-02-21_10h54.38.850,posner_endo_new1,2024.2.4,60.081999894352805,2025-02-21 10h54.51.695109 +0000,
cube_r.png,0.1,0.31,valid,32,32,0,down,3.259776699997019,None,space,0.4602970000123605,None,,,,,,,,,0,32,32,32,964.7107435999787,,,,,,,,,,,,,964.6950503999833,964.7107435999787,964.7107435999787,964.7107435999787,967.975231999997,,,,967.981763800024,967.9937277000281,967.9937277000281,968.0407463000156,968.0409793999861,968.0574814000283,968.0574814000283,968.0574814000283,968.140702100005,968.524456300016,,,,,,,,,,,,,,,,,,,,,,,,down,3.259776699997019,None,space,0.4602970000123605,None,P121,001,2025-02-21_10h54.38.850,posner_endo_new1,2024.2.4,60.081999894352805,2025-02-21 10h54.51.695109 +0000,
cube_r.png,0.1,-0.31,invalid,33,33,0,down,3.838476400007494,None,space,0.4265791000216268,None,,,,,,,,,0,33,33,33,968.5400032000034,,,,,,,,,,,,,968.5246367999935,968.5400032000034,968.5400032000034,968.5400032000034,972.3866089999792,,,,972.3931306999875,972.4049217000138,972.4049217000138,972.452947999991,972.4531682999805,972.46940609999,972.46940609999,972.46940609999,972.5356109000277,972.9029497000156,,,,,,,,,,,,,,,,,,,,,,,,down,3.838476400007494,None,space,0.4265791000216268,None,P121,001,2025-02-21_10h54.38.850,posner_endo_new1,2024.2.4,60.081999894352805,2025-02-21 10h54.51.695109 +0000,
cube_r.png,0.1,10,catch,34,34,0,down,4.203450399974827,None,None,,,,,,,,,,,0,34,34,34,972.9190803000238,,,,,,,,,,,,,972.9031318000052,972.9190803000238,972.9190803000238,972.9190803000238,977.1322849999997,,,,977.1389783999766,977.1510887999902,977.1510887999902,977.1980664000148,977.1983004999929,977.2144230999984,977.2144230999984,977.2144230999984,977.2979572000331,980.2121315000113,,,,979.3126431999844,980.228376300016,980.228376300016,980.228376300016,,,,,,,,,,,,,,,,,down,4.203450399974827,None,None,,,P121,001,2025-02-21_10h54.38.850,posner_endo_new1,2024.2.4,60.081999894352805,2025-02-21 10h54.51.695109 +0000,
cube_r.png,0.1,0.31,valid,35,35,0,down,1.6463873999891803,None,space,0.4606991999899037,None,,,,,,,,,0,35,35,35,980.228376300016,,,,,,,,,,,,,980.2123019000283,980.228376300016,980.228376300016,980.228376300016,981.8775509999832,,,,981.8843755000271,981.896198900009,981.896198900009,981.9429307000246,981.9431728000054,981.959929900011,981.959929900011,981.959929900011,982.0429076,982.4263850999996,,,,,,,,,,,,,,,,,,,,,,,,down,1.6463873999891803,None,space,0.4606991999899037,None,P121,001,2025-02-21_10h54.38.850,posner_endo_new1,2024.2.4,60.081999894352805,2025-02-21 10h54.51.695109 +0000,
cube_r.png,0.1,-0.31,invalid,36,36,0,down,3.9367683999589644,None,space,0.36361679999390617,None,,,,,,,,,0,36,36,36,982.4423025000142,,,,,,,,,,,,,982.426565300033,982.4423025000142,982.4423025000142,982.4423025000142,986.3891614000313,,,,986.3960413000314,986.407910400012,986.407910400012,986.4554076999775,986.4556287000305,986.4720772000146,986.4720772000146,986.4720772000146,986.5384128000005,986.8389489999972,,,,,,,,,,,,,,,,,,,,,,,,down,3.9367683999589644,None,space,0.36361679999390617,None,P121,001,2025-02-21_10h54.38.850,posner_endo_new1,2024.2.4,60.081999894352805,2025-02-21 10h54.51.695109 +0000,
cube_l.png,0.1,0.31,invalid,37,37,0,down,5.363669199985452,None,space,0.39869180001551285,None,,,,,,,,,0,37,37,37,986.8549389999826,,,,,,,,,,,,,986.8391188000096,986.8549389999826,986.8549389999826,986.8549389999826,992.2332230000175,,,,992.239623899979,992.2514038999798,992.2514038999798,992.299431100022,992.2996665000101,992.3158197000157,992.3158197000157,992.3158197000157,992.3824191000313,992.7165991999791,,,,,,,,,,,,,,,,,,,,,,,,down,5.363669199985452,None,space,0.39869180001551285,None,P121,001,2025-02-21_10h54.38.850,posner_endo_new1,2024.2.4,60.081999894352805,2025-02-21 10h54.51.695109 +0000,
cube_l.png,0.1,0.31,invalid,38,38,0,down,3.5665946999797598,None,space,0.5109541999991052,None,,,,,,,,,0,38,38,38,992.7321753000142,,,,,,,,,,,,,992.7167839999893,992.7321753000142,992.7321753000142,992.7321753000142,996.3122012999956,,,,996.3186556000146,996.3304510000162,996.3304510000162,996.3784340000129,996.378667299985,996.3950382000185,996.3950382000185,996.3950382000185,996.461593199987,996.9115879000165,,,,,,,,,,,,,,,,,,,,,,,,down,3.5665946999797598,None,space,0.5109541999991052,None,P121,001,2025-02-21_10h54.38.850,posner_endo_new1,2024.2.4,60.081999894352805,2025-02-21 10h54.51.695109 +0000,
cube_r.png,0.1,0.31,valid,39,39,0,down,4.050221299985424,None,space,0.45782700000563636,None,,,,,,,,,0,39,39,39,996.9279299000045,,,,,,,,,,,,,996.9117668999825,996.9279299000045,996.9279299000045,996.9279299000045,1000.9910481999977,,,,1000.9974618999986,1001.00932870002,1001.00932870002,1001.0571652000071,1001.0574023000081,1001.073611400032,1001.073611400032,1001.073611400032,1001.1399797999766,1001.540654100012,,,,,,,,,,,,,,,,,,,,,,,,down,4.050221299985424,None,space,0.45782700000563636,None,P121,001,2025-02-21_10h54.38.850,posner_endo_new1,2024.2.4,60.081999894352805,2025-02-21 10h54.51.695109 +0000,
cube_l.png,0.1,0.31,invalid,40,40,0,down,3.9822790999896824,None,space,0.2816210999735631,None,,,,,,,,,0,40,40,40,1001.5562592999777,,,,,,,,,,,,,1001.5408348999918,1001.5562592999777,1001.5562592999777,1001.5562592999777,1005.5532888000016,,,,1005.5605662000016,1005.5721662000287,1005.5721662000287,1005.619096999988,1005.6193282000022,1005.635664100002,1005.635664100002,1005.635664100002,1005.7187440000125,1005.9196489999886,,,,,,,,,,,,,,,,,,,,,,,,down,3.9822790999896824,None,space,0.2816210999735631,None,P121,001,2025-02-21_10h54.38.850,posner_endo_new1,2024.2.4,60.081999894352805,2025-02-21 10h54.51.695109 +0000,
cube_l.png,0.1,10,catch,41,41,0,down,4.851343999966048,None,None,,,,,,,,,,,0,41,41,41,1005.9352691000095,,,,,,,,,,,,,1005.9198342000018,1005.9352691000095,1005.9352691000095,1005.9352691000095,1010.7979252000223,,,,1010.8043955999892,1010.8160080999951,1010.8160080999951,1010.8633040999994,1010.8635395999881,1010.8801954999799,1010.8801954999799,1010.8801954999799,1010.9463083000155,1013.8772765999893,,,,1012.9616303999792,1013.8939495999948,1013.8939495999948,1013.8939495999948,,,,,,,,,,,,,,,,,down,4.851343999966048,None,None,,,P121,001,2025-02-21_10h54.38.850,posner_endo_new1,2024.2.4,60.081999894352805,2025-02-21 10h54.51.695109 +0000,
cube_l.png,0.1,-0.31,valid,42,42,0,down,1.365280999976676,None,space,0.4262116000172682,None,,,,,,,,,0,42,42,42,1013.8939495999948,,,,,,,,,,,,,1013.8774476000108,1013.8939495999948,1013.8939495999948,1013.8939495999948,1015.2602539000218,,,,1015.2669784000027,1015.2787517000106,1015.2787517000106,1015.3257797000115,1015.3260197999771,1015.3419199999771,1015.3419199999771,1015.3419199999771,1015.4257433000021,1015.7759636000264,,,,,,,,,,,,,,,,,,,,,,,,down,1.365280999976676,None,space,0.4262116000172682,None,P121,001,2025-02-21_10h54.38.850,posner_endo_new1,2024.2.4,60.081999894352805,2025-02-21 10h54.51.695109 +0000,
cube_l.png,0.1,10,catch,43,43,0,down,4.083368199993856,None,None,,,,,,,,,,,0,43,43,43,1015.7915322000044,,,,,,,,,,,,,1015.7761430999963,1015.7915322000044,1015.7915322000044,1015.7915322000044,1019.8885204999824,,,,1019.8949603000074,1019.9064978000242,1019.9064978000242,1019.9544285000302,1019.9546638000174,1019.9711630999809,1019.9711630999809,1019.9711630999809,1020.0370805999846,1022.9684245000244,,,,1022.0520209000097,1022.9843134999974,1022.9843134999974,1022.9843134999974,,,,,,,,,,,,,,,,,down,4.083368199993856,None,None,,,P121,001,2025-02-21_10h54.38.850,posner_endo_new1,2024.2.4,60.081999894352805,2025-02-21 10h54.51.695109 +0000,
cube_l.png,0.1,0.31,invalid,44,44,0,down,1.6108206999488175,None,space,0.40487120003672317,None,,,,,,,,,0,44,44,44,1022.9843134999974,,,,,,,,,,,,,1022.9686016999767,1022.9843134999974,1022.9843134999974,1022.9843134999974,1024.5999560999917,,,,1024.606681299978,1024.6182023999863,1024.6182023999863,1024.666452799982,1024.6666861000122,1024.6829301000107,1024.6829301000107,1024.6829301000107,1024.7490689000115,1025.0999875999987,,,,,,,,,,,,,,,,,,,,,,,,down,1.6108206999488175,None,space,0.40487120003672317,None,P121,001,2025-02-21_10h54.38.850,posner_endo_new1,2024.2.4,60.081999894352805,2025-02-21 10h54.51.695109 +0000,
cube_l.png,0.1,0.31,invalid,45,45,0,down,5.046762800018769,None,space,0.4016491000074893,None,,,,,,,,,0,45,45,45,1025.115627799998,,,,,,,,,,,,,1025.1001682999777,1025.115627799998,1025.115627799998,1025.115627799998,1030.1784802000038,,,,1030.188127900008,1030.1978265999933,1030.1978265999933,1030.2438486000174,1030.244096999988,1030.2605453000288,1030.2605453000288,1030.2605453000288,1030.343204899982,1030.677540100005,,,,,,,,,,,,,,,,,,,,,,,,down,5.046762800018769,None,space,0.4016491000074893,None,P121,001,2025-02-21_10h54.38.850,posner_endo_new1,2024.2.4,60.081999894352805,2025-02-21 10h54.51.695109 +0000,
cube_r.png,0.1,0.31,valid,46,46,0,down,3.8450156000326388,None,space,0.398435499984771,None,,,,,,,,,0,46,46,46,1030.6933760999818,,,,,,,,,,,,,1030.6777336000232,1030.6933760999818,1030.6933760999818,1030.6933760999818,1034.5403928000014,,,,1034.547640600009,1034.5588598999893,1034.5588598999893,1034.6061037000036,1034.6063499000156,1034.6227319000172,1034.6227319000172,1034.6227319000172,1034.705917400017,1035.023116299999,,,,,,,,,,,,,,,,,,,,,,,,down,3.8450156000326388,None,space,0.398435499984771,None,P121,001,2025-02-21_10h54.38.850,posner_endo_new1,2024.2.4,60.081999894352805,2025-02-21 10h54.51.695109 +0000,
cube_l.png,0.1,-0.31,valid,47,47,0,down,4.755696400010493,None,space,0.4842091999598779,None,,,,,,,,,0,47,47,47,1035.0389831999782,,,,,,,,,,,,,1035.0233208999853,1035.0389831999782,1035.0389831999782,1035.0389831999782,1039.801564400026,,,,1039.8089324000175,1039.8203383000218,1039.8203383000218,1039.8674717000104,1039.8677252000198,1039.8840943999821,1039.8840943999821,1039.8840943999821,1039.9668088000035,1040.3842337999959,,,,,,,,,,,,,,,,,,,,,,,,down,4.755696400010493,None,space,0.4842091999598779,None,P121,001,2025-02-21_10h54.38.850,posner_endo_new1,2024.2.4,60.081999894352805,2025-02-21 10h54.51.695109 +0000,
cube_r.png,0.1,-0.31,invalid,48,48,0,down,4.618397400015965,None,space,0.40365030005341396,None,,,,,,,,,0,48,48,48,1040.4000205000048,,,,,,,,,,,,,1040.3844361000229,1040.4000205000048,1040.4000205000048,1040.4000205000048,1045.02954030002,,,,1045.03694000002,1045.0482683000155,1045.0482683000155,1045.0955233999994,1045.0957753999974,1045.1114156999975,1045.1114156999975,1045.1114156999975,1045.178452000022,1045.5288757000235,,,,,,,,,,,,,,,,,,,,,,,,down,4.618397400015965,None,space,0.40365030005341396,None,P121,001,2025-02-21_10h54.38.850,posner_endo_new1,2024.2.4,60.081999894352805,2025-02-21 10h54.51.695109 +0000,
cube_r.png,0.1,10,catch,49,49,0,down,3.9541580000077374,None,None,,,,,,,,,,,0,49,49,49,1045.5446797999903,,,,,,,,,,,,,1045.5290700999903,1045.5446797999903,1045.5446797999903,1045.5446797999903,1049.5082905000309,,,,1049.515490300022,1049.5272123999894,1049.5272123999894,1049.574245100026,1049.574482200027,1049.5903631999972,1049.5903631999972,1049.5903631999972,1049.6734771000338,1052.5879352000193,,,,1051.688027600001,1052.6043678999995,1052.6043678999995,1052.6043678999995,,,,,,,,,,,,,,,,,down,3.9541580000077374,None,None,,,P121,001,2025-02-21_10h54.38.850,posner_endo_new1,2024.2.4,60.081999894352805,2025-02-21 10h54.51.695109 +0000,
cube_l.png,0.1,-0.31,valid,50,50,0,down,2.5824372000060976,None,space,0.3208748000324704,None,,,,,,,,,0,50,50,50,1052.6043678999995,,,,,,,,,,,,,1052.5881174000097,1052.6043678999995,1052.6043678999995,1052.6043678999995,1055.202457699983,,,,1055.209415099991,1055.22126760002,1055.22126760002,1055.2684065999929,1055.2686465000152,1055.2851350000128,1055.2851350000128,1055.2851350000128,1055.368186799984,1055.6186808000202,,,,,,,,,,,,,,,,,,,,,,,,down,2.5824372000060976,None,space,0.3208748000324704,None,P121,001,2025-02-21_10h54.38.850,posner_endo_new1,2024.2.4,60.081999894352805,2025-02-21 10h54.51.695109 +0000,
cube_l.png,0.1,-0.31,valid,51,51,0,down,3.960700600000564,None,space,0.41982210002606735,None,,,,,,,,,0,51,51,51,1055.6345034000115,,,,,,,,,,,,,1055.6188599999878,1055.6345034000115,1055.6345034000115,1055.6345034000115,1059.5979923999985,,,,1059.6042605999974,1059.616010400001,1059.616010400001,1059.6636337999953,1059.663866900024,1059.680452200002,1059.680452200002,1059.680452200002,1059.7636266999762,1060.1140548000112,,,,,,,,,,,,,,,,,,,,,,,,down,3.960700600000564,None,space,0.41982210002606735,None,P121,001,2025-02-21_10h54.38.850,posner_endo_new1,2024.2.4,60.081999894352805,2025-02-21 10h54.51.695109 +0000,
cube_r.png,0.1,-0.31,invalid,52,52,0,down,3.8409871000330895,None,space,0.47997980000218377,None,,,,,,,,,0,52,52,52,1060.1300197999808,,,,,,,,,,,,,1060.1142366999993,1060.1300197999808,1060.1300197999808,1060.1300197999808,1063.9763817000203,,,,1063.9827164000017,1063.9942440000013,1063.9942440000013,1064.0428860000102,1064.0431198999868,1064.0587999999989,1064.0587999999989,1064.0587999999989,1064.1258555999957,1064.5433082000236,,,,,,,,,,,,,,,,,,,,,,,,down,3.8409871000330895,None,space,0.47997980000218377,None,P121,001,2025-02-21_10h54.38.850,posner_endo_new1,2024.2.4,60.081999894352805,2025-02-21 10h54.51.695109 +0000,
cube_l.png,0.1,-0.31,valid,53,53,0,down,5.595922600012273,None,space,0.38404540001647547,None,,,,,,,,,0,53,53,53,1064.5587052000337,,,,,,,,,,,,,1064.5434946999885,1064.5587052000337,1064.5587052000337,1064.5587052000337,1070.1705928000156,,,,1070.1767278999905,1070.1882902000216,1070.1882902000216,1070.2363254000084,1070.2365644000238,1070.2528321000282,1070.2528321000282,1070.2528321000282,1070.3360012000194,1070.6532269000309,,,,,,,,,,,,,,,,,,,,,,,,down,5.595922600012273,None,space,0.38404540001647547,None,P121,001,2025-02-21_10h54.38.850,posner_endo_new1,2024.2.4,60.081999894352805,2025-02-21 10h54.51.695109 +0000,
cube_r.png,0.1,10,catch,54,54,0,down,3.3096514000208117,None,None,,,,,,,,,,,0,54,54,54,1070.669267499994,,,,,,,,,,,,,1070.6534068000037,1070.669267499994,1070.669267499994,1070.669267499994,1073.9834465000313,,,,1073.9897188000032,1074.001426599978,1074.001426599978,1074.0492781000212,1074.0495109999902,1074.0652239000192,1074.0652239000192,1074.0652239000192,1074.1317490999936,1077.0630980000133,,,,1076.1469971999759,1077.0793486000039,1077.0793486000039,1077.0793486000039,,,,,,,,,,,,,,,,,down,3.3096514000208117,None,None,,,P121,001,2025-02-21_10h54.38.850,posner_endo_new1,2024.2.4,60.081999894352805,2025-02-21 10h54.51.695109 +0000,
cube_l.png,0.1,0.31,invalid,55,55,0,down,1.203804399992805,None,space,0.46063709998270497,None,,,,,,,,,0,55,55,55,1077.0793486000039,,,,,,,,,,,,,1077.0632710999926,1077.0793486000039,1077.0793486000039,1077.0793486000039,1078.295391199994,,,,1078.3016172000207,1078.3133052000194,1078.3133052000194,1078.3614675999852,1078.3617054999922,1078.3777482000296,1078.3777482000296,1078.3777482000296,1078.4444286000216,1078.8451507000136,,,,,,,,,,,,,,,,,,,,,,,,down,1.203804399992805,None,space,0.46063709998270497,None,P121,001,2025-02-21_10h54.38.850,posner_endo_new1,2024.2.4,60.081999894352805,2025-02-21 10h54.51.695109 +0000,
cube_l.png,0.1,-0.31,valid,56,56,0,down,6.262763899983838,None,space,0.3857725000125356,None,,,,,,,,,0,56,56,56,1078.860548000026,,,,,,,,,,,,,1078.8453316999949,1078.860548000026,1078.860548000026,1078.860548000026,1085.138601100014,,,,1085.1449262999813,1085.1565662000212,1085.1565662000212,1085.2045435000327,1085.2047777000116,1085.220469199994,1085.220469199994,1085.220469199994,1085.287072999985,1085.621476500004,,,,,,,,,,,,,,,,,,,,,,,,down,6.262763899983838,None,space,0.3857725000125356,None,P121,001,2025-02-21_10h54.38.850,posner_endo_new1,2024.2.4,60.081999894352805,2025-02-21 10h54.51.695109 +0000,
cube_r.png,0.1,0.31,valid,57,57,0,down,4.6549196999985725,None,space,0.41746309999143705,None,,,,,,,,,0,57,57,57,1085.6372959000291,,,,,,,,,,,,,1085.6216549000237,1085.6372959000291,1085.6372959000291,1085.6372959000291,1090.2999153999845,,,,1090.3058571000001,1090.3172298999853,1090.3172298999853,1090.3659830000252,1090.3662195000215,1090.3819034000044,1090.3819034000044,1090.3819034000044,1090.465667499986,1090.8162410000223,,,,,,,,,,,,,,,,,,,,,,,,down,4.6549196999985725,None,space,0.41746309999143705,None,P121,001,2025-02-21_10h54.38.850,posner_endo_new1,2024.2.4,60.081999894352805,2025-02-21 10h54.51.695109 +0000,
cube_r.png,0.1,-0.31,invalid,58,58,0,down,4.211644200026058,None,space,0.45162880001589656,None,,,,,,,,,0,58,58,58,1090.8315111999982,,,,,,,,,,,,,1090.8164217000012,1090.8315111999982,1090.8315111999982,1090.8315111999982,1095.0451144999824,,,,1095.051109299995,1095.062893000024,1095.062893000024,1095.111007300031,1095.1112526999786,1095.1274420000263,1095.1274420000263,1095.1274420000263,1095.1940408999799,1095.5947356999968,,,,,,,,,,,,,,,,,,,,,,,,down,4.211644200026058,None,space,0.45162880001589656,None,P121,001,2025-02-21_10h54.38.850,posner_endo_new1,2024.2.4,60.081999894352805,2025-02-21 10h54.51.695109 +0000,
cube_l.png,0.1,0.31,invalid,59,59,0,down,4.0962970000109635,None,space,0.37436419998994097,None,,,,,,,,,0,59,59,59,1095.6105656999862,,,,,,,,,,,,,1095.594919700001,1095.6105656999862,1095.6105656999862,1095.6105656999862,1099.7237378000282,,,,1099.7297617000295,1099.741126900015,1099.741126900015,1099.789259399986,1099.7894921000116,1099.8060272000148,1099.8060272000148,1099.8060272000148,1099.87275889999,1100.1895787999965,,,,,,,,,,,,,,,,,,,,,,,,down,4.0962970000109635,None,space,0.37436419998994097,None,P121,001,2025-02-21_10h54.38.850,posner_endo_new1,2024.2.4,60.081999894352805,2025-02-21 10h54.51.695109 +0000,
