cue_img,cue_soa,target_x,trial,thisN,thisTrialN,thisRepN,key_control2.keys,key_control2.rt,key_control2.duration,key_resp.keys,key_resp.rt,key_resp.duration,practice.thisRepN,practice.thisTrialN,practice.thisN,practice.thisIndex,block1.thisRepN,block1.thisTrialN,block1.thisN,block1.thisIndex,block2.thisRepN,block2.thisTrialN,block2.thisN,block2.thisIndex,thisRow.t,notes,instructions.started,instructions_txt.started,key_control.started,instructions.stopped,key_control.keys,key_control.rt,key_control.duration,ready.started,ready_txt.started,ready_txt.stopped,ready.stopped,fix.started,fixation.started,key_control2.started,fixation_cross.started,fix.stopped,practice.key_control2.keys,practice.key_control2.rt,practice.key_control2.duration,cue.started,cube.started,fixation_cross_cue.started,cue.stopped,target.started,fixation_target.started,fixation_cross_target.started,key_resp.started,star.started,target.stopped,practice.key_resp.keys,practice.key_resp.rt,practice.key_resp.duration,star.stopped,fixation_target.stopped,fixation_cross_target.stopped,key_resp.stopped,block1.key_control2.keys,block1.key_control2.rt,block1.key_control2.duration,block1.key_resp.keys,block1.key_resp.rt,block1.key_resp.duration,cube.stopped,fixation_cross_cue.stopped,break_2.started,text.started,key_control3.started,text.stopped,break_2.stopped,key_control3.keys,key_control3.rt,key_control3.duration,block2.key_control2.keys,block2.key_control2.rt,block2.key_control2.duration,block2.key_resp.keys,block2.key_resp.rt,block2.key_resp.duration,participant,session,date,expName,psychopyVersion,frameRate,expStart,
,,,,,,,,,,,,,,,,,,,,,,,,,,,0.007492100005038083,0.025305000017397106,0.025305000017397106,5540.089648100024,up,5540.046430099988,None,,,,,,,,,,,,,,,,,,,,,,,,,,,,,,,,,,,,,,,,,,,,,,,,,,,,P122,001,2025-02-21_11h30.55.353,posner_endo_new1,2024.2.4,59.984619959010615,2025-02-21 11h31.04.628141 +0000,
,,,,,,,,,,,,,,,,,,,,,,,,,,,,,,,,,,5540.089742099983,5540.101968800009,5543.118998199992,5543.0804536999785,,,,,,,,,,,,,,,,,,,,,,,,,,,,,,,,,,,,,,,,,,,,,,,,P122,001,2025-02-21_11h30.55.353,posner_endo_new1,2024.2.4,59.984619959010615,2025-02-21 11h31.04.628141 +0000,
cube_l.png,0.1,-0.31,valid,0,0,0,down,33.62460669997381,None,space,0.7483705999911763,None,0,0,0,0,,,,,,,,,5543.118998199992,,,,,,,,,,,,,5543.094688099984,5543.118998199992,5543.118998199992,5543.118998199992,5576.746197799977,down,33.62460669997381,None,5576.76100920001,5576.771187799983,5576.771187799983,5576.811938000028,5576.812190799974,5576.831333699985,5576.831333699985,5576.831333699985,5576.911901400017,5577.595107299974,space,0.7483705999911763,None,,,,,,,,,,,,,,,,,,,,,,,,,,,P122,001,2025-02-21_11h30.55.353,posner_endo_new1,2024.2.4,59.984619959010615,2025-02-21 11h31.04.628141 +0000,
cube_l.png,0.1,0.31,invalid,1,1,0,down,7.972768299980089,None,space,0.39000899996608496,None,0,1,1,1,,,,,,,,,5577.611148199998,,,,,,,,,,,,,5577.595268099976,5577.611148199998,5577.611148199998,5577.611148199998,5585.5869695,down,7.972768299980089,None,5585.593103700026,5585.60487879999,5585.60487879999,5585.6530322000035,5585.65327130002,5585.66952689999,5585.66952689999,5585.66952689999,5585.7361869000015,5586.069877000002,space,0.39000899996608496,None,,,,,,,,,,,,,,,,,,,,,,,,,,,P122,001,2025-02-21_11h30.55.353,posner_endo_new1,2024.2.4,59.984619959010615,2025-02-21 11h31.04.628141 +0000,
cube_r.png,0.1,-0.31,invalid,2,2,0,down,8.065747899992857,None,space,0.3897599999909289,None,0,2,2,2,,,,,,,,,5586.08594379999,,,,,,,,,,,,,5586.070049099973,5586.08594379999,5586.08594379999,5586.08594379999,5594.161539299996,down,8.065747899992857,None,5594.167612200021,5594.179209000024,5594.179209000024,5594.227581400017,5594.228096199979,5594.243972799974,5594.243972799974,5594.243972799974,5594.310569500027,5594.645337999973,space,0.3897599999909289,None,,,,,,,,,,,,,,,,,,,,,,,,,,,P122,001,2025-02-21_11h30.55.353,posner_endo_new1,2024.2.4,59.984619959010615,2025-02-21 11h31.04.628141 +0000,
cube_r.png,0.1,10,catch,3,3,0,down,1.9715800000121817,None,None,,,0,3,3,3,,,,,,,,,5594.660220600024,,,,,,,,,,,,,5594.645753299992,5594.660220600024,5594.660220600024,5594.660220600024,5596.642766600009,down,1.9715800000121817,None,5596.653381299984,5596.6637436000165,5596.6637436000165,5596.708433300024,5596.708782200003,5596.725016199984,5596.725016199984,5596.725016199984,5596.808169599972,5599.722631699988,None,,,5598.822872999997,5599.738665100012,5599.738665100012,5599.738665100012,,,,,,,,,,,,,,,,,,,,,,,P122,001,2025-02-21_11h30.55.353,posner_endo_new1,2024.2.4,59.984619959010615,2025-02-21 11h31.04.628141 +0000,
cube_l.png,0.1,-0.31,valid,4,4,0,down,1.5332424999796785,None,space,0.46631600003456697,None,0,4,4,4,,,,,,,,,5599.738665100012,,,,,,,,,,,,,5599.722877499997,5599.738665100012,5599.738665100012,5599.738665100012,5601.288308900024,down,1.5332424999796785,None,5601.297580200015,5601.307491099986,5601.307491099986,5601.3536123000085,5601.353857300011,5601.37020569999,5601.37020569999,5601.37020569999,5601.453620799992,5601.83738859999,space,0.46631600003456697,None,,,,,,,,,,,,,,,,,,,,,,,,,,,P122,001,2025-02-21_11h30.55.353,posner_endo_new1,2024.2.4,59.984619959010615,2025-02-21 11h31.04.628141 +0000,
cube_l.png,0.1,0.31,invalid,5,5,0,down,6.307602700020652,None,space,0.37445170001592487,None,0,5,5,5,,,,,,,,,5601.853040300019,,,,,,,,,,,,,5601.837574100005,5601.853040300019,5601.853040300019,5601.853040300019,5608.1643498999765,down,6.307602700020652,None,5608.171058500011,5608.18294269999,5608.18294269999,5608.22988519998,5608.2303946000175,5608.246352499991,5608.246352499991,5608.246352499991,5608.329580300022,5608.63104800001,space,0.37445170001592487,None,,,,,,,,,,,,,,,,,,,,,,,,,,,P122,001,2025-02-21_11h30.55.353,posner_endo_new1,2024.2.4,59.984619959010615,2025-02-21 11h31.04.628141 +0000,
cube_r.png,0.1,-0.31,invalid,6,6,0,down,6.625721599964891,None,space,0.4043307999963872,None,0,6,6,6,,,,,,,,,5608.645921999996,,,,,,,,,,,,,5608.6314545000205,5608.645921999996,5608.645921999996,5608.645921999996,5615.274477900006,down,6.625721599964891,None,5615.290892000019,5615.301983100013,5615.301983100013,5615.339416700008,5615.339721600001,5615.355943100003,5615.355943100003,5615.355943100003,5615.439127899997,5615.773831899976,space,0.4043307999963872,None,,,,,,,,,,,,,,,,,,,,,,,,,,,P122,001,2025-02-21_11h30.55.353,posner_endo_new1,2024.2.4,59.984619959010615,2025-02-21 11h31.04.628141 +0000,
cube_r.png,0.1,0.31,valid,7,7,0,down,5.060668399964925,None,space,0.3813893000478856,None,0,7,7,7,,,,,,,,,5615.788632999989,,,,,,,,,,,,,5615.774258800026,5615.788632999989,5615.788632999989,5615.788632999989,5620.851688400027,down,5.060668399964925,None,5620.862394800002,5620.872730200004,5620.872730200004,5620.917103399988,5620.917444300023,5620.933604300022,5620.933604300022,5620.933604300022,5621.016839599994,5621.317821100005,space,0.3813893000478856,None,,,,,,,,,,,,,,,,,,,,,,,,,,,P122,001,2025-02-21_11h30.55.353,posner_endo_new1,2024.2.4,59.984619959010615,2025-02-21 11h31.04.628141 +0000,
cube_l.png,0.1,-0.31,valid,8,8,0,down,5.027610600052867,None,space,0.42692419997183606,None,0,8,8,8,,,,,,,,,5621.3332066999865,,,,,,,,,,,,,5621.318089200009,5621.3332066999865,5621.3332066999865,5621.3332066999865,5626.362569699995,down,5.027610600052867,None,5626.3733506000135,5626.383712799987,5626.383712799987,5626.428243800008,5626.428592499986,5626.444732200005,5626.444732200005,5626.444732200005,5626.527798100025,5626.878714799997,space,0.42692419997183606,None,,,,,,,,,,,,,,,,,,,,,,,,,,,P122,001,2025-02-21_11h30.55.353,posner_endo_new1,2024.2.4,59.984619959010615,2025-02-21 11h31.04.628141 +0000,
cube_r.png,0.1,-0.31,invalid,9,9,0,down,5.778838099970017,None,space,0.3932380000478588,None,0,9,9,9,,,,,,,,,5626.894165900012,,,,,,,,,,,,,5626.878977600019,5626.894165900012,5626.894165900012,5626.894165900012,5632.689430599974,down,5.778838099970017,None,5632.7002363000065,5632.710275600024,5632.710275600024,5632.754956900026,5632.755301200028,5632.771498200018,5632.771498200018,5632.771498200018,5632.854702499986,5633.1721043,space,0.3932380000478588,None,,,,,,,,,,,,,,,,,,,,,,,,,,,P122,001,2025-02-21_11h30.55.353,posner_endo_new1,2024.2.4,59.984619959010615,2025-02-21 11h31.04.628141 +0000,
cube_r.png,0.1,0.31,valid,10,10,0,down,9.525072999997064,None,space,0.4103490000125021,None,0,10,10,10,,,,,,,,,5633.187595300027,,,,,,,,,,,,,5633.172370399989,5633.187595300027,5633.187595300027,5633.187595300027,5642.729141400021,down,9.525072999997064,None,5642.739846499986,5642.749895500019,5642.749895500019,5642.794652500015,5642.795000399987,5642.811216500006,5642.811216500006,5642.811216500006,5642.894424900005,5643.228550500004,space,0.4103490000125021,None,,,,,,,,,,,,,,,,,,,,,,,,,,,P122,001,2025-02-21_11h30.55.353,posner_endo_new1,2024.2.4,59.984619959010615,2025-02-21 11h31.04.628141 +0000,
,,,,,,,,,,,,,,,,,,,,,,,,,,,,,,,,,,5643.228721800027,5643.244023300009,5646.254532399995,5646.224892399972,,,,,,,,,,,,,,,,,,,,,,,,,,,,,,,,,,,,,,,,,,,,,,,,P122,001,2025-02-21_11h30.55.353,posner_endo_new1,2024.2.4,59.984619959010615,2025-02-21 11h31.04.628141 +0000,
cube_l.png,0.1,10,catch,0,0,0,down,13.593571899982635,None,None,,,,,,,0,0,0,0,,,,,5646.254532399995,,,,,,,,,,,,,5646.243845999998,5646.254532399995,5646.254532399995,5646.254532399995,5659.861180800013,,,,5659.867016799981,5659.8787993000005,5659.8787993000005,5659.927056099987,5659.927563500009,5659.943506199983,5659.943506199983,5659.943506199983,5660.026747800002,5662.941448300029,,,,5662.041691699997,5662.957440999977,5662.957440999977,5662.957440999977,down,13.593571899982635,None,None,,,,,,,,,,,,,,,,,,,P122,001,2025-02-21_11h30.55.353,posner_endo_new1,2024.2.4,59.984619959010615,2025-02-21 11h31.04.628141 +0000,
cube_l.png,0.1,10,catch,1,1,0,down,3.658288899983745,None,None,,,,,,,0,1,1,1,,,,,5662.957440999977,,,,,,,,,,,,,5662.941720100003,5662.957440999977,5662.957440999977,5662.957440999977,5666.621529900003,,,,5666.632737500011,5666.643121599976,5666.643121599976,5666.686993199983,5666.687347500003,5666.7035538000055,5666.7035538000055,5666.7035538000055,5666.786766399979,5669.70127640001,,,,5668.801313499978,5669.717147500021,5669.717147500021,5669.717147500021,down,3.658288899983745,None,None,,,,,,,,,,,,,,,,,,,P122,001,2025-02-21_11h30.55.353,posner_endo_new1,2024.2.4,59.984619959010615,2025-02-21 11h31.04.628141 +0000,
cube_l.png,0.1,0.31,invalid,2,2,0,down,27.475299799989443,None,space,0.5238549999776296,None,,,,,0,2,2,2,,,,,5669.717147500021,,,,,,,,,,,,,5669.701555999985,5669.717147500021,5669.717147500021,5669.717147500021,5697.206919400021,,,,5697.2180274000275,5697.228342699993,5697.228342699993,5697.272420499998,5697.272675600019,5697.288627200003,5697.288627200003,5697.288627200003,5697.372014200024,5697.822833399987,,,,,,,,down,27.475299799989443,None,space,0.5238549999776296,None,,,,,,,,,,,,,,,,,P122,001,2025-02-21_11h30.55.353,posner_endo_new1,2024.2.4,59.984619959010615,2025-02-21 11h31.04.628141 +0000,
cube_l.png,0.1,0.31,invalid,3,3,0,down,8.257698800007347,None,space,0.37756649998482317,None,,,,,0,3,3,3,,,,,5697.8383660999825,,,,,,,,,,,,,5697.82312429999,5697.8383660999825,5697.8383660999825,5697.8383660999825,5706.097506700025,,,,5706.1033458000165,5706.115219100029,5706.115219100029,5706.163153400004,5706.163377500023,5706.179613900022,5706.179613900022,5706.179613900022,5706.2630628999905,5706.5634975000285,,,,,,,,down,8.257698800007347,None,space,0.37756649998482317,None,,,,,,,,,,,,,,,,,P122,001,2025-02-21_11h30.55.353,posner_endo_new1,2024.2.4,59.984619959010615,2025-02-21 11h31.04.628141 +0000,
cube_l.png,0.1,-0.31,valid,4,4,0,down,8.397310899978038,None,space,0.4810867000487633,None,,,,,0,4,4,4,,,,,5706.579441700014,,,,,,,,,,,,,5706.56367459998,5706.579441700014,5706.579441700014,5706.579441700014,5714.9879783000215,,,,5714.993901000009,5715.005547299981,5715.005547299981,5715.054081099981,5715.054573700007,5715.0705082999775,5715.0705082999775,5715.0705082999775,5715.1373533000005,5715.554755699995,,,,,,,,down,8.397310899978038,None,space,0.4810867000487633,None,,,,,,,,,,,,,,,,,P122,001,2025-02-21_11h30.55.353,posner_endo_new1,2024.2.4,59.984619959010615,2025-02-21 11h31.04.628141 +0000,
cube_r.png,0.1,-0.31,invalid,5,5,0,down,7.149565799976699,None,space,0.4216857999563217,None,,,,,0,5,5,5,,,,,5715.570333799988,,,,,,,,,,,,,5715.555026700022,5715.570333799988,5715.570333799988,5715.570333799988,5722.730843700003,,,,5722.739157799981,5722.749263899983,5722.749263899983,5722.796243800025,5722.79647880001,5722.812819299987,5722.812819299987,5722.812819299987,5722.8959296999965,5723.246329499991,,,,,,,,down,7.149565799976699,None,space,0.4216857999563217,None,,,,,,,,,,,,,,,,,P122,001,2025-02-21_11h30.55.353,posner_endo_new1,2024.2.4,59.984619959010615,2025-02-21 11h31.04.628141 +0000,
cube_r.png,0.1,0.31,valid,6,6,0,down,6.297558100020979,None,space,0.3814511999953538,None,,,,,0,6,6,6,,,,,5723.2623424999765,,,,,,,,,,,,,5723.2465070000035,5723.2623424999765,5723.2623424999765,5723.2623424999765,5729.573171199998,,,,5729.579156299995,5729.590877700015,5729.590877700015,5729.639194299991,5729.6394165999955,5729.655726200028,5729.655726200028,5729.655726200028,5729.722522100026,5730.039361800009,,,,,,,,down,6.297558100020979,None,space,0.3814511999953538,None,,,,,,,,,,,,,,,,,P122,001,2025-02-21_11h30.55.353,posner_endo_new1,2024.2.4,59.984619959010615,2025-02-21 11h31.04.628141 +0000,
cube_r.png,0.1,-0.31,invalid,7,7,0,down,7.257267999986652,None,space,0.39718899998115376,None,,,,,0,7,7,7,,,,,5730.055336299993,,,,,,,,,,,,,5730.03953010001,5730.055336299993,5730.055336299993,5730.055336299993,5737.315377800027,,,,5737.321140300017,5737.332966400019,5737.332966400019,5737.381438500015,5737.3816649999935,5737.397839399986,5737.397839399986,5737.397839399986,5737.464610100025,5737.79829549999,,,,,,,,down,7.257267999986652,None,space,0.39718899998115376,None,,,,,,,,,,,,,,,,,P122,001,2025-02-21_11h30.55.353,posner_endo_new1,2024.2.4,59.984619959010615,2025-02-21 11h31.04.628141 +0000,
cube_l.png,0.1,-0.31,valid,8,8,0,down,6.874288099992555,None,space,0.32953449996421114,None,,,,,0,8,8,8,,,,,5737.814153400017,,,,,,,,,,,,,5737.798462999985,5737.814153400017,5737.814153400017,5737.814153400017,5744.691211799975,,,,5744.697205399978,5744.708753100014,5744.708753100014,5744.757159899978,5744.757398299989,5744.773663599975,5744.773663599975,5744.773663599975,5744.840401599999,5745.107449300005,,,,,,,,down,6.874288099992555,None,space,0.32953449996421114,None,,,,,,,,,,,,,,,,,P122,001,2025-02-21_11h30.55.353,posner_endo_new1,2024.2.4,59.984619959010615,2025-02-21 11h31.04.628141 +0000,
cube_r.png,0.1,-0.31,invalid,9,9,0,down,6.141540300042834,None,space,0.32641370000783354,None,,,,,0,9,9,9,,,,,5745.123411800014,,,,,,,,,,,,,5745.107627300022,5745.123411800014,5745.123411800014,5745.123411800014,5751.268256700016,,,,5751.279370600008,5751.289716499974,5751.289716499974,5751.333797800005,5751.334143100015,5751.3503664999735,5751.3503664999735,5751.3503664999735,5751.43354519998,5751.684560999973,,,,,,,,down,6.141540300042834,None,space,0.32641370000783354,None,,,,,,,,,,,,,,,,,P122,001,2025-02-21_11h30.55.353,posner_endo_new1,2024.2.4,59.984619959010615,2025-02-21 11h31.04.628141 +0000,
cube_l.png,0.1,0.31,invalid,10,10,0,down,7.0202746000140905,None,space,0.3520350999897346,None,,,,,0,10,10,10,,,,,5751.700000400015,,,,,,,,,,,,,5751.684870900004,5751.700000400015,5751.700000400015,5751.700000400015,5758.727292500029,,,,5758.736815100012,5758.746533999976,5758.746533999976,5758.792842300027,5758.793083600001,5758.809302199981,5758.809302199981,5758.809302199981,5758.892517699976,5759.176572899974,,,,,,,,down,7.0202746000140905,None,space,0.3520350999897346,None,,,,,,,,,,,,,,,,,P122,001,2025-02-21_11h30.55.353,posner_endo_new1,2024.2.4,59.984619959010615,2025-02-21 11h31.04.628141 +0000,
cube_r.png,0.1,-0.31,invalid,11,11,0,down,5.295506900001783,None,space,0.4405307999695651,None,,,,,0,11,11,11,,,,,5759.192385600007,,,,,,,,,,,,,5759.176756599976,5759.192385600007,5759.192385600007,5759.192385600007,5764.504262799979,,,,5764.510888000019,5764.522469600022,5764.522469600022,5764.570243599999,5764.5704807,5764.58684459998,5764.58684459998,5764.58684459998,5764.653281599982,5765.037225099979,,,,,,,,down,5.295506900001783,None,space,0.4405307999695651,None,,,,,,,,,,,,,,,,,P122,001,2025-02-21_11h30.55.353,posner_endo_new1,2024.2.4,59.984619959010615,2025-02-21 11h31.04.628141 +0000,
cube_r.png,0.1,0.31,valid,12,12,0,down,4.211734799959231,None,space,0.3464306999812834,None,,,,,0,12,12,12,,,,,5765.052900400013,,,,,,,,,,,,,5765.037406200019,5765.052900400013,5765.052900400013,5765.052900400013,5769.2662457000115,,,,5769.27285519999,5769.284863499983,5769.284863499983,5769.331992599997,5769.332482800004,5769.348392500018,5769.348392500018,5769.348392500018,5769.431634399982,5769.6999067,,,,,,,,down,4.211734799959231,None,space,0.3464306999812834,None,,,,,,,,,,,,,,,,,P122,001,2025-02-21_11h30.55.353,posner_endo_new1,2024.2.4,59.984619959010615,2025-02-21 11h31.04.628141 +0000,
cube_l.png,0.1,10,catch,13,13,0,down,5.997581500036176,None,None,,,,,,,0,13,13,13,,,,,5769.7146527,,,,,,,,,,,,,5769.700324799982,5769.7146527,5769.7146527,5769.7146527,5775.7266310999985,,,,5775.737724000006,5775.748046600027,5775.748046600027,5775.7922491999925,5775.792592599988,5775.808719999972,5775.808719999972,5775.808719999972,5775.891879900009,5778.80644309998,,,,5777.906512000016,5778.822307499999,5778.822307499999,5778.822307499999,down,5.997581500036176,None,None,,,,,,,,,,,,,,,,,,,P122,001,2025-02-21_11h30.55.353,posner_endo_new1,2024.2.4,59.984619959010615,2025-02-21 11h31.04.628141 +0000,
cube_r.png,0.1,-0.31,invalid,14,14,0,down,1.9937369000399485,None,space,0.4531954000121914,None,,,,,0,14,14,14,,,,,5778.822307499999,,,,,,,,,,,,,5778.80671460001,5778.822307499999,5778.822307499999,5778.822307499999,5780.821722300025,,,,5780.832959600026,5780.843310000026,5780.843310000026,5780.886995700013,5780.887350099976,5780.903560300008,5780.903560300008,5780.903560300008,5780.9868136000005,5781.37090400001,,,,,,,,down,1.9937369000399485,None,space,0.4531954000121914,None,,,,,,,,,,,,,,,,,P122,001,2025-02-21_11h30.55.353,posner_endo_new1,2024.2.4,59.984619959010615,2025-02-21 11h31.04.628141 +0000,
cube_l.png,0.1,-0.31,valid,15,15,0,down,5.45497439999599,None,space,0.4014465999789536,None,,,,,0,15,15,15,,,,,5781.386350299988,,,,,,,,,,,,,5781.371217600012,5781.386350299988,5781.386350299988,5781.386350299988,5786.848306700005,,,,5786.859400900023,5786.869661299977,5786.869661299977,5786.914079700015,5786.914424100018,5786.930687799992,5786.930687799992,5786.930687799992,5787.01385789999,5787.347948600014,,,,,,,,down,5.45497439999599,None,space,0.4014465999789536,None,,,,,,,,,,,,,,,,,P122,001,2025-02-21_11h30.55.353,posner_endo_new1,2024.2.4,59.984619959010615,2025-02-21 11h31.04.628141 +0000,
cube_r.png,0.1,10,catch,16,16,0,down,7.900789099978283,None,None,,,,,,,0,16,16,16,,,,,5787.363449199998,,,,,,,,,,,,,5787.348233000026,5787.363449199998,5787.363449199998,5787.363449199998,5795.273467399995,,,,5795.284804299998,5795.295159599977,5795.295159599977,5795.338903199998,5795.339265700022,5795.355505499989,5795.355505499989,5795.355505499989,5795.438710300019,5798.353019099974,,,,5797.453296500025,5798.368996799982,5798.368996799982,5798.368996799982,down,7.900789099978283,None,None,,,,,,,,,,,,,,,,,,,P122,001,2025-02-21_11h30.55.353,posner_endo_new1,2024.2.4,59.984619959010615,2025-02-21 11h31.04.628141 +0000,
cube_r.png,0.1,10,catch,17,17,0,down,3.1915011000237428,None,None,,,,,,,0,17,17,17,,,,,5798.368996799982,,,,,,,,,,,,,5798.353302999982,5798.368996799982,5798.368996799982,5798.368996799982,5801.566879699996,,,,5801.5780585000175,5801.58835570002,5801.58835570002,5801.632298399985,5801.632663200027,5801.64889750001,5801.64889750001,5801.64889750001,5801.732097200002,5804.646538499976,,,,5803.746710399981,5804.6625047000125,5804.6625047000125,5804.6625047000125,down,3.1915011000237428,None,None,,,,,,,,,,,,,,,,,,,P122,001,2025-02-21_11h30.55.353,posner_endo_new1,2024.2.4,59.984619959010615,2025-02-21 11h31.04.628141 +0000,
cube_l.png,0.1,0.31,invalid,18,18,0,down,5.186168999993242,None,space,0.4559803999727592,None,,,,,0,18,18,18,,,,,5804.6625047000125,,,,,,,,,,,,,5804.646811700019,5804.6625047000125,5804.6625047000125,5804.6625047000125,5809.858571699995,,,,5809.869811100012,5809.880185900023,5809.880185900023,5809.923974299978,5809.924328099994,5809.94041879999,5809.94041879999,5809.94041879999,5810.0237461000215,5810.407923299994,,,,,,,,down,5.186168999993242,None,space,0.4559803999727592,None,,,,,,,,,,,,,,,,,P122,001,2025-02-21_11h30.55.353,posner_endo_new1,2024.2.4,59.984619959010615,2025-02-21 11h31.04.628141 +0000,
cube_l.png,0.1,10,catch,19,19,0,down,4.649573200033046,None,None,,,,,,,0,19,19,19,,,,,5810.423339599976,,,,,,,,,,,,,5810.408216300013,5810.423339599976,5810.423339599976,5810.423339599976,5815.085939900018,,,,5815.093155900016,5815.105046099983,5815.105046099983,5815.15186350001,5815.152125500026,5815.168346300023,5815.168346300023,5815.168346300023,5815.251605400001,5818.165795999987,,,,5817.266200700018,5818.181939299975,5818.181939299975,5818.181939299975,down,4.649573200033046,None,None,,,,,,,,,,,,,,,,,,,P122,001,2025-02-21_11h30.55.353,posner_endo_new1,2024.2.4,59.984619959010615,2025-02-21 11h31.04.628141 +0000,
cube_l.png,0.1,0.31,invalid,20,20,0,down,4.555006500042509,None,space,0.49816780001856387,None,,,,,0,20,20,20,,,,,5818.181939299975,,,,,,,,,,,,,5818.165975400014,5818.181939299975,5818.181939299975,5818.181939299975,5822.744699499977,,,,5822.751743000001,5822.763664899976,5822.763664899976,5822.810603399994,5822.810849500005,5822.827185800008,5822.827185800008,5822.827185800008,5822.893821200007,5823.327611099987,,,,,,,,down,4.555006500042509,None,space,0.49816780001856387,None,,,,,,,,,,,,,,,,,P122,001,2025-02-21_11h30.55.353,posner_endo_new1,2024.2.4,59.984619959010615,2025-02-21 11h31.04.628141 +0000,
cube_l.png,0.1,-0.31,valid,21,21,0,down,3.432706399995368,None,space,0.4493616000399925,None,,,,,0,21,21,21,,,,,5823.343256100023,,,,,,,,,,,,,5823.3278101999895,5823.343256100023,5823.343256100023,5823.343256100023,5826.790693100018,,,,5826.797710200015,5826.809402299987,5826.809402299987,5826.856416099996,5826.856661600003,5826.873171399988,5826.873171399988,5826.873171399988,5826.956179699977,5827.323535499978,,,,,,,,down,3.432706399995368,None,space,0.4493616000399925,None,,,,,,,,,,,,,,,,,P122,001,2025-02-21_11h30.55.353,posner_endo_new1,2024.2.4,59.984619959010615,2025-02-21 11h31.04.628141 +0000,
cube_r.png,0.1,0.31,valid,22,22,0,down,4.189657300012186,None,space,0.46484430000418797,None,,,,,0,22,22,22,,,,,5827.339327899972,,,,,,,,,,,,,5827.323734299978,5827.339327899972,5827.339327899972,5827.339327899972,5831.535742999986,,,,5831.542763300007,5831.554678199987,5831.554678199987,5831.601773799979,5831.602019199985,5831.618167900015,5831.618167900015,5831.618167900015,5831.684768199979,5832.085341500002,,,,,,,,down,4.189657300012186,None,space,0.46484430000418797,None,,,,,,,,,,,,,,,,,P122,001,2025-02-21_11h30.55.353,posner_endo_new1,2024.2.4,59.984619959010615,2025-02-21 11h31.04.628141 +0000,
cube_r.png,0.1,-0.31,invalid,23,23,0,down,4.675210799963679,None,space,0.4010769000160508,None,,,,,0,23,23,23,,,,,5832.101140199986,,,,,,,,,,,,,5832.085533100006,5832.101140199986,5832.101140199986,5832.101140199986,5836.780756100023,,,,5836.787746499991,5836.7995449000155,5836.7995449000155,5836.846472200006,5836.846721099981,5836.862814799999,5836.862814799999,5836.862814799999,5836.946103300026,5837.279860700015,,,,,,,,down,4.675210799963679,None,space,0.4010769000160508,None,,,,,,,,,,,,,,,,,P122,001,2025-02-21_11h30.55.353,posner_endo_new1,2024.2.4,59.984619959010615,2025-02-21 11h31.04.628141 +0000,
cube_r.png,0.1,0.31,valid,24,24,0,down,2.5044390999828465,None,space,0.4452369000064209,None,,,,,0,24,24,24,,,,,5837.295828100003,,,,,,,,,,,,,5837.280062299978,5837.295828100003,5837.295828100003,5837.295828100003,5839.810701599985,,,,5839.817661700014,5839.829590999987,5839.829590999987,5839.876565999992,5839.876812100003,5839.893190699979,5839.893190699979,5839.893190699979,5839.976292399981,5840.343519999995,,,,,,,,down,2.5044390999828465,None,space,0.4452369000064209,None,,,,,,,,,,,,,,,,,P122,001,2025-02-21_11h30.55.353,posner_endo_new1,2024.2.4,59.984619959010615,2025-02-21 11h31.04.628141 +0000,
cube_r.png,0.1,-0.31,invalid,25,25,0,down,2.8329171999939717,None,space,0.34322590002557263,None,,,,,0,25,25,25,,,,,5840.359486399975,,,,,,,,,,,,,5840.343712100002,5840.359486399975,5840.359486399975,5840.359486399975,5843.207187800028,,,,5843.214183299977,5843.226099700027,5843.226099700027,5843.273401600018,5843.273646700021,5843.289826099994,5843.289826099994,5843.289826099994,5843.35629570001,5843.639956000028,,,,,,,,down,2.8329171999939717,None,space,0.34322590002557263,None,,,,,,,,,,,,,,,,,P122,001,2025-02-21_11h30.55.353,posner_endo_new1,2024.2.4,59.984619959010615,2025-02-21 11h31.04.628141 +0000,
cube_l.png,0.1,-0.31,valid,26,26,0,down,1.8888458000146784,None,space,0.40193819999694824,None,,,,,0,26,26,26,,,,,5843.656060500012,,,,,,,,,,,,,5843.640151600004,5843.656060500012,5843.656060500012,5843.656060500012,5845.554733900004,,,,5845.56184889999,5845.573717600026,5845.573717600026,5845.620633599989,5845.620880200004,5845.6372446999885,5845.6372446999885,5845.6372446999885,5845.703704499989,5846.0543006000225,,,,,,,,down,1.8888458000146784,None,space,0.40193819999694824,None,,,,,,,,,,,,,,,,,P122,001,2025-02-21_11h30.55.353,posner_endo_new1,2024.2.4,59.984619959010615,2025-02-21 11h31.04.628141 +0000,
cube_r.png,0.1,0.31,valid,27,27,0,down,4.9067262999597006,None,space,0.3762507999781519,None,,,,,0,27,27,27,,,,,5846.070164899982,,,,,,,,,,,,,5846.054509399983,5846.070164899982,5846.070164899982,5846.070164899982,5850.9827458999935,,,,5850.989985799999,5851.001430400007,5851.001430400007,5851.048649500008,5851.048916400003,5851.065037199995,5851.065037199995,5851.065037199995,5851.131482600002,5851.448879699979,,,,,,,,down,4.9067262999597006,None,space,0.3762507999781519,None,,,,,,,,,,,,,,,,,P122,001,2025-02-21_11h30.55.353,posner_endo_new1,2024.2.4,59.984619959010615,2025-02-21 11h31.04.628141 +0000,
cube_r.png,0.1,10,catch,28,28,0,down,3.5914096000487916,None,None,,,,,,,0,28,28,28,,,,,5851.464505799988,,,,,,,,,,,,,5851.449087799992,5851.464505799988,5851.464505799988,5851.464505799988,5855.061900299974,,,,5855.0691008000285,5855.080503200006,5855.080503200006,5855.127561000001,5855.127820199996,5855.144231299986,5855.144231299986,5855.144231299986,5855.210787800024,5858.141543900012,,,,5857.225407899998,5858.157861299987,5858.157861299987,5858.157861299987,down,3.5914096000487916,None,None,,,,,,,,,,,,,,,,,,,P122,001,2025-02-21_11h30.55.353,posner_endo_new1,2024.2.4,59.984619959010615,2025-02-21 11h31.04.628141 +0000,
cube_r.png,0.1,0.31,valid,29,29,0,down,2.0116071000229567,None,space,0.3533193000475876,None,,,,,0,29,29,29,,,,,5858.157861299987,,,,,,,,,,,,,5858.141735500016,5858.157861299987,5858.157861299987,5858.157861299987,5860.173359000008,,,,5860.180659500009,5860.192164700013,5860.192164700013,5860.239153200004,5860.239414800017,5860.2556610999745,5860.2556610999745,5860.2556610999745,5860.338990600023,5860.622740800027,,,,,,,,down,2.0116071000229567,None,space,0.3533193000475876,None,,,,,,,,,,,,,,,,,P122,001,2025-02-21_11h30.55.353,posner_endo_new1,2024.2.4,59.984619959010615,2025-02-21 11h31.04.628141 +0000,
cube_r.png,0.1,0.31,valid,30,30,0,down,12.353654000035021,None,space,0.41999939997913316,None,,,,,0,30,30,30,,,,,5860.638737300003,,,,,,,,,,,,,5860.622955100029,5860.638737300003,5860.638737300003,5860.638737300003,5872.993867699988,,,,5873.00111479999,5873.012283899996,5873.012283899996,5873.059518900001,5873.0597778999945,5873.075766500027,5873.075766500027,5873.075766500027,5873.15901860001,5873.509562699997,,,,,,,,down,12.353654000035021,None,space,0.41999939997913316,None,,,,,,,,,,,,,,,,,P122,001,2025-02-21_11h30.55.353,posner_endo_new1,2024.2.4,59.984619959010615,2025-02-21 11h31.04.628141 +0000,
cube_l.png,0.1,-0.31,valid,31,31,0,down,7.595420799974818,None,space,0.44331689999671653,None,,,,,0,31,31,31,,,,,5873.525453399983,,,,,,,,,,,,,5873.509771100013,5873.525453399983,5873.525453399983,5873.525453399983,5881.135301399976,,,,5881.1424999000155,5881.153881300008,5881.153881300008,5881.201467700012,5881.2018213000265,5881.2175901000155,5881.2175901000155,5881.2175901000155,5881.300882500014,5881.668297099997,,,,,,,,down,7.595420799974818,None,space,0.44331689999671653,None,,,,,,,,,,,,,,,,,P122,001,2025-02-21_11h30.55.353,posner_endo_new1,2024.2.4,59.984619959010615,2025-02-21 11h31.04.628141 +0000,
cube_r.png,0.1,0.31,valid,32,32,0,down,5.188735899981111,None,space,0.40161020000232384,None,,,,,0,32,32,32,,,,,5881.683831500006,,,,,,,,,,,,,5881.668590300018,5881.683831500006,5881.683831500006,5881.683831500006,5886.879744799982,,,,5886.890913599986,5886.901161300018,5886.901161300018,5886.945328300004,5886.9456852999865,5886.961779300007,5886.961779300007,5886.961779300007,5887.0450750999735,5887.379211499996,,,,,,,,down,5.188735899981111,None,space,0.40161020000232384,None,,,,,,,,,,,,,,,,,P122,001,2025-02-21_11h30.55.353,posner_endo_new1,2024.2.4,59.984619959010615,2025-02-21 11h31.04.628141 +0000,
cube_r.png,0.1,-0.31,invalid,33,33,0,down,5.333401000010781,None,space,0.4293996000196785,None,,,,,0,33,33,33,,,,,5887.3946925000055,,,,,,,,,,,,,5887.379518900008,5887.3946925000055,5887.3946925000055,5887.3946925000055,5892.74046880001,,,,5892.74922160001,5892.7590494999895,5892.7590494999895,5892.8059602000285,5892.8062164,5892.822314599995,5892.822314599995,5892.822314599995,5892.9056857000105,5893.256242099975,,,,,,,,down,5.333401000010781,None,space,0.4293996000196785,None,,,,,,,,,,,,,,,,,P122,001,2025-02-21_11h30.55.353,posner_endo_new1,2024.2.4,59.984619959010615,2025-02-21 11h31.04.628141 +0000,
cube_r.png,0.1,10,catch,34,34,0,down,6.480334500025492,None,None,,,,,,,0,34,34,34,,,,,5893.271912200027,,,,,,,,,,,,,5893.256433499977,5893.271912200027,5893.271912200027,5893.271912200027,5899.766189899994,,,,5899.773256900022,5899.78495489998,5899.78495489998,5899.8319886000245,5899.832235699985,5899.848645600025,5899.848645600025,5899.848645600025,5899.931929300015,5902.84586110001,,,,5901.946401400026,5902.862145700026,5902.862145700026,5902.862145700026,down,6.480334500025492,None,None,,,,,,,,,,,,,,,,,,,P122,001,2025-02-21_11h30.55.353,posner_endo_new1,2024.2.4,59.984619959010615,2025-02-21 11h31.04.628141 +0000,
cube_r.png,0.1,0.31,valid,35,35,0,down,4.6906106999958865,None,space,0.39636130002327263,None,,,,,0,35,35,35,,,,,5902.862145700026,,,,,,,,,,,,,5902.846049799991,5902.862145700026,5902.862145700026,5902.862145700026,5907.5581261999905,,,,5907.565210899978,5907.577047500003,5907.577047500003,5907.624026399979,5907.624291100015,5907.6406392999925,5907.6406392999925,5907.6406392999925,5907.707223900012,5908.0410042,,,,,,,,down,4.6906106999958865,None,space,0.39636130002327263,None,,,,,,,,,,,,,,,,,P122,001,2025-02-21_11h30.55.353,posner_endo_new1,2024.2.4,59.984619959010615,2025-02-21 11h31.04.628141 +0000,
cube_r.png,0.1,-0.31,invalid,36,36,0,down,10.663768699974753,None,space,0.47505000000819564,None,,,,,0,36,36,36,,,,,5908.056893299974,,,,,,,,,,,,,5908.041202099994,5908.056893299974,5908.056893299974,5908.056893299974,5918.729985099984,,,,5918.737339499989,5918.748936499993,5918.748936499993,5918.795956099988,5918.796473600029,5918.812389000028,5918.812389000028,5918.812389000028,5918.8955984999775,5919.297492299986,,,,,,,,down,10.663768699974753,None,space,0.47505000000819564,None,,,,,,,,,,,,,,,,,P122,001,2025-02-21_11h30.55.353,posner_endo_new1,2024.2.4,59.984619959010615,2025-02-21 11h31.04.628141 +0000,
cube_l.png,0.1,0.31,invalid,37,37,0,down,4.745257899980061,None,space,0.3868612999795005,None,,,,,0,37,37,37,,,,,5919.3118771999725,,,,,,,,,,,,,5919.297933999973,5919.3118771999725,5919.3118771999725,5919.3118771999725,5924.058580300014,,,,5924.067952800018,5924.077641699987,5924.077641699987,5924.123902200023,5924.124138700019,5924.140374700015,5924.140374700015,5924.140374700015,5924.223669399973,5924.540906000009,,,,,,,,down,4.745257899980061,None,space,0.3868612999795005,None,,,,,,,,,,,,,,,,,P122,001,2025-02-21_11h30.55.353,posner_endo_new1,2024.2.4,59.984619959010615,2025-02-21 11h31.04.628141 +0000,
cube_l.png,0.1,0.31,invalid,38,38,0,down,5.108349099988118,None,space,0.5141342999995686,None,,,,,0,38,38,38,,,,,5924.556475499994,,,,,,,,,,,,,5924.541093099979,5924.556475499994,5924.556475499994,5924.556475499994,5929.669031700003,,,,5929.67570740002,5929.687517400016,5929.687517400016,5929.734862299985,5929.735105799977,5929.751433399972,5929.751433399972,5929.751433399972,5929.834497299977,5930.268334100023,,,,,,,,down,5.108349099988118,None,space,0.5141342999995686,None,,,,,,,,,,,,,,,,,P122,001,2025-02-21_11h30.55.353,posner_endo_new1,2024.2.4,59.984619959010615,2025-02-21 11h31.04.628141 +0000,
cube_r.png,0.1,0.31,valid,39,39,0,down,14.140885600005277,None,space,0.3477710000006482,None,,,,,0,39,39,39,,,,,5930.284196400025,,,,,,,,,,,,,5930.268523800012,5930.284196400025,5930.284196400025,5930.284196400025,5944.437029200024,,,,5944.443685700011,5944.455550800019,5944.455550800019,5944.50301059999,5944.503245699976,5944.519608400005,5944.519608400005,5944.519608400005,5944.5863605000195,5944.870088899974,,,,,,,,down,14.140885600005277,None,space,0.3477710000006482,None,,,,,,,,,,,,,,,,,P122,001,2025-02-21_11h30.55.353,posner_endo_new1,2024.2.4,59.984619959010615,2025-02-21 11h31.04.628141 +0000,
cube_l.png,0.1,0.31,invalid,40,40,0,down,3.530447400000412,None,space,0.4400417000288144,None,,,,,0,40,40,40,,,,,5944.885869999998,,,,,,,,,,,,,5944.870270500018,5944.885869999998,5944.885869999998,5944.885869999998,5948.433101499977,,,,5948.4397594999755,5948.451390800008,5948.451390800008,5948.498944699997,5948.4994538999745,5948.515370899986,5948.515370899986,5948.515370899986,5948.598601599981,5948.96664910001,,,,,,,,down,3.530447400000412,None,space,0.4400417000288144,None,,,,,,,,,,,,,,,,,P122,001,2025-02-21_11h30.55.353,posner_endo_new1,2024.2.4,59.984619959010615,2025-02-21 11h31.04.628141 +0000,
cube_l.png,0.1,10,catch,41,41,0,down,3.4593157000490464,None,None,,,,,,,0,41,41,41,,,,,5948.981520499976,,,,,,,,,,,,,5948.967071300023,5948.981520499976,5948.981520499976,5948.981520499976,5952.446143199981,,,,5952.4572453,5952.467450600001,5952.467450600001,5952.511575600016,5952.511919000011,5952.528148400015,5952.528148400015,5952.528148400015,5952.611352399981,5955.525834199972,,,,5954.626123299997,5955.541933499975,5955.541933499975,5955.541933499975,down,3.4593157000490464,None,None,,,,,,,,,,,,,,,,,,,P122,001,2025-02-21_11h30.55.353,posner_endo_new1,2024.2.4,59.984619959010615,2025-02-21 11h31.04.628141 +0000,
cube_l.png,0.1,-0.31,valid,42,42,0,down,5.082993799995165,None,space,0.3789141999441199,None,,,,,0,42,42,42,,,,,5955.541933499975,,,,,,,,,,,,,5955.526123800024,5955.541933499975,5955.541933499975,5955.541933499975,5960.637704399996,,,,5960.648808599974,5960.659219200024,5960.659219200024,5960.703336299979,5960.703685300017,5960.719837600016,5960.719837600016,5960.719837600016,5960.8030287,5961.1039033000125,,,,,,,,down,5.082993799995165,None,space,0.3789141999441199,None,,,,,,,,,,,,,,,,,P122,001,2025-02-21_11h30.55.353,posner_endo_new1,2024.2.4,59.984619959010615,2025-02-21 11h31.04.628141 +0000,
cube_l.png,0.1,10,catch,43,43,0,down,9.40916699997615,None,None,,,,,,,0,43,43,43,,,,,5961.119309599977,,,,,,,,,,,,,5961.104184299998,5961.119309599977,5961.119309599977,5961.119309599977,5970.544181799982,,,,5970.555185400008,5970.565458500001,5970.565458500001,5970.609833099996,5970.610178100003,5970.626034800021,5970.626034800021,5970.626034800021,5970.709580600029,5973.624018799979,,,,5972.724125800014,5973.639889099984,5973.639889099984,5973.639889099984,down,9.40916699997615,None,None,,,,,,,,,,,,,,,,,,,P122,001,2025-02-21_11h30.55.353,posner_endo_new1,2024.2.4,59.984619959010615,2025-02-21 11h31.04.628141 +0000,
cube_l.png,0.1,0.31,invalid,44,44,0,down,3.032707099977415,None,space,0.4412434999831021,None,,,,,0,44,44,44,,,,,5973.639889099984,,,,,,,,,,,,,5973.62429170002,5973.639889099984,5973.639889099984,5973.639889099984,5976.687968700018,,,,5976.6991569999955,5976.709562600008,5976.709562600008,5976.75351379998,5976.753863100021,5976.770048799983,5976.770048799983,5976.770048799983,5976.853243899997,5977.220477199997,,,,,,,,down,3.032707099977415,None,space,0.4412434999831021,None,,,,,,,,,,,,,,,,,P122,001,2025-02-21_11h30.55.353,posner_endo_new1,2024.2.4,59.984619959010615,2025-02-21 11h31.04.628141 +0000,
cube_l.png,0.1,0.31,invalid,45,45,0,down,6.7330662999884225,None,space,0.4163760000374168,None,,,,,0,45,45,45,,,,,5977.235481499985,,,,,,,,,,,,,5977.220778800023,5977.235481499985,5977.235481499985,5977.235481499985,5983.980048500001,,,,5983.986682099989,5983.998495700012,5983.998495700012,5984.046029200021,5984.046253499982,5984.062572400027,5984.062572400027,5984.062572400027,5984.1292008999735,5984.47967109998,,,,,,,,down,6.7330662999884225,None,space,0.4163760000374168,None,,,,,,,,,,,,,,,,,P122,001,2025-02-21_11h30.55.353,posner_endo_new1,2024.2.4,59.984619959010615,2025-02-21 11h31.04.628141 +0000,
cube_r.png,0.1,0.31,valid,46,46,0,down,6.041537400044035,None,space,0.40436980000231415,None,,,,,0,46,46,46,,,,,5984.495487499982,,,,,,,,,,,,,5984.479837400024,5984.495487499982,5984.495487499982,5984.495487499982,5990.5401937999995,,,,5990.545931599976,5990.55777080002,5990.55777080002,5990.606017599988,5990.6062426000135,5990.6226732999785,5990.6226732999785,5990.6226732999785,5990.689179399982,5991.039392100007,,,,,,,,down,6.041537400044035,None,space,0.40436980000231415,None,,,,,,,,,,,,,,,,,P122,001,2025-02-21_11h30.55.353,posner_endo_new1,2024.2.4,59.984619959010615,2025-02-21 11h31.04.628141 +0000,
cube_l.png,0.1,-0.31,valid,47,47,0,down,7.049026199965738,None,space,0.3362158000236377,None,,,,,0,47,47,47,,,,,5991.0554392000195,,,,,,,,,,,,,5991.039561000012,5991.0554392000195,5991.0554392000195,5991.0554392000195,5998.115578999976,,,,5998.121285600006,5998.13283279998,5998.13283279998,5998.181536999997,5998.181759600004,5998.198265100014,5998.198265100014,5998.198265100014,5998.264746700006,5998.5487618999905,,,,,,,,down,7.049026199965738,None,space,0.3362158000236377,None,,,,,,,,,,,,,,,,,P122,001,2025-02-21_11h30.55.353,posner_endo_new1,2024.2.4,59.984619959010615,2025-02-21 11h31.04.628141 +0000,
cube_r.png,0.1,-0.31,invalid,48,48,0,down,23.75693470000988,None,space,0.44412780000129715,None,,,,,0,48,48,48,,,,,5998.564347599982,,,,,,,,,,,,,5998.548928399978,5998.564347599982,5998.564347599982,5998.564347599982,6022.3244404,,,,6022.3336925000185,6022.3439413000015,6022.3439413000015,6022.390236600011,6022.390541700006,6022.406815800001,6022.406815800001,6022.406815800001,6022.490050200024,6022.857489900023,,,,,,,,down,23.75693470000988,None,space,0.44412780000129715,None,,,,,,,,,,,,,,,,,P122,001,2025-02-21_11h30.55.353,posner_endo_new1,2024.2.4,59.984619959010615,2025-02-21 11h31.04.628141 +0000,
cube_r.png,0.1,10,catch,49,49,0,down,8.031846400001086,None,None,,,,,,,0,49,49,49,,,,,6022.872971999983,,,,,,,,,,,,,6022.857733000012,6022.872971999983,6022.872971999983,6022.872971999983,6030.915747300023,,,,6030.924958200019,6030.935533599986,6030.935533599986,6030.9814924999955,6030.981803599978,6030.997944700008,6030.997944700008,6030.997944700008,6031.081325499981,6033.995428399998,,,,6033.095826099976,6034.011612100003,6034.011612100003,6034.011612100003,down,8.031846400001086,None,None,,,,,,,,,,,,,,,,,,,P122,001,2025-02-21_11h30.55.353,posner_endo_new1,2024.2.4,59.984619959010615,2025-02-21 11h31.04.628141 +0000,
cube_l.png,0.1,-0.31,valid,50,50,0,down,4.6930225000251085,None,space,0.5245463000028394,None,,,,,0,50,50,50,,,,,6034.011612100003,,,,,,,,,,,,,6033.995663599984,6034.011612100003,6034.011612100003,6034.011612100003,6038.707464199979,,,,6038.713230199995,6038.724802899989,6038.724802899989,6038.773341700027,6038.773564899981,6038.789935400011,6038.789935400011,6038.789935400011,6038.856559799984,6039.32354870002,,,,,,,,down,4.6930225000251085,None,space,0.5245463000028394,None,,,,,,,,,,,,,,,,,P122,001,2025-02-21_11h30.55.353,posner_endo_new1,2024.2.4,59.984619959010615,2025-02-21 11h31.04.628141 +0000,
cube_l.png,0.1,-0.31,valid,51,51,0,down,6.805069699999876,None,space,0.5619080000324175,None,,,,,0,51,51,51,,,,,6039.339301600005,,,,,,,,,,,,,6039.323726199975,6039.339301600005,6039.339301600005,6039.339301600005,6046.149931999971,,,,6046.155741200026,6046.167451300018,6046.167451300018,6046.215932600026,6046.216154200025,6046.232422299974,6046.232422299974,6046.232422299974,6046.315793299989,6046.799075999996,,,,,,,,down,6.805069699999876,None,space,0.5619080000324175,None,,,,,,,,,,,,,,,,,P122,001,2025-02-21_11h30.55.353,posner_endo_new1,2024.2.4,59.984619959010615,2025-02-21 11h31.04.628141 +0000,
cube_r.png,0.1,-0.31,invalid,52,52,0,down,7.4896034999983385,None,space,0.3788302000029944,None,,,,,0,52,52,52,,,,,6046.815145800007,,,,,,,,,,,,,6046.799244499998,6046.815145800007,6046.815145800007,6046.815145800007,6054.308600299992,,,,6054.3178108999855,6054.328065400012,6054.328065400012,6054.374253200018,6054.3745567000005,6054.390713999979,6054.390713999979,6054.390713999979,6054.473976799985,6054.7746661999845,,,,,,,,down,7.4896034999983385,None,space,0.3788302000029944,None,,,,,,,,,,,,,,,,,P122,001,2025-02-21_11h30.55.353,posner_endo_new1,2024.2.4,59.984619959010615,2025-02-21 11h31.04.628141 +0000,
cube_l.png,0.1,-0.31,valid,53,53,0,down,8.098179400025401,None,space,0.497407499991823,None,,,,,0,53,53,53,,,,,6054.7903497000225,,,,,,,,,,,,,6054.774911199987,6054.7903497000225,6054.7903497000225,6054.7903497000225,6062.8996835,,,,6062.90755589999,6062.918462799978,6062.918462799978,6062.965492599993,6062.965713399986,6062.981991100009,6062.981991100009,6062.981991100009,6063.065196299984,6063.482337000023,,,,,,,,down,8.098179400025401,None,space,0.497407499991823,None,,,,,,,,,,,,,,,,,P122,001,2025-02-21_11h30.55.353,posner_endo_new1,2024.2.4,59.984619959010615,2025-02-21 11h31.04.628141 +0000,
cube_r.png,0.1,10,catch,54,54,0,down,5.446993199991994,None,None,,,,,,,0,54,54,54,,,,,6063.49813610001,,,,,,,,,,,,,6063.482508999994,6063.49813610001,6063.49813610001,6063.49813610001,6068.959856899979,,,,6068.965600299998,6068.977339099976,6068.977339099976,6069.025861300004,6069.026085500023,6069.042494299996,6069.042494299996,6069.042494299996,6069.109193600016,6072.040052499971,,,,6071.123790799989,6072.055939199985,6072.055939199985,6072.055939199985,down,5.446993199991994,None,None,,,,,,,,,,,,,,,,,,,P122,001,2025-02-21_11h30.55.353,posner_endo_new1,2024.2.4,59.984619959010615,2025-02-21 11h31.04.628141 +0000,
cube_l.png,0.1,0.31,invalid,55,55,0,down,3.481898700003512,None,space,0.3709822000237182,None,,,,,0,55,55,55,,,,,6072.055939199985,,,,,,,,,,,,,6072.0402144999825,6072.055939199985,6072.055939199985,6072.055939199985,6075.55301600002,,,,6075.558817100013,6075.570638399979,6075.570638399979,6075.6190892999875,6075.619313000003,6075.635636200022,6075.635636200022,6075.635636200022,6075.702290099987,6076.019303700014,,,,,,,,down,3.481898700003512,None,space,0.3709822000237182,None,,,,,,,,,,,,,,,,,P122,001,2025-02-21_11h30.55.353,posner_endo_new1,2024.2.4,59.984619959010615,2025-02-21 11h31.04.628141 +0000,
cube_l.png,0.1,-0.31,valid,56,56,0,down,5.74999929999467,None,space,0.4671016000211239,None,,,,,0,56,56,56,,,,,6076.035295300011,,,,,,,,,,,,,6076.0194720000145,6076.035295300011,6076.035295300011,6076.035295300011,6081.796581699979,,,,6081.802331999992,6081.813346499985,6081.813346499985,6081.8468472000095,6081.847329900018,6081.862449700013,6081.862449700013,6081.862449700013,6081.94568070001,6082.346931800013,,,,,,,,down,5.74999929999467,None,space,0.4671016000211239,None,6081.862449700013,6081.862449700013,,,,,,,,,,,,,,,P122,001,2025-02-21_11h30.55.353,posner_endo_new1,2024.2.4,59.984619959010615,2025-02-21 11h31.04.628141 +0000,
cube_r.png,0.1,0.31,valid,57,57,0,down,6.206594399991445,None,space,0.3206474999897182,None,,,,,0,57,57,57,,,,,6082.36194219999,,,,,,,,,,,,,6082.347359200008,6082.36194219999,6082.36194219999,6082.36194219999,6088.574004800001,,,,6088.585000000021,6088.595357000013,6088.595357000013,6088.639208599983,6088.639553699992,6088.655771300022,6088.655771300022,6088.655771300022,6088.739009200013,6088.989845599979,,,,,,,,down,6.206594399991445,None,space,0.3206474999897182,None,,,,,,,,,,,,,,,,,P122,001,2025-02-21_11h30.55.353,posner_endo_new1,2024.2.4,59.984619959010615,2025-02-21 11h31.04.628141 +0000,
cube_r.png,0.1,-0.31,invalid,58,58,0,down,4.21149149996927,None,space,0.9133803999866359,None,,,,,0,58,58,58,,,,,6089.005376500019,,,,,,,,,,,,,6088.990126800025,6089.005376500019,6089.005376500019,6089.005376500019,6093.218929400027,,,,6093.229886699992,6093.240234399971,6093.240234399971,6093.284500500013,6093.284846300026,6093.3010507000145,6093.3010507000145,6093.3010507000145,6093.384269799979,6094.218032400007,,,,,,,,down,4.21149149996927,None,space,0.9133803999866359,None,,,,,,,,,,,,,,,,,P122,001,2025-02-21_11h30.55.353,posner_endo_new1,2024.2.4,59.984619959010615,2025-02-21 11h31.04.628141 +0000,
cube_l.png,0.1,0.31,invalid,59,59,0,down,9.600520300038625,None,space,0.5340781999984756,None,,,,,0,59,59,59,,,,,6094.2333813000005,,,,,,,,,,,,,6094.218348400027,6094.2333813000005,6094.2333813000005,6094.2333813000005,6103.841271999991,,,,6103.852328800014,6103.862687100016,6103.862687100016,6103.906980399974,6103.907318399986,6103.923463799991,6103.923463799991,6103.923463799991,6104.006629600015,6104.474125400011,,,,,,,,down,9.600520300038625,None,space,0.5340781999984756,None,,,,,,,,,,,,,,,,,P122,001,2025-02-21_11h30.55.353,posner_endo_new1,2024.2.4,59.984619959010615,2025-02-21 11h31.04.628141 +0000,
,,,,,,,,,,,,,,,,,,,,,,,,,,,,,,,,,,,,,,,,,,,,,,,,,,,,,,,,,,,,,,,,,,,,,,,6104.474304399977,6104.489553400024,6104.489553400024,6164.494387599989,6256.018820800004,space,151.52749270002823,None,,,,,,,P122,001,2025-02-21_11h30.55.353,posner_endo_new1,2024.2.4,59.984619959010615,2025-02-21 11h31.04.628141 +0000,
,,,,,,,,,,,,,,,,,,,,,,,,,,,,,,,,,,6256.018878099974,6256.034614000004,6259.038528800011,6259.015329200018,,,,,,,,,,,,,,,,,,,,,,,,,,,,,,,,,,,,,,,,,,,,,,,,P122,001,2025-02-21_11h30.55.353,posner_endo_new1,2024.2.4,59.984619959010615,2025-02-21 11h31.04.628141 +0000,
cube_l.png,0.1,10,catch,0,0,0,up,2.6679356999811716,None,None,,,,,,,,,,,0,0,0,0,6259.038528800011,,,,,,,,,,,,,6259.029526699975,6259.038528800011,6259.038528800011,6259.038528800011,6261.713028000027,,,,6261.718905400019,6261.7305756999995,6261.7305756999995,6261.778968499973,6261.779196000018,6261.79555759998,6261.79555759998,6261.79555759998,6261.861950499995,6264.792792199994,,,,6263.876727900002,6264.809088499984,6264.809088499984,6264.809088499984,,,,,,,,,,,,,,,,,up,2.6679356999811716,None,None,,,P122,001,2025-02-21_11h30.55.353,posner_endo_new1,2024.2.4,59.984619959010615,2025-02-21 11h31.04.628141 +0000,
cube_l.png,0.1,10,catch,1,1,0,up,3.591590499971062,None,None,,,,,,,,,,,0,1,1,1,6264.809088499984,,,,,,,,,,,,,6264.792952799995,6264.809088499984,6264.809088499984,6264.809088499984,6268.406583499978,,,,6268.415789599996,6268.425983200024,6268.425983200024,6268.47212380002,6268.472432899987,6268.488659100025,6268.488659100025,6268.488659100025,6268.571955499996,6271.486312999972,,,,6270.586505100015,6271.502247600001,6271.502247600001,6271.502247600001,,,,,,,,,,,,,,,,,up,3.591590499971062,None,None,,,P122,001,2025-02-21_11h30.55.353,posner_endo_new1,2024.2.4,59.984619959010615,2025-02-21 11h31.04.628141 +0000,
cube_l.png,0.1,0.31,invalid,2,2,0,up,4.963200300000608,None,space,0.46246959996642545,None,,,,,,,,,0,2,2,2,6271.502247600001,,,,,,,,,,,,,6271.486546800006,6271.502247600001,6271.502247600001,6271.502247600001,6276.481514899991,,,,6276.490730600024,6276.5008810000145,6276.5008810000145,6276.547101299977,6276.547407399979,6276.563765699975,6276.563765699975,6276.563765699975,6276.647033800022,6277.031202599988,,,,,,,,,,,,,,,,,,,,,,,,up,4.963200300000608,None,space,0.46246959996642545,None,P122,001,2025-02-21_11h30.55.353,posner_endo_new1,2024.2.4,59.984619959010615,2025-02-21 11h31.04.628141 +0000,
cube_l.png,0.1,0.31,invalid,3,3,0,up,6.2506212999578565,None,space,0.372004900011234,None,,,,,,,,,0,3,3,3,6277.046485300001,,,,,,,,,,,,,6277.031453599979,6277.046485300001,6277.046485300001,6277.046485300001,6283.307917299971,,,,6283.317260999989,6283.327142700029,6283.327142700029,6283.373722799995,6283.374033499975,6283.38991909998,6283.38991909998,6283.38991909998,6283.47338879999,6283.774034200003,,,,,,,,,,,,,,,,,,,,,,,,up,6.2506212999578565,None,space,0.372004900011234,None,P122,001,2025-02-21_11h30.55.353,posner_endo_new1,2024.2.4,59.984619959010615,2025-02-21 11h31.04.628141 +0000,
cube_l.png,0.1,-0.31,valid,4,4,0,up,4.851736999989953,None,space,0.3414298999705352,None,,,,,,,,,0,4,4,4,6283.789709799981,,,,,,,,,,,,,6283.774286700005,6283.789709799981,6283.789709799981,6283.789709799981,6288.652453000017,,,,6288.661701600009,6288.671849599981,6288.671849599981,6288.718150799978,6288.718459299998,6288.734761699976,6288.734761699976,6288.734761699976,6288.817841399985,6289.085414899979,,,,,,,,,,,,,,,,,,,,,,,,up,4.851736999989953,None,space,0.3414298999705352,None,P122,001,2025-02-21_11h30.55.353,posner_endo_new1,2024.2.4,59.984619959010615,2025-02-21 11h31.04.628141 +0000,
cube_r.png,0.1,-0.31,invalid,5,5,0,up,6.38862500002142,None,space,0.39765279996208847,None,,,,,,,,,0,5,5,5,6289.100980499992,,,,,,,,,,,,,6289.085665900027,6289.100980499992,6289.100980499992,6289.100980499992,6295.4953452000045,,,,6295.504555799998,6295.514822199999,6295.514822199999,6295.561187200015,6295.561499600008,6295.577748699987,6295.577748699987,6295.577748699987,6295.660922100011,6295.978447399975,,,,,,,,,,,,,,,,,,,,,,,,up,6.38862500002142,None,space,0.39765279996208847,None,P122,001,2025-02-21_11h30.55.353,posner_endo_new1,2024.2.4,59.984619959010615,2025-02-21 11h31.04.628141 +0000,
cube_r.png,0.1,0.31,valid,6,6,0,up,6.279173700022511,None,space,0.3410575999878347,None,,,,,,,,,0,6,6,6,6295.993918000022,,,,,,,,,,,,,6295.978698100022,6295.993918000022,6295.993918000022,6295.993918000022,6302.288614500023,,,,6302.297820699983,6302.308039100026,6302.308039100026,6302.354177400004,6302.354483600007,6302.370730899973,6302.370730899973,6302.370730899973,6302.453959200007,6302.721524599998,,,,,,,,,,,,,,,,,,,,,,,,up,6.279173700022511,None,space,0.3410575999878347,None,P122,001,2025-02-21_11h30.55.353,posner_endo_new1,2024.2.4,59.984619959010615,2025-02-21 11h31.04.628141 +0000,
cube_r.png,0.1,-0.31,invalid,7,7,0,up,7.83965320000425,None,space,0.4931020999792963,None,,,,,,,,,0,7,7,7,6302.737122200022,,,,,,,,,,,,,6302.721780200023,6302.737122200022,6302.737122200022,6302.737122200022,6310.579848300025,,,,6310.589078999998,6310.599301600014,6310.599301600014,6310.645780600025,6310.646085400018,6310.662230900023,6310.662230900023,6310.662230900023,6310.745457299985,6311.162713699974,,,,,,,,,,,,,,,,,,,,,,,,up,7.83965320000425,None,space,0.4931020999792963,None,P122,001,2025-02-21_11h30.55.353,posner_endo_new1,2024.2.4,59.984619959010615,2025-02-21 11h31.04.628141 +0000,
cube_l.png,0.1,-0.31,valid,8,8,0,up,5.382602300029248,None,space,0.29357689997414127,None,,,,,,,,,0,8,8,8,6311.178353799973,,,,,,,,,,,,,6311.16296300001,6311.178353799973,6311.178353799973,6311.178353799973,6316.574010099983,,,,6316.583265999972,6316.593379799975,6316.593379799975,6316.63962229999,6316.639938400011,6316.656199400022,6316.656199400022,6316.656199400022,6316.739445300016,6316.956729300029,,,,,,,,,,,,,,,,,,,,,,,,up,5.382602300029248,None,space,0.29357689997414127,None,P122,001,2025-02-21_11h30.55.353,posner_endo_new1,2024.2.4,59.984619959010615,2025-02-21 11h31.04.628141 +0000,
cube_r.png,0.1,-0.31,invalid,9,9,0,up,5.812395200016908,None,space,0.4347340999520384,None,,,,,,,,,0,9,9,9,6316.972460500023,,,,,,,,,,,,,6316.956978400005,6316.972460500023,6316.972460500023,6316.972460500023,6322.800769200025,,,,6322.809975799988,6322.82021179999,6322.82021179999,6322.866897900007,6322.867551199975,6322.883210800006,6322.883210800006,6322.883210800006,6322.966472600005,6323.335280800005,,,,,,,,,,,,,,,,,,,,,,,,up,5.812395200016908,None,space,0.4347340999520384,None,P122,001,2025-02-21_11h30.55.353,posner_endo_new1,2024.2.4,59.984619959010615,2025-02-21 11h31.04.628141 +0000,
cube_l.png,0.1,0.31,invalid,10,10,0,up,3.867687800026033,None,space,0.3654662999906577,None,,,,,,,,,0,10,10,10,6323.349433799973,,,,,,,,,,,,,6323.335867999995,6323.349433799973,6323.349433799973,6323.349433799973,6327.231120500015,,,,6327.253135400009,6327.26514470001,6327.26514470001,6327.294993499992,6327.295337299991,6327.31166810001,6327.31166810001,6327.31166810001,6327.395082600007,6327.6810454999795,,,,,,,,,,,,,,,,,,,,,,,,up,3.867687800026033,None,space,0.3654662999906577,None,P122,001,2025-02-21_11h30.55.353,posner_endo_new1,2024.2.4,59.984619959010615,2025-02-21 11h31.04.628141 +0000,
cube_r.png,0.1,-0.31,invalid,11,11,0,up,6.473780500004068,None,space,0.35317489999579266,None,,,,,,,,,0,11,11,11,6327.695210199978,,,,,,,,,,,,,6327.681630100007,6327.695210199978,6327.695210199978,6327.695210199978,6334.174289499992,,,,6334.195698899974,6334.205835699977,6334.205835699977,6334.2379012000165,6334.238246100023,6334.254612400022,6334.254612400022,6334.254612400022,6334.338058100024,6334.621898600017,,,,,,,,,,,,,,,,,,,,,,,,up,6.473780500004068,None,space,0.35317489999579266,None,P122,001,2025-02-21_11h30.55.353,posner_endo_new1,2024.2.4,59.984619959010615,2025-02-21 11h31.04.628141 +0000,
cube_r.png,0.1,0.31,valid,12,12,0,up,6.500294899975415,None,space,0.29787829995620996,None,,,,,,,,,0,12,12,12,6334.637262400007,,,,,,,,,,,,,6334.622223899991,6334.637262400007,6334.637262400007,6334.637262400007,6341.1486332999775,,,,6341.160992900026,6341.171012000006,6341.171012000006,6341.214050800016,6341.214459899988,6341.230510899972,6341.230510899972,6341.230510899972,6341.313779400021,6341.531627700024,,,,,,,,,,,,,,,,,,,,,,,,up,6.500294899975415,None,space,0.29787829995620996,None,P122,001,2025-02-21_11h30.55.353,posner_endo_new1,2024.2.4,59.984619959010615,2025-02-21 11h31.04.628141 +0000,
cube_l.png,0.1,10,catch,13,13,0,up,6.790348699956667,None,space,0.3039858000120148,None,,,,,,,,,0,13,13,13,6341.546875400003,,,,,,,,,,,,,6341.5319497999735,6341.546875400003,6341.546875400003,6341.546875400003,6348.341393999988,,,,6348.353693299985,6348.364125000022,6348.364125000022,6348.4066853999975,6348.40707060002,6348.423185500025,6348.423185500025,6348.423185500025,6348.506405199994,6348.740827200003,,,,,,,,,,,,,,,,,,,,,,,,up,6.790348699956667,None,space,0.3039858000120148,None,P122,001,2025-02-21_11h30.55.353,posner_endo_new1,2024.2.4,59.984619959010615,2025-02-21 11h31.04.628141 +0000,
cube_r.png,0.1,-0.31,invalid,14,14,0,up,6.861166900023818,None,space,0.4616184000042267,None,,,,,,,,,0,14,14,14,6348.756680999999,,,,,,,,,,,,,6348.7411710000015,6348.756680999999,6348.756680999999,6348.756680999999,6355.633741899976,,,,6355.641799999983,6355.652169600013,6355.652169600013,6355.699733200017,6355.7002674000105,6355.716099800018,6355.716099800018,6355.716099800018,6355.799355100025,6356.184387099987,,,,,,,,,,,,,,,,,,,,,,,,up,6.861166900023818,None,space,0.4616184000042267,None,P122,001,2025-02-21_11h30.55.353,posner_endo_new1,2024.2.4,59.984619959010615,2025-02-21 11h31.04.628141 +0000,
cube_l.png,0.1,-0.31,valid,15,15,0,up,5.594116300053429,None,space,0.4142762999981642,None,,,,,,,,,0,15,15,15,6356.198935599998,,,,,,,,,,,,,6356.184896300023,6356.198935599998,6356.198935599998,6356.198935599998,6361.794670699979,,,,6361.805728600011,6361.816047900007,6361.816047900007,6361.860136099975,6361.860478200018,6361.876628900005,6361.876628900005,6361.876628900005,6361.959819799988,6362.293983399984,,,,,,,,,,,,,,,,,,,,,,,,up,5.594116300053429,None,space,0.4142762999981642,None,P122,001,2025-02-21_11h30.55.353,posner_endo_new1,2024.2.4,59.984619959010615,2025-02-21 11h31.04.628141 +0000,
cube_r.png,0.1,10,catch,16,16,0,up,7.003992700017989,None,None,,,,,,,,,,,0,16,16,16,6362.3094632999855,,,,,,,,,,,,,6362.294270100014,6362.3094632999855,6362.3094632999855,6362.3094632999855,6369.320064999978,,,,6369.328683200001,6369.3386487999815,6369.3386487999815,6369.3857632,6369.385991899995,6369.4021535000065,6369.4021535000065,6369.4021535000065,6369.485463700024,6372.399635399983,,,,6371.500021899992,6372.415966800007,6372.415966800007,6372.415966800007,,,,,,,,,,,,,,,,,up,7.003992700017989,None,None,,,P122,001,2025-02-21_11h30.55.353,posner_endo_new1,2024.2.4,59.984619959010615,2025-02-21 11h31.04.628141 +0000,
cube_r.png,0.1,10,catch,17,17,0,up,3.369834400014952,None,None,,,,,,,,,,,0,17,17,17,6372.415966800007,,,,,,,,,,,,,6372.399802899978,6372.415966800007,6372.415966800007,6372.415966800007,6375.796525800019,,,,6375.802266000013,6375.813342000009,6375.813342000009,6375.862307999982,6375.8628009000095,6375.878711300029,6375.878711300029,6375.878711300029,6375.962034100026,6378.876517899975,,,,6377.976838400005,6378.892604399996,6378.892604399996,6378.892604399996,,,,,,,,,,,,,,,,,up,3.369834400014952,None,None,,,P122,001,2025-02-21_11h30.55.353,posner_endo_new1,2024.2.4,59.984619959010615,2025-02-21 11h31.04.628141 +0000,
cube_l.png,0.1,0.31,invalid,18,18,0,up,3.6688102000043727,None,space,0.43790630000876263,None,,,,,,,,,0,18,18,18,6378.892604399996,,,,,,,,,,,,,6378.876787599991,6378.892604399996,6378.892604399996,6378.892604399996,6382.573372200015,,,,6382.584440800012,6382.594762700028,6382.594762700028,6382.638955499977,6382.63930119999,6382.655374000024,6382.655374000024,6382.655374000024,6382.7386235999875,6383.10612880002,,,,,,,,,,,,,,,,,,,,,,,,up,3.6688102000043727,None,space,0.43790630000876263,None,P122,001,2025-02-21_11h30.55.353,posner_endo_new1,2024.2.4,59.984619959010615,2025-02-21 11h31.04.628141 +0000,
cube_l.png,0.1,10,catch,19,19,0,up,6.567653599951882,None,None,,,,,,,,,,,0,19,19,19,6383.121503399976,,,,,,,,,,,,,6383.106415799994,6383.121503399976,6383.121503399976,6383.121503399976,6389.699511700019,,,,6389.710534200014,6389.720735599985,6389.720735599985,6389.76487720001,6389.765225499985,6389.781436600024,6389.781436600024,6389.781436600024,6389.864677899983,6392.779029300029,,,,6391.879366800014,6392.795014899981,6392.795014899981,6392.795014899981,,,,,,,,,,,,,,,,,up,6.567653599951882,None,None,,,P122,001,2025-02-21_11h30.55.353,posner_endo_new1,2024.2.4,59.984619959010615,2025-02-21 11h31.04.628141 +0000,
cube_l.png,0.1,0.31,invalid,20,20,0,up,3.774548200017307,None,space,0.3696733000106178,None,,,,,,,,,0,20,20,20,6392.795014899981,,,,,,,,,,,,,6392.7792979999795,6392.795014899981,6392.795014899981,6392.795014899981,6396.575713899976,,,,6396.586884199991,6396.597135199991,6396.597135199991,6396.641250399989,6396.641593699984,6396.657740399998,6396.657740399998,6396.657740399998,6396.740949300001,6397.0421763000195,,,,,,,,,,,,,,,,,,,,,,,,up,3.774548200017307,None,space,0.3696733000106178,None,P122,001,2025-02-21_11h30.55.353,posner_endo_new1,2024.2.4,59.984619959010615,2025-02-21 11h31.04.628141 +0000,
cube_l.png,0.1,-0.31,valid,21,21,0,up,6.81588800001191,None,space,0.48011480004061013,None,,,,,,,,,0,21,21,21,6397.057381200022,,,,,,,,,,,,,6397.0424700999865,6397.057381200022,6397.057381200022,6397.057381200022,6403.884738699999,,,,6403.895811300026,6403.90622439998,6403.90622439998,6403.950482900022,6403.9508241,6403.966956600023,6403.966956600023,6403.966956600023,6404.050064800016,6404.451109400019,,,,,,,,,,,,,,,,,,,,,,,,up,6.81588800001191,None,space,0.48011480004061013,None,P122,001,2025-02-21_11h30.55.353,posner_endo_new1,2024.2.4,59.984619959010615,2025-02-21 11h31.04.628141 +0000,
cube_r.png,0.1,0.31,valid,22,22,0,up,7.952544800005853,None,space,0.399680599977728,None,,,,,,,,,0,22,22,22,6404.466161700024,,,,,,,,,,,,,6404.4513974,6404.466161700024,6404.466161700024,6404.466161700024,6412.426055899996,,,,6412.436635099992,6412.446258999989,6412.446258999989,6412.49157730001,6412.491807600018,6412.5082635,6412.5082635,6412.5082635,6412.591358800011,6412.908702999994,,,,,,,,,,,,,,,,,,,,,,,,up,7.952544800005853,None,space,0.399680599977728,None,P122,001,2025-02-21_11h30.55.353,posner_endo_new1,2024.2.4,59.984619959010615,2025-02-21 11h31.04.628141 +0000,
cube_r.png,0.1,-0.31,invalid,23,23,0,up,5.813206800026819,None,space,0.36702500004321337,None,,,,,,,,,0,23,23,23,6412.924450799997,,,,,,,,,,,,,6412.908889700018,6412.924450799997,6412.924450799997,6412.924450799997,6418.752430799999,,,,6418.758868000004,6418.770567799977,6418.770567799977,6418.818547700008,6418.818777600012,6418.835137100017,6418.835137100017,6418.835137100017,6418.9182886999915,6419.218730100023,,,,,,,,,,,,,,,,,,,,,,,,up,5.813206800026819,None,space,0.36702500004321337,None,P122,001,2025-02-21_11h30.55.353,posner_endo_new1,2024.2.4,59.984619959010615,2025-02-21 11h31.04.628141 +0000,
cube_r.png,0.1,0.31,valid,24,24,0,up,5.878500899998471,None,space,0.3429714000085369,None,,,,,,,,,0,24,24,24,6419.234572099987,,,,,,,,,,,,,6419.218901999993,6419.234572099987,6419.234572099987,6419.234572099987,6425.12941709999,,,,6425.135204899998,6425.146953099989,6425.146953099989,6425.195362799976,6425.195587199996,6425.211988200026,6425.211988200026,6425.211988200026,6425.27844590001,6425.562100899988,,,,,,,,,,,,,,,,,,,,,,,,up,5.878500899998471,None,space,0.3429714000085369,None,P122,001,2025-02-21_11h30.55.353,posner_endo_new1,2024.2.4,59.984619959010615,2025-02-21 11h31.04.628141 +0000,
cube_r.png,0.1,-0.31,invalid,25,25,0,up,6.520654599997215,None,space,0.4256743000005372,None,,,,,,,,,0,25,25,25,6425.578109099995,,,,,,,,,,,,,6425.562274100026,6425.578109099995,6425.578109099995,6425.578109099995,6432.105440000014,,,,6432.111246399989,6432.122344099975,6432.122344099975,6432.1714172000065,6432.171915500017,6432.187885600026,6432.187885600026,6432.187885600026,6432.25448090001,6432.622295400011,,,,,,,,,,,,,,,,,,,,,,,,up,6.520654599997215,None,space,0.4256743000005372,None,P122,001,2025-02-21_11h30.55.353,posner_endo_new1,2024.2.4,59.984619959010615,2025-02-21 11h31.04.628141 +0000,
cube_l.png,0.1,-0.31,valid,26,26,0,up,7.339378499949817,None,space,0.40248370001791045,None,,,,,,,,,0,26,26,26,6432.6377030999865,,,,,,,,,,,,,6432.622595999972,6432.6377030999865,6432.6377030999865,6432.6377030999865,6439.981548600015,,,,6439.992509300006,6440.002877100022,6440.002877100022,6440.0468332999735,6440.04717949999,6440.063413500029,6440.063413500029,6440.063413500029,6440.146572099999,6440.4807049999945,,,,,,,,,,,,,,,,,,,,,,,,up,7.339378499949817,None,space,0.40248370001791045,None,P122,001,2025-02-21_11h30.55.353,posner_endo_new1,2024.2.4,59.984619959010615,2025-02-21 11h31.04.628141 +0000,
cube_r.png,0.1,0.31,valid,27,27,0,up,5.633114199968986,None,space,0.3242943999939598,None,,,,,,,,,0,27,27,27,6440.4962803000235,,,,,,,,,,,,,6440.480997300008,6440.4962803000235,6440.4962803000235,6440.4962803000235,6446.141760200029,,,,6446.152807299979,6446.163211999985,6446.163211999985,6446.20737259998,6446.207714500022,6446.2238527999725,6446.2238527999725,6446.2238527999725,6446.307007999974,6446.558004399994,,,,,,,,,,,,,,,,,,,,,,,,up,5.633114199968986,None,space,0.3242943999939598,None,P122,001,2025-02-21_11h30.55.353,posner_endo_new1,2024.2.4,59.984619959010615,2025-02-21 11h31.04.628141 +0000,
cube_r.png,0.1,10,catch,28,28,0,up,7.532329600013327,None,None,,,,,,,,,,,0,28,28,28,6446.573411900026,,,,,,,,,,,,,6446.558296700008,6446.573411900026,6446.573411900026,6446.573411900026,6454.1167669999995,,,,6454.127839999972,6454.138130499981,6454.138130499981,6454.182456900016,6454.18280140002,6454.198951600003,6454.198951600003,6454.198951600003,6454.282162200019,6457.196505300002,,,,6456.296807900013,6457.212508000026,6457.212508000026,6457.212508000026,,,,,,,,,,,,,,,,,up,7.532329600013327,None,None,,,P122,001,2025-02-21_11h30.55.353,posner_endo_new1,2024.2.4,59.984619959010615,2025-02-21 11h31.04.628141 +0000,
cube_r.png,0.1,0.31,valid,29,29,0,up,4.852405300014652,None,space,0.45419980003498495,None,,,,,,,,,0,29,29,29,6457.212508000026,,,,,,,,,,,,,6457.196782000014,6457.212508000026,6457.212508000026,6457.212508000026,6462.0753696999745,,,,6462.086503400002,6462.096859399986,6462.096859399986,6462.140974699985,6462.141333499982,6462.157416199974,6462.157416199974,6462.157416199974,6462.2407383000245,6462.624848600011,,,,,,,,,,,,,,,,,,,,,,,,up,4.852405300014652,None,space,0.45419980003498495,None,P122,001,2025-02-21_11h30.55.353,posner_endo_new1,2024.2.4,59.984619959010615,2025-02-21 11h31.04.628141 +0000,
cube_r.png,0.1,0.31,valid,30,30,0,up,7.57012869999744,None,space,0.4230396999628283,None,,,,,,,,,0,30,30,30,6462.640229300014,,,,,,,,,,,,,6462.625137299998,6462.640229300014,6462.640229300014,6462.640229300014,6470.217239700025,,,,6470.228300000017,6470.238499100029,6470.238499100029,6470.2828203000245,6470.283159399987,6470.299109200016,6470.299109200016,6470.299109200016,6470.382395600027,6470.733181799995,,,,,,,,,,,,,,,,,,,,,,,,up,7.57012869999744,None,space,0.4230396999628283,None,P122,001,2025-02-21_11h30.55.353,posner_endo_new1,2024.2.4,59.984619959010615,2025-02-21 11h31.04.628141 +0000,
cube_l.png,0.1,-0.31,valid,31,31,0,up,6.9004314999911,None,space,0.441230500000529,None,,,,,,,,,0,31,31,31,6470.74872600002,,,,,,,,,,,,,6470.733470899984,6470.74872600002,6470.74872600002,6470.74872600002,6477.659589499992,,,,6477.670661500015,6477.680951700022,6477.680951700022,6477.7251397999935,6477.725480899971,6477.741618499975,6477.741618499975,6477.741618499975,6477.824847300013,6478.1921950000105,,,,,,,,,,,,,,,,,,,,,,,,up,6.9004314999911,None,space,0.441230500000529,None,P122,001,2025-02-21_11h30.55.353,posner_endo_new1,2024.2.4,59.984619959010615,2025-02-21 11h31.04.628141 +0000,
cube_r.png,0.1,0.31,valid,32,32,0,up,8.121771499980241,None,space,0.4061935999779962,None,,,,,,,,,0,32,32,32,6478.207650700002,,,,,,,,,,,,,6478.192493800016,6478.207650700002,6478.207650700002,6478.207650700002,6486.334024099982,,,,6486.345056399994,6486.355302200012,6486.355302200012,6486.399493600009,6486.399834999989,6486.416050600004,6486.416050600004,6486.416050600004,6486.499301199976,6486.833449000027,,,,,,,,,,,,,,,,,,,,,,,,up,8.121771499980241,None,space,0.4061935999779962,None,P122,001,2025-02-21_11h30.55.353,posner_endo_new1,2024.2.4,59.984619959010615,2025-02-21 11h31.04.628141 +0000,
cube_r.png,0.1,-0.31,invalid,33,33,0,up,7.320502399990801,None,space,0.4561189000378363,None,,,,,,,,,0,33,33,33,6486.848919000011,,,,,,,,,,,,,6486.833739700029,6486.848919000011,6486.848919000011,6486.848919000011,6494.175889100006,,,,6494.186942500004,6494.197265999974,6494.197265999974,6494.241566899989,6494.241908200027,6494.257967800018,6494.257967800018,6494.257967800018,6494.341357199999,6494.725556300022,,,,,,,,,,,,,,,,,,,,,,,,up,7.320502399990801,None,space,0.4561189000378363,None,P122,001,2025-02-21_11h30.55.353,posner_endo_new1,2024.2.4,59.984619959010615,2025-02-21 11h31.04.628141 +0000,
cube_r.png,0.1,10,catch,34,34,0,up,5.180639199970756,None,None,,,,,,,,,,,0,34,34,34,6494.740868400026,,,,,,,,,,,,,6494.725840999978,6494.740868400026,6494.740868400026,6494.740868400026,6499.9368130000075,,,,6499.947013999976,6499.956771600002,6499.956771600002,6500.002334400022,6500.002568600001,6500.0188427999965,6500.0188427999965,6500.0188427999965,6500.102049199981,6503.016254600021,,,,6502.116638000007,6503.03229090001,6503.03229090001,6503.03229090001,,,,,,,,,,,,,,,,,up,5.180639199970756,None,None,,,P122,001,2025-02-21_11h30.55.353,posner_endo_new1,2024.2.4,59.984619959010615,2025-02-21 11h31.04.628141 +0000,
cube_r.png,0.1,0.31,valid,35,35,0,up,1.6091976999887265,None,space,0.5112221000017598,None,,,,,,,,,0,35,35,35,6503.03229090001,,,,,,,,,,,,,6503.016432499979,6503.03229090001,6503.03229090001,6503.03229090001,6504.648047199997,,,,6504.654704099987,6504.666446899995,6504.666446899995,6504.714123699989,6504.714385400002,6504.730497399985,6504.730497399985,6504.730497399985,6504.813834299974,6505.247568399995,,,,,,,,,,,,,,,,,,,,,,,,up,1.6091976999887265,None,space,0.5112221000017598,None,P122,001,2025-02-21_11h30.55.353,posner_endo_new1,2024.2.4,59.984619959010615,2025-02-21 11h31.04.628141 +0000,
cube_r.png,0.1,-0.31,invalid,36,36,0,up,4.610107699991204,None,space,0.4011953999870457,None,,,,,,,,,0,36,36,36,6505.263459399983,,,,,,,,,,,,,6505.247756200028,6505.263459399983,6505.263459399983,6505.263459399983,6509.876211999974,,,,6509.882871199981,6509.894656600023,6509.894656600023,6509.942030899983,6509.9425376,6509.958438300004,6509.958438300004,6509.958438300004,6510.0416692,6510.376102500013,,,,,,,,,,,,,,,,,,,,,,,,up,4.610107699991204,None,space,0.4011953999870457,None,P122,001,2025-02-21_11h30.55.353,posner_endo_new1,2024.2.4,59.984619959010615,2025-02-21 11h31.04.628141 +0000,
cube_l.png,0.1,0.31,invalid,37,37,0,up,4.05046699999366,None,space,0.42786530003650114,None,,,,,,,,,0,37,37,37,6510.391384000017,,,,,,,,,,,,,6510.376391800004,6510.391384000017,6510.391384000017,6510.391384000017,6514.455278299982,,,,6514.466310299991,6514.476627799973,6514.476627799973,6514.520772700023,6514.5211107999785,6514.537766700028,6514.537766700028,6514.537766700028,6514.6205884999945,6514.971594700008,,,,,,,,,,,,,,,,,,,,,,,,up,4.05046699999366,None,space,0.42786530003650114,None,P122,001,2025-02-21_11h30.55.353,posner_endo_new1,2024.2.4,59.984619959010615,2025-02-21 11h31.04.628141 +0000,
cube_l.png,0.1,0.31,invalid,38,38,0,up,6.862360200029798,None,space,0.41357640002388507,None,,,,,,,,,0,38,38,38,6514.98682380002,,,,,,,,,,,,,6514.971892300004,6514.98682380002,6514.98682380002,6514.98682380002,6521.864275800006,,,,6521.8753412999795,6521.885699299979,6521.885699299979,6521.929922299983,6521.930266199983,6521.946478100028,6521.946478100028,6521.946478100028,6522.029620799993,6522.364087600028,,,,,,,,,,,,,,,,,,,,,,,,up,6.862360200029798,None,space,0.41357640002388507,None,P122,001,2025-02-21_11h30.55.353,posner_endo_new1,2024.2.4,59.984619959010615,2025-02-21 11h31.04.628141 +0000,
cube_r.png,0.1,0.31,valid,39,39,0,up,6.6221600999706425,None,space,0.8643617000197992,None,,,,,,,,,0,39,39,39,6522.379260800022,,,,,,,,,,,,,6522.3643759000115,6522.379260800022,6522.379260800022,6522.379260800022,6529.0063940000255,,,,6529.013498399989,6529.025351000018,6529.025351000018,6529.072596099984,6529.073131699988,6529.088944700023,6529.088944700023,6529.088944700023,6529.155580600025,6529.956831399992,,,,,,,,,,,,,,,,,,,,,,,,up,6.6221600999706425,None,space,0.8643617000197992,None,P122,001,2025-02-21_11h30.55.353,posner_endo_new1,2024.2.4,59.984619959010615,2025-02-21 11h31.04.628141 +0000,
cube_l.png,0.1,0.31,invalid,40,40,0,up,15.198191399977077,None,space,0.4654304999858141,None,,,,,,,,,0,40,40,40,6529.9714282000205,,,,,,,,,,,,,6529.95730910002,6529.9714282000205,6529.9714282000205,6529.9714282000205,6545.174066999985,,,,6545.185113799991,6545.1954850999755,6545.1954850999755,6545.239430100017,6545.239776099974,6545.2559488000115,6545.2559488000115,6545.2559488000115,6545.339204100019,6545.723509599979,,,,,,,,,,,,,,,,,,,,,,,,up,15.198191399977077,None,space,0.4654304999858141,None,P122,001,2025-02-21_11h30.55.353,posner_endo_new1,2024.2.4,59.984619959010615,2025-02-21 11h31.04.628141 +0000,
cube_l.png,0.1,10,catch,41,41,0,up,4.110610700037796,None,None,,,,,,,,,,,0,41,41,41,6545.738700999995,,,,,,,,,,,,,6545.723808799987,6545.738700999995,6545.738700999995,6545.738700999995,6549.852339999983,,,,6549.863366400008,6549.873777400004,6549.873777400004,6549.9180098000215,6549.918368200015,6549.934476899973,6549.934476899973,6549.934476899973,6550.017739399977,6552.932040499989,,,,6552.0323540000245,6552.948008699983,6552.948008699983,6552.948008699983,,,,,,,,,,,,,,,,,up,4.110610700037796,None,None,,,P122,001,2025-02-21_11h30.55.353,posner_endo_new1,2024.2.4,59.984619959010615,2025-02-21 11h31.04.628141 +0000,
cube_l.png,0.1,-0.31,valid,42,42,0,up,1.853080199973192,None,space,0.45750000001862645,None,,,,,,,,,0,42,42,42,6552.948008699983,,,,,,,,,,,,,6552.932310700009,6552.948008699983,6552.948008699983,6552.948008699983,6554.81405809999,,,,6554.825047500024,6554.835313200019,6554.835313200019,6554.879615499987,6554.879959099984,6554.896211499989,6554.896211499989,6554.896211499989,6554.979386800027,6555.363475200022,,,,,,,,,,,,,,,,,,,,,,,,up,1.853080199973192,None,space,0.45750000001862645,None,P122,001,2025-02-21_11h30.55.353,posner_endo_new1,2024.2.4,59.984619959010615,2025-02-21 11h31.04.628141 +0000,
cube_l.png,0.1,10,catch,43,43,0,up,5.726443699968513,None,None,,,,,,,,,,,0,43,43,43,6555.379024200025,,,,,,,,,,,,,6555.363766600029,6555.379024200025,6555.379024200025,6555.379024200025,6561.107668199984,,,,6561.117464400013,6561.127165100013,6561.127165100013,6561.172832800017,6561.173078100022,6561.189531799988,6561.189531799988,6561.189531799988,6561.272971400002,6564.1868108999915,,,,6563.287269200024,6564.203092199983,6564.203092199983,6564.203092199983,,,,,,,,,,,,,,,,,up,5.726443699968513,None,None,,,P122,001,2025-02-21_11h30.55.353,posner_endo_new1,2024.2.4,59.984619959010615,2025-02-21 11h31.04.628141 +0000,
cube_l.png,0.1,0.31,invalid,44,44,0,up,3.7505510000046343,None,space,0.3477959999581799,None,,,,,,,,,0,44,44,44,6564.203092199983,,,,,,,,,,,,,6564.18699810002,6564.203092199983,6564.203092199983,6564.203092199983,6567.966627000016,,,,6567.97368950001,6567.985492600012,6567.985492600012,6568.0327436000225,6568.032992299995,6568.049203999981,6568.049203999981,6568.049203999981,6568.115777000028,6568.399663800024,,,,,,,,,,,,,,,,,,,,,,,,up,3.7505510000046343,None,space,0.3477959999581799,None,P122,001,2025-02-21_11h30.55.353,posner_endo_new1,2024.2.4,59.984619959010615,2025-02-21 11h31.04.628141 +0000,
cube_l.png,0.1,0.31,invalid,45,45,0,up,7.186198499985039,None,space,0.3792056000092998,None,,,,,,,,,0,45,45,45,6568.415435399977,,,,,,,,,,,,,6568.399861300015,6568.415435399977,6568.415435399977,6568.415435399977,6575.609086300014,,,,6575.61620400002,6575.628046699974,6575.628046699974,6575.674876199977,6575.675124200003,6575.691436599998,6575.691436599998,6575.691436599998,6575.7745575999725,6576.0753428000025,,,,,,,,,,,,,,,,,,,,,,,,up,7.186198499985039,None,space,0.3792056000092998,None,P122,001,2025-02-21_11h30.55.353,posner_endo_new1,2024.2.4,59.984619959010615,2025-02-21 11h31.04.628141 +0000,
cube_r.png,0.1,0.31,valid,46,46,0,up,8.023796900000889,None,space,0.38606250000884756,None,,,,,,,,,0,46,46,46,6576.091006200004,,,,,,,,,,,,,6576.075541900005,6576.091006200004,6576.091006200004,6576.091006200004,6584.117003899999,,,,6584.1240733999875,6584.136023700004,6584.136023700004,6584.183252600022,6584.183913999994,6584.1995570000145,6584.1995570000145,6584.1995570000145,6584.266191500006,6584.60151529999,,,,,,,,,,,,,,,,,,,,,,,,up,8.023796900000889,None,space,0.38606250000884756,None,P122,001,2025-02-21_11h30.55.353,posner_endo_new1,2024.2.4,59.984619959010615,2025-02-21 11h31.04.628141 +0000,
cube_l.png,0.1,-0.31,valid,47,47,0,up,6.290159199968912,None,space,0.4141249000094831,None,,,,,,,,,0,47,47,47,6584.615848199988,,,,,,,,,,,,,6584.602093600028,6584.615848199988,6584.615848199988,6584.615848199988,6590.911932900024,,,,6590.93374800001,6590.9447043000255,6590.9447043000255,6590.976052000013,6590.976396600017,6590.992550999974,6590.992550999974,6590.992550999974,6591.075797599973,6591.409972499998,,,,,,,,,,,,,,,,,,,,,,,,up,6.290159199968912,None,space,0.4141249000094831,None,P122,001,2025-02-21_11h30.55.353,posner_endo_new1,2024.2.4,59.984619959010615,2025-02-21 11h31.04.628141 +0000,
cube_r.png,0.1,-0.31,invalid,48,48,0,up,7.0400034000049345,None,space,0.3808217999758199,None,,,,,,,,,0,48,48,48,6591.425387300027,,,,,,,,,,,,,6591.410270199995,6591.425387300027,6591.425387300027,6591.425387300027,6598.469261199993,,,,6598.477309099981,6598.487810700026,6598.487810700026,6598.534904200002,6598.535177499987,6598.551454200002,6598.551454200002,6598.551454200002,6598.634734300023,6598.93528949999,,,,,,,,,,,,,,,,,,,,,,,,up,7.0400034000049345,None,space,0.3808217999758199,None,P122,001,2025-02-21_11h30.55.353,posner_endo_new1,2024.2.4,59.984619959010615,2025-02-21 11h31.04.628141 +0000,
cube_r.png,0.1,10,catch,49,49,0,up,6.466943699982949,None,None,,,,,,,,,,,0,49,49,49,6598.950962700008,,,,,,,,,,,,,6598.935512399999,6598.950962700008,6598.950962700008,6598.950962700008,6605.428602500004,,,,6605.436676700017,6605.447292500001,6605.447292500001,6605.494459000009,6605.494999699993,6605.5109314,6605.5109314,6605.5109314,6605.594150300021,6608.5089832000085,,,,6607.608777299989,6608.524515900004,6608.524515900004,6608.524515900004,,,,,,,,,,,,,,,,,up,6.466943699982949,None,None,,,P122,001,2025-02-21_11h30.55.353,posner_endo_new1,2024.2.4,59.984619959010615,2025-02-21 11h31.04.628141 +0000,
cube_l.png,0.1,-0.31,valid,50,50,0,up,4.556791900016833,None,space,0.8959928000112996,None,,,,,,,,,0,50,50,50,6608.524515900004,,,,,,,,,,,,,6608.509419300011,6608.524515900004,6608.524515900004,6608.524515900004,6613.087770899991,,,,6613.098940399999,6613.109284100006,6613.109284100006,6613.153339400014,6613.153683300014,6613.1699044000125,6613.1699044000125,6613.1699044000125,6613.253059800016,6614.070233699982,,,,,,,,,,,,,,,,,,,,,,,,up,4.556791900016833,None,space,0.8959928000112996,None,P122,001,2025-02-21_11h30.55.353,posner_endo_new1,2024.2.4,59.984619959010615,2025-02-21 11h31.04.628141 +0000,
cube_l.png,0.1,-0.31,valid,51,51,0,up,5.763726900040638,None,space,0.4658719000290148,None,,,,,,,,,0,51,51,51,6614.08558449999,,,,,,,,,,,,,6614.0705208000145,6614.08558449999,6614.08558449999,6614.08558449999,6619.864167699998,,,,6619.8752289999975,6619.885536600021,6619.885536600021,6619.929830299981,6619.930179500021,6619.946476800018,6619.946476800018,6619.946476800018,6620.02954030002,6620.413861999987,,,,,,,,,,,,,,,,,,,,,,,,up,5.763726900040638,None,space,0.4658719000290148,None,P122,001,2025-02-21_11h30.55.353,posner_endo_new1,2024.2.4,59.984619959010615,2025-02-21 11h31.04.628141 +0000,
cube_r.png,0.1,-0.31,invalid,52,52,0,up,5.74853930005338,None,space,0.33229549997486174,None,,,,,,,,,0,52,52,52,6620.429166199989,,,,,,,,,,,,,6620.4141517999815,6620.429166199989,6620.429166199989,6620.429166199989,6626.191205899988,,,,6626.2023040999775,6626.212699300027,6626.212699300027,6626.256596499996,6626.256960899977,6626.273245699995,6626.273245699995,6626.273245699995,6626.3563154999865,6626.607567999978,,,,,,,,,,,,,,,,,,,,,,,,up,5.74853930005338,None,space,0.33229549997486174,None,P122,001,2025-02-21_11h30.55.353,posner_endo_new1,2024.2.4,59.984619959010615,2025-02-21 11h31.04.628141 +0000,
cube_l.png,0.1,-0.31,valid,53,53,0,up,6.858900499995798,None,space,0.857421200023964,None,,,,,,,,,0,53,53,53,6626.622800800018,,,,,,,,,,,,,6626.6078610999975,6626.622800800018,6626.622800800018,6626.622800800018,6633.483662599989,,,,6633.494702700002,6633.505033100024,6633.505033100024,6633.549248200026,6633.54959509999,6633.565850300016,6633.565850300016,6633.565850300016,6633.649033399997,6634.432760600001,,,,,,,,,,,,,,,,,,,,,,,,up,6.858900499995798,None,space,0.857421200023964,None,P122,001,2025-02-21_11h30.55.353,posner_endo_new1,2024.2.4,59.984619959010615,2025-02-21 11h31.04.628141 +0000,
cube_r.png,0.1,10,catch,54,54,0,up,14.23412759997882,None,None,,,,,,,,,,,0,54,54,54,6634.448106599972,,,,,,,,,,,,,6634.433046600025,6634.448106599972,6634.448106599972,6634.448106599972,6648.684648199996,,,,6648.696921200026,6648.706928000029,6648.706928000029,6648.750156899972,6648.750419799995,6648.7668289000285,6648.7668289000285,6648.7668289000285,6648.850129899976,6651.764185799984,,,,6650.864635200007,6651.780351100024,6651.780351100024,6651.780351100024,,,,,,,,,,,,,,,,,up,14.23412759997882,None,None,,,P122,001,2025-02-21_11h30.55.353,posner_endo_new1,2024.2.4,59.984619959010615,2025-02-21 11h31.04.628141 +0000,
cube_l.png,0.1,0.31,invalid,55,55,0,up,1.0694250999949872,None,space,0.3969992999918759,None,,,,,,,,,0,55,55,55,6651.780351100024,,,,,,,,,,,,,6651.764391099976,6651.780351100024,6651.780351100024,6651.780351100024,6652.863489900017,,,,6652.871451199986,6652.8822522999835,6652.8822522999835,6652.929232899973,6652.929744700028,6652.945682500023,6652.945682500023,6652.945682500023,6653.028926900006,6653.347277500026,,,,,,,,,,,,,,,,,,,,,,,,up,1.0694250999949872,None,space,0.3969992999918759,None,P122,001,2025-02-21_11h30.55.353,posner_endo_new1,2024.2.4,59.984619959010615,2025-02-21 11h31.04.628141 +0000,
cube_l.png,0.1,-0.31,valid,56,56,0,up,8.320032400020864,None,space,0.36262149998219684,None,,,,,,,,,0,56,56,56,6653.361916100024,,,,,,,,,,,,,6653.3477174,6653.361916100024,6653.361916100024,6653.361916100024,6661.6880045,,,,6661.699069500028,6661.709318300011,6661.709318300011,6661.7537449999945,6661.754093500029,6661.770211800002,6661.770211800002,6661.770211800002,6661.853455799981,6662.137762000028,,,,,,,,,,,,,,,,,,,,,,,,up,8.320032400020864,None,space,0.36262149998219684,None,P122,001,2025-02-21_11h30.55.353,posner_endo_new1,2024.2.4,59.984619959010615,2025-02-21 11h31.04.628141 +0000,
cube_r.png,0.1,0.31,valid,57,57,0,up,6.976421799976379,None,space,0.6286618000012822,None,,,,,,,,,0,57,57,57,6662.153241800028,,,,,,,,,,,,,6662.138052500028,6662.153241800028,6662.153241800028,6662.153241800028,6669.130835400021,,,,6669.141836600029,6669.152244800003,6669.152244800003,6669.196156300022,6669.196506100008,6669.212625399989,6669.212625399989,6669.212625399989,6669.295908699976,6669.846644499979,,,,,,,,,,,,,,,,,,,,,,,,up,6.976421799976379,None,space,0.6286618000012822,None,P122,001,2025-02-21_11h30.55.353,posner_endo_new1,2024.2.4,59.984619959010615,2025-02-21 11h31.04.628141 +0000,
cube_r.png,0.1,-0.31,invalid,58,58,0,up,6.163689100008924,None,space,0.4154253000160679,None,,,,,,,,,0,58,58,58,6669.862011299992,,,,,,,,,,,,,6669.846931700013,6669.862011299992,6669.862011299992,6669.862011299992,6676.040281600028,,,,6676.048666900024,6676.058317799994,6676.058317799994,6676.105456900026,6676.105702999979,6676.12224930001,6676.12224930001,6676.12224930001,6676.205346799979,6676.539474399993,,,,,,,,,,,,,,,,,,,,,,,,up,6.163689100008924,None,space,0.4154253000160679,None,P122,001,2025-02-21_11h30.55.353,posner_endo_new1,2024.2.4,59.984619959010615,2025-02-21 11h31.04.628141 +0000,
cube_l.png,0.1,0.31,invalid,59,59,0,up,5.4721329000312835,None,space,0.3439649000065401,None,,,,,,,,,0,59,59,59,6676.554981300025,,,,,,,,,,,,,6676.539660900016,6676.554981300025,6676.554981300025,6676.554981300025,6682.033604299999,,,,6682.04029590002,6682.0520740000065,6682.0520740000065,6682.099561900017,6682.099803999998,6682.116058200016,6682.116058200016,6682.116058200016,6682.182708500011,6682.466562499991,,,,,,,,,,,,,,,,,,,,,,,,up,5.4721329000312835,None,space,0.3439649000065401,None,P122,001,2025-02-21_11h30.55.353,posner_endo_new1,2024.2.4,59.984619959010615,2025-02-21 11h31.04.628141 +0000,
