cue_img,cue_soa,target_x,trial,thisN,thisTrialN,thisRepN,key_control2.keys,key_control2.rt,key_control2.duration,key_resp.keys,key_resp.rt,key_resp.duration,practice.thisRepN,practice.thisTrialN,practice.thisN,practice.thisIndex,block1.thisRepN,block1.thisTrialN,block1.thisN,block1.thisIndex,block2.thisRepN,block2.thisTrialN,block2.thisN,block2.thisIndex,thisRow.t,notes,instructions.started,instructions_txt.started,key_control.started,instructions.stopped,key_control.keys,key_control.rt,key_control.duration,ready.started,ready_txt.started,ready_txt.stopped,ready.stopped,fix.started,fixation.started,key_control2.started,fixation_cross.started,fix.stopped,practice.key_control2.keys,practice.key_control2.rt,practice.key_control2.duration,cue.started,cube.started,fixation_cross_cue.started,cue.stopped,target.started,fixation_target.started,fixation_cross_target.started,key_resp.started,star.started,target.stopped,practice.key_resp.keys,practice.key_resp.rt,practice.key_resp.duration,star.stopped,fixation_target.stopped,fixation_cross_target.stopped,key_resp.stopped,block1.key_control2.keys,block1.key_control2.rt,block1.key_control2.duration,block1.key_resp.keys,block1.key_resp.rt,block1.key_resp.duration,cube.stopped,fixation_cross_cue.stopped,break_2.started,text.started,key_control3.started,text.stopped,break_2.stopped,key_control3.keys,key_control3.rt,key_control3.duration,block2.key_control2.keys,block2.key_control2.rt,block2.key_control2.duration,block2.key_resp.keys,block2.key_resp.rt,block2.key_resp.duration,participant,session,date,expName,psychopyVersion,frameRate,expStart,
,,,,,,,,,,,,,,,,,,,,,,,,,,,0.007583800004795194,0.02778620005119592,0.02778620005119592,4036.5278719000053,up,4036.4866816001013,None,,,,,,,,,,,,,,,,,,,,,,,,,,,,,,,,,,,,,,,,,,,,,,,,,,,,P123,001,2025-02-25_12h53.18.255,posner_endo_new1,2024.2.4,59.97148953226856,2025-02-25 12h53.25.536002 +0000,
,,,,,,,,,,,,,,,,,,,,,,,,,,,,,,,,,,4036.527966200025,4036.540259600035,4039.55644439999,4039.5188569000456,,,,,,,,,,,,,,,,,,,,,,,,,,,,,,,,,,,,,,,,,,,,,,,,P123,001,2025-02-25_12h53.18.255,posner_endo_new1,2024.2.4,59.97148953226856,2025-02-25 12h53.25.536002 +0000,
cube_l.png,0.1,-0.31,valid,0,0,0,up,5.942358399974182,None,space,0.42889059998560697,None,0,0,0,0,,,,,,,,,4039.55644439999,,,,,,,,,,,,,4039.53286799998,4039.55644439999,4039.55644439999,4039.55644439999,4045.513350000023,up,5.942358399974182,None,4045.5281806000276,4045.538440400036,4045.538440400036,4045.578853199957,4045.5791101000505,4045.598078400013,4045.598078400013,4045.598078400013,4045.678605300025,4046.029294500011,space,0.42889059998560697,None,,,,,,,,,,,,,,,,,,,,,,,,,,,P123,001,2025-02-25_12h53.18.255,posner_endo_new1,2024.2.4,59.97148953226856,2025-02-25 12h53.25.536002 +0000,
cube_l.png,0.1,0.31,invalid,1,1,0,up,5.6779066999442875,None,space,0.3893247999949381,None,0,1,1,1,,,,,,,,,4046.0448528999696,,,,,,,,,,,,,4046.029483600054,4046.0448528999696,4046.0448528999696,4046.0448528999696,4051.72357729997,up,5.6779066999442875,None,4051.730763099971,4051.7421799000585,4051.7421799000585,4051.7892178000184,4051.7894605000038,4051.8055338000413,4051.8055338000413,4051.8055338000413,4051.889130800031,4052.2061073000077,space,0.3893247999949381,None,,,,,,,,,,,,,,,,,,,,,,,,,,,P123,001,2025-02-25_12h53.18.255,posner_endo_new1,2024.2.4,59.97148953226856,2025-02-25 12h53.25.536002 +0000,
cube_r.png,0.1,-0.31,invalid,2,2,0,up,5.88439689995721,None,space,0.26824410003609955,None,0,2,2,2,,,,,,,,,4052.2220055999933,,,,,,,,,,,,,4052.20629370003,4052.2220055999933,4052.2220055999933,4052.2220055999933,4058.11752780003,up,5.88439689995721,None,4058.136001499952,4058.1470016000094,4058.1470016000094,4058.182698199991,4058.182978100027,4058.1992065999657,4058.1992065999657,4058.1992065999657,4058.282286199974,4058.483148499974,space,0.26824410003609955,None,,,,,,,,,,,,,,,,,,,,,,,,,,,P123,001,2025-02-25_12h53.18.255,posner_endo_new1,2024.2.4,59.97148953226856,2025-02-25 12h53.25.536002 +0000,
cube_r.png,0.1,10,catch,3,3,0,up,6.487563599948771,None,None,,,0,3,3,3,,,,,,,,,4058.498766500037,,,,,,,,,,,,,4058.4833730000537,4058.498766500037,4058.498766500037,4058.498766500037,4064.99382470001,up,6.487563599948771,None,4065.0104997999733,4065.0218213000335,4065.0218213000335,4065.0589595000492,4065.0593122000573,4065.0754475999856,4065.0754475999856,4065.0754475999856,4065.158777500037,4068.0731538999826,None,,,4067.1732422000496,4068.0890813999576,4068.0890813999576,4068.0890813999576,,,,,,,,,,,,,,,,,,,,,,,P123,001,2025-02-25_12h53.18.255,posner_endo_new1,2024.2.4,59.97148953226856,2025-02-25 12h53.25.536002 +0000,
cube_l.png,0.1,-0.31,valid,4,4,0,up,3.905034299939871,None,space,0.45017880003433675,None,0,4,4,4,,,,,,,,,4068.0890813999576,,,,,,,,,,,,,4068.073410299956,4068.0890813999576,4068.0890813999576,4068.0890813999576,4072.0028554999735,up,3.905034299939871,None,4072.011236899998,4072.0212185999844,4072.0212185999844,4072.068423400051,4072.0686696999473,4072.0848884000443,4072.0848884000443,4072.0848884000443,4072.1682838000124,4072.5519825000083,space,0.45017880003433675,None,,,,,,,,,,,,,,,,,,,,,,,,,,,P123,001,2025-02-25_12h53.18.255,posner_endo_new1,2024.2.4,59.97148953226856,2025-02-25 12h53.25.536002 +0000,
cube_l.png,0.1,0.31,invalid,5,5,0,up,6.274492399999872,None,space,0.38938960002269596,None,0,5,5,5,,,,,,,,,4072.5679325000383,,,,,,,,,,,,,4072.5521668000147,4072.5679325000383,4072.5679325000383,4072.5679325000383,4078.845376500045,up,6.274492399999872,None,4078.8519883999834,4078.8639099999564,4078.8639099999564,4078.91150269995,4078.9117340999655,4078.928136499948,4078.928136499948,4078.928136499948,4078.994836000027,4079.3284456999972,space,0.38938960002269596,None,,,,,,,,,,,,,,,,,,,,,,,,,,,P123,001,2025-02-25_12h53.18.255,posner_endo_new1,2024.2.4,59.97148953226856,2025-02-25 12h53.25.536002 +0000,
cube_r.png,0.1,-0.31,invalid,6,6,0,up,6.2982851000269875,None,space,0.3325854999711737,None,0,6,6,6,,,,,,,,,4079.3444480999606,,,,,,,,,,,,,4079.328622799949,4079.3444480999606,4079.3444480999606,4079.3444480999606,4085.655148799997,up,6.2982851000269875,None,4085.661796599976,4085.673715000041,4085.673715000041,4085.721227700007,4085.7214619000442,4085.73764019995,4085.73764019995,4085.73764019995,4085.8041389000136,4086.0717506000074,space,0.3325854999711737,None,,,,,,,,,,,,,,,,,,,,,,,,,,,P123,001,2025-02-25_12h53.18.255,posner_endo_new1,2024.2.4,59.97148953226856,2025-02-25 12h53.25.536002 +0000,
cube_r.png,0.1,0.31,valid,7,7,0,up,6.29270530003123,None,space,0.35889839997980744,None,0,7,7,7,,,,,,,,,4086.087280799984,,,,,,,,,,,,,4086.0719324999955,4086.087280799984,4086.087280799984,4086.087280799984,4092.3818327999907,up,6.29270530003123,None,4092.3884860000107,4092.4002773000393,4092.4002773000393,4092.447508699959,4092.447745900019,4092.464058500016,4092.464058500016,4092.464058500016,4092.5475299999816,4092.831202100031,space,0.35889839997980744,None,,,,,,,,,,,,,,,,,,,,,,,,,,,P123,001,2025-02-25_12h53.18.255,posner_endo_new1,2024.2.4,59.97148953226856,2025-02-25 12h53.25.536002 +0000,
cube_l.png,0.1,-0.31,valid,8,8,0,up,6.6753458000021055,None,space,0.343989200075157,None,0,8,8,8,,,,,,,,,4092.8470583000453,,,,,,,,,,,,,4092.8313763999613,4092.8470583000453,4092.8470583000453,4092.8470583000453,4099.524565999978,up,6.6753458000021055,None,4099.531200899975,4099.5431087999605,4099.5431087999605,4099.590441299952,4099.590664200019,4099.606823600014,4099.606823600014,4099.606823600014,4099.690128999995,4099.957336700056,space,0.343989200075157,None,,,,,,,,,,,,,,,,,,,,,,,,,,,P123,001,2025-02-25_12h53.18.255,posner_endo_new1,2024.2.4,59.97148953226856,2025-02-25 12h53.25.536002 +0000,
cube_r.png,0.1,-0.31,invalid,9,9,0,up,6.0385311000281945,None,space,0.4298387001035735,None,0,9,9,9,,,,,,,,,4099.973118399968,,,,,,,,,,,,,4099.957499400014,4099.973118399968,4099.973118399968,4099.973118399968,4106.017927599954,up,6.0385311000281945,None,4106.02367080003,4106.034726200043,4106.034726200043,4106.083653499954,4106.08415140002,4106.100072599947,4106.100072599947,4106.100072599947,4106.183342200005,4106.53492450004,space,0.4298387001035735,None,,,,,,,,,,,,,,,,,,,,,,,,,,,P123,001,2025-02-25_12h53.18.255,posner_endo_new1,2024.2.4,59.97148953226856,2025-02-25 12h53.25.536002 +0000,
cube_r.png,0.1,0.31,valid,10,10,0,up,6.14856359991245,None,space,0.39597209997009486,None,0,10,10,10,,,,,,,,,4106.54960769997,,,,,,,,,,,,,4106.535341199953,4106.54960769997,4106.54960769997,4106.54960769997,4112.711214200011,up,6.14856359991245,None,4112.720282900031,4112.729988700012,4112.729988700012,4112.776720699971,4112.776955300011,4112.793499200023,4112.793499200023,4112.793499200023,4112.876552200061,4113.193914899952,space,0.39597209997009486,None,,,,,,,,,,,,,,,,,,,,,,,,,,,P123,001,2025-02-25_12h53.18.255,posner_endo_new1,2024.2.4,59.97148953226856,2025-02-25 12h53.25.536002 +0000,
,,,,,,,,,,,,,,,,,,,,,,,,,,,,,,,,,,4113.194031000021,4113.209610100021,4116.239417399978,4116.190660699969,,,,,,,,,,,,,,,,,,,,,,,,,,,,,,,,,,,,,,,,,,,,,,,,P123,001,2025-02-25_12h53.18.255,posner_endo_new1,2024.2.4,59.97148953226856,2025-02-25 12h53.25.536002 +0000,
cube_l.png,0.1,10,catch,0,0,0,up,10.84340309991967,None,None,,,,,,,0,0,0,0,,,,,4116.239417399978,,,,,,,,,,,,,4116.230213699979,4116.239417399978,4116.239417399978,4116.239417399978,4127.096623899997,,,,4127.107721599983,4127.117994199973,4127.117994199973,4127.162209799979,4127.162555900053,4127.178597099963,4127.178597099963,4127.178597099963,4127.26189199998,4130.176304199966,,,,4129.27658559999,4130.192303700023,4130.192303700023,4130.192303700023,up,10.84340309991967,None,None,,,,,,,,,,,,,,,,,,,P123,001,2025-02-25_12h53.18.255,posner_endo_new1,2024.2.4,59.97148953226856,2025-02-25 12h53.25.536002 +0000,
cube_l.png,0.1,10,catch,1,1,0,up,3.626466599991545,None,None,,,,,,,0,1,1,1,,,,,4130.192303700023,,,,,,,,,,,,,4130.176476399996,4130.192303700023,4130.192303700023,4130.192303700023,4133.822650499991,,,,4133.829280899954,4133.841104699997,4133.841104699997,4133.888820799999,4133.889057700057,4133.905062400037,4133.905062400037,4133.905062400037,4133.97183439997,4136.902569800033,,,,4135.986277800053,4136.918695,4136.918695,4136.918695,up,3.626466599991545,None,None,,,,,,,,,,,,,,,,,,,P123,001,2025-02-25_12h53.18.255,posner_endo_new1,2024.2.4,59.97148953226856,2025-02-25 12h53.25.536002 +0000,
cube_l.png,0.1,0.31,invalid,2,2,0,up,4.915701200021431,None,space,0.43735519994515926,None,,,,,0,2,2,2,,,,,4136.918695,,,,,,,,,,,,,4136.902741100057,4136.918695,4136.918695,4136.918695,4141.847934099962,,,,4141.854652700014,4141.866512399982,4141.866512399982,4141.913725399994,4141.914219200029,4141.930114799994,4141.930114799994,4141.930114799994,4142.013394900016,4142.381425800035,,,,,,,,up,4.915701200021431,None,space,0.43735519994515926,None,,,,,,,,,,,,,,,,,P123,001,2025-02-25_12h53.18.255,posner_endo_new1,2024.2.4,59.97148953226856,2025-02-25 12h53.25.536002 +0000,
cube_l.png,0.1,0.31,invalid,3,3,0,up,6.7819036999717355,None,space,0.37059249996673316,None,,,,,0,3,3,3,,,,,4142.396279399982,,,,,,,,,,,,,4142.381859999965,4142.396279399982,4142.396279399982,4142.396279399982,4149.190122600063,,,,4149.196629300015,4149.208464800031,4149.208464800031,4149.25605560001,4149.2562837000005,4149.272382900002,4149.272382900002,4149.272382900002,4149.339244200033,4149.656439600047,,,,,,,,up,6.7819036999717355,None,space,0.37059249996673316,None,,,,,,,,,,,,,,,,,P123,001,2025-02-25_12h53.18.255,posner_endo_new1,2024.2.4,59.97148953226856,2025-02-25 12h53.25.536002 +0000,
cube_l.png,0.1,-0.31,valid,4,4,0,up,6.610889800009318,None,space,0.40055060002487153,None,,,,,0,4,4,4,,,,,4149.672006799956,,,,,,,,,,,,,4149.656602300005,4149.672006799956,4149.672006799956,4149.672006799956,4156.299712799955,,,,4156.305392400012,4156.316195299965,4156.316195299965,4156.349799299962,4156.350288699963,4156.365393899963,4156.365393899963,4156.365393899963,4156.465291399974,4156.783189899987,,,,,,,,up,6.610889800009318,None,space,0.40055060002487153,None,4156.365393899963,4156.365393899963,,,,,,,,,,,,,,,P123,001,2025-02-25_12h53.18.255,posner_endo_new1,2024.2.4,59.97148953226856,2025-02-25 12h53.25.536002 +0000,
cube_r.png,0.1,-0.31,invalid,5,5,0,up,6.676620399928652,None,space,0.3003755999961868,None,,,,,0,5,5,5,,,,,4156.798232699977,,,,,,,,,,,,,4156.7836227000225,4156.798232699977,4156.798232699977,4156.798232699977,4163.47776899999,,,,4163.499715700047,4163.512102799956,4163.512102799956,4163.541735899984,4163.542036700062,4163.558256800054,4163.558256800054,4163.558256800054,4163.6414142999565,4163.875612300006,,,,,,,,up,6.676620399928652,None,space,0.3003755999961868,None,,,,,,,,,,,,,,,,,P123,001,2025-02-25_12h53.18.255,posner_endo_new1,2024.2.4,59.97148953226856,2025-02-25 12h53.25.536002 +0000,
cube_r.png,0.1,0.31,valid,6,6,0,up,7.399864400038496,None,space,0.2784263000357896,None,,,,,0,6,6,6,,,,,4163.891174499993,,,,,,,,,,,,,4163.875871700002,4163.891174499993,4163.891174499993,4163.891174499993,4171.302888200036,,,,4171.324732000008,4171.336946399999,4171.336946399999,4171.36662710004,4171.367003399995,4171.383293100051,4171.383293100051,4171.383293100051,4171.466776099987,4171.667806399986,,,,,,,,up,7.399864400038496,None,space,0.2784263000357896,None,,,,,,,,,,,,,,,,,P123,001,2025-02-25_12h53.18.255,posner_endo_new1,2024.2.4,59.97148953226856,2025-02-25 12h53.25.536002 +0000,
cube_r.png,0.1,-0.31,invalid,7,7,0,up,6.9278661999851465,None,space,0.3693405999802053,None,,,,,0,7,7,7,,,,,4171.683304199949,,,,,,,,,,,,,4171.668094199966,4171.683304199949,4171.683304199949,4171.683304199949,4178.626871700049,,,,4178.6330726000015,4178.644787800033,4178.644787800033,4178.69277189998,4178.693264900008,4178.709256100003,4178.709256100003,4178.709256100003,4178.792453299975,4179.094038399984,,,,,,,,up,6.9278661999851465,None,space,0.3693405999802053,None,,,,,,,,,,,,,,,,,P123,001,2025-02-25_12h53.18.255,posner_endo_new1,2024.2.4,59.97148953226856,2025-02-25 12h53.25.536002 +0000,
cube_l.png,0.1,-0.31,valid,8,8,0,up,6.62988379993476,None,space,0.31484000000637025,None,,,,,0,8,8,8,,,,,4179.108779800008,,,,,,,,,,,,,4179.094468700001,4179.108779800008,4179.108779800008,4179.108779800008,4185.753328199964,,,,4185.764455100056,4185.774776999955,4185.774776999955,4185.818965899991,4185.8193068000255,4185.835505899973,4185.835505899973,4185.835505899973,4185.918682900025,4186.153056300012,,,,,,,,up,6.62988379993476,None,space,0.31484000000637025,None,,,,,,,,,,,,,,,,,P123,001,2025-02-25_12h53.18.255,posner_endo_new1,2024.2.4,59.97148953226856,2025-02-25 12h53.25.536002 +0000,
cube_r.png,0.1,-0.31,invalid,9,9,0,up,7.089905700064264,None,space,0.27505569998174906,None,,,,,0,9,9,9,,,,,4186.1684405000415,,,,,,,,,,,,,4186.153360600001,4186.1684405000415,4186.1684405000415,4186.1684405000415,4193.262270499952,,,,4193.273491600063,4193.283882800024,4193.283882800024,4193.327878699987,4193.328223200049,4193.3444161999505,4193.3444161999505,4193.3444161999505,4193.427677100059,4193.6287467000075,,,,,,,,up,7.089905700064264,None,space,0.27505569998174906,None,,,,,,,,,,,,,,,,,P123,001,2025-02-25_12h53.18.255,posner_endo_new1,2024.2.4,59.97148953226856,2025-02-25 12h53.25.536002 +0000,
cube_l.png,0.1,0.31,invalid,10,10,0,up,8.782804900081828,None,space,0.3502363000297919,None,,,,,0,10,10,10,,,,,4193.644040300045,,,,,,,,,,,,,4193.629038000014,4193.644040300045,4193.644040300045,4193.644040300045,4202.436282900046,,,,4202.447444000049,4202.457833199995,4202.457833199995,4202.501851400011,4202.502195399953,4202.518431799952,4202.518431799952,4202.518431799952,4202.601625900017,4202.885769900051,,,,,,,,up,8.782804900081828,None,space,0.3502363000297919,None,,,,,,,,,,,,,,,,,P123,001,2025-02-25_12h53.18.255,posner_endo_new1,2024.2.4,59.97148953226856,2025-02-25 12h53.25.536002 +0000,
cube_r.png,0.1,-0.31,invalid,11,11,0,up,7.3169859000481665,None,space,0.38774669996928424,None,,,,,0,11,11,11,,,,,4202.9014539000345,,,,,,,,,,,,,4202.8860598000465,4202.9014539000345,4202.9014539000345,4202.9014539000345,4210.228574199951,,,,4210.239650500007,4210.250112000038,4210.250112000038,4210.293921399978,4210.294265400036,4210.310519200051,4210.310519200051,4210.310519200051,4210.393649999984,4210.711255399976,,,,,,,,up,7.3169859000481665,None,space,0.38774669996928424,None,,,,,,,,,,,,,,,,,P123,001,2025-02-25_12h53.18.255,posner_endo_new1,2024.2.4,59.97148953226856,2025-02-25 12h53.25.536002 +0000,
cube_r.png,0.1,0.31,valid,12,12,0,up,14.356304100016132,None,space,0.36906260007526726,None,,,,,0,12,12,12,,,,,4210.7265984000405,,,,,,,,,,,,,4210.711552600027,4210.7265984000405,4210.7265984000405,4210.7265984000405,4225.096461700043,,,,4225.107585099991,4225.117972900043,4225.117972900043,4225.162156900042,4225.162493200041,4225.178605200024,4225.178605200024,4225.178605200024,4225.26190250006,4225.5628832000075,,,,,,,,up,14.356304100016132,None,space,0.36906260007526726,None,,,,,,,,,,,,,,,,,P123,001,2025-02-25_12h53.18.255,posner_endo_new1,2024.2.4,59.97148953226856,2025-02-25 12h53.25.536002 +0000,
cube_l.png,0.1,10,catch,13,13,0,up,8.016136599937454,None,None,,,,,,,0,13,13,13,,,,,4225.578198499978,,,,,,,,,,,,,4225.563169599976,4225.578198499978,4225.578198499978,4225.578198499978,4233.604571999982,,,,4233.6157294999575,4233.626063100062,4233.626063100062,4233.670123800053,4233.670469900011,4233.686522400007,4233.686522400007,4233.686522400007,4233.769833000028,4236.68383949995,,,,4235.784473599982,4236.700183799956,4236.700183799956,4236.700183799956,up,8.016136599937454,None,None,,,,,,,,,,,,,,,,,,,P123,001,2025-02-25_12h53.18.255,posner_endo_new1,2024.2.4,59.97148953226856,2025-02-25 12h53.25.536002 +0000,
cube_r.png,0.1,-0.31,invalid,14,14,0,up,4.286311899893917,None,space,0.3795165999326855,None,,,,,0,14,14,14,,,,,4236.700183799956,,,,,,,,,,,,,4236.684025799972,4236.700183799956,4236.700183799956,4236.700183799956,4240.996873000055,,,,4241.008218000061,4241.018489400041,4241.018489400041,4241.062480199966,4241.062822200009,4241.078991599963,4241.078991599963,4241.078991599963,4241.162278800039,4241.463263500016,,,,,,,,up,4.286311899893917,None,space,0.3795165999326855,None,,,,,,,,,,,,,,,,,P123,001,2025-02-25_12h53.18.255,posner_endo_new1,2024.2.4,59.97148953226856,2025-02-25 12h53.25.536002 +0000,
cube_l.png,0.1,-0.31,valid,15,15,0,up,7.24386550008785,None,space,0.40105969994328916,None,,,,,0,15,15,15,,,,,4241.478569500032,,,,,,,,,,,,,4241.46356189996,4241.478569500032,4241.478569500032,4241.478569500032,4248.739036099985,,,,4248.7502434999915,4248.760277600028,4248.760277600028,4248.804599000025,4248.804937200039,4248.8210868999595,4248.8210868999595,4248.8210868999595,4248.904424299952,4249.2385903999675,,,,,,,,up,7.24386550008785,None,space,0.40105969994328916,None,,,,,,,,,,,,,,,,,P123,001,2025-02-25_12h53.18.255,posner_endo_new1,2024.2.4,59.97148953226856,2025-02-25 12h53.25.536002 +0000,
cube_r.png,0.1,10,catch,16,16,0,up,7.541005400009453,None,None,,,,,,,0,16,16,16,,,,,4249.25391259999,,,,,,,,,,,,,4249.238879099954,4249.25391259999,4249.25391259999,4249.25391259999,4256.797514699982,,,,4256.808654800057,4256.819035900058,4256.819035900058,4256.862945699948,4256.863286999986,4256.879552599974,4256.879552599974,4256.879552599974,4256.962749100057,4259.877190400031,,,,4258.977382099954,4259.893268799991,4259.893268799991,4259.893268799991,up,7.541005400009453,None,None,,,,,,,,,,,,,,,,,,,P123,001,2025-02-25_12h53.18.255,posner_endo_new1,2024.2.4,59.97148953226856,2025-02-25 12h53.25.536002 +0000,
cube_r.png,0.1,10,catch,17,17,0,up,5.317209200002253,None,None,,,,,,,0,17,17,17,,,,,4259.893268799991,,,,,,,,,,,,,4259.877473799977,4259.893268799991,4259.893268799991,4259.893268799991,4265.222189599997,,,,4265.233264400042,4265.243675600039,4265.243675600039,4265.287781000021,4265.288124199957,4265.304309500032,4265.304309500032,4265.304309500032,4265.3875799999805,4268.301938300021,,,,4267.402081100037,4268.317786699976,4268.317786699976,4268.317786699976,up,5.317209200002253,None,None,,,,,,,,,,,,,,,,,,,P123,001,2025-02-25_12h53.18.255,posner_endo_new1,2024.2.4,59.97148953226856,2025-02-25 12h53.25.536002 +0000,
cube_l.png,0.1,0.31,invalid,18,18,0,up,5.068933800095692,None,space,0.46327220008242875,None,,,,,0,18,18,18,,,,,4268.317786699976,,,,,,,,,,,,,4268.302218800061,4268.317786699976,4268.317786699976,4268.317786699976,4273.397167499992,,,,4273.408261899953,4273.41855870001,4273.41855870001,4273.462656500051,4273.462996299961,4273.4792533,4273.4792533,4273.4792533,4273.562496799976,4273.946570600034,,,,,,,,up,5.068933800095692,None,space,0.46327220008242875,None,,,,,,,,,,,,,,,,,P123,001,2025-02-25_12h53.18.255,posner_endo_new1,2024.2.4,59.97148953226856,2025-02-25 12h53.25.536002 +0000,
cube_l.png,0.1,10,catch,19,19,0,up,7.928344300016761,None,None,,,,,,,0,19,19,19,,,,,4273.962151100044,,,,,,,,,,,,,4273.946859100019,4273.962151100044,4273.962151100044,4273.962151100044,4281.905119000003,,,,4281.916384399985,4281.926704099984,4281.926704099984,4281.970696000033,4281.971036899951,4281.987236300018,4281.987236300018,4281.987236300018,4282.070537999971,4284.9848020999925,,,,4284.085041200044,4285.000859200023,4285.000859200023,4285.000859200023,up,7.928344300016761,None,None,,,,,,,,,,,,,,,,,,,P123,001,2025-02-25_12h53.18.255,posner_endo_new1,2024.2.4,59.97148953226856,2025-02-25 12h53.25.536002 +0000,
cube_l.png,0.1,0.31,invalid,20,20,0,up,4.385994800017215,None,space,0.5529697999591008,None,,,,,0,20,20,20,,,,,4285.000859200023,,,,,,,,,,,,,4284.985076699988,4285.000859200023,4285.000859200023,4285.000859200023,4289.397506700014,,,,4289.408715600031,4289.418983499985,4289.418983499985,4289.463052200037,4289.463396099978,4289.479641300044,4289.479641300044,4289.479641300044,4289.562848499976,4290.046945999959,,,,,,,,up,4.385994800017215,None,space,0.5529697999591008,None,,,,,,,,,,,,,,,,,P123,001,2025-02-25_12h53.18.255,posner_endo_new1,2024.2.4,59.97148953226856,2025-02-25 12h53.25.536002 +0000,
cube_l.png,0.1,-0.31,valid,21,21,0,up,7.324987200088799,None,space,0.35348859999794513,None,,,,,0,21,21,21,,,,,4290.0623191000195,,,,,,,,,,,,,4290.047237199964,4290.0623191000195,4290.0623191000195,4290.0623191000195,4297.389466100023,,,,4297.39976020006,4297.409423199948,4297.409423199948,4297.454948200029,4297.455189700006,4297.471269699978,4297.471269699978,4297.471269699978,4297.554643400013,4297.838588200044,,,,,,,,up,7.324987200088799,None,space,0.35348859999794513,None,,,,,,,,,,,,,,,,,P123,001,2025-02-25_12h53.18.255,posner_endo_new1,2024.2.4,59.97148953226856,2025-02-25 12h53.25.536002 +0000,
cube_r.png,0.1,0.31,valid,22,22,0,up,8.6525483999867,None,space,0.34903769998345524,None,,,,,0,22,22,22,,,,,4297.854354099953,,,,,,,,,,,,,4297.838778399979,4297.854354099953,4297.854354099953,4297.854354099953,4306.512919200002,,,,4306.519645799999,4306.5314691000385,4306.5314691000385,4306.578906900017,4306.57915200002,4306.595442399965,4306.595442399965,4306.595442399965,4306.662068699952,4306.946121199988,,,,,,,,up,8.6525483999867,None,space,0.34903769998345524,None,,,,,,,,,,,,,,,,,P123,001,2025-02-25_12h53.18.255,posner_endo_new1,2024.2.4,59.97148953226856,2025-02-25 12h53.25.536002 +0000,
cube_r.png,0.1,-0.31,invalid,23,23,0,up,7.408873799955472,None,space,0.4388058999320492,None,,,,,0,23,23,23,,,,,4306.961731399992,,,,,,,,,,,,,4306.946310600033,4306.961731399992,4306.961731399992,4306.961731399992,4314.371718900045,,,,4314.378422899987,4314.390152200009,4314.390152200009,4314.437309699948,4314.437545199995,4314.4540846999735,4314.4540846999735,4314.4540846999735,4314.537196799996,4314.904277199996,,,,,,,,up,7.408873799955472,None,space,0.4388058999320492,None,,,,,,,,,,,,,,,,,P123,001,2025-02-25_12h53.18.255,posner_endo_new1,2024.2.4,59.97148953226856,2025-02-25 12h53.25.536002 +0000,
cube_r.png,0.1,0.31,valid,24,24,0,up,5.970239500049502,None,space,0.36106739996466786,None,,,,,0,24,24,24,,,,,4314.9202018999495,,,,,,,,,,,,,4314.904467500048,4314.9202018999495,4314.9202018999495,4314.9202018999495,4320.898397800047,,,,4320.905115399975,4320.916936499998,4320.916936499998,4320.96412889997,4320.964626100031,4320.980549399974,4320.980549399974,4320.980549399974,4321.063752199989,4321.34873940004,,,,,,,,up,5.970239500049502,None,space,0.36106739996466786,None,,,,,,,,,,,,,,,,,P123,001,2025-02-25_12h53.18.255,posner_endo_new1,2024.2.4,59.97148953226856,2025-02-25 12h53.25.536002 +0000,
cube_r.png,0.1,-0.31,invalid,25,25,0,up,8.94401179999113,None,space,0.36388960003387183,None,,,,,0,25,25,25,,,,,4321.363490200019,,,,,,,,,,,,,4321.349171399954,4321.363490200019,4321.363490200019,4321.363490200019,4330.322440700023,,,,4330.333541200031,4330.34375,4330.34375,4330.387923400034,4330.388262100052,4330.40440400003,4330.40440400003,4330.40440400003,4330.487609100062,4330.772026099963,,,,,,,,up,8.94401179999113,None,space,0.36388960003387183,None,,,,,,,,,,,,,,,,,P123,001,2025-02-25_12h53.18.255,posner_endo_new1,2024.2.4,59.97148953226856,2025-02-25 12h53.25.536002 +0000,
cube_l.png,0.1,-0.31,valid,26,26,0,up,8.65529950009659,None,space,0.37115759996231645,None,,,,,0,26,26,26,,,,,4330.787399800029,,,,,,,,,,,,,4330.772324200021,4330.787399800029,4330.787399800029,4330.787399800029,4339.446388600045,,,,4339.457499400014,4339.467908699997,4339.467908699997,4339.511816699989,4339.512155600009,4339.52836440003,4339.52836440003,4339.52836440003,4339.611705700052,4339.912562199985,,,,,,,,up,8.65529950009659,None,space,0.37115759996231645,None,,,,,,,,,,,,,,,,,P123,001,2025-02-25_12h53.18.255,posner_endo_new1,2024.2.4,59.97148953226856,2025-02-25 12h53.25.536002 +0000,
cube_r.png,0.1,0.31,valid,27,27,0,up,7.339549500029534,None,space,0.35548709996510297,None,,,,,0,27,27,27,,,,,4339.927952100057,,,,,,,,,,,,,4339.912849699962,4339.927952100057,4339.927952100057,4339.927952100057,4347.271856799955,,,,4347.282982200035,4347.2933528999565,4347.2933528999565,4347.337237300002,4347.337581600063,4347.353725200053,4347.353725200053,4347.353725200053,4347.437019699952,4347.72128920001,,,,,,,,up,7.339549500029534,None,space,0.35548709996510297,None,,,,,,,,,,,,,,,,,P123,001,2025-02-25_12h53.18.255,posner_endo_new1,2024.2.4,59.97148953226856,2025-02-25 12h53.25.536002 +0000,
cube_r.png,0.1,10,catch,28,28,0,up,6.78656289994251,None,None,,,,,,,0,28,28,28,,,,,4347.736606399994,,,,,,,,,,,,,4347.721576799988,4347.736606399994,4347.736606399994,4347.736606399994,4354.53038729995,,,,4354.537098300061,4354.549078200012,4354.549078200012,4354.596392799984,4354.596735000028,4354.6130113999825,4354.6130113999825,4354.6130113999825,4354.679642400006,4357.610641799984,,,,4356.694198700017,4357.626610400039,4357.626610400039,4357.626610400039,up,6.78656289994251,None,None,,,,,,,,,,,,,,,,,,,P123,001,2025-02-25_12h53.18.255,posner_endo_new1,2024.2.4,59.97148953226856,2025-02-25 12h53.25.536002 +0000,
cube_r.png,0.1,0.31,valid,29,29,0,up,5.160499899997376,None,space,0.4335990999825299,None,,,,,0,29,29,29,,,,,4357.626610400039,,,,,,,,,,,,,4357.610910300049,4357.626610400039,4357.626610400039,4357.626610400039,4362.7894665000495,,,,4362.79970209999,4362.809387100046,4362.809387100046,4362.854699700023,4362.854934499948,4362.870998100028,4362.870998100028,4362.870998100028,4362.954527299968,4363.305363300024,,,,,,,,up,5.160499899997376,None,space,0.4335990999825299,None,,,,,,,,,,,,,,,,,P123,001,2025-02-25_12h53.18.255,posner_endo_new1,2024.2.4,59.97148953226856,2025-02-25 12h53.25.536002 +0000,
cube_r.png,0.1,0.31,valid,30,30,0,up,8.145980500034057,None,space,0.3611507999012247,None,,,,,0,30,30,30,,,,,4363.320751099964,,,,,,,,,,,,,4363.305548700038,4363.320751099964,4363.320751099964,4363.320751099964,4371.4799566,,,,4371.486645000055,4371.49834359996,4371.49834359996,4371.545457400032,4371.545680499985,4371.56242490001,4371.56242490001,4371.56242490001,4371.645651499974,4371.929380099988,,,,,,,,up,8.145980500034057,None,space,0.3611507999012247,None,,,,,,,,,,,,,,,,,P123,001,2025-02-25_12h53.18.255,posner_endo_new1,2024.2.4,59.97148953226856,2025-02-25 12h53.25.536002 +0000,
cube_l.png,0.1,-0.31,valid,31,31,0,up,7.962275999947451,None,space,0.30602530005853623,None,,,,,0,31,31,31,,,,,4371.9452479999745,,,,,,,,,,,,,4371.929550300003,4371.9452479999745,4371.9452479999745,4371.9452479999745,4379.921195100062,,,,4379.926990699954,4379.938682400039,4379.938682400039,4379.987074899953,4379.98729640001,4380.003777100006,4380.003777100006,4380.003777100006,4380.070217899978,4380.320635400014,,,,,,,,up,7.962275999947451,None,space,0.30602530005853623,None,,,,,,,,,,,,,,,,,P123,001,2025-02-25_12h53.18.255,posner_endo_new1,2024.2.4,59.97148953226856,2025-02-25 12h53.25.536002 +0000,
cube_r.png,0.1,0.31,valid,32,32,0,up,6.306758999940939,None,space,0.3087119000265375,None,,,,,0,32,32,32,,,,,4380.336624999996,,,,,,,,,,,,,4380.3208064000355,4380.336624999996,4380.336624999996,4380.336624999996,4386.647801800049,,,,4386.6535592,4386.665296399966,4386.665296399966,4386.71358109999,4386.714083899977,4386.7300510000205,4386.7300510000205,4386.7300510000205,4386.81328370003,4387.047786299954,,,,,,,,up,6.306758999940939,None,space,0.3087119000265375,None,,,,,,,,,,,,,,,,,P123,001,2025-02-25_12h53.18.255,posner_endo_new1,2024.2.4,59.97148953226856,2025-02-25 12h53.25.536002 +0000,
cube_r.png,0.1,-0.31,invalid,33,33,0,up,7.691662300028838,None,space,0.30404179997276515,None,,,,,0,33,33,33,,,,,4387.063262099982,,,,,,,,,,,,,4387.048074200051,4387.063262099982,4387.063262099982,4387.063262099982,4394.7567378999665,,,,4394.767864500056,4394.778121900046,4394.778121900046,4394.822107400047,4394.822460100055,4394.838652599952,4394.838652599952,4394.838652599952,4394.92170549999,4395.156166300061,,,,,,,,up,7.691662300028838,None,space,0.30404179997276515,None,,,,,,,,,,,,,,,,,P123,001,2025-02-25_12h53.18.255,posner_endo_new1,2024.2.4,59.97148953226856,2025-02-25 12h53.25.536002 +0000,
cube_r.png,0.1,10,catch,34,34,0,up,8.567350999917835,None,None,,,,,,,0,34,34,34,,,,,4395.171478600008,,,,,,,,,,,,,4395.156455000048,4395.171478600008,4395.171478600008,4395.171478600008,4403.747530900058,,,,4403.758893699967,4403.769197899965,4403.769197899965,4403.812833199976,4403.813176900032,4403.8294313000515,4403.8294313000515,4403.8294313000515,4403.91264939995,4406.827127599972,,,,4405.927293400047,4406.842926200014,4406.842926200014,4406.842926200014,up,8.567350999917835,None,None,,,,,,,,,,,,,,,,,,,P123,001,2025-02-25_12h53.18.255,posner_endo_new1,2024.2.4,59.97148953226856,2025-02-25 12h53.25.536002 +0000,
cube_r.png,0.1,0.31,valid,35,35,0,up,8.67171889997553,None,space,0.32438260002527386,None,,,,,0,35,35,35,,,,,4406.842926200014,,,,,,,,,,,,,4406.827397900051,4406.842926200014,4406.842926200014,4406.842926200014,4415.518398200045,,,,4415.525460500037,4415.536818600027,4415.536818600027,4415.5841313999845,4415.584377299994,4415.600756900036,4415.600756900036,4415.600756900036,4415.683987200027,4415.9347800000105,,,,,,,,up,8.67171889997553,None,space,0.32438260002527386,None,,,,,,,,,,,,,,,,,P123,001,2025-02-25_12h53.18.255,posner_endo_new1,2024.2.4,59.97148953226856,2025-02-25 12h53.25.536002 +0000,
cube_r.png,0.1,-0.31,invalid,36,36,0,up,10.38851059996523,None,space,0.3617499000392854,None,,,,,0,36,36,36,,,,,4415.9503543999745,,,,,,,,,,,,,4415.934976299992,4415.9503543999745,4415.9503543999745,4415.9503543999745,4426.341032000026,,,,4426.352088400046,4426.3623361999635,4426.3623361999635,4426.406550599961,4426.406898500049,4426.423027400044,4426.423027400044,4426.423027400044,4426.506216299953,4426.79049220006,,,,,,,,up,10.38851059996523,None,space,0.3617499000392854,None,,,,,,,,,,,,,,,,,P123,001,2025-02-25_12h53.18.255,posner_endo_new1,2024.2.4,59.97148953226856,2025-02-25 12h53.25.536002 +0000,
cube_l.png,0.1,0.31,invalid,37,37,0,up,8.277784300036728,None,space,0.4859124000649899,None,,,,,0,37,37,37,,,,,4426.805899900035,,,,,,,,,,,,,4426.790785899968,4426.805899900035,4426.805899900035,4426.805899900035,4435.098680200055,,,,4435.1098059000215,4435.1201688,4435.1201688,4435.1641185999615,4435.164460900007,4435.180682700011,4435.180682700011,4435.180682700011,4435.263910199981,4435.68128540006,,,,,,,,up,8.277784300036728,None,space,0.4859124000649899,None,,,,,,,,,,,,,,,,,P123,001,2025-02-25_12h53.18.255,posner_endo_new1,2024.2.4,59.97148953226856,2025-02-25 12h53.25.536002 +0000,
cube_l.png,0.1,0.31,invalid,38,38,0,up,8.778565800050274,None,space,0.37601870007347316,None,,,,,0,38,38,38,,,,,4435.696849899949,,,,,,,,,,,,,4435.681587700034,4435.696849899949,4435.696849899949,4435.696849899949,4444.48901619995,,,,4444.500121199992,4444.510399800027,4444.510399800027,4444.554703300004,4444.555053999997,4444.5711374999955,4444.5711374999955,4444.5711374999955,4444.654363799957,4444.955502200057,,,,,,,,up,8.778565800050274,None,space,0.37601870007347316,None,,,,,,,,,,,,,,,,,P123,001,2025-02-25_12h53.18.255,posner_endo_new1,2024.2.4,59.97148953226856,2025-02-25 12h53.25.536002 +0000,
cube_r.png,0.1,0.31,valid,39,39,0,up,7.777082600048743,None,space,0.6879411999834701,None,,,,,0,39,39,39,,,,,4444.97064049996,,,,,,,,,,,,,4444.955791000044,4444.97064049996,4444.97064049996,4444.97064049996,4452.764088900061,,,,4452.772404000047,4452.782408299972,4452.782408299972,4452.829382300028,4452.829628200037,4452.846009299974,4452.846009299974,4452.846009299974,4452.929122500005,4453.546248400002,,,,,,,,up,7.777082600048743,None,space,0.6879411999834701,None,,,,,,,,,,,,,,,,,P123,001,2025-02-25_12h53.18.255,posner_endo_new1,2024.2.4,59.97148953226856,2025-02-25 12h53.25.536002 +0000,
cube_l.png,0.1,0.31,invalid,40,40,0,up,6.60077890008688,None,space,0.3376204000087455,None,,,,,0,40,40,40,,,,,4453.561919700005,,,,,,,,,,,,,4453.546445499989,4453.561919700005,4453.561919700005,4453.561919700005,4460.172524700058,,,,4460.17962499999,4460.1915466999635,4460.1915466999635,4460.23861390003,4460.238860700047,4460.255149299977,4460.255149299977,4460.255149299977,4460.321719900006,4460.605556900031,,,,,,,,up,6.60077890008688,None,space,0.3376204000087455,None,,,,,,,,,,,,,,,,,P123,001,2025-02-25_12h53.18.255,posner_endo_new1,2024.2.4,59.97148953226856,2025-02-25 12h53.25.536002 +0000,
cube_l.png,0.1,10,catch,41,41,0,up,8.878458499908447,None,space,0.2938618999905884,None,,,,,0,41,41,41,,,,,4460.621193900006,,,,,,,,,,,,,4460.605752400006,4460.621193900006,4460.621193900006,4460.621193900006,4469.513203299954,,,,4469.520268099965,4469.532043899992,4469.532043899992,4469.579035499948,4469.579259400023,4469.595670699957,4469.595670699957,4469.595670699957,4469.6621004999615,4469.8958692000015,,,,,,,,up,8.878458499908447,None,space,0.2938618999905884,None,,,,,,,,,,,,,,,,,P123,001,2025-02-25_12h53.18.255,posner_endo_new1,2024.2.4,59.97148953226856,2025-02-25 12h53.25.536002 +0000,
cube_l.png,0.1,-0.31,valid,42,42,0,up,9.651721200090833,None,space,0.30232249991968274,None,,,,,0,42,42,42,,,,,4469.911804900039,,,,,,,,,,,,,4469.896038200008,4469.911804900039,4469.911804900039,4469.911804900039,4479.5693775999825,,,,4479.575130000012,4479.586683099973,4479.586683099973,4479.635133399977,4479.635563699994,4479.651591600035,4479.651591600035,4479.651591600035,4479.73484629998,4479.969513199991,,,,,,,,up,9.651721200090833,None,space,0.30232249991968274,None,,,,,,,,,,,,,,,,,P123,001,2025-02-25_12h53.18.255,posner_endo_new1,2024.2.4,59.97148953226856,2025-02-25 12h53.25.536002 +0000,
cube_l.png,0.1,10,catch,43,43,0,up,8.626221799990162,None,None,,,,,,,0,43,43,43,,,,,4479.984591000015,,,,,,,,,,,,,4479.969886200037,4479.984591000015,4479.984591000015,4479.984591000015,4488.627237700042,,,,4488.636579900049,4488.6468196000205,4488.6468196000205,4488.692789199995,4488.6930956,4488.709351300029,4488.709351300029,4488.709351300029,4488.792611700017,4491.70691529999,,,,4490.80720489996,4491.722949599964,4491.722949599964,4491.722949599964,up,8.626221799990162,None,None,,,,,,,,,,,,,,,,,,,P123,001,2025-02-25_12h53.18.255,posner_endo_new1,2024.2.4,59.97148953226856,2025-02-25 12h53.25.536002 +0000,
cube_l.png,0.1,0.31,invalid,44,44,0,up,6.209368000039831,None,space,0.4166963000316173,None,,,,,0,44,44,44,,,,,4491.722949599964,,,,,,,,,,,,,4491.7071465000045,4491.722949599964,4491.722949599964,4491.722949599964,4497.934474900016,,,,4497.943732099957,4497.95392790006,4497.95392790006,4497.999957900029,4498.000271999976,4498.016490799957,4498.016490799957,4498.016490799957,4498.099731700029,4498.450311099994,,,,,,,,up,6.209368000039831,None,space,0.4166963000316173,None,,,,,,,,,,,,,,,,,P123,001,2025-02-25_12h53.18.255,posner_endo_new1,2024.2.4,59.97148953226856,2025-02-25 12h53.25.536002 +0000,
cube_l.png,0.1,0.31,invalid,45,45,0,up,8.25702859996818,None,space,0.39964279998093843,None,,,,,0,45,45,45,,,,,4498.46595880005,,,,,,,,,,,,,4498.450562500046,4498.46595880005,4498.46595880005,4498.46595880005,4506.725433600019,,,,4506.734861799981,4506.745096400031,4506.745096400031,4506.790991200018,4506.79129860003,4506.807463699952,4506.807463699952,4506.807463699952,4506.890803699964,4507.2082613999955,,,,,,,,up,8.25702859996818,None,space,0.39964279998093843,None,,,,,,,,,,,,,,,,,P123,001,2025-02-25_12h53.18.255,posner_endo_new1,2024.2.4,59.97148953226856,2025-02-25 12h53.25.536002 +0000,
cube_r.png,0.1,0.31,valid,46,46,0,up,8.779698300058953,None,space,0.40545830002520233,None,,,,,0,46,46,46,,,,,4507.223656999995,,,,,,,,,,,,,4507.208508200012,4507.223656999995,4507.223656999995,4507.223656999995,4516.015674600028,,,,4516.0248576999875,4516.035009299987,4516.035009299987,4516.08138810005,4516.081688100006,4516.098009999958,4516.098009999958,4516.098009999958,4516.181249800022,4516.515344799962,,,,,,,,up,8.779698300058953,None,space,0.40545830002520233,None,,,,,,,,,,,,,,,,,P123,001,2025-02-25_12h53.18.255,posner_endo_new1,2024.2.4,59.97148953226856,2025-02-25 12h53.25.536002 +0000,
cube_l.png,0.1,-0.31,valid,47,47,0,up,8.26409340009559,None,space,0.3619738999987021,None,,,,,0,47,47,47,,,,,4516.530924099963,,,,,,,,,,,,,4516.515595200006,4516.530924099963,4516.530924099963,4516.530924099963,4524.806851799949,,,,4524.816231300007,4524.826289799996,4524.826289799996,4524.87247209996,4524.8727741000475,4524.888999799965,4524.888999799965,4524.888999799965,4524.972218899988,4525.256339299958,,,,,,,,up,8.26409340009559,None,space,0.3619738999987021,None,,,,,,,,,,,,,,,,,P123,001,2025-02-25_12h53.18.255,posner_endo_new1,2024.2.4,59.97148953226856,2025-02-25 12h53.25.536002 +0000,
cube_r.png,0.1,-0.31,invalid,48,48,0,up,8.675129299983382,None,space,0.37762820010539144,None,,,,,0,48,48,48,,,,,4525.271848900011,,,,,,,,,,,,,4525.256586699979,4525.271848900011,4525.271848900011,4525.271848900011,4533.964000200038,,,,4533.973174500046,4533.983036800055,4533.983036800055,4534.029875900014,4534.030188399949,4534.046347100055,4534.046347100055,4534.046347100055,4534.1299229,4534.430198800052,,,,,,,,up,8.675129299983382,None,space,0.37762820010539144,None,,,,,,,,,,,,,,,,,P123,001,2025-02-25_12h53.18.255,posner_endo_new1,2024.2.4,59.97148953226856,2025-02-25 12h53.25.536002 +0000,
cube_r.png,0.1,10,catch,49,49,0,up,7.60549170000013,None,None,,,,,,,0,49,49,49,,,,,4534.445944100036,,,,,,,,,,,,,4534.43044539995,4534.445944100036,4534.445944100036,4534.445944100036,4542.056004600017,,,,4542.06530180003,4542.075475899968,4542.075475899968,4542.121303300024,4542.12161120004,4542.1380814999575,4542.1380814999575,4542.1380814999575,4542.22129050002,4545.135567600024,,,,4544.23592570005,4545.15164159995,4545.15164159995,4545.15164159995,up,7.60549170000013,None,None,,,,,,,,,,,,,,,,,,,P123,001,2025-02-25_12h53.18.255,posner_endo_new1,2024.2.4,59.97148953226856,2025-02-25 12h53.25.536002 +0000,
cube_l.png,0.1,-0.31,valid,50,50,0,up,4.85211530001834,None,space,0.34925500000827014,None,,,,,0,50,50,50,,,,,4545.15164159995,,,,,,,,,,,,,4545.135799300042,4545.15164159995,4545.15164159995,4545.15164159995,4550.014430199983,,,,4550.023681999999,4550.033831499983,4550.033831499983,4550.08005400002,4550.080356799997,4550.096617000061,4550.096617000061,4550.096617000061,4550.179905300029,4550.447315400001,,,,,,,,up,4.85211530001834,None,space,0.34925500000827014,None,,,,,,,,,,,,,,,,,P123,001,2025-02-25_12h53.18.255,posner_endo_new1,2024.2.4,59.97148953226856,2025-02-25 12h53.25.536002 +0000,
cube_l.png,0.1,-0.31,valid,51,51,0,up,8.492929000058211,None,space,0.40089679998345673,None,,,,,0,51,51,51,,,,,4550.4628744999645,,,,,,,,,,,,,4550.447563600028,4550.4628744999645,4550.4628744999645,4550.4628744999645,4558.971951000043,,,,4558.981227000011,4558.9914378999965,4558.9914378999965,4559.03760479996,4559.037911299965,4559.054102799972,4559.054102799972,4559.054102799972,4559.137452600058,4559.471379900002,,,,,,,,up,8.492929000058211,None,space,0.40089679998345673,None,,,,,,,,,,,,,,,,,P123,001,2025-02-25_12h53.18.255,posner_endo_new1,2024.2.4,59.97148953226856,2025-02-25 12h53.25.536002 +0000,
cube_r.png,0.1,-0.31,invalid,52,52,0,up,6.820337699959055,None,space,0.3315920999739319,None,,,,,0,52,52,52,,,,,4559.486931400024,,,,,,,,,,,,,4559.4716284000315,4559.486931400024,4559.486931400024,4559.486931400024,4566.314412500011,,,,4566.323663500021,4566.333871799987,4566.333871799987,4566.380127400043,4566.380428300006,4566.396678699995,4566.396678699995,4566.396678699995,4566.479916600045,4566.730780099984,,,,,,,,up,6.820337699959055,None,space,0.3315920999739319,None,,,,,,,,,,,,,,,,,P123,001,2025-02-25_12h53.18.255,posner_endo_new1,2024.2.4,59.97148953226856,2025-02-25 12h53.25.536002 +0000,
cube_l.png,0.1,-0.31,valid,53,53,0,up,8.08938100002706,None,space,0.3912666999967769,None,,,,,0,53,53,53,,,,,4566.746304600034,,,,,,,,,,,,,4566.731028000009,4566.746304600034,4566.746304600034,4566.746304600034,4574.8391516000265,,,,4574.8483798999805,4574.8585647,4574.8585647,4574.904705099994,4574.905005699955,4574.921283700038,4574.921283700038,4574.921283700038,4575.004474799964,4575.3218702999875,,,,,,,,up,8.08938100002706,None,space,0.3912666999967769,None,,,,,,,,,,,,,,,,,P123,001,2025-02-25_12h53.18.255,posner_endo_new1,2024.2.4,59.97148953226856,2025-02-25 12h53.25.536002 +0000,
cube_r.png,0.1,10,catch,54,54,0,up,6.929603499942459,None,None,,,,,,,0,54,54,54,,,,,4575.337498600013,,,,,,,,,,,,,4575.322117300006,4575.337498600013,4575.337498600013,4575.337498600013,4582.281419400009,,,,4582.290612400044,4582.300901600043,4582.300901600043,4582.34711480001,4582.3474263000535,4582.363676100038,4582.363676100038,4582.363676100038,4582.4469396000495,4585.361245200038,,,,4584.461543399957,4585.377267100033,4585.377267100033,4585.377267100033,up,6.929603499942459,None,None,,,,,,,,,,,,,,,,,,,P123,001,2025-02-25_12h53.18.255,posner_endo_new1,2024.2.4,59.97148953226856,2025-02-25 12h53.25.536002 +0000,
cube_l.png,0.1,0.31,invalid,55,55,0,up,6.434098500059918,None,None,,,,,,,0,55,55,55,,,,,4585.377267100033,,,,,,,,,,,,,4585.361484099994,4585.377267100033,4585.377267100033,4585.377267100033,4591.8217305999715,,,,4591.831113300053,4591.841306200018,4591.841306200018,4591.887402500026,4591.887710400042,4591.903957300005,4591.903957300005,4591.903957300005,4591.987176600029,4594.901395600056,,,,4594.00173290004,4594.917519500013,4594.917519500013,4594.917519500013,up,6.434098500059918,None,None,,,,,,,,,,,,,,,,,,,P123,001,2025-02-25_12h53.18.255,posner_endo_new1,2024.2.4,59.97148953226856,2025-02-25 12h53.25.536002 +0000,
cube_l.png,0.1,-0.31,valid,56,56,0,up,5.445711999898776,None,space,0.3874869999708608,None,,,,,0,56,56,56,,,,,4594.917519500013,,,,,,,,,,,,,4594.90163420001,4594.917519500013,4594.917519500013,4594.917519500013,4600.379591500037,,,,4600.388875899953,4600.398764700047,4600.398764700047,4600.445344800013,4600.445647199987,4600.461826700019,4600.461826700019,4600.461826700019,4600.544959899969,4600.862338899984,,,,,,,,up,5.445711999898776,None,space,0.3874869999708608,None,,,,,,,,,,,,,,,,,P123,001,2025-02-25_12h53.18.255,posner_endo_new1,2024.2.4,59.97148953226856,2025-02-25 12h53.25.536002 +0000,
cube_r.png,0.1,0.31,valid,57,57,0,up,7.733350900001824,None,space,0.47194840002339333,None,,,,,0,57,57,57,,,,,4600.877979499986,,,,,,,,,,,,,4600.8625848999945,4600.877979499986,4600.877979499986,4600.877979499986,4608.621166300029,,,,4608.63045060006,4608.640554600046,4608.640554600046,4608.686922000023,4608.687228000024,4608.70334909996,4608.70334909996,4608.70334909996,4608.7866752999835,4609.187378400005,,,,,,,,up,7.733350900001824,None,space,0.47194840002339333,None,,,,,,,,,,,,,,,,,P123,001,2025-02-25_12h53.18.255,posner_endo_new1,2024.2.4,59.97148953226856,2025-02-25 12h53.25.536002 +0000,
cube_r.png,0.1,-0.31,invalid,58,58,0,up,10.65701209998224,None,space,0.37416380003560334,None,,,,,0,58,58,58,,,,,4609.202931100037,,,,,,,,,,,,,4609.1876275000395,4609.202931100037,4609.202931100037,4609.202931100037,4619.876339899958,,,,4619.885675200028,4619.895524300053,4619.895524300053,4619.942015700042,4619.942317500012,4619.958607599954,4619.958607599954,4619.958607599954,4620.041900699958,4620.342625900055,,,,,,,,up,10.65701209998224,None,space,0.37416380003560334,None,,,,,,,,,,,,,,,,,P123,001,2025-02-25_12h53.18.255,posner_endo_new1,2024.2.4,59.97148953226856,2025-02-25 12h53.25.536002 +0000,
cube_l.png,0.1,0.31,invalid,59,59,0,up,8.918771700002253,None,space,0.4002493000589311,None,,,,,0,59,59,59,,,,,4620.358181799995,,,,,,,,,,,,,4620.342878099997,4620.358181799995,4620.358181799995,4620.358181799995,4629.283558199997,,,,4629.292811000021,4629.303015099955,4629.303015099955,4629.348926999955,4629.349230800057,4629.365531199961,4629.365531199961,4629.365531199961,4629.448825099971,4629.782755900058,,,,,,,,up,8.918771700002253,None,space,0.4002493000589311,None,,,,,,,,,,,,,,,,,P123,001,2025-02-25_12h53.18.255,posner_endo_new1,2024.2.4,59.97148953226856,2025-02-25 12h53.25.536002 +0000,
,,,,,,,,,,,,,,,,,,,,,,,,,,,,,,,,,,,,,,,,,,,,,,,,,,,,,,,,,,,,,,,,,,,,,,,4629.782915899996,4629.798491399968,4629.798491399968,4689.8037875000155,4691.970116300043,space,62.16487670002971,None,,,,,,,P123,001,2025-02-25_12h53.18.255,posner_endo_new1,2024.2.4,59.97148953226856,2025-02-25 12h53.25.536002 +0000,
,,,,,,,,,,,,,,,,,,,,,,,,,,,,,,,,,,4691.970258099958,4691.98489750002,4695.011618599994,4694.966221699957,,,,,,,,,,,,,,,,,,,,,,,,,,,,,,,,,,,,,,,,,,,,,,,,P123,001,2025-02-25_12h53.18.255,posner_endo_new1,2024.2.4,59.97148953226856,2025-02-25 12h53.25.536002 +0000,
cube_l.png,0.1,10,catch,0,0,0,down,7.720283199916594,None,None,,,,,,,,,,,0,0,0,0,4695.011618599994,,,,,,,,,,,,,4695.000480400049,4695.011618599994,4695.011618599994,4695.011618599994,4702.741886900039,,,,4702.753082799958,4702.763477799948,4702.763477799948,4702.807411600021,4702.807769499952,4702.823934499989,4702.823934499989,4702.823934499989,4702.90713409998,4705.821630300023,,,,4704.921761599951,4705.837595000048,4705.837595000048,4705.837595000048,,,,,,,,,,,,,,,,,down,7.720283199916594,None,None,,,P123,001,2025-02-25_12h53.18.255,posner_endo_new1,2024.2.4,59.97148953226856,2025-02-25 12h53.25.536002 +0000,
cube_l.png,0.1,10,catch,1,1,0,down,8.77383129997179,None,None,,,,,,,,,,,0,1,1,1,4705.837595000048,,,,,,,,,,,,,4705.821915799985,4705.837595000048,4705.837595000048,4705.837595000048,4714.613249700051,,,,4714.624329700018,4714.634814699995,4714.634814699995,4714.678667800035,4714.679010499967,4714.6949748999905,4714.6949748999905,4714.6949748999905,4714.778238900006,4717.692902500043,,,,4716.792937400052,4717.708736100001,4717.708736100001,4717.708736100001,,,,,,,,,,,,,,,,,down,8.77383129997179,None,None,,,P123,001,2025-02-25_12h53.18.255,posner_endo_new1,2024.2.4,59.97148953226856,2025-02-25 12h53.25.536002 +0000,
cube_l.png,0.1,0.31,invalid,2,2,0,down,4.159042400075123,None,space,0.40904860000591725,None,,,,,,,,,0,2,2,2,4717.708736100001,,,,,,,,,,,,,4717.693180100061,4717.708736100001,4717.708736100001,4717.708736100001,4721.872499900055,,,,4721.883547900012,4721.893866400002,4721.893866400002,4721.937757099979,4721.938101000036,4721.954397500027,4721.954397500027,4721.954397500027,4722.037720600027,4722.371842200053,,,,,,,,,,,,,,,,,,,,,,,,down,4.159042400075123,None,space,0.40904860000591725,None,P123,001,2025-02-25_12h53.18.255,posner_endo_new1,2024.2.4,59.97148953226856,2025-02-25 12h53.25.536002 +0000,
cube_l.png,0.1,0.31,invalid,3,3,0,down,7.8964627999812365,None,space,0.42337959993164986,None,,,,,,,,,0,3,3,3,4722.387277800008,,,,,,,,,,,,,4722.372133000055,4722.387277800008,4722.387277800008,4722.387277800008,4730.297240299988,,,,4730.308448900003,4730.318822599947,4730.318822599947,4730.362579299952,4730.362928900053,4730.379110899987,4730.379110899987,4730.379110899987,4730.462483500014,4730.81323910004,,,,,,,,,,,,,,,,,,,,,,,,down,7.8964627999812365,None,space,0.42337959993164986,None,P123,001,2025-02-25_12h53.18.255,posner_endo_new1,2024.2.4,59.97148953226856,2025-02-25 12h53.25.536002 +0000,
cube_l.png,0.1,-0.31,valid,4,4,0,down,9.358618499943987,None,space,0.32067339995410293,None,,,,,,,,,0,4,4,4,4730.828693600022,,,,,,,,,,,,,4730.813538499991,4730.828693600022,4730.828693600022,4730.828693600022,4740.203570500016,,,,4740.214808500023,4740.225112300017,4740.225112300017,4740.269275299972,4740.269621600048,4740.2855254999595,4740.2855254999595,4740.2855254999595,4740.3688917000545,4740.619750599959,,,,,,,,,,,,,,,,,,,,,,,,down,9.358618499943987,None,space,0.32067339995410293,None,P123,001,2025-02-25_12h53.18.255,posner_endo_new1,2024.2.4,59.97148953226856,2025-02-25 12h53.25.536002 +0000,
cube_r.png,0.1,-0.31,invalid,5,5,0,down,7.88853479991667,None,space,0.4140768999932334,None,,,,,,,,,0,5,5,5,4740.6352163000265,,,,,,,,,,,,,4740.620043199975,4740.6352163000265,4740.6352163000265,4740.6352163000265,4748.5286148999585,,,,4748.53971729998,4748.549869199982,4748.549869199982,4748.593965700013,4748.594306600047,4748.610492000007,4748.610492000007,4748.610492000007,4748.693597799982,4749.0280281000305,,,,,,,,,,,,,,,,,,,,,,,,down,7.88853479991667,None,space,0.4140768999932334,None,P123,001,2025-02-25_12h53.18.255,posner_endo_new1,2024.2.4,59.97148953226856,2025-02-25 12h53.25.536002 +0000,
cube_r.png,0.1,0.31,valid,6,6,0,down,7.392973000067286,None,space,0.3764652000973001,None,,,,,,,,,0,6,6,6,4749.0433949000435,,,,,,,,,,,,,4749.028322999948,4749.0433949000435,4749.0433949000435,4749.0433949000435,4756.453534099972,,,,4756.464656700031,4756.474741099984,4756.474741099984,4756.519193700049,4756.519537899992,4756.535763000022,4756.535763000022,4756.535763000022,4756.618979500025,4756.920041200006,,,,,,,,,,,,,,,,,,,,,,,,down,7.392973000067286,None,space,0.3764652000973001,None,P123,001,2025-02-25_12h53.18.255,posner_endo_new1,2024.2.4,59.97148953226856,2025-02-25 12h53.25.536002 +0000,
cube_r.png,0.1,-0.31,invalid,7,7,0,down,7.53220010001678,None,space,0.37775879993569106,None,,,,,,,,,0,7,7,7,4756.935285200016,,,,,,,,,,,,,4756.920334300026,4756.935285200016,4756.935285200016,4756.935285200016,4764.478848000057,,,,4764.489982099971,4764.5003457999555,4764.5003457999555,4764.544385100016,4764.544727400062,4764.560800899984,4764.560800899984,4764.560800899984,4764.644081800012,4764.944944899995,,,,,,,,,,,,,,,,,,,,,,,,down,7.53220010001678,None,space,0.37775879993569106,None,P123,001,2025-02-25_12h53.18.255,posner_endo_new1,2024.2.4,59.97148953226856,2025-02-25 12h53.25.536002 +0000,
cube_l.png,0.1,-0.31,valid,8,8,0,down,8.242851700051688,None,space,0.3146028999472037,None,,,,,,,,,0,8,8,8,4764.960485800053,,,,,,,,,,,,,4764.945239200024,4764.960485800053,4764.960485800053,4764.960485800053,4773.220273799961,,,,4773.23653200001,4773.24708380003,4773.24708380003,4773.285350600025,4773.285845699953,4773.3017889000475,4773.3017889000475,4773.3017889000475,4773.385022200062,4773.619977600058,,,,,,,,,,,,,,,,,,,,,,,,down,8.242851700051688,None,space,0.3146028999472037,None,P123,001,2025-02-25_12h53.18.255,posner_endo_new1,2024.2.4,59.97148953226856,2025-02-25 12h53.25.536002 +0000,
cube_r.png,0.1,-0.31,invalid,9,9,0,down,10.05810130003374,None,space,0.3555367999942973,None,,,,,,,,,0,9,9,9,4773.6347847,,,,,,,,,,,,,4773.620430300012,4773.6347847,4773.6347847,4773.6347847,4783.709111999953,,,,4783.720234000008,4783.730054400046,4783.730054400046,4783.774709600024,4783.775056899991,4783.79119420005,4783.79119420005,4783.79119420005,4783.874493299983,4784.158592400025,,,,,,,,,,,,,,,,,,,,,,,,down,10.05810130003374,None,space,0.3555367999942973,None,P123,001,2025-02-25_12h53.18.255,posner_endo_new1,2024.2.4,59.97148953226856,2025-02-25 12h53.25.536002 +0000,
cube_l.png,0.1,0.31,invalid,10,10,0,down,7.549389100051485,None,space,0.43055069993715733,None,,,,,,,,,0,10,10,10,4784.174127100036,,,,,,,,,,,,,4784.158892499981,4784.174127100036,4784.174127100036,4784.174127100036,4791.734061600058,,,,4791.741128399968,4791.752858399996,4791.752858399996,4791.7997683000285,4791.800017799949,4791.816395099973,4791.816395099973,4791.816395099973,4791.8996453,4792.250143600046,,,,,,,,,,,,,,,,,,,,,,,,down,7.549389100051485,None,space,0.43055069993715733,None,P123,001,2025-02-25_12h53.18.255,posner_endo_new1,2024.2.4,59.97148953226856,2025-02-25 12h53.25.536002 +0000,
cube_r.png,0.1,-0.31,invalid,11,11,0,down,9.049814600031823,None,space,0.2942308000056073,None,,,,,,,,,0,11,11,11,4792.265889000031,,,,,,,,,,,,,4792.250343200052,4792.265889000031,4792.265889000031,4792.265889000031,4801.324114699964,,,,4801.331177599961,4801.343008100055,4801.343008100055,4801.390023299959,4801.390268599964,4801.406481600017,4801.406481600017,4801.406481600017,4801.473161699949,4801.707081999979,,,,,,,,,,,,,,,,,,,,,,,,down,9.049814600031823,None,space,0.2942308000056073,None,P123,001,2025-02-25_12h53.18.255,posner_endo_new1,2024.2.4,59.97148953226856,2025-02-25 12h53.25.536002 +0000,
cube_r.png,0.1,0.31,valid,12,12,0,down,8.856998999952339,None,space,0.43710310000460595,None,,,,,,,,,0,12,12,12,4801.7226735999575,,,,,,,,,,,,,4801.707280799979,4801.7226735999575,4801.7226735999575,4801.7226735999575,4810.581430400023,,,,4810.588485999964,4810.600147400051,4810.600147400051,4810.64739920001,4810.647642800002,4810.663814099971,4810.663814099971,4810.663814099971,4810.747204100015,4811.114039600012,,,,,,,,,,,,,,,,,,,,,,,,down,8.856998999952339,None,space,0.43710310000460595,None,P123,001,2025-02-25_12h53.18.255,posner_endo_new1,2024.2.4,59.97148953226856,2025-02-25 12h53.25.536002 +0000,
cube_l.png,0.1,10,catch,13,13,0,down,8.185081999981776,None,space,0.31393419997766614,None,,,,,,,,,0,13,13,13,4811.130390399951,,,,,,,,,,,,,4811.114236099995,4811.130390399951,4811.130390399951,4811.130390399951,4819.322249999968,,,,4819.329281399958,4819.341253499966,4819.341253499966,4819.388313399977,4819.388559899991,4819.404894000036,4819.404894000036,4819.404894000036,4819.471570000052,4819.722060500062,,,,,,,,,,,,,,,,,,,,,,,,down,8.185081999981776,None,space,0.31393419997766614,None,P123,001,2025-02-25_12h53.18.255,posner_endo_new1,2024.2.4,59.97148953226856,2025-02-25 12h53.25.536002 +0000,
cube_r.png,0.1,-0.31,invalid,14,14,0,down,10.23396490002051,None,space,0.40496419998817146,None,,,,,,,,,0,14,14,14,4819.737826599972,,,,,,,,,,,,,4819.722264999989,4819.737826599972,4819.737826599972,4819.737826599972,4829.97823290003,,,,4829.985294700018,4829.997141300002,4829.997141300002,4830.0441316999495,4830.044375200057,4830.060850400012,4830.060850400012,4830.060850400012,4830.127228799975,4830.477589700022,,,,,,,,,,,,,,,,,,,,,,,,down,10.23396490002051,None,space,0.40496419998817146,None,P123,001,2025-02-25_12h53.18.255,posner_endo_new1,2024.2.4,59.97148953226856,2025-02-25 12h53.25.536002 +0000,
cube_l.png,0.1,-0.31,valid,15,15,0,down,9.135557599947788,None,space,0.36361640004906803,None,,,,,,,,,0,15,15,15,4830.493548600003,,,,,,,,,,,,,4830.477790600038,4830.493548600003,4830.493548600003,4830.493548600003,4839.635684899986,,,,4839.646788400016,4839.657203900046,4839.657203900046,4839.700960200047,4839.701303899987,4839.717360300012,4839.717360300012,4839.717360300012,4839.800729800016,4840.085158600006,,,,,,,,,,,,,,,,,,,,,,,,down,9.135557599947788,None,space,0.36361640004906803,None,P123,001,2025-02-25_12h53.18.255,posner_endo_new1,2024.2.4,59.97148953226856,2025-02-25 12h53.25.536002 +0000,
cube_r.png,0.1,10,catch,16,16,0,down,7.255026999977417,None,None,,,,,,,,,,,0,16,16,16,4840.1003860000055,,,,,,,,,,,,,4840.0854499000125,4840.1003860000055,4840.1003860000055,4840.1003860000055,4847.360955200042,,,,4847.371993800043,4847.38225559995,4847.38225559995,4847.426347400062,4847.426687099971,4847.442879899987,4847.442879899987,4847.442879899987,4847.526019599987,4850.440418699989,,,,4849.540780900046,4850.456425199984,4850.456425199984,4850.456425199984,,,,,,,,,,,,,,,,,down,7.255026999977417,None,None,,,P123,001,2025-02-25_12h53.18.255,posner_endo_new1,2024.2.4,59.97148953226856,2025-02-25 12h53.25.536002 +0000,
cube_r.png,0.1,10,catch,17,17,0,down,6.979744199896231,None,None,,,,,,,,,,,0,17,17,17,4850.456425199984,,,,,,,,,,,,,4850.440693899989,4850.456425199984,4850.456425199984,4850.456425199984,4857.450515100034,,,,4857.461664200062,4857.471985199954,4857.471985199954,4857.516069100006,4857.516412100056,4857.532668699976,4857.532668699976,4857.532668699976,4857.615860500024,4860.530301699997,,,,4859.63074110006,4860.546117400052,4860.546117400052,4860.546117400052,,,,,,,,,,,,,,,,,down,6.979744199896231,None,None,,,P123,001,2025-02-25_12h53.18.255,posner_endo_new1,2024.2.4,59.97148953226856,2025-02-25 12h53.25.536002 +0000,
cube_l.png,0.1,0.31,invalid,18,18,0,down,4.78558999998495,None,space,0.3179057000670582,None,,,,,,,,,0,18,18,18,4860.546117400052,,,,,,,,,,,,,4860.530577600002,4860.546117400052,4860.546117400052,4860.546117400052,4865.342441500048,,,,4865.353506600019,4865.3638595000375,4865.3638595000375,4865.407990599982,4865.408333800035,4865.424550600001,4865.424550600001,4865.424550600001,4865.50775530003,4865.758667499991,,,,,,,,,,,,,,,,,,,,,,,,down,4.78558999998495,None,space,0.3179057000670582,None,P123,001,2025-02-25_12h53.18.255,posner_endo_new1,2024.2.4,59.97148953226856,2025-02-25 12h53.25.536002 +0000,
cube_l.png,0.1,10,catch,19,19,0,down,10.31797390000429,None,None,,,,,,,,,,,0,19,19,19,4865.7741082999855,,,,,,,,,,,,,4865.758963900036,4865.7741082999855,4865.7741082999855,4865.7741082999855,4876.098213499994,,,,4876.109290200053,4876.1196782999905,4876.1196782999905,4876.16370210005,4876.164046499995,4876.180238400004,4876.180238400004,4876.180238400004,4876.2634171999525,4879.177796700038,,,,4878.277997300029,4879.193758700043,4879.193758700043,4879.193758700043,,,,,,,,,,,,,,,,,down,10.31797390000429,None,None,,,P123,001,2025-02-25_12h53.18.255,posner_endo_new1,2024.2.4,59.97148953226856,2025-02-25 12h53.25.536002 +0000,
cube_l.png,0.1,0.31,invalid,20,20,0,down,4.241894299979322,None,space,0.669193199952133,None,,,,,,,,,0,20,20,20,4879.193758700043,,,,,,,,,,,,,4879.178082099999,4879.193758700043,4879.193758700043,4879.193758700043,4883.440725399996,,,,4883.450464299996,4883.460320199956,4883.460320199956,4883.506045500049,4883.506285600015,4883.522558200057,4883.522558200057,4883.522558200057,4883.605968500022,4884.206084000063,,,,,,,,,,,,,,,,,,,,,,,,down,4.241894299979322,None,space,0.669193199952133,None,P123,001,2025-02-25_12h53.18.255,posner_endo_new1,2024.2.4,59.97148953226856,2025-02-25 12h53.25.536002 +0000,
cube_l.png,0.1,-0.31,valid,21,21,0,down,10.005725200055167,None,space,0.3772177000064403,None,,,,,,,,,0,21,21,21,4884.221954699955,,,,,,,,,,,,,4884.206271599978,4884.221954699955,4884.221954699955,4884.221954699955,4894.229347000015,,,,4894.236016500043,4894.248042099993,4894.248042099993,4894.2950556,4894.295548000024,4894.311450600042,4894.311450600042,4894.311450600042,4894.394694300019,4894.695726100006,,,,,,,,,,,,,,,,,,,,,,,,down,10.005725200055167,None,space,0.3772177000064403,None,P123,001,2025-02-25_12h53.18.255,posner_endo_new1,2024.2.4,59.97148953226856,2025-02-25 12h53.25.536002 +0000,
cube_r.png,0.1,0.31,valid,22,22,0,down,9.41298869997263,None,space,0.41798320005182177,None,,,,,,,,,0,22,22,22,4894.7112772000255,,,,,,,,,,,,,4894.696020900039,4894.7112772000255,4894.7112772000255,4894.7112772000255,4904.136022899998,,,,4904.147109500016,4904.1574869999895,4904.1574869999895,4904.20167780004,4904.20201759995,4904.218127500033,4904.218127500033,4904.218127500033,4904.301546999952,4904.652256499976,,,,,,,,,,,,,,,,,,,,,,,,down,9.41298869997263,None,space,0.41798320005182177,None,P123,001,2025-02-25_12h53.18.255,posner_endo_new1,2024.2.4,59.97148953226856,2025-02-25 12h53.25.536002 +0000,
cube_r.png,0.1,-0.31,invalid,23,23,0,down,9.016118899919093,None,space,0.3316080999793485,None,,,,,,,,,0,23,23,23,4904.66770380002,,,,,,,,,,,,,4904.652556000045,4904.66770380002,4904.66770380002,4904.66770380002,4913.692976100021,,,,4913.704143699957,4913.714442400029,4913.714442400029,4913.758601099951,4913.758957299986,4913.775095900055,4913.775095900055,4913.775095900055,4913.858360299957,4914.109338299953,,,,,,,,,,,,,,,,,,,,,,,,down,9.016118899919093,None,space,0.3316080999793485,None,P123,001,2025-02-25_12h53.18.255,posner_endo_new1,2024.2.4,59.97148953226856,2025-02-25 12h53.25.536002 +0000,
cube_r.png,0.1,0.31,valid,24,24,0,down,10.3507567999186,None,space,0.358979000011459,None,,,,,,,,,0,24,24,24,4914.124710200005,,,,,,,,,,,,,4914.109635600005,4914.124710200005,4914.124710200005,4914.124710200005,4924.481500599999,,,,4924.48728380003,4924.498955599964,4924.498955599964,4924.547545699985,4924.54776830005,4924.564057399984,4924.564057399984,4924.564057399984,4924.630927499966,4924.9310377000365,,,,,,,,,,,,,,,,,,,,,,,,down,10.3507567999186,None,space,0.358979000011459,None,P123,001,2025-02-25_12h53.18.255,posner_endo_new1,2024.2.4,59.97148953226856,2025-02-25 12h53.25.536002 +0000,
cube_r.png,0.1,-0.31,invalid,25,25,0,down,10.169242099975236,None,space,0.4011095000896603,None,,,,,,,,,0,25,25,25,4924.947001500055,,,,,,,,,,,,,4924.931223200052,4924.947001500055,4924.947001500055,4924.947001500055,4935.120960799977,,,,4935.12676340004,4935.138797800057,4935.138797800057,4935.186477600015,4935.186698799953,4935.203249800019,4935.203249800019,4935.203249800019,4935.28632840002,4935.620323500014,,,,,,,,,,,,,,,,,,,,,,,,down,10.169242099975236,None,space,0.4011095000896603,None,P123,001,2025-02-25_12h53.18.255,posner_endo_new1,2024.2.4,59.97148953226856,2025-02-25 12h53.25.536002 +0000,
cube_l.png,0.1,-0.31,valid,26,26,0,down,9.784312000032514,None,space,0.3036074999254197,None,,,,,,,,,0,26,26,26,4935.63608950004,,,,,,,,,,,,,4935.620504699997,4935.63608950004,4935.63608950004,4935.63608950004,4945.426828800002,,,,4945.43262690003,4945.444287499995,4945.444287499995,4945.492756500025,4945.493252699962,4945.509167299955,4945.509167299955,4945.509167299955,4945.5923903000075,4945.827350100037,,,,,,,,,,,,,,,,,,,,,,,,down,9.784312000032514,None,space,0.3036074999254197,None,P123,001,2025-02-25_12h53.18.255,posner_endo_new1,2024.2.4,59.97148953226856,2025-02-25 12h53.25.536002 +0000,
cube_r.png,0.1,0.31,valid,27,27,0,down,9.449481000076048,None,space,0.5038874000310898,None,,,,,,,,,0,27,27,27,4945.842160500004,,,,,,,,,,,,,4945.827793300035,4945.842160500004,4945.842160500004,4945.842160500004,4955.300773299998,,,,4955.311893100035,4955.322074100026,4955.322074100026,4955.3661942000035,4955.366537400056,4955.382593099959,4955.382593099959,4955.382593099959,4955.46566039999,4955.899894100032,,,,,,,,,,,,,,,,,,,,,,,,down,9.449481000076048,None,space,0.5038874000310898,None,P123,001,2025-02-25_12h53.18.255,posner_endo_new1,2024.2.4,59.97148953226856,2025-02-25 12h53.25.536002 +0000,
cube_r.png,0.1,10,catch,28,28,0,down,10.336869599996135,None,None,,,,,,,,,,,0,28,28,28,4955.9153497000225,,,,,,,,,,,,,4955.900189599954,4955.9153497000225,4955.9153497000225,4955.9153497000225,4966.256136300042,,,,4966.267295900034,4966.277507700026,4966.277507700026,4966.321597500006,4966.321940500056,4966.3379996999865,4966.3379996999865,4966.3379996999865,4966.421264100005,4969.335737299989,,,,4968.4359149000375,4969.35159970005,4969.35159970005,4969.35159970005,,,,,,,,,,,,,,,,,down,10.336869599996135,None,None,,,P123,001,2025-02-25_12h53.18.255,posner_endo_new1,2024.2.4,59.97148953226856,2025-02-25 12h53.25.536002 +0000,
cube_r.png,0.1,0.31,valid,29,29,0,down,8.549052499933168,None,space,0.3382287999847904,None,,,,,,,,,0,29,29,29,4969.35159970005,,,,,,,,,,,,,4969.336021200055,4969.35159970005,4969.35159970005,4969.35159970005,4977.910737800063,,,,4977.9203214000445,4977.929874700028,4977.929874700028,4977.976189699955,4977.976437799982,4977.992713800049,4977.992713800049,4977.992713800049,4978.076083500055,4978.343109100009,,,,,,,,,,,,,,,,,,,,,,,,down,8.549052499933168,None,space,0.3382287999847904,None,P123,001,2025-02-25_12h53.18.255,posner_endo_new1,2024.2.4,59.97148953226856,2025-02-25 12h53.25.536002 +0000,
cube_r.png,0.1,0.31,valid,30,30,0,down,9.509185000089929,None,space,0.36474220000673085,None,,,,,,,,,0,30,30,30,4978.35908580001,,,,,,,,,,,,,4978.343294700026,4978.35908580001,4978.35908580001,4978.35908580001,4987.883326899959,,,,4987.889986500028,4987.90184549999,4987.90184549999,4987.949531799997,4987.949752300046,4987.9659090000205,4987.9659090000205,4987.9659090000205,4988.0328286000295,4988.332699800027,,,,,,,,,,,,,,,,,,,,,,,,down,9.509185000089929,None,space,0.36474220000673085,None,P123,001,2025-02-25_12h53.18.255,posner_endo_new1,2024.2.4,59.97148953226856,2025-02-25 12h53.25.536002 +0000,
cube_l.png,0.1,-0.31,valid,31,31,0,down,11.64728869998362,None,space,0.2693891000235453,None,,,,,,,,,0,31,31,31,4988.348791199969,,,,,,,,,,,,,4988.332873699954,4988.348791199969,4988.348791199969,4988.348791199969,5000.004143700004,,,,5000.009985200013,5000.021668800036,5000.021668800036,5000.070348100038,5000.0705704999855,5000.086851299973,5000.086851299973,5000.086851299973,5000.15354520001,5000.370591899962,,,,,,,,,,,,,,,,,,,,,,,,down,11.64728869998362,None,space,0.2693891000235453,None,P123,001,2025-02-25_12h53.18.255,posner_endo_new1,2024.2.4,59.97148953226856,2025-02-25 12h53.25.536002 +0000,
cube_r.png,0.1,0.31,valid,32,32,0,down,9.17703999998048,None,space,0.338315200060606,None,,,,,,,,,0,32,32,32,5000.386605000007,,,,,,,,,,,,,5000.370772000053,5000.386605000007,5000.386605000007,5000.386605000007,5009.577884900034,,,,5009.5836465000175,5009.595195999951,5009.595195999951,5009.643777000019,5009.644003099995,5009.660520400037,5009.660520400037,5009.660520400037,5009.726970299962,5010.0111553999595,,,,,,,,,,,,,,,,,,,,,,,,down,9.17703999998048,None,space,0.338315200060606,None,P123,001,2025-02-25_12h53.18.255,posner_endo_new1,2024.2.4,59.97148953226856,2025-02-25 12h53.25.536002 +0000,
cube_r.png,0.1,-0.31,invalid,33,33,0,down,10.593556800042279,None,space,0.3664211999857798,None,,,,,,,,,0,33,33,33,5010.026734099956,,,,,,,,,,,,,5010.011410100036,5010.026734099956,5010.026734099956,5010.026734099956,5020.634016999975,,,,5020.643320400035,5020.6534627999645,5020.6534627999645,5020.699273100006,5020.699581100023,5020.715782799991,5020.715782799991,5020.715782799991,5020.799075499992,5021.083248100011,,,,,,,,,,,,,,,,,,,,,,,,down,10.593556800042279,None,space,0.3664211999857798,None,P123,001,2025-02-25_12h53.18.255,posner_endo_new1,2024.2.4,59.97148953226856,2025-02-25 12h53.25.536002 +0000,
cube_r.png,0.1,10,catch,34,34,0,down,11.545885100029409,None,space,0.33567389997188,None,,,,,,,,,0,34,34,34,5021.098796100006,,,,,,,,,,,,,5021.083501899964,5021.098796100006,5021.098796100006,5021.098796100006,5032.6546837999485,,,,5032.663892799988,5032.674008499947,5032.674008499947,5032.7204061000375,5032.720713800052,5032.736902200035,5032.736902200035,5032.736902200035,5032.8201064000605,5033.087547100033,,,,,,,,,,,,,,,,,,,,,,,,down,11.545885100029409,None,space,0.33567389997188,None,P123,001,2025-02-25_12h53.18.255,posner_endo_new1,2024.2.4,59.97148953226856,2025-02-25 12h53.25.536002 +0000,
cube_r.png,0.1,0.31,valid,35,35,0,down,7.988660700037144,None,space,0.3256084000458941,None,,,,,,,,,0,35,35,35,5033.103226699983,,,,,,,,,,,,,5033.087809900055,5033.103226699983,5033.103226699983,5033.103226699983,5041.096073299996,,,,5041.105424599955,5041.115559700062,5041.115559700062,5041.161765599973,5041.162079700036,5041.1782351,5041.1782351,5041.1782351,5041.261541299988,5041.5122369000455,,,,,,,,,,,,,,,,,,,,,,,,down,7.988660700037144,None,space,0.3256084000458941,None,P123,001,2025-02-25_12h53.18.255,posner_endo_new1,2024.2.4,59.97148953226856,2025-02-25 12h53.25.536002 +0000,
cube_r.png,0.1,-0.31,invalid,36,36,0,down,11.132282000035048,None,space,0.4043966999743134,None,,,,,,,,,0,36,36,36,5041.527875600033,,,,,,,,,,,,,5041.512497500051,5041.527875600033,5041.527875600033,5041.527875600033,5052.6672804000555,,,,5052.673458000063,5052.684616900049,5052.684616900049,5052.733283099951,5052.733619899955,5052.749746400048,5052.749746400048,5052.749746400048,5052.816356300027,5053.167216400034,,,,,,,,,,,,,,,,,,,,,,,,down,11.132282000035048,None,space,0.4043966999743134,None,P123,001,2025-02-25_12h53.18.255,posner_endo_new1,2024.2.4,59.97148953226856,2025-02-25 12h53.25.536002 +0000,
cube_l.png,0.1,0.31,invalid,37,37,0,down,7.925276399939321,None,space,0.5334543999051675,None,,,,,,,,,0,37,37,37,5053.182671900024,,,,,,,,,,,,,5053.167508100043,5053.182671900024,5053.182671900024,5053.182671900024,5061.109112999984,,,,5061.120397499995,5061.130968200043,5061.130968200043,5061.174794899998,5061.175136900041,5061.191153899999,5061.191153899999,5061.191153899999,5061.274466800038,5061.741685900022,,,,,,,,,,,,,,,,,,,,,,,,down,7.925276399939321,None,space,0.5334543999051675,None,P123,001,2025-02-25_12h53.18.255,posner_endo_new1,2024.2.4,59.97148953226856,2025-02-25 12h53.25.536002 +0000,
cube_l.png,0.1,0.31,invalid,38,38,0,down,11.271198899950832,None,space,0.3124325000680983,None,,,,,,,,,0,38,38,38,5061.757306099986,,,,,,,,,,,,,5061.741987999994,5061.757306099986,5061.757306099986,5061.757306099986,5073.0299291999545,,,,5073.037103599985,5073.048803300015,5073.048803300015,5073.095784300007,5073.096035100054,5073.112391200033,5073.112391200033,5073.112391200033,5073.17889640003,5073.42957919999,,,,,,,,,,,,,,,,,,,,,,,,down,11.271198899950832,None,space,0.3124325000680983,None,P123,001,2025-02-25_12h53.18.255,posner_endo_new1,2024.2.4,59.97148953226856,2025-02-25 12h53.25.536002 +0000,
cube_r.png,0.1,0.31,valid,39,39,0,down,9.487078699981794,None,space,0.30266090005170554,None,,,,,,,,,0,39,39,39,5073.445522899972,,,,,,,,,,,,,5073.4297792,5073.445522899972,5073.445522899972,5073.445522899972,5082.936941000051,,,,5082.948016199982,5082.958362799953,5082.958362799953,5083.002372800023,5083.0027174999705,5083.01887150004,5083.01887150004,5083.01887150004,5083.102089400054,5083.3365205000155,,,,,,,,,,,,,,,,,,,,,,,,down,9.487078699981794,None,space,0.30266090005170554,None,P123,001,2025-02-25_12h53.18.255,posner_endo_new1,2024.2.4,59.97148953226856,2025-02-25 12h53.25.536002 +0000,
cube_l.png,0.1,0.31,invalid,40,40,0,down,10.612000999972224,None,space,0.34298209997359663,None,,,,,,,,,0,40,40,40,5083.351794100017,,,,,,,,,,,,,5083.336817100062,5083.351794100017,5083.351794100017,5083.351794100017,5093.975531499949,,,,5093.9866182999685,5093.996997299953,5093.996997299953,5094.0411263999995,5094.041468800046,5094.057585300063,5094.057585300063,5094.057585300063,5094.140843300032,5094.408409200027,,,,,,,,,,,,,,,,,,,,,,,,down,10.612000999972224,None,space,0.34298209997359663,None,P123,001,2025-02-25_12h53.18.255,posner_endo_new1,2024.2.4,59.97148953226856,2025-02-25 12h53.25.536002 +0000,
cube_l.png,0.1,10,catch,41,41,0,down,9.51645519991871,None,space,0.3053434999892488,None,,,,,,,,,0,41,41,41,5094.423833100009,,,,,,,,,,,,,5094.408748100046,5094.423833100009,5094.423833100009,5094.423833100009,5103.948780999985,,,,5103.959920300054,5103.9703346999595,5103.9703346999595,5104.014194000047,5104.014548399951,5104.030745399999,5104.030745399999,5104.030745399999,5104.113934800029,5104.3481527999975,,,,,,,,,,,,,,,,,,,,,,,,down,9.51645519991871,None,space,0.3053434999892488,None,P123,001,2025-02-25_12h53.18.255,posner_endo_new1,2024.2.4,59.97148953226856,2025-02-25 12h53.25.536002 +0000,
cube_l.png,0.1,-0.31,valid,42,42,0,down,10.080910800024867,None,space,0.34861919994000345,None,,,,,,,,,0,42,42,42,5104.363746099989,,,,,,,,,,,,,5104.348448200035,5104.363746099989,5104.363746099989,5104.363746099989,5114.454514699988,,,,5114.465609799954,5114.475883699954,5114.475883699954,5114.520110800047,5114.520454799989,5114.536813499988,5114.536813499988,5114.536813499988,5114.619842999964,5114.887658399995,,,,,,,,,,,,,,,,,,,,,,,,down,10.080910800024867,None,space,0.34861919994000345,None,P123,001,2025-02-25_12h53.18.255,posner_endo_new1,2024.2.4,59.97148953226856,2025-02-25 12h53.25.536002 +0000,
cube_l.png,0.1,10,catch,43,43,0,down,10.149233300006017,None,None,,,,,,,,,,,0,43,43,43,5114.902958499966,,,,,,,,,,,,,5114.887950200005,5114.902958499966,5114.902958499966,5114.902958499966,5125.060560500016,,,,5125.070368499961,5125.080224400037,5125.080224400037,5125.125794199994,5125.126039800001,5125.142511000042,5125.142511000042,5125.142511000042,5125.225576100056,5128.139912300045,,,,5127.2402799000265,5128.156072600046,5128.156072600046,5128.156072600046,,,,,,,,,,,,,,,,,down,10.149233300006017,None,None,,,P123,001,2025-02-25_12h53.18.255,posner_endo_new1,2024.2.4,59.97148953226856,2025-02-25 12h53.25.536002 +0000,
cube_l.png,0.1,0.31,invalid,44,44,0,down,7.135798200033605,None,space,0.46365290007088333,None,,,,,,,,,0,44,44,44,5128.156072600046,,,,,,,,,,,,,5128.140105300001,5128.156072600046,5128.156072600046,5128.156072600046,5135.300918500056,,,,5135.318658299977,5135.330149400048,5135.330149400048,5135.36551230005,5135.365818600054,5135.3820257000625,5135.3820257000625,5135.3820257000625,5135.46528340003,5135.849739099969,,,,,,,,,,,,,,,,,,,,,,,,down,7.135798200033605,None,space,0.46365290007088333,None,P123,001,2025-02-25_12h53.18.255,posner_endo_new1,2024.2.4,59.97148953226856,2025-02-25 12h53.25.536002 +0000,
cube_l.png,0.1,0.31,invalid,45,45,0,down,11.572112299967557,None,space,0.44846440001856536,None,,,,,,,,,0,45,45,45,5135.8648607999785,,,,,,,,,,,,,5135.850032999995,5135.8648607999785,5135.8648607999785,5135.8648607999785,5147.454049900058,,,,5147.465170899988,5147.475132700056,5147.475132700056,5147.519785500015,5147.520133499987,5147.536312500015,5147.536312500015,5147.536312500015,5147.619525999995,5147.987154599978,,,,,,,,,,,,,,,,,,,,,,,,down,11.572112299967557,None,space,0.44846440001856536,None,P123,001,2025-02-25_12h53.18.255,posner_endo_new1,2024.2.4,59.97148953226856,2025-02-25 12h53.25.536002 +0000,
cube_r.png,0.1,0.31,valid,46,46,0,down,14.851009799982421,None,space,0.3320518999826163,None,,,,,,,,,0,46,46,46,5148.002460299991,,,,,,,,,,,,,5147.987447499996,5148.002460299991,5148.002460299991,5148.002460299991,5162.85514400003,,,,5162.866170700057,5162.876532100025,5162.876532100025,5162.920699900016,5162.921038800036,5162.937250399962,5162.937250399962,5162.937250399962,5163.020471600001,5163.271577800042,,,,,,,,,,,,,,,,,,,,,,,,down,14.851009799982421,None,space,0.3320518999826163,None,P123,001,2025-02-25_12h53.18.255,posner_endo_new1,2024.2.4,59.97148953226856,2025-02-25 12h53.25.536002 +0000,
cube_l.png,0.1,-0.31,valid,47,47,0,down,9.029064500005916,None,space,0.46896889992058277,None,,,,,,,,,0,47,47,47,5163.28679100005,,,,,,,,,,,,,5163.271884900052,5163.28679100005,5163.28679100005,5163.28679100005,5172.328832300031,,,,5172.339856900042,5172.350096900016,5172.350096900016,5172.394277499989,5172.3946277999785,5172.410882299999,5172.410882299999,5172.410882299999,5172.494095599977,5172.894776599947,,,,,,,,,,,,,,,,,,,,,,,,down,9.029064500005916,None,space,0.46896889992058277,None,P123,001,2025-02-25_12h53.18.255,posner_endo_new1,2024.2.4,59.97148953226856,2025-02-25 12h53.25.536002 +0000,
cube_r.png,0.1,-0.31,invalid,48,48,0,down,10.742567799985409,None,space,0.30374889995437115,None,,,,,,,,,0,48,48,48,5172.910349200014,,,,,,,,,,,,,5172.895080400049,5172.910349200014,5172.910349200014,5172.910349200014,5183.667203900055,,,,5183.678244999959,5183.688604800031,5183.688604800031,5183.732853200054,5183.733193599968,5183.749216099968,5183.749216099968,5183.749216099968,5183.832613399951,5184.066773999948,,,,,,,,,,,,,,,,,,,,,,,,down,10.742567799985409,None,space,0.30374889995437115,None,P123,001,2025-02-25_12h53.18.255,posner_endo_new1,2024.2.4,59.97148953226856,2025-02-25 12h53.25.536002 +0000,
cube_r.png,0.1,10,catch,49,49,0,down,11.682652299990878,None,None,,,,,,,,,,,0,49,49,49,5184.0822841000045,,,,,,,,,,,,,5184.067070699995,5184.0822841000045,5184.0822841000045,5184.0822841000045,5195.77143600001,,,,5195.778185200063,5195.790015100036,5195.790015100036,5195.836896899971,5195.83713390003,5195.853548599989,5195.853548599989,5195.853548599989,5195.936886099982,5198.851016400033,,,,5197.951408899971,5198.867048299988,5198.867048299988,5198.867048299988,,,,,,,,,,,,,,,,,down,11.682652299990878,None,None,,,P123,001,2025-02-25_12h53.18.255,posner_endo_new1,2024.2.4,59.97148953226856,2025-02-25 12h53.25.536002 +0000,
cube_l.png,0.1,-0.31,valid,50,50,0,down,7.281096699996851,None,space,0.37061520002316684,None,,,,,,,,,0,50,50,50,5198.867048299988,,,,,,,,,,,,,5198.85119299998,5198.867048299988,5198.867048299988,5198.867048299988,5206.160597000038,,,,5206.167221499956,5206.179084300064,5206.179084300064,5206.226393499994,5206.226891000057,5206.24276709999,5206.24276709999,5206.24276709999,5206.326066700043,5206.627532499959,,,,,,,,,,,,,,,,,,,,,,,,down,7.281096699996851,None,space,0.37061520002316684,None,P123,001,2025-02-25_12h53.18.255,posner_endo_new1,2024.2.4,59.97148953226856,2025-02-25 12h53.25.536002 +0000,
cube_l.png,0.1,-0.31,valid,51,51,0,down,10.105753600015305,None,space,0.693980900105089,None,,,,,,,,,0,51,51,51,5206.642387000029,,,,,,,,,,,,,5206.627984700026,5206.642387000029,5206.642387000029,5206.642387000029,5216.7503333999775,,,,5216.761381600052,5216.771755199996,5216.771755199996,5216.815602599992,5216.815942300018,5216.832192300004,5216.832192300004,5216.832192300004,5216.915406499989,5217.532743799966,,,,,,,,,,,,,,,,,,,,,,,,down,10.105753600015305,None,space,0.693980900105089,None,P123,001,2025-02-25_12h53.18.255,posner_endo_new1,2024.2.4,59.97148953226856,2025-02-25 12h53.25.536002 +0000,
cube_r.png,0.1,-0.31,invalid,52,52,0,down,9.704355900059454,None,space,0.42310899996664375,None,,,,,,,,,0,52,52,52,5217.548134800047,,,,,,,,,,,,,5217.533040700015,5217.548134800047,5217.548134800047,5217.548134800047,5227.2559710999485,,,,5227.267027099966,5227.277293500025,5227.277293500025,5227.321467999951,5227.321810499998,5227.338056899956,5227.338056899956,5227.338056899956,5227.42120760004,5227.772197499988,,,,,,,,,,,,,,,,,,,,,,,,down,9.704355900059454,None,space,0.42310899996664375,None,P123,001,2025-02-25_12h53.18.255,posner_endo_new1,2024.2.4,59.97148953226856,2025-02-25 12h53.25.536002 +0000,
cube_l.png,0.1,-0.31,valid,53,53,0,down,11.089862899971195,None,space,0.2860771999694407,None,,,,,,,,,0,53,53,53,5227.787467399961,,,,,,,,,,,,,5227.772494100034,5227.787467399961,5227.787467399961,5227.787467399961,5238.8941071999725,,,,5238.905282299966,5238.915335900034,5238.915335900034,5238.959711099975,5238.960052200011,5238.976088099997,5238.976088099997,5238.976088099997,5239.059458200005,5239.277101699961,,,,,,,,,,,,,,,,,,,,,,,,down,11.089862899971195,None,space,0.2860771999694407,None,P123,001,2025-02-25_12h53.18.255,posner_endo_new1,2024.2.4,59.97148953226856,2025-02-25 12h53.25.536002 +0000,
cube_r.png,0.1,10,catch,54,54,0,down,10.671926299924962,None,None,,,,,,,,,,,0,54,54,54,5239.292429200024,,,,,,,,,,,,,5239.277395799989,5239.292429200024,5239.292429200024,5239.292429200024,5249.966356400051,,,,5249.977422000025,5249.98763540003,5249.98763540003,5250.031781799975,5250.032122500008,5250.04815269995,5250.04815269995,5250.04815269995,5250.131923499983,5253.045847499976,,,,5252.1461610000115,5253.0617107000435,5253.0617107000435,5253.0617107000435,,,,,,,,,,,,,,,,,down,10.671926299924962,None,None,,,P123,001,2025-02-25_12h53.18.255,posner_endo_new1,2024.2.4,59.97148953226856,2025-02-25 12h53.25.536002 +0000,
cube_l.png,0.1,0.31,invalid,55,55,0,down,7.239297699998133,None,space,0.45522230002097785,None,,,,,,,,,0,55,55,55,5253.0617107000435,,,,,,,,,,,,,5253.046120899962,5253.0617107000435,5253.0617107000435,5253.0617107000435,5260.305557099986,,,,5260.316659200005,5260.32708279998,5260.32708279998,5260.371049999958,5260.37140579999,5260.387681000051,5260.387681000051,5260.387681000051,5260.470853399951,5260.855042899959,,,,,,,,,,,,,,,,,,,,,,,,down,7.239297699998133,None,space,0.45522230002097785,None,P123,001,2025-02-25_12h53.18.255,posner_endo_new1,2024.2.4,59.97148953226856,2025-02-25 12h53.25.536002 +0000,
cube_l.png,0.1,-0.31,valid,56,56,0,down,10.414149199961685,None,space,0.3732900999020785,None,,,,,,,,,0,56,56,56,5260.870444800006,,,,,,,,,,,,,5260.855336299981,5260.870444800006,5260.870444800006,5260.870444800006,5271.294415200013,,,,5271.305502800038,5271.315822200035,5271.315822200035,5271.35994590004,5271.360284000053,5271.376390399993,5271.376390399993,5271.376390399993,5271.459745100001,5271.760502999998,,,,,,,,,,,,,,,,,,,,,,,,down,10.414149199961685,None,space,0.3732900999020785,None,P123,001,2025-02-25_12h53.18.255,posner_endo_new1,2024.2.4,59.97148953226856,2025-02-25 12h53.25.536002 +0000,
cube_r.png,0.1,0.31,valid,57,57,0,down,10.140338400029577,None,space,0.4312256999546662,None,,,,,,,,,0,57,57,57,5271.775987999979,,,,,,,,,,,,,5271.760798700037,5271.775987999979,5271.775987999979,5271.775987999979,5281.933324999991,,,,5281.941782800015,5281.951667799964,5281.951667799964,5281.999045000062,5281.999292699969,5282.015577399987,5282.015577399987,5282.015577399987,5282.098759999964,5282.449552200036,,,,,,,,,,,,,,,,,,,,,,,,down,10.140338400029577,None,space,0.4312256999546662,None,P123,001,2025-02-25_12h53.18.255,posner_endo_new1,2024.2.4,59.97148953226856,2025-02-25 12h53.25.536002 +0000,
cube_r.png,0.1,-0.31,invalid,58,58,0,down,11.467489899951033,None,space,0.3512817999580875,None,,,,,,,,,0,58,58,58,5282.465257799951,,,,,,,,,,,,,5282.449754799949,5282.465257799951,5282.465257799951,5282.465257799951,5293.937457000022,,,,5293.9445628999965,5293.95636219997,5293.95636219997,5294.003351600026,5294.003599100048,5294.019900299958,5294.019900299958,5294.019900299958,5294.086421999964,5294.387049800018,,,,,,,,,,,,,,,,,,,,,,,,down,11.467489899951033,None,space,0.3512817999580875,None,P123,001,2025-02-25_12h53.18.255,posner_endo_new1,2024.2.4,59.97148953226856,2025-02-25 12h53.25.536002 +0000,
cube_l.png,0.1,0.31,invalid,59,59,0,down,11.296997900004499,None,space,0.48720510001294315,None,,,,,,,,,0,59,59,59,5294.403041400015,,,,,,,,,,,,,5294.387269100058,5294.403041400015,5294.403041400015,5294.403041400015,5305.708750999998,,,,5305.715949299978,5305.727670900058,5305.727670900058,5305.774788500043,5305.77504019998,5305.791283000028,5305.791283000028,5305.791283000028,5305.857770300005,5306.291677000001,,,,,,,,,,,,,,,,,,,,,,,,down,11.296997900004499,None,space,0.48720510001294315,None,P123,001,2025-02-25_12h53.18.255,posner_endo_new1,2024.2.4,59.97148953226856,2025-02-25 12h53.25.536002 +0000,
