cue_img,cue_soa,target_x,trial,thisN,thisTrialN,thisRepN,key_control2.keys,key_control2.rt,key_control2.duration,key_resp.keys,key_resp.rt,key_resp.duration,practice.thisRepN,practice.thisTrialN,practice.thisN,practice.thisIndex,block1.thisRepN,block1.thisTrialN,block1.thisN,block1.thisIndex,block2.thisRepN,block2.thisTrialN,block2.thisN,block2.thisIndex,thisRow.t,notes,instructions.started,instructions_txt.started,key_control.started,instructions.stopped,key_control.keys,key_control.rt,key_control.duration,ready.started,ready_txt.started,ready_txt.stopped,ready.stopped,fix.started,fixation.started,key_control2.started,fixation_cross.started,fix.stopped,practice.key_control2.keys,practice.key_control2.rt,practice.key_control2.duration,cue.started,cube.started,fixation_cross_cue.started,cue.stopped,target.started,fixation_target.started,fixation_cross_target.started,key_resp.started,star.started,target.stopped,practice.key_resp.keys,practice.key_resp.rt,practice.key_resp.duration,star.stopped,fixation_target.stopped,fixation_cross_target.stopped,key_resp.stopped,cube.stopped,fixation_cross_cue.stopped,block1.key_control2.keys,block1.key_control2.rt,block1.key_control2.duration,block1.key_resp.keys,block1.key_resp.rt,block1.key_resp.duration,break_2.started,text.started,key_control3.started,text.stopped,break_2.stopped,key_control3.keys,key_control3.rt,key_control3.duration,block2.key_control2.keys,block2.key_control2.rt,block2.key_control2.duration,block2.key_resp.keys,block2.key_resp.rt,block2.key_resp.duration,participant,session,date,expName,psychopyVersion,frameRate,expStart,
,,,,,,,,,,,,,,,,,,,,,,,,,,,0.007615300011821091,0.024743400048464537,0.024743400048464537,321.5505521000596,up,321.5155109000625,None,,,,,,,,,,,,,,,,,,,,,,,,,,,,,,,,,,,,,,,,,,,,,,,,,,,,P124,001,2025-02-25_14h49.56.329,posner_endo_new1,2024.2.4,60.04924040253803,2025-02-25 14h50.03.739167 +0000,
,,,,,,,,,,,,,,,,,,,,,,,,,,,,,,,,,,321.5506034999853,321.56343850004487,324.563693300006,324.54417759994976,,,,,,,,,,,,,,,,,,,,,,,,,,,,,,,,,,,,,,,,,,,,,,,,P124,001,2025-02-25_14h49.56.329,posner_endo_new1,2024.2.4,60.04924040253803,2025-02-25 14h50.03.739167 +0000,
cube_l.png,0.1,-0.31,valid,0,0,0,down,4.616330200107768,None,space,0.4882697999710217,None,0,0,0,0,,,,,,,,,324.563693300006,,,,,,,,,,,,,324.5513906000415,324.563693300006,324.563693300006,324.563693300006,329.1900378999999,down,4.616330200107768,None,329.2012348000426,329.21141160000116,329.21141160000116,329.25602149998304,329.2562589000445,329.27236259996425,329.27236259996425,329.27236259996425,329.3560518999584,329.7724143000087,space,0.4882697999710217,None,,,,,,,,,,,,,,,,,,,,,,,,,,,P124,001,2025-02-25_14h49.56.329,posner_endo_new1,2024.2.4,60.04924040253803,2025-02-25 14h50.03.739167 +0000,
cube_l.png,0.1,0.31,invalid,1,1,0,down,2.7277633999474347,None,space,0.4402329999720678,None,0,1,1,1,,,,,,,,,329.7887305000331,,,,,,,,,,,,,329.7725782999769,329.7887305000331,329.7887305000331,329.7887305000331,332.51952620001975,down,2.7277633999474347,None,332.5256231999956,332.5373099000426,332.5373099000426,332.5859137000516,332.58614130003843,332.60251989995595,332.60251989995595,332.60251989995595,332.6691772999475,333.0528007999528,space,0.4402329999720678,None,,,,,,,,,,,,,,,,,,,,,,,,,,,P124,001,2025-02-25_14h49.56.329,posner_endo_new1,2024.2.4,60.04924040253803,2025-02-25 14h50.03.739167 +0000,
cube_r.png,0.1,-0.31,invalid,2,2,0,down,7.79187059996184,None,space,0.34892569994553924,None,0,2,2,2,,,,,,,,,333.06846900004894,,,,,,,,,,,,,333.0529695999576,333.06846900004894,333.06846900004894,333.06846900004894,340.86185190000106,down,7.79187059996184,None,340.86777699994855,340.87972710002214,340.87972710002214,340.9277952000266,340.92802989995107,340.94414759997744,340.94414759997744,340.94414759997744,341.02730399998836,341.29450469999574,space,0.34892569994553924,None,,,,,,,,,,,,,,,,,,,,,,,,,,,P124,001,2025-02-25_14h49.56.329,posner_endo_new1,2024.2.4,60.04924040253803,2025-02-25 14h50.03.739167 +0000,
cube_r.png,0.1,10,catch,3,3,0,down,7.238172099925578,None,None,,,0,3,3,3,,,,,,,,,341.31028980005067,,,,,,,,,,,,,341.29466789995786,341.31028980005067,341.31028980005067,341.31028980005067,348.5535140000284,down,7.238172099925578,None,348.5593710000394,348.57094310002867,348.57094310002867,348.61963049997576,348.61986029997934,348.6361027000239,348.6361027000239,348.6361027000239,348.7194613000611,351.6334791999543,None,,,350.73393630003557,351.64969350001775,351.64969350001775,351.64969350001775,,,,,,,,,,,,,,,,,,,,,,,P124,001,2025-02-25_14h49.56.329,posner_endo_new1,2024.2.4,60.04924040253803,2025-02-25 14h50.03.739167 +0000,
cube_l.png,0.1,-0.31,valid,4,4,0,down,3.027312000049278,None,space,0.3521292000077665,None,0,4,4,4,,,,,,,,,351.64969350001775,,,,,,,,,,,,,351.63363099994604,351.64969350001775,351.64969350001775,351.64969350001775,354.68033160001505,down,3.027312000049278,None,354.68621610000264,354.6978811000008,354.6978811000008,354.7466176999733,354.7468583000591,354.76317239995115,354.76317239995115,354.76317239995115,354.8298246000195,355.13010249997023,space,0.3521292000077665,None,,,,,,,,,,,,,,,,,,,,,,,,,,,P124,001,2025-02-25_14h49.56.329,posner_endo_new1,2024.2.4,60.04924040253803,2025-02-25 14h50.03.739167 +0000,
cube_l.png,0.1,0.31,invalid,5,5,0,down,7.7064343999372795,None,space,0.3196100000059232,None,0,5,5,5,,,,,,,,,355.14596760005224,,,,,,,,,,,,,355.1302720999811,355.14596760005224,355.14596760005224,355.14596760005224,362.85551749996375,down,7.7064343999372795,None,362.8612501999596,362.8728021000279,362.8728021000279,362.9212797000073,362.92151060001925,362.9381392999785,362.9381392999785,362.9381392999785,363.00462949997745,363.2718337000115,space,0.3196100000059232,None,,,,,,,,,,,,,,,,,,,,,,,,,,,P124,001,2025-02-25_14h49.56.329,posner_endo_new1,2024.2.4,60.04924040253803,2025-02-25 14h50.03.739167 +0000,
cube_r.png,0.1,-0.31,invalid,6,6,0,down,8.684634800069034,None,space,0.40899639995768666,None,0,6,6,6,,,,,,,,,363.2877877999563,,,,,,,,,,,,,363.27199649997056,363.2877877999563,363.2877877999563,363.2877877999563,371.97957209998276,down,8.684634800069034,None,371.9854429999832,371.9974559999537,371.9974559999537,372.0456556000281,372.04588939994574,372.06216560001485,372.06216560001485,372.06216560001485,372.12845179997385,372.4785748999566,space,0.40899639995768666,None,,,,,,,,,,,,,,,,,,,,,,,,,,,P124,001,2025-02-25_14h49.56.329,posner_endo_new1,2024.2.4,60.04924040253803,2025-02-25 14h50.03.739167 +0000,
cube_r.png,0.1,0.31,valid,7,7,0,down,9.333920700009912,None,space,0.32367399998474866,None,0,7,7,7,,,,,,,,,372.4949935999466,,,,,,,,,,,,,372.4787443999667,372.4949935999466,372.4949935999466,372.4949935999466,381.8356801000191,down,9.333920700009912,None,381.84151970001403,381.85288090002723,381.85288090002723,381.8859320000047,381.8861538999481,381.9019419000251,381.9019419000251,381.9019419000251,381.98528380005155,382.23601079999935,space,0.32367399998474866,None,,,,,381.9019419000251,381.9019419000251,,,,,,,,,,,,,,,,,,,,,P124,001,2025-02-25_14h49.56.329,posner_endo_new1,2024.2.4,60.04924040253803,2025-02-25 14h50.03.739167 +0000,
cube_l.png,0.1,-0.31,valid,8,8,0,down,5.67326419998426,None,space,0.4104628999484703,None,0,8,8,8,,,,,,,,,382.25170689995866,,,,,,,,,,,,,382.2361736999592,382.25170689995866,382.25170689995866,382.25170689995866,387.9296556999907,down,5.67326419998426,None,387.9354803999886,387.9471147999866,387.9471147999866,387.99605329998303,387.99628530000336,388.0126421999885,388.0126421999885,388.0126421999885,388.07923759997357,388.42965009994805,space,0.4104628999484703,None,,,,,,,,,,,,,,,,,,,,,,,,,,,P124,001,2025-02-25_14h49.56.329,posner_endo_new1,2024.2.4,60.04924040253803,2025-02-25 14h50.03.739167 +0000,
cube_r.png,0.1,-0.31,invalid,9,9,0,down,2.9990958999842405,None,space,0.39592569996602833,None,0,9,9,9,,,,,,,,,388.4452232000185,,,,,,,,,,,,,388.4298128000228,388.4452232000185,388.4452232000185,388.4452232000185,391.4594984999858,down,2.9990958999842405,None,391.46524930000305,391.4767913999967,391.4767913999967,391.5255414999556,391.5257722999668,391.542305400013,391.542305400013,391.542305400013,391.60869539994746,391.94256760005374,space,0.39592569996602833,None,,,,,,,,,,,,,,,,,,,,,,,,,,,P124,001,2025-02-25_14h49.56.329,posner_endo_new1,2024.2.4,60.04924040253803,2025-02-25 14h50.03.739167 +0000,
cube_r.png,0.1,0.31,valid,10,10,0,down,5.094762500026263,None,space,0.29007129999808967,None,0,10,10,10,,,,,,,,,391.95822459994815,,,,,,,,,,,,,391.94273060001433,391.95822459994815,391.95822459994815,391.95822459994815,397.0539021999575,down,5.094762500026263,None,397.0596926000435,397.07116870000027,397.07116870000027,397.1198077000445,397.1200411999598,397.1364167999709,397.1364167999709,397.1364167999709,397.2195922000101,397.4366612000158,space,0.29007129999808967,None,,,,,,,,,,,,,,,,,,,,,,,,,,,P124,001,2025-02-25_14h49.56.329,posner_endo_new1,2024.2.4,60.04924040253803,2025-02-25 14h50.03.739167 +0000,
,,,,,,,,,,,,,,,,,,,,,,,,,,,,,,,,,,397.43677130003925,397.45267699996475,400.45591619994957,400.43368729995564,,,,,,,,,,,,,,,,,,,,,,,,,,,,,,,,,,,,,,,,,,,,,,,,P124,001,2025-02-25_14h49.56.329,posner_endo_new1,2024.2.4,60.04924040253803,2025-02-25 14h50.03.739167 +0000,
cube_l.png,0.1,10,catch,0,0,0,down,9.276677799993195,None,space,0.2646476000081748,None,,,,,0,0,0,0,,,,,400.45591619994957,,,,,,,,,,,,,400.44714539998677,400.45591619994957,400.45591619994957,400.45591619994957,409.74043040000834,,,,409.7462320999475,409.75766180001665,409.75766180001665,409.79069259995595,409.7909163000295,409.80646770005114,409.80646770005114,409.80646770005114,409.8902460000245,410.07385409995914,,,,,,,,409.80646770005114,409.80646770005114,down,9.276677799993195,None,space,0.2646476000081748,None,,,,,,,,,,,,,,,P124,001,2025-02-25_14h49.56.329,posner_endo_new1,2024.2.4,60.04924040253803,2025-02-25 14h50.03.739167 +0000,
cube_l.png,0.1,10,catch,1,1,0,down,8.979457600042224,None,None,,,,,,,0,1,1,1,,,,,410.08989409997594,,,,,,,,,,,,,410.0740309000248,410.08989409997594,410.08989409997594,410.08989409997594,419.083304699976,,,,419.10557240003254,419.11615819996223,419.11615819996223,419.1470921,419.14744019997306,419.1635217999574,419.1635217999574,419.1635217999574,419.2472621999914,422.1615810999647,,,,421.26198489998933,422.17731800000183,422.17731800000183,422.17731800000183,,,down,8.979457600042224,None,None,,,,,,,,,,,,,,,,,P124,001,2025-02-25_14h49.56.329,posner_endo_new1,2024.2.4,60.04924040253803,2025-02-25 14h50.03.739167 +0000,
cube_l.png,0.1,0.31,invalid,2,2,0,down,4.731716500013135,None,space,0.3262295000022277,None,,,,,0,2,2,2,,,,,422.17731800000183,,,,,,,,,,,,,422.1618382000597,422.17731800000183,422.17731800000183,422.17731800000183,426.92370100005064,,,,426.9341779999668,426.9444405999966,426.9444405999966,426.98915040004067,426.98949449998327,427.005777399987,427.005777399987,427.005777399987,427.0891606999794,427.34019530005753,,,,,,,,,,down,4.731716500013135,None,space,0.3262295000022277,None,,,,,,,,,,,,,,,P124,001,2025-02-25_14h49.56.329,posner_endo_new1,2024.2.4,60.04924040253803,2025-02-25 14h50.03.739167 +0000,
cube_l.png,0.1,0.31,invalid,3,3,0,down,3.8335934000788257,None,space,0.371474799932912,None,,,,,0,3,3,3,,,,,427.3557012999663,,,,,,,,,,,,,427.34048090002034,427.3557012999663,427.3557012999663,427.3557012999663,431.2023938000202,,,,431.2126153999707,431.2229461000534,431.2229461000534,431.2681576999603,431.2685028000269,431.2848903000122,431.2848903000122,431.2848903000122,431.36818680004217,431.6690248999512,,,,,,,,,,down,3.8335934000788257,None,space,0.371474799932912,None,,,,,,,,,,,,,,,P124,001,2025-02-25_14h49.56.329,posner_endo_new1,2024.2.4,60.04924040253803,2025-02-25 14h50.03.739167 +0000,
cube_l.png,0.1,-0.31,valid,4,4,0,down,4.776134600047953,None,space,0.332267599995248,None,,,,,0,4,4,4,,,,,431.6842744000023,,,,,,,,,,,,,431.66931529995054,431.6842744000023,431.6842744000023,431.6842744000023,436.4643311999971,,,,436.47883599996567,436.48937860003207,436.48937860003207,436.52946979994886,436.52992030000314,436.54591059999075,436.54591059999075,436.54591059999075,436.6291701999726,436.88066160003655,,,,,,,,,,down,4.776134600047953,None,space,0.332267599995248,None,,,,,,,,,,,,,,,P124,001,2025-02-25_14h49.56.329,posner_endo_new1,2024.2.4,60.04924040253803,2025-02-25 14h50.03.739167 +0000,
cube_r.png,0.1,-0.31,invalid,5,5,0,down,6.1570146000012755,None,space,0.33709429996088147,None,,,,,0,5,5,5,,,,,436.89561769994907,,,,,,,,,,,,,436.8810352999717,436.89561769994907,436.89561769994907,436.89561769994907,443.0570939000463,,,,443.06665159994736,443.07697349996306,443.07697349996306,443.1227414000314,443.12305739999283,443.139571000007,443.139571000007,443.139571000007,443.22247579996474,443.4899935000576,,,,,,,,,,down,6.1570146000012755,None,space,0.33709429996088147,None,,,,,,,,,,,,,,,P124,001,2025-02-25_14h49.56.329,posner_endo_new1,2024.2.4,60.04924040253803,2025-02-25 14h50.03.739167 +0000,
cube_r.png,0.1,0.31,valid,6,6,0,down,4.683383200084791,None,space,0.30545760004315525,None,,,,,0,6,6,6,,,,,443.50544189999346,,,,,,,,,,,,,443.49024850002024,443.50544189999346,443.50544189999346,443.50544189999346,448.2021791000152,,,,448.21169619995635,448.22204809996765,448.22204809996765,448.2678007000359,448.26811459998135,448.284097100026,448.284097100026,448.284097100026,448.36725849995855,448.6011759999674,,,,,,,,,,down,4.683383200084791,None,space,0.30545760004315525,None,,,,,,,,,,,,,,,P124,001,2025-02-25_14h49.56.329,posner_endo_new1,2024.2.4,60.04924040253803,2025-02-25 14h50.03.739167 +0000,
cube_r.png,0.1,-0.31,invalid,7,7,0,down,5.204159899963997,None,space,0.31504310003947467,None,,,,,0,7,7,7,,,,,448.61688360001426,,,,,,,,,,,,,448.6014283000259,448.61688360001426,448.61688360001426,448.61688360001426,453.8295633000089,,,,453.83892490004655,453.84916109999176,453.84916109999176,453.8950643000426,453.8953830000246,453.91185719997156,453.91185719997156,453.91185719997156,453.9947639000602,454.2291969000362,,,,,,,,,,down,5.204159899963997,None,space,0.31504310003947467,None,,,,,,,,,,,,,,,P124,001,2025-02-25_14h49.56.329,posner_endo_new1,2024.2.4,60.04924040253803,2025-02-25 14h50.03.739167 +0000,
cube_l.png,0.1,-0.31,valid,8,8,0,down,8.047992800013162,None,space,0.29237969999667257,None,,,,,0,8,8,8,,,,,454.2445324000437,,,,,,,,,,,,,454.22945029998664,454.2445324000437,454.2445324000437,454.2445324000437,462.3043085000245,,,,462.31379170005675,462.32398320001084,462.32398320001084,462.37003440002445,462.37034949997906,462.38621879997663,462.38621879997663,462.38621879997663,462.4694910000544,462.68706000002567,,,,,,,,,,down,8.047992800013162,None,space,0.29237969999667257,None,,,,,,,,,,,,,,,P124,001,2025-02-25_14h49.56.329,posner_endo_new1,2024.2.4,60.04924040253803,2025-02-25 14h50.03.739167 +0000,
cube_r.png,0.1,-0.31,invalid,9,9,0,down,8.814303599996492,None,space,0.3444395000115037,None,,,,,0,9,9,9,,,,,462.70256400003564,,,,,,,,,,,,,462.68731019995175,462.70256400003564,462.70256400003564,462.70256400003564,471.5278526999755,,,,471.5371376000112,471.5473806000082,471.5473806000082,471.5935246000299,471.5938471000409,471.6102363000391,471.6102363000391,471.6102363000391,471.67672129999846,471.9611141999485,,,,,,,,,,down,8.814303599996492,None,space,0.3444395000115037,None,,,,,,,,,,,,,,,P124,001,2025-02-25_14h49.56.329,posner_endo_new1,2024.2.4,60.04924040253803,2025-02-25 14h50.03.739167 +0000,
cube_l.png,0.1,0.31,invalid,10,10,0,down,6.115779199986719,None,space,0.34596519998740405,None,,,,,0,10,10,10,,,,,471.9767053000396,,,,,,,,,,,,,471.9613677000161,471.9767053000396,471.9767053000396,471.9767053000396,478.1044742000522,,,,478.1138111000182,478.12416959996335,478.12416959996335,478.17062260000966,478.1709431000054,478.18666060001124,478.18666060001124,478.18666060001124,478.2702177000465,478.5374279000098,,,,,,,,,,down,6.115779199986719,None,space,0.34596519998740405,None,,,,,,,,,,,,,,,P124,001,2025-02-25_14h49.56.329,posner_endo_new1,2024.2.4,60.04924040253803,2025-02-25 14h50.03.739167 +0000,
cube_r.png,0.1,-0.31,invalid,11,11,0,down,7.083731499966234,None,space,0.3458143000025302,None,,,,,0,11,11,11,,,,,478.55328999995254,,,,,,,,,,,,,478.5376839999808,478.55328999995254,478.55328999995254,478.55328999995254,485.64705939998385,,,,485.6564246000489,485.66666310001165,485.66666310001165,485.7127550999867,485.71307469997555,485.72903140005656,485.72903140005656,485.72903140005656,485.81251590000466,486.07982680003624,,,,,,,,,,down,7.083731499966234,None,space,0.3458143000025302,None,,,,,,,,,,,,,,,P124,001,2025-02-25_14h49.56.329,posner_endo_new1,2024.2.4,60.04924040253803,2025-02-25 14h50.03.739167 +0000,
cube_r.png,0.1,0.31,valid,12,12,0,down,6.533419599989429,None,space,0.2986148999771103,None,,,,,0,12,12,12,,,,,486.095295600011,,,,,,,,,,,,,486.0800890000537,486.095295600011,486.095295600011,486.095295600011,492.6400370999472,,,,492.64936389995273,492.6596126999939,492.6596126999939,492.70552870002575,492.70584900001995,492.72187370003667,492.72187370003667,492.72187370003667,492.8051051000366,493.02253990003373,,,,,,,,,,down,6.533419599989429,None,space,0.2986148999771103,None,,,,,,,,,,,,,,,P124,001,2025-02-25_14h49.56.329,posner_endo_new1,2024.2.4,60.04924040253803,2025-02-25 14h50.03.739167 +0000,
cube_l.png,0.1,10,catch,13,13,0,down,6.870813600020483,None,space,0.27899899997282773,None,,,,,0,13,13,13,,,,,493.0382613999536,,,,,,,,,,,,,493.0227929999819,493.0382613999536,493.0382613999536,493.0382613999536,499.91585350001696,,,,499.92530710005667,499.9356342999963,499.9356342999963,499.9813465999905,499.98166649998166,499.99785889999475,499.99785889999475,499.99785889999475,500.08127309998963,500.28184289997444,,,,,,,,,,down,6.870813600020483,None,space,0.27899899997282773,None,,,,,,,,,,,,,,,P124,001,2025-02-25_14h49.56.329,posner_endo_new1,2024.2.4,60.04924040253803,2025-02-25 14h50.03.739167 +0000,
cube_r.png,0.1,-0.31,invalid,14,14,0,down,7.155433099949732,None,space,0.37301819992717355,None,,,,,0,14,14,14,,,,,500.29774029995315,,,,,,,,,,,,,500.2820955000352,500.29774029995315,500.29774029995315,500.29774029995315,507.45788310002536,,,,507.4671806000406,507.4774724000599,507.4774724000599,507.5236430000514,507.5239614000311,507.54007790004835,507.54007790004835,507.54007790004835,507.60690530005377,507.9243463999592,,,,,,,,,,down,7.155433099949732,None,space,0.37301819992717355,None,,,,,,,,,,,,,,,P124,001,2025-02-25_14h49.56.329,posner_endo_new1,2024.2.4,60.04924040253803,2025-02-25 14h50.03.739167 +0000,
cube_l.png,0.1,-0.31,valid,15,15,0,down,7.961264699930325,None,space,0.38348990003578365,None,,,,,0,15,15,15,,,,,507.9397407999495,,,,,,,,,,,,,507.9246093999827,507.9397407999495,507.9397407999495,507.9397407999495,515.9158176999772,,,,515.9252252000151,515.9354410000378,515.9354410000378,515.9815863999538,515.9819078999572,515.9982915000292,515.9982915000292,515.9982915000292,516.0815490999958,516.3989703999832,,,,,,,,,,down,7.961264699930325,None,space,0.38348990003578365,None,,,,,,,,,,,,,,,P124,001,2025-02-25_14h49.56.329,posner_endo_new1,2024.2.4,60.04924040253803,2025-02-25 14h50.03.739167 +0000,
cube_r.png,0.1,10,catch,16,16,0,down,7.830140199977905,None,None,,,,,,,0,16,16,16,,,,,516.4144546999596,,,,,,,,,,,,,516.3992356000235,516.4144546999596,516.4144546999596,516.4144546999596,524.2571639999514,,,,524.266478799982,524.2768965000287,524.2768965000287,524.3233706000028,524.3236980000511,524.339947200031,524.339947200031,524.339947200031,524.4230454999488,527.3374914999586,,,,526.4377570999786,527.3530992000597,527.3530992000597,527.3530992000597,,,down,7.830140199977905,None,None,,,,,,,,,,,,,,,,,P124,001,2025-02-25_14h49.56.329,posner_endo_new1,2024.2.4,60.04924040253803,2025-02-25 14h50.03.739167 +0000,
cube_r.png,0.1,10,catch,17,17,0,down,3.2998245999915525,None,None,,,,,,,0,17,17,17,,,,,527.3530992000597,,,,,,,,,,,,,527.337726800004,527.3530992000597,527.3530992000597,527.3530992000597,530.6677056000335,,,,530.6767793999752,530.6864835000597,530.6864835000597,530.7334664999507,530.7336985999718,530.7495591000188,530.7495591000188,530.7495591000188,530.8334296999965,533.7472750999732,,,,532.8478338000132,533.7637493000366,533.7637493000366,533.7637493000366,,,down,3.2998245999915525,None,None,,,,,,,,,,,,,,,,,P124,001,2025-02-25_14h49.56.329,posner_endo_new1,2024.2.4,60.04924040253803,2025-02-25 14h50.03.739167 +0000,
cube_l.png,0.1,0.31,invalid,18,18,0,down,3.1856286000693217,None,space,0.44561169994995,None,,,,,0,18,18,18,,,,,533.7637493000366,,,,,,,,,,,,,533.7474431999726,533.7637493000366,533.7637493000366,533.7637493000366,536.9609886000399,,,,536.9668114000233,536.978486499982,536.978486499982,537.0271471999586,537.0273771999637,537.0435548999812,537.0435548999812,537.0435548999812,537.1268554000417,537.493595500011,,,,,,,,,,down,3.1856286000693217,None,space,0.44561169994995,None,,,,,,,,,,,,,,,P124,001,2025-02-25_14h49.56.329,posner_endo_new1,2024.2.4,60.04924040253803,2025-02-25 14h50.03.739167 +0000,
cube_l.png,0.1,10,catch,19,19,0,down,6.302650599973276,None,None,,,,,,,0,19,19,19,,,,,537.5098466000054,,,,,,,,,,,,,537.4937680000439,537.5098466000054,537.5098466000054,537.5098466000054,543.8202999000205,,,,543.8261214999948,543.8376361000119,543.8376361000119,543.8867537999758,543.8869912000373,543.9034050999908,543.9034050999908,543.9034050999908,543.9698947999859,546.9007531000534,,,,545.98444749997,546.9170540999621,546.9170540999621,546.9170540999621,,,down,6.302650599973276,None,None,,,,,,,,,,,,,,,,,P124,001,2025-02-25_14h49.56.329,posner_endo_new1,2024.2.4,60.04924040253803,2025-02-25 14h50.03.739167 +0000,
cube_l.png,0.1,0.31,invalid,20,20,0,down,4.7675019999733195,None,space,0.4045654000947252,None,,,,,0,20,20,20,,,,,546.9170540999621,,,,,,,,,,,,,546.9009149000049,546.9170540999621,546.9170540999621,546.9170540999621,551.6957904000301,,,,551.7016830999637,551.713295100024,551.713295100024,551.761994499946,551.7622268999694,551.778594500036,551.778594500036,551.778594500036,551.8452037000097,552.1953520999523,,,,,,,,,,down,4.7675019999733195,None,space,0.4045654000947252,None,,,,,,,,,,,,,,,P124,001,2025-02-25_14h49.56.329,posner_endo_new1,2024.2.4,60.04924040253803,2025-02-25 14h50.03.739167 +0000,
cube_l.png,0.1,-0.31,valid,21,21,0,down,7.7538538000080734,None,space,0.3608466999139637,None,,,,,0,21,21,21,,,,,552.2111477999715,,,,,,,,,,,,,552.1955251999898,552.2111477999715,552.2111477999715,552.2111477999715,559.9706325000152,,,,559.9764502999606,559.9883810000028,559.9883810000028,560.0363956999499,560.0366268999642,560.0533767000306,560.0533767000306,560.0533767000306,560.1199862000067,560.4205082999542,,,,,,,,,,down,7.7538538000080734,None,space,0.3608466999139637,None,,,,,,,,,,,,,,,P124,001,2025-02-25_14h49.56.329,posner_endo_new1,2024.2.4,60.04924040253803,2025-02-25 14h50.03.739167 +0000,
cube_r.png,0.1,0.31,valid,22,22,0,down,6.672671999898739,None,space,0.3273035000311211,None,,,,,0,22,22,22,,,,,560.4360844000475,,,,,,,,,,,,,560.4206850000191,560.4360844000475,560.4360844000475,560.4360844000475,567.1137454999844,,,,567.1195563999936,567.1312325999606,567.1312325999606,567.1794053999474,567.179635199951,567.1961648999713,567.1961648999713,567.1961648999713,567.2793269000249,567.5298902000068,,,,,,,,,,down,6.672671999898739,None,space,0.3273035000311211,None,,,,,,,,,,,,,,,P124,001,2025-02-25_14h49.56.329,posner_endo_new1,2024.2.4,60.04924040253803,2025-02-25 14h50.03.739167 +0000,
cube_r.png,0.1,-0.31,invalid,23,23,0,down,6.642902299994603,None,space,0.3233372999820858,None,,,,,0,23,23,23,,,,,567.5455883999821,,,,,,,,,,,,,567.5300633000443,567.5455883999821,567.5455883999821,567.5455883999821,574.1896515999688,,,,574.19560430001,574.207344800001,574.207344800001,574.2556335000554,574.2558631000575,574.2722116999794,574.2722116999794,574.2722116999794,574.3386421999894,574.6058331000386,,,,,,,,,,down,6.642902299994603,None,space,0.3233372999820858,None,,,,,,,,,,,,,,,P124,001,2025-02-25_14h49.56.329,posner_endo_new1,2024.2.4,60.04924040253803,2025-02-25 14h50.03.739167 +0000,
cube_r.png,0.1,0.31,valid,24,24,0,down,5.21502290002536,None,space,0.3414832999696955,None,,,,,0,24,24,24,,,,,574.6218477999792,,,,,,,,,,,,,574.6060049999505,574.6218477999792,574.6218477999792,574.6218477999792,579.850673399982,,,,579.8564696999965,579.8681090000318,579.8681090000318,579.9165837999899,579.9168152000057,579.9330064000096,579.9330064000096,579.9330064000096,580.0163946000393,580.2833253999706,,,,,,,,,,down,5.21502290002536,None,space,0.3414832999696955,None,,,,,,,,,,,,,,,P124,001,2025-02-25_14h49.56.329,posner_endo_new1,2024.2.4,60.04924040253803,2025-02-25 14h50.03.739167 +0000,
cube_r.png,0.1,-0.31,invalid,25,25,0,down,7.330139699974097,None,space,0.3313559000380337,None,,,,,0,25,25,25,,,,,580.2990985000506,,,,,,,,,,,,,580.2834991000127,580.2990985000506,580.2990985000506,580.2990985000506,587.6426646000473,,,,587.6486032999819,587.6603294999804,587.6603294999804,587.7083903000457,587.7086236999603,587.7251937000547,587.7251937000547,587.7251937000547,587.7915794999572,588.0585598000325,,,,,,,,,,down,7.330139699974097,None,space,0.3313559000380337,None,,,,,,,,,,,,,,,P124,001,2025-02-25_14h49.56.329,posner_endo_new1,2024.2.4,60.04924040253803,2025-02-25 14h50.03.739167 +0000,
cube_l.png,0.1,-0.31,valid,26,26,0,down,6.962171399965882,None,space,0.3523150000255555,None,,,,,0,26,26,26,,,,,588.0746866000118,,,,,,,,,,,,,588.0587354999734,588.0746866000118,588.0746866000118,588.0746866000118,595.0516449999996,,,,595.0574857000029,595.0690193000482,595.0690193000482,595.1177189999726,595.1179552000249,595.1341990999645,595.1341990999645,595.1341990999645,595.2173208000604,595.5006916000275,,,,,,,,,,down,6.962171399965882,None,space,0.3523150000255555,None,,,,,,,,,,,,,,,P124,001,2025-02-25_14h49.56.329,posner_endo_new1,2024.2.4,60.04924040253803,2025-02-25 14h50.03.739167 +0000,
cube_r.png,0.1,0.31,valid,27,27,0,down,6.272095400025137,None,space,0.40013090008869767,None,,,,,0,27,27,27,,,,,595.517080700025,,,,,,,,,,,,,595.5008641000604,595.517080700025,595.517080700025,595.517080700025,601.7948178000515,,,,601.8006147999549,601.8121529000346,601.8121529000346,601.8608033000492,601.8610376999713,601.8772690000478,601.8772690000478,601.8772690000478,601.944037099951,602.2942900999915,,,,,,,,,,down,6.272095400025137,None,space,0.40013090008869767,None,,,,,,,,,,,,,,,P124,001,2025-02-25_14h49.56.329,posner_endo_new1,2024.2.4,60.04924040253803,2025-02-25 14h50.03.739167 +0000,
cube_r.png,0.1,10,catch,28,28,0,down,6.655408399994485,None,None,,,,,,,0,28,28,28,,,,,602.3099933000049,,,,,,,,,,,,,602.2944612000138,602.3099933000049,602.3099933000049,602.3099933000049,608.9709174999734,,,,608.9767255999614,608.9882524999557,608.9882524999557,609.0366278999718,609.0368579999777,609.0533483000472,609.0533483000472,609.0533483000472,609.13657219999,612.0508160999743,,,,611.1512101000408,612.0668474000413,612.0668474000413,612.0668474000413,,,down,6.655408399994485,None,None,,,,,,,,,,,,,,,,,P124,001,2025-02-25_14h49.56.329,posner_endo_new1,2024.2.4,60.04924040253803,2025-02-25 14h50.03.739167 +0000,
cube_r.png,0.1,0.31,valid,29,29,0,down,5.649636900052428,None,space,0.40474480006378144,None,,,,,0,29,29,29,,,,,612.0668474000413,,,,,,,,,,,,,612.0509775000392,612.0668474000413,612.0668474000413,612.0668474000413,617.7282918000128,,,,617.7340140000451,617.7456707999809,617.7456707999809,617.7944146000082,617.7946494000498,617.8111799999606,617.8111799999606,617.8111799999606,617.8778426999925,618.2282195000444,,,,,,,,,,down,5.649636900052428,None,space,0.40474480006378144,None,,,,,,,,,,,,,,,P124,001,2025-02-25_14h49.56.329,posner_endo_new1,2024.2.4,60.04924040253803,2025-02-25 14h50.03.739167 +0000,
cube_r.png,0.1,0.31,valid,30,30,0,down,5.672788899973966,None,space,0.38194440002553165,None,,,,,0,30,30,30,,,,,618.2438900000416,,,,,,,,,,,,,618.2283922999632,618.2438900000416,618.2438900000416,618.2438900000416,623.9222386999754,,,,623.9281552999746,623.9396461000433,623.9396461000433,623.9879041999811,623.9881347999908,624.004707199987,624.004707199987,624.004707199987,624.0711221999954,624.3885207000421,,,,,,,,,,down,5.672788899973966,None,space,0.38194440002553165,None,,,,,,,,,,,,,,,P124,001,2025-02-25_14h49.56.329,posner_endo_new1,2024.2.4,60.04924040253803,2025-02-25 14h50.03.739167 +0000,
cube_l.png,0.1,-0.31,valid,31,31,0,down,6.976707699941471,None,space,0.4043288000393659,None,,,,,0,31,31,31,,,,,624.404312800034,,,,,,,,,,,,,624.388696399983,624.404312800034,624.404312800034,624.404312800034,631.3978618000401,,,,631.403667000006,631.4150100999977,631.4150100999977,631.4639747999609,631.4642078999896,631.480360000045,631.480360000045,631.480360000045,631.5471641999902,631.8973094000248,,,,,,,,,,down,6.976707699941471,None,space,0.4043288000393659,None,,,,,,,,,,,,,,,P124,001,2025-02-25_14h49.56.329,posner_endo_new1,2024.2.4,60.04924040253803,2025-02-25 14h50.03.739167 +0000,
cube_r.png,0.1,0.31,valid,32,32,0,down,6.17965159995947,None,space,0.31628449994605035,None,,,,,0,32,32,32,,,,,631.9131739999866,,,,,,,,,,,,,631.8974805000471,631.9131739999866,631.9131739999866,631.9131739999866,638.107325399993,,,,638.11308010004,638.1246537000407,638.1246537000407,638.1736953000072,638.1739286000375,638.190409700037,638.190409700037,638.190409700037,638.2568024999928,638.5075306999497,,,,,,,,,,down,6.17965159995947,None,space,0.31628449994605035,None,,,,,,,,,,,,,,,P124,001,2025-02-25_14h49.56.329,posner_endo_new1,2024.2.4,60.04924040253803,2025-02-25 14h50.03.739167 +0000,
cube_r.png,0.1,-0.31,invalid,33,33,0,down,7.201759599964134,None,space,0.40178559999912977,None,,,,,0,33,33,33,,,,,638.5233971000416,,,,,,,,,,,,,638.5077048999956,638.5233971000416,638.5233971000416,638.5233971000416,645.7333696000278,,,,645.7391433999874,645.7508795000613,645.7508795000613,645.799160100054,645.7994005000219,645.8153371999506,645.8153371999506,645.8153371999506,645.8991695999866,646.2328486000188,,,,,,,,,,down,7.201759599964134,None,space,0.40178559999912977,None,,,,,,,,,,,,,,,P124,001,2025-02-25_14h49.56.329,posner_endo_new1,2024.2.4,60.04924040253803,2025-02-25 14h50.03.739167 +0000,
cube_r.png,0.1,10,catch,34,34,0,down,6.4360836000414565,None,None,,,,,,,0,34,34,34,,,,,646.2487446999876,,,,,,,,,,,,,646.2330205000471,646.2487446999876,646.2487446999876,646.2487446999876,652.692629899946,,,,652.6984273999697,652.7099386999616,652.7099386999616,652.7585252999561,652.758757499978,652.7751047000056,652.7751047000056,652.7751047000056,652.8420433000429,655.7726227999665,,,,654.8561732999515,655.7889153000433,655.7889153000433,655.7889153000433,,,down,6.4360836000414565,None,None,,,,,,,,,,,,,,,,,P124,001,2025-02-25_14h49.56.329,posner_endo_new1,2024.2.4,60.04924040253803,2025-02-25 14h50.03.739167 +0000,
cube_r.png,0.1,0.31,valid,35,35,0,down,8.495826300000772,None,space,0.3944795000134036,None,,,,,0,35,35,35,,,,,655.7889153000433,,,,,,,,,,,,,655.7727874000557,655.7889153000433,655.7889153000433,655.7889153000433,664.2973817000166,,,,664.3031835999573,664.3148129000328,664.3148129000328,664.3637042000191,664.363939999952,664.3801982000005,664.3801982000005,664.3801982000005,664.4465745999478,664.78000290005,,,,,,,,,,down,8.495826300000772,None,space,0.3944795000134036,None,,,,,,,,,,,,,,,P124,001,2025-02-25_14h49.56.329,posner_endo_new1,2024.2.4,60.04924040253803,2025-02-25 14h50.03.739167 +0000,
cube_r.png,0.1,-0.31,invalid,36,36,0,down,9.080518599948846,None,space,0.39876649994403124,None,,,,,0,36,36,36,,,,,664.7962628999958,,,,,,,,,,,,,664.7801778999856,664.7962628999958,664.7962628999958,664.7962628999958,673.8876677999506,,,,673.893472100026,673.9050188000547,673.9050188000547,673.9537316999631,673.9539628999773,673.9703372999793,673.9703372999793,673.9703372999793,674.0370887999889,674.3707376000239,,,,,,,,,,down,9.080518599948846,None,space,0.39876649994403124,None,,,,,,,,,,,,,,,P124,001,2025-02-25_14h49.56.329,posner_endo_new1,2024.2.4,60.04924040253803,2025-02-25 14h50.03.739167 +0000,
cube_l.png,0.1,0.31,invalid,37,37,0,down,4.202203300083056,None,space,0.4890683999983594,None,,,,,0,37,37,37,,,,,674.3867509999545,,,,,,,,,,,,,674.3709104000591,674.3867509999545,674.3867509999545,674.3867509999545,678.59933430003,,,,678.6051277000224,678.6169883999974,678.6169883999974,678.6657446000027,678.6659817999462,678.6822082999861,678.6822082999861,678.6822082999861,678.74886469997,679.1823801000137,,,,,,,,,,down,4.202203300083056,None,space,0.4890683999983594,None,,,,,,,,,,,,,,,P124,001,2025-02-25_14h49.56.329,posner_endo_new1,2024.2.4,60.04924040253803,2025-02-25 14h50.03.739167 +0000,
cube_l.png,0.1,0.31,invalid,38,38,0,down,6.74278970004525,None,space,0.431850100052543,None,,,,,0,38,38,38,,,,,679.1983316000551,,,,,,,,,,,,,679.1825589999789,679.1983316000551,679.1983316000551,679.1983316000551,685.9425107999705,,,,685.9483397000004,685.9601632000413,685.9601632000413,686.0082138000289,686.0084473000607,686.0246515000472,686.0246515000472,686.0246515000472,686.1080353000434,686.4583146000514,,,,,,,,,,down,6.74278970004525,None,space,0.431850100052543,None,,,,,,,,,,,,,,,P124,001,2025-02-25_14h49.56.329,posner_endo_new1,2024.2.4,60.04924040253803,2025-02-25 14h50.03.739167 +0000,
cube_r.png,0.1,0.31,valid,39,39,0,down,5.762376100057736,None,space,0.517301700077951,None,,,,,0,39,39,39,,,,,686.4744469999569,,,,,,,,,,,,,686.4584889999824,686.4744469999569,686.4744469999569,686.4744469999569,692.2524894999806,,,,692.2582033999497,692.2698945000302,692.2698945000302,692.3184824000346,692.3187140000518,692.3349807000486,692.3349807000486,692.3349807000486,692.4180733000394,692.8685683000367,,,,,,,,,,down,5.762376100057736,None,space,0.517301700077951,None,,,,,,,,,,,,,,,P124,001,2025-02-25_14h49.56.329,posner_endo_new1,2024.2.4,60.04924040253803,2025-02-25 14h50.03.739167 +0000,
cube_l.png,0.1,0.31,invalid,40,40,0,down,7.840934199979529,None,space,0.4060568999266252,None,,,,,0,40,40,40,,,,,692.8846210000338,,,,,,,,,,,,,692.8687435999746,692.8846210000338,692.8846210000338,692.8846210000338,700.727662499994,,,,700.738852599985,700.7490829000017,700.7490829000017,700.7927024000091,700.7930587000446,700.809362799977,700.809362799977,700.809362799977,700.8929429999553,701.2266453000484,,,,,,,,,,down,7.840934199979529,None,space,0.4060568999266252,None,,,,,,,,,,,,,,,P124,001,2025-02-25_14h49.56.329,posner_endo_new1,2024.2.4,60.04924040253803,2025-02-25 14h50.03.739167 +0000,
cube_l.png,0.1,10,catch,41,41,0,down,7.690564400050789,None,None,,,,,,,0,41,41,41,,,,,701.2423359999666,,,,,,,,,,,,,701.2269332000287,701.2423359999666,701.2423359999666,701.2423359999666,708.9356797999935,,,,708.9470720000099,708.9572985999985,708.9572985999985,709.001475899946,709.0017319000326,709.0177207000088,709.0177207000088,709.0177207000088,709.1012649999466,712.0154417000012,,,,711.1159505000105,712.0314744999632,712.0314744999632,712.0314744999632,,,down,7.690564400050789,None,None,,,,,,,,,,,,,,,,,P124,001,2025-02-25_14h49.56.329,posner_endo_new1,2024.2.4,60.04924040253803,2025-02-25 14h50.03.739167 +0000,
cube_l.png,0.1,-0.31,valid,42,42,0,down,7.070007300004363,None,space,0.39156789996195585,None,,,,,0,42,42,42,,,,,712.0314744999632,,,,,,,,,,,,,712.0156290000305,712.0314744999632,712.0314744999632,712.0314744999632,719.1079888000386,,,,719.1150323000038,719.1269749000203,719.1269749000203,719.1738982000388,719.1741568000289,719.1905079999706,719.1905079999706,719.1905079999706,719.2574000000022,719.5908708999632,,,,,,,,,,down,7.070007300004363,None,space,0.39156789996195585,None,,,,,,,,,,,,,,,P124,001,2025-02-25_14h49.56.329,posner_endo_new1,2024.2.4,60.04924040253803,2025-02-25 14h50.03.739167 +0000,
cube_l.png,0.1,10,catch,43,43,0,down,7.446463599917479,None,None,,,,,,,0,43,43,43,,,,,719.6071015000343,,,,,,,,,,,,,719.5910770000191,719.6071015000343,719.6071015000343,719.6071015000343,727.0663605000591,,,,727.072142799967,727.0837159999646,727.0837159999646,727.1166398000205,727.1168596999487,727.1326072999509,727.1326072999509,727.1326072999509,727.2159038999816,730.1300123999827,,,,729.2304323000135,730.1460328999674,730.1460328999674,730.1460328999674,727.1326072999509,727.1326072999509,down,7.446463599917479,None,None,,,,,,,,,,,,,,,,,P124,001,2025-02-25_14h49.56.329,posner_endo_new1,2024.2.4,60.04924040253803,2025-02-25 14h50.03.739167 +0000,
cube_l.png,0.1,0.31,invalid,44,44,0,down,3.3711276999674737,None,space,0.4413086000131443,None,,,,,0,44,44,44,,,,,730.1460328999674,,,,,,,,,,,,,730.1301713000285,730.1460328999674,730.1460328999674,730.1460328999674,733.5268985000439,,,,733.532680699951,733.5442858999595,733.5442858999595,733.5930880999658,733.5933195999824,733.6091757999966,733.6091757999966,733.6091757999966,733.6927589999977,734.0598133000312,,,,,,,,,,down,3.3711276999674737,None,space,0.4413086000131443,None,,,,,,,,,,,,,,,P124,001,2025-02-25_14h49.56.329,posner_endo_new1,2024.2.4,60.04924040253803,2025-02-25 14h50.03.739167 +0000,
cube_l.png,0.1,0.31,invalid,45,45,0,down,6.826127000036649,None,space,0.42043940001167357,None,,,,,0,45,45,45,,,,,734.075552699971,,,,,,,,,,,,,734.0599866999546,734.075552699971,734.075552699971,734.075552699971,740.9030035999604,,,,740.9087660999503,740.9205439999932,740.9205439999932,740.9684282999951,740.968664700049,740.9853552000131,740.9853552000131,740.9853552000131,741.0686822000425,741.4187003000407,,,,,,,,,,down,6.826127000036649,None,space,0.42043940001167357,None,,,,,,,,,,,,,,,P124,001,2025-02-25_14h49.56.329,posner_endo_new1,2024.2.4,60.04924040253803,2025-02-25 14h50.03.739167 +0000,
cube_r.png,0.1,0.31,valid,46,46,0,down,7.233920200029388,None,space,0.3579754999373108,None,,,,,0,46,46,46,,,,,741.4349933000049,,,,,,,,,,,,,741.4188733999617,741.4349933000049,741.4349933000049,741.4349933000049,748.6776197999716,,,,748.6834794000024,748.69483329996,748.69483329996,748.7277297000401,748.7279518999858,748.7438407000154,748.7438407000154,748.7438407000154,748.8274390000151,749.1109614999732,,,,,,,,748.7438407000154,748.7438407000154,down,7.233920200029388,None,space,0.3579754999373108,None,,,,,,,,,,,,,,,P124,001,2025-02-25_14h49.56.329,posner_endo_new1,2024.2.4,60.04924040253803,2025-02-25 14h50.03.739167 +0000,
cube_l.png,0.1,-0.31,valid,47,47,0,down,7.022807899978943,None,space,0.34870920004323125,None,,,,,0,47,47,47,,,,,749.1267196000554,,,,,,,,,,,,,749.111132799997,749.1267196000554,749.1267196000554,749.1267196000554,756.153857300058,,,,756.1596209000563,756.1710847000359,756.1710847000359,756.2199048999464,756.2201364999637,756.2362791999476,756.2362791999476,756.2362791999476,756.3026832999894,756.586791699985,,,,,,,,,,down,7.022807899978943,None,space,0.34870920004323125,None,,,,,,,,,,,,,,,P124,001,2025-02-25_14h49.56.329,posner_endo_new1,2024.2.4,60.04924040253803,2025-02-25 14h50.03.739167 +0000,
cube_r.png,0.1,-0.31,invalid,48,48,0,down,8.211360699962825,None,space,0.39225559995975345,None,,,,,0,48,48,48,,,,,756.6022390000289,,,,,,,,,,,,,756.5869647000218,756.6022390000289,756.6022390000289,756.6022390000289,764.8284302999964,,,,764.8341986000305,764.845932599972,764.845932599972,764.8937576999888,764.8939877999946,764.9108189999824,764.9108189999824,764.9108189999824,764.9939500000328,765.3106759999646,,,,,,,,,,down,8.211360699962825,None,space,0.39225559995975345,None,,,,,,,,,,,,,,,P124,001,2025-02-25_14h49.56.329,posner_endo_new1,2024.2.4,60.04924040253803,2025-02-25 14h50.03.739167 +0000,
cube_r.png,0.1,10,catch,49,49,0,down,7.030290399910882,None,None,,,,,,,0,49,49,49,,,,,765.32712120004,,,,,,,,,,,,,765.3108497000067,765.32712120004,765.32712120004,765.32712120004,772.3707087000366,,,,772.3766125000548,772.388271200005,772.388271200005,772.4360390000511,772.4362697999459,772.4529656999512,772.4529656999512,772.4529656999512,772.536421900033,775.4500012999633,,,,774.5508215000154,775.4667181000113,775.4667181000113,775.4667181000113,,,down,7.030290399910882,None,None,,,,,,,,,,,,,,,,,P124,001,2025-02-25_14h49.56.329,posner_endo_new1,2024.2.4,60.04924040253803,2025-02-25 14h50.03.739167 +0000,
cube_l.png,0.1,-0.31,valid,50,50,0,down,3.954786599962972,None,space,0.3723255000077188,None,,,,,0,50,50,50,,,,,775.4667181000113,,,,,,,,,,,,,775.4501607000129,775.4667181000113,775.4667181000113,775.4667181000113,779.4296496000607,,,,779.4354268000461,779.4469418999506,779.4469418999506,779.4958912000293,779.4961230000481,779.5125344999833,779.5125344999833,779.5125344999833,779.5792915000347,779.8963078999659,,,,,,,,,,down,3.954786599962972,None,space,0.3723255000077188,None,,,,,,,,,,,,,,,P124,001,2025-02-25_14h49.56.329,posner_endo_new1,2024.2.4,60.04924040253803,2025-02-25 14h50.03.739167 +0000,
cube_l.png,0.1,-0.31,valid,51,51,0,down,6.588591699954122,None,space,0.3812904000515118,None,,,,,0,51,51,51,,,,,779.9122624000302,,,,,,,,,,,,,779.8964803999988,779.9122624000302,779.9122624000302,779.9122624000302,786.5057370000286,,,,786.5115370999556,786.5233700999524,786.5233700999524,786.5720961999614,786.5723282999825,786.5886974000605,786.5886974000605,786.5886974000605,786.6552112000063,786.9719247999601,,,,,,,,,,down,6.588591699954122,None,space,0.3812904000515118,None,,,,,,,,,,,,,,,P124,001,2025-02-25_14h49.56.329,posner_endo_new1,2024.2.4,60.04924040253803,2025-02-25 14h50.03.739167 +0000,
cube_r.png,0.1,-0.31,invalid,52,52,0,down,6.881358899991028,None,space,0.37801200000103563,None,,,,,0,52,52,52,,,,,786.9882724999916,,,,,,,,,,,,,786.9721059000585,786.9882724999916,786.9882724999916,786.9882724999916,793.8818902999628,,,,793.887813600013,793.899482900044,793.899482900044,793.947523699957,793.9477581999963,793.9643870999571,793.9643870999571,793.9643870999571,794.0476348999655,794.3478374000406,,,,,,,,,,down,6.881358899991028,None,space,0.37801200000103563,None,,,,,,,,,,,,,,,P124,001,2025-02-25_14h49.56.329,posner_endo_new1,2024.2.4,60.04924040253803,2025-02-25 14h50.03.739167 +0000,
cube_l.png,0.1,-0.31,valid,53,53,0,down,6.297415499924682,None,space,0.31699249998200685,None,,,,,0,53,53,53,,,,,794.3641229999484,,,,,,,,,,,,,794.3480085999472,794.3641229999484,794.3641229999484,794.3641229999484,800.67463090003,,,,800.6804545000196,800.6920203999616,800.6920203999616,800.7410520999692,800.741283899988,800.757096300018,800.757096300018,800.757096300018,800.8242162000388,801.0749841999495,,,,,,,,,,down,6.297415499924682,None,space,0.31699249998200685,None,,,,,,,,,,,,,,,P124,001,2025-02-25_14h49.56.329,posner_endo_new1,2024.2.4,60.04924040253803,2025-02-25 14h50.03.739167 +0000,
cube_r.png,0.1,10,catch,54,54,0,down,7.554276900016703,None,None,,,,,,,0,54,54,54,,,,,801.0905847999966,,,,,,,,,,,,,801.0751552999718,801.0905847999966,801.0905847999966,801.0905847999966,808.649683500058,,,,808.6555004999973,808.6669934999663,808.6669934999663,808.716051400057,808.7162824999541,808.7327752000419,808.7327752000419,808.7327752000419,808.7993339999812,811.7300336000044,,,,810.8137625999516,811.7462515999796,811.7462515999796,811.7462515999796,,,down,7.554276900016703,None,None,,,,,,,,,,,,,,,,,P124,001,2025-02-25_14h49.56.329,posner_endo_new1,2024.2.4,60.04924040253803,2025-02-25 14h50.03.739167 +0000,
cube_l.png,0.1,0.31,invalid,55,55,0,down,5.819352000020444,None,space,0.385238999966532,None,,,,,0,55,55,55,,,,,811.7462515999796,,,,,,,,,,,,,811.7302030000137,811.7462515999796,811.7462515999796,811.7462515999796,817.5738316000206,,,,817.5797275999794,817.5911930999719,817.5911930999719,817.6402963000583,817.6405285999645,817.6568641000194,817.6568641000194,817.6568641000194,817.7235159999691,818.0570112999994,,,,,,,,,,down,5.819352000020444,None,space,0.385238999966532,None,,,,,,,,,,,,,,,P124,001,2025-02-25_14h49.56.329,posner_endo_new1,2024.2.4,60.04924040253803,2025-02-25 14h50.03.739167 +0000,
cube_l.png,0.1,-0.31,valid,56,56,0,down,4.764174599898979,None,space,0.38746699993498623,None,,,,,0,56,56,56,,,,,818.0732390000485,,,,,,,,,,,,,818.0571837000316,818.0732390000485,818.0732390000485,818.0732390000485,822.8518668999895,,,,822.8577016999479,822.8693413999863,822.8693413999863,822.9184160999721,822.9186499000061,822.934903300018,822.934903300018,822.934903300018,823.0013702999568,823.3352250000462,,,,,,,,,,down,4.764174599898979,None,space,0.38746699993498623,None,,,,,,,,,,,,,,,P124,001,2025-02-25_14h49.56.329,posner_endo_new1,2024.2.4,60.04924040253803,2025-02-25 14h50.03.739167 +0000,
cube_r.png,0.1,0.31,valid,57,57,0,down,4.677816900075413,None,space,0.5213703999761492,None,,,,,0,57,57,57,,,,,823.3510991999647,,,,,,,,,,,,,823.3353954999475,823.3510991999647,823.3510991999647,823.3510991999647,828.0303578999592,,,,828.036078199977,828.0477003999986,828.0477003999986,828.0960329000372,828.0962641000515,828.1128465000074,828.1128465000074,828.1128465000074,828.1961799999699,828.6464029999916,,,,,,,,,,down,4.677816900075413,None,space,0.5213703999761492,None,,,,,,,,,,,,,,,P124,001,2025-02-25_14h49.56.329,posner_endo_new1,2024.2.4,60.04924040253803,2025-02-25 14h50.03.739167 +0000,
cube_r.png,0.1,-0.31,invalid,58,58,0,down,6.246893199975602,None,space,0.37527819990646094,None,,,,,0,58,58,58,,,,,828.6623655000003,,,,,,,,,,,,,828.6465933000436,828.6623655000003,828.6623655000003,828.6623655000003,834.9228158999467,,,,834.9288489000173,834.940313500003,834.940313500003,834.9892244000221,834.9894567000447,835.0058267000131,835.0058267000131,835.0058267000131,835.072349700029,835.389463200001,,,,,,,,,,down,6.246893199975602,None,space,0.37527819990646094,None,,,,,,,,,,,,,,,P124,001,2025-02-25_14h49.56.329,posner_endo_new1,2024.2.4,60.04924040253803,2025-02-25 14h50.03.739167 +0000,
cube_l.png,0.1,0.31,invalid,59,59,0,down,6.031526500009932,None,space,0.3663083999417722,None,,,,,0,59,59,59,,,,,835.4053615999874,,,,,,,,,,,,,835.3896329000127,835.4053615999874,835.4053615999874,835.4053615999874,841.449824100011,,,,841.4556773999939,841.4673721999861,841.4673721999861,841.5155203000177,841.515752300038,841.53264390002,841.53264390002,841.53264390002,841.5992946999613,841.9161734000081,,,,,,,,,,down,6.031526500009932,None,space,0.3663083999417722,None,,,,,,,,,,,,,,,P124,001,2025-02-25_14h49.56.329,posner_endo_new1,2024.2.4,60.04924040253803,2025-02-25 14h50.03.739167 +0000,
,,,,,,,,,,,,,,,,,,,,,,,,,,,,,,,,,,,,,,,,,,,,,,,,,,,,,,,,,,,,,,,,,,,,,,,841.91628460004,841.9318998999661,841.9318998999661,901.9375596999889,905.9176947999513,space,63.98509740002919,None,,,,,,,P124,001,2025-02-25_14h49.56.329,posner_endo_new1,2024.2.4,60.04924040253803,2025-02-25 14h50.03.739167 +0000,
,,,,,,,,,,,,,,,,,,,,,,,,,,,,,,,,,,905.9177461999934,905.9332978000166,908.9366470000241,908.9141145000467,,,,,,,,,,,,,,,,,,,,,,,,,,,,,,,,,,,,,,,,,,,,,,,,P124,001,2025-02-25_14h49.56.329,posner_endo_new1,2024.2.4,60.04924040253803,2025-02-25 14h50.03.739167 +0000,
cube_l.png,0.1,10,catch,0,0,0,up,5.324934600037523,None,None,,,,,,,,,,,0,0,0,0,908.9366470000241,,,,,,,,,,,,,908.9281443000073,908.9366470000241,908.9366470000241,908.9366470000241,914.2754608000396,,,,914.2813606000273,914.2928820999805,914.2928820999805,914.3415212000255,914.3417605999857,914.3580538999522,914.3580538999522,914.3580538999522,914.4242456000065,917.3556169000221,,,,916.4394711999921,917.3717081999639,917.3717081999639,917.3717081999639,,,,,,,,,,,,,,,,,up,5.324934600037523,None,None,,,P124,001,2025-02-25_14h49.56.329,posner_endo_new1,2024.2.4,60.04924040253803,2025-02-25 14h50.03.739167 +0000,
cube_l.png,0.1,10,catch,1,1,0,up,6.353788599953987,None,None,,,,,,,,,,,0,1,1,1,917.3717081999639,,,,,,,,,,,,,917.3557805999881,917.3717081999639,917.3717081999639,917.3717081999639,923.7326543000527,,,,923.7384209999582,923.7499081999995,923.7499081999995,923.7984539000317,923.7986861000536,923.8151750999968,923.8151750999968,923.8151750999968,923.881617099978,926.8123909999849,,,,925.896359300008,926.8286221000599,926.8286221000599,926.8286221000599,,,,,,,,,,,,,,,,,up,6.353788599953987,None,None,,,P124,001,2025-02-25_14h49.56.329,posner_endo_new1,2024.2.4,60.04924040253803,2025-02-25 14h50.03.739167 +0000,
cube_l.png,0.1,0.31,invalid,2,2,0,up,4.737082100007683,None,space,0.4352530000032857,None,,,,,,,,,0,2,2,2,926.8286221000599,,,,,,,,,,,,,926.8125587999821,926.8286221000599,926.8286221000599,926.8286221000599,931.574570100056,,,,931.5804329999955,931.5918968999758,931.5918968999758,931.6405558000552,931.6407926999964,931.657105899998,931.657105899998,931.657105899998,931.7236308000283,932.107223900035,,,,,,,,,,,,,,,,,,,,,,,,up,4.737082100007683,None,space,0.4352530000032857,None,P124,001,2025-02-25_14h49.56.329,posner_endo_new1,2024.2.4,60.04924040253803,2025-02-25 14h50.03.739167 +0000,
cube_l.png,0.1,0.31,invalid,3,3,0,up,7.458247000002302,None,space,0.413688600063324,None,,,,,,,,,0,3,3,3,932.1229948999826,,,,,,,,,,,,,932.1073991999729,932.1229948999826,932.1229948999826,932.1229948999826,939.583299000049,,,,939.5890727000078,939.600802800036,939.600802800036,939.6490719000576,939.6493034999585,939.6656906000571,939.6656906000571,939.6656906000571,939.7490031999769,940.0821715999627,,,,,,,,,,,,,,,,,,,,,,,,up,7.458247000002302,None,space,0.413688600063324,None,P124,001,2025-02-25_14h49.56.329,posner_endo_new1,2024.2.4,60.04924040253803,2025-02-25 14h50.03.739167 +0000,
cube_l.png,0.1,-0.31,valid,4,4,0,up,6.291669499943964,None,space,0.40274400007911026,None,,,,,,,,,0,4,4,4,940.0982910000021,,,,,,,,,,,,,940.0823463000124,940.0982910000021,940.0982910000021,940.0982910000021,946.3926690999651,,,,946.3983877999708,946.4100540999789,946.4100540999789,946.4586311000166,946.4588651000522,946.4753468000563,946.4753468000563,946.4753468000563,946.5416867999593,946.8917559999973,,,,,,,,,,,,,,,,,,,,,,,,up,6.291669499943964,None,space,0.40274400007911026,None,P124,001,2025-02-25_14h49.56.329,posner_endo_new1,2024.2.4,60.04924040253803,2025-02-25 14h50.03.739167 +0000,
cube_r.png,0.1,-0.31,invalid,5,5,0,up,4.8489883000729606,None,space,0.3757474001031369,None,,,,,,,,,0,5,5,5,946.9081716999644,,,,,,,,,,,,,946.8919357999694,946.9081716999644,946.9081716999644,946.9081716999644,951.7705327000003,,,,951.7763437000103,951.7880418000277,951.7880418000277,951.8365439999616,951.8367751999758,951.8529755000491,951.8529755000491,951.8529755000491,951.9196147000184,952.23696010001,,,,,,,,,,,,,,,,,,,,,,,,up,4.8489883000729606,None,space,0.3757474001031369,None,P124,001,2025-02-25_14h49.56.329,posner_endo_new1,2024.2.4,60.04924040253803,2025-02-25 14h50.03.739167 +0000,
cube_r.png,0.1,0.31,valid,6,6,0,up,6.760105800000019,None,space,0.3370700000086799,None,,,,,,,,,0,6,6,6,952.2529176999815,,,,,,,,,,,,,952.2371335000498,952.2529176999815,952.2529176999815,952.2529176999815,959.0293461000547,,,,959.0350685999729,959.0464387000538,959.0464387000538,959.0797148999991,959.0799362000544,959.0959361999994,959.0959361999994,959.0959361999994,959.1791041999822,959.4461591000436,,,,,,,,959.0959361999994,959.0959361999994,,,,,,,,,,,,,,,up,6.760105800000019,None,space,0.3370700000086799,None,P124,001,2025-02-25_14h49.56.329,posner_endo_new1,2024.2.4,60.04924040253803,2025-02-25 14h50.03.739167 +0000,
cube_r.png,0.1,-0.31,invalid,7,7,0,up,6.3999786000931635,None,space,0.34812280000187457,None,,,,,,,,,0,7,7,7,959.4619989000494,,,,,,,,,,,,,959.4463344999822,959.4619989000494,959.4619989000494,959.4619989000494,965.8728517000563,,,,965.8786176999565,965.8904688999755,965.8904688999755,965.9384709000587,965.9387034999672,965.9553540999768,965.9553540999768,965.9553540999768,966.0384691000218,966.3059771000408,,,,,,,,,,,,,,,,,,,,,,,,up,6.3999786000931635,None,space,0.34812280000187457,None,P124,001,2025-02-25_14h49.56.329,posner_endo_new1,2024.2.4,60.04924040253803,2025-02-25 14h50.03.739167 +0000,
cube_l.png,0.1,-0.31,valid,8,8,0,up,5.6517517999745905,None,space,0.36379029997624457,None,,,,,,,,,0,8,8,8,966.321574499947,,,,,,,,,,,,,966.306149699958,966.321574499947,966.321574499947,966.321574499947,971.9830212000525,,,,971.9888098000083,972.0004598000087,972.0004598000087,972.0494441000046,972.0496848999755,972.0658287999686,972.0658287999686,972.0658287999686,972.1325640999712,972.4329962000484,,,,,,,,,,,,,,,,,,,,,,,,up,5.6517517999745905,None,space,0.36379029997624457,None,P124,001,2025-02-25_14h49.56.329,posner_endo_new1,2024.2.4,60.04924040253803,2025-02-25 14h50.03.739167 +0000,
cube_r.png,0.1,-0.31,invalid,9,9,0,up,6.59677509998437,None,space,0.37073189998045564,None,,,,,,,,,0,9,9,9,972.4485884000314,,,,,,,,,,,,,972.4331717999885,972.4485884000314,972.4485884000314,972.4485884000314,979.0594343000557,,,,979.0652670999989,979.0768819999648,979.0768819999648,979.1254476000322,979.1256798000541,979.1419227999868,979.1419227999868,979.1419227999868,979.2081192999613,979.5256092000054,,,,,,,,,,,,,,,,,,,,,,,,up,6.59677509998437,None,space,0.37073189998045564,None,P124,001,2025-02-25_14h49.56.329,posner_endo_new1,2024.2.4,60.04924040253803,2025-02-25 14h50.03.739167 +0000,
cube_l.png,0.1,0.31,invalid,10,10,0,up,7.376347100012936,None,space,0.3137235000031069,None,,,,,,,,,0,10,10,10,979.5415038999636,,,,,,,,,,,,,979.5257839000551,979.5415038999636,979.5415038999636,979.5415038999636,986.9347482000012,,,,986.9404925999697,986.952068499988,986.952068499988,987.0004584999988,987.000691400026,987.0172671000473,987.0172671000473,987.0172671000473,987.1003216999816,987.3342279000208,,,,,,,,,,,,,,,,,,,,,,,,up,7.376347100012936,None,space,0.3137235000031069,None,P124,001,2025-02-25_14h49.56.329,posner_endo_new1,2024.2.4,60.04924040253803,2025-02-25 14h50.03.739167 +0000,
cube_r.png,0.1,-0.31,invalid,11,11,0,up,6.895169100025669,None,space,0.29633569996804,None,,,,,,,,,0,11,11,11,987.3502766999882,,,,,,,,,,,,,987.3344082999974,987.3502766999882,987.3502766999882,987.3502766999882,994.2603916999651,,,,994.2662884000456,994.278028300032,994.278028300032,994.3266163000371,994.3268532999791,994.34302879998,994.34302879998,994.34302879998,994.4096122999908,994.6433739999775,,,,,,,,,,,,,,,,,,,,,,,,up,6.895169100025669,None,space,0.29633569996804,None,P124,001,2025-02-25_14h49.56.329,posner_endo_new1,2024.2.4,60.04924040253803,2025-02-25 14h50.03.739167 +0000,
cube_r.png,0.1,0.31,valid,12,12,0,up,7.553555799997412,None,space,0.3476020999951288,None,,,,,,,,,0,12,12,12,994.6595312999561,,,,,,,,,,,,,994.6435467000119,994.6595312999561,994.6595312999561,994.6595312999561,1002.2190535999835,,,,1002.2248075000243,1002.2365593999857,1002.2365593999857,1002.2851605999749,1002.2853918999899,1002.3016489000292,1002.3016489000292,1002.3016489000292,1002.3848014000105,1002.6519567000214,,,,,,,,,,,,,,,,,,,,,,,,up,7.553555799997412,None,space,0.3476020999951288,None,P124,001,2025-02-25_14h49.56.329,posner_endo_new1,2024.2.4,60.04924040253803,2025-02-25 14h50.03.739167 +0000,
cube_l.png,0.1,10,catch,13,13,0,up,5.970175400027074,None,None,,,,,,,,,,,0,13,13,13,1002.6676724000135,,,,,,,,,,,,,1002.6521330999676,1002.6676724000135,1002.6676724000135,1002.6676724000135,1008.645869400003,,,,1008.6517350999638,1008.6633811000502,1008.6633811000502,1008.7118438000325,1008.7120770999463,1008.7282646000385,1008.7282646000385,1008.7282646000385,1008.7949037000071,1011.725758500048,,,,1010.8095775999827,1011.7419237999711,1011.7419237999711,1011.7419237999711,,,,,,,,,,,,,,,,,up,5.970175400027074,None,None,,,P124,001,2025-02-25_14h49.56.329,posner_endo_new1,2024.2.4,60.04924040253803,2025-02-25 14h50.03.739167 +0000,
cube_r.png,0.1,-0.31,invalid,14,14,0,up,4.479640000034124,None,space,0.36684749997220933,None,,,,,,,,,0,14,14,14,1011.7419237999711,,,,,,,,,,,,,1011.7259450999554,1011.7419237999711,1011.7419237999711,1011.7419237999711,1016.2381209000014,,,,1016.2439512000419,1016.2552740999963,1016.2552740999963,1016.3040674000513,1016.3043009999674,1016.320674699964,1016.320674699964,1016.320674699964,1016.3873738000402,1016.7042642000597,,,,,,,,,,,,,,,,,,,,,,,,up,4.479640000034124,None,space,0.36684749997220933,None,P124,001,2025-02-25_14h49.56.329,posner_endo_new1,2024.2.4,60.04924040253803,2025-02-25 14h50.03.739167 +0000,
cube_l.png,0.1,-0.31,valid,15,15,0,up,6.038439400028437,None,space,0.3558370000682771,None,,,,,,,,,0,15,15,15,1016.7203202999663,,,,,,,,,,,,,1016.7044384999899,1016.7203202999663,1016.7203202999663,1016.7203202999663,1022.7650160000194,,,,1022.7708973999834,1022.7828125000233,1022.7828125000233,1022.8306533000432,1022.8308937000111,1022.8474891999504,1022.8474891999504,1022.8474891999504,1022.9304132000543,1023.2143768999958,,,,,,,,,,,,,,,,,,,,,,,,up,6.038439400028437,None,space,0.3558370000682771,None,P124,001,2025-02-25_14h49.56.329,posner_endo_new1,2024.2.4,60.04924040253803,2025-02-25 14h50.03.739167 +0000,
cube_r.png,0.1,10,catch,16,16,0,up,5.727538699982688,None,None,,,,,,,,,,,0,16,16,16,1023.2303312000586,,,,,,,,,,,,,1023.2145527000539,1023.2303312000586,1023.2303312000586,1023.2303312000586,1028.9585898000514,,,,1028.9644396000076,1028.9760624000337,1028.9760624000337,1029.0245791999623,1029.0248130999971,1029.0411195999477,1029.0411195999477,1029.0411195999477,1029.124176900019,1032.0380564000225,,,,1031.1387559999712,1032.054681599955,1032.054681599955,1032.054681599955,,,,,,,,,,,,,,,,,up,5.727538699982688,None,None,,,P124,001,2025-02-25_14h49.56.329,posner_endo_new1,2024.2.4,60.04924040253803,2025-02-25 14h50.03.739167 +0000,
cube_r.png,0.1,10,catch,17,17,0,up,3.7348648000042886,None,None,,,,,,,,,,,0,17,17,17,1032.054681599955,,,,,,,,,,,,,1032.0382205999922,1032.054681599955,1032.054681599955,1032.054681599955,1035.8013963999692,,,,1035.8072455000365,1035.8186487000203,1035.8186487000203,1035.8674568999559,1035.8676952000242,1035.8839008000214,1035.8839008000214,1035.8839008000214,1035.9506750999717,1038.8811925000045,,,,1037.9651572000002,1038.8975158999674,1038.8975158999674,1038.8975158999674,,,,,,,,,,,,,,,,,up,3.7348648000042886,None,None,,,P124,001,2025-02-25_14h49.56.329,posner_endo_new1,2024.2.4,60.04924040253803,2025-02-25 14h50.03.739167 +0000,
cube_l.png,0.1,0.31,invalid,18,18,0,up,2.820604500011541,None,space,0.4489118999335915,None,,,,,,,,,0,18,18,18,1038.8975158999674,,,,,,,,,,,,,1038.8813557999674,1038.8975158999674,1038.8975158999674,1038.8975158999674,1041.7282796000363,,,,1041.7339928000001,1041.7456389999716,1041.7456389999716,1041.7947307999711,1041.7949611999793,1041.8112327000126,1041.8112327000126,1041.8112327000126,1041.877942900057,1042.2615933000343,,,,,,,,,,,,,,,,,,,,,,,,up,2.820604500011541,None,space,0.4489118999335915,None,P124,001,2025-02-25_14h49.56.329,posner_endo_new1,2024.2.4,60.04924040253803,2025-02-25 14h50.03.739167 +0000,
cube_l.png,0.1,10,catch,19,19,0,up,5.136266099987552,None,None,,,,,,,,,,,0,19,19,19,1042.2773022999754,,,,,,,,,,,,,1042.2617651999462,1042.2773022999754,1042.2773022999754,1042.2773022999754,1047.4223439999623,,,,1047.4282693000278,1047.44001999998,1047.44001999998,1047.4888374999864,1047.4890689000022,1047.5054980999557,1047.5054980999557,1047.5054980999557,1047.5720742000267,1050.5029781999765,,,,1049.5864512999542,1050.5188929999713,1050.5188929999713,1050.5188929999713,,,,,,,,,,,,,,,,,up,5.136266099987552,None,None,,,P124,001,2025-02-25_14h49.56.329,posner_endo_new1,2024.2.4,60.04924040253803,2025-02-25 14h50.03.739167 +0000,
cube_l.png,0.1,0.31,invalid,20,20,0,up,3.2384554999880493,None,space,0.3730796000454575,None,,,,,,,,,0,20,20,20,1050.5188929999713,,,,,,,,,,,,,1050.5031396000413,1050.5188929999713,1050.5188929999713,1050.5188929999713,1053.766345000011,,,,1053.772160200053,1053.7836665000068,1053.7836665000068,1053.8324383000145,1053.8326699000318,1053.8490330999484,1053.8490330999484,1053.8490330999484,1053.9155651000328,1054.232053500018,,,,,,,,,,,,,,,,,,,,,,,,up,3.2384554999880493,None,space,0.3730796000454575,None,P124,001,2025-02-25_14h49.56.329,posner_endo_new1,2024.2.4,60.04924040253803,2025-02-25 14h50.03.739167 +0000,
cube_l.png,0.1,-0.31,valid,21,21,0,up,5.909591200063005,None,space,0.3896555000683293,None,,,,,,,,,0,21,21,21,1054.2485560999485,,,,,,,,,,,,,1054.232231699978,1054.2485560999485,1054.2485560999485,1054.2485560999485,1060.159830700024,,,,1060.165574099985,1060.1772891000146,1060.1772891000146,1060.2258866999764,1060.2261217000196,1060.2421678999672,1060.2421678999672,1060.2421678999672,1060.3092034000438,1060.6426232999656,,,,,,,,,,,,,,,,,,,,,,,,up,5.909591200063005,None,space,0.3896555000683293,None,P124,001,2025-02-25_14h49.56.329,posner_endo_new1,2024.2.4,60.04924040253803,2025-02-25 14h50.03.739167 +0000,
cube_r.png,0.1,0.31,valid,22,22,0,up,6.171350699965842,None,space,0.33633499999996275,None,,,,,,,,,0,22,22,22,1060.6585170000326,,,,,,,,,,,,,1060.64279860002,1060.6585170000326,1060.6585170000326,1060.6585170000326,1066.836545499973,,,,1066.842314700014,1066.8539246000582,1066.8539246000582,1066.9021762999473,1066.9024074999616,1066.9190297999885,1066.9190297999885,1066.9190297999885,1067.0020975000225,1067.269228399964,,,,,,,,,,,,,,,,,,,,,,,,up,6.171350699965842,None,space,0.33633499999996275,None,P124,001,2025-02-25_14h49.56.329,posner_endo_new1,2024.2.4,60.04924040253803,2025-02-25 14h50.03.739167 +0000,
cube_r.png,0.1,-0.31,invalid,23,23,0,up,6.953623199951835,None,space,0.3916383000323549,None,,,,,,,,,0,23,23,23,1067.2853373000398,,,,,,,,,,,,,1067.2694093999453,1067.2853373000398,1067.2853373000398,1067.2853373000398,1074.2454581999918,,,,1074.2512155000586,1074.26288569998,1074.26288569998,1074.3108476999914,1074.3110865999479,1074.3280245000497,1074.3280245000497,1074.3280245000497,1074.3946518000448,1074.728363399976,,,,,,,,,,,,,,,,,,,,,,,,up,6.953623199951835,None,space,0.3916383000323549,None,P124,001,2025-02-25_14h49.56.329,posner_endo_new1,2024.2.4,60.04924040253803,2025-02-25 14h50.03.739167 +0000,
cube_r.png,0.1,0.31,valid,24,24,0,up,6.18169790005777,None,space,0.3512509000720456,None,,,,,,,,,0,24,24,24,1074.7440671999939,,,,,,,,,,,,,1074.7285381000256,1074.7440671999939,1074.7440671999939,1074.7440671999939,1080.9383728000103,,,,1080.9441721000476,1080.9556430999655,1080.9556430999655,1081.0043955000583,1081.0046250000596,1081.0210775999585,1081.0210775999585,1081.0210775999585,1081.087846599985,1081.3877336999867,,,,,,,,,,,,,,,,,,,,,,,,up,6.18169790005777,None,space,0.3512509000720456,None,P124,001,2025-02-25_14h49.56.329,posner_endo_new1,2024.2.4,60.04924040253803,2025-02-25 14h50.03.739167 +0000,
cube_r.png,0.1,-0.31,invalid,25,25,0,up,5.921363899949938,None,space,0.37893369991797954,None,,,,,,,,,0,25,25,25,1081.4041903000325,,,,,,,,,,,,,1081.3879096000455,1081.4041903000325,1081.4041903000325,1081.4041903000325,1087.3319201000268,,,,1087.337720899959,1087.349277200061,1087.349277200061,1087.398099699989,1087.3983307000017,1087.4147219000151,1087.4147219000151,1087.4147219000151,1087.4809706000378,1087.7978968999814,,,,,,,,,,,,,,,,,,,,,,,,up,5.921363899949938,None,space,0.37893369991797954,None,P124,001,2025-02-25_14h49.56.329,posner_endo_new1,2024.2.4,60.04924040253803,2025-02-25 14h50.03.739167 +0000,
cube_l.png,0.1,-0.31,valid,26,26,0,up,6.279723900021054,None,space,0.328198799979873,None,,,,,,,,,0,26,26,26,1087.814210499986,,,,,,,,,,,,,1087.798071600031,1087.814210499986,1087.814210499986,1087.814210499986,1094.1085429999512,,,,1094.1143461000174,1094.12602960004,1094.12602960004,1094.1746285000117,1094.1748611000367,1094.191171100014,1094.191171100014,1094.191171100014,1094.2574484000215,1094.52501880005,,,,,,,,,,,,,,,,,,,,,,,,up,6.279723900021054,None,space,0.328198799979873,None,P124,001,2025-02-25_14h49.56.329,posner_endo_new1,2024.2.4,60.04924040253803,2025-02-25 14h50.03.739167 +0000,
cube_r.png,0.1,0.31,valid,27,27,0,up,6.384823299944401,None,space,0.3390868999995291,None,,,,,,,,,0,27,27,27,1094.540874899947,,,,,,,,,,,,,1094.5251932999818,1094.540874899947,1094.540874899947,1094.540874899947,1100.9349078000523,,,,1100.9407444000244,1100.9523897999898,1100.9523897999898,1101.0007910999702,1101.001020799973,1101.0175249000313,1101.0175249000313,1101.0175249000313,1101.1005155000603,1101.367776100058,,,,,,,,,,,,,,,,,,,,,,,,up,6.384823299944401,None,space,0.3390868999995291,None,P124,001,2025-02-25_14h49.56.329,posner_endo_new1,2024.2.4,60.04924040253803,2025-02-25 14h50.03.739167 +0000,
cube_r.png,0.1,10,catch,28,28,0,up,6.774611699976958,None,None,,,,,,,,,,,0,28,28,28,1101.3837626000168,,,,,,,,,,,,,1101.367952200002,1101.3837626000168,1101.3837626000168,1101.3837626000168,1108.1609233999625,,,,1108.166734199971,1108.1783394999802,1108.1783394999802,1108.226887100027,1108.2271160000237,1108.2430071999552,1108.2430071999552,1108.2430071999552,1108.30951130006,1111.2404530999484,,,,1110.3242747000186,1111.2570050000213,1111.2570050000213,1111.2570050000213,,,,,,,,,,,,,,,,,up,6.774611699976958,None,None,,,P124,001,2025-02-25_14h49.56.329,posner_endo_new1,2024.2.4,60.04924040253803,2025-02-25 14h50.03.739167 +0000,
cube_r.png,0.1,0.31,valid,29,29,0,up,3.4850340998964384,None,space,0.4073704000329599,None,,,,,,,,,0,29,29,29,1111.2570050000213,,,,,,,,,,,,,1111.2406159000238,1111.2570050000213,1111.2570050000213,1111.2570050000213,1114.7538613999495,,,,1114.7597064999864,1114.7711065999465,1114.7711065999465,1114.8197099999525,1114.819941899972,1114.8365162999835,1114.8365162999835,1114.8365162999835,1114.9032326999586,1115.253654900007,,,,,,,,,,,,,,,,,,,,,,,,up,3.4850340998964384,None,space,0.4073704000329599,None,P124,001,2025-02-25_14h49.56.329,posner_endo_new1,2024.2.4,60.04924040253803,2025-02-25 14h50.03.739167 +0000,
cube_r.png,0.1,0.31,valid,30,30,0,up,6.152229400002398,None,space,0.5052268999861553,None,,,,,,,,,0,30,30,30,1115.2696747999871,,,,,,,,,,,,,1115.2538292000536,1115.2696747999871,1115.2696747999871,1115.2696747999871,1121.4302504999796,,,,1121.4361310000531,1121.4476553000277,1121.4476553000277,1121.4965901999967,1121.4968217000132,1121.513069299981,1121.513069299981,1121.513069299981,1121.5796777999494,1122.0298633000348,,,,,,,,,,,,,,,,,,,,,,,,up,6.152229400002398,None,space,0.5052268999861553,None,P124,001,2025-02-25_14h49.56.329,posner_endo_new1,2024.2.4,60.04924040253803,2025-02-25 14h50.03.739167 +0000,
cube_l.png,0.1,-0.31,valid,31,31,0,up,4.952129499986768,None,space,0.43199110007844865,None,,,,,,,,,0,31,31,31,1122.0457786000334,,,,,,,,,,,,,1122.0300374999642,1122.0457786000334,1122.0457786000334,1122.0457786000334,1127.007806199952,,,,1127.0135847999481,1127.025003100047,1127.025003100047,1127.0580437999452,1127.0582689000294,1127.07438190002,1127.07438190002,1127.07438190002,1127.1573991000187,1127.5080231999746,,,,,,,,1127.07438190002,1127.07438190002,,,,,,,,,,,,,,,up,4.952129499986768,None,space,0.43199110007844865,None,P124,001,2025-02-25_14h49.56.329,posner_endo_new1,2024.2.4,60.04924040253803,2025-02-25 14h50.03.739167 +0000,
cube_r.png,0.1,0.31,valid,32,32,0,up,12.234599699964747,None,space,0.31874650006648153,None,,,,,,,,,0,32,32,32,1127.5231509000296,,,,,,,,,,,,,1127.5082027000608,1127.5231509000296,1127.5231509000296,1127.5231509000296,1139.7620038000168,,,,1139.7678385999752,1139.7795178999659,1139.7795178999659,1139.8276710000355,1139.8279018000467,1139.8444004999474,1139.8444004999474,1139.8444004999474,1139.9110459999647,1140.1781645000447,,,,,,,,,,,,,,,,,,,,,,,,up,12.234599699964747,None,space,0.31874650006648153,None,P124,001,2025-02-25_14h49.56.329,posner_endo_new1,2024.2.4,60.04924040253803,2025-02-25 14h50.03.739167 +0000,
cube_r.png,0.1,-0.31,invalid,33,33,0,up,5.787565500009805,None,space,0.3864983000094071,None,,,,,,,,,0,33,33,33,1140.194137500017,,,,,,,,,,,,,1140.1783410999924,1140.194137500017,1140.194137500017,1140.194137500017,1145.988854700001,,,,1145.994629099965,1146.0062265000306,1146.0062265000306,1146.0545333999908,1146.0547661000164,1146.0716722999932,1146.0716722999932,1146.0716722999932,1146.1382424000185,1146.4717192000244,,,,,,,,,,,,,,,,,,,,,,,,up,5.787565500009805,None,space,0.3864983000094071,None,P124,001,2025-02-25_14h49.56.329,posner_endo_new1,2024.2.4,60.04924040253803,2025-02-25 14h50.03.739167 +0000,
cube_r.png,0.1,10,catch,34,34,0,up,5.965763000072911,None,None,,,,,,,,,,,0,34,34,34,1146.4878284999868,,,,,,,,,,,,,1146.4719007000094,1146.4878284999868,1146.4878284999868,1146.4878284999868,1152.465464900015,,,,1152.471361599979,1152.482788000023,1152.482788000023,1152.5316958000185,1152.5319289000472,1152.547949800035,1152.547949800035,1152.547949800035,1152.6148202000186,1155.5455852999585,,,,1154.6293900000164,1155.5617500999942,1155.5617500999942,1155.5617500999942,,,,,,,,,,,,,,,,,up,5.965763000072911,None,None,,,P124,001,2025-02-25_14h49.56.329,posner_endo_new1,2024.2.4,60.04924040253803,2025-02-25 14h50.03.739167 +0000,
cube_r.png,0.1,0.31,valid,35,35,0,up,4.411940699908882,None,space,0.4130624000681564,None,,,,,,,,,0,35,35,35,1155.5617500999942,,,,,,,,,,,,,1155.545749300043,1155.5617500999942,1155.5617500999942,1155.5617500999942,1159.9749636000488,,,,1159.9807879000437,1159.9927256000228,1159.9927256000228,1160.0402708000038,1160.0405082999496,1160.057216300047,1160.057216300047,1160.057216300047,1160.1403000999708,1160.474313099985,,,,,,,,,,,,,,,,,,,,,,,,up,4.411940699908882,None,space,0.4130624000681564,None,P124,001,2025-02-25_14h49.56.329,posner_endo_new1,2024.2.4,60.04924040253803,2025-02-25 14h50.03.739167 +0000,
cube_r.png,0.1,-0.31,invalid,36,36,0,up,6.868269599974155,None,space,0.40603380009997636,None,,,,,,,,,0,36,36,36,1160.4897136000218,,,,,,,,,,,,,1160.474493399961,1160.4897136000218,1160.4897136000218,1160.4897136000218,1167.3666569000343,,,,1167.3724385000532,1167.384145100019,1167.384145100019,1167.433230799972,1167.4334607999772,1167.4496007000562,1167.4496007000562,1167.4496007000562,1167.516235099989,1167.8666790999705,,,,,,,,,,,,,,,,,,,,,,,,up,6.868269599974155,None,space,0.40603380009997636,None,P124,001,2025-02-25_14h49.56.329,posner_endo_new1,2024.2.4,60.04924040253803,2025-02-25 14h50.03.739167 +0000,
cube_l.png,0.1,0.31,invalid,37,37,0,up,5.531203399994411,None,space,0.432648399961181,None,,,,,,,,,0,37,37,37,1167.882602800033,,,,,,,,,,,,,1167.8668531000149,1167.882602800033,1167.882602800033,1167.882602800033,1173.4278139000526,,,,1173.4337438000366,1173.445447599981,1173.445447599981,1173.4935720999492,1173.493805599981,1173.509999300004,1173.509999300004,1173.509999300004,1173.593460300006,1173.9439685000107,,,,,,,,,,,,,,,,,,,,,,,,up,5.531203399994411,None,space,0.432648399961181,None,P124,001,2025-02-25_14h49.56.329,posner_endo_new1,2024.2.4,60.04924040253803,2025-02-25 14h50.03.739167 +0000,
cube_l.png,0.1,0.31,invalid,38,38,0,up,7.526396300061606,None,space,0.40544290002435446,None,,,,,,,,,0,38,38,38,1173.9596829999937,,,,,,,,,,,,,1173.944146499969,1173.9596829999937,1173.9596829999937,1173.9596829999937,1181.5025388000067,,,,1181.5082972999662,1181.5196578999748,1181.5196578999748,1181.5680476999842,1181.5682823000243,1181.5852619999787,1181.5852619999787,1181.5852619999787,1181.6519199999748,1182.00209059997,,,,,,,,,,,,,,,,,,,,,,,,up,7.526396300061606,None,space,0.40544290002435446,None,P124,001,2025-02-25_14h49.56.329,posner_endo_new1,2024.2.4,60.04924040253803,2025-02-25 14h50.03.739167 +0000,
cube_r.png,0.1,0.31,valid,39,39,0,up,8.155871200026013,None,space,0.33343340002465993,None,,,,,,,,,0,39,39,39,1182.0176708999788,,,,,,,,,,,,,1182.0022650000174,1182.0176708999788,1182.0176708999788,1182.0176708999788,1190.1771456999704,,,,1190.1829352000495,1190.1945719999494,1190.1945719999494,1190.2430403999751,1190.2432731000008,1190.2594048000174,1190.2594048000174,1190.2594048000174,1190.3259078999981,1190.609798099962,,,,,,,,,,,,,,,,,,,,,,,,up,8.155871200026013,None,space,0.33343340002465993,None,P124,001,2025-02-25_14h49.56.329,posner_endo_new1,2024.2.4,60.04924040253803,2025-02-25 14h50.03.739167 +0000,
cube_l.png,0.1,0.31,invalid,40,40,0,up,7.251714100013487,None,space,0.4008491999702528,None,,,,,,,,,0,40,40,40,1190.6257744999602,,,,,,,,,,,,,1190.6099771000445,1190.6257744999602,1190.6257744999602,1190.6257744999602,1197.8856620000442,,,,1197.8914220000152,1197.9029781999998,1197.9029781999998,1197.9519727999577,1197.9522061999887,1197.968454399961,1197.968454399961,1197.968454399961,1198.0348917000229,1198.38532510004,,,,,,,,,,,,,,,,,,,,,,,,up,7.251714100013487,None,space,0.4008491999702528,None,P124,001,2025-02-25_14h49.56.329,posner_endo_new1,2024.2.4,60.04924040253803,2025-02-25 14h50.03.739167 +0000,
cube_l.png,0.1,10,catch,41,41,0,up,4.780336400028318,None,None,,,,,,,,,,,0,41,41,41,1198.4013754000189,,,,,,,,,,,,,1198.3855023999931,1198.4013754000189,1198.4013754000189,1198.4013754000189,1203.19663999998,,,,1203.2023553999607,1203.2139037000015,1203.2139037000015,1203.2630465000402,1203.2632784000598,1203.2793113000225,1203.2793113000225,1203.2793113000225,1203.3462472000392,1206.2770699999528,,,,1205.360813700012,1206.293274500058,1206.293274500058,1206.293274500058,,,,,,,,,,,,,,,,,up,4.780336400028318,None,None,,,P124,001,2025-02-25_14h49.56.329,posner_endo_new1,2024.2.4,60.04924040253803,2025-02-25 14h50.03.739167 +0000,
cube_l.png,0.1,-0.31,valid,42,42,0,up,3.3362797000445426,None,space,0.3555988000007346,None,,,,,,,,,0,42,42,42,1206.293274500058,,,,,,,,,,,,,1206.2772339000367,1206.293274500058,1206.293274500058,1206.293274500058,1209.640431100037,,,,1209.6462158999639,1209.65778889996,1209.65778889996,1209.7060153000057,1209.7062474000268,1209.723074199981,1209.723074199981,1209.723074199981,1209.7896518999478,1210.0898809999926,,,,,,,,,,,,,,,,,,,,,,,,up,3.3362797000445426,None,space,0.3555988000007346,None,P124,001,2025-02-25_14h49.56.329,posner_endo_new1,2024.2.4,60.04924040253803,2025-02-25 14h50.03.739167 +0000,
cube_l.png,0.1,10,catch,43,43,0,up,7.12374449998606,None,None,,,,,,,,,,,0,43,43,43,1210.1057397000259,,,,,,,,,,,,,1210.0900553000392,1210.1057397000259,1210.1057397000259,1210.1057397000259,1217.2324230000377,,,,1217.238218900049,1217.2500910999952,1217.2500910999952,1217.2988563999534,1217.2990906999912,1217.3153816000558,1217.3153816000558,1217.3153816000558,1217.3817395999795,1220.3129801000468,,,,1219.3959982000524,1220.3289036999922,1220.3289036999922,1220.3289036999922,,,,,,,,,,,,,,,,,up,7.12374449998606,None,None,,,P124,001,2025-02-25_14h49.56.329,posner_endo_new1,2024.2.4,60.04924040253803,2025-02-25 14h50.03.739167 +0000,
cube_l.png,0.1,0.31,invalid,44,44,0,up,4.669179099961184,None,space,0.4610503999283537,None,,,,,,,,,0,44,44,44,1220.3289036999922,,,,,,,,,,,,,1220.3131426000036,1220.3289036999922,1220.3289036999922,1220.3289036999922,1225.0083082000492,,,,1225.0140810000012,1225.025675300043,1225.025675300043,1225.0740968999453,1225.0743285999633,1225.0907727000304,1225.0907727000304,1225.0907727000304,1225.1739782999502,1225.55758839997,,,,,,,,,,,,,,,,,,,,,,,,up,4.669179099961184,None,space,0.4610503999283537,None,P124,001,2025-02-25_14h49.56.329,posner_endo_new1,2024.2.4,60.04924040253803,2025-02-25 14h50.03.739167 +0000,
cube_l.png,0.1,0.31,invalid,45,45,0,up,6.2080726000713184,None,space,0.37062699999660254,None,,,,,,,,,0,45,45,45,1225.5736268999754,,,,,,,,,,,,,1225.5577697999543,1225.5736268999754,1225.5736268999754,1225.5736268999754,1231.7843618999468,,,,1231.79016460001,1231.8017755999463,1231.8017755999463,1231.850426799967,1231.8506645000307,1231.866740699974,1231.866740699974,1231.866740699974,1231.9331339000491,1232.2508927000454,,,,,,,,,,,,,,,,,,,,,,,,up,6.2080726000713184,None,space,0.37062699999660254,None,P124,001,2025-02-25_14h49.56.329,posner_endo_new1,2024.2.4,60.04924040253803,2025-02-25 14h50.03.739167 +0000,
cube_r.png,0.1,0.31,valid,46,46,0,up,5.939074199995957,None,space,0.3468310999451205,None,,,,,,,,,0,46,46,46,1232.266807600041,,,,,,,,,,,,,1232.251066799974,1232.266807600041,1232.266807600041,1232.266807600041,1238.2114629000425,,,,1238.2226853000466,1238.2331179999746,1238.2331179999746,1238.2774394999724,1238.2778032999486,1238.2939143000403,1238.2939143000403,1238.2939143000403,1238.376995000057,1238.64463720005,,,,,,,,,,,,,,,,,,,,,,,,up,5.939074199995957,None,space,0.3468310999451205,None,P124,001,2025-02-25_14h49.56.329,posner_endo_new1,2024.2.4,60.04924040253803,2025-02-25 14h50.03.739167 +0000,
cube_l.png,0.1,-0.31,valid,47,47,0,up,5.913982999976724,None,space,0.3535604999633506,None,,,,,,,,,0,47,47,47,1238.6597848000238,,,,,,,,,,,,,1238.6449303999543,1238.6597848000238,1238.6597848000238,1238.6597848000238,1244.5886214999482,,,,1244.5998543000314,1244.61014600005,1244.61014600005,1244.6537656000583,1244.6540234000422,1244.6706474999664,1244.6706474999664,1244.6706474999664,1244.7537704999559,1245.0377981000347,,,,,,,,,,,,,,,,,,,,,,,,up,5.913982999976724,None,space,0.3535604999633506,None,P124,001,2025-02-25_14h49.56.329,posner_endo_new1,2024.2.4,60.04924040253803,2025-02-25 14h50.03.739167 +0000,
cube_r.png,0.1,-0.31,invalid,48,48,0,up,6.833076199982315,None,space,0.38098780007567257,None,,,,,,,,,0,48,48,48,1245.0531322000315,,,,,,,,,,,,,1245.0380027999636,1245.0531322000315,1245.0531322000315,1245.0531322000315,1251.897028199979,,,,1251.9041267000139,1251.9159009000286,1251.9159009000286,1251.963135899976,1251.963366299984,1251.9793200000422,1251.9793200000422,1251.9793200000422,1252.0465142000467,1252.3634064999642,,,,,,,,,,,,,,,,,,,,,,,,up,6.833076199982315,None,space,0.38098780007567257,None,P124,001,2025-02-25_14h49.56.329,posner_endo_new1,2024.2.4,60.04924040253803,2025-02-25 14h50.03.739167 +0000,
cube_r.png,0.1,10,catch,49,49,0,up,6.155512099969201,None,None,,,,,,,,,,,0,49,49,49,1252.3792267000536,,,,,,,,,,,,,1252.3635797000024,1252.3792267000536,1252.3792267000536,1252.3792267000536,1258.540562900016,,,,1258.5464224000461,1258.5581816999475,1258.5581816999475,1258.6060504999477,1258.6062794999452,1258.6231717000483,1258.6231717000483,1258.6231717000483,1258.706066600047,1261.620583800017,,,,1260.721064900048,1261.6367172000464,1261.6367172000464,1261.6367172000464,,,,,,,,,,,,,,,,,up,6.155512099969201,None,None,,,P124,001,2025-02-25_14h49.56.329,posner_endo_new1,2024.2.4,60.04924040253803,2025-02-25 14h50.03.739167 +0000,
cube_l.png,0.1,-0.31,valid,50,50,0,up,3.0810954000335187,None,space,0.35901240003295243,None,,,,,,,,,0,50,50,50,1261.6367172000464,,,,,,,,,,,,,1261.6207507000072,1261.6367172000464,1261.6367172000464,1261.6367172000464,1264.7336850999855,,,,1264.7394948999863,1264.7509103999473,1264.7509103999473,1264.7838773999829,1264.7840972000267,1264.79972739995,1264.79972739995,1264.79972739995,1264.883308700053,1265.1670163000235,,,,,,,,1264.79972739995,1264.79972739995,,,,,,,,,,,,,,,up,3.0810954000335187,None,space,0.35901240003295243,None,P124,001,2025-02-25_14h49.56.329,posner_endo_new1,2024.2.4,60.04924040253803,2025-02-25 14h50.03.739167 +0000,
cube_l.png,0.1,-0.31,valid,51,51,0,up,6.871130799991079,None,space,0.377355600008741,None,,,,,,,,,0,51,51,51,1265.1828657999868,,,,,,,,,,,,,1265.167191299959,1265.1828657999868,1265.1828657999868,1265.1828657999868,1272.0602457999485,,,,1272.066089299973,1272.0776626999723,1272.0776626999723,1272.1260847999947,1272.1263162000105,1272.1427671000129,1272.1427671000129,1272.1427671000129,1272.2257362999953,1272.526356699993,,,,,,,,,,,,,,,,,,,,,,,,up,6.871130799991079,None,space,0.377355600008741,None,P124,001,2025-02-25_14h49.56.329,posner_endo_new1,2024.2.4,60.04924040253803,2025-02-25 14h50.03.739167 +0000,
cube_r.png,0.1,-0.31,invalid,52,52,0,up,6.384029500070028,None,space,0.3517028000205755,None,,,,,,,,,0,52,52,52,1272.5423917999724,,,,,,,,,,,,,1272.5265307000373,1272.5423917999724,1272.5423917999724,1272.5423917999724,1278.9362570999656,,,,1278.9421666000271,1278.9538562999805,1278.9538562999805,1279.0024075000547,1279.002640599967,1279.019042000058,1279.019042000058,1279.019042000058,1279.0855514999712,1279.3861710999627,,,,,,,,,,,,,,,,,,,,,,,,up,6.384029500070028,None,space,0.3517028000205755,None,P124,001,2025-02-25_14h49.56.329,posner_endo_new1,2024.2.4,60.04924040253803,2025-02-25 14h50.03.739167 +0000,
cube_l.png,0.1,-0.31,valid,53,53,0,up,6.476105900015682,None,space,0.367762100067921,None,,,,,,,,,0,53,53,53,1279.402024699957,,,,,,,,,,,,,1279.38634680002,1279.402024699957,1279.402024699957,1279.402024699957,1285.8792405000422,,,,1285.8849683000008,1285.8966612999793,1285.8966612999793,1285.9450328999665,1285.945260999957,1285.9618007000536,1285.9618007000536,1285.9618007000536,1286.0283655000385,1286.3450162999798,,,,,,,,,,,,,,,,,,,,,,,,up,6.476105900015682,None,space,0.367762100067921,None,P124,001,2025-02-25_14h49.56.329,posner_endo_new1,2024.2.4,60.04924040253803,2025-02-25 14h50.03.739167 +0000,
cube_r.png,0.1,10,catch,54,54,0,up,6.31650349998381,None,None,,,,,,,,,,,0,54,54,54,1286.3613469999982,,,,,,,,,,,,,1286.3451902000234,1286.3613469999982,1286.3613469999982,1286.3613469999982,1292.6890611000126,,,,1292.6948554000119,1292.7065381000284,1292.7065381000284,1292.7550290999934,1292.7552591999993,1292.77151900006,1292.77151900006,1292.77151900006,1292.8380460999906,1295.7689518999541,,,,1294.8526660000207,1295.7850949000567,1295.7850949000567,1295.7850949000567,,,,,,,,,,,,,,,,,up,6.31650349998381,None,None,,,P124,001,2025-02-25_14h49.56.329,posner_endo_new1,2024.2.4,60.04924040253803,2025-02-25 14h50.03.739167 +0000,
cube_l.png,0.1,0.31,invalid,55,55,0,up,2.6046766000799835,None,space,0.4171262999298051,None,,,,,,,,,0,55,55,55,1295.7850949000567,,,,,,,,,,,,,1295.7691172000486,1295.7850949000567,1295.7850949000567,1295.7850949000567,1298.3999621999683,,,,1298.405782100046,1298.4172334000468,1298.4172334000468,1298.4658272999804,1298.4660604000092,1298.4822375000222,1298.4822375000222,1298.4822375000222,1298.5655411999905,1298.915823200019,,,,,,,,,,,,,,,,,,,,,,,,up,2.6046766000799835,None,space,0.4171262999298051,None,P124,001,2025-02-25_14h49.56.329,posner_endo_new1,2024.2.4,60.04924040253803,2025-02-25 14h50.03.739167 +0000,
cube_l.png,0.1,-0.31,valid,56,56,0,up,6.44247880007606,None,space,0.36433910008054227,None,,,,,,,,,0,56,56,56,1298.9317186999833,,,,,,,,,,,,,1298.915997999953,1298.9317186999833,1298.9317186999833,1298.9317186999833,1305.376012200024,,,,1305.381837300025,1305.393461599946,1305.393461599946,1305.4420255000005,1305.4422567000147,1305.458634300041,1305.458634300041,1305.458634300041,1305.5249086000258,1305.8256055000238,,,,,,,,,,,,,,,,,,,,,,,,up,6.44247880007606,None,space,0.36433910008054227,None,P124,001,2025-02-25_14h49.56.329,posner_endo_new1,2024.2.4,60.04924040253803,2025-02-25 14h50.03.739167 +0000,
cube_r.png,0.1,0.31,valid,57,57,0,up,6.244530700030737,None,space,0.1806368000106886,None,,,,,,,,,0,57,57,57,1305.8417109999573,,,,,,,,,,,,,1305.8257785000606,1305.8417109999573,1305.8417109999573,1305.8417109999573,1312.1025439000223,,,,1312.1083374000154,1312.1199124000268,1312.1199124000268,1312.1685496000573,1312.1687861999962,1312.185118400026,1312.185118400026,1312.185118400026,1312.2517566999886,1312.3687026000116,,,,,,,,,,,,,,,,,,,,,,,,up,6.244530700030737,None,space,0.1806368000106886,None,P124,001,2025-02-25_14h49.56.329,posner_endo_new1,2024.2.4,60.04924040253803,2025-02-25 14h50.03.739167 +0000,
cube_r.png,0.1,-0.31,invalid,58,58,0,up,6.453608499956317,None,space,0.40354269999079406,None,,,,,,,,,0,58,58,58,1312.3848745999858,,,,,,,,,,,,,1312.3688800999662,1312.3848745999858,1312.3848745999858,1312.3848745999858,1318.8457767999498,,,,1318.8515379000455,1318.8632047000574,1318.8632047000574,1318.91166480002,1318.9118960000342,1318.9281329000369,1318.9281329000369,1318.9281329000369,1319.0114252000349,1319.3450686000288,,,,,,,,,,,,,,,,,,,,,,,,up,6.453608499956317,None,space,0.40354269999079406,None,P124,001,2025-02-25_14h49.56.329,posner_endo_new1,2024.2.4,60.04924040253803,2025-02-25 14h50.03.739167 +0000,
cube_l.png,0.1,0.31,invalid,59,59,0,up,6.421850400045514,None,space,0.3632903000107035,None,,,,,,,,,0,59,59,59,1319.360627499991,,,,,,,,,,,,,1319.3452417999506,1319.360627499991,1319.360627499991,1319.360627499991,1325.7885970999487,,,,1325.7943988000043,1325.8061230999883,1325.8061230999883,1325.854347000015,1325.8545870999806,1325.8712563000154,1325.8712563000154,1325.8712563000154,1325.9543598999735,1326.2379062999971,,,,,,,,,,,,,,,,,,,,,,,,up,6.421850400045514,None,space,0.3632903000107035,None,P124,001,2025-02-25_14h49.56.329,posner_endo_new1,2024.2.4,60.04924040253803,2025-02-25 14h50.03.739167 +0000,
