cue_img,cue_soa,target_x,trial,thisN,thisTrialN,thisRepN,key_control2.keys,key_control2.rt,key_control2.duration,key_resp.keys,key_resp.rt,key_resp.duration,practice.thisRepN,practice.thisTrialN,practice.thisN,practice.thisIndex,block1.thisRepN,block1.thisTrialN,block1.thisN,block1.thisIndex,block2.thisRepN,block2.thisTrialN,block2.thisN,block2.thisIndex,thisRow.t,notes,instructions.started,instructions_txt.started,key_control.started,instructions.stopped,key_control.keys,key_control.rt,key_control.duration,ready.started,ready_txt.started,ready_txt.stopped,ready.stopped,fix.started,fixation.started,key_control2.started,fixation_cross.started,fix.stopped,practice.key_control2.keys,practice.key_control2.rt,practice.key_control2.duration,cue.started,cube.started,fixation_cross_cue.started,cue.stopped,target.started,fixation_target.started,fixation_cross_target.started,key_resp.started,star.started,target.stopped,practice.key_resp.keys,practice.key_resp.rt,practice.key_resp.duration,star.stopped,fixation_target.stopped,fixation_cross_target.stopped,key_resp.stopped,block1.key_control2.keys,block1.key_control2.rt,block1.key_control2.duration,block1.key_resp.keys,block1.key_resp.rt,block1.key_resp.duration,break_2.started,text.started,key_control3.started,text.stopped,break_2.stopped,key_control3.keys,key_control3.rt,key_control3.duration,block2.key_control2.keys,block2.key_control2.rt,block2.key_control2.duration,block2.key_resp.keys,block2.key_resp.rt,block2.key_resp.duration,participant,session,date,expName,psychopyVersion,frameRate,expStart,
,,,,,,,,,,,,,,,,,,,,,,,,,,,0.0074390999507158995,0.02839340001810342,0.02839340001810342,13.887052199919708,up,13.846084199962206,None,,,,,,,,,,,,,,,,,,,,,,,,,,,,,,,,,,,,,,,,,,,,,,,,,,P125,001,2025-02-26_10h22.28.723,posner_endo_new1,2024.2.4,60.047653831416945,2025-02-26 10h22.44.088688 +0000,
,,,,,,,,,,,,,,,,,,,,,,,,,,,,,,,,,,13.887097799917683,13.900106100016274,16.900277099921368,16.880904899910092,,,,,,,,,,,,,,,,,,,,,,,,,,,,,,,,,,,,,,,,,,,,,,P125,001,2025-02-26_10h22.28.723,posner_endo_new1,2024.2.4,60.047653831416945,2025-02-26 10h22.44.088688 +0000,
cube_l.png,0.1,-0.31,valid,0,0,0,up,14.870839199982584,None,space,0.4970132999587804,None,0,0,0,0,,,,,,,,,16.900277099921368,,,,,,,,,,,,,16.888191199977882,16.900277099921368,16.900277099921368,16.900277099921368,31.78269099991303,up,14.870839199982584,None,31.79635129997041,31.80642319994513,31.80642319994513,31.848739599925466,31.848996000015177,31.86521439999342,31.86521439999342,31.86521439999342,31.94845439994242,32.36556770000607,space,0.4970132999587804,None,,,,,,,,,,,,,,,,,,,,,,,,,P125,001,2025-02-26_10h22.28.723,posner_endo_new1,2024.2.4,60.047653831416945,2025-02-26 10h22.44.088688 +0000,
cube_l.png,0.1,0.31,invalid,1,1,0,up,2.3421478000236675,None,space,0.3511093999259174,None,0,1,1,1,,,,,,,,,32.38118049991317,,,,,,,,,,,,,32.36577009991743,32.38118049991317,32.38118049991317,32.38118049991317,34.729792499914765,up,2.3421478000236675,None,34.73828950000461,34.74828239995986,34.74828239995986,34.79556130000856,34.7960573999444,34.81201539991889,34.81201539991889,34.81201539991889,34.89526359993033,35.18015449994709,space,0.3511093999259174,None,,,,,,,,,,,,,,,,,,,,,,,,,P125,001,2025-02-26_10h22.28.723,posner_endo_new1,2024.2.4,60.047653831416945,2025-02-26 10h22.44.088688 +0000,
cube_r.png,0.1,-0.31,invalid,2,2,0,up,2.2554194999393076,None,space,0.37627440004143864,None,0,2,2,2,,,,,,,,,35.19492189993616,,,,,,,,,,,,,35.18056249991059,35.19492189993616,35.19492189993616,35.19492189993616,37.460502599948086,up,2.2554194999393076,None,37.474044899921864,37.48433289991226,37.48433289991226,37.52629289997276,37.52661890001036,37.54283950000536,37.54283950000536,37.54283950000536,37.62596199999098,37.92688119993545,space,0.37627440004143864,None,,,,,,,,,,,,,,,,,,,,,,,,,P125,001,2025-02-26_10h22.28.723,posner_endo_new1,2024.2.4,60.047653831416945,2025-02-26 10h22.44.088688 +0000,
cube_r.png,0.1,10,catch,3,3,0,up,2.20480129995849,None,None,,,0,3,3,3,,,,,,,,,37.942421499988995,,,,,,,,,,,,,37.92715040000621,37.942421499988995,37.942421499988995,37.942421499988995,40.157863699947484,up,2.20480129995849,None,40.16935480001848,40.17942870000843,40.17942870000843,40.223469999968074,40.22379560000263,40.24001979990862,40.24001979990862,40.24001979990862,40.32330509996973,43.23778249998577,None,,,42.33789959992282,43.25356290000491,43.25356290000491,43.25356290000491,,,,,,,,,,,,,,,,,,,,,P125,001,2025-02-26_10h22.28.723,posner_endo_new1,2024.2.4,60.047653831416945,2025-02-26 10h22.44.088688 +0000,
cube_l.png,0.1,-0.31,valid,4,4,0,up,2.221227200003341,None,space,0.31564430007711053,None,0,4,4,4,,,,,,,,,43.25356290000491,,,,,,,,,,,,,43.23802910000086,43.25356290000491,43.25356290000491,43.25356290000491,45.48568109993357,up,2.221227200003341,None,45.497366399969906,45.5075314999558,45.5075314999558,45.55141359998379,45.5517573999241,45.567946199909784,45.567946199909784,45.567946199909784,45.65120099997148,45.88542419997975,space,0.31564430007711053,None,,,,,,,,,,,,,,,,,,,,,,,,,P125,001,2025-02-26_10h22.28.723,posner_endo_new1,2024.2.4,60.047653831416945,2025-02-26 10h22.44.088688 +0000,
cube_l.png,0.1,0.31,invalid,5,5,0,up,2.4781691000098363,None,space,0.40479549998417497,None,0,5,5,5,,,,,,,,,45.90085320000071,,,,,,,,,,,,,45.885699999984354,45.90085320000071,45.90085320000071,45.90085320000071,48.38286799995694,up,2.4781691000098363,None,48.39419719995931,48.404331199941225,48.404331199941225,48.44843829993624,48.44876299996395,48.46496809995733,48.46496809995733,48.46496809995733,48.54822529992089,48.882275699987076,space,0.40479549998417497,None,,,,,,,,,,,,,,,,,,,,,,,,,P125,001,2025-02-26_10h22.28.723,posner_endo_new1,2024.2.4,60.047653831416945,2025-02-26 10h22.44.088688 +0000,
cube_r.png,0.1,-0.31,invalid,6,6,0,up,2.448918200097978,None,space,0.40458339999895543,None,0,6,6,6,,,,,,,,,48.89777019992471,,,,,,,,,,,,,48.88253979990259,48.89777019992471,48.89777019992471,48.89777019992471,51.3630519999424,up,2.448918200097978,None,51.374085799907334,51.38411109999288,51.38411109999288,51.42879869998433,51.42912280000746,51.44518139993306,51.44518139993306,51.44518139993306,51.528554199961945,51.86254200001713,space,0.40458339999895543,None,,,,,,,,,,,,,,,,,,,,,,,,,P125,001,2025-02-26_10h22.28.723,posner_endo_new1,2024.2.4,60.047653831416945,2025-02-26 10h22.44.088688 +0000,
cube_r.png,0.1,0.31,valid,7,7,0,up,2.044742099940777,None,space,0.3912270999280736,None,0,7,7,7,,,,,,,,,51.87805569998454,,,,,,,,,,,,,51.86281630001031,51.87805569998454,51.87805569998454,51.87805569998454,53.927331599988975,up,2.044742099940777,None,53.93845199991483,53.948737300001085,53.948737300001085,53.99280329991598,53.993128299945965,54.009325799997896,54.009325799997896,54.009325799997896,54.09249369997997,54.40995899995323,space,0.3912270999280736,None,,,,,,,,,,,,,,,,,,,,,,,,,P125,001,2025-02-26_10h22.28.723,posner_endo_new1,2024.2.4,60.047653831416945,2025-02-26 10h22.44.088688 +0000,
cube_l.png,0.1,-0.31,valid,8,8,0,up,2.3297487000236288,None,space,0.40326719998847693,None,0,8,8,8,,,,,,,,,54.42548799992073,,,,,,,,,,,,,54.41022119997069,54.42548799992073,54.42548799992073,54.42548799992073,56.757757199928164,up,2.3297487000236288,None,56.76882559992373,56.77908419992309,56.77908419992309,56.823284299927764,56.82361209997907,56.83970319991931,56.83970319991931,56.83970319991931,56.923009499907494,57.25700909993611,space,0.40326719998847693,None,,,,,,,,,,,,,,,,,,,,,,,,,P125,001,2025-02-26_10h22.28.723,posner_endo_new1,2024.2.4,60.047653831416945,2025-02-26 10h22.44.088688 +0000,
cube_r.png,0.1,-0.31,invalid,9,9,0,up,2.594365599914454,None,space,0.4504659000085667,None,0,9,9,9,,,,,,,,,57.272626899997704,,,,,,,,,,,,,57.25727389997337,57.272626899997704,57.272626899997704,57.272626899997704,59.87118819996249,up,2.594365599914454,None,59.88216319994535,59.892478599911556,59.892478599911556,59.93663509993348,59.93696630001068,59.95325729995966,59.95325729995966,59.95325729995966,60.03646259999368,60.42046839999966,space,0.4504659000085667,None,,,,,,,,,,,,,,,,,,,,,,,,,P125,001,2025-02-26_10h22.28.723,posner_endo_new1,2024.2.4,60.047653831416945,2025-02-26 10h22.44.088688 +0000,
cube_r.png,0.1,0.31,valid,10,10,0,up,2.1989194999914616,None,space,0.3693265999900177,None,0,10,10,10,,,,,,,,,60.43602979998104,,,,,,,,,,,,,60.42074600001797,60.43602979998104,60.43602979998104,60.43602979998104,62.65191919996869,up,2.1989194999914616,None,62.662090500001796,62.671492800000124,62.671492800000124,62.71709369996097,62.71733089990448,62.733639699989,62.733639699989,62.733639699989,62.81678739993367,63.11728589993436,space,0.3693265999900177,None,,,,,,,,,,,,,,,,,,,,,,,,,P125,001,2025-02-26_10h22.28.723,posner_endo_new1,2024.2.4,60.047653831416945,2025-02-26 10h22.44.088688 +0000,
,,,,,,,,,,,,,,,,,,,,,,,,,,,,,,,,,,63.11740330001339,63.13306349993218,66.13905389991123,66.11401359993033,,,,,,,,,,,,,,,,,,,,,,,,,,,,,,,,,,,,,,,,,,,,,,P125,001,2025-02-26_10h22.28.723,posner_endo_new1,2024.2.4,60.047653831416945,2025-02-26 10h22.44.088688 +0000,
cube_l.png,0.1,10,catch,0,0,0,up,9.327696499996819,None,None,,,,,,,0,0,0,0,,,,,66.13905389991123,,,,,,,,,,,,,66.13014299992938,66.13905389991123,66.13905389991123,66.13905389991123,75.47155059990473,,,,75.47860349994153,75.49015009996947,75.49015009996947,75.53730229998473,75.537810800015,75.5537089999998,75.5537089999998,75.5537089999998,75.63698319997638,78.55164359998889,,,,77.65175249997992,78.5675875999732,78.5675875999732,78.5675875999732,up,9.327696499996819,None,None,,,,,,,,,,,,,,,,,P125,001,2025-02-26_10h22.28.723,posner_endo_new1,2024.2.4,60.047653831416945,2025-02-26 10h22.44.088688 +0000,
cube_l.png,0.1,10,catch,1,1,0,up,2.7794838999398053,None,None,,,,,,,0,1,1,1,,,,,78.5675875999732,,,,,,,,,,,,,78.55189579993021,78.5675875999732,78.5675875999732,78.5675875999732,81.34915929997806,,,,81.36072349990718,81.37091169995256,81.37091169995256,81.41471749998163,81.41504929994699,81.43128779996186,81.43128779996186,81.43128779996186,81.51447739999276,84.42885479994584,,,,83.529145999928,84.44464949995745,84.44464949995745,84.44464949995745,up,2.7794838999398053,None,None,,,,,,,,,,,,,,,,,P125,001,2025-02-26_10h22.28.723,posner_endo_new1,2024.2.4,60.047653831416945,2025-02-26 10h22.44.088688 +0000,
cube_l.png,0.1,0.31,invalid,2,2,0,up,0.190174899995327,None,space,0.47160349995829165,None,,,,,0,2,2,2,,,,,84.44464949995745,,,,,,,,,,,,,84.42912539991084,84.44464949995745,84.44464949995745,84.44464949995745,84.64566879998893,,,,84.65684919990599,84.66716419998556,84.66716419998556,84.71135709993541,84.7116970999632,84.72796369995922,84.72796369995922,84.72796369995922,84.81105329992715,85.21198309992906,,,,,,,,up,0.190174899995327,None,space,0.47160349995829165,None,,,,,,,,,,,,,,,P125,001,2025-02-26_10h22.28.723,posner_endo_new1,2024.2.4,60.047653831416945,2025-02-26 10h22.44.088688 +0000,
cube_l.png,0.1,0.31,invalid,3,3,0,up,2.3512788999360055,None,space,0.4525117001030594,None,,,,,0,3,3,3,,,,,85.22738459997345,,,,,,,,,,,,,85.21227419993374,85.22738459997345,85.22738459997345,85.22738459997345,87.59278309997171,,,,87.60391569999047,87.6142198999878,87.6142198999878,87.65850799996406,87.65884940000251,87.67485509999096,87.67485509999096,87.67485509999096,87.75811549997889,88.14210679999087,,,,,,,,up,2.3512788999360055,None,space,0.4525117001030594,None,,,,,,,,,,,,,,,P125,001,2025-02-26_10h22.28.723,posner_endo_new1,2024.2.4,60.047653831416945,2025-02-26 10h22.44.088688 +0000,
cube_l.png,0.1,-0.31,valid,4,4,0,up,2.068570200004615,None,space,0.3698141999775544,None,,,,,0,4,4,4,,,,,88.15773679991253,,,,,,,,,,,,,88.14241079997737,88.15773679991253,88.15773679991253,88.15773679991253,90.24011319992132,,,,90.25128289998975,90.26170429994818,90.26170429994818,90.3056946999859,90.30603410000913,90.32212369993795,90.32212369993795,90.32212369993795,90.40536619990598,90.70628129993565,,,,,,,,up,2.068570200004615,None,space,0.3698141999775544,None,,,,,,,,,,,,,,,P125,001,2025-02-26_10h22.28.723,posner_endo_new1,2024.2.4,60.047653831416945,2025-02-26 10h22.44.088688 +0000,
cube_r.png,0.1,-0.31,invalid,5,5,0,up,2.2891091000055894,None,space,0.49588299996685237,None,,,,,0,5,5,5,,,,,90.72171049995814,,,,,,,,,,,,,90.70657029992435,90.72171049995814,90.72171049995814,90.72171049995814,93.02060169994365,,,,93.0319738999242,93.04226319992449,93.04226319992449,93.08616189996246,93.08641959994566,93.10257330001332,93.10257330001332,93.10257330001332,93.18587970000226,93.60305009991862,,,,,,,,up,2.2891091000055894,None,space,0.49588299996685237,None,,,,,,,,,,,,,,,P125,001,2025-02-26_10h22.28.723,posner_endo_new1,2024.2.4,60.047653831416945,2025-02-26 10h22.44.088688 +0000,
cube_r.png,0.1,0.31,valid,6,6,0,up,2.144329599919729,None,space,0.35329679993446916,None,,,,,0,6,6,6,,,,,93.6186810999643,,,,,,,,,,,,,93.60325729998294,93.6186810999643,93.6186810999643,93.6186810999643,95.7673651999794,,,,95.77455590001773,95.7861936999252,95.7861936999252,95.83319359994493,95.83344269997906,95.84984259994235,95.84984259994235,95.84984259994235,95.9162869999418,96.21694640000351,,,,,,,,up,2.144329599919729,None,space,0.35329679993446916,None,,,,,,,,,,,,,,,P125,001,2025-02-26_10h22.28.723,posner_endo_new1,2024.2.4,60.047653831416945,2025-02-26 10h22.44.088688 +0000,
cube_r.png,0.1,-0.31,invalid,7,7,0,up,2.2498457999899983,None,space,0.3633089999202639,None,,,,,0,7,7,7,,,,,96.23270069994032,,,,,,,,,,,,,96.21714339999016,96.23270069994032,96.23270069994032,96.23270069994032,98.4979143999517,,,,98.50512039999012,98.51671759993769,98.51671759993769,98.56364830001257,98.56389859993942,98.58068229991477,98.58068229991477,98.58068229991477,98.64685159991495,98.94750050001312,,,,,,,,up,2.2498457999899983,None,space,0.3633089999202639,None,,,,,,,,,,,,,,,P125,001,2025-02-26_10h22.28.723,posner_endo_new1,2024.2.4,60.047653831416945,2025-02-26 10h22.44.088688 +0000,
cube_l.png,0.1,-0.31,valid,8,8,0,up,2.2871968999970704,None,space,0.42460249993018806,None,,,,,0,8,8,8,,,,,98.96328029991128,,,,,,,,,,,,,98.94770529994275,98.96328029991128,98.96328029991128,98.96328029991128,101.26172850001603,,,,101.26898749999236,101.28060009994078,101.28060009994078,101.32758869999088,101.32783500000369,101.34408949990757,101.34408949990757,101.34408949990757,101.42742490000091,101.77784879994579,,,,,,,,up,2.2871968999970704,None,space,0.42460249993018806,None,,,,,,,,,,,,,,,P125,001,2025-02-26_10h22.28.723,posner_endo_new1,2024.2.4,60.047653831416945,2025-02-26 10h22.44.088688 +0000,
cube_r.png,0.1,-0.31,invalid,9,9,0,up,2.041972600040026,None,space,0.42766239994671196,None,,,,,0,9,9,9,,,,,101.7938527999213,,,,,,,,,,,,,101.77805570000783,101.7938527999213,101.7938527999213,101.7938527999213,103.84251669992227,,,,103.84986279997975,103.86129589995835,103.86129589995835,103.90840119996574,103.90864769998007,103.92475369991735,103.92475369991735,103.92475369991735,104.00818359991536,104.35881749994587,,,,,,,,up,2.041972600040026,None,space,0.42766239994671196,None,,,,,,,,,,,,,,,P125,001,2025-02-26_10h22.28.723,posner_endo_new1,2024.2.4,60.047653831416945,2025-02-26 10h22.44.088688 +0000,
cube_l.png,0.1,0.31,invalid,10,10,0,up,2.1649426000658423,None,space,0.36040529992897063,None,,,,,0,10,10,10,,,,,104.37440490000881,,,,,,,,,,,,,104.35901799995918,104.37440490000881,104.37440490000881,104.37440490000881,106.55628249992151,,,,106.56351000000723,106.57485929992981,106.57485929992981,106.62224009993952,106.62250049994327,106.63870399992447,106.63870399992447,106.63870399992447,106.70530999999028,107.00592279992998,,,,,,,,up,2.1649426000658423,None,space,0.36040529992897063,None,,,,,,,,,,,,,,,P125,001,2025-02-26_10h22.28.723,posner_endo_new1,2024.2.4,60.047653831416945,2025-02-26 10h22.44.088688 +0000,
cube_r.png,0.1,-0.31,invalid,11,11,0,up,2.4295060000149533,None,space,0.3522811000002548,None,,,,,0,11,11,11,,,,,107.02179619995877,,,,,,,,,,,,,107.00612359994557,107.02179619995877,107.02179619995877,107.02179619995877,109.45372019999195,,,,109.46088089991827,109.47205450001638,109.47205450001638,109.51939129992388,109.51964099996258,109.53566239995416,109.53566239995416,109.53566239995416,109.61930219992064,109.9027594999643,,,,,,,,up,2.4295060000149533,None,space,0.3522811000002548,None,,,,,,,,,,,,,,,P125,001,2025-02-26_10h22.28.723,posner_endo_new1,2024.2.4,60.047653831416945,2025-02-26 10h22.44.088688 +0000,
cube_r.png,0.1,0.31,valid,12,12,0,up,2.2196883999276906,None,space,0.35491340002045035,None,,,,,0,12,12,12,,,,,109.91876499995124,,,,,,,,,,,,,109.90296999993734,109.91876499995124,109.91876499995124,109.91876499995124,112.15186400001403,,,,112.17092900001444,112.1823929999955,112.1823929999955,112.2165779999923,112.21693019999657,112.23307369998656,112.23307369998656,112.23307369998656,112.31632649991661,112.60064929991495,,,,,,,,up,2.2196883999276906,None,space,0.35491340002045035,None,,,,,,,,,,,,,,,P125,001,2025-02-26_10h22.28.723,posner_endo_new1,2024.2.4,60.047653831416945,2025-02-26 10h22.44.088688 +0000,
cube_l.png,0.1,10,catch,13,13,0,up,2.092080599977635,None,None,,,,,,,0,13,13,13,,,,,112.61603739997372,,,,,,,,,,,,,112.60095509991515,112.61603739997372,112.61603739997372,112.61603739997372,114.71606779994909,,,,114.73511469992809,114.74697999993805,114.74697999993805,114.78055519994814,114.78084979997948,114.79715759993996,114.79715759993996,114.79715759993996,114.88051309995353,117.79530929995235,,,,116.89496079995297,117.81069299997762,117.81069299997762,117.81069299997762,up,2.092080599977635,None,None,,,,,,,,,,,,,,,,,P125,001,2025-02-26_10h22.28.723,posner_endo_new1,2024.2.4,60.047653831416945,2025-02-26 10h22.44.088688 +0000,
cube_r.png,0.1,-0.31,invalid,14,14,0,up,2.841305600013584,None,space,0.4433882999001071,None,,,,,0,14,14,14,,,,,117.81069299997762,,,,,,,,,,,,,117.79577269998845,117.81069299997762,117.81069299997762,117.81069299997762,120.65977569995448,,,,120.67902119993232,120.68920569994953,120.68920569994953,120.7245927999029,120.7249112999998,120.74113260000013,120.74113260000013,120.74113260000013,120.82433739991393,121.19161490001716,,,,,,,,up,2.841305600013584,None,space,0.4433882999001071,None,,,,,,,,,,,,,,,P125,001,2025-02-26_10h22.28.723,posner_endo_new1,2024.2.4,60.047653831416945,2025-02-26 10h22.44.088688 +0000,
cube_l.png,0.1,-0.31,valid,15,15,0,up,2.4593514999141917,None,space,0.44133269996382296,None,,,,,0,15,15,15,,,,,121.20724119991064,,,,,,,,,,,,,121.19188900000881,121.20724119991064,121.20724119991064,121.20724119991064,123.67272439994849,,,,123.68237579998095,123.69198000000324,123.69198000000324,123.73823529994115,123.73848099994939,123.75463260000106,123.75463260000106,123.75463260000106,123.8378168999916,124.20499009999912,,,,,,,,up,2.4593514999141917,None,space,0.44133269996382296,None,,,,,,,,,,,,,,,P125,001,2025-02-26_10h22.28.723,posner_endo_new1,2024.2.4,60.047653831416945,2025-02-26 10h22.44.088688 +0000,
cube_r.png,0.1,10,catch,16,16,0,up,2.3894089000532404,None,None,,,,,,,0,16,16,16,,,,,124.220832199906,,,,,,,,,,,,,124.20518649998121,124.220832199906,124.220832199906,124.220832199906,126.61916669993661,,,,126.62629409995861,126.63793879991863,126.63793879991863,126.68509699997958,126.68533130001742,126.70169509993866,126.70169509993866,126.70169509993866,126.76844789995812,129.69911139993928,,,,128.78291389998049,129.71524469996803,129.71524469996803,129.71524469996803,up,2.3894089000532404,None,None,,,,,,,,,,,,,,,,,P125,001,2025-02-26_10h22.28.723,posner_endo_new1,2024.2.4,60.047653831416945,2025-02-26 10h22.44.088688 +0000,
cube_r.png,0.1,10,catch,17,17,0,up,2.4639011000981554,None,None,,,,,,,0,17,17,17,,,,,129.71524469996803,,,,,,,,,,,,,129.69929599994794,129.71524469996803,129.71524469996803,129.71524469996803,132.18041689996608,,,,132.18751329998486,132.19910510000773,132.19910510000773,132.24620779999532,132.2464450999396,132.26247359998524,132.26247359998524,132.26247359998524,132.34585789998528,135.26012019999325,,,,134.36043249990325,135.27607429993805,135.27607429993805,135.27607429993805,up,2.4639011000981554,None,None,,,,,,,,,,,,,,,,,P125,001,2025-02-26_10h22.28.723,posner_endo_new1,2024.2.4,60.047653831416945,2025-02-26 10h22.44.088688 +0000,
cube_l.png,0.1,0.31,invalid,18,18,0,up,2.8388065999606624,None,space,0.4186998999211937,None,,,,,0,18,18,18,,,,,135.27607429993805,,,,,,,,,,,,,135.26030470000114,135.27607429993805,135.27607429993805,135.27607429993805,138.12406509998254,,,,138.13031359994784,138.14185919996817,138.14185919996817,138.18990250001661,138.190136399935,138.20656149997376,138.20656149997376,138.20656149997376,138.2898458999116,138.6402052999474,,,,,,,,up,2.8388065999606624,None,space,0.4186998999211937,None,,,,,,,,,,,,,,,P125,001,2025-02-26_10h22.28.723,posner_endo_new1,2024.2.4,60.047653831416945,2025-02-26 10h22.44.088688 +0000,
cube_l.png,0.1,10,catch,19,19,0,up,2.2185992000158876,None,None,,,,,,,0,19,19,19,,,,,138.6559989999514,,,,,,,,,,,,,138.6403933999827,138.6559989999514,138.6559989999514,138.6559989999514,140.88799489999656,,,,140.89447729999665,140.90622040000744,140.90622040000744,140.95388499996625,140.95411729998887,140.97037009999622,140.97037009999622,140.97037009999622,141.05358959990554,143.96791100001428,,,,143.06825729995035,143.98398029990494,143.98398029990494,143.98398029990494,up,2.2185992000158876,None,None,,,,,,,,,,,,,,,,,P125,001,2025-02-26_10h22.28.723,posner_endo_new1,2024.2.4,60.047653831416945,2025-02-26 10h22.44.088688 +0000,
cube_l.png,0.1,0.31,invalid,20,20,0,up,0.45936790003906935,None,space,0.496153200045228,None,,,,,0,20,20,20,,,,,143.98398029990494,,,,,,,,,,,,,143.96808329992928,143.98398029990494,143.98398029990494,143.98398029990494,144.4510212999303,,,,144.45723059994634,144.46889729995746,144.46889729995746,144.5169162999373,144.517151499982,144.5334198999917,144.5334198999917,144.5334198999917,144.61669940000866,145.03400679992046,,,,,,,,up,0.45936790003906935,None,space,0.496153200045228,None,,,,,,,,,,,,,,,P125,001,2025-02-26_10h22.28.723,posner_endo_new1,2024.2.4,60.047653831416945,2025-02-26 10h22.44.088688 +0000,
cube_l.png,0.1,-0.31,valid,21,21,0,up,1.961631500045769,None,space,0.5322175000328571,None,,,,,0,21,21,21,,,,,145.04961009998806,,,,,,,,,,,,,145.0341921999352,145.04961009998806,145.04961009998806,145.04961009998806,147.0148813999258,,,,147.02105069998652,147.03253809991293,147.03253809991293,147.0809828999918,147.0812213999452,147.0973692999687,147.0973692999687,147.0973692999687,147.16410669998731,147.6313281999901,,,,,,,,up,1.961631500045769,None,space,0.5322175000328571,None,,,,,,,,,,,,,,,P125,001,2025-02-26_10h22.28.723,posner_endo_new1,2024.2.4,60.047653831416945,2025-02-26 10h22.44.088688 +0000,
cube_r.png,0.1,0.31,valid,22,22,0,up,2.1556763000553474,None,space,0.3194672000827268,None,,,,,0,22,22,22,,,,,147.64680109999608,,,,,,,,,,,,,147.63151999993715,147.64680109999608,147.64680109999608,147.64680109999608,149.81216039997526,,,,149.81837210000958,149.82994119997602,149.82994119997602,149.87813079997431,149.87837049993686,149.8944890999701,149.8944890999701,149.8944890999701,149.9778648999054,150.22842780000065,,,,,,,,up,2.1556763000553474,None,space,0.3194672000827268,None,,,,,,,,,,,,,,,P125,001,2025-02-26_10h22.28.723,posner_endo_new1,2024.2.4,60.047653831416945,2025-02-26 10h22.44.088688 +0000,
cube_r.png,0.1,-0.31,invalid,23,23,0,up,2.4869478999171406,None,space,0.363997699925676,None,,,,,0,23,23,23,,,,,150.24421779997647,,,,,,,,,,,,,150.22861360001843,150.24421779997647,150.24421779997647,150.24421779997647,152.74252079997677,,,,152.74883059994318,152.76048970001284,152.76048970001284,152.80836199992336,152.8085949999513,152.82503079995513,152.82503079995513,152.82503079995513,152.9082858999027,153.19176159997005,,,,,,,,up,2.4869478999171406,None,space,0.363997699925676,None,,,,,,,,,,,,,,,P125,001,2025-02-26_10h22.28.723,posner_endo_new1,2024.2.4,60.047653831416945,2025-02-26 10h22.44.088688 +0000,
cube_r.png,0.1,0.31,valid,24,24,0,up,2.3706925000296906,None,space,0.33966549998149276,None,,,,,0,24,24,24,,,,,153.20786600001156,,,,,,,,,,,,,153.19194779999088,153.20786600001156,153.20786600001156,153.20786600001156,155.58929149992764,,,,155.5954357999144,155.60701649996918,155.60701649996918,155.6555446999846,155.65577579999808,155.6721688999096,155.6721688999096,155.6721688999096,155.738688500016,156.02243789995555,,,,,,,,up,2.3706925000296906,None,space,0.33966549998149276,None,,,,,,,,,,,,,,,P125,001,2025-02-26_10h22.28.723,posner_endo_new1,2024.2.4,60.047653831416945,2025-02-26 10h22.44.088688 +0000,
cube_r.png,0.1,-0.31,invalid,25,25,0,up,2.3168667000718415,None,space,0.35626199992839247,None,,,,,0,25,25,25,,,,,156.03830199991353,,,,,,,,,,,,,156.02262309996877,156.03830199991353,156.03830199991353,156.03830199991353,158.36997040000279,,,,158.37609729997348,158.38780159992166,158.38780159992166,158.43597729993053,158.43621049996,158.45245959993917,158.45245959993917,158.45245959993917,158.51921339996625,158.81967260001693,,,,,,,,up,2.3168667000718415,None,space,0.35626199992839247,None,,,,,,,,,,,,,,,P125,001,2025-02-26_10h22.28.723,posner_endo_new1,2024.2.4,60.047653831416945,2025-02-26 10h22.44.088688 +0000,
cube_l.png,0.1,-0.31,valid,26,26,0,up,2.383322900044732,None,space,0.3985555999679491,None,,,,,0,26,26,26,,,,,158.83537390001584,,,,,,,,,,,,,158.81986039993353,158.83537390001584,158.83537390001584,158.83537390001584,161.23382039996795,,,,161.24011549993884,161.25176989997271,161.25176989997271,161.29974499996752,161.29997809999622,161.3162739999825,161.3162739999825,161.3162739999825,161.3827816999983,161.71678879996762,,,,,,,,up,2.383322900044732,None,space,0.3985555999679491,None,,,,,,,,,,,,,,,P125,001,2025-02-26_10h22.28.723,posner_endo_new1,2024.2.4,60.047653831416945,2025-02-26 10h22.44.088688 +0000,
cube_r.png,0.1,0.31,valid,27,27,0,up,2.2700639000395313,None,space,0.40053989994339645,None,,,,,0,27,27,27,,,,,161.7325030999491,,,,,,,,,,,,,161.71697189996485,161.7325030999491,161.7325030999491,161.7325030999491,164.01425419992302,,,,164.02051079995,164.03193619998638,164.03193619998638,164.08034569991287,164.08061099995393,164.0967995999381,164.0967995999381,164.0967995999381,164.16338209994137,164.5138091999106,,,,,,,,up,2.2700639000395313,None,space,0.40053989994339645,None,,,,,,,,,,,,,,,P125,001,2025-02-26_10h22.28.723,posner_endo_new1,2024.2.4,60.047653831416945,2025-02-26 10h22.44.088688 +0000,
cube_r.png,0.1,10,catch,28,28,0,up,1.6169278000015765,None,None,,,,,,,0,28,28,28,,,,,164.52965219994076,,,,,,,,,,,,,164.51399779994972,164.52965219994076,164.52965219994076,164.52965219994076,166.16211329994258,,,,166.16838409996126,166.18007649993524,166.18007649993524,166.22814789996482,166.22838350001257,166.244705399964,166.244705399964,166.244705399964,166.31108669994865,169.24211569991894,,,,168.32576709997375,169.25806249992456,169.25806249992456,169.25806249992456,up,1.6169278000015765,None,None,,,,,,,,,,,,,,,,,P125,001,2025-02-26_10h22.28.723,posner_endo_new1,2024.2.4,60.047653831416945,2025-02-26 10h22.44.088688 +0000,
cube_r.png,0.1,0.31,valid,29,29,0,up,2.7688228000188246,None,space,0.3525494000641629,None,,,,,0,29,29,29,,,,,169.25806249992456,,,,,,,,,,,,,169.24228929996025,169.25806249992456,169.25806249992456,169.25806249992456,172.0394704999635,,,,172.04586329997983,172.0573546999367,172.0573546999367,172.10536169994157,172.10560359992087,172.12175599997863,172.12175599997863,172.12175599997863,172.1884766999865,172.4890811999794,,,,,,,,up,2.7688228000188246,None,space,0.3525494000641629,None,,,,,,,,,,,,,,,P125,001,2025-02-26_10h22.28.723,posner_endo_new1,2024.2.4,60.047653831416945,2025-02-26 10h22.44.088688 +0000,
cube_r.png,0.1,0.31,valid,30,30,0,up,2.3297998999478295,None,space,0.4039999999804422,None,,,,,0,30,30,30,,,,,172.5047377999872,,,,,,,,,,,,,172.48926559998654,172.5047377999872,172.5047377999872,172.5047377999872,174.8367081999313,,,,174.8430081999395,174.85472589998972,174.85472589998972,174.90250039997045,174.90273580001667,174.91905559995212,174.91905559995212,174.91905559995212,175.00219799997285,175.33599549997598,,,,,,,,up,2.3297998999478295,None,space,0.4039999999804422,None,,,,,,,,,,,,,,,P125,001,2025-02-26_10h22.28.723,posner_endo_new1,2024.2.4,60.047653831416945,2025-02-26 10h22.44.088688 +0000,
cube_l.png,0.1,-0.31,valid,31,31,0,up,2.1543783000670373,None,space,0.37445000000298023,None,,,,,0,31,31,31,,,,,175.3521441000048,,,,,,,,,,,,,175.33618390001357,175.3521441000048,175.3521441000048,175.3521441000048,177.51713409996592,,,,177.52338949998375,177.53505029994994,177.53505029994994,177.5830504000187,177.58328689995687,177.5995562999742,177.5995562999742,177.5995562999742,177.66620119998697,177.98332759994082,,,,,,,,up,2.1543783000670373,None,space,0.37445000000298023,None,,,,,,,,,,,,,,,P125,001,2025-02-26_10h22.28.723,posner_endo_new1,2024.2.4,60.047653831416945,2025-02-26 10h22.44.088688 +0000,
cube_r.png,0.1,0.31,valid,32,32,0,up,2.2678447000216693,None,space,0.384226500056684,None,,,,,0,32,32,32,,,,,177.99920680001378,,,,,,,,,,,,,177.98351849999744,177.99920680001378,177.99920680001378,177.99920680001378,180.2809260999784,,,,180.28702069993597,180.29870709998067,180.29870709998067,180.34702149999794,180.34724449994974,180.36373260000255,180.36373260000255,180.36373260000255,180.43008089996874,180.76382379990537,,,,,,,,up,2.2678447000216693,None,space,0.384226500056684,None,,,,,,,,,,,,,,,P125,001,2025-02-26_10h22.28.723,posner_endo_new1,2024.2.4,60.047653831416945,2025-02-26 10h22.44.088688 +0000,
cube_r.png,0.1,-0.31,invalid,33,33,0,up,2.2395368999568745,None,space,0.3704270999878645,None,,,,,0,33,33,33,,,,,180.7796709999675,,,,,,,,,,,,,180.76400909991935,180.7796709999675,180.7796709999675,180.7796709999675,183.0280660999706,,,,183.03442449995782,183.0460793999955,183.0460793999955,183.09420799999498,183.09445570001844,183.1106461000163,183.1106461000163,183.1106461000163,183.17730789992493,183.49430769996252,,,,,,,,up,2.2395368999568745,None,space,0.3704270999878645,None,,,,,,,,,,,,,,,P125,001,2025-02-26_10h22.28.723,posner_endo_new1,2024.2.4,60.047653831416945,2025-02-26 10h22.44.088688 +0000,
cube_r.png,0.1,10,catch,34,34,0,up,2.1883801999501884,None,None,,,,,,,0,34,34,34,,,,,183.51046799996402,,,,,,,,,,,,,183.49449209996965,183.51046799996402,183.51046799996402,183.51046799996402,185.70916839991696,,,,185.71911700000055,185.72934059996624,185.72934059996624,185.7747226000065,185.77504009997938,185.79126669990364,185.79126669990364,185.79126669990364,185.87455219996627,188.78885459993035,,,,187.8891483999323,188.80489829997532,188.80489829997532,188.80489829997532,up,2.1883801999501884,None,None,,,,,,,,,,,,,,,,,P125,001,2025-02-26_10h22.28.723,posner_endo_new1,2024.2.4,60.047653831416945,2025-02-26 10h22.44.088688 +0000,
cube_r.png,0.1,0.31,valid,35,35,0,up,2.6701657999074087,None,space,0.36108420009259135,None,,,,,0,35,35,35,,,,,188.80489829997532,,,,,,,,,,,,,188.78910249995533,188.80489829997532,188.80489829997532,188.80489829997532,191.48660880001262,,,,191.4970126999542,191.507152199978,191.507152199978,191.55217949999496,191.55249459994957,191.56872509990353,191.56872509990353,191.56872509990353,191.65197849995457,191.93605359992944,,,,,,,,up,2.6701657999074087,None,space,0.36108420009259135,None,,,,,,,,,,,,,,,P125,001,2025-02-26_10h22.28.723,posner_endo_new1,2024.2.4,60.047653831416945,2025-02-26 10h22.44.088688 +0000,
cube_r.png,0.1,-0.31,invalid,36,36,0,up,2.435649699997157,None,space,0.42447689990513027,None,,,,,0,36,36,36,,,,,191.9514996999642,,,,,,,,,,,,,191.93631929997355,191.9514996999642,191.9514996999642,191.9514996999642,194.40003219991922,,,,194.4098979999544,194.4201562999515,194.4201562999515,194.46584799990524,194.46616630000062,194.48237109999172,194.48237109999172,194.48237109999172,194.56566249998286,194.91645509994123,,,,,,,,up,2.435649699997157,None,space,0.42447689990513027,None,,,,,,,,,,,,,,,P125,001,2025-02-26_10h22.28.723,posner_endo_new1,2024.2.4,60.047653831416945,2025-02-26 10h22.44.088688 +0000,
cube_l.png,0.1,0.31,invalid,37,37,0,up,2.199084599968046,None,space,0.3806996000930667,None,,,,,0,37,37,37,,,,,194.93185609998181,,,,,,,,,,,,,194.91672280000057,194.93185609998181,194.93185609998181,194.93185609998181,197.14693769998848,,,,197.15328480000608,197.16497019992676,197.16497019992676,197.21298979991116,197.21322249993682,197.22952579997946,197.22952579997946,197.22952579997946,197.2963647999568,197.6133269999409,,,,,,,,up,2.199084599968046,None,space,0.3806996000930667,None,,,,,,,,,,,,,,,P125,001,2025-02-26_10h22.28.723,posner_endo_new1,2024.2.4,60.047653831416945,2025-02-26 10h22.44.088688 +0000,
cube_l.png,0.1,0.31,invalid,38,38,0,up,2.149941199924797,None,space,0.3583903999533504,None,,,,,0,38,38,38,,,,,197.62924469995778,,,,,,,,,,,,,197.61351699999068,197.62924469995778,197.62924469995778,197.62924469995778,199.79436259996146,,,,199.8004513999913,199.81203519995324,199.81203519995324,199.86038149998058,199.86062429996673,199.87687299994286,199.87687299994286,199.87687299994286,199.94363120000344,200.2438298999332,,,,,,,,up,2.149941199924797,None,space,0.3583903999533504,None,,,,,,,,,,,,,,,P125,001,2025-02-26_10h22.28.723,posner_endo_new1,2024.2.4,60.047653831416945,2025-02-26 10h22.44.088688 +0000,
cube_r.png,0.1,0.31,valid,39,39,0,up,2.422848999965936,None,space,0.370868599973619,None,,,,,0,39,39,39,,,,,200.25982089992613,,,,,,,,,,,,,200.2440132999327,200.25982089992613,200.25982089992613,200.25982089992613,202.6913725999184,,,,202.69739929994103,202.70861089997925,202.70861089997925,202.75736789999064,202.75788169994485,202.77381399995647,202.77381399995647,202.77381399995647,202.84039959998336,203.15855980000924,,,,,,,,up,2.422848999965936,None,space,0.370868599973619,None,,,,,,,,,,,,,,,P125,001,2025-02-26_10h22.28.723,posner_endo_new1,2024.2.4,60.047653831416945,2025-02-26 10h22.44.088688 +0000,
cube_l.png,0.1,0.31,invalid,40,40,0,up,2.2131361999781802,None,space,0.3169646000023931,None,,,,,0,40,40,40,,,,,203.17334749992006,,,,,,,,,,,,,203.1590100999456,203.17334749992006,203.17334749992006,203.17334749992006,205.38930449995678,,,,205.40081459993962,205.41118489997461,205.41118489997461,205.45478349993937,205.45513609994669,205.47125069994945,205.47125069994945,205.47125069994945,205.55460139992647,205.80528349999804,,,,,,,,up,2.2131361999781802,None,space,0.3169646000023931,None,,,,,,,,,,,,,,,P125,001,2025-02-26_10h22.28.723,posner_endo_new1,2024.2.4,60.047653831416945,2025-02-26 10h22.44.088688 +0000,
cube_l.png,0.1,10,catch,41,41,0,up,2.3344955999637023,None,None,,,,,,,0,41,41,41,,,,,205.82070119993296,,,,,,,,,,,,,205.80558879999444,205.82070119993296,205.82070119993296,205.82070119993296,208.1696364999516,,,,208.18104779999703,208.19144199998118,208.19144199998118,208.23510219994932,208.2353627999546,208.251599399955,208.251599399955,208.251599399955,208.3349603000097,211.24915199994575,,,,210.3493460000027,211.26511809998192,211.26511809998192,211.26511809998192,up,2.3344955999637023,None,None,,,,,,,,,,,,,,,,,P125,001,2025-02-26_10h22.28.723,posner_endo_new1,2024.2.4,60.047653831416945,2025-02-26 10h22.44.088688 +0000,
cube_l.png,0.1,-0.31,valid,42,42,0,up,2.825575100025162,None,space,0.3540130000328645,None,,,,,0,42,42,42,,,,,211.26511809998192,,,,,,,,,,,,,211.24934450001456,211.26511809998192,211.26511809998192,211.26511809998192,214.09663939999882,,,,214.1042293999344,214.11503879993688,214.11503879993688,214.162423199974,214.16267889994197,214.1788706999505,214.1788706999505,214.1788706999505,214.2619260000065,214.54610859998502,,,,,,,,up,2.825575100025162,None,space,0.3540130000328645,None,,,,,,,,,,,,,,,P125,001,2025-02-26_10h22.28.723,posner_endo_new1,2024.2.4,60.047653831416945,2025-02-26 10h22.44.088688 +0000,
cube_l.png,0.1,10,catch,43,43,0,up,2.2174554000375792,None,None,,,,,,,0,43,43,43,,,,,214.56170710001606,,,,,,,,,,,,,214.54631659993902,214.56170710001606,214.56170710001606,214.56170710001606,216.79383149999194,,,,216.8012611999875,216.81243379996158,216.81243379996158,216.85956369992346,216.85982239991426,216.87610539991874,216.87610539991874,216.87610539991874,216.95938659994863,219.87368640000932,,,,218.9739058999112,219.88976119994186,219.88976119994186,219.88976119994186,up,2.2174554000375792,None,None,,,,,,,,,,,,,,,,,P125,001,2025-02-26_10h22.28.723,posner_endo_new1,2024.2.4,60.047653831416945,2025-02-26 10h22.44.088688 +0000,
cube_l.png,0.1,0.31,invalid,44,44,0,up,2.6408858000067994,None,space,0.3956187000731006,None,,,,,0,44,44,44,,,,,219.88976119994186,,,,,,,,,,,,,219.87387909996323,219.88976119994186,219.88976119994186,219.88976119994186,222.53794049995486,,,,222.54561409994494,222.5565285999328,222.5565285999328,222.60375199990813,222.60401189990807,222.62016419996507,222.62016419996507,222.62016419996507,222.70342869998422,223.02076579991262,,,,,,,,up,2.6408858000067994,None,space,0.3956187000731006,None,,,,,,,,,,,,,,,P125,001,2025-02-26_10h22.28.723,posner_endo_new1,2024.2.4,60.047653831416945,2025-02-26 10h22.44.088688 +0000,
cube_l.png,0.1,0.31,invalid,45,45,0,up,2.2949300000909716,None,space,0.511006599990651,None,,,,,0,45,45,45,,,,,223.03641880000941,,,,,,,,,,,,,223.02097509999294,223.03641880000941,223.03641880000941,223.03641880000941,225.33507909998298,,,,225.34257909993175,225.35384709993377,225.35384709993377,225.40095549996477,225.4012117999373,225.41741829994135,225.41741829994135,225.41741829994135,225.50072999997064,225.9344868999906,,,,,,,,up,2.2949300000909716,None,space,0.511006599990651,None,,,,,,,,,,,,,,,P125,001,2025-02-26_10h22.28.723,posner_endo_new1,2024.2.4,60.047653831416945,2025-02-26 10h22.44.088688 +0000,
cube_r.png,0.1,0.31,valid,46,46,0,up,2.14195960003417,None,space,0.41972670005634427,None,,,,,0,46,46,46,,,,,225.95016629993916,,,,,,,,,,,,,225.93470440001693,225.95016629993916,225.95016629993916,225.95016629993916,228.0989547999343,,,,228.10643439996056,228.11762199993245,228.11762199993245,228.1646776999114,228.16493510000873,228.18119569995906,228.18119569995906,228.18119569995906,228.26459929998964,228.61502699996345,,,,,,,,up,2.14195960003417,None,space,0.41972670005634427,None,,,,,,,,,,,,,,,P125,001,2025-02-26_10h22.28.723,posner_endo_new1,2024.2.4,60.047653831416945,2025-02-26 10h22.44.088688 +0000,
cube_l.png,0.1,-0.31,valid,47,47,0,up,2.172213300014846,None,space,0.4471249000634998,None,,,,,0,47,47,47,,,,,228.6307550999336,,,,,,,,,,,,,228.61523479991592,228.6307550999336,228.6307550999336,228.6307550999336,230.8127651999239,,,,230.8202385000186,230.83151029993314,230.83151029993314,230.87871489999816,230.87897019996308,230.89505329995882,230.89505329995882,230.89505329995882,230.9615609999746,231.34569029998966,,,,,,,,up,2.172213300014846,None,space,0.4471249000634998,None,,,,,,,,,,,,,,,P125,001,2025-02-26_10h22.28.723,posner_endo_new1,2024.2.4,60.047653831416945,2025-02-26 10h22.44.088688 +0000,
cube_r.png,0.1,-0.31,invalid,48,48,0,up,2.3452187000075355,None,space,0.5028207999421284,None,,,,,0,48,48,48,,,,,231.36139659991022,,,,,,,,,,,,,231.34589749993756,231.36139659991022,231.36139659991022,231.36139659991022,233.7097990999464,,,,233.7170462999493,233.7286785999313,233.7286785999313,233.77566909999587,233.77591799991205,233.79203609994147,233.79203609994147,233.79203609994147,233.87532859994099,234.30917679995764,,,,,,,,up,2.3452187000075355,None,space,0.5028207999421284,None,,,,,,,,,,,,,,,P125,001,2025-02-26_10h22.28.723,posner_endo_new1,2024.2.4,60.047653831416945,2025-02-26 10h22.44.088688 +0000,
cube_r.png,0.1,10,catch,49,49,0,up,2.3094720999943092,None,None,,,,,,,0,49,49,49,,,,,234.3250965999905,,,,,,,,,,,,,234.3093840999063,234.3250965999905,234.3250965999905,234.3250965999905,236.64015709992964,,,,236.6473458999535,236.65899649995845,236.65899649995845,236.7059929999523,236.70649369992316,236.7223858999787,236.7223858999787,236.7223858999787,236.80561689997558,239.72043340001255,,,,238.82056609995198,239.73621809994802,239.73621809994802,239.73621809994802,up,2.3094720999943092,None,None,,,,,,,,,,,,,,,,,P125,001,2025-02-26_10h22.28.723,posner_endo_new1,2024.2.4,60.047653831416945,2025-02-26 10h22.44.088688 +0000,
cube_l.png,0.1,-0.31,valid,50,50,0,up,2.698384999996051,None,space,0.31996929994784296,None,,,,,0,50,50,50,,,,,239.73621809994802,,,,,,,,,,,,,239.72070149995852,239.73621809994802,239.73621809994802,239.73621809994802,242.45134459994733,,,,242.46283209999092,242.47279229993,242.47279229993,242.51699899998493,242.5173396000173,242.53344729996752,242.53344729996752,242.53344729996752,242.6165812999243,242.86751030001324,,,,,,,,up,2.698384999996051,None,space,0.31996929994784296,None,,,,,,,,,,,,,,,P125,001,2025-02-26_10h22.28.723,posner_endo_new1,2024.2.4,60.047653831416945,2025-02-26 10h22.44.088688 +0000,
cube_l.png,0.1,-0.31,valid,51,51,0,up,2.3194723000051454,None,space,0.37707249994855374,None,,,,,0,51,51,51,,,,,242.88299969991203,,,,,,,,,,,,,242.86779970000498,242.88299969991203,242.88299969991203,242.88299969991203,245.2150312999729,,,,245.22634069994092,245.23656180000398,245.23656180000398,245.28074069996364,245.28108220000286,245.2971121999435,245.2971121999435,245.2971121999435,245.38048039993737,245.68122419994324,,,,,,,,up,2.3194723000051454,None,space,0.37707249994855374,None,,,,,,,,,,,,,,,P125,001,2025-02-26_10h22.28.723,posner_endo_new1,2024.2.4,60.047653831416945,2025-02-26 10h22.44.088688 +0000,
cube_r.png,0.1,-0.31,invalid,52,52,0,up,2.2425077999942005,None,space,0.36737910006195307,None,,,,,0,52,52,52,,,,,245.69671599997673,,,,,,,,,,,,,245.6815205999883,245.69671599997673,245.69671599997673,245.69671599997673,247.94558739999775,,,,247.95713869994506,247.96745409991127,247.96745409991127,248.01131789991632,248.0116594999563,248.0277207000181,248.0277207000181,248.0277207000181,248.09436899994034,248.41176749998704,,,,,,,,up,2.2425077999942005,None,space,0.36737910006195307,None,,,,,,,,,,,,,,,P125,001,2025-02-26_10h22.28.723,posner_endo_new1,2024.2.4,60.047653831416945,2025-02-26 10h22.44.088688 +0000,
cube_l.png,0.1,-0.31,valid,53,53,0,up,2.271788700018078,None,space,0.32069270010106266,None,,,,,0,53,53,53,,,,,248.42734229995403,,,,,,,,,,,,,248.41205299994908,248.42734229995403,248.42734229995403,248.42734229995403,250.70948389999103,,,,250.72080989996903,250.73105770000257,250.73105770000257,250.77503629995044,250.77528780000284,250.79153559997212,250.79153559997212,250.79153559997212,250.87466580001637,251.12541739991866,,,,,,,,up,2.271788700018078,None,space,0.32069270010106266,None,,,,,,,,,,,,,,,P125,001,2025-02-26_10h22.28.723,posner_endo_new1,2024.2.4,60.047653831416945,2025-02-26 10h22.44.088688 +0000,
cube_r.png,0.1,10,catch,54,54,0,up,2.3662502999650314,None,None,,,,,,,0,54,54,54,,,,,251.1411167999031,,,,,,,,,,,,,251.1256116000004,251.1411167999031,251.1411167999031,251.1411167999031,253.5229488000041,,,,253.5302302999189,253.54172420001123,253.54172420001123,253.58884549990762,253.58906929998193,253.60526579990983,253.60526579990983,253.60526579990983,253.68864910001867,256.60341819992755,,,,255.703308199998,256.6188029999612,256.6188029999612,256.6188029999612,up,2.3662502999650314,None,None,,,,,,,,,,,,,,,,,P125,001,2025-02-26_10h22.28.723,posner_endo_new1,2024.2.4,60.047653831416945,2025-02-26 10h22.44.088688 +0000,
cube_l.png,0.1,0.31,invalid,55,55,0,up,2.441724900039844,None,space,0.47950949997175485,None,,,,,0,55,55,55,,,,,256.6188029999612,,,,,,,,,,,,,256.6038829999743,256.6188029999612,256.6188029999612,256.6188029999612,259.0684283999726,,,,259.0866573000094,259.0979774999432,259.0979774999432,259.1331167999888,259.1334202999715,259.14960969996173,259.14960969996173,259.14960969996173,259.2329118999187,259.6335039999103,,,,,,,,up,2.441724900039844,None,space,0.47950949997175485,None,,,,,,,,,,,,,,,P125,001,2025-02-26_10h22.28.723,posner_endo_new1,2024.2.4,60.047653831416945,2025-02-26 10h22.44.088688 +0000,
cube_l.png,0.1,-0.31,valid,56,56,0,up,2.2979662000434473,None,space,0.5368344000307843,None,,,,,0,56,56,56,,,,,259.64915199996904,,,,,,,,,,,,,259.6337524999399,259.64915199996904,259.64915199996904,259.64915199996904,261.9490136000095,,,,261.96700039994903,261.9784185999306,261.9784185999306,262.0135455999989,262.01384509995114,262.0300103999907,262.0300103999907,262.0300103999907,262.1133130999515,262.581428400008,,,,,,,,up,2.2979662000434473,None,space,0.5368344000307843,None,,,,,,,,,,,,,,,P125,001,2025-02-26_10h22.28.723,posner_endo_new1,2024.2.4,60.047653831416945,2025-02-26 10h22.44.088688 +0000,
cube_r.png,0.1,0.31,valid,57,57,0,up,2.29460480005946,None,space,0.46818880003411323,None,,,,,0,57,57,57,,,,,262.5960732999956,,,,,,,,,,,,,262.581906999927,262.5960732999956,262.5960732999956,262.5960732999956,264.89564389991574,,,,264.91379199991934,264.9256173999747,264.9256173999747,264.9607281999197,264.9610691999551,264.9770299999509,264.9770299999509,264.9770299999509,265.0603811999317,265.46103699994273,,,,,,,,up,2.29460480005946,None,space,0.46818880003411323,None,,,,,,,,,,,,,,,P125,001,2025-02-26_10h22.28.723,posner_endo_new1,2024.2.4,60.047653831416945,2025-02-26 10h22.44.088688 +0000,
cube_r.png,0.1,-0.31,invalid,58,58,0,up,2.270456700003706,None,space,0.7159172999672592,None,,,,,0,58,58,58,,,,,265.4765459999908,,,,,,,,,,,,,265.4613304999657,265.4765459999908,265.4765459999908,265.4765459999908,267.7588957999833,,,,267.7700588000007,267.78030759992544,267.78030759992544,267.82437769998796,267.8247188999085,267.84074449993204,267.84074449993204,267.84074449993204,267.92411519994494,268.5581688999664,,,,,,,,up,2.270456700003706,None,space,0.7159172999672592,None,,,,,,,,,,,,,,,P125,001,2025-02-26_10h22.28.723,posner_endo_new1,2024.2.4,60.047653831416945,2025-02-26 10h22.44.088688 +0000,
cube_l.png,0.1,0.31,invalid,59,59,0,up,2.142164299963042,None,space,0.47533380007371306,None,,,,,0,59,59,59,,,,,268.5733409000095,,,,,,,,,,,,,268.5584554999368,268.5733409000095,268.5733409000095,268.5733409000095,270.72195159993134,,,,270.72905239998363,270.74084589991253,270.74084589991253,270.78782570001204,270.788071100018,270.80424620001577,270.80424620001577,270.80424620001577,270.8709809000138,271.28802919993177,,,,,,,,up,2.142164299963042,None,space,0.47533380007371306,None,,,,,,,,,,,,,,,P125,001,2025-02-26_10h22.28.723,posner_endo_new1,2024.2.4,60.047653831416945,2025-02-26 10h22.44.088688 +0000,
,,,,,,,,,,,,,,,,,,,,,,,,,,,,,,,,,,,,,,,,,,,,,,,,,,,,,,,,,,,,,,,,,,,,,271.2881524999393,271.3037016999442,271.3037016999442,331.3091507999925,334.5900012999773,space,63.283299100003205,None,,,,,,,P125,001,2025-02-26_10h22.28.723,posner_endo_new1,2024.2.4,60.047653831416945,2025-02-26 10h22.44.088688 +0000,
,,,,,,,,,,,,,,,,,,,,,,,,,,,,,,,,,,334.5900526000187,334.605886299978,337.6096877999371,337.5865567999426,,,,,,,,,,,,,,,,,,,,,,,,,,,,,,,,,,,,,,,,,,,,,,P125,001,2025-02-26_10h22.28.723,posner_endo_new1,2024.2.4,60.047653831416945,2025-02-26 10h22.44.088688 +0000,
cube_l.png,0.1,10,catch,0,0,0,down,11.953840899979696,None,None,,,,,,,,,,,0,0,0,0,337.6096877999371,,,,,,,,,,,,,337.6008529999526,337.6096877999371,337.6096877999371,337.6096877999371,349.5748975999886,,,,349.5851508999476,349.5949901000131,349.5949901000131,349.6406215999741,349.64089109993074,349.65727490000427,349.65727490000427,349.65727490000427,349.7403323999606,352.65460539993364,,,,351.754962899955,352.67075479996856,352.67075479996856,352.67075479996856,,,,,,,,,,,,,,,down,11.953840899979696,None,None,,,P125,001,2025-02-26_10h22.28.723,posner_endo_new1,2024.2.4,60.047653831416945,2025-02-26 10h22.44.088688 +0000,
cube_l.png,0.1,10,catch,1,1,0,down,2.3084702000487596,None,None,,,,,,,,,,,0,1,1,1,352.67075479996856,,,,,,,,,,,,,352.65480589994695,352.67075479996856,352.67075479996856,352.67075479996856,354.9859056000132,,,,354.99450429994613,355.0045882000122,355.0045882000122,355.05169979995117,355.05221419990994,355.0681450999109,355.0681450999109,355.0681450999109,355.1515982999699,358.06603479990736,,,,357.1661580000073,358.0821491999086,358.0821491999086,358.0821491999086,,,,,,,,,,,,,,,down,2.3084702000487596,None,None,,,P125,001,2025-02-26_10h22.28.723,posner_endo_new1,2024.2.4,60.047653831416945,2025-02-26 10h22.44.088688 +0000,
cube_l.png,0.1,0.31,invalid,2,2,0,down,0.33661250001750886,None,space,0.46740560000762343,None,,,,,,,,,0,2,2,2,358.0821491999086,,,,,,,,,,,,,358.0663101999089,358.0821491999086,358.0821491999086,358.0821491999086,358.4328283999348,,,,358.44487979996484,358.45503399998415,358.45503399998415,358.4983520999085,358.4986962999683,358.51487640000414,358.51487640000414,358.51487640000414,358.59810760000255,358.9989923000103,,,,,,,,,,,,,,,,,,,,,,down,0.33661250001750886,None,space,0.46740560000762343,None,P125,001,2025-02-26_10h22.28.723,posner_endo_new1,2024.2.4,60.047653831416945,2025-02-26 10h22.44.088688 +0000,
cube_l.png,0.1,0.31,invalid,3,3,0,down,21.805250799981877,None,space,0.6603797000134364,None,,,,,,,,,0,3,3,3,359.01439179992303,,,,,,,,,,,,,358.9992923999671,359.01439179992303,359.01439179992303,359.01439179992303,380.8265511000063,,,,380.8389528999105,380.849171299953,380.849171299953,380.89197029999923,380.89221660001203,380.90849659999367,380.90849659999367,380.90849659999367,380.99179329990875,381.57531789992936,,,,,,,,,,,,,,,,,,,,,,down,21.805250799981877,None,space,0.6603797000134364,None,P125,001,2025-02-26_10h22.28.723,posner_endo_new1,2024.2.4,60.047653831416945,2025-02-26 10h22.44.088688 +0000,
cube_l.png,0.1,-0.31,valid,4,4,0,down,9.852266000001691,None,space,0.4332273999461904,None,,,,,,,,,0,4,4,4,381.59113279997837,,,,,,,,,,,,,381.57552569999825,381.59113279997837,381.59113279997837,381.59113279997837,391.44844810001086,,,,391.45631109992974,391.46683479996864,391.46683479996864,391.51446239999495,391.5149550999049,391.53089129994623,391.53089129994623,391.53089129994623,391.59752289997414,391.9660539999604,,,,,,,,,,,,,,,,,,,,,,down,9.852266000001691,None,space,0.4332273999461904,None,P125,001,2025-02-26_10h22.28.723,posner_endo_new1,2024.2.4,60.047653831416945,2025-02-26 10h22.44.088688 +0000,
cube_r.png,0.1,-0.31,invalid,5,5,0,down,4.470576800056733,None,space,0.3599873000057414,None,,,,,,,,,0,5,5,5,391.98044640000444,,,,,,,,,,,,,391.96650280000176,391.98044640000444,391.98044640000444,391.98044640000444,396.4605593999149,,,,396.4716499999631,396.4812666999642,396.4812666999642,396.5262661000015,396.5264975000173,396.5425417999504,396.5425417999504,396.5425417999504,396.6259046999039,396.9094919000054,,,,,,,,,,,,,,,,,,,,,,down,4.470576800056733,None,space,0.3599873000057414,None,P125,001,2025-02-26_10h22.28.723,posner_endo_new1,2024.2.4,60.047653831416945,2025-02-26 10h22.44.088688 +0000,
cube_r.png,0.1,0.31,valid,6,6,0,down,9.901871599955484,None,space,0.47433830006048083,None,,,,,,,,,0,6,6,6,396.92556889995467,,,,,,,,,,,,,396.9096827999456,396.92556889995467,396.92556889995467,396.92556889995467,406.83287509996444,,,,406.8399054999463,406.85165399999823,406.85165399999823,406.8989117000019,406.899137099972,406.915288799908,406.915288799908,406.915288799908,406.99870599992573,407.39877580001485,,,,,,,,,,,,,,,,,,,,,,down,9.901871599955484,None,space,0.47433830006048083,None,P125,001,2025-02-26_10h22.28.723,posner_endo_new1,2024.2.4,60.047653831416945,2025-02-26 10h22.44.088688 +0000,
cube_r.png,0.1,-0.31,invalid,7,7,0,down,1.7082121000858024,None,space,0.5096707999473438,None,,,,,,,,,0,7,7,7,407.41490759991575,,,,,,,,,,,,,407.39895149995573,407.41490759991575,407.41490759991575,407.41490759991575,409.1304517999524,,,,409.1367126000114,409.1484426999232,409.1484426999232,409.1964953999268,409.19671699998435,409.21309069998097,409.21309069998097,409.21309069998097,409.2795285999309,409.7298043000046,,,,,,,,,,,,,,,,,,,,,,down,1.7082121000858024,None,space,0.5096707999473438,None,P125,001,2025-02-26_10h22.28.723,posner_endo_new1,2024.2.4,60.047653831416945,2025-02-26 10h22.44.088688 +0000,
cube_l.png,0.1,-0.31,valid,8,8,0,down,2.2491217999486253,None,space,0.4075503000058234,None,,,,,,,,,0,8,8,8,409.74580559995957,,,,,,,,,,,,,409.7299802999478,409.74580559995957,409.74580559995957,409.74580559995957,412.0108051999705,,,,412.0170137999812,412.02862769993953,412.02862769993953,412.0771612999961,412.0773844999494,412.0933792999713,412.0933792999713,412.0933792999713,412.15994389995467,412.51041330001317,,,,,,,,,,,,,,,,,,,,,,down,2.2491217999486253,None,space,0.4075503000058234,None,P125,001,2025-02-26_10h22.28.723,posner_endo_new1,2024.2.4,60.047653831416945,2025-02-26 10h22.44.088688 +0000,
cube_r.png,0.1,-0.31,invalid,9,9,0,down,1.468771000043489,None,space,0.41737819998525083,None,,,,,,,,,0,9,9,9,412.52621349995025,,,,,,,,,,,,,412.5106085999869,412.52621349995025,412.52621349995025,412.52621349995025,414.008728899993,,,,414.014866399928,414.02666139998473,414.02666139998473,414.074992400012,414.0752163999714,414.09130600001663,414.09130600001663,414.09130600001663,414.1578643999528,414.5249238999095,,,,,,,,,,,,,,,,,,,,,,down,1.468771000043489,None,space,0.41737819998525083,None,P125,001,2025-02-26_10h22.28.723,posner_endo_new1,2024.2.4,60.047653831416945,2025-02-26 10h22.44.088688 +0000,
cube_l.png,0.1,0.31,invalid,10,10,0,down,5.429990000091493,None,space,0.3932669000932947,None,,,,,,,,,0,10,10,10,414.5409902000101,,,,,,,,,,,,,414.5251008999767,414.5409902000101,414.5409902000101,414.5409902000101,419.98608820000663,,,,419.9923428999027,420.00400549999904,420.00400549999904,420.05204009998124,420.0522636999376,420.0686931000091,420.0686931000091,420.0686931000091,420.1353217000142,420.4687797999941,,,,,,,,,,,,,,,,,,,,,,down,5.429990000091493,None,space,0.3932669000932947,None,P125,001,2025-02-26_10h22.28.723,posner_endo_new1,2024.2.4,60.047653831416945,2025-02-26 10h22.44.088688 +0000,
cube_r.png,0.1,-0.31,invalid,11,11,0,down,9.510281100054272,None,space,0.3654214999405667,None,,,,,,,,,0,11,11,11,420.4848050000146,,,,,,,,,,,,,420.4689615999814,420.4848050000146,420.4848050000146,420.4848050000146,430.00926789990626,,,,430.0155168999918,430.0271778999595,430.0271778999595,430.07521809998434,430.0754390999209,430.09163529996295,430.09163529996295,430.09163529996295,430.1749076999258,430.4588296000147,,,,,,,,,,,,,,,,,,,,,,down,9.510281100054272,None,space,0.3654214999405667,None,P125,001,2025-02-26_10h22.28.723,posner_endo_new1,2024.2.4,60.047653831416945,2025-02-26 10h22.44.088688 +0000,
cube_r.png,0.1,0.31,valid,12,12,0,down,3.2085102999117225,None,space,0.41697130003012717,None,,,,,,,,,0,12,12,12,430.47457349998876,,,,,,,,,,,,,430.45902179996483,430.47457349998876,430.47457349998876,430.47457349998876,433.6886696999427,,,,433.6946724000154,433.7063831000123,433.7063831000123,433.7547442999203,433.7549711000174,433.77130279992707,433.77130279992707,433.77130279992707,433.8379303999245,434.2048562999116,,,,,,,,,,,,,,,,,,,,,,down,3.2085102999117225,None,space,0.41697130003012717,None,P125,001,2025-02-26_10h22.28.723,posner_endo_new1,2024.2.4,60.047653831416945,2025-02-26 10h22.44.088688 +0000,
cube_l.png,0.1,10,catch,13,13,0,down,2.5424800000619143,None,None,,,,,,,,,,,0,13,13,13,434.2208042999264,,,,,,,,,,,,,434.2050320999697,434.2208042999264,434.2208042999264,434.2208042999264,436.768854899914,,,,436.77484480000567,436.78639049991034,436.78639049991034,436.8348782999674,436.83509860001504,436.8514385999879,436.8514385999879,436.8514385999879,436.91802729992196,439.84891509998124,,,,438.93260890000965,439.8650262999581,439.8650262999581,439.8650262999581,,,,,,,,,,,,,,,down,2.5424800000619143,None,None,,,P125,001,2025-02-26_10h22.28.723,posner_endo_new1,2024.2.4,60.047653831416945,2025-02-26 10h22.44.088688 +0000,
cube_r.png,0.1,-0.31,invalid,14,14,0,down,3.114505899953656,None,space,0.36480440001469105,None,,,,,,,,,0,14,14,14,439.8650262999581,,,,,,,,,,,,,439.849100499996,439.8650262999581,439.8650262999581,439.8650262999581,442.9959638,,,,443.0022086999379,443.0138775999658,443.0138775999658,443.0618536999682,443.06207499990705,443.0785324999597,443.0785324999597,443.0785324999597,443.14509619993623,443.4455280000111,,,,,,,,,,,,,,,,,,,,,,down,3.114505899953656,None,space,0.36480440001469105,None,P125,001,2025-02-26_10h22.28.723,posner_endo_new1,2024.2.4,60.047653831416945,2025-02-26 10h22.44.088688 +0000,
cube_l.png,0.1,-0.31,valid,15,15,0,down,2.302389500080608,None,space,0.4274087999947369,None,,,,,,,,,0,15,15,15,443.4613836999051,,,,,,,,,,,,,443.44570249994285,443.4613836999051,443.4613836999051,443.4613836999051,445.7764267999446,,,,445.7824890000047,445.7941681999946,445.7941681999946,445.8424611999653,445.84268160001375,445.8589071999304,445.8589071999304,445.8589071999304,445.9254390000133,446.2925003999844,,,,,,,,,,,,,,,,,,,,,,down,2.302389500080608,None,space,0.4274087999947369,None,P125,001,2025-02-26_10h22.28.723,posner_endo_new1,2024.2.4,60.047653831416945,2025-02-26 10h22.44.088688 +0000,
cube_r.png,0.1,10,catch,16,16,0,down,2.415202400065027,None,None,,,,,,,,,,,0,16,16,16,446.30848110001534,,,,,,,,,,,,,446.29267669992987,446.30848110001534,446.30848110001534,446.30848110001534,448.7400591999758,,,,448.7459288999671,448.7576269999845,448.7576269999845,448.80596159992274,448.80618179996964,448.82258859998547,448.82258859998547,448.82258859998547,448.8891380999703,451.8199341999134,,,,450.903858799953,451.83603489992674,451.83603489992674,451.83603489992674,,,,,,,,,,,,,,,down,2.415202400065027,None,None,,,P125,001,2025-02-26_10h22.28.723,posner_endo_new1,2024.2.4,60.047653831416945,2025-02-26 10h22.44.088688 +0000,
cube_r.png,0.1,10,catch,17,17,0,down,2.1674845999805257,None,None,,,,,,,,,,,0,17,17,17,451.83603489992674,,,,,,,,,,,,,451.8201153000118,451.83603489992674,451.83603489992674,451.83603489992674,454.0179584999569,,,,454.0238249999238,454.0355169000104,454.0355169000104,454.0839007999748,454.08412030001637,454.10048419993836,454.10048419993836,454.10048419993836,454.16720409994014,457.0977969999658,,,,456.1818140000105,457.11399749992415,457.11399749992415,457.11399749992415,,,,,,,,,,,,,,,down,2.1674845999805257,None,None,,,P125,001,2025-02-26_10h22.28.723,posner_endo_new1,2024.2.4,60.047653831416945,2025-02-26 10h22.44.088688 +0000,
cube_l.png,0.1,0.31,invalid,18,18,0,down,3.297280300059356,None,space,0.5209004000062123,None,,,,,,,,,0,18,18,18,457.11399749992415,,,,,,,,,,,,,457.0979593999218,457.11399749992415,457.11399749992415,457.11399749992415,460.4280478999717,,,,460.43405469995923,460.4454307999695,460.4454307999695,460.4940253999084,460.49424709996674,460.51079799991567,460.51079799991567,460.51079799991567,460.5775318999076,461.0440545999445,,,,,,,,,,,,,,,,,,,,,,down,3.297280300059356,None,space,0.5209004000062123,None,P125,001,2025-02-26_10h22.28.723,posner_endo_new1,2024.2.4,60.047653831416945,2025-02-26 10h22.44.088688 +0000,
cube_l.png,0.1,10,catch,19,19,0,down,1.7835455000167713,None,None,,,,,,,,,,,0,19,19,19,461.0600490999641,,,,,,,,,,,,,461.04422989999875,461.0600490999641,461.0600490999641,461.0600490999641,462.8589892999735,,,,462.8647861999925,462.87647489993833,462.87647489993833,462.924942499958,462.9251632000087,462.94155390001833,462.94155390001833,462.94155390001833,463.0247318999609,465.93888819997665,,,,465.0393915999448,465.9549541999586,465.9549541999586,465.9549541999586,,,,,,,,,,,,,,,down,1.7835455000167713,None,None,,,P125,001,2025-02-26_10h22.28.723,posner_endo_new1,2024.2.4,60.047653831416945,2025-02-26 10h22.44.088688 +0000,
cube_l.png,0.1,0.31,invalid,20,20,0,down,2.552656799904071,None,space,0.4285064999712631,None,,,,,,,,,0,20,20,20,465.9549541999586,,,,,,,,,,,,,465.93905249994714,465.9549541999586,465.9549541999586,465.9549541999586,468.51984419999644,,,,468.5257935000118,468.5368847999489,468.5368847999489,468.58572859992273,468.58622709999327,468.6021787999198,468.6021787999198,468.6021787999198,468.68576089991257,469.0362782999873,,,,,,,,,,,,,,,,,,,,,,down,2.552656799904071,None,space,0.4285064999712631,None,P125,001,2025-02-26_10h22.28.723,posner_endo_new1,2024.2.4,60.047653831416945,2025-02-26 10h22.44.088688 +0000,
cube_l.png,0.1,-0.31,valid,21,21,0,down,2.335163600044325,None,space,0.4381721999961883,None,,,,,,,,,0,21,21,21,469.051753000007,,,,,,,,,,,,,469.03656439995393,469.051753000007,469.051753000007,469.051753000007,471.4002720999997,,,,471.4069458999438,471.4181757000042,471.4181757000042,471.46627259999514,471.46680439997,471.482660699985,471.482660699985,471.482660699985,471.56595129997004,471.934119499987,,,,,,,,,,,,,,,,,,,,,,down,2.335163600044325,None,space,0.4381721999961883,None,P125,001,2025-02-26_10h22.28.723,posner_endo_new1,2024.2.4,60.047653831416945,2025-02-26 10h22.44.088688 +0000,
cube_r.png,0.1,0.31,valid,22,22,0,down,2.598553300020285,None,space,0.41133080003783107,None,,,,,,,,,0,22,22,22,471.94884039997123,,,,,,,,,,,,,471.9346003999235,471.94884039997123,471.94884039997123,471.94884039997123,474.5645578999538,,,,474.58240289997775,474.59366969997063,474.59366969997063,474.6298017000081,474.6301030999748,474.6461497999262,474.6461497999262,474.6461497999262,474.7293600999983,475.064438899979,,,,,,,,,,,,,,,,,,,,,,down,2.598553300020285,None,space,0.41133080003783107,None,P125,001,2025-02-26_10h22.28.723,posner_endo_new1,2024.2.4,60.047653831416945,2025-02-26 10h22.44.088688 +0000,
cube_r.png,0.1,-0.31,invalid,23,23,0,down,2.9880960000446066,None,space,0.4863469999982044,None,,,,,,,,,0,23,23,23,475.0789967000019,,,,,,,,,,,,,475.06492099992465,475.0789967000019,475.0789967000019,475.0789967000019,478.07785649993457,,,,478.09583749994636,478.10755419998895,478.10755419998895,478.14271169994026,478.14302459999453,478.15937659994233,478.15937659994233,478.15937659994233,478.2424655999057,478.65979129995685,,,,,,,,,,,,,,,,,,,,,,down,2.9880960000446066,None,space,0.4863469999982044,None,P125,001,2025-02-26_10h22.28.723,posner_endo_new1,2024.2.4,60.047653831416945,2025-02-26 10h22.44.088688 +0000,
cube_r.png,0.1,0.31,valid,24,24,0,down,2.2323179999366403,None,space,0.34025540004950017,None,,,,,,,,,0,24,24,24,478.67542380001396,,,,,,,,,,,,,478.660046499921,478.67542380001396,478.67542380001396,478.67542380001396,480.9244091999717,,,,480.9356089999201,480.94562000001315,480.94562000001315,480.9898868999444,480.99022779997904,481.0063025999116,481.0063025999116,481.0063025999116,481.089619699982,481.3571250999812,,,,,,,,,,,,,,,,,,,,,,down,2.2323179999366403,None,space,0.34025540004950017,None,P125,001,2025-02-26_10h22.28.723,posner_endo_new1,2024.2.4,60.047653831416945,2025-02-26 10h22.44.088688 +0000,
cube_r.png,0.1,-0.31,invalid,25,25,0,down,2.350947799975984,None,space,0.4133375999517739,None,,,,,,,,,0,25,25,25,481.3727782999631,,,,,,,,,,,,,481.3574187000049,481.3727782999631,481.3727782999631,481.3727782999631,483.7380579999881,,,,483.7491597000044,483.7594462999841,483.7594462999841,483.80358569999225,483.8039272999158,483.8200808999827,483.8200808999827,483.8200808999827,483.90333739994094,484.2376621000003,,,,,,,,,,,,,,,,,,,,,,down,2.350947799975984,None,space,0.4133375999517739,None,P125,001,2025-02-26_10h22.28.723,posner_endo_new1,2024.2.4,60.047653831416945,2025-02-26 10h22.44.088688 +0000,
cube_l.png,0.1,-0.31,valid,26,26,0,down,2.342387399985455,None,space,0.36128039995674044,None,,,,,,,,,0,26,26,26,484.25298190000467,,,,,,,,,,,,,484.23795849992894,484.25298190000467,484.25298190000467,484.25298190000467,486.6018816999858,,,,486.61296179995406,486.62334529997315,486.62334529997315,486.667455399991,486.66779370000586,486.68382439995185,486.68382439995185,486.68382439995185,486.76704870001413,487.0512583999662,,,,,,,,,,,,,,,,,,,,,,down,2.342387399985455,None,space,0.36128039995674044,None,P125,001,2025-02-26_10h22.28.723,posner_endo_new1,2024.2.4,60.047653831416945,2025-02-26 10h22.44.088688 +0000,
cube_r.png,0.1,0.31,valid,27,27,0,down,2.3844251999398693,None,space,0.34112929995171726,None,,,,,,,,,0,27,27,27,487.06674629996996,,,,,,,,,,,,,487.05155109998304,487.06674629996996,487.06674629996996,487.06674629996996,489.46514809993096,,,,489.47226830001455,489.48397770000156,489.48397770000156,489.53091889992356,489.5311658999417,489.5473993999185,489.5473993999185,489.5473993999185,489.63088899990544,489.8980524999788,,,,,,,,,,,,,,,,,,,,,,down,2.3844251999398693,None,space,0.34112929995171726,None,P125,001,2025-02-26_10h22.28.723,posner_endo_new1,2024.2.4,60.047653831416945,2025-02-26 10h22.44.088688 +0000,
cube_r.png,0.1,10,catch,28,28,0,down,2.3373776000225917,None,None,,,,,,,,,,,0,28,28,28,489.9138351000147,,,,,,,,,,,,,489.898252199986,489.9138351000147,489.9138351000147,489.9138351000147,492.2621800999623,,,,492.26929650001694,492.28108119999524,492.28108119999524,492.3282705999445,492.3285181999672,492.34447839995846,492.34447839995846,492.34447839995846,492.4112541999202,495.34217419999186,,,,494.42598449997604,495.3581841000123,495.3581841000123,495.3581841000123,,,,,,,,,,,,,,,down,2.3373776000225917,None,None,,,P125,001,2025-02-26_10h22.28.723,posner_endo_new1,2024.2.4,60.047653831416945,2025-02-26 10h22.44.088688 +0000,
cube_r.png,0.1,0.31,valid,29,29,0,down,0.0937609999673441,None,space,0.3877246999181807,None,,,,,,,,,0,29,29,29,495.3581841000123,,,,,,,,,,,,,495.3423606000142,495.3581841000123,495.3581841000123,495.3581841000123,495.45905199996196,,,,495.4661737999413,495.4779452999355,495.4779452999355,495.5250625999179,495.5253192000091,495.54142579995096,495.54142579995096,495.54142579995096,495.6081504999893,495.9412413999671,,,,,,,,,,,,,,,,,,,,,,down,0.0937609999673441,None,space,0.3877246999181807,None,P125,001,2025-02-26_10h22.28.723,posner_endo_new1,2024.2.4,60.047653831416945,2025-02-26 10h22.44.088688 +0000,
cube_r.png,0.1,0.31,valid,30,30,0,down,2.3174997000023723,None,space,0.5432818999979645,None,,,,,,,,,0,30,30,30,495.95751849992666,,,,,,,,,,,,,495.94144079997204,495.95751849992666,495.95751849992666,495.95751849992666,498.28938339999877,,,,498.2964571999619,498.308275999967,498.308275999967,498.35530169995036,498.35579379997216,498.37171739991754,498.37171739991754,498.37171739991754,498.4549976999406,498.9224761999212,,,,,,,,,,,,,,,,,,,,,,down,2.3174997000023723,None,space,0.5432818999979645,None,P125,001,2025-02-26_10h22.28.723,posner_endo_new1,2024.2.4,60.047653831416945,2025-02-26 10h22.44.088688 +0000,
cube_l.png,0.1,-0.31,valid,31,31,0,down,2.4981585999485105,None,space,0.4072655999334529,None,,,,,,,,,0,31,31,31,498.9379698999692,,,,,,,,,,,,,498.9227559999563,498.9379698999692,498.9379698999692,498.9379698999692,501.45332639990374,,,,501.46398959995713,501.4738523999695,501.4738523999695,501.51879869995173,501.51913369994145,501.53543599997647,501.53543599997647,501.53543599997647,501.6186456999276,501.95285839994904,,,,,,,,,,,,,,,,,,,,,,down,2.4981585999485105,None,space,0.4072655999334529,None,P125,001,2025-02-26_10h22.28.723,posner_endo_new1,2024.2.4,60.047653831416945,2025-02-26 10h22.44.088688 +0000,
cube_r.png,0.1,0.31,valid,32,32,0,down,2.122760400059633,None,space,0.4812261000042781,None,,,,,,,,,0,32,32,32,501.96825409994926,,,,,,,,,,,,,501.95314809994306,501.96825409994926,501.96825409994926,501.96825409994926,504.1006188999163,,,,504.1108910999028,504.12041959993076,504.12041959993076,504.16602629993577,504.16624779999256,504.1826663999818,504.1826663999818,504.1826663999818,504.2658981999848,504.6662522999104,,,,,,,,,,,,,,,,,,,,,,down,2.122760400059633,None,space,0.4812261000042781,None,P125,001,2025-02-26_10h22.28.723,posner_endo_new1,2024.2.4,60.047653831416945,2025-02-26 10h22.44.088688 +0000,
cube_r.png,0.1,-0.31,invalid,33,33,0,down,2.001174100092612,None,space,0.414945499971509,None,,,,,,,,,0,33,33,33,504.6821220999118,,,,,,,,,,,,,504.6664284999715,504.6821220999118,504.6821220999118,504.6821220999118,506.6975354999304,,,,506.70370750001166,506.71547779999673,506.71547779999673,506.7635554999579,506.76377829990815,506.7800398999825,506.7800398999825,506.7800398999825,506.84650789992884,507.19704869994894,,,,,,,,,,,,,,,,,,,,,,down,2.001174100092612,None,space,0.414945499971509,None,P125,001,2025-02-26_10h22.28.723,posner_endo_new1,2024.2.4,60.047653831416945,2025-02-26 10h22.44.088688 +0000,
cube_r.png,0.1,10,catch,34,34,0,down,2.2384627000428736,None,None,,,,,,,,,,,0,34,34,34,507.2129650999559,,,,,,,,,,,,,507.1972213999834,507.2129650999559,507.2129650999559,507.2129650999559,509.4611734999344,,,,509.46731799992267,509.47905129997525,509.47905129997525,509.52732909994666,509.5275507000042,509.54372700001113,509.54372700001113,509.54372700001113,509.6104766000062,512.5411804999458,,,,511.6251466999529,512.5573515999131,512.5573515999131,512.5573515999131,,,,,,,,,,,,,,,down,2.2384627000428736,None,None,,,P125,001,2025-02-26_10h22.28.723,posner_endo_new1,2024.2.4,60.047653831416945,2025-02-26 10h22.44.088688 +0000,
cube_r.png,0.1,0.31,valid,35,35,0,down,0.1737931000534445,None,space,0.42522710002958775,None,,,,,,,,,0,35,35,35,512.5573515999131,,,,,,,,,,,,,512.541359399911,512.5573515999131,512.5573515999131,512.5573515999131,512.7413814999163,,,,512.7472455999814,512.7589805999305,512.7589805999305,512.8073313999921,512.8075503999135,512.8238517999416,512.8238517999416,512.8238517999416,512.907049399917,513.257474699989,,,,,,,,,,,,,,,,,,,,,,down,0.1737931000534445,None,space,0.42522710002958775,None,P125,001,2025-02-26_10h22.28.723,posner_endo_new1,2024.2.4,60.047653831416945,2025-02-26 10h22.44.088688 +0000,
cube_r.png,0.1,-0.31,invalid,36,36,0,down,2.3137665999820456,None,space,0.48141380003653467,None,,,,,,,,,0,36,36,36,513.2733448999934,,,,,,,,,,,,,513.2576483999146,513.2733448999934,513.2733448999934,513.2733448999934,515.5884985999437,,,,515.5942532999907,515.6058473999146,515.6058473999146,515.6543099000119,515.6545390000101,515.6709508999484,515.6709508999484,515.6709508999484,515.737392299925,516.1546482999111,,,,,,,,,,,,,,,,,,,,,,down,2.3137665999820456,None,space,0.48141380003653467,None,P125,001,2025-02-26_10h22.28.723,posner_endo_new1,2024.2.4,60.047653831416945,2025-02-26 10h22.44.088688 +0000,
cube_l.png,0.1,0.31,invalid,37,37,0,down,2.225273600080982,None,space,0.4288812999147922,None,,,,,,,,,0,37,37,37,516.1704278999241,,,,,,,,,,,,,516.1548236999661,516.1704278999241,516.1704278999241,516.1704278999241,518.4021221000003,,,,518.4079513999168,518.4196555999806,518.4196555999806,518.4682917000027,518.4685151999583,518.484628999955,518.484628999955,518.484628999955,518.5511746999109,518.9182896999409,,,,,,,,,,,,,,,,,,,,,,down,2.225273600080982,None,space,0.4288812999147922,None,P125,001,2025-02-26_10h22.28.723,posner_endo_new1,2024.2.4,60.047653831416945,2025-02-26 10h22.44.088688 +0000,
cube_l.png,0.1,0.31,invalid,38,38,0,down,2.1098341000033543,None,space,0.4303568999748677,None,,,,,,,,,0,38,38,38,518.9343442999525,,,,,,,,,,,,,518.9184678000165,518.9343442999525,518.9343442999525,518.9343442999525,521.0494522999506,,,,521.0552469999529,521.0670102000004,521.0670102000004,521.1154864999698,521.1157090999186,521.1320151999826,521.1320151999826,521.1320151999826,521.1986408999655,521.565644999966,,,,,,,,,,,,,,,,,,,,,,down,2.1098341000033543,None,space,0.4303568999748677,None,P125,001,2025-02-26_10h22.28.723,posner_endo_new1,2024.2.4,60.047653831416945,2025-02-26 10h22.44.088688 +0000,
cube_r.png,0.1,0.31,valid,39,39,0,down,2.398079299950041,None,space,0.3730152000207454,None,,,,,,,,,0,39,39,39,521.5817608999787,,,,,,,,,,,,,521.5658230999252,521.5817608999787,521.5817608999787,521.5817608999787,523.996527499985,,,,524.00227669999,524.0137428999878,524.0137428999878,524.0624000999378,524.0626220999984,524.0792119000107,524.0792119000107,524.0792119000107,524.1456057999749,524.4626499000005,,,,,,,,,,,,,,,,,,,,,,down,2.398079299950041,None,space,0.3730152000207454,None,P125,001,2025-02-26_10h22.28.723,posner_endo_new1,2024.2.4,60.047653831416945,2025-02-26 10h22.44.088688 +0000,
cube_l.png,0.1,0.31,invalid,40,40,0,down,2.4286929999943823,None,space,0.5208462999435142,None,,,,,,,,,0,40,40,40,524.4786256999942,,,,,,,,,,,,,524.4628262999468,524.4786256999942,524.4786256999942,524.4786256999942,526.9102113000117,,,,526.9159787999233,526.9276972999796,526.9276972999796,526.9761694999179,526.9763957000105,526.9926678999327,526.9926678999327,526.9926678999327,527.0592214999488,527.5262770999689,,,,,,,,,,,,,,,,,,,,,,down,2.4286929999943823,None,space,0.5208462999435142,None,P125,001,2025-02-26_10h22.28.723,posner_endo_new1,2024.2.4,60.047653831416945,2025-02-26 10h22.44.088688 +0000,
cube_l.png,0.1,10,catch,41,41,0,down,2.460942800040357,None,None,,,,,,,,,,,0,41,41,41,527.542067399947,,,,,,,,,,,,,527.5264524999075,527.542067399947,527.542067399947,527.542067399947,530.0071075999876,,,,530.0128762999084,530.0246077999473,530.0246077999473,530.0729982999619,530.0732252999442,530.0895600999938,530.0895600999938,530.0895600999938,530.1560931999702,533.086916500004,,,,532.1708145999582,533.1032003000146,533.1032003000146,533.1032003000146,,,,,,,,,,,,,,,down,2.460942800040357,None,None,,,P125,001,2025-02-26_10h22.28.723,posner_endo_new1,2024.2.4,60.047653831416945,2025-02-26 10h22.44.088688 +0000,
cube_l.png,0.1,-0.31,valid,42,42,0,down,0.876003900077194,None,space,0.5117289000190794,None,,,,,,,,,0,42,42,42,533.1032003000146,,,,,,,,,,,,,533.0870806999737,533.1032003000146,533.1032003000146,533.1032003000146,533.9861232999247,,,,533.9918840000173,534.0034581999062,534.0034581999062,534.05227320001,534.052496099961,534.0688320999034,534.0688320999034,534.0688320999034,534.1354754999047,534.5856779000023,,,,,,,,,,,,,,,,,,,,,,down,0.876003900077194,None,space,0.5117289000190794,None,P125,001,2025-02-26_10h22.28.723,posner_endo_new1,2024.2.4,60.047653831416945,2025-02-26 10h22.44.088688 +0000,
cube_l.png,0.1,10,catch,43,43,0,down,2.3938420000486076,None,None,,,,,,,,,,,0,43,43,43,534.6016108000185,,,,,,,,,,,,,534.5858524999348,534.6016108000185,534.6016108000185,534.6016108000185,536.9998510999139,,,,537.0056012999266,537.017197499983,537.017197499983,537.0656532999128,537.0658769999864,537.0824046999915,537.0824046999915,537.0824046999915,537.1490158999804,540.0797063999344,,,,539.1635100999847,540.0959062000038,540.0959062000038,540.0959062000038,,,,,,,,,,,,,,,down,2.3938420000486076,None,None,,,P125,001,2025-02-26_10h22.28.723,posner_endo_new1,2024.2.4,60.047653831416945,2025-02-26 10h22.44.088688 +0000,
cube_l.png,0.1,0.31,invalid,44,44,0,down,2.6681140000000596,None,space,0.4997176000615582,None,,,,,,,,,0,44,44,44,540.0959062000038,,,,,,,,,,,,,540.0798688000068,540.0959062000038,540.0959062000038,540.0959062000038,542.7772054999368,,,,542.7831061999314,542.794715099968,542.794715099968,542.843251699931,542.8434753000038,542.8597606999101,542.8597606999101,542.8597606999101,542.9264437999809,543.360203799908,,,,,,,,,,,,,,,,,,,,,,down,2.6681140000000596,None,space,0.4997176000615582,None,P125,001,2025-02-26_10h22.28.723,posner_endo_new1,2024.2.4,60.047653831416945,2025-02-26 10h22.44.088688 +0000,
cube_l.png,0.1,0.31,invalid,45,45,0,down,2.43543780001346,None,space,0.8229790000477806,None,,,,,,,,,0,45,45,45,543.3759603999788,,,,,,,,,,,,,543.3603877999121,543.3759603999788,543.3759603999788,543.3759603999788,545.8242441000184,,,,545.8301080999663,545.8415617999854,545.8415617999854,545.8901063000085,545.890596000012,545.9064815000165,545.9064815000165,545.9064815000165,545.9897517999634,546.7407265999354,,,,,,,,,,,,,,,,,,,,,,down,2.43543780001346,None,space,0.8229790000477806,None,P125,001,2025-02-26_10h22.28.723,posner_endo_new1,2024.2.4,60.047653831416945,2025-02-26 10h22.44.088688 +0000,
cube_r.png,0.1,0.31,valid,46,46,0,down,5.703302099951543,None,space,0.48972549999598414,None,,,,,,,,,0,46,46,46,546.7556788999354,,,,,,,,,,,,,546.7411649000132,546.7556788999354,546.7556788999354,546.7556788999354,552.4678979999153,,,,552.4791059999261,552.4894572999328,552.4894572999328,552.5335122999968,552.5338641999988,552.5498830999713,552.5498830999713,552.5498830999713,552.633107499918,553.0504629999632,,,,,,,,,,,,,,,,,,,,,,down,5.703302099951543,None,space,0.48972549999598414,None,P125,001,2025-02-26_10h22.28.723,posner_endo_new1,2024.2.4,60.047653831416945,2025-02-26 10h22.44.088688 +0000,
cube_l.png,0.1,-0.31,valid,47,47,0,down,2.5134210000978783,None,space,0.46575500001199543,None,,,,,,,,,0,47,47,47,553.0660643000156,,,,,,,,,,,,,553.0507637999253,553.0660643000156,553.0660643000156,553.0660643000156,555.5816308999201,,,,555.5927128000185,555.6030560999643,555.6030560999643,555.6468730999622,555.6472134999931,555.6634759999579,555.6634759999579,555.6634759999579,555.7466365,556.1310228999937,,,,,,,,,,,,,,,,,,,,,,down,2.5134210000978783,None,space,0.46575500001199543,None,P125,001,2025-02-26_10h22.28.723,posner_endo_new1,2024.2.4,60.047653831416945,2025-02-26 10h22.44.088688 +0000,
cube_r.png,0.1,-0.31,invalid,48,48,0,down,2.8575675999745727,None,space,0.3856373999733478,None,,,,,,,,,0,48,48,48,556.1463748000097,,,,,,,,,,,,,556.1313682999462,556.1463748000097,556.1463748000097,556.1463748000097,559.0111871999688,,,,559.0223277999321,559.032572099939,559.032572099939,559.0771199999144,559.07745839993,559.0932420999743,559.0932420999743,559.0932420999743,559.1764678999316,559.4941194999265,,,,,,,,,,,,,,,,,,,,,,down,2.8575675999745727,None,space,0.3856373999733478,None,P125,001,2025-02-26_10h22.28.723,posner_endo_new1,2024.2.4,60.047653831416945,2025-02-26 10h22.44.088688 +0000,
cube_r.png,0.1,10,catch,49,49,0,down,2.974059300031513,None,None,,,,,,,,,,,0,49,49,49,559.5094409999438,,,,,,,,,,,,,559.4944218000164,559.5094409999438,559.5094409999438,559.5094409999438,562.4913221999304,,,,562.5024593999842,562.5129207000136,562.5129207000136,562.5566045999294,562.5569489999907,562.5730516000185,562.5730516000185,562.5730516000185,562.6562854999211,565.5706696999259,,,,564.6708342999918,565.5865228999173,565.5865228999173,565.5865228999173,,,,,,,,,,,,,,,down,2.974059300031513,None,None,,,P125,001,2025-02-26_10h22.28.723,posner_endo_new1,2024.2.4,60.047653831416945,2025-02-26 10h22.44.088688 +0000,
cube_l.png,0.1,-0.31,valid,50,50,0,down,3.0743125999579206,None,space,0.5305425999686122,None,,,,,,,,,0,50,50,50,565.5865228999173,,,,,,,,,,,,,565.5709433999145,565.5865228999173,565.5865228999173,565.5865228999173,568.6679308000021,,,,568.6791203999892,568.6893631999847,568.6893631999847,568.7335804000031,568.7339298999868,568.7500668999273,568.7500668999273,568.7500668999273,568.833352799993,569.284161199932,,,,,,,,,,,,,,,,,,,,,,down,3.0743125999579206,None,space,0.5305425999686122,None,P125,001,2025-02-26_10h22.28.723,posner_endo_new1,2024.2.4,60.047653831416945,2025-02-26 10h22.44.088688 +0000,
cube_l.png,0.1,-0.31,valid,51,51,0,down,2.19215990009252,None,space,0.5067429000046104,None,,,,,,,,,0,51,51,51,569.2995381999062,,,,,,,,,,,,,569.2844655999215,569.2995381999062,569.2995381999062,569.2995381999062,571.4985368999187,,,,571.5096973999171,571.5200359999435,571.5200359999435,571.5640666999388,571.564405699959,571.5806120999623,571.5806120999623,571.5806120999623,571.6638239999302,572.0979573999066,,,,,,,,,,,,,,,,,,,,,,down,2.19215990009252,None,space,0.5067429000046104,None,P125,001,2025-02-26_10h22.28.723,posner_endo_new1,2024.2.4,60.047653831416945,2025-02-26 10h22.44.088688 +0000,
cube_r.png,0.1,-0.31,invalid,52,52,0,down,1.9939900999888778,None,space,0.5625425999751315,None,,,,,,,,,0,52,52,52,572.113331999979,,,,,,,,,,,,,572.098250299925,572.113331999979,572.113331999979,572.113331999979,574.1125596999191,,,,574.123753999942,574.1340152999619,574.1340152999619,574.1780556999147,574.1784136999631,574.1946034999564,574.1946034999564,574.1946034999564,574.2777468999848,574.7619029999478,,,,,,,,,,,,,,,,,,,,,,down,1.9939900999888778,None,space,0.5625425999751315,None,P125,001,2025-02-26_10h22.28.723,posner_endo_new1,2024.2.4,60.047653831416945,2025-02-26 10h22.44.088688 +0000,
cube_l.png,0.1,-0.31,valid,53,53,0,down,1.746783999959007,None,space,0.36314099992159754,None,,,,,,,,,0,53,53,53,574.7773018999724,,,,,,,,,,,,,574.7622036999092,574.7773018999724,574.7773018999724,574.7773018999724,576.5266857999377,,,,576.5377864999464,576.5480846000137,576.5480846000137,576.5922649999848,576.5926019999897,576.608681499958,576.608681499958,576.608681499958,576.6919730999507,576.9761768999742,,,,,,,,,,,,,,,,,,,,,,down,1.746783999959007,None,space,0.36314099992159754,None,P125,001,2025-02-26_10h22.28.723,posner_endo_new1,2024.2.4,60.047653831416945,2025-02-26 10h22.44.088688 +0000,
cube_r.png,0.1,10,catch,54,54,0,down,2.2599902000511065,None,None,,,,,,,,,,,0,54,54,54,576.9917247999692,,,,,,,,,,,,,576.9764796999516,576.9917247999692,576.9917247999692,576.9917247999692,579.2571622999385,,,,579.2683089999482,579.2786057000048,579.2786057000048,579.3227922999067,579.3231334999437,579.3392825999763,579.3392825999763,579.3392825999763,579.4225840999279,582.3369244999485,,,,581.4371382999234,582.3528591999784,582.3528591999784,582.3528591999784,,,,,,,,,,,,,,,down,2.2599902000511065,None,None,,,P125,001,2025-02-26_10h22.28.723,posner_endo_new1,2024.2.4,60.047653831416945,2025-02-26 10h22.44.088688 +0000,
cube_l.png,0.1,0.31,invalid,55,55,0,down,2.522594499983825,None,space,0.48034879995975643,None,,,,,,,,,0,55,55,55,582.3528591999784,,,,,,,,,,,,,582.3371936999029,582.3528591999784,582.3528591999784,582.3528591999784,584.8848331999034,,,,584.8960476999637,584.9063509999542,584.9063509999542,584.9502714999253,584.9506142999744,584.9667992999312,584.9667992999312,584.9667992999312,585.0500688999891,585.4509485999588,,,,,,,,,,,,,,,,,,,,,,down,2.522594499983825,None,space,0.48034879995975643,None,P125,001,2025-02-26_10h22.28.723,posner_endo_new1,2024.2.4,60.047653831416945,2025-02-26 10h22.44.088688 +0000,
cube_l.png,0.1,-0.31,valid,56,56,0,down,2.04060509998817,None,space,0.41868060000706464,None,,,,,,,,,0,56,56,56,585.4665261999471,,,,,,,,,,,,,585.4512475999072,585.4665261999471,585.4665261999471,585.4665261999471,587.5150893999962,,,,587.5222100999672,587.5340076999273,587.5340076999273,587.580880299909,587.5813900999492,587.5972238999093,587.5972238999093,587.5972238999093,587.6804899999406,588.031866199919,,,,,,,,,,,,,,,,,,,,,,down,2.04060509998817,None,space,0.41868060000706464,None,P125,001,2025-02-26_10h22.28.723,posner_endo_new1,2024.2.4,60.047653831416945,2025-02-26 10h22.44.088688 +0000,
cube_r.png,0.1,0.31,valid,57,57,0,down,2.1254149000160396,None,space,0.5784161000046879,None,,,,,,,,,0,57,57,57,588.0468001000118,,,,,,,,,,,,,588.0323029999854,588.0468001000118,588.0468001000118,588.0468001000118,590.1795739999507,,,,590.1907000999199,590.2010190999135,590.2010190999135,590.2450743999798,590.2454298000084,590.2614554999163,590.2614554999163,590.2614554999163,590.3446072000079,590.8454390999395,,,,,,,,,,,,,,,,,,,,,,down,2.1254149000160396,None,space,0.5784161000046879,None,P125,001,2025-02-26_10h22.28.723,posner_endo_new1,2024.2.4,60.047653831416945,2025-02-26 10h22.44.088688 +0000,
cube_r.png,0.1,-0.31,invalid,58,58,0,down,2.1029982999898493,None,space,0.41096879995893687,None,,,,,,,,,0,58,58,58,590.8608076999662,,,,,,,,,,,,,590.8457383000059,590.8608076999662,590.8608076999662,590.8608076999662,592.9764736999059,,,,592.9877028999617,592.997946599964,592.997946599964,593.0421248999191,593.042462799931,593.058546599932,593.058546599932,593.058546599932,593.1419352999656,593.4757907999447,,,,,,,,,,,,,,,,,,,,,,down,2.1029982999898493,None,space,0.41096879995893687,None,P125,001,2025-02-26_10h22.28.723,posner_endo_new1,2024.2.4,60.047653831416945,2025-02-26 10h22.44.088688 +0000,
cube_l.png,0.1,0.31,invalid,59,59,0,down,2.3282921999925748,None,space,0.5048600999871269,None,,,,,,,,,0,59,59,59,593.491435199976,,,,,,,,,,,,,593.4760825999547,593.491435199976,593.491435199976,593.491435199976,595.823619899922,,,,595.8347013000166,595.8449702999787,595.8449702999787,595.8891755999066,595.8895157999359,595.905589699978,595.905589699978,595.905589699978,595.9889388999436,596.4230028999737,,,,,,,,,,,,,,,,,,,,,,down,2.3282921999925748,None,space,0.5048600999871269,None,P125,001,2025-02-26_10h22.28.723,posner_endo_new1,2024.2.4,60.047653831416945,2025-02-26 10h22.44.088688 +0000,
