cue_img,cue_soa,target_x,trial,thisN,thisTrialN,thisRepN,key_control2.keys,key_control2.rt,key_control2.duration,key_resp.keys,key_resp.rt,key_resp.duration,practice.thisRepN,practice.thisTrialN,practice.thisN,practice.thisIndex,block1.thisRepN,block1.thisTrialN,block1.thisN,block1.thisIndex,block2.thisRepN,block2.thisTrialN,block2.thisN,block2.thisIndex,thisRow.t,notes,instructions.started,instructions_txt.started,key_control.started,instructions.stopped,key_control.keys,key_control.rt,key_control.duration,ready.started,ready_txt.started,ready_txt.stopped,ready.stopped,fix.started,fixation.started,key_control2.started,fixation_cross.started,fix.stopped,practice.key_control2.keys,practice.key_control2.rt,practice.key_control2.duration,cue.started,cube.started,fixation_cross_cue.started,cue.stopped,target.started,fixation_target.started,fixation_cross_target.started,key_resp.started,star.started,target.stopped,practice.key_resp.keys,practice.key_resp.rt,practice.key_resp.duration,star.stopped,fixation_target.stopped,fixation_cross_target.stopped,key_resp.stopped,block1.key_control2.keys,block1.key_control2.rt,block1.key_control2.duration,block1.key_resp.keys,block1.key_resp.rt,block1.key_resp.duration,break_2.started,text.started,key_control3.started,text.stopped,break_2.stopped,key_control3.keys,key_control3.rt,key_control3.duration,block2.key_control2.keys,block2.key_control2.rt,block2.key_control2.duration,block2.key_resp.keys,block2.key_resp.rt,block2.key_resp.duration,participant,session,date,expName,psychopyVersion,frameRate,expStart,
,,,,,,,,,,,,,,,,,,,,,,,,,,,0.007469599950127304,0.023595000035129488,0.023595000035129488,9.801565599977039,up,9.760255299974233,None,,,,,,,,,,,,,,,,,,,,,,,,,,,,,,,,,,,,,,,,,,,,,,,,,,P126,001,2025-02-27_11h26.48.587,posner_endo_new1,2024.2.4,60.17929820721984,2025-02-27 11h26.57.840674 +0000,
,,,,,,,,,,,,,,,,,,,,,,,,,,,,,,,,,,9.801621400052682,9.814185200026259,12.814626400009729,12.794948299997486,,,,,,,,,,,,,,,,,,,,,,,,,,,,,,,,,,,,,,,,,,,,,,P126,001,2025-02-27_11h26.48.587,posner_endo_new1,2024.2.4,60.17929820721984,2025-02-27 11h26.57.840674 +0000,
cube_l.png,0.1,-0.31,valid,0,0,0,down,31.744975499925204,None,space,0.34695619996637106,None,0,0,0,0,,,,,,,,,12.814626400009729,,,,,,,,,,,,,12.803722399985418,12.814626400009729,12.814626400009729,12.814626400009729,44.563385399989784,down,31.744975499925204,None,44.582768099964596,44.59420669998508,44.59420669998508,44.62884819996543,44.62918659998104,44.645449699950404,44.645449699950404,44.645449699950404,44.728608799981885,44.99635080003645,space,0.34695619996637106,None,,,,,,,,,,,,,,,,,,,,,,,,,P126,001,2025-02-27_11h26.48.587,posner_endo_new1,2024.2.4,60.17929820721984,2025-02-27 11h26.57.840674 +0000,
cube_l.png,0.1,0.31,invalid,1,1,0,down,2.643770300084725,None,space,0.36359819991048425,None,0,1,1,1,,,,,,,,,45.01172319997568,,,,,,,,,,,,,44.996633899980225,45.01172319997568,45.01172319997568,45.01172319997568,47.66017839999404,down,2.643770300084725,None,47.67147509998176,47.680822500027716,47.680822500027716,47.72573049995117,47.725961399963126,47.742173600010574,47.742173600010574,47.742173600010574,47.82504470006097,48.10942830005661,space,0.36359819991048425,None,,,,,,,,,,,,,,,,,,,,,,,,,P126,001,2025-02-27_11h26.48.587,posner_endo_new1,2024.2.4,60.17929820721984,2025-02-27 11h26.57.840674 +0000,
cube_r.png,0.1,-0.31,invalid,2,2,0,down,5.698630299884826,None,space,0.44400539994239807,None,0,2,2,2,,,,,,,,,48.1251136000501,,,,,,,,,,,,,48.10959380003624,48.1251136000501,48.1251136000501,48.1251136000501,53.836587300058454,down,5.698630299884826,None,53.844808500027284,53.85514300002251,53.85514300002251,53.90243709995411,53.90286679996643,53.91889510001056,53.91889510001056,53.91889510001056,54.002143000019714,54.37004229996819,space,0.44400539994239807,None,,,,,,,,,,,,,,,,,,,,,,,,,P126,001,2025-02-27_11h26.48.587,posner_endo_new1,2024.2.4,60.17929820721984,2025-02-27 11h26.57.840674 +0000,
cube_r.png,0.1,10,catch,3,3,0,down,3.6862868999596685,None,None,,,0,3,3,3,,,,,,,,,54.38508609996643,,,,,,,,,,,,,54.37039359996561,54.38508609996643,54.38508609996643,54.38508609996643,58.082704100059345,down,3.6862868999596685,None,58.09219989995472,58.10220670001581,58.10220670001581,58.14831249997951,58.148616199963726,58.164967700024135,58.164967700024135,58.164967700024135,58.24806200002786,61.16249819996301,None,,,60.26272380002774,61.17839250003453,61.17839250003453,61.17839250003453,,,,,,,,,,,,,,,,,,,,,P126,001,2025-02-27_11h26.48.587,posner_endo_new1,2024.2.4,60.17929820721984,2025-02-27 11h26.57.840674 +0000,
cube_l.png,0.1,-0.31,valid,4,4,0,down,6.3091618999606,None,space,0.37256139994133264,None,0,4,4,4,,,,,,,,,61.17839250003453,,,,,,,,,,,,,61.16272460005712,61.17839250003453,61.17839250003453,61.17839250003453,67.49135360005312,down,6.3091618999606,None,67.515443900018,67.52768419997301,67.52768419997301,67.55506010004319,67.55540810001548,67.57158230000641,67.57158230000641,67.57158230000641,67.65478600002825,67.95588180003688,space,0.37256139994133264,None,,,,,,,,,,,,,,,,,,,,,,,,,P126,001,2025-02-27_11h26.48.587,posner_endo_new1,2024.2.4,60.17929820721984,2025-02-27 11h26.57.840674 +0000,
cube_l.png,0.1,0.31,invalid,5,5,0,down,4.972486900049262,None,space,0.38455509999766946,None,0,5,5,5,,,,,,,,,67.97109430003911,,,,,,,,,,,,,67.95620649994817,67.97109430003911,67.97109430003911,67.97109430003911,72.95076699997298,down,4.972486900049262,None,72.95901630003937,72.9694513999857,72.9694513999857,73.01653599995188,73.01681339996867,73.0330959999701,73.0330959999701,73.0330959999701,73.1162182999542,73.43348949996289,space,0.38455509999766946,None,,,,,,,,,,,,,,,,,,,,,,,,,P126,001,2025-02-27_11h26.48.587,posner_endo_new1,2024.2.4,60.17929820721984,2025-02-27 11h26.57.840674 +0000,
cube_r.png,0.1,-0.31,invalid,6,6,0,down,2.8782552999909967,None,space,0.37427929998375475,None,0,6,6,6,,,,,,,,,73.44932979997247,,,,,,,,,,,,,73.43370569997933,73.44932979997247,73.44932979997247,73.44932979997247,76.33094620006159,down,2.8782552999909967,None,76.33904049999546,76.3492720000213,76.3492720000213,76.39641299995128,76.39669630001299,76.41276009997819,76.41276009997819,76.41276009997819,76.49615639995318,76.79686899995431,space,0.37427929998375475,None,,,,,,,,,,,,,,,,,,,,,,,,,P126,001,2025-02-27_11h26.48.587,posner_endo_new1,2024.2.4,60.17929820721984,2025-02-27 11h26.57.840674 +0000,
cube_r.png,0.1,0.31,valid,7,7,0,down,7.474817800102755,None,space,0.3458533000666648,None,0,7,7,7,,,,,,,,,76.81248600000981,,,,,,,,,,,,,76.7970842999639,76.81248600000981,76.81248600000981,76.81248600000981,84.2892982000485,down,7.474817800102755,None,84.297660500044,84.30793999996968,84.30793999996968,84.35495139996056,84.35522240004502,84.37163750000764,84.37163750000764,84.37163750000764,84.45468910003547,84.72217540000565,space,0.3458533000666648,None,,,,,,,,,,,,,,,,,,,,,,,,,P126,001,2025-02-27_11h26.48.587,posner_endo_new1,2024.2.4,60.17929820721984,2025-02-27 11h26.57.840674 +0000,
cube_l.png,0.1,-0.31,valid,8,8,0,down,7.565706399967894,None,space,0.34907670004758984,None,0,8,8,8,,,,,,,,,84.73775950004347,,,,,,,,,,,,,84.72238699998707,84.73775950004347,84.73775950004347,84.73775950004347,92.31429620005656,down,7.565706399967894,None,92.32249649998266,92.33299310004804,92.33299310004804,92.38011709996499,92.38039489998482,92.39669770002365,92.39669770002365,92.39669770002365,92.47979390004184,92.7473266000161,space,0.34907670004758984,None,,,,,,,,,,,,,,,,,,,,,,,,,P126,001,2025-02-27_11h26.48.587,posner_endo_new1,2024.2.4,60.17929820721984,2025-02-27 11h26.57.840674 +0000,
cube_r.png,0.1,-0.31,invalid,9,9,0,down,8.708122099982575,None,space,0.3905318999895826,None,0,9,9,9,,,,,,,,,92.76293129997794,,,,,,,,,,,,,92.74754070001654,92.76293129997794,92.76293129997794,92.76293129997794,101.48788469994906,down,8.708122099982575,None,101.49384739995003,101.50536980002653,101.50536980002653,101.5539979999885,101.55448920000345,101.57039640005678,101.57039640005678,101.57039640005678,101.63696619996335,101.9717502000276,space,0.3905318999895826,None,,,,,,,,,,,,,,,,,,,,,,,,,P126,001,2025-02-27_11h26.48.587,posner_endo_new1,2024.2.4,60.17929820721984,2025-02-27 11h26.57.840674 +0000,
cube_r.png,0.1,0.31,valid,10,10,0,down,10.38871620001737,None,space,0.3918373000342399,None,0,10,10,10,,,,,,,,,101.98664809996262,,,,,,,,,,,,,101.9721665000543,101.98664809996262,101.98664809996262,101.98664809996262,112.37751030002255,down,10.38871620001737,None,112.38871910003945,112.39907319995109,112.39907319995109,112.44285770005081,112.44319879997056,112.45945289998781,112.45945289998781,112.45945289998781,112.54267660004552,112.8602737999754,space,0.3918373000342399,None,,,,,,,,,,,,,,,,,,,,,,,,,P126,001,2025-02-27_11h26.48.587,posner_endo_new1,2024.2.4,60.17929820721984,2025-02-27 11h26.57.840674 +0000,
,,,,,,,,,,,,,,,,,,,,,,,,,,,,,,,,,,112.86045519995969,112.87568259995896,115.89275280002039,115.85666289995424,,,,,,,,,,,,,,,,,,,,,,,,,,,,,,,,,,,,,,,,,,,,,,P126,001,2025-02-27_11h26.48.587,posner_endo_new1,2024.2.4,60.17929820721984,2025-02-27 11h26.57.840674 +0000,
cube_l.png,0.1,10,catch,0,0,0,down,5.995117200072855,None,None,,,,,,,0,0,0,0,,,,,115.89275280002039,,,,,,,,,,,,,115.88340950000565,115.89275280002039,115.89275280002039,115.89275280002039,121.90094379999209,,,,121.91269629995804,121.92313610005658,121.92313610005658,121.96648429997731,121.96683509997092,121.98314490006305,121.98314490006305,121.98314490006305,122.06625439994968,124.9806941000279,,,,124.08095119998325,124.99663519999012,124.99663519999012,124.99663519999012,down,5.995117200072855,None,None,,,,,,,,,,,,,,,,,P126,001,2025-02-27_11h26.48.587,posner_endo_new1,2024.2.4,60.17929820721984,2025-02-27 11h26.57.840674 +0000,
cube_l.png,0.1,10,catch,1,1,0,down,2.0110312999458984,None,None,,,,,,,0,1,1,1,,,,,124.99663519999012,,,,,,,,,,,,,124.98096610000357,124.99663519999012,124.99663519999012,124.99663519999012,127.01252830005251,,,,127.02184030006174,127.03156469995156,127.03156469995156,127.07797610003036,127.07823049998842,127.0946421000408,127.0946421000408,127.0946421000408,127.17776220000815,130.09198929998092,,,,129.19234649999999,130.10813920001965,130.10813920001965,130.10813920001965,down,2.0110312999458984,None,None,,,,,,,,,,,,,,,,,P126,001,2025-02-27_11h26.48.587,posner_endo_new1,2024.2.4,60.17929820721984,2025-02-27 11h26.57.840674 +0000,
cube_l.png,0.1,0.31,invalid,2,2,0,down,4.5553016000194475,None,space,0.38632439996581525,None,,,,,0,2,2,2,,,,,130.10813920001965,,,,,,,,,,,,,130.09216190001462,130.10813920001965,130.10813920001965,130.10813920001965,134.6709433000069,,,,134.67765950004105,134.6895859000506,134.6895859000506,134.73682650004048,134.73705140000675,134.75340489996597,134.75340489996597,134.75340489996597,134.83654609997757,135.1536771999672,,,,,,,,down,4.5553016000194475,None,space,0.38632439996581525,None,,,,,,,,,,,,,,,P126,001,2025-02-27_11h26.48.587,posner_endo_new1,2024.2.4,60.17929820721984,2025-02-27 11h26.57.840674 +0000,
cube_l.png,0.1,0.31,invalid,3,3,0,down,3.2542180999880657,None,space,0.4166672999272123,None,,,,,0,3,3,3,,,,,135.16945579997264,,,,,,,,,,,,,135.15385230001993,135.16945579997264,135.16945579997264,135.16945579997264,138.43379999999888,,,,138.43965900002513,138.45150960003957,138.45150960003957,138.4996602999745,138.49988340004347,138.51624020002782,138.51624020002782,138.51624020002782,138.5993773000082,138.94974930002354,,,,,,,,down,3.2542180999880657,None,space,0.4166672999272123,None,,,,,,,,,,,,,,,P126,001,2025-02-27_11h26.48.587,posner_endo_new1,2024.2.4,60.17929820721984,2025-02-27 11h26.57.840674 +0000,
cube_l.png,0.1,-0.31,valid,4,4,0,down,8.553801400004886,None,space,0.3719249999849126,None,,,,,0,4,4,4,,,,,138.96591499994975,,,,,,,,,,,,,138.94992829998955,138.96591499994975,138.96591499994975,138.96591499994975,147.52446210000198,,,,147.53031050006393,147.54160039999988,147.54160039999988,147.59027649997734,147.59077690006234,147.60670809994917,147.60670809994917,147.60670809994917,147.68995060003363,147.99142690002918,,,,,,,,down,8.553801400004886,None,space,0.3719249999849126,None,,,,,,,,,,,,,,,P126,001,2025-02-27_11h26.48.587,posner_endo_new1,2024.2.4,60.17929820721984,2025-02-27 11h26.57.840674 +0000,
cube_r.png,0.1,-0.31,invalid,5,5,0,down,8.641513700014912,None,space,0.35298349999357015,None,,,,,0,5,5,5,,,,,148.00629859999754,,,,,,,,,,,,,147.99187529995106,148.00629859999754,148.00629859999754,148.00629859999754,156.64971569995396,,,,156.6665776000591,156.6776823999826,156.6776823999826,156.71427780005615,156.71477720001712,156.73067620000802,156.73067620000802,156.73067620000802,156.8139693000121,157.0987688000314,,,,,,,,down,8.641513700014912,None,space,0.35298349999357015,None,,,,,,,,,,,,,,,P126,001,2025-02-27_11h26.48.587,posner_endo_new1,2024.2.4,60.17929820721984,2025-02-27 11h26.57.840674 +0000,
cube_r.png,0.1,0.31,valid,6,6,0,down,10.574276700033806,None,space,0.33863790007308125,None,,,,,0,6,6,6,,,,,157.1136537999846,,,,,,,,,,,,,157.09919860004447,157.1136537999846,157.1136537999846,157.1136537999846,167.70424310001545,,,,167.71548929996789,167.72529410000425,167.72529410000425,167.76981410000008,167.77015880006365,167.78636569995433,167.78636569995433,167.78636569995433,167.8694819000084,168.13705310004298,,,,,,,,down,10.574276700033806,None,space,0.33863790007308125,None,,,,,,,,,,,,,,,P126,001,2025-02-27_11h26.48.587,posner_endo_new1,2024.2.4,60.17929820721984,2025-02-27 11h26.57.840674 +0000,
cube_r.png,0.1,-0.31,invalid,7,7,0,down,6.550748900044709,None,space,0.3746117000700906,None,,,,,0,7,7,7,,,,,168.1525976000121,,,,,,,,,,,,,168.1373420000309,168.1525976000121,168.1525976000121,168.1525976000121,174.713780399994,,,,174.7251244999934,174.73541359999217,174.73541359999217,174.77931590005755,174.7796612000093,174.79556939995382,174.79556939995382,174.79556939995382,174.87886930000968,175.17995500005782,,,,,,,,down,6.550748900044709,None,space,0.3746117000700906,None,,,,,,,,,,,,,,,P126,001,2025-02-27_11h26.48.587,posner_endo_new1,2024.2.4,60.17929820721984,2025-02-27 11h26.57.840674 +0000,
cube_l.png,0.1,-0.31,valid,8,8,0,down,7.931636800058186,None,space,0.3834705000044778,None,,,,,0,8,8,8,,,,,175.19538739998825,,,,,,,,,,,,,175.18024829996284,175.19538739998825,175.19538739998825,175.19538739998825,183.13841320003849,,,,183.14955019997433,183.1598507000599,183.1598507000599,183.20400639995933,183.20435100002214,183.22047940001357,183.22047940001357,183.22047940001357,183.30375129997265,183.62109200004488,,,,,,,,down,7.931636800058186,None,space,0.3834705000044778,None,,,,,,,,,,,,,,,P126,001,2025-02-27_11h26.48.587,posner_endo_new1,2024.2.4,60.17929820721984,2025-02-27 11h26.57.840674 +0000,
cube_r.png,0.1,-0.31,invalid,9,9,0,down,7.66645779996179,None,space,0.3256839000387117,None,,,,,0,9,9,9,,,,,183.6367533999728,,,,,,,,,,,,,183.62138979998417,183.6367533999728,183.6367533999728,183.6367533999728,191.31358990003355,,,,191.32543990004342,191.33573759999126,191.33573759999126,191.37896220001858,191.37930949998554,191.39547009998932,191.39547009998932,191.39547009998932,191.4786727000028,191.72955739998724,,,,,,,,down,7.66645779996179,None,space,0.3256839000387117,None,,,,,,,,,,,,,,,P126,001,2025-02-27_11h26.48.587,posner_endo_new1,2024.2.4,60.17929820721984,2025-02-27 11h26.57.840674 +0000,
cube_l.png,0.1,0.31,invalid,10,10,0,down,8.406972500029951,None,space,0.3487191000021994,None,,,,,0,10,10,10,,,,,191.74511000001803,,,,,,,,,,,,,191.72984879999422,191.74511000001803,191.74511000001803,191.74511000001803,200.15444289997686,,,,200.163671300048,200.1734716000501,200.1734716000501,200.2199888000032,200.22024950000923,200.23629649996292,200.23629649996292,200.23629649996292,200.31961640005466,200.58713190001436,,,,,,,,down,8.406972500029951,None,space,0.3487191000021994,None,,,,,,,,,,,,,,,P126,001,2025-02-27_11h26.48.587,posner_endo_new1,2024.2.4,60.17929820721984,2025-02-27 11h26.57.840674 +0000,
cube_r.png,0.1,-0.31,invalid,11,11,0,down,7.884633300011046,None,space,0.387728999950923,None,,,,,0,11,11,11,,,,,200.6028278999729,,,,,,,,,,,,,200.58732769999187,200.6028278999729,200.6028278999729,200.6028278999729,208.49553509999532,,,,208.50305679999292,208.51422510005068,208.51422510005068,208.5613059999887,208.56155380001292,208.57805959996767,208.57805959996767,208.57805959996767,208.66104360006284,208.97829330002423,,,,,,,,down,7.884633300011046,None,space,0.387728999950923,None,,,,,,,,,,,,,,,P126,001,2025-02-27_11h26.48.587,posner_endo_new1,2024.2.4,60.17929820721984,2025-02-27 11h26.57.840674 +0000,
cube_r.png,0.1,0.31,valid,12,12,0,down,8.19681369990576,None,space,0.3689322000136599,None,,,,,0,12,12,12,,,,,208.99425210000481,,,,,,,,,,,,,208.97849010000937,208.99425210000481,208.99425210000481,208.99425210000481,217.2030986000318,,,,217.21089810004923,217.2220502999844,217.2220502999844,217.26917350001168,217.26939410006162,217.28574099997059,217.28574099997059,217.28574099997059,217.35224050004035,217.66924750001635,,,,,,,,down,8.19681369990576,None,space,0.3689322000136599,None,,,,,,,,,,,,,,,P126,001,2025-02-27_11h26.48.587,posner_endo_new1,2024.2.4,60.17929820721984,2025-02-27 11h26.57.840674 +0000,
cube_l.png,0.1,10,catch,13,13,0,down,9.162516799988225,None,None,,,,,,,0,13,13,13,,,,,217.68510090000927,,,,,,,,,,,,,217.66941820003558,217.68510090000927,217.68510090000927,217.68510090000927,226.86034759995528,,,,226.87168530002236,226.88187679997645,226.88187679997645,226.92595059995074,226.9262743999716,226.94241929997224,226.94241929997224,226.94241929997224,227.02573750005104,229.94018370006233,,,,229.0403744999785,229.95606860006228,229.95606860006228,229.95606860006228,down,9.162516799988225,None,None,,,,,,,,,,,,,,,,,P126,001,2025-02-27_11h26.48.587,posner_endo_new1,2024.2.4,60.17929820721984,2025-02-27 11h26.57.840674 +0000,
cube_r.png,0.1,-0.31,invalid,14,14,0,down,7.524648700025864,None,space,0.4207422999897972,None,,,,,0,14,14,14,,,,,229.95606860006228,,,,,,,,,,,,,229.94044290005695,229.95606860006228,229.95606860006228,229.95606860006228,237.48314519994892,,,,237.49426279996987,237.50446159997955,237.50446159997955,237.54842240002472,237.54875109996647,237.56491119996645,237.56491119996645,237.56491119996645,237.64818769996054,237.99893600004725,,,,,,,,down,7.524648700025864,None,space,0.4207422999897972,None,,,,,,,,,,,,,,,P126,001,2025-02-27_11h26.48.587,posner_endo_new1,2024.2.4,60.17929820721984,2025-02-27 11h26.57.840674 +0000,
cube_l.png,0.1,-0.31,valid,15,15,0,down,8.336912199971266,None,space,0.3919266000157222,None,,,,,0,15,15,15,,,,,238.01454240002204,,,,,,,,,,,,,237.99921909999102,238.01454240002204,238.01454240002204,238.01454240002204,246.35720339999534,,,,246.36858010001015,246.37876660004258,246.37876660004258,246.42268630000763,246.42300960002467,246.43922739999834,246.43922739999834,246.43922739999834,246.52254809997976,246.83995619998313,,,,,,,,down,8.336912199971266,None,space,0.3919266000157222,None,,,,,,,,,,,,,,,P126,001,2025-02-27_11h26.48.587,posner_endo_new1,2024.2.4,60.17929820721984,2025-02-27 11h26.57.840674 +0000,
cube_r.png,0.1,10,catch,16,16,0,down,9.10451569990255,None,None,,,,,,,0,16,16,16,,,,,246.8554249999579,,,,,,,,,,,,,246.8402328999946,246.8554249999579,246.8554249999579,246.8554249999579,255.96403330005705,,,,255.97531110001728,255.9855327999685,255.9855327999685,256.02956189995166,256.02989929995965,256.0460910999682,256.0460910999682,256.0460910999682,256.1292613999685,259.04364849999547,,,,258.14402090001386,259.0595720000565,259.0595720000565,259.0595720000565,down,9.10451569990255,None,None,,,,,,,,,,,,,,,,,P126,001,2025-02-27_11h26.48.587,posner_endo_new1,2024.2.4,60.17929820721984,2025-02-27 11h26.57.840674 +0000,
cube_r.png,0.1,10,catch,17,17,0,down,10.205297800013795,None,None,,,,,,,0,17,17,17,,,,,259.0595720000565,,,,,,,,,,,,,259.0439040999627,259.0595720000565,259.0595720000565,259.0595720000565,269.26683029998094,,,,269.2735813000472,269.2852945000632,269.2852945000632,269.332846299978,269.33306730003096,269.34903819998726,269.34903819998726,269.34903819998726,269.43234060006216,272.34622509998735,,,,271.4469892999623,272.3626163000008,272.3626163000008,272.3626163000008,down,10.205297800013795,None,None,,,,,,,,,,,,,,,,,P126,001,2025-02-27_11h26.48.587,posner_endo_new1,2024.2.4,60.17929820721984,2025-02-27 11h26.57.840674 +0000,
cube_l.png,0.1,0.31,invalid,18,18,0,down,7.41339090000838,None,space,0.4630341000156477,None,,,,,0,18,18,18,,,,,272.3626163000008,,,,,,,,,,,,,272.34638320002705,272.3626163000008,272.3626163000008,272.3626163000008,279.78916739998385,,,,279.79502710001543,279.8067133000586,279.8067133000586,279.85511210002005,279.8556188000366,279.8715394999599,279.8715394999599,279.8715394999599,279.9547783000162,280.33967929997016,,,,,,,,down,7.41339090000838,None,space,0.4630341000156477,None,,,,,,,,,,,,,,,P126,001,2025-02-27_11h26.48.587,posner_endo_new1,2024.2.4,60.17929820721984,2025-02-27 11h26.57.840674 +0000,
cube_l.png,0.1,10,catch,19,19,0,down,10.420814100070857,None,None,,,,,,,0,19,19,19,,,,,280.3544208999956,,,,,,,,,,,,,280.34010569995735,280.3544208999956,280.3544208999956,280.3544208999956,290.77797930000816,,,,290.78460350004025,290.79627950000577,290.79627950000577,290.8439752999693,290.84420569997746,290.8605151999509,290.8605151999509,290.8605151999509,290.92709879996255,293.8578283999814,,,,292.94178750005085,293.8738661999814,293.8738661999814,293.8738661999814,down,10.420814100070857,None,None,,,,,,,,,,,,,,,,,P126,001,2025-02-27_11h26.48.587,posner_endo_new1,2024.2.4,60.17929820721984,2025-02-27 11h26.57.840674 +0000,
cube_l.png,0.1,0.31,invalid,20,20,0,down,7.00534399994649,None,space,0.5178483000490814,None,,,,,0,20,20,20,,,,,293.8738661999814,,,,,,,,,,,,,293.85799529997166,293.8738661999814,293.8738661999814,293.8738661999814,300.88457790005486,,,,300.8911606000038,300.9028968999628,300.9028968999628,300.9502568000462,300.9504906999646,300.96690800006036,300.96690800006036,300.96690800006036,301.05010150000453,301.5004835999571,,,,,,,,down,7.00534399994649,None,space,0.5178483000490814,None,,,,,,,,,,,,,,,P126,001,2025-02-27_11h26.48.587,posner_endo_new1,2024.2.4,60.17929820721984,2025-02-27 11h26.57.840674 +0000,
cube_l.png,0.1,-0.31,valid,21,21,0,down,14.211288299993612,None,space,0.4731167000718415,None,,,,,0,21,21,21,,,,,301.51640279998537,,,,,,,,,,,,,301.5006590000121,301.51640279998537,301.51640279998537,301.51640279998537,315.7362881000154,,,,315.7473992999876,315.75789310003165,315.75789310003165,315.801869399962,315.80221270001493,315.81833469995763,315.81833469995763,315.81833469995763,315.9016303999815,316.3024283000268,,,,,,,,down,14.211288299993612,None,space,0.4731167000718415,None,,,,,,,,,,,,,,,P126,001,2025-02-27_11h26.48.587,posner_endo_new1,2024.2.4,60.17929820721984,2025-02-27 11h26.57.840674 +0000,
cube_r.png,0.1,0.31,valid,22,22,0,down,8.193813899997622,None,space,0.39516690000891685,None,,,,,0,22,22,22,,,,,316.31787899998017,,,,,,,,,,,,,316.3027241999516,316.31787899998017,316.31787899998017,316.31787899998017,324.5272288999986,,,,324.5383256999776,324.5487749000313,324.5487749000313,324.59278920001816,324.59313100005966,324.60941220005043,324.60941220005043,324.60941220005043,324.692690600059,325.0103495999938,,,,,,,,down,8.193813899997622,None,space,0.39516690000891685,None,,,,,,,,,,,,,,,P126,001,2025-02-27_11h26.48.587,posner_endo_new1,2024.2.4,60.17929820721984,2025-02-27 11h26.57.840674 +0000,
cube_r.png,0.1,-0.31,invalid,23,23,0,down,14.182231500046328,None,space,0.32827000005636364,None,,,,,0,23,23,23,,,,,325.02560339996126,,,,,,,,,,,,,325.0106406999985,325.02560339996126,325.02560339996126,325.02560339996126,339.21241989999544,,,,339.22350910003297,339.23380879999604,339.23380879999604,339.2778167000506,339.2781644000206,339.2944230999565,339.2944230999565,339.2944230999565,339.3775527999969,339.6286437000381,,,,,,,,down,14.182231500046328,None,space,0.32827000005636364,None,,,,,,,,,,,,,,,P126,001,2025-02-27_11h26.48.587,posner_endo_new1,2024.2.4,60.17929820721984,2025-02-27 11h26.57.840674 +0000,
cube_r.png,0.1,0.31,valid,24,24,0,down,11.628340099938214,None,space,0.3676909999921918,None,,,,,0,24,24,24,,,,,339.64405430003535,,,,,,,,,,,,,339.62894409999717,339.64405430003535,339.64405430003535,339.64405430003535,351.2833617000142,,,,351.29446300002746,351.3046845999779,351.3046845999779,351.3488136000233,351.3491530000465,351.3654255999718,351.3654255999718,351.3654255999718,351.4486574999755,351.74949820002075,,,,,,,,down,11.628340099938214,None,space,0.3676909999921918,None,,,,,,,,,,,,,,,P126,001,2025-02-27_11h26.48.587,posner_endo_new1,2024.2.4,60.17929820721984,2025-02-27 11h26.57.840674 +0000,
cube_r.png,0.1,-0.31,invalid,25,25,0,down,11.644056199933402,None,space,0.3678469000151381,None,,,,,0,25,25,25,,,,,351.7649272000417,,,,,,,,,,,,,351.7497897000285,351.7649272000417,351.7649272000417,351.7649272000417,363.4208205000032,,,,363.4319802999962,363.44223689998034,363.44223689998034,363.4864475999493,363.48678959999233,363.50303709995933,363.50303709995933,363.50303709995933,363.58618960005697,363.8870078000473,,,,,,,,down,11.644056199933402,None,space,0.3678469000151381,None,,,,,,,,,,,,,,,P126,001,2025-02-27_11h26.48.587,posner_endo_new1,2024.2.4,60.17929820721984,2025-02-27 11h26.57.840674 +0000,
cube_l.png,0.1,-0.31,valid,26,26,0,down,14.37051070004236,None,space,0.8148724000202492,None,,,,,0,26,26,26,,,,,363.90268569998443,,,,,,,,,,,,,363.88730249996297,363.90268569998443,363.90268569998443,363.90268569998443,378.2889872000087,,,,378.30013410001993,378.31052469997667,378.31052469997667,378.35463660000823,378.3549893000163,378.3712078999961,378.3712078999961,378.3712078999961,378.4543076000409,379.18807499995455,,,,,,,,down,14.37051070004236,None,space,0.8148724000202492,None,,,,,,,,,,,,,,,P126,001,2025-02-27_11h26.48.587,posner_endo_new1,2024.2.4,60.17929820721984,2025-02-27 11h26.57.840674 +0000,
cube_r.png,0.1,0.31,valid,27,27,0,down,8.140142599935643,None,space,0.41306269995402545,None,,,,,0,27,27,27,,,,,379.20361980004236,,,,,,,,,,,,,379.18836999998894,379.20361980004236,379.20361980004236,379.20361980004236,387.34651379997376,,,,387.3578019000124,387.3680328000337,387.3680328000337,387.41200010001194,387.412350700004,387.42849229997955,387.42849229997955,387.42849229997955,387.5117502999492,387.846143300063,,,,,,,,down,8.140142599935643,None,space,0.41306269995402545,None,,,,,,,,,,,,,,,P126,001,2025-02-27_11h26.48.587,posner_endo_new1,2024.2.4,60.17929820721984,2025-02-27 11h26.57.840674 +0000,
cube_r.png,0.1,10,catch,28,28,0,down,10.762841199990362,None,None,,,,,,,0,28,28,28,,,,,387.86136730003636,,,,,,,,,,,,,387.8464389999863,387.86136730003636,387.86136730003636,387.86136730003636,398.6344673000276,,,,398.64163159998134,398.65344120003283,398.65344120003283,398.7004298999673,398.7006748999702,398.7171840999508,398.7171840999508,398.7171840999508,398.7836883000564,401.71441829996184,,,,400.7983161000302,401.73064950003754,401.73064950003754,401.73064950003754,down,10.762841199990362,None,None,,,,,,,,,,,,,,,,,P126,001,2025-02-27_11h26.48.587,posner_endo_new1,2024.2.4,60.17929820721984,2025-02-27 11h26.57.840674 +0000,
cube_r.png,0.1,0.31,valid,29,29,0,down,7.941297700046562,None,space,0.4758799000410363,None,,,,,0,29,29,29,,,,,401.73064950003754,,,,,,,,,,,,,401.7146001999499,401.73064950003754,401.73064950003754,401.73064950003754,409.6736056000227,,,,409.6807420999976,409.6923027000157,409.6923027000157,409.7391527000582,409.7394009999698,409.75559900002554,409.75559900002554,409.75559900002554,409.8390332000563,410.2393363000592,,,,,,,,down,7.941297700046562,None,space,0.4758799000410363,None,,,,,,,,,,,,,,,P126,001,2025-02-27_11h26.48.587,posner_endo_new1,2024.2.4,60.17929820721984,2025-02-27 11h26.57.840674 +0000,
cube_r.png,0.1,0.31,valid,30,30,0,down,8.888995100045577,None,space,0.4797086000908166,None,,,,,0,30,30,30,,,,,410.25528329994995,,,,,,,,,,,,,410.23954059998505,410.25528329994995,410.25528329994995,410.25528329994995,419.14704259997234,,,,419.15410609997343,419.16586409998126,419.16586409998126,419.2127968999557,419.2130416999571,419.22936130000744,419.22936130000744,419.22936130000744,419.3125769000035,419.7129929000512,,,,,,,,down,8.888995100045577,None,space,0.4797086000908166,None,,,,,,,,,,,,,,,P126,001,2025-02-27_11h26.48.587,posner_endo_new1,2024.2.4,60.17929820721984,2025-02-27 11h26.57.840674 +0000,
cube_l.png,0.1,-0.31,valid,31,31,0,down,9.814894700073637,None,space,0.4275013000005856,None,,,,,0,31,31,31,,,,,419.7288595000282,,,,,,,,,,,,,419.7131871000165,419.7288595000282,419.7288595000282,419.7288595000282,429.552948800032,,,,429.55872580001596,429.5703767000232,429.5703767000232,429.6188653999707,429.6190853000153,429.6353590999497,429.6353590999497,429.6353590999497,429.70200459996704,430.0689840000123,,,,,,,,down,9.814894700073637,None,space,0.4275013000005856,None,,,,,,,,,,,,,,,P126,001,2025-02-27_11h26.48.587,posner_endo_new1,2024.2.4,60.17929820721984,2025-02-27 11h26.57.840674 +0000,
cube_r.png,0.1,0.31,valid,32,32,0,down,10.914744699955918,None,space,0.3191591000650078,None,,,,,0,32,32,32,,,,,430.0850082000252,,,,,,,,,,,,,430.0691552000353,430.0850082000252,430.0850082000252,430.0850082000252,441.0083799000131,,,,441.01945919997524,441.0298835999565,441.0298835999565,441.0738522000611,441.07419399998616,441.0904886999633,441.0904886999633,441.0904886999633,441.17358890001196,441.42460549995303,,,,,,,,down,10.914744699955918,None,space,0.3191591000650078,None,,,,,,,,,,,,,,,P126,001,2025-02-27_11h26.48.587,posner_endo_new1,2024.2.4,60.17929820721984,2025-02-27 11h26.57.840674 +0000,
cube_r.png,0.1,-0.31,invalid,33,33,0,down,10.232180999941193,None,space,0.38660189998336136,None,,,,,0,33,33,33,,,,,441.4400105000241,,,,,,,,,,,,,441.42490009998437,441.4400105000241,441.4400105000241,441.4400105000241,451.6801243999507,,,,451.68686000001617,451.69856839999557,451.69856839999557,451.7462009000592,451.7467052000575,451.7626280999975,451.7626280999975,451.7626280999975,451.8292269000085,452.1639848999912,,,,,,,,down,10.232180999941193,None,space,0.38660189998336136,None,,,,,,,,,,,,,,,P126,001,2025-02-27_11h26.48.587,posner_endo_new1,2024.2.4,60.17929820721984,2025-02-27 11h26.57.840674 +0000,
cube_r.png,0.1,10,catch,34,34,0,down,11.325444899965078,None,None,,,,,,,0,34,34,34,,,,,452.178879700019,,,,,,,,,,,,,452.164419000037,452.178879700019,452.178879700019,452.178879700019,463.51867010002024,,,,463.5298065999523,463.54015160002746,463.54015160002746,463.5841587999603,463.5845060000429,463.60069540003315,463.60069540003315,463.60069540003315,463.68398740002885,466.5983301999513,,,,465.69854929996654,466.6142434000503,466.6142434000503,466.6142434000503,down,11.325444899965078,None,None,,,,,,,,,,,,,,,,,P126,001,2025-02-27_11h26.48.587,posner_endo_new1,2024.2.4,60.17929820721984,2025-02-27 11h26.57.840674 +0000,
cube_r.png,0.1,0.31,valid,35,35,0,down,7.034205300034955,None,space,0.39103309996426105,None,,,,,0,35,35,35,,,,,466.6142434000503,,,,,,,,,,,,,466.59860020002816,466.6142434000503,466.6142434000503,466.6142434000503,473.65829609998036,,,,473.66941360000055,473.6796527999686,473.6796527999686,473.72382840001956,473.72416730003897,473.7403183999704,473.7403183999704,473.7403183999704,473.8235785999568,474.14118889998645,,,,,,,,down,7.034205300034955,None,space,0.39103309996426105,None,,,,,,,,,,,,,,,P126,001,2025-02-27_11h26.48.587,posner_endo_new1,2024.2.4,60.17929820721984,2025-02-27 11h26.57.840674 +0000,
cube_r.png,0.1,-0.31,invalid,36,36,0,down,10.74793190008495,None,space,0.39290520001668483,None,,,,,0,36,36,36,,,,,474.1565648999531,,,,,,,,,,,,,474.141485500033,474.1565648999531,474.1565648999531,474.1565648999531,484.913187499973,,,,484.9221605999628,484.9342354000546,484.9342354000546,484.9793630000204,484.9800262999488,484.9957006999757,484.9957006999757,484.9957006999757,485.06231770000886,485.39768519997597,,,,,,,,down,10.74793190008495,None,space,0.39290520001668483,None,,,,,,,,,,,,,,,P126,001,2025-02-27_11h26.48.587,posner_endo_new1,2024.2.4,60.17929820721984,2025-02-27 11h26.57.840674 +0000,
cube_l.png,0.1,0.31,invalid,37,37,0,down,4.635558999958448,None,space,0.4497030999045819,None,,,,,0,37,37,37,,,,,485.41206909995526,,,,,,,,,,,,,485.39826379995793,485.41206909995526,485.41206909995526,485.41206909995526,490.05958790006116,,,,490.0802843000274,490.0903742000228,490.0903742000228,490.12335700006224,490.12374189996626,490.13981119997334,490.13981119997334,490.13981119997334,490.22305969998706,490.59090780001134,,,,,,,,down,4.635558999958448,None,space,0.4497030999045819,None,,,,,,,,,,,,,,,P126,001,2025-02-27_11h26.48.587,posner_endo_new1,2024.2.4,60.17929820721984,2025-02-27 11h26.57.840674 +0000,
cube_l.png,0.1,0.31,invalid,38,38,0,down,4.0740822000661865,None,space,0.3383763999445364,None,,,,,0,38,38,38,,,,,490.60600030003116,,,,,,,,,,,,,490.5912394999759,490.60600030003116,490.60600030003116,490.60600030003116,494.6863516999874,,,,494.69388439995237,494.7053215999622,494.7053215999622,494.752355500008,494.75262359995395,494.76879740005825,494.76879740005825,494.76879740005825,494.83537700003944,495.1193387999665,,,,,,,,down,4.0740822000661865,None,space,0.3383763999445364,None,,,,,,,,,,,,,,,P126,001,2025-02-27_11h26.48.587,posner_endo_new1,2024.2.4,60.17929820721984,2025-02-27 11h26.57.840674 +0000,
cube_r.png,0.1,0.31,valid,39,39,0,down,10.049091900000349,None,space,0.3783227000385523,None,,,,,0,39,39,39,,,,,495.1350973000517,,,,,,,,,,,,,495.11954880005214,495.1350973000517,495.1350973000517,495.1350973000517,505.1924788999604,,,,505.2001158000203,505.2112739000004,505.2112739000004,505.25820559996646,505.2584665999748,505.27483480004594,505.27483480004594,505.27483480004594,505.3414158000378,505.6586185999913,,,,,,,,down,10.049091900000349,None,space,0.3783227000385523,None,,,,,,,,,,,,,,,P126,001,2025-02-27_11h26.48.587,posner_endo_new1,2024.2.4,60.17929820721984,2025-02-27 11h26.57.840674 +0000,
cube_l.png,0.1,0.31,invalid,40,40,0,down,9.597523899981752,None,space,0.4196873999899253,None,,,,,0,40,40,40,,,,,505.674520200002,,,,,,,,,,,,,505.65882600005716,505.674520200002,505.674520200002,505.674520200002,515.2820306000067,,,,515.2895492999814,515.3008510000072,515.3008510000072,515.3479668999789,515.3482246999629,515.3643460000167,515.3643460000167,515.3643460000167,515.4477212000638,515.798258200055,,,,,,,,down,9.597523899981752,None,space,0.4196873999899253,None,,,,,,,,,,,,,,,P126,001,2025-02-27_11h26.48.587,posner_endo_new1,2024.2.4,60.17929820721984,2025-02-27 11h26.57.840674 +0000,
cube_l.png,0.1,10,catch,41,41,0,down,9.81803820002824,None,None,,,,,,,0,41,41,41,,,,,515.8141966999974,,,,,,,,,,,,,515.7984655000037,515.8141966999974,515.8141966999974,515.8141966999974,525.6383063000394,,,,525.645869400003,525.6569141000509,525.6569141000509,525.7039930999745,525.7044974999735,525.7203828999773,525.7203828999773,525.7203828999773,525.8036653000163,528.7182225000579,,,,527.8184913999867,528.7342056999914,528.7342056999914,528.7342056999914,down,9.81803820002824,None,None,,,,,,,,,,,,,,,,,P126,001,2025-02-27_11h26.48.587,posner_endo_new1,2024.2.4,60.17929820721984,2025-02-27 11h26.57.840674 +0000,
cube_l.png,0.1,-0.31,valid,42,42,0,down,6.121484000002965,None,space,0.43199640000239015,None,,,,,0,42,42,42,,,,,528.7342056999914,,,,,,,,,,,,,528.7185081000207,528.7342056999914,528.7342056999914,528.7342056999914,534.8623709999956,,,,534.8714099000208,534.8812160999514,534.8812160999514,534.9279790000292,534.9282322999788,534.944571100059,534.944571100059,534.944571100059,535.0276938000461,535.3784630000591,,,,,,,,down,6.121484000002965,None,space,0.43199640000239015,None,,,,,,,,,,,,,,,P126,001,2025-02-27_11h26.48.587,posner_endo_new1,2024.2.4,60.17929820721984,2025-02-27 11h26.57.840674 +0000,
cube_l.png,0.1,10,catch,43,43,0,down,8.454065300058573,None,None,,,,,,,0,43,43,43,,,,,535.3940271000611,,,,,,,,,,,,,535.3786652999697,535.3940271000611,535.3940271000611,535.3940271000611,543.8547471000347,,,,543.8766468999675,543.8888663999969,543.8888663999969,543.9185707999859,543.9190130999777,543.9350704000099,543.9350704000099,543.9350704000099,544.0182096000062,546.932794900029,,,,546.0328111000126,546.9485453000525,546.9485453000525,546.9485453000525,down,8.454065300058573,None,None,,,,,,,,,,,,,,,,,P126,001,2025-02-27_11h26.48.587,posner_endo_new1,2024.2.4,60.17929820721984,2025-02-27 11h26.57.840674 +0000,
cube_l.png,0.1,0.31,invalid,44,44,0,down,4.987180300056934,None,space,0.4382856000447646,None,,,,,0,44,44,44,,,,,546.9485453000525,,,,,,,,,,,,,546.9331363999518,546.9485453000525,546.9485453000525,546.9485453000525,551.9448236000026,,,,551.9540048999479,551.9641039000126,551.9641039000126,552.01053650002,552.01084490004,552.0270126999822,552.0270126999822,552.0270126999822,552.1102721999632,552.4777072999859,,,,,,,,down,4.987180300056934,None,space,0.4382856000447646,None,,,,,,,,,,,,,,,P126,001,2025-02-27_11h26.48.587,posner_endo_new1,2024.2.4,60.17929820721984,2025-02-27 11h26.57.840674 +0000,
cube_l.png,0.1,0.31,invalid,45,45,0,down,9.306942499941215,None,space,0.3984929999569431,None,,,,,0,45,45,45,,,,,552.4933269000612,,,,,,,,,,,,,552.4779588000383,552.4933269000612,552.4933269000612,552.4933269000612,561.8015865000198,,,,561.8108433999587,561.8209658999695,561.8209658999695,561.8670714000473,561.867377800052,561.8835826000432,561.8835826000432,561.8835826000432,561.9668495999649,562.2843934999546,,,,,,,,down,9.306942499941215,None,space,0.3984929999569431,None,,,,,,,,,,,,,,,P126,001,2025-02-27_11h26.48.587,posner_endo_new1,2024.2.4,60.17929820721984,2025-02-27 11h26.57.840674 +0000,
cube_r.png,0.1,0.31,valid,46,46,0,down,12.252541999914683,None,space,0.4092042000265792,None,,,,,0,46,46,46,,,,,562.2998064999701,,,,,,,,,,,,,562.2846401999705,562.2998064999701,562.2998064999701,562.2998064999701,574.5551177000161,,,,574.564436799963,574.5746518999804,574.5746518999804,574.6204773000209,574.6207814000081,574.6372459999984,574.6372459999984,574.6372459999984,574.720339099993,575.0545469999779,,,,,,,,down,12.252541999914683,None,space,0.4092042000265792,None,,,,,,,,,,,,,,,P126,001,2025-02-27_11h26.48.587,posner_endo_new1,2024.2.4,60.17929820721984,2025-02-27 11h26.57.840674 +0000,
cube_l.png,0.1,-0.31,valid,47,47,0,down,3.106251100078225,None,space,0.3996146999998018,None,,,,,0,47,47,47,,,,,575.0701325000264,,,,,,,,,,,,,575.0547937999945,575.0701325000264,575.0701325000264,575.0701325000264,578.1847907999763,,,,578.1939251000294,578.2040519999573,578.2040519999573,578.2503673000028,578.2506738000084,578.2668908999767,578.2668908999767,578.2668908999767,578.3501245999942,578.6678268000251,,,,,,,,down,3.106251100078225,None,space,0.3996146999998018,None,,,,,,,,,,,,,,,P126,001,2025-02-27_11h26.48.587,posner_endo_new1,2024.2.4,60.17929820721984,2025-02-27 11h26.57.840674 +0000,
cube_r.png,0.1,-0.31,invalid,48,48,0,down,7.949121300014667,None,space,0.2982609000755474,None,,,,,0,48,48,48,,,,,578.6830164999701,,,,,,,,,,,,,578.6680804999778,578.6830164999701,578.6830164999701,578.6830164999701,586.6427276000613,,,,586.6521255000262,586.6622526999563,586.6622526999563,586.7083729000296,586.7086829000618,586.7248602999607,586.7248602999607,586.7248602999607,586.8081507000607,587.0257845000597,,,,,,,,down,7.949121300014667,None,space,0.2982609000755474,None,,,,,,,,,,,,,,,P126,001,2025-02-27_11h26.48.587,posner_endo_new1,2024.2.4,60.17929820721984,2025-02-27 11h26.57.840674 +0000,
cube_r.png,0.1,10,catch,49,49,0,down,9.023944600019604,None,None,,,,,,,0,49,49,49,,,,,587.0410036999965,,,,,,,,,,,,,587.0260336999781,587.0410036999965,587.0410036999965,587.0410036999965,596.0665679000085,,,,596.0757790999487,596.0859646999743,596.0859646999743,596.1324651000323,596.1331236000406,596.1488487999886,596.1488487999886,596.1488487999886,596.2320839000167,599.1471411000239,,,,598.2466624999652,599.1624304000288,599.1624304000288,599.1624304000288,down,9.023944600019604,None,None,,,,,,,,,,,,,,,,,P126,001,2025-02-27_11h26.48.587,posner_endo_new1,2024.2.4,60.17929820721984,2025-02-27 11h26.57.840674 +0000,
cube_l.png,0.1,-0.31,valid,50,50,0,down,6.709785899962299,None,space,0.42081949999555945,None,,,,,0,50,50,50,,,,,599.1624304000288,,,,,,,,,,,,,599.1476826999569,599.1624304000288,599.1624304000288,599.1624304000288,605.8730600000126,,,,605.8826633000281,605.8948661000468,605.8948661000468,605.9391237000236,605.9397796000121,605.9554192000069,605.9554192000069,605.9554192000069,606.0387346999487,606.3907105999533,,,,,,,,down,6.709785899962299,None,space,0.42081949999555945,None,,,,,,,,,,,,,,,P126,001,2025-02-27_11h26.48.587,posner_endo_new1,2024.2.4,60.17929820721984,2025-02-27 11h26.57.840674 +0000,
cube_l.png,0.1,-0.31,valid,51,51,0,down,3.3793933000415564,None,space,0.33584549999795854,None,,,,,0,51,51,51,,,,,606.4051293999655,,,,,,,,,,,,,606.3912936999695,606.4051293999655,606.4051293999655,606.4051293999655,609.7877645000117,,,,609.8091528000077,609.8192822999554,609.8192822999554,609.8510025000433,609.8513458999805,609.8677064999938,609.8677064999938,609.8677064999938,609.9511677999981,610.2187792999903,,,,,,,,down,3.3793933000415564,None,space,0.33584549999795854,None,,,,,,,,,,,,,,,P126,001,2025-02-27_11h26.48.587,posner_endo_new1,2024.2.4,60.17929820721984,2025-02-27 11h26.57.840674 +0000,
cube_r.png,0.1,-0.31,invalid,52,52,0,down,2.1656304999487475,None,space,0.3784198999637738,None,,,,,0,52,52,52,,,,,610.2343475000234,,,,,,,,,,,,,610.2190627000527,610.2343475000234,610.2343475000234,610.2343475000234,612.4164736999664,,,,612.4274802999571,612.4375633000163,612.4375633000163,612.4820464999648,612.4823974999599,612.4985794000095,612.4985794000095,612.4985794000095,612.5816304000327,612.8827922999626,,,,,,,,down,2.1656304999487475,None,space,0.3784198999637738,None,,,,,,,,,,,,,,,P126,001,2025-02-27_11h26.48.587,posner_endo_new1,2024.2.4,60.17929820721984,2025-02-27 11h26.57.840674 +0000,
cube_l.png,0.1,-0.31,valid,53,53,0,down,3.0945383000653237,None,space,0.3422718000365421,None,,,,,0,53,53,53,,,,,612.8982198999729,,,,,,,,,,,,,612.8830813999521,612.8982198999729,612.8982198999729,612.8982198999729,615.9960931000533,,,,616.007069000043,616.0174017000245,616.0174017000245,616.0618437000085,616.0621853000484,616.0781845999882,616.0781845999882,616.0781845999882,616.1615206999704,616.4291730000405,,,,,,,,down,3.0945383000653237,None,space,0.3422718000365421,None,,,,,,,,,,,,,,,P126,001,2025-02-27_11h26.48.587,posner_endo_new1,2024.2.4,60.17929820721984,2025-02-27 11h26.57.840674 +0000,
cube_r.png,0.1,10,catch,54,54,0,down,4.923307600081898,None,None,,,,,,,0,54,54,54,,,,,616.4445887999609,,,,,,,,,,,,,616.4294597000116,616.4445887999609,616.4445887999609,616.4445887999609,621.3740491999779,,,,621.3851184999803,621.3954840999795,621.3954840999795,621.4396154000424,621.4399741999805,621.456105899997,621.456105899997,621.456105899997,621.539291699999,624.4534033000236,,,,623.5535118000116,624.4692445000401,624.4692445000401,624.4692445000401,down,4.923307600081898,None,None,,,,,,,,,,,,,,,,,P126,001,2025-02-27_11h26.48.587,posner_endo_new1,2024.2.4,60.17929820721984,2025-02-27 11h26.57.840674 +0000,
cube_l.png,0.1,0.31,invalid,55,55,0,down,2.0913748999591917,None,space,0.37825070007238537,None,,,,,0,55,55,55,,,,,624.4692445000401,,,,,,,,,,,,,624.4537108000368,624.4692445000401,624.4692445000401,624.4692445000401,626.5685389999999,,,,626.5809333999641,626.5909810999874,626.5909810999874,626.6338947999757,626.6342963000061,626.6503531000344,626.6503531000344,626.6503531000344,626.7335874000564,627.0346984999487,,,,,,,,down,2.0913748999591917,None,space,0.37825070007238537,None,,,,,,,,,,,,,,,P126,001,2025-02-27_11h26.48.587,posner_endo_new1,2024.2.4,60.17929820721984,2025-02-27 11h26.57.840674 +0000,
cube_l.png,0.1,-0.31,valid,56,56,0,down,8.966441600001417,None,space,0.45659139996860176,None,,,,,0,56,56,56,,,,,627.0499421999557,,,,,,,,,,,,,627.0350182000548,627.0499421999557,627.0499421999557,627.0499421999557,636.0253867000574,,,,636.0335159000242,636.0442018000176,636.0442018000176,636.0913200000068,636.0916032999521,636.1077115000226,636.1077115000226,636.1077115000226,636.191111400025,636.5749080999522,,,,,,,,down,8.966441600001417,None,space,0.45659139996860176,None,,,,,,,,,,,,,,,P126,001,2025-02-27_11h26.48.587,posner_endo_new1,2024.2.4,60.17929820721984,2025-02-27 11h26.57.840674 +0000,
cube_r.png,0.1,0.31,valid,57,57,0,down,2.7629444000776857,None,space,0.3617821999359876,None,,,,,0,57,57,57,,,,,636.5905248000054,,,,,,,,,,,,,636.5751250999747,636.5905248000054,636.5905248000054,636.5905248000054,639.35564720002,,,,639.3636650999542,639.3741492000408,639.3741492000408,639.4212449999759,639.4215229999973,639.4376758000581,639.4376758000581,639.4376758000581,639.5210289000534,639.8051465000026,,,,,,,,down,2.7629444000776857,None,space,0.3617821999359876,None,,,,,,,,,,,,,,,P126,001,2025-02-27_11h26.48.587,posner_endo_new1,2024.2.4,60.17929820721984,2025-02-27 11h26.57.840674 +0000,
cube_r.png,0.1,-0.31,invalid,58,58,0,down,7.660634099971503,None,space,0.3362226999597624,None,,,,,0,58,58,58,,,,,639.8207673999714,,,,,,,,,,,,,639.805364800035,639.8207673999714,639.8207673999714,639.8207673999714,647.4971045999555,,,,647.5053136999486,647.5157975000329,647.5157975000329,647.562854000018,647.5631280000089,647.5792052999604,647.5792052999604,647.5792052999604,647.6626996999839,647.9299472999992,,,,,,,,down,7.660634099971503,None,space,0.3362226999597624,None,,,,,,,,,,,,,,,P126,001,2025-02-27_11h26.48.587,posner_endo_new1,2024.2.4,60.17929820721984,2025-02-27 11h26.57.840674 +0000,
cube_l.png,0.1,0.31,invalid,59,59,0,down,8.278923300094903,None,space,0.38726390001829714,None,,,,,0,59,59,59,,,,,647.9455603000242,,,,,,,,,,,,,647.930166300037,647.9455603000242,647.9455603000242,647.9455603000242,656.2381651999895,,,,656.2462154000532,656.2565833999543,656.2565833999543,656.3039987999946,656.3042702999664,656.320543400012,656.320543400012,656.320543400012,656.4034619999584,656.7209204999963,,,,,,,,down,8.278923300094903,None,space,0.38726390001829714,None,,,,,,,,,,,,,,,P126,001,2025-02-27_11h26.48.587,posner_endo_new1,2024.2.4,60.17929820721984,2025-02-27 11h26.57.840674 +0000,
,,,,,,,,,,,,,,,,,,,,,,,,,,,,,,,,,,,,,,,,,,,,,,,,,,,,,,,,,,,,,,,,,,,,,656.7210649000481,656.7367314000148,656.7367314000148,716.7420991000254,725.2008044000249,space,68.44790170004126,None,,,,,,,P126,001,2025-02-27_11h26.48.587,posner_endo_new1,2024.2.4,60.17929820721984,2025-02-27 11h26.57.840674 +0000,
,,,,,,,,,,,,,,,,,,,,,,,,,,,,,,,,,,725.2008629000047,725.216675600037,728.2206674000481,728.1975995999528,,,,,,,,,,,,,,,,,,,,,,,,,,,,,,,,,,,,,,,,,,,,,,P126,001,2025-02-27_11h26.48.587,posner_endo_new1,2024.2.4,60.17929820721984,2025-02-27 11h26.57.840674 +0000,
cube_l.png,0.1,10,catch,0,0,0,up,6.924324300023727,None,None,,,,,,,,,,,0,0,0,0,728.2206674000481,,,,,,,,,,,,,728.2118373999838,728.2206674000481,728.2206674000481,728.2206674000481,735.1572819000576,,,,735.1633008000208,735.1750512999715,735.1750512999715,735.2233320999658,735.2235609999625,735.2398573999526,735.2398573999526,735.2398573999526,735.322752899956,738.2374376000371,,,,737.3376258000499,738.2534446000354,738.2534446000354,738.2534446000354,,,,,,,,,,,,,,,up,6.924324300023727,None,None,,,P126,001,2025-02-27_11h26.48.587,posner_endo_new1,2024.2.4,60.17929820721984,2025-02-27 11h26.57.840674 +0000,
cube_l.png,0.1,10,catch,1,1,0,up,11.746896800003015,None,None,,,,,,,,,,,0,1,1,1,738.2534446000354,,,,,,,,,,,,,738.2376718999585,738.2534446000354,738.2534446000354,738.2534446000354,750.0089475000277,,,,750.0181697000517,750.028409200022,750.028409200022,750.0747449999908,750.0750540000154,750.0912497000536,750.0912497000536,750.0912497000536,750.1745439999504,753.0889113000594,,,,752.1891537000192,753.104957100004,753.104957100004,753.104957100004,,,,,,,,,,,,,,,up,11.746896800003015,None,None,,,P126,001,2025-02-27_11h26.48.587,posner_endo_new1,2024.2.4,60.17929820721984,2025-02-27 11h26.57.840674 +0000,
cube_l.png,0.1,0.31,invalid,2,2,0,up,8.679708100040443,None,space,0.3925126000540331,None,,,,,,,,,0,2,2,2,753.104957100004,,,,,,,,,,,,,753.0891496000113,753.104957100004,753.104957100004,753.104957100004,761.797142400057,,,,761.8063602000475,761.8166022000369,761.8166022000369,761.8627319999505,761.8630377999507,761.8792186999926,761.8792186999926,761.8792186999926,761.9625210999511,762.279803100042,,,,,,,,,,,,,,,,,,,,,,up,8.679708100040443,None,space,0.3925126000540331,None,P126,001,2025-02-27_11h26.48.587,posner_endo_new1,2024.2.4,60.17929820721984,2025-02-27 11h26.57.840674 +0000,
cube_l.png,0.1,0.31,invalid,3,3,0,up,6.344987799995579,None,space,0.3186752999899909,None,,,,,,,,,0,3,3,3,762.2954891000409,,,,,,,,,,,,,762.2800534999697,762.2954891000409,762.2954891000409,762.2954891000409,768.6567771000555,,,,768.6660743999528,768.6763047999702,768.6763047999702,768.7223979999544,768.7227027000627,768.738931800006,768.738931800006,768.738931800006,768.8222288000397,769.0732155999867,,,,,,,,,,,,,,,,,,,,,,up,6.344987799995579,None,space,0.3186752999899909,None,P126,001,2025-02-27_11h26.48.587,posner_endo_new1,2024.2.4,60.17929820721984,2025-02-27 11h26.57.840674 +0000,
cube_l.png,0.1,-0.31,valid,4,4,0,up,9.151927100028843,None,space,0.4438936000224203,None,,,,,,,,,0,4,4,4,769.0885976999998,,,,,,,,,,,,,769.0734749999829,769.0885976999998,769.0885976999998,769.0885976999998,778.2468611999648,,,,778.256092900061,778.266148100025,778.266148100025,778.3125704999547,778.3128751000622,778.3294306000462,778.3294306000462,778.3294306000462,778.4123582000611,778.7797227000119,,,,,,,,,,,,,,,,,,,,,,up,9.151927100028843,None,space,0.4438936000224203,None,P126,001,2025-02-27_11h26.48.587,posner_endo_new1,2024.2.4,60.17929820721984,2025-02-27 11h26.57.840674 +0000,
cube_r.png,0.1,-0.31,invalid,5,5,0,up,11.96550729998853,None,space,0.2942308000056073,None,,,,,,,,,0,5,5,5,778.7952927000588,,,,,,,,,,,,,778.7799725000514,778.7952927000588,778.7952927000588,778.7952927000588,790.767489299993,,,,790.7767240999965,790.7870554999681,790.7870554999681,790.8331957999617,790.8335041999817,790.8497956000501,790.8497956000501,790.8497956000501,790.932880599983,791.1503094000509,,,,,,,,,,,,,,,,,,,,,,up,11.96550729998853,None,space,0.2942308000056073,None,P126,001,2025-02-27_11h26.48.587,posner_endo_new1,2024.2.4,60.17929820721984,2025-02-27 11h26.57.840674 +0000,
cube_r.png,0.1,0.31,valid,6,6,0,up,9.890493899933062,None,space,0.3885539999464527,None,,,,,,,,,0,6,6,6,791.1659514999483,,,,,,,,,,,,,791.15055999998,791.1659514999483,791.1659514999483,791.1659514999483,801.0734618999995,,,,801.08261329995,801.0925432000076,801.0925432000076,801.1393479000544,801.1396649000235,801.1558136000531,801.1558136000531,801.1558136000531,801.2390750000486,801.556507500005,,,,,,,,,,,,,,,,,,,,,,up,9.890493899933062,None,space,0.3885539999464527,None,P126,001,2025-02-27_11h26.48.587,posner_endo_new1,2024.2.4,60.17929820721984,2025-02-27 11h26.57.840674 +0000,
cube_r.png,0.1,-0.31,invalid,7,7,0,up,16.19608010002412,None,space,0.44771840004250407,None,,,,,,,,,0,7,7,7,801.5720629000571,,,,,,,,,,,,,801.5567582000513,801.5720629000571,801.5720629000571,801.5720629000571,817.7732556000119,,,,817.7824619000312,817.7927378000459,817.7927378000459,817.8389596999623,817.8392653999617,817.8553061999846,817.8553061999846,817.8553061999846,817.9386388000567,818.3060779999942,,,,,,,,,,,,,,,,,,,,,,up,16.19608010002412,None,space,0.44771840004250407,None,P126,001,2025-02-27_11h26.48.587,posner_endo_new1,2024.2.4,60.17929820721984,2025-02-27 11h26.57.840674 +0000,
cube_l.png,0.1,-0.31,valid,8,8,0,up,8.311251300037839,None,space,0.34102439996786416,None,,,,,,,,,0,8,8,8,818.3215950999875,,,,,,,,,,,,,818.3063302000519,818.3215950999875,818.3215950999875,818.3215950999875,826.6480445000343,,,,826.664306599996,826.6753886999795,826.6753886999795,826.7131112000206,826.7133918000618,826.7296883000527,826.7296883000527,826.7296883000527,826.8129370999523,827.0804604999721,,,,,,,,,,,,,,,,,,,,,,up,8.311251300037839,None,space,0.34102439996786416,None,P126,001,2025-02-27_11h26.48.587,posner_endo_new1,2024.2.4,60.17929820721984,2025-02-27 11h26.57.840674 +0000,
cube_r.png,0.1,-0.31,invalid,9,9,0,up,5.480468000052497,None,space,0.3074397000018507,None,,,,,,,,,0,9,9,9,827.0959243000252,,,,,,,,,,,,,827.0806974000297,827.0959243000252,827.0959243000252,827.0959243000252,832.5917097999481,,,,832.6028204000322,832.6131461999612,832.6131461999612,832.6571110000368,832.6574588000076,832.6736659000162,832.6736659000162,832.6736659000162,832.756910600001,832.9912679999834,,,,,,,,,,,,,,,,,,,,,,up,5.480468000052497,None,space,0.3074397000018507,None,P126,001,2025-02-27_11h26.48.587,posner_endo_new1,2024.2.4,60.17929820721984,2025-02-27 11h26.57.840674 +0000,
cube_l.png,0.1,0.31,invalid,10,10,0,up,24.602276799967512,None,space,0.5816038999473676,None,,,,,,,,,0,10,10,10,833.006589800003,,,,,,,,,,,,,832.9915587999858,833.006589800003,833.006589800003,833.006589800003,857.6160224999767,,,,857.6270918999799,857.6372794000199,857.6372794000199,857.6816039000405,857.6819529000204,857.6980513000162,857.6980513000162,857.6980513000162,857.7812926999759,858.2821798999794,,,,,,,,,,,,,,,,,,,,,,up,24.602276799967512,None,space,0.5816038999473676,None,P126,001,2025-02-27_11h26.48.587,posner_endo_new1,2024.2.4,60.17929820721984,2025-02-27 11h26.57.840674 +0000,
cube_r.png,0.1,-0.31,invalid,11,11,0,up,3.4555261000059545,None,space,0.37775570002850145,None,,,,,,,,,0,11,11,11,858.2974188999506,,,,,,,,,,,,,858.2824723999947,858.2974188999506,858.2974188999506,858.2974188999506,861.7616950999945,,,,861.7728725000052,861.7831972000422,861.7831972000422,861.8273967000423,861.8277395999758,861.8439129999606,861.8439129999606,861.8439129999606,861.9271196000045,862.2280605999986,,,,,,,,,,,,,,,,,,,,,,up,3.4555261000059545,None,space,0.37775570002850145,None,P126,001,2025-02-27_11h26.48.587,posner_endo_new1,2024.2.4,60.17929820721984,2025-02-27 11h26.57.840674 +0000,
cube_r.png,0.1,0.31,valid,12,12,0,up,13.454294999944977,None,space,0.3403722000075504,None,,,,,,,,,0,12,12,12,862.2434640000574,,,,,,,,,,,,,862.2283487999812,862.2434640000574,862.2434640000574,862.2434640000574,875.7141619999893,,,,875.725214999984,875.7352109999629,875.7352109999629,875.7798126999987,875.7801661000121,875.7962463999866,875.7962463999866,875.7962463999866,875.8795771000441,876.1470898999833,,,,,,,,,,,,,,,,,,,,,,up,13.454294999944977,None,space,0.3403722000075504,None,P126,001,2025-02-27_11h26.48.587,posner_endo_new1,2024.2.4,60.17929820721984,2025-02-27 11h26.57.840674 +0000,
cube_l.png,0.1,10,catch,13,13,0,up,6.918109600082971,None,None,,,,,,,,,,,0,13,13,13,876.1624697999796,,,,,,,,,,,,,876.1473823999986,876.1624697999796,876.1624697999796,876.1624697999796,883.089966999949,,,,883.1010303000221,883.1114223999903,883.1114223999903,883.1555199000286,883.1558634999674,883.1720325000351,883.1720325000351,883.1720325000351,883.2552802000428,886.1694145000074,,,,885.2698015000205,886.1854106000392,886.1854106000392,886.1854106000392,,,,,,,,,,,,,,,up,6.918109600082971,None,None,,,P126,001,2025-02-27_11h26.48.587,posner_endo_new1,2024.2.4,60.17929820721984,2025-02-27 11h26.57.840674 +0000,
cube_r.png,0.1,-0.31,invalid,14,14,0,up,7.983482699957676,None,space,0.40649030008353293,None,,,,,,,,,0,14,14,14,886.1854106000392,,,,,,,,,,,,,886.1696052000625,886.1854106000392,886.1854106000392,886.1854106000392,894.1781535999617,,,,894.185281699989,894.1969735999592,894.1969735999592,894.2441137999995,894.244603900006,894.260570100043,894.260570100043,894.260570100043,894.343816800043,894.6787978999782,,,,,,,,,,,,,,,,,,,,,,up,7.983482699957676,None,space,0.40649030008353293,None,P126,001,2025-02-27_11h26.48.587,posner_endo_new1,2024.2.4,60.17929820721984,2025-02-27 11h26.57.840674 +0000,
cube_l.png,0.1,-0.31,valid,15,15,0,up,7.083297900040634,None,space,0.3589305999921635,None,,,,,,,,,0,15,15,15,894.6935181999579,,,,,,,,,,,,,894.6792379999533,894.6935181999579,894.6935181999579,894.6935181999579,901.7875895999605,,,,901.7986345000099,901.8089091000147,901.8089091000147,901.8530846999492,901.853428500006,901.8696704000467,901.8696704000467,901.8696704000467,901.9528237000341,902.2367414999753,,,,,,,,,,,,,,,,,,,,,,up,7.083297900040634,None,space,0.3589305999921635,None,P126,001,2025-02-27_11h26.48.587,posner_endo_new1,2024.2.4,60.17929820721984,2025-02-27 11h26.57.840674 +0000,
cube_r.png,0.1,10,catch,16,16,0,up,5.044183399993926,None,None,,,,,,,,,,,0,16,16,16,902.2525532,,,,,,,,,,,,,902.2369366999483,902.2525532,902.2525532,902.2525532,907.2983422999969,,,,907.3054126000497,907.3171815000242,907.3171815000242,907.3640311000636,907.3642774999607,907.3805898999562,907.3805898999562,907.3805898999562,907.4639302999713,910.3781987000257,,,,909.4784464000259,910.394396699965,910.394396699965,910.394396699965,,,,,,,,,,,,,,,up,5.044183399993926,None,None,,,P126,001,2025-02-27_11h26.48.587,posner_endo_new1,2024.2.4,60.17929820721984,2025-02-27 11h26.57.840674 +0000,
cube_r.png,0.1,10,catch,17,17,0,up,4.550357799977064,None,None,,,,,,,,,,,0,17,17,17,910.394396699965,,,,,,,,,,,,,910.3783832000336,910.394396699965,910.394396699965,910.394396699965,914.9571603999939,,,,914.9642087999964,914.9759410000406,914.9759410000406,915.0229034000076,915.0231502000242,915.0395739000523,915.0395739000523,915.0395739000523,915.1061933999881,918.0369673999958,,,,917.1207696000347,918.0531854999717,918.0531854999717,918.0531854999717,,,,,,,,,,,,,,,up,4.550357799977064,None,None,,,P126,001,2025-02-27_11h26.48.587,posner_endo_new1,2024.2.4,60.17929820721984,2025-02-27 11h26.57.840674 +0000,
cube_l.png,0.1,0.31,invalid,18,18,0,up,4.979270000010729,None,space,0.32495709997601807,None,,,,,,,,,0,18,18,18,918.0531854999717,,,,,,,,,,,,,918.037152600009,918.0531854999717,918.0531854999717,918.0531854999717,923.0487349999603,,,,923.0558029999956,923.0674771000631,923.0674771000631,923.1146630999865,923.1149143000366,923.1312284000451,923.1312284000451,923.1312284000451,923.1978732000571,923.4650639999891,,,,,,,,,,,,,,,,,,,,,,up,4.979270000010729,None,space,0.32495709997601807,None,P126,001,2025-02-27_11h26.48.587,posner_endo_new1,2024.2.4,60.17929820721984,2025-02-27 11h26.57.840674 +0000,
cube_l.png,0.1,10,catch,19,19,0,up,7.231434699962847,None,None,,,,,,,,,,,0,19,19,19,923.4809040999971,,,,,,,,,,,,,923.4652609999757,923.4809040999971,923.4809040999971,923.4809040999971,930.7242897000397,,,,930.7313868000638,930.7431405000389,930.7431405000389,930.7901494000107,930.7903946000151,930.8067199999932,930.8067199999932,930.8067199999932,930.8898774000118,933.8041027999716,,,,932.9044357000384,933.8202656999929,933.8202656999929,933.8202656999929,,,,,,,,,,,,,,,up,7.231434699962847,None,None,,,P126,001,2025-02-27_11h26.48.587,posner_endo_new1,2024.2.4,60.17929820721984,2025-02-27 11h26.57.840674 +0000,
cube_l.png,0.1,0.31,invalid,20,20,0,up,9.596168500022031,None,space,0.375326200039126,None,,,,,,,,,0,20,20,20,933.8202656999929,,,,,,,,,,,,,933.8042913000099,933.8202656999929,933.8202656999929,933.8202656999929,943.4278330999659,,,,943.4349161999999,943.4467553000432,943.4467553000432,943.493895099964,943.4941418999806,943.5103853000328,943.5103853000328,943.5103853000328,943.5770506999688,943.8941903000232,,,,,,,,,,,,,,,,,,,,,,up,9.596168500022031,None,space,0.375326200039126,None,P126,001,2025-02-27_11h26.48.587,posner_endo_new1,2024.2.4,60.17929820721984,2025-02-27 11h26.57.840674 +0000,
cube_l.png,0.1,-0.31,valid,21,21,0,up,12.706890400033444,None,space,0.4374158000573516,None,,,,,,,,,0,21,21,21,943.9099089000374,,,,,,,,,,,,,943.8943867000053,943.9099089000374,943.9099089000374,943.9099089000374,956.6309545000549,,,,956.6367036000593,956.647855999996,956.647855999996,956.6970159000484,956.6975147000048,956.7134221000597,956.7134221000597,956.7134221000597,956.7800374999642,957.1646742000012,,,,,,,,,,,,,,,,,,,,,,up,12.706890400033444,None,space,0.4374158000573516,None,P126,001,2025-02-27_11h26.48.587,posner_endo_new1,2024.2.4,60.17929820721984,2025-02-27 11h26.57.840674 +0000,
cube_r.png,0.1,0.31,valid,22,22,0,up,20.149031699984334,None,space,0.3666110000340268,None,,,,,,,,,0,22,22,22,957.1795920999721,,,,,,,,,,,,,957.1651166999945,957.1795920999721,957.1795920999721,957.1795920999721,977.3436833999585,,,,977.3548289999599,977.3652000000002,977.3652000000002,977.4091544999974,977.4095038999803,977.4258411000483,977.4258411000483,977.4258411000483,977.508933300036,977.7936306999763,,,,,,,,,,,,,,,,,,,,,,up,20.149031699984334,None,space,0.3666110000340268,None,P126,001,2025-02-27_11h26.48.587,posner_endo_new1,2024.2.4,60.17929820721984,2025-02-27 11h26.57.840674 +0000,
cube_r.png,0.1,-0.31,invalid,23,23,0,up,12.560391899896786,None,space,0.3965117000043392,None,,,,,,,,,0,23,23,23,977.8087172999512,,,,,,,,,,,,,977.7939290000359,977.8087172999512,977.8087172999512,977.8087172999512,990.3803463999648,,,,990.3914409000427,990.4017307000468,990.4017307000468,990.4459712000098,990.4463231000118,990.462382900063,990.462382900063,990.462382900063,990.5456958999857,990.8631724000443,,,,,,,,,,,,,,,,,,,,,,up,12.560391899896786,None,space,0.3965117000043392,None,P126,001,2025-02-27_11h26.48.587,posner_endo_new1,2024.2.4,60.17929820721984,2025-02-27 11h26.57.840674 +0000,
cube_r.png,0.1,0.31,valid,24,24,0,up,13.137615000014193,None,space,0.4156496999785304,None,,,,,,,,,0,24,24,24,990.8787253999617,,,,,,,,,,,,,990.8634633000474,990.8787253999617,990.8787253999617,990.8787253999617,1004.032708200044,,,,1004.0391125000315,1004.0515203999821,1004.0515203999821,1004.0987705000443,1004.0993087999523,1004.115098600043,1004.115098600043,1004.115098600043,1004.1983791999519,1004.5334931999678,,,,,,,,,,,,,,,,,,,,,,up,13.137615000014193,None,space,0.4156496999785304,None,P126,001,2025-02-27_11h26.48.587,posner_endo_new1,2024.2.4,60.17929820721984,2025-02-27 11h26.57.840674 +0000,
cube_r.png,0.1,-0.31,invalid,25,25,0,up,12.2929385000607,None,space,0.3047393999295309,None,,,,,,,,,0,25,25,25,1004.5480256000301,,,,,,,,,,,,,1004.533974800026,1004.5480256000301,1004.5480256000301,1004.5480256000301,1016.8539971000282,,,,1016.8717582999961,1016.8833643000107,1016.8833643000107,1016.918889899971,1016.9191733000334,1016.935336500057,1016.935336500057,1016.935336500057,1017.0186335999751,1017.2527027999749,,,,,,,,,,,,,,,,,,,,,,up,12.2929385000607,None,space,0.3047393999295309,None,P126,001,2025-02-27_11h26.48.587,posner_endo_new1,2024.2.4,60.17929820721984,2025-02-27 11h26.57.840674 +0000,
cube_l.png,0.1,-0.31,valid,26,26,0,up,13.012920500012115,None,space,0.3405727999052033,None,,,,,,,,,0,26,26,26,1017.2683379000518,,,,,,,,,,,,,1017.2529440999497,1017.2683379000518,1017.2683379000518,1017.2683379000518,1030.2903073000489,,,,1030.3080912999576,1030.3194130000193,1030.3194130000193,1030.3551693999907,1030.3554756999947,1030.3716920999577,1030.3716920999577,1030.3716920999577,1030.4549220000627,1030.722244100063,,,,,,,,,,,,,,,,,,,,,,up,13.012920500012115,None,space,0.3405727999052033,None,P126,001,2025-02-27_11h26.48.587,posner_endo_new1,2024.2.4,60.17929820721984,2025-02-27 11h26.57.840674 +0000,
cube_r.png,0.1,0.31,valid,27,27,0,up,12.623619900085032,None,space,0.3840053000021726,None,,,,,,,,,0,27,27,27,1030.7378906999948,,,,,,,,,,,,,1030.7225017000455,1030.7378906999948,1030.7378906999948,1030.7378906999948,1043.3770914999768,,,,1043.3949258000357,1043.406696400023,1043.406696400023,1043.4417183999904,1043.4420208999654,1043.4582507000305,1043.4582507000305,1043.4582507000305,1043.5415356999729,1043.8589761999901,,,,,,,,,,,,,,,,,,,,,,up,12.623619900085032,None,space,0.3840053000021726,None,P126,001,2025-02-27_11h26.48.587,posner_endo_new1,2024.2.4,60.17929820721984,2025-02-27 11h26.57.840674 +0000,
cube_r.png,0.1,10,catch,28,28,0,up,11.286323299980722,None,None,,,,,,,,,,,0,28,28,28,1043.874526700005,,,,,,,,,,,,,1043.8592316999566,1043.874526700005,1043.874526700005,1043.874526700005,1055.1648686999688,,,,1055.1829612000147,1055.1946651999606,1055.1946651999606,1055.2297331000445,1055.2300360000227,1055.246230400051,1055.246230400051,1055.246230400051,1055.3297739999834,1058.243720700033,,,,1057.344081899966,1058.259805800044,1058.259805800044,1058.259805800044,,,,,,,,,,,,,,,up,11.286323299980722,None,None,,,P126,001,2025-02-27_11h26.48.587,posner_endo_new1,2024.2.4,60.17929820721984,2025-02-27 11h26.57.840674 +0000,
cube_r.png,0.1,0.31,valid,29,29,0,up,12.669495299924165,None,space,0.32480949989985675,None,,,,,,,,,0,29,29,29,1058.259805800044,,,,,,,,,,,,,1058.2439674000489,1058.259805800044,1058.259805800044,1058.259805800044,1070.9316538999556,,,,1070.941338100005,1070.950956900022,1070.950956900022,1070.9970982000232,1070.9973423000192,1071.0135162000079,1071.0135162000079,1071.0135162000079,1071.0968367999885,1071.347452600021,,,,,,,,,,,,,,,,,,,,,,up,12.669495299924165,None,space,0.32480949989985675,None,P126,001,2025-02-27_11h26.48.587,posner_endo_new1,2024.2.4,60.17929820721984,2025-02-27 11h26.57.840674 +0000,
cube_r.png,0.1,0.31,valid,30,30,0,up,10.767052399925888,None,space,0.39608530001714826,None,,,,,,,,,0,30,30,30,1071.3632797000464,,,,,,,,,,,,,1071.3476398000494,1071.3632797000464,1071.3632797000464,1071.3632797000464,1082.1361772000091,,,,1082.1428310000338,1082.1546818000497,1082.1546818000497,1082.2021424999693,1082.2023784000194,1082.21883909998,1082.21883909998,1082.21883909998,1082.2855649000267,1082.6210935000563,,,,,,,,,,,,,,,,,,,,,,up,10.767052399925888,None,space,0.39608530001714826,None,P126,001,2025-02-27_11h26.48.587,posner_endo_new1,2024.2.4,60.17929820721984,2025-02-27 11h26.57.840674 +0000,
cube_l.png,0.1,-0.31,valid,31,31,0,up,10.437872000038624,None,space,0.4068840000545606,None,,,,,,,,,0,31,31,31,1082.6353445999557,,,,,,,,,,,,,1082.6216883000452,1082.6353445999557,1082.6353445999557,1082.6353445999557,1093.0769910999807,,,,1093.0990811999654,1093.1111887999577,1093.1111887999577,1093.1406270000152,1093.1410146000562,1093.1570797000313,1093.1570797000313,1093.1570797000313,1093.2403280000435,1093.5746708000079,,,,,,,,,,,,,,,,,,,,,,up,10.437872000038624,None,space,0.4068840000545606,None,P126,001,2025-02-27_11h26.48.587,posner_endo_new1,2024.2.4,60.17929820721984,2025-02-27 11h26.57.840674 +0000,
cube_r.png,0.1,0.31,valid,32,32,0,up,16.107255900045857,None,space,0.32978200004436076,None,,,,,,,,,0,32,32,32,1093.5899685999611,,,,,,,,,,,,,1093.575015899958,1093.5899685999611,1093.5899685999611,1093.5899685999611,1109.7099246999715,,,,1109.7309702000348,1109.7410556999967,1109.7410556999967,1109.7737525999546,1109.7741464000428,1109.790201200056,1109.790201200056,1109.790201200056,1109.87334619998,1110.1245673999656,,,,,,,,,,,,,,,,,,,,,,up,16.107255900045857,None,space,0.32978200004436076,None,P126,001,2025-02-27_11h26.48.587,posner_endo_new1,2024.2.4,60.17929820721984,2025-02-27 11h26.57.840674 +0000,
cube_r.png,0.1,-0.31,invalid,33,33,0,up,14.157529199961573,None,space,0.40200919995550066,None,,,,,,,,,0,33,33,33,1110.1397378999973,,,,,,,,,,,,,1110.1249034999637,1110.1397378999973,1110.1397378999973,1110.1397378999973,1124.3109793000622,,,,1124.3304906999692,1124.3420192999765,1124.3420192999765,1124.3757657000097,1124.3761081000557,1124.3921979999868,1124.3921979999868,1124.3921979999868,1124.4755269000307,1124.8097761999816,,,,,,,,,,,,,,,,,,,,,,up,14.157529199961573,None,space,0.40200919995550066,None,P126,001,2025-02-27_11h26.48.587,posner_endo_new1,2024.2.4,60.17929820721984,2025-02-27 11h26.57.840674 +0000,
cube_r.png,0.1,10,catch,34,34,0,up,12.519844199996442,None,None,,,,,,,,,,,0,34,34,34,1124.825534899952,,,,,,,,,,,,,1124.8100653999718,1124.825534899952,1124.825534899952,1124.825534899952,1137.3469605999999,,,,1137.358892200049,1137.3691966000479,1137.3691966000479,1137.412403400056,1137.4127453999827,1137.4289416000247,1137.4289416000247,1137.4289416000247,1137.5120876999572,1140.426663900027,,,,1139.5268343000207,1140.4425983000547,1140.4425983000547,1140.4425983000547,,,,,,,,,,,,,,,up,12.519844199996442,None,None,,,P126,001,2025-02-27_11h26.48.587,posner_endo_new1,2024.2.4,60.17929820721984,2025-02-27 11h26.57.840674 +0000,
cube_r.png,0.1,0.31,valid,35,35,0,up,7.750201600021683,None,space,0.34590339998248965,None,,,,,,,,,0,35,35,35,1140.4425983000547,,,,,,,,,,,,,1140.4269426000537,1140.4425983000547,1140.4425983000547,1140.4425983000547,1148.202108400059,,,,1148.2091126999585,1148.2210416999878,1148.2210416999878,1148.268064999953,1148.2682848999975,1148.2846166000236,1148.2846166000236,1148.2846166000236,1148.3511339999968,1148.6351250000298,,,,,,,,,,,,,,,,,,,,,,up,7.750201600021683,None,space,0.34590339998248965,None,P126,001,2025-02-27_11h26.48.587,posner_endo_new1,2024.2.4,60.17929820721984,2025-02-27 11h26.57.840674 +0000,
cube_r.png,0.1,-0.31,invalid,36,36,0,up,11.687121599912643,None,space,0.3689880999736488,None,,,,,,,,,0,36,36,36,1148.6506282000337,,,,,,,,,,,,,1148.6352967000566,1148.6506282000337,1148.6506282000337,1148.6506282000337,1160.3396983999992,,,,1160.3457103000255,1160.3574317999883,1160.3574317999883,1160.4056584000355,1160.405897299992,1160.4220558999805,1160.4220558999805,1160.4220558999805,1160.4886018000543,1160.8058033999987,,,,,,,,,,,,,,,,,,,,,,up,11.687121599912643,None,space,0.3689880999736488,None,P126,001,2025-02-27_11h26.48.587,posner_endo_new1,2024.2.4,60.17929820721984,2025-02-27 11h26.57.840674 +0000,
cube_l.png,0.1,0.31,invalid,37,37,0,up,12.49958709999919,None,space,0.3577796999597922,None,,,,,,,,,0,37,37,37,1160.8217377000256,,,,,,,,,,,,,1160.8059752000263,1160.8217377000256,1160.8217377000256,1160.8217377000256,1173.3271031000186,,,,1173.3360293000005,1173.346068499959,1173.346068499959,1173.3923638999695,1173.3926446000114,1173.408839300042,1173.408839300042,1173.408839300042,1173.4920971000101,1173.7761297000106,,,,,,,,,,,,,,,,,,,,,,up,12.49958709999919,None,space,0.3577796999597922,None,P126,001,2025-02-27_11h26.48.587,posner_endo_new1,2024.2.4,60.17929820721984,2025-02-27 11h26.57.840674 +0000,
cube_l.png,0.1,0.31,invalid,38,38,0,up,21.28975829994306,None,space,0.35769909992814064,None,,,,,,,,,0,38,38,38,1173.7916134999832,,,,,,,,,,,,,1173.7763668999542,1173.7916134999832,1173.7916134999832,1173.7916134999832,1195.0876686000265,,,,1195.0966181999538,1195.1067517000483,1195.1067517000483,1195.153465499985,1195.15374660003,1195.17006569996,1195.17006569996,1195.17006569996,1195.2531284999568,1195.5372136000078,,,,,,,,,,,,,,,,,,,,,,up,21.28975829994306,None,space,0.35769909992814064,None,P126,001,2025-02-27_11h26.48.587,posner_endo_new1,2024.2.4,60.17929820721984,2025-02-27 11h26.57.840674 +0000,
cube_r.png,0.1,0.31,valid,39,39,0,up,19.48041849990841,None,space,0.5441458999412134,None,,,,,,,,,0,39,39,39,1195.5528982999967,,,,,,,,,,,,,1195.537446500035,1195.5528982999967,1195.5528982999967,1195.5528982999967,1215.034301699954,,,,1215.0434384000255,1215.05344779999,1215.05344779999,1215.0997744000051,1215.1003168000607,1215.116210600012,1215.116210600012,1215.116210600012,1215.199476000038,1215.6677686000476,,,,,,,,,,,,,,,,,,,,,,up,19.48041849990841,None,space,0.5441458999412134,None,P126,001,2025-02-27_11h26.48.587,posner_endo_new1,2024.2.4,60.17929820721984,2025-02-27 11h26.57.840674 +0000,
cube_l.png,0.1,0.31,invalid,40,40,0,up,9.471147599979304,None,space,0.39818719995673746,None,,,,,,,,,0,40,40,40,1215.6823299999814,,,,,,,,,,,,,1215.668263599975,1215.6823299999814,1215.6823299999814,1215.6823299999814,1225.1581126999808,,,,1225.1770298000192,1225.1883983999724,1225.1883983999724,1225.2228286999743,1225.2233606999507,1225.2391670000507,1225.2391670000507,1225.2391670000507,1225.3224628999596,1225.6409740999807,,,,,,,,,,,,,,,,,,,,,,up,9.471147599979304,None,space,0.39818719995673746,None,P126,001,2025-02-27_11h26.48.587,posner_endo_new1,2024.2.4,60.17929820721984,2025-02-27 11h26.57.840674 +0000,
cube_l.png,0.1,10,catch,41,41,0,up,7.017559799947776,None,None,,,,,,,,,,,0,41,41,41,1225.655484399991,,,,,,,,,,,,,1225.6414744999493,1225.655484399991,1225.655484399991,1225.655484399991,1232.6836659000255,,,,1232.7024935999652,1232.71403370006,1232.71403370006,1232.7484562000027,1232.74901759997,1232.7648912000004,1232.7648912000004,1232.7648912000004,1232.8481270000339,1235.7630881000077,,,,1234.8627293000463,1235.7784396000206,1235.7784396000206,1235.7784396000206,,,,,,,,,,,,,,,up,7.017559799947776,None,None,,,P126,001,2025-02-27_11h26.48.587,posner_endo_new1,2024.2.4,60.17929820721984,2025-02-27 11h26.57.840674 +0000,
cube_l.png,0.1,-0.31,valid,42,42,0,up,10.158718599937856,None,space,0.3606186000397429,None,,,,,,,,,0,42,42,42,1235.7784396000206,,,,,,,,,,,,,1235.7635287999874,1235.7784396000206,1235.7784396000206,1235.7784396000206,1245.952590300003,,,,1245.9615247000474,1245.9714042999549,1245.9714042999549,1246.0181698000524,1246.0184041999746,1246.0347453999566,1246.0347453999566,1246.0347453999566,1246.1178646000335,1246.401779799955,,,,,,,,,,,,,,,,,,,,,,up,10.158718599937856,None,space,0.3606186000397429,None,P126,001,2025-02-27_11h26.48.587,posner_endo_new1,2024.2.4,60.17929820721984,2025-02-27 11h26.57.840674 +0000,
cube_l.png,0.1,10,catch,43,43,0,up,7.0393342999741435,None,None,,,,,,,,,,,0,43,43,43,1246.4175641000038,,,,,,,,,,,,,1246.4019644999644,1246.4175641000038,1246.4175641000038,1246.4175641000038,1253.4611524000065,,,,1253.4678456999827,1253.479643000057,1253.479643000057,1253.5271185999736,1253.5273593000602,1253.5437404999975,1253.5437404999975,1253.5437404999975,1253.6101018000627,1256.5411302000284,,,,1255.6248692000518,1256.5573097000597,1256.5573097000597,1256.5573097000597,,,,,,,,,,,,,,,up,7.0393342999741435,None,None,,,P126,001,2025-02-27_11h26.48.587,posner_endo_new1,2024.2.4,60.17929820721984,2025-02-27 11h26.57.840674 +0000,
cube_l.png,0.1,0.31,invalid,44,44,0,up,8.644296900019981,None,space,0.4509659999748692,None,,,,,,,,,0,44,44,44,1256.5573097000597,,,,,,,,,,,,,1256.5413126000203,1256.5573097000597,1256.5573097000597,1256.5573097000597,1265.2176270000637,,,,1265.2396314999787,1265.2513282999862,1265.2513282999862,1265.2818920999998,1265.2822282999987,1265.298290399951,1265.298290399951,1265.298290399951,1265.38162,1265.7657180000097,,,,,,,,,,,,,,,,,,,,,,up,8.644296900019981,None,space,0.4509659999748692,None,P126,001,2025-02-27_11h26.48.587,posner_endo_new1,2024.2.4,60.17929820721984,2025-02-27 11h26.57.840674 +0000,
cube_l.png,0.1,0.31,invalid,45,45,0,up,6.652797700022347,None,space,0.37797360005788505,None,,,,,,,,,0,45,45,45,1265.7810977000045,,,,,,,,,,,,,1265.766008400009,1265.7810977000045,1265.7810977000045,1265.7810977000045,1272.4436498000287,,,,1272.465663800016,1272.4779447000474,1272.4779447000474,1272.5073137000436,1272.5076653000433,1272.5238649999956,1272.5238649999956,1272.5238649999956,1272.607573700021,1272.9085420999909,,,,,,,,,,,,,,,,,,,,,,up,6.652797700022347,None,space,0.37797360005788505,None,P126,001,2025-02-27_11h26.48.587,posner_endo_new1,2024.2.4,60.17929820721984,2025-02-27 11h26.57.840674 +0000,
cube_r.png,0.1,0.31,valid,46,46,0,up,9.101240299991332,None,space,0.36482270003762096,None,,,,,,,,,0,46,46,46,1272.9238915999886,,,,,,,,,,,,,1272.908833900001,1272.9238915999886,1272.9238915999886,1272.9238915999886,1282.0340334000066,,,,1282.0559531999752,1282.0681064999662,1282.0681064999662,1282.0977310000453,1282.0981818999862,1282.1141403999645,1282.1141403999645,1282.1141403999645,1282.1974041999783,1282.4821142000146,,,,,,,,,,,,,,,,,,,,,,up,9.101240299991332,None,space,0.36482270003762096,None,P126,001,2025-02-27_11h26.48.587,posner_endo_new1,2024.2.4,60.17929820721984,2025-02-27 11h26.57.840674 +0000,
cube_l.png,0.1,-0.31,valid,47,47,0,up,10.296291100094095,None,space,0.3715501999249682,None,,,,,,,,,0,47,47,47,1282.4970790999942,,,,,,,,,,,,,1282.482496600016,1282.4970790999942,1282.4970790999942,1282.4970790999942,1292.8045812000055,,,,1292.813754600007,1292.824015900027,1292.824015900027,1292.8704383999575,1292.8707416000543,1292.8867942000506,1292.8867942000506,1292.8867942000506,1292.9700143999653,1293.270819599973,,,,,,,,,,,,,,,,,,,,,,up,10.296291100094095,None,space,0.3715501999249682,None,P126,001,2025-02-27_11h26.48.587,posner_endo_new1,2024.2.4,60.17929820721984,2025-02-27 11h26.57.840674 +0000,
cube_r.png,0.1,-0.31,invalid,48,48,0,up,8.610635000048205,None,space,0.37899750005453825,None,,,,,,,,,0,48,48,48,1293.2864536000416,,,,,,,,,,,,,1293.2710818999913,1293.2864536000416,1293.2864536000416,1293.2864536000416,1301.9116187000182,,,,1301.9174278000137,1301.9291538000107,1301.9291538000107,1301.9775246999925,1301.9777514999732,1301.994215899962,1301.994215899962,1301.994215899962,1302.0607360999566,1302.3779510000022,,,,,,,,,,,,,,,,,,,,,,up,8.610635000048205,None,space,0.37899750005453825,None,P126,001,2025-02-27_11h26.48.587,posner_endo_new1,2024.2.4,60.17929820721984,2025-02-27 11h26.57.840674 +0000,
cube_r.png,0.1,10,catch,49,49,0,up,7.831562199979089,None,None,,,,,,,,,,,0,49,49,49,1302.393865799997,,,,,,,,,,,,,1302.3781225000275,1302.393865799997,1302.393865799997,1302.393865799997,1310.236347900005,,,,1310.2421456000302,1310.253380900016,1310.253380900016,1310.3024379999842,1310.3029358000495,1310.3188233999535,1310.3188233999535,1310.3188233999535,1310.385445700027,1313.3166437000036,,,,1312.4001550000394,1313.332594400039,1313.332594400039,1313.332594400039,,,,,,,,,,,,,,,up,7.831562199979089,None,None,,,P126,001,2025-02-27_11h26.48.587,posner_endo_new1,2024.2.4,60.17929820721984,2025-02-27 11h26.57.840674 +0000,
cube_l.png,0.1,-0.31,valid,50,50,0,up,0.22865770000498742,None,space,0.4321356000145897,None,,,,,,,,,0,50,50,50,1313.332594400039,,,,,,,,,,,,,1313.3169139999663,1313.332594400039,1313.332594400039,1313.332594400039,1313.5667967000045,,,,1313.5777563999873,1313.5880524000386,1313.5880524000386,1313.6323428000323,1313.6326850999612,1313.6489194000605,1313.6489194000605,1313.6489194000605,1313.7322987000225,1314.0833621999482,,,,,,,,,,,,,,,,,,,,,,up,0.22865770000498742,None,space,0.4321356000145897,None,P126,001,2025-02-27_11h26.48.587,posner_endo_new1,2024.2.4,60.17929820721984,2025-02-27 11h26.57.840674 +0000,
cube_l.png,0.1,-0.31,valid,51,51,0,up,4.047371299937367,None,space,0.36026260000653565,None,,,,,,,,,0,51,51,51,1314.098446100019,,,,,,,,,,,,,1314.0836526999483,1314.098446100019,1314.098446100019,1314.098446100019,1318.162181199994,,,,1318.1715221999912,1318.1809477000497,1318.1809477000497,1318.2277636999497,1318.2280009000096,1318.2442789999768,1318.2442789999768,1318.2442789999768,1318.3278938999865,1318.6113362000324,,,,,,,,,,,,,,,,,,,,,,up,4.047371299937367,None,space,0.36026260000653565,None,P126,001,2025-02-27_11h26.48.587,posner_endo_new1,2024.2.4,60.17929820721984,2025-02-27 11h26.57.840674 +0000,
cube_r.png,0.1,-0.31,invalid,52,52,0,up,6.989907899987884,None,space,0.4331277000019327,None,,,,,,,,,0,52,52,52,1318.6272117999615,,,,,,,,,,,,,1318.6115242999513,1318.6272117999615,1318.6272117999615,1318.6272117999615,1325.6208762000315,,,,1325.6275950999698,1325.6396787000122,1325.6396787000122,1325.6867056000046,1325.6872225999832,1325.7031383999856,1325.7031383999856,1325.7031383999856,1325.7863468000432,1326.1380229999777,,,,,,,,,,,,,,,,,,,,,,up,6.989907899987884,None,space,0.4331277000019327,None,P126,001,2025-02-27_11h26.48.587,posner_endo_new1,2024.2.4,60.17929820721984,2025-02-27 11h26.57.840674 +0000,
cube_l.png,0.1,-0.31,valid,53,53,0,up,9.864382400061004,None,space,0.3178675000090152,None,,,,,,,,,0,53,53,53,1326.1526844999753,,,,,,,,,,,,,1326.138466399978,1326.1526844999753,1326.1526844999753,1326.1526844999753,1336.0272475000238,,,,1336.038400099962,1336.048706099973,1336.048706099973,1336.0928190000122,1336.093168499996,1336.109337999951,1336.109337999951,1336.109337999951,1336.1925414999714,1336.44348050002,,,,,,,,,,,,,,,,,,,,,,up,9.864382400061004,None,space,0.3178675000090152,None,P126,001,2025-02-27_11h26.48.587,posner_endo_new1,2024.2.4,60.17929820721984,2025-02-27 11h26.57.840674 +0000,
cube_r.png,0.1,10,catch,54,54,0,up,10.030156100052409,None,space,0.3110138999763876,None,,,,,,,,,0,54,54,54,1336.4589753999608,,,,,,,,,,,,,1336.4437709000194,1336.4589753999608,1336.4589753999608,1336.4589753999608,1346.4999622000614,,,,1346.5110533999978,1346.5212828000076,1346.5212828000076,1346.5655110999942,1346.5658517000265,1346.5819048000267,1346.5819048000267,1346.5819048000267,1346.6651594999712,1346.8993966999697,,,,,,,,,,,,,,,,,,,,,,up,10.030156100052409,None,space,0.3110138999763876,None,P126,001,2025-02-27_11h26.48.587,posner_endo_new1,2024.2.4,60.17929820721984,2025-02-27 11h26.57.840674 +0000,
cube_l.png,0.1,0.31,invalid,55,55,0,up,6.175717799924314,None,space,0.4143306000623852,None,,,,,,,,,0,55,55,55,1346.9150192999514,,,,,,,,,,,,,1346.8996860999614,1346.9150192999514,1346.9150192999514,1346.9150192999514,1353.093091799994,,,,1353.1042037999723,1353.1145309000276,1353.1145309000276,1353.1586938999826,1353.1590424999595,1353.1752954999683,1353.1752954999683,1353.1752954999683,1353.2584953999612,1353.5926961000077,,,,,,,,,,,,,,,,,,,,,,up,6.175717799924314,None,space,0.4143306000623852,None,P126,001,2025-02-27_11h26.48.587,posner_endo_new1,2024.2.4,60.17929820721984,2025-02-27 11h26.57.840674 +0000,
cube_l.png,0.1,-0.31,valid,56,56,0,up,5.985394499963149,None,space,0.41793660004623234,None,,,,,,,,,0,56,56,56,1353.6080659000436,,,,,,,,,,,,,1353.592983599985,1353.6080659000436,1353.6080659000436,1353.6080659000436,1359.6032086999621,,,,1359.6142963999882,1359.6246563000605,1359.6246563000605,1359.6687492000638,1359.6690954000223,1359.6852141000563,1359.6852141000563,1359.6852141000563,1359.7684687,1360.1193433000008,,,,,,,,,,,,,,,,,,,,,,up,5.985394499963149,None,space,0.41793660004623234,None,P126,001,2025-02-27_11h26.48.587,posner_endo_new1,2024.2.4,60.17929820721984,2025-02-27 11h26.57.840674 +0000,
cube_r.png,0.1,0.31,valid,57,57,0,up,7.066909500048496,None,space,0.31514249998144805,None,,,,,,,,,0,57,57,57,1360.1347794999601,,,,,,,,,,,,,1360.1196355000138,1360.1347794999601,1360.1347794999601,1360.1347794999601,1367.2121767000062,,,,1367.221642300021,1367.2313635000028,1367.2313635000028,1367.2778084999882,1367.2780630999478,1367.2942278999835,1367.2942278999835,1367.2942278999835,1367.3772909999825,1367.6112049999647,,,,,,,,,,,,,,,,,,,,,,up,7.066909500048496,None,space,0.31514249998144805,None,P126,001,2025-02-27_11h26.48.587,posner_endo_new1,2024.2.4,60.17929820721984,2025-02-27 11h26.57.840674 +0000,
cube_r.png,0.1,-0.31,invalid,58,58,0,up,3.2781530000502244,None,space,0.4011520999483764,None,,,,,,,,,0,58,58,58,1367.6273186999606,,,,,,,,,,,,,1367.6113950000145,1367.6273186999606,1367.6273186999606,1367.6273186999606,1370.9080276000313,,,,1370.9146528999554,1370.9266120999819,1370.9266120999819,1370.9737556000473,1370.973998200032,1370.9903201999841,1370.9903201999841,1370.9903201999841,1371.0736232000636,1371.407301499974,,,,,,,,,,,,,,,,,,,,,,up,3.2781530000502244,None,space,0.4011520999483764,None,P126,001,2025-02-27_11h26.48.587,posner_endo_new1,2024.2.4,60.17929820721984,2025-02-27 11h26.57.840674 +0000,
cube_l.png,0.1,0.31,invalid,59,59,0,up,3.498001200030558,None,space,0.3392659000819549,None,,,,,,,,,0,59,59,59,1371.4232049999991,,,,,,,,,,,,,1371.407487199991,1371.4232049999991,1371.4232049999991,1371.4232049999991,1374.9371866000583,,,,1374.9438280999893,1374.9557478999486,1374.9557478999486,1375.0030327000422,1375.0035264999606,1375.01941920002,1375.01941920002,1375.01941920002,1375.1026440999703,1375.370435800054,,,,,,,,,,,,,,,,,,,,,,up,3.498001200030558,None,space,0.3392659000819549,None,P126,001,2025-02-27_11h26.48.587,posner_endo_new1,2024.2.4,60.17929820721984,2025-02-27 11h26.57.840674 +0000,
