cue_img,cue_soa,target_x,trial,thisN,thisTrialN,thisRepN,key_control2.keys,key_control2.rt,key_control2.duration,key_resp.keys,key_resp.rt,key_resp.duration,practice.thisRepN,practice.thisTrialN,practice.thisN,practice.thisIndex,block1.thisRepN,block1.thisTrialN,block1.thisN,block1.thisIndex,block2.thisRepN,block2.thisTrialN,block2.thisN,block2.thisIndex,thisRow.t,notes,instructions.started,instructions_txt.started,key_control.started,instructions.stopped,key_control.keys,key_control.rt,key_control.duration,ready.started,ready_txt.started,ready_txt.stopped,ready.stopped,fix.started,fixation.started,key_control2.started,fixation_cross.started,fix.stopped,practice.key_control2.keys,practice.key_control2.rt,practice.key_control2.duration,cue.started,cube.started,fixation_cross_cue.started,cue.stopped,target.started,fixation_target.started,fixation_cross_target.started,key_resp.started,star.started,target.stopped,practice.key_resp.keys,practice.key_resp.rt,practice.key_resp.duration,star.stopped,fixation_target.stopped,fixation_cross_target.stopped,key_resp.stopped,block1.key_control2.keys,block1.key_control2.rt,block1.key_control2.duration,block1.key_resp.keys,block1.key_resp.rt,block1.key_resp.duration,break_2.started,text.started,key_control3.started,text.stopped,break_2.stopped,key_control3.keys,key_control3.rt,key_control3.duration,block2.key_control2.keys,block2.key_control2.rt,block2.key_control2.duration,block2.key_resp.keys,block2.key_resp.rt,block2.key_resp.duration,participant,session,date,expName,psychopyVersion,frameRate,expStart,
,,,,,,,,,,,,,,,,,,,,,,,,,,,0.007539600017480552,0.02399340004194528,0.02399340004194528,12.448873199988157,up,12.412866999977268,None,,,,,,,,,,,,,,,,,,,,,,,,,,,,,,,,,,,,,,,,,,,,,,,,,,P127,001,2025-02-27_14h16.54.501,posner_endo_new1,2024.2.4,59.99253694141748,2025-02-27 14h17.05.395311 +0000,
,,,,,,,,,,,,,,,,,,,,,,,,,,,,,,,,,,12.448917900095694,12.461921900045127,15.468193700071424,15.442653400008567,,,,,,,,,,,,,,,,,,,,,,,,,,,,,,,,,,,,,,,,,,,,,,P127,001,2025-02-27_14h16.54.501,posner_endo_new1,2024.2.4,59.99253694141748,2025-02-27 14h17.05.395311 +0000,
cube_l.png,0.1,-0.31,valid,0,0,0,up,13.19276139989961,None,space,0.5249655999941751,None,0,0,0,0,,,,,,,,,15.468193700071424,,,,,,,,,,,,,15.450859100092202,15.468193700071424,15.468193700071424,15.468193700071424,28.664898000075482,up,13.19276139989961,None,28.71023760002572,28.720803400035948,28.720803400035948,28.721011199988425,28.72131970000919,28.742679600021802,28.742679600021802,28.742679600021802,28.82848680007737,29.278822800028138,space,0.5249655999941751,None,,,,,,,,,,,,,,,,,,,,,,,,,P127,001,2025-02-27_14h16.54.501,posner_endo_new1,2024.2.4,59.99253694141748,2025-02-27 14h17.05.395311 +0000,
cube_l.png,0.1,0.31,invalid,1,1,0,up,1.8148266000207514,None,space,0.4869856999721378,None,0,1,1,1,,,,,,,,,29.294685600092635,,,,,,,,,,,,,29.279071500059217,29.294685600092635,29.294685600092635,29.294685600092635,31.112235700013116,up,1.8148266000207514,None,31.136170500074513,31.14815170003567,31.14815170003567,31.17621320008766,31.17652179999277,31.19273630005773,31.19273630005773,31.19273630005773,31.275995700038038,31.693276000092737,space,0.4869856999721378,None,,,,,,,,,,,,,,,,,,,,,,,,,P127,001,2025-02-27_14h16.54.501,posner_endo_new1,2024.2.4,59.99253694141748,2025-02-27 14h17.05.395311 +0000,
cube_r.png,0.1,-0.31,invalid,2,2,0,up,5.9681177999591455,None,space,0.4146898000035435,None,0,2,2,2,,,,,,,,,31.708872299990617,,,,,,,,,,,,,31.69351330003701,31.708872299990617,31.708872299990617,31.708872299990617,37.68917600007262,up,5.9681177999591455,None,37.71108070004266,37.72153209999669,37.72153209999669,37.752560700057074,37.75300140003674,37.76902790006716,37.76902790006716,37.76902790006716,37.85226360009983,38.1869893000694,space,0.4146898000035435,None,,,,,,,,,,,,,,,,,,,,,,,,,P127,001,2025-02-27_14h16.54.501,posner_endo_new1,2024.2.4,59.99253694141748,2025-02-27 14h17.05.395311 +0000,
cube_r.png,0.1,10,catch,3,3,0,up,2.811540700029582,None,None,,,0,3,3,3,,,,,,,,,38.20190560002811,,,,,,,,,,,,,38.18733360001352,38.20190560002811,38.20190560002811,38.20190560002811,41.017172000021674,up,2.811540700029582,None,41.02565580001101,41.03569809999317,41.03569809999317,41.08284490008373,41.08312740002293,41.09931150008924,41.09931150008924,41.09931150008924,41.18250380002428,44.09675360005349,None,,,43.197082000086084,44.11285040003713,44.11285040003713,44.11285040003713,,,,,,,,,,,,,,,,,,,,,P127,001,2025-02-27_14h16.54.501,posner_endo_new1,2024.2.4,59.99253694141748,2025-02-27 14h17.05.395311 +0000,
cube_l.png,0.1,-0.31,valid,4,4,0,up,0.8928768000332639,None,space,0.3734841999830678,None,0,4,4,4,,,,,,,,,44.11285040003713,,,,,,,,,,,,,44.09695640008431,44.11285040003713,44.11285040003713,44.11285040003713,45.0129684000276,up,0.8928768000332639,None,45.0216769000981,45.03179090004414,45.03179090004414,45.0786862000823,45.07897320005577,45.09516660007648,45.09516660007648,45.09516660007648,45.17844749998767,45.47903630009387,space,0.3734841999830678,None,,,,,,,,,,,,,,,,,,,,,,,,,P127,001,2025-02-27_14h16.54.501,posner_endo_new1,2024.2.4,59.99253694141748,2025-02-27 14h17.05.395311 +0000,
cube_l.png,0.1,0.31,invalid,5,5,0,up,5.414297300041653,None,space,0.394292899989523,None,0,5,5,5,,,,,,,,,45.49485400004778,,,,,,,,,,,,,45.47925450000912,45.49485400004778,45.49485400004778,45.49485400004778,50.92352700000629,up,5.414297300041653,None,50.932065900065936,50.942267700098455,50.942267700098455,50.98933010001201,50.9896132000722,51.00582590000704,51.00582590000704,51.00582590000704,51.08899250009563,51.4063949000556,space,0.394292899989523,None,,,,,,,,,,,,,,,,,,,,,,,,,P127,001,2025-02-27_14h16.54.501,posner_endo_new1,2024.2.4,59.99253694141748,2025-02-27 14h17.05.395311 +0000,
cube_r.png,0.1,-0.31,invalid,6,6,0,up,5.350840800092556,None,space,0.36159119999501854,None,0,6,6,6,,,,,,,,,51.42207990004681,,,,,,,,,,,,,51.40661090007052,51.42207990004681,51.42207990004681,51.42207990004681,56.78413420007564,up,5.350840800092556,None,56.796718200086616,56.80690050008707,56.80690050008707,56.849602100090124,56.85001829999965,56.86607530002948,56.86607530002948,56.86607530002948,56.949320400017314,57.23397569998633,space,0.36159119999501854,None,,,,,,,,,,,,,,,,,,,,,,,,,P127,001,2025-02-27_14h16.54.501,posner_endo_new1,2024.2.4,59.99253694141748,2025-02-27 14h17.05.395311 +0000,
cube_r.png,0.1,0.31,valid,7,7,0,up,3.8362616000231355,None,space,0.30098389997147024,None,0,7,7,7,,,,,,,,,57.24900619999971,,,,,,,,,,,,,57.234281999990344,57.24900619999971,57.24900619999971,57.24900619999971,61.09643080004025,up,3.8362616000231355,None,61.108966700034216,61.11907210003119,61.11907210003119,61.161864100024104,61.162251500063576,61.178338700090535,61.178338700090535,61.178338700090535,61.26158430008218,61.496005800087005,space,0.30098389997147024,None,,,,,,,,,,,,,,,,,,,,,,,,,P127,001,2025-02-27_14h16.54.501,posner_endo_new1,2024.2.4,59.99253694141748,2025-02-27 14h17.05.395311 +0000,
cube_l.png,0.1,-0.31,valid,8,8,0,up,5.2463149999966845,None,space,0.31161900004372,None,0,8,8,8,,,,,,,,,61.51131830003578,,,,,,,,,,,,,61.496316400007345,61.51131830003578,61.51131830003578,61.51131830003578,66.77390910009854,up,5.2463149999966845,None,66.78647080005612,66.79616910009645,66.79616910009645,66.83940060005989,66.83981720008887,66.85586860007606,66.85586860007606,66.85586860007606,66.93910990003496,67.17379650007933,space,0.31161900004372,None,,,,,,,,,,,,,,,,,,,,,,,,,P127,001,2025-02-27_14h16.54.501,posner_endo_new1,2024.2.4,59.99253694141748,2025-02-27 14h17.05.395311 +0000,
cube_r.png,0.1,-0.31,invalid,9,9,0,up,4.784885699977167,None,space,0.3574167999904603,None,0,9,9,9,,,,,,,,,67.18885270005558,,,,,,,,,,,,,67.17410440009553,67.18885270005558,67.18885270005558,67.18885270005558,71.98527629999444,up,4.784885699977167,None,71.99771920009516,72.00779440009501,72.00779440009501,72.05073740007356,72.05112200009171,72.06720839999616,72.06720839999616,72.06720839999616,72.15046420006547,72.43484360002913,space,0.3574167999904603,None,,,,,,,,,,,,,,,,,,,,,,,,,P127,001,2025-02-27_14h16.54.501,posner_endo_new1,2024.2.4,59.99253694141748,2025-02-27 14h17.05.395311 +0000,
cube_r.png,0.1,0.31,valid,10,10,0,up,4.844409700017422,None,space,0.3898094999603927,None,0,10,10,10,,,,,,,,,72.4501538000768,,,,,,,,,,,,,72.43514790001791,72.4501538000768,72.4501538000768,72.4501538000768,77.29673200007528,up,4.844409700017422,None,77.30495590006467,77.3149486000184,77.3149486000184,77.36230450007133,77.36280580004677,77.37872530007735,77.37872530007735,77.37872530007735,77.46198530006222,77.78017340006772,space,0.3898094999603927,None,,,,,,,,,,,,,,,,,,,,,,,,,P127,001,2025-02-27_14h16.54.501,posner_endo_new1,2024.2.4,59.99253694141748,2025-02-27 14h17.05.395311 +0000,
,,,,,,,,,,,,,,,,,,,,,,,,,,,,,,,,,,77.78044420003425,77.79489720007405,80.82793650007807,80.7761389000807,,,,,,,,,,,,,,,,,,,,,,,,,,,,,,,,,,,,,,,,,,,,,,P127,001,2025-02-27_14h16.54.501,posner_endo_new1,2024.2.4,59.99253694141748,2025-02-27 14h17.05.395311 +0000,
cube_l.png,0.1,10,catch,0,0,0,up,11.440900799934752,None,None,,,,,,,0,0,0,0,,,,,80.82793650007807,,,,,,,,,,,,,80.81841050006915,80.82793650007807,80.82793650007807,80.82793650007807,92.28103690000717,,,,92.28900630003773,92.30005990003701,92.30005990003701,92.34709110006224,92.34735520009417,92.36352380004246,92.36352380004246,92.36352380004246,92.4301848000614,95.36101069999859,,,,94.44476890005171,95.37721390009392,95.37721390009392,95.37721390009392,up,11.440900799934752,None,None,,,,,,,,,,,,,,,,,P127,001,2025-02-27_14h16.54.501,posner_endo_new1,2024.2.4,59.99253694141748,2025-02-27 14h17.05.395311 +0000,
cube_l.png,0.1,10,catch,1,1,0,up,1.2681931999977678,None,None,,,,,,,0,1,1,1,,,,,95.37721390009392,,,,,,,,,,,,,95.36120280006435,95.37721390009392,95.37721390009392,95.37721390009392,96.66001230000984,,,,96.66761890007183,96.67888670007233,96.67888670007233,96.72587500000373,96.72613580001052,96.7424488000106,96.7424488000106,96.7424488000106,96.8089922000654,99.7399309000466,,,,98.82360950007569,99.75603370007593,99.75603370007593,99.75603370007593,up,1.2681931999977678,None,None,,,,,,,,,,,,,,,,,P127,001,2025-02-27_14h16.54.501,posner_endo_new1,2024.2.4,59.99253694141748,2025-02-27 14h17.05.395311 +0000,
cube_l.png,0.1,0.31,invalid,2,2,0,up,3.281173099996522,None,space,0.5311083999695256,None,,,,,0,2,2,2,,,,,99.75603370007593,,,,,,,,,,,,,99.74012550001498,99.75603370007593,99.75603370007593,99.75603370007593,103.05347970000003,,,,103.06115329999011,103.07232630008366,103.07232630008366,103.1192449000664,103.1195057000732,103.13589959999081,103.13589959999081,103.13589959999081,103.21910570003092,103.66970670002047,,,,,,,,up,3.281173099996522,None,space,0.5311083999695256,None,,,,,,,,,,,,,,,P127,001,2025-02-27_14h16.54.501,posner_endo_new1,2024.2.4,59.99253694141748,2025-02-27 14h17.05.395311 +0000,
cube_l.png,0.1,0.31,invalid,3,3,0,up,4.984025999903679,None,space,0.48164529993664473,None,,,,,0,3,3,3,,,,,103.68527350004297,,,,,,,,,,,,,103.66992310003843,103.68527350004297,103.68527350004297,103.68527350004297,108.68109870003536,,,,108.68877510004677,108.70007680007257,108.70007680007257,108.747067600023,108.74729500000831,108.76339590002317,108.76339590002317,108.76339590002317,108.84683580009732,109.24697219999507,,,,,,,,up,4.984025999903679,None,space,0.48164529993664473,None,,,,,,,,,,,,,,,P127,001,2025-02-27_14h16.54.501,posner_endo_new1,2024.2.4,59.99253694141748,2025-02-27 14h17.05.395311 +0000,
cube_l.png,0.1,-0.31,valid,4,4,0,up,3.598479599924758,None,space,0.4026681000832468,None,,,,,0,4,4,4,,,,,109.26309770008083,,,,,,,,,,,,,109.24715200008359,109.26309770008083,109.26309770008083,109.26309770008083,112.87665370001923,,,,112.88250750000589,112.89403950003907,112.89403950003907,112.94266800000332,112.94289010006469,112.95914650009945,112.95914650009945,112.95914650009945,113.02574930002447,113.3762155000586,,,,,,,,up,3.598479599924758,None,space,0.4026681000832468,None,,,,,,,,,,,,,,,P127,001,2025-02-27_14h16.54.501,posner_endo_new1,2024.2.4,59.99253694141748,2025-02-27 14h17.05.395311 +0000,
cube_r.png,0.1,-0.31,invalid,5,5,0,up,4.965410900069401,None,space,0.26897549990098923,None,,,,,0,5,5,5,,,,,113.39210709999315,,,,,,,,,,,,,113.37638480006717,113.39210709999315,113.39210709999315,113.39210709999315,118.3711772999959,,,,118.37702890008222,118.38871620001737,118.38871620001737,118.43704560003243,118.43726949999109,118.4535294000525,118.4535294000525,118.4535294000525,118.53685390006285,118.73736000002827,,,,,,,,up,4.965410900069401,None,space,0.26897549990098923,None,,,,,,,,,,,,,,,P127,001,2025-02-27_14h16.54.501,posner_endo_new1,2024.2.4,59.99253694141748,2025-02-27 14h17.05.395311 +0000,
cube_r.png,0.1,0.31,valid,6,6,0,up,4.859715099912137,None,space,0.40036100009456277,None,,,,,0,6,6,6,,,,,118.75335780007299,,,,,,,,,,,,,118.73753610008862,118.75335780007299,118.75335780007299,118.75335780007299,123.61568520008586,,,,123.62158790009562,123.6330684000859,123.6330684000859,123.68166460003704,123.68216630001552,123.69808510004077,123.69808510004077,123.69808510004077,123.78130560007412,124.11592350003775,,,,,,,,up,4.859715099912137,None,space,0.40036100009456277,None,,,,,,,,,,,,,,,P127,001,2025-02-27_14h16.54.501,posner_endo_new1,2024.2.4,59.99253694141748,2025-02-27 14h17.05.395311 +0000,
cube_r.png,0.1,-0.31,invalid,7,7,0,up,11.778293099952862,None,space,0.4539773999713361,None,,,,,0,7,7,7,,,,,124.13098330004141,,,,,,,,,,,,,124.11636099999305,124.13098330004141,124.13098330004141,124.13098330004141,135.9202484000707,,,,135.93158330000006,135.9418655000627,135.9418655000627,135.985804200056,135.9861512000207,136.00230900000315,136.00230900000315,136.00230900000315,136.08555389998946,136.46974500000942,,,,,,,,up,11.778293099952862,None,space,0.4539773999713361,None,,,,,,,,,,,,,,,P127,001,2025-02-27_14h16.54.501,posner_endo_new1,2024.2.4,59.99253694141748,2025-02-27 14h17.05.395311 +0000,
cube_l.png,0.1,-0.31,valid,8,8,0,up,5.783759500016458,None,space,0.3637114999582991,None,,,,,0,8,8,8,,,,,136.4851853,,,,,,,,,,,,,136.47003160009626,136.4851853,136.4851853,136.4851853,142.28042690001894,,,,142.29159999999683,142.3020193000557,142.3020193000557,142.34599689999595,142.34634020004887,142.36251200002152,142.36251200002152,142.36251200002152,142.44566580001265,142.72996250004508,,,,,,,,up,5.783759500016458,None,space,0.3637114999582991,None,,,,,,,,,,,,,,,P127,001,2025-02-27_14h16.54.501,posner_endo_new1,2024.2.4,59.99253694141748,2025-02-27 14h17.05.395311 +0000,
cube_r.png,0.1,-0.31,invalid,9,9,0,up,5.70003429998178,None,space,0.3071646000025794,None,,,,,0,9,9,9,,,,,142.74548360006884,,,,,,,,,,,,,142.73026109999046,142.74548360006884,142.74548360006884,142.74548360006884,148.45747740007937,,,,148.46864540001843,148.47907120001037,148.47907120001037,148.52304120000917,148.5233829000499,148.53937760007102,148.53937760007102,148.53937760007102,148.62272250000387,148.8570589000592,,,,,,,,up,5.70003429998178,None,space,0.3071646000025794,None,,,,,,,,,,,,,,,P127,001,2025-02-27_14h16.54.501,posner_endo_new1,2024.2.4,59.99253694141748,2025-02-27 14h17.05.395311 +0000,
cube_l.png,0.1,0.31,invalid,10,10,0,up,4.973642299999483,None,space,0.5277409000555053,None,,,,,0,10,10,10,,,,,148.87241469998844,,,,,,,,,,,,,148.85734600003343,148.87241469998844,148.87241469998844,148.87241469998844,153.85210310004186,,,,153.86326660006307,153.87374940002337,153.87374940002337,153.91752860008273,153.91788399999496,153.93410100007895,153.93410100007895,153.93410100007895,154.0172703000717,154.46800730004907,,,,,,,,up,4.973642299999483,None,space,0.5277409000555053,None,,,,,,,,,,,,,,,P127,001,2025-02-27_14h16.54.501,posner_endo_new1,2024.2.4,59.99253694141748,2025-02-27 14h17.05.395311 +0000,
cube_r.png,0.1,-0.31,invalid,11,11,0,up,5.201979300007224,None,space,0.44816399994306266,None,,,,,0,11,11,11,,,,,154.48348460008856,,,,,,,,,,,,,154.468294100021,154.48348460008856,154.48348460008856,154.48348460008856,159.69583440001588,,,,159.7070207000943,159.71726589999162,159.71726589999162,159.7616608000826,159.7620012999978,159.77803130005486,159.77803130005486,159.77803130005486,159.86135570006445,160.22888519999105,,,,,,,,up,5.201979300007224,None,space,0.44816399994306266,None,,,,,,,,,,,,,,,P127,001,2025-02-27_14h16.54.501,posner_endo_new1,2024.2.4,59.99253694141748,2025-02-27 14h17.05.395311 +0000,
cube_r.png,0.1,0.31,valid,12,12,0,up,4.785533500020392,None,space,0.3900534000713378,None,,,,,0,12,12,12,,,,,160.24424850009382,,,,,,,,,,,,,160.22918870009016,160.24424850009382,160.24424850009382,160.24424850009382,165.04069890000392,,,,165.05183110001963,165.06212970009074,165.06212970009074,165.1061417000601,165.10648190008942,165.12252340000123,165.12252340000123,165.12252340000123,165.2059167000698,165.52338720008265,,,,,,,,up,4.785533500020392,None,space,0.3900534000713378,None,,,,,,,,,,,,,,,P127,001,2025-02-27_14h16.54.501,posner_endo_new1,2024.2.4,59.99253694141748,2025-02-27 14h17.05.395311 +0000,
cube_l.png,0.1,10,catch,13,13,0,up,4.938198399962857,None,None,,,,,,,0,13,13,13,,,,,165.53888990008272,,,,,,,,,,,,,165.52367430005688,165.53888990008272,165.53888990008272,165.53888990008272,170.48491220001597,,,,170.49375030002557,170.5034305000445,170.5034305000445,170.5505500000436,170.55077590001747,170.56697010004427,170.56697010004427,170.56697010004427,170.65034860000014,173.56430580001324,,,,172.66485150007065,173.58068360004108,173.58068360004108,173.58068360004108,up,4.938198399962857,None,None,,,,,,,,,,,,,,,,,P127,001,2025-02-27_14h16.54.501,posner_endo_new1,2024.2.4,59.99253694141748,2025-02-27 14h17.05.395311 +0000,
cube_r.png,0.1,-0.31,invalid,14,14,0,up,2.929201600025408,None,space,0.47700080007780343,None,,,,,0,14,14,14,,,,,173.58068360004108,,,,,,,,,,,,,173.56446600006893,173.58068360004108,173.58068360004108,173.58068360004108,176.51190859999042,,,,176.52093370002694,176.53063080005813,176.53063080005813,176.57775550009683,176.57797890005168,176.59418900008313,176.59418900008313,176.59418900008313,176.6774591000285,177.07783690001816,,,,,,,,up,2.929201600025408,None,space,0.47700080007780343,None,,,,,,,,,,,,,,,P127,001,2025-02-27_14h16.54.501,posner_endo_new1,2024.2.4,59.99253694141748,2025-02-27 14h17.05.395311 +0000,
cube_l.png,0.1,-0.31,valid,15,15,0,up,4.361270900000818,None,space,0.4178771000588313,None,,,,,0,15,15,15,,,,,177.0936778000323,,,,,,,,,,,,,177.07801900000777,177.0936778000323,177.0936778000323,177.0936778000323,181.4568424000172,,,,181.46303069998976,181.47484889999032,181.47484889999032,181.5224862000905,181.52270830003545,181.53905670007225,181.53905670007225,181.53905670007225,181.62236220005434,181.9727525000926,,,,,,,,up,4.361270900000818,None,space,0.4178771000588313,None,,,,,,,,,,,,,,,P127,001,2025-02-27_14h16.54.501,posner_endo_new1,2024.2.4,59.99253694141748,2025-02-27 14h17.05.395311 +0000,
cube_r.png,0.1,10,catch,16,16,0,up,5.44932189991232,None,None,,,,,,,0,16,16,16,,,,,181.9886650000699,,,,,,,,,,,,,181.97292229998857,181.9886650000699,181.9886650000699,181.9886650000699,187.4514671000652,,,,187.46791350003332,187.47893520002253,187.47893520002253,187.516449799994,187.51678110007197,187.53306660009548,187.53306660009548,187.53306660009548,187.61631960002705,190.53086460009217,,,,189.63088290009182,190.54646039998624,190.54646039998624,190.54646039998624,up,5.44932189991232,None,None,,,,,,,,,,,,,,,,,P127,001,2025-02-27_14h16.54.501,posner_endo_new1,2024.2.4,59.99253694141748,2025-02-27 14h17.05.395311 +0000,
cube_r.png,0.1,10,catch,17,17,0,up,2.1070206998847425,None,None,,,,,,,0,17,17,17,,,,,190.54646039998624,,,,,,,,,,,,,190.5312604000792,190.54646039998624,190.54646039998624,190.54646039998624,192.66241320001427,,,,192.67375970003195,192.68417130003218,192.68417130003218,192.72788340004627,192.72822570009157,192.74430840008426,192.74430840008426,192.74430840008426,192.82762380002532,195.74188380001578,,,,194.84213880007155,195.75799240008928,195.75799240008928,195.75799240008928,up,2.1070206998847425,None,None,,,,,,,,,,,,,,,,,P127,001,2025-02-27_14h16.54.501,posner_endo_new1,2024.2.4,59.99253694141748,2025-02-27 14h17.05.395311 +0000,
cube_l.png,0.1,0.31,invalid,18,18,0,up,1.935866600018926,None,space,0.5364644000073895,None,,,,,0,18,18,18,,,,,195.75799240008928,,,,,,,,,,,,,195.7421588000143,195.75799240008928,195.75799240008928,195.75799240008928,197.70721120003145,,,,197.71844540000893,197.7289296000963,197.7289296000963,197.77273450000212,197.7730779000558,197.78925000003073,197.78925000003073,197.78925000003073,197.87245550006628,198.33974500000477,,,,,,,,up,1.935866600018926,None,space,0.5364644000073895,None,,,,,,,,,,,,,,,P127,001,2025-02-27_14h16.54.501,posner_endo_new1,2024.2.4,59.99253694141748,2025-02-27 14h17.05.395311 +0000,
cube_l.png,0.1,10,catch,19,19,0,up,5.025956999976188,None,None,,,,,,,0,19,19,19,,,,,198.35526870004833,,,,,,,,,,,,,198.340028500068,198.35526870004833,198.35526870004833,198.35526870004833,203.38481140008662,,,,203.39601420005783,203.40637900005095,203.40637900005095,203.45018060004804,203.45052670000587,203.4667322000023,203.4667322000023,203.4667322000023,203.5499329000013,206.4643175000092,,,,205.56460829998832,206.48023820004892,206.48023820004892,206.48023820004892,up,5.025956999976188,None,None,,,,,,,,,,,,,,,,,P127,001,2025-02-27_14h16.54.501,posner_endo_new1,2024.2.4,59.99253694141748,2025-02-27 14h17.05.395311 +0000,
cube_l.png,0.1,0.31,invalid,20,20,0,up,2.373894799966365,None,space,0.4776666999096051,None,,,,,0,20,20,20,,,,,206.48023820004892,,,,,,,,,,,,,206.46458390005864,206.48023820004892,206.48023820004892,206.48023820004892,208.8625188000733,,,,208.87385610002093,208.88423249998596,208.88423249998596,208.92806750000454,208.9284154000925,208.94446510006674,208.94446510006674,208.94446510006674,209.02780780009925,209.4285416000057,,,,,,,,up,2.373894799966365,None,space,0.4776666999096051,None,,,,,,,,,,,,,,,P127,001,2025-02-27_14h16.54.501,posner_endo_new1,2024.2.4,59.99253694141748,2025-02-27 14h17.05.395311 +0000,
cube_l.png,0.1,-0.31,valid,21,21,0,up,3.7611435999860987,None,space,0.536127100000158,None,,,,,0,21,21,21,,,,,209.44404570001643,,,,,,,,,,,,,209.42883790004998,209.44404570001643,209.44404570001643,209.44404570001643,213.20794180000667,,,,213.21904460003134,213.22939510003198,213.22939510003198,213.27392410009634,213.27427210006863,213.2900162000442,213.2900162000442,213.2900162000442,213.37329990009312,213.84072279999964,,,,,,,,up,3.7611435999860987,None,space,0.536127100000158,None,,,,,,,,,,,,,,,P127,001,2025-02-27_14h16.54.501,posner_endo_new1,2024.2.4,59.99253694141748,2025-02-27 14h17.05.395311 +0000,
cube_r.png,0.1,0.31,valid,22,22,0,up,6.5089449000079185,None,space,0.3845838999841362,None,,,,,0,22,22,22,,,,,213.85618840006646,,,,,,,,,,,,,213.8410184000386,213.85618840006646,213.85618840006646,213.85618840006646,220.36746760003734,,,,220.37864270003047,220.38898670009803,220.38898670009803,220.43285370001104,220.43320020008832,220.44944060000125,220.44944060000125,220.44944060000125,220.53261100000236,220.85025460005272,,,,,,,,up,6.5089449000079185,None,space,0.3845838999841362,None,,,,,,,,,,,,,,,P127,001,2025-02-27_14h16.54.501,posner_endo_new1,2024.2.4,59.99253694141748,2025-02-27 14h17.05.395311 +0000,
cube_r.png,0.1,-0.31,invalid,23,23,0,up,2.5653878999873996,None,space,0.3774333999026567,None,,,,,0,23,23,23,,,,,220.86564460000955,,,,,,,,,,,,,220.85053960001096,220.86564460000955,220.86564460000955,220.86564460000955,223.44761060003657,,,,223.45870610000566,223.46878690004814,223.46878690004814,223.51300780009478,223.51335090002976,223.5295913000591,223.5295913000591,223.5295913000591,223.61282640008722,223.9139109000098,,,,,,,,up,2.5653878999873996,None,space,0.3774333999026567,None,,,,,,,,,,,,,,,P127,001,2025-02-27_14h16.54.501,posner_endo_new1,2024.2.4,59.99253694141748,2025-02-27 14h17.05.395311 +0000,
cube_r.png,0.1,0.31,valid,24,24,0,up,6.404144100029953,None,space,0.394570600008592,None,,,,,0,24,24,24,,,,,223.92914980009664,,,,,,,,,,,,,223.91420390002895,223.92914980009664,223.92914980009664,223.92914980009664,230.34050400007982,,,,230.35176660004072,230.36200369999278,230.36200369999278,230.40611000009812,230.40645800007042,230.42250820004847,230.42250820004847,230.42250820004847,230.50576239998918,230.82325120002497,,,,,,,,up,6.404144100029953,None,space,0.394570600008592,None,,,,,,,,,,,,,,,P127,001,2025-02-27_14h16.54.501,posner_endo_new1,2024.2.4,59.99253694141748,2025-02-27 14h17.05.395311 +0000,
cube_r.png,0.1,-0.31,invalid,25,25,0,up,5.534945499966852,None,space,0.5345970999915153,None,,,,,0,25,25,25,,,,,230.8388200000627,,,,,,,,,,,,,230.82353610009886,230.8388200000627,230.8388200000627,230.8388200000627,236.38376190001145,,,,236.38999420008622,236.40171780006494,236.40171780006494,236.44977669999935,236.45027860009577,236.46618490002584,236.46618490002584,236.46618490002584,236.54945030005183,237.01738860004116,,,,,,,,up,5.534945499966852,None,space,0.5345970999915153,None,,,,,,,,,,,,,,,P127,001,2025-02-27_14h16.54.501,posner_endo_new1,2024.2.4,59.99253694141748,2025-02-27 14h17.05.395311 +0000,
cube_l.png,0.1,-0.31,valid,26,26,0,up,3.3171432999661192,None,space,0.3768022999865934,None,,,,,0,26,26,26,,,,,237.03226540004835,,,,,,,,,,,,,237.0178211000748,237.03226540004835,237.03226540004835,237.03226540004835,240.36339660000522,,,,240.37391730002128,240.38424050004687,240.38424050004687,240.42920540005434,240.42954540008213,240.44557530002203,240.44557530002203,240.44557530002203,240.5288255000487,240.82968070008792,,,,,,,,up,3.3171432999661192,None,space,0.3768022999865934,None,,,,,,,,,,,,,,,P127,001,2025-02-27_14h16.54.501,posner_endo_new1,2024.2.4,59.99253694141748,2025-02-27 14h17.05.395311 +0000,
cube_r.png,0.1,0.31,valid,27,27,0,up,4.760673200013116,None,space,0.36140059994067997,None,,,,,0,27,27,27,,,,,240.84522980009206,,,,,,,,,,,,,240.82995849999133,240.84522980009206,240.84522980009206,240.84522980009206,245.6080432999879,,,,245.61876330000814,245.62895909999497,245.62895909999497,245.67385650007054,245.67419960000552,245.69030470005237,245.69030470005237,245.69030470005237,245.77385630004574,246.05782530002762,,,,,,,,up,4.760673200013116,None,space,0.36140059994067997,None,,,,,,,,,,,,,,,P127,001,2025-02-27_14h16.54.501,posner_endo_new1,2024.2.4,59.99253694141748,2025-02-27 14h17.05.395311 +0000,
cube_r.png,0.1,10,catch,28,28,0,up,7.052653699996881,None,None,,,,,,,0,28,28,28,,,,,246.07332120009232,,,,,,,,,,,,,246.05809940001927,246.07332120009232,246.07332120009232,246.07332120009232,253.1339896999998,,,,253.14301430003252,253.15277310006786,253.15277310006786,253.19929270003922,253.19953250000253,253.21573639998678,253.21573639998678,253.21573639998678,253.2992638000287,256.21336840000004,,,,255.3138335000258,256.229460200062,256.229460200062,256.229460200062,up,7.052653699996881,None,None,,,,,,,,,,,,,,,,,P127,001,2025-02-27_14h16.54.501,posner_endo_new1,2024.2.4,59.99253694141748,2025-02-27 14h17.05.395311 +0000,
cube_r.png,0.1,0.31,valid,29,29,0,up,1.176000399980694,None,space,0.35406190005596727,None,,,,,0,29,29,29,,,,,256.229460200062,,,,,,,,,,,,,256.2135406000307,256.229460200062,256.229460200062,256.229460200062,257.4121206999989,,,,257.4188342000125,257.43049850000534,257.43049850000534,257.47823290003,257.4784704000922,257.494786700001,257.494786700001,257.494786700001,257.56151230004616,257.8620417000493,,,,,,,,up,1.176000399980694,None,space,0.35406190005596727,None,,,,,,,,,,,,,,,P127,001,2025-02-27_14h16.54.501,posner_endo_new1,2024.2.4,59.99253694141748,2025-02-27 14h17.05.395311 +0000,
cube_r.png,0.1,0.31,valid,30,30,0,up,3.416033699992113,None,space,0.3687570000765845,None,,,,,0,30,30,30,,,,,257.87790870002937,,,,,,,,,,,,,257.86223199998494,257.87790870002937,257.87790870002937,257.87790870002937,261.30848160001915,,,,261.3151688000653,261.3270220999839,261.3270220999839,261.3742683000164,261.37449200008996,261.3909591000993,261.3909591000993,261.3909591000993,261.45738839998376,261.7746840000618,,,,,,,,up,3.416033699992113,None,space,0.3687570000765845,None,,,,,,,,,,,,,,,P127,001,2025-02-27_14h16.54.501,posner_endo_new1,2024.2.4,59.99253694141748,2025-02-27 14h17.05.395311 +0000,
cube_l.png,0.1,-0.31,valid,31,31,0,up,1.7987926000496373,None,space,0.38989570003468543,None,,,,,0,31,31,31,,,,,261.79054330009967,,,,,,,,,,,,,261.77485909999814,261.79054330009967,261.79054330009967,261.79054330009967,263.6059609000804,,,,263.61173990007956,263.6229763000738,263.6229763000738,263.6720077000791,263.67222930002026,263.68861030007247,263.68861030007247,263.68861030007247,263.7551179000875,264.0887158000842,,,,,,,,up,1.7987926000496373,None,space,0.38989570003468543,None,,,,,,,,,,,,,,,P127,001,2025-02-27_14h16.54.501,posner_endo_new1,2024.2.4,59.99253694141748,2025-02-27 14h17.05.395311 +0000,
cube_r.png,0.1,0.31,valid,32,32,0,up,5.389757400029339,None,space,0.3938510000007227,None,,,,,0,32,32,32,,,,,264.10480239999015,,,,,,,,,,,,,264.0888847000897,264.10480239999015,264.10480239999015,264.10480239999015,269.5004776000278,,,,269.5098210000433,269.51991510007065,269.51991510007065,269.5659825000912,269.56628530006856,269.5824543000199,269.5824543000199,269.5824543000199,269.66581420006696,269.9832002000185,,,,,,,,up,5.389757400029339,None,space,0.3938510000007227,None,,,,,,,,,,,,,,,P127,001,2025-02-27_14h16.54.501,posner_endo_new1,2024.2.4,59.99253694141748,2025-02-27 14h17.05.395311 +0000,
cube_r.png,0.1,-0.31,invalid,33,33,0,up,6.758594200015068,None,space,0.33879019995220006,None,,,,,0,33,33,33,,,,,269.99877220008057,,,,,,,,,,,,,269.9834570999956,269.99877220008057,269.99877220008057,269.99877220008057,276.75966330000665,,,,276.76898340007756,276.7792069000425,276.7792069000425,276.8252827000106,276.82560950005427,276.8417074000463,276.8417074000463,276.8417074000463,276.92502020008396,277.19238750007935,,,,,,,,up,6.758594200015068,None,space,0.33879019995220006,None,,,,,,,,,,,,,,,P127,001,2025-02-27_14h16.54.501,posner_endo_new1,2024.2.4,59.99253694141748,2025-02-27 14h17.05.395311 +0000,
cube_r.png,0.1,10,catch,34,34,0,up,6.397916299989447,None,None,,,,,,,0,34,34,34,,,,,277.20803420001175,,,,,,,,,,,,,277.19263639999554,277.20803420001175,277.20803420001175,277.20803420001175,283.6190512999892,,,,283.6283625999931,283.638588800095,283.638588800095,283.68491990002804,283.68522360001225,283.7014263999881,283.7014263999881,283.7014263999881,283.78458620002493,286.69900670007337,,,,285.799080900033,286.7149191000499,286.7149191000499,286.7149191000499,up,6.397916299989447,None,None,,,,,,,,,,,,,,,,,P127,001,2025-02-27_14h16.54.501,posner_endo_new1,2024.2.4,59.99253694141748,2025-02-27 14h17.05.395311 +0000,
cube_r.png,0.1,0.31,valid,35,35,0,up,3.0591309999581426,None,space,0.44131699996069074,None,,,,,0,35,35,35,,,,,286.7149191000499,,,,,,,,,,,,,286.6992411999963,286.7149191000499,286.7149191000499,286.7149191000499,289.77964890003204,,,,289.7890306999907,289.79924459999893,289.79924459999893,289.84531730005983,289.8456222000532,289.8617390000727,289.8617390000727,289.8617390000727,289.94502230000217,290.312373300083,,,,,,,,up,3.0591309999581426,None,space,0.44131699996069074,None,,,,,,,,,,,,,,,P127,001,2025-02-27_14h16.54.501,posner_endo_new1,2024.2.4,59.99253694141748,2025-02-27 14h17.05.395311 +0000,
cube_r.png,0.1,-0.31,invalid,36,36,0,up,5.133835599990562,None,space,0.44890229997690767,None,,,,,0,36,36,36,,,,,290.3279533000896,,,,,,,,,,,,,290.31262720003724,290.3279533000896,290.3279533000896,290.3279533000896,295.47370780003257,,,,295.48301190009806,295.49313429999165,295.49313429999165,295.5395570000401,295.53986910008825,295.5558893000707,295.5558893000707,295.5558893000707,295.6392504000105,296.00669670000207,,,,,,,,up,5.133835599990562,None,space,0.44890229997690767,None,,,,,,,,,,,,,,,P127,001,2025-02-27_14h16.54.501,posner_endo_new1,2024.2.4,59.99253694141748,2025-02-27 14h17.05.395311 +0000,
cube_l.png,0.1,0.31,invalid,37,37,0,up,6.199103099992499,None,space,0.5816258999984711,None,,,,,0,37,37,37,,,,,296.0221673999913,,,,,,,,,,,,,296.00694770005066,296.0221673999913,296.0221673999913,296.0221673999913,302.2336645000614,,,,302.24298300000373,302.2531138000777,302.2531138000777,302.2992242000764,302.2995384000242,302.3157000000356,302.3157000000356,302.3157000000356,302.3990378000308,302.8995871000225,,,,,,,,up,6.199103099992499,None,space,0.5816258999984711,None,,,,,,,,,,,,,,,P127,001,2025-02-27_14h16.54.501,posner_endo_new1,2024.2.4,59.99253694141748,2025-02-27 14h17.05.395311 +0000,
cube_l.png,0.1,0.31,invalid,38,38,0,up,5.978935099905357,None,space,0.5925084999762475,None,,,,,0,38,38,38,,,,,302.91514830000233,,,,,,,,,,,,,302.8998420999851,302.91514830000233,302.91514830000233,302.91514830000233,308.9100264000008,,,,308.9193663999904,308.92945739999413,308.92945739999413,308.97574710007757,308.9760635000421,308.9922442000825,308.9922442000825,308.9922442000825,309.07554930006154,309.5928137000883,,,,,,,,up,5.978935099905357,None,space,0.5925084999762475,None,,,,,,,,,,,,,,,P127,001,2025-02-27_14h16.54.501,posner_endo_new1,2024.2.4,59.99253694141748,2025-02-27 14h17.05.395311 +0000,
cube_r.png,0.1,0.31,valid,39,39,0,up,4.845663800020702,None,space,0.3919180000666529,None,,,,,0,39,39,39,,,,,309.60825719998684,,,,,,,,,,,,,309.593060299987,309.60825719998684,309.60825719998684,309.60825719998684,314.4708516000537,,,,314.4802387000527,314.49007280007936,314.49007280007936,314.536727800034,314.5370359000517,314.55294480000157,314.55294480000157,314.55294480000157,314.61981420009397,314.95383150002453,,,,,,,,up,4.845663800020702,None,space,0.3919180000666529,None,,,,,,,,,,,,,,,P127,001,2025-02-27_14h16.54.501,posner_endo_new1,2024.2.4,59.99253694141748,2025-02-27 14h17.05.395311 +0000,
cube_l.png,0.1,0.31,invalid,40,40,0,up,6.548735300078988,None,space,0.5333269000984728,None,,,,,0,40,40,40,,,,,314.9694892000407,,,,,,,,,,,,,314.9540784000419,314.9694892000407,314.9694892000407,314.9694892000407,321.5303057000274,,,,321.53957130003255,321.549541000044,321.549541000044,321.59621920005884,321.59652260004077,321.6127387000015,321.6127387000015,321.6127387000015,321.69594630005304,322.1630538000027,,,,,,,,up,6.548735300078988,None,space,0.5333269000984728,None,,,,,,,,,,,,,,,P127,001,2025-02-27_14h16.54.501,posner_endo_new1,2024.2.4,59.99253694141748,2025-02-27 14h17.05.395311 +0000,
cube_l.png,0.1,10,catch,41,41,0,up,2.9466331000439823,None,None,,,,,,,0,41,41,41,,,,,322.1787752000382,,,,,,,,,,,,,322.1633023000322,322.1787752000382,322.1787752000382,322.1787752000382,325.1269294000231,,,,325.13618440006394,325.1463633000385,325.1463633000385,325.19242910004687,325.19273050001357,325.20901089999825,325.20901089999825,325.20901089999825,325.29223360004835,328.20665110007394,,,,327.30689200002234,328.2226081000408,328.2226081000408,328.2226081000408,up,2.9466331000439823,None,None,,,,,,,,,,,,,,,,,P127,001,2025-02-27_14h16.54.501,posner_endo_new1,2024.2.4,59.99253694141748,2025-02-27 14h17.05.395311 +0000,
cube_l.png,0.1,-0.31,valid,42,42,0,up,1.5828079000348225,None,space,0.6033311999635771,None,,,,,0,42,42,42,,,,,328.2226081000408,,,,,,,,,,,,,328.2068849999923,328.2226081000408,328.2226081000408,328.2226081000408,329.82208370009903,,,,329.8314507000614,329.84130160009954,329.84130160009954,329.8878427000018,329.8881433000788,329.90421290008817,329.90421290008817,329.90421290008817,329.9874953000108,330.52136010001414,,,,,,,,up,1.5828079000348225,None,space,0.6033311999635771,None,,,,,,,,,,,,,,,P127,001,2025-02-27_14h16.54.501,posner_endo_new1,2024.2.4,59.99253694141748,2025-02-27 14h17.05.395311 +0000,
cube_l.png,0.1,10,catch,43,43,0,up,5.501277100061998,None,None,,,,,,,0,43,43,43,,,,,330.53686860005837,,,,,,,,,,,,,330.5216088000452,330.53686860005837,330.53686860005837,330.53686860005837,336.0489767000545,,,,336.0582853000378,336.06841330009047,336.06841330009047,336.11461930000223,336.11492250009906,336.13116089999676,336.13116089999676,336.13116089999676,336.2142569000134,339.1287358000409,,,,338.2290563000133,339.1446984000504,339.1446984000504,339.1446984000504,up,5.501277100061998,None,None,,,,,,,,,,,,,,,,,P127,001,2025-02-27_14h16.54.501,posner_endo_new1,2024.2.4,59.99253694141748,2025-02-27 14h17.05.395311 +0000,
cube_l.png,0.1,0.31,invalid,44,44,0,up,1.941428599995561,None,space,0.4618593999184668,None,,,,,0,44,44,44,,,,,339.1446984000504,,,,,,,,,,,,,339.12897419999354,339.1446984000504,339.1446984000504,339.1446984000504,341.093884000089,,,,341.10324950003996,341.1132857000921,341.1132857000921,341.1594733000966,341.1597759000724,341.17604450008366,341.17604450008366,341.17604450008366,341.2592467000941,341.64329500007443,,,,,,,,up,1.941428599995561,None,space,0.4618593999184668,None,,,,,,,,,,,,,,,P127,001,2025-02-27_14h16.54.501,posner_endo_new1,2024.2.4,59.99253694141748,2025-02-27 14h17.05.395311 +0000,
cube_l.png,0.1,0.31,invalid,45,45,0,up,3.4352929999586195,None,space,0.47786780004389584,None,,,,,0,45,45,45,,,,,341.65881590009667,,,,,,,,,,,,,341.64354230009485,341.65881590009667,341.65881590009667,341.65881590009667,345.10641950007994,,,,345.1156817000592,345.1256913000252,345.1256913000252,345.1721167000942,345.17242110008374,345.18851200002246,345.18851200002246,345.18851200002246,345.2718577000778,345.67245030007325,,,,,,,,up,3.4352929999586195,None,space,0.47786780004389584,None,,,,,,,,,,,,,,,P127,001,2025-02-27_14h16.54.501,posner_endo_new1,2024.2.4,59.99253694141748,2025-02-27 14h17.05.395311 +0000,
cube_r.png,0.1,0.31,valid,46,46,0,up,4.997262399992906,None,space,0.38231239991728216,None,,,,,0,46,46,46,,,,,345.6881183000514,,,,,,,,,,,,,345.6726947000716,345.6881183000514,345.6881183000514,345.6881183000514,350.70064370008186,,,,350.70999850006774,350.72016300004907,350.72016300004907,350.76636350003537,350.7666661000112,350.7829294000985,350.7829294000985,350.7829294000985,350.86611210007686,351.1669564000331,,,,,,,,up,4.997262399992906,None,space,0.38231239991728216,None,,,,,,,,,,,,,,,P127,001,2025-02-27_14h16.54.501,posner_endo_new1,2024.2.4,59.99253694141748,2025-02-27 14h17.05.395311 +0000,
cube_l.png,0.1,-0.31,valid,47,47,0,up,6.111484199995175,None,space,0.39715999993495643,None,,,,,0,47,47,47,,,,,351.182455400005,,,,,,,,,,,,,351.16720460006036,351.182455400005,351.182455400005,351.182455400005,357.31058660009876,,,,357.31988570000976,357.32980270008557,357.32980270008557,357.37625490000937,357.37655950000044,357.3928051000694,357.3928051000694,357.3928051000694,357.4761758000823,357.7932819999987,,,,,,,,up,6.111484199995175,None,space,0.39715999993495643,None,,,,,,,,,,,,,,,P127,001,2025-02-27_14h16.54.501,posner_endo_new1,2024.2.4,59.99253694141748,2025-02-27 14h17.05.395311 +0000,
cube_r.png,0.1,-0.31,invalid,48,48,0,up,4.965853899950162,None,space,0.3340705999871716,None,,,,,0,48,48,48,,,,,357.8089195000939,,,,,,,,,,,,,357.7935257999925,357.8089195000939,357.8089195000939,357.8089195000939,362.78835430007894,,,,362.79779099998996,362.8079601000063,362.8079601000063,362.8540737000294,362.85437780001666,362.8705174000934,362.8705174000934,362.8705174000934,362.9537625000812,363.2212707999861,,,,,,,,up,4.965853899950162,None,space,0.3340705999871716,None,,,,,,,,,,,,,,,P127,001,2025-02-27_14h16.54.501,posner_endo_new1,2024.2.4,59.99253694141748,2025-02-27 14h17.05.395311 +0000,
cube_r.png,0.1,10,catch,49,49,0,up,4.497488799970597,None,None,,,,,,,0,49,49,49,,,,,363.23663100006524,,,,,,,,,,,,,363.22151639999356,363.23663100006524,363.23663100006524,363.23663100006524,367.7499498000834,,,,367.7591687000822,367.7694005999947,367.7694005999947,367.8155565999914,367.81586080009583,367.83209510007873,367.83209510007873,367.83209510007873,367.9153896000935,370.8296696000034,,,,369.93005289998837,370.845724600018,370.845724600018,370.845724600018,up,4.497488799970597,None,None,,,,,,,,,,,,,,,,,P127,001,2025-02-27_14h16.54.501,posner_endo_new1,2024.2.4,59.99253694141748,2025-02-27 14h17.05.395311 +0000,
cube_l.png,0.1,-0.31,valid,50,50,0,up,0.672524300054647,None,space,0.4256205999990925,None,,,,,0,50,50,50,,,,,370.845724600018,,,,,,,,,,,,,370.8298986000009,370.845724600018,370.845724600018,370.845724600018,371.529382500099,,,,371.5386485999916,371.5488145999843,371.5488145999843,371.5951301000314,371.5954356000293,371.6116401000181,371.6116401000181,371.6116401000181,371.6948897000402,372.0455971000483,,,,,,,,up,0.672524300054647,None,space,0.4256205999990925,None,,,,,,,,,,,,,,,P127,001,2025-02-27_14h16.54.501,posner_endo_new1,2024.2.4,59.99253694141748,2025-02-27 14h17.05.395311 +0000,
cube_l.png,0.1,-0.31,valid,51,51,0,up,4.513605699990876,None,space,0.3973946999758482,None,,,,,0,51,51,51,,,,,372.06104460009374,,,,,,,,,,,,,372.04584410006646,372.06104460009374,372.06104460009374,372.06104460009374,376.59089890006,,,,376.60017460002564,376.61032390000764,376.61032390000764,376.6566508000251,376.6569545000093,376.6730929000769,376.6730929000769,376.6730929000769,376.7563579999842,377.07378760003485,,,,,,,,up,4.513605699990876,None,space,0.3973946999758482,None,,,,,,,,,,,,,,,P127,001,2025-02-27_14h16.54.501,posner_endo_new1,2024.2.4,59.99253694141748,2025-02-27 14h17.05.395311 +0000,
cube_r.png,0.1,-0.31,invalid,52,52,0,up,4.5739894999424,None,space,0.40064270002767444,None,,,,,0,52,52,52,,,,,377.08928220008966,,,,,,,,,,,,,377.0740385000827,377.08928220008966,377.08928220008966,377.08928220008966,381.6689975000918,,,,381.6782981000142,381.68846030009445,381.68846030009445,381.73465970007237,381.7349634000566,381.7513221000554,381.7513221000554,381.7513221000554,381.8344662000891,382.16858589998446,,,,,,,,up,4.5739894999424,None,space,0.40064270002767444,None,,,,,,,,,,,,,,,P127,001,2025-02-27_14h16.54.501,posner_endo_new1,2024.2.4,59.99253694141748,2025-02-27 14h17.05.395311 +0000,
cube_l.png,0.1,-0.31,valid,53,53,0,up,9.17354270000942,None,space,0.36796349997166544,None,,,,,0,53,53,53,,,,,382.18406400003005,,,,,,,,,,,,,382.1688327000011,382.18406400003005,382.18406400003005,382.18406400003005,391.35909080004785,,,,391.36499080003705,391.37668830004986,391.37668830004986,391.4248728000093,391.42509600007907,391.44141520000994,391.44141520000994,391.44141520000994,391.52454860007856,391.82516120001674,,,,,,,,up,9.17354270000942,None,space,0.36796349997166544,None,,,,,,,,,,,,,,,P127,001,2025-02-27_14h16.54.501,posner_endo_new1,2024.2.4,59.99253694141748,2025-02-27 14h17.05.395311 +0000,
cube_r.png,0.1,10,catch,54,54,0,up,7.580551899969578,None,space,0.35798670002259314,None,,,,,0,54,54,54,,,,,391.8408341000322,,,,,,,,,,,,,391.8253272000002,391.8408341000322,391.8408341000322,391.8408341000322,399.43430050008465,,,,399.44359710009303,399.45372170000337,399.45372170000337,399.4999025000725,399.5002123999875,399.5163970000576,399.5163970000576,399.5163970000576,399.59961959999055,399.88357310008723,,,,,,,,up,7.580551899969578,None,space,0.35798670002259314,None,,,,,,,,,,,,,,,P127,001,2025-02-27_14h16.54.501,posner_endo_new1,2024.2.4,59.99253694141748,2025-02-27 14h17.05.395311 +0000,
cube_l.png,0.1,0.31,invalid,55,55,0,up,9.746485999901779,None,space,0.4932978000724688,None,,,,,0,55,55,55,,,,,399.89938610000536,,,,,,,,,,,,,399.88382680003997,399.89938610000536,399.89938610000536,399.89938610000536,409.65718520001974,,,,409.6665028000716,409.67674650007393,409.67674650007393,409.7227880000137,409.723101300071,409.73934840003494,409.73934840003494,409.73934840003494,409.822547400021,410.2398082000436,,,,,,,,up,9.746485999901779,None,space,0.4932978000724688,None,,,,,,,,,,,,,,,P127,001,2025-02-27_14h16.54.501,posner_endo_new1,2024.2.4,59.99253694141748,2025-02-27 14h17.05.395311 +0000,
cube_l.png,0.1,-0.31,valid,56,56,0,up,5.870410599978641,None,space,0.4667949000140652,None,,,,,0,56,56,56,,,,,410.2554682000773,,,,,,,,,,,,,410.24007310008164,410.2554682000773,410.2554682000773,410.2554682000773,416.13389749999624,,,,416.1433530000504,416.15354130009655,416.15354130009655,416.1996073999908,416.19991850003134,416.2160189000424,416.2160189000424,416.2160189000424,416.2993317000801,416.6998862000182,,,,,,,,up,5.870410599978641,None,space,0.4667949000140652,None,,,,,,,,,,,,,,,P127,001,2025-02-27_14h16.54.501,posner_endo_new1,2024.2.4,59.99253694141748,2025-02-27 14h17.05.395311 +0000,
cube_r.png,0.1,0.31,valid,57,57,0,up,13.88196979998611,None,space,0.39600199996493757,None,,,,,0,57,57,57,,,,,416.71553570008837,,,,,,,,,,,,,416.7001315000234,416.71553570008837,416.71553570008837,416.71553570008837,430.6025048000738,,,,430.61194249999244,430.6221276000142,430.6221276000142,430.668132300023,430.66844030003995,430.68464039999526,430.68464039999526,430.68464039999526,430.76781780004967,431.0853738000151,,,,,,,,up,13.88196979998611,None,space,0.39600199996493757,None,,,,,,,,,,,,,,,P127,001,2025-02-27_14h16.54.501,posner_endo_new1,2024.2.4,59.99253694141748,2025-02-27 14h17.05.395311 +0000,
cube_r.png,0.1,-0.31,invalid,58,58,0,up,2.7933197000529617,None,space,0.43896820000372827,None,,,,,0,58,58,58,,,,,431.10075780004263,,,,,,,,,,,,,431.0856224000454,431.10075780004263,431.10075780004263,431.10075780004263,433.8990633999929,,,,433.9083361000521,433.9183817000594,433.9183817000594,433.9647172000259,433.965028500068,433.9812356000766,433.9812356000766,433.9812356000766,434.0644690000918,434.4318388000829,,,,,,,,up,2.7933197000529617,None,space,0.43896820000372827,None,,,,,,,,,,,,,,,P127,001,2025-02-27_14h16.54.501,posner_endo_new1,2024.2.4,59.99253694141748,2025-02-27 14h17.05.395311 +0000,
cube_l.png,0.1,0.31,invalid,59,59,0,up,5.2068759999237955,None,space,0.3821136999176815,None,,,,,0,59,59,59,,,,,434.4473935000133,,,,,,,,,,,,,434.4320873999968,434.4473935000133,434.4473935000133,434.4473935000133,439.65987309999764,,,,439.6691509000957,439.67936790001113,439.67936790001113,439.72553550009616,439.7258373000659,439.7419850000879,439.7419850000879,439.7419850000879,439.8254276000662,440.12623170006555,,,,,,,,up,5.2068759999237955,None,space,0.3821136999176815,None,,,,,,,,,,,,,,,P127,001,2025-02-27_14h16.54.501,posner_endo_new1,2024.2.4,59.99253694141748,2025-02-27 14h17.05.395311 +0000,
,,,,,,,,,,,,,,,,,,,,,,,,,,,,,,,,,,,,,,,,,,,,,,,,,,,,,,,,,,,,,,,,,,,,,440.1263881000923,440.14162280003075,440.14162280003075,500.14650440006517,530.5833774000639,space,90.43270230002236,None,,,,,,,P127,001,2025-02-27_14h16.54.501,posner_endo_new1,2024.2.4,59.99253694141748,2025-02-27 14h17.05.395311 +0000,
,,,,,,,,,,,,,,,,,,,,,,,,,,,,,,,,,,530.5834707000758,530.5987226000289,533.6185684000375,533.5797529000556,,,,,,,,,,,,,,,,,,,,,,,,,,,,,,,,,,,,,,,,,,,,,,P127,001,2025-02-27_14h16.54.501,posner_endo_new1,2024.2.4,59.99253694141748,2025-02-27 14h17.05.395311 +0000,
cube_l.png,0.1,10,catch,0,0,0,down,1.37973869999405,None,None,,,,,,,,,,,0,0,0,0,533.6185684000375,,,,,,,,,,,,,533.6103655000916,533.6185684000375,533.6185684000375,533.6185684000375,535.0129625000991,,,,535.0299904000713,535.0409618000267,535.0409618000267,535.0779773000395,535.0784817000385,535.0944451000541,535.0944451000541,535.0944451000541,535.1776749000419,538.0922595000593,,,,537.1924314000644,538.1081496000988,538.1081496000988,538.1081496000988,,,,,,,,,,,,,,,down,1.37973869999405,None,None,,,P127,001,2025-02-27_14h16.54.501,posner_endo_new1,2024.2.4,59.99253694141748,2025-02-27 14h17.05.395311 +0000,
cube_l.png,0.1,10,catch,1,1,0,down,2.46568310004659,None,None,,,,,,,,,,,0,1,1,1,538.1081496000988,,,,,,,,,,,,,538.0925366000738,538.1081496000988,538.1081496000988,538.1081496000988,540.590214200085,,,,540.6015892000869,540.6115529000526,540.6115529000526,540.6557691000635,540.6561121999985,540.6722236000933,540.6722236000933,540.6722236000933,540.7555855000392,543.6698853000998,,,,542.7702980000759,543.6858135000803,543.6858135000803,543.6858135000803,,,,,,,,,,,,,,,down,2.46568310004659,None,None,,,P127,001,2025-02-27_14h16.54.501,posner_endo_new1,2024.2.4,59.99253694141748,2025-02-27 14h17.05.395311 +0000,
cube_l.png,0.1,0.31,invalid,2,2,0,down,0.38449100009165704,None,space,0.5175146000692621,None,,,,,,,,,0,2,2,2,543.6858135000803,,,,,,,,,,,,,543.6701577000786,543.6858135000803,543.6858135000803,543.6858135000803,544.0865655000089,,,,544.0977794000646,544.1076872000704,544.1076872000704,544.1521515999921,544.1524963000556,544.1687405999983,544.1687405999983,544.1687405999983,544.2519050000701,544.7025917000137,,,,,,,,,,,,,,,,,,,,,,down,0.38449100009165704,None,space,0.5175146000692621,None,P127,001,2025-02-27_14h16.54.501,posner_endo_new1,2024.2.4,59.99253694141748,2025-02-27 14h17.05.395311 +0000,
cube_l.png,0.1,0.31,invalid,3,3,0,down,6.928272400051355,None,space,0.5071910999249667,None,,,,,,,,,0,3,3,3,544.7180980000412,,,,,,,,,,,,,544.7028806000017,544.7180980000412,544.7180980000412,544.7180980000412,551.6621721000411,,,,551.6721920000855,551.6820249999873,551.6820249999873,551.727656400064,551.7278957000235,551.7442137000617,551.7442137000617,551.7442137000617,551.8274396000197,552.2612007000716,,,,,,,,,,,,,,,,,,,,,,down,6.928272400051355,None,space,0.5071910999249667,None,P127,001,2025-02-27_14h16.54.501,posner_endo_new1,2024.2.4,59.99253694141748,2025-02-27 14h17.05.395311 +0000,
cube_l.png,0.1,-0.31,valid,4,4,0,down,4.353183200000785,None,space,0.5315746000269428,None,,,,,,,,,0,4,4,4,552.2771113000344,,,,,,,,,,,,,552.2613852000795,552.2771113000344,552.2771113000344,552.2771113000344,556.6401100000367,,,,556.6468386000488,556.6587749000173,556.6587749000173,556.7060415000888,556.7062638000352,556.7223690000828,556.7223690000828,556.7223690000828,556.7891931000631,557.2562057999894,,,,,,,,,,,,,,,,,,,,,,down,4.353183200000785,None,space,0.5315746000269428,None,P127,001,2025-02-27_14h16.54.501,posner_endo_new1,2024.2.4,59.99253694141748,2025-02-27 14h17.05.395311 +0000,
cube_r.png,0.1,-0.31,invalid,5,5,0,down,3.3660101999994367,None,space,0.3897966000949964,None,,,,,,,,,0,5,5,5,557.2717922000447,,,,,,,,,,,,,557.2563767000102,557.2717922000447,557.2717922000447,557.2717922000447,560.653397200047,,,,560.6699988000328,560.6809332000557,560.6809332000557,560.7185157000786,560.719031900051,560.7349326000549,560.7349326000549,560.7349326000549,560.8181284000166,561.1363022000296,,,,,,,,,,,,,,,,,,,,,,down,3.3660101999994367,None,space,0.3897966000949964,None,P127,001,2025-02-27_14h16.54.501,posner_endo_new1,2024.2.4,59.99253694141748,2025-02-27 14h17.05.395311 +0000,
cube_r.png,0.1,0.31,valid,6,6,0,down,7.88690859999042,None,space,0.36147959996014833,None,,,,,,,,,0,6,6,6,561.1511538000777,,,,,,,,,,,,,561.13673690008,561.1511538000777,561.1511538000777,561.1511538000777,569.044527900056,,,,569.0558238000376,569.066313700052,569.066313700052,569.1100622999948,569.1104173000203,569.1264936000807,569.1264936000807,569.1264936000807,569.2098696000176,569.4939844000619,,,,,,,,,,,,,,,,,,,,,,down,7.88690859999042,None,space,0.36147959996014833,None,P127,001,2025-02-27_14h16.54.501,posner_endo_new1,2024.2.4,59.99253694141748,2025-02-27 14h17.05.395311 +0000,
cube_r.png,0.1,-0.31,invalid,7,7,0,down,3.904220899916254,None,space,0.3921159999445081,None,,,,,,,,,0,7,7,7,569.5094608000945,,,,,,,,,,,,,569.494270300027,569.5094608000945,569.5094608000945,569.5094608000945,573.4231754000066,,,,573.4343959999969,573.4447895000922,573.4447895000922,573.4888873000164,573.4892284000525,573.5053766000783,573.5053766000783,573.5053766000783,573.5887625000905,573.9061321000336,,,,,,,,,,,,,,,,,,,,,,down,3.904220899916254,None,space,0.3921159999445081,None,P127,001,2025-02-27_14h16.54.501,posner_endo_new1,2024.2.4,59.99253694141748,2025-02-27 14h17.05.395311 +0000,
cube_l.png,0.1,-0.31,valid,8,8,0,down,4.188289499958046,None,space,0.3460717999842018,None,,,,,,,,,0,8,8,8,573.9215942000737,,,,,,,,,,,,,573.906425000052,573.9215942000737,573.9215942000737,573.9215942000737,578.1184960000683,,,,578.1297739000292,578.1400961000472,578.1400961000472,578.1840739999898,578.184413800016,578.2006363000255,578.2006363000255,578.2006363000255,578.2838333999971,578.551534300088,,,,,,,,,,,,,,,,,,,,,,down,4.188289499958046,None,space,0.3460717999842018,None,P127,001,2025-02-27_14h16.54.501,posner_endo_new1,2024.2.4,59.99253694141748,2025-02-27 14h17.05.395311 +0000,
cube_r.png,0.1,-0.31,invalid,9,9,0,down,6.78351019998081,None,space,0.3779127000598237,None,,,,,,,,,0,9,9,9,578.5668141000206,,,,,,,,,,,,,578.5518351000501,578.5668141000206,578.5668141000206,578.5668141000206,585.3611088000471,,,,585.372453500051,585.3828201000579,585.3828201000579,585.4267188000958,585.4270634000422,585.4432169999927,585.4432169999927,585.4432169999927,585.5264384000329,585.827525800094,,,,,,,,,,,,,,,,,,,,,,down,6.78351019998081,None,space,0.3779127000598237,None,P127,001,2025-02-27_14h16.54.501,posner_endo_new1,2024.2.4,59.99253694141748,2025-02-27 14h17.05.395311 +0000,
cube_l.png,0.1,0.31,invalid,10,10,0,down,4.099607200012542,None,space,0.3907896999735385,None,,,,,,,,,0,10,10,10,585.8427442000248,,,,,,,,,,,,,585.8278174999868,585.8427442000248,585.8427442000248,585.8427442000248,589.9562548000831,,,,589.9673774000257,589.9776359000243,589.9776359000243,590.0220397000667,590.0223892000504,590.038466500002,590.038466500002,590.038466500002,590.1217607000144,590.4392138000112,,,,,,,,,,,,,,,,,,,,,,down,4.099607200012542,None,space,0.3907896999735385,None,P127,001,2025-02-27_14h16.54.501,posner_endo_new1,2024.2.4,59.99253694141748,2025-02-27 14h17.05.395311 +0000,
cube_r.png,0.1,-0.31,invalid,11,11,0,down,4.783309300080873,None,space,0.4477896000025794,None,,,,,,,,,0,11,11,11,590.4547172000166,,,,,,,,,,,,,590.4395027999999,590.4547172000166,590.4547172000166,590.4547172000166,595.2510318000568,,,,595.2622087000636,595.2725855000317,595.2725855000317,595.3166066000704,595.3169539000373,595.3330514000263,595.3330514000263,595.3330514000263,595.4163924000459,595.7839583000168,,,,,,,,,,,,,,,,,,,,,,down,4.783309300080873,None,space,0.4477896000025794,None,P127,001,2025-02-27_14h16.54.501,posner_endo_new1,2024.2.4,59.99253694141748,2025-02-27 14h17.05.395311 +0000,
cube_r.png,0.1,0.31,valid,12,12,0,down,5.542969400063157,None,space,0.3760183999547735,None,,,,,,,,,0,12,12,12,595.7992314000148,,,,,,,,,,,,,595.7842466000002,595.7992314000148,595.7992314000148,595.7992314000148,601.3448552000336,,,,601.3537645000033,601.3635689000366,601.3635689000366,601.410406100098,601.4106433000416,601.4267577000428,601.4267577000428,601.4267577000428,601.5099570000311,601.8106358000077,,,,,,,,,,,,,,,,,,,,,,down,5.542969400063157,None,space,0.3760183999547735,None,P127,001,2025-02-27_14h16.54.501,posner_endo_new1,2024.2.4,59.99253694141748,2025-02-27 14h17.05.395311 +0000,
cube_l.png,0.1,10,catch,13,13,0,down,3.179650399950333,None,None,,,,,,,,,,,0,13,13,13,601.8264034000458,,,,,,,,,,,,,601.8108227000339,601.8264034000458,601.8264034000458,601.8264034000458,605.0073939000722,,,,605.0140828000149,605.0257923000026,605.0257923000026,605.0732711000601,605.0735090000089,605.0897776000202,605.0897776000202,605.0897776000202,605.1731197000481,608.0872527000029,,,,607.1876424000366,608.1032570000971,608.1032570000971,608.1032570000971,,,,,,,,,,,,,,,down,3.179650399950333,None,None,,,P127,001,2025-02-27_14h16.54.501,posner_endo_new1,2024.2.4,59.99253694141748,2025-02-27 14h17.05.395311 +0000,
cube_r.png,0.1,-0.31,invalid,14,14,0,down,1.742530000046827,None,space,0.41430839989334345,None,,,,,,,,,0,14,14,14,608.1032570000971,,,,,,,,,,,,,608.0874319000868,608.1032570000971,608.1032570000971,608.1032570000971,609.8522902000695,,,,609.859061300056,609.8709885000717,609.8709885000717,609.9182080000173,609.9187037000665,609.9346696999855,609.9346696999855,609.9346696999855,610.0179100000532,610.3527547999984,,,,,,,,,,,,,,,,,,,,,,down,1.742530000046827,None,space,0.41430839989334345,None,P127,001,2025-02-27_14h16.54.501,posner_endo_new1,2024.2.4,59.99253694141748,2025-02-27 14h17.05.395311 +0000,
cube_l.png,0.1,-0.31,valid,15,15,0,down,6.718224900076166,None,space,0.510682100080885,None,,,,,,,,,0,15,15,15,610.3675665000919,,,,,,,,,,,,,610.3532010000199,610.3675665000919,610.3675665000919,610.3675665000919,617.0953034000704,,,,617.1037837000331,617.113825700013,617.113825700013,617.1609537000768,617.1611939000431,617.1773438000819,617.1773438000819,617.1773438000819,617.2605180999963,617.6944508000743,,,,,,,,,,,,,,,,,,,,,,down,6.718224900076166,None,space,0.510682100080885,None,P127,001,2025-02-27_14h16.54.501,posner_endo_new1,2024.2.4,59.99253694141748,2025-02-27 14h17.05.395311 +0000,
cube_r.png,0.1,10,catch,16,16,0,down,4.6079425000352785,None,None,,,,,,,,,,,0,16,16,16,617.7102024999913,,,,,,,,,,,,,617.6946348000783,617.7102024999913,617.7102024999913,617.7102024999913,622.3228891000617,,,,622.3295922999969,622.341407900094,622.341407900094,622.3888368000044,622.3893408000004,622.4052475000499,622.4052475000499,622.4052475000499,622.4884968000697,625.4030747000361,,,,624.5032975000795,625.4188856000546,625.4188856000546,625.4188856000546,,,,,,,,,,,,,,,down,4.6079425000352785,None,None,,,P127,001,2025-02-27_14h16.54.501,posner_endo_new1,2024.2.4,59.99253694141748,2025-02-27 14h17.05.395311 +0000,
cube_r.png,0.1,10,catch,17,17,0,down,2.355091099976562,None,None,,,,,,,,,,,0,17,17,17,625.4188856000546,,,,,,,,,,,,,625.4033443999942,625.4188856000546,625.4188856000546,625.4188856000546,627.7843486000784,,,,627.7955255000852,627.8057952000527,627.8057952000527,627.8499579000054,627.8503032000735,627.8665311000077,627.8665311000077,627.8665311000077,627.9496799000772,630.8641086000716,,,,629.9643932000035,630.8801594000543,630.8801594000543,630.8801594000543,,,,,,,,,,,,,,,down,2.355091099976562,None,None,,,P127,001,2025-02-27_14h16.54.501,posner_endo_new1,2024.2.4,59.99253694141748,2025-02-27 14h17.05.395311 +0000,
cube_l.png,0.1,0.31,invalid,18,18,0,down,1.4302819999866188,None,space,0.44496139988768846,None,,,,,,,,,0,18,18,18,630.8801594000543,,,,,,,,,,,,,630.8643748000031,630.8801594000543,630.8801594000543,630.8801594000543,632.3132319999859,,,,632.3244196000742,632.3346989999991,632.3346989999991,632.3787704000715,632.3791209000628,632.3952471000375,632.3952471000375,632.3952471000375,632.4784400000935,632.8459091000259,,,,,,,,,,,,,,,,,,,,,,down,1.4302819999866188,None,space,0.44496139988768846,None,P127,001,2025-02-27_14h16.54.501,posner_endo_new1,2024.2.4,59.99253694141748,2025-02-27 14h17.05.395311 +0000,
cube_l.png,0.1,10,catch,19,19,0,down,6.873001500032842,None,None,,,,,,,,,,,0,19,19,19,632.8613865000661,,,,,,,,,,,,,632.8462008000351,632.8613865000661,632.8613865000661,632.8613865000661,639.7390779000707,,,,639.7502297000028,639.760466100066,639.760466100066,639.8042904000031,639.8046323000453,639.8209322000621,639.8209322000621,639.8209322000621,639.9041506000794,642.8186641000211,,,,641.9187990000937,642.8345219000475,642.8345219000475,642.8345219000475,,,,,,,,,,,,,,,down,6.873001500032842,None,None,,,P127,001,2025-02-27_14h16.54.501,posner_endo_new1,2024.2.4,59.99253694141748,2025-02-27 14h17.05.395311 +0000,
cube_l.png,0.1,0.31,invalid,20,20,0,down,2.6202094999607652,None,space,0.5441842000000179,None,,,,,,,,,0,20,20,20,642.8345219000475,,,,,,,,,,,,,642.8189376000082,642.8345219000475,642.8345219000475,642.8345219000475,645.4663656000048,,,,645.477619000012,645.4879182000877,645.4879182000877,645.5319308000617,645.5322709000902,645.5484395000385,645.5484395000385,645.5484395000385,645.6317161000334,646.0990183000686,,,,,,,,,,,,,,,,,,,,,,down,2.6202094999607652,None,space,0.5441842000000179,None,P127,001,2025-02-27_14h16.54.501,posner_endo_new1,2024.2.4,59.99253694141748,2025-02-27 14h17.05.395311 +0000,
cube_l.png,0.1,-0.31,valid,21,21,0,down,5.444110399927013,None,space,0.5060855000047013,None,,,,,,,,,0,21,21,21,646.1145986000774,,,,,,,,,,,,,646.0993043000344,646.1145986000774,646.1145986000774,646.1145986000774,651.5602708000224,,,,651.5714479000308,651.581784500042,651.581784500042,651.625595199992,651.6259413000662,651.6422584000975,651.6422584000975,651.6422584000975,651.7254127000924,652.1595826999983,,,,,,,,,,,,,,,,,,,,,,down,5.444110399927013,None,space,0.5060855000047013,None,P127,001,2025-02-27_14h16.54.501,posner_endo_new1,2024.2.4,59.99253694141748,2025-02-27 14h17.05.395311 +0000,
cube_r.png,0.1,0.31,valid,22,22,0,down,4.447725099977106,None,space,0.4840097000123933,None,,,,,,,,,0,22,22,22,652.1750142000383,,,,,,,,,,,,,652.1598715999862,652.1750142000383,652.1750142000383,652.1750142000383,656.6382983000949,,,,656.6494699000614,656.6598379000789,656.6598379000789,656.7038248000899,656.7041663000127,656.720358200022,656.720358200022,656.720358200022,656.8035917000379,657.2210481000366,,,,,,,,,,,,,,,,,,,,,,down,4.447725099977106,None,space,0.4840097000123933,None,P127,001,2025-02-27_14h16.54.501,posner_endo_new1,2024.2.4,59.99253694141748,2025-02-27 14h17.05.395311 +0000,
cube_r.png,0.1,-0.31,invalid,23,23,0,down,5.161977899959311,None,space,0.3895728000206873,None,,,,,,,,,0,23,23,23,657.2365110000828,,,,,,,,,,,,,657.2213525000261,657.2365110000828,657.2365110000828,657.2365110000828,662.4156859000213,,,,662.4269036999904,662.4367916000774,662.4367916000774,662.4813745000865,662.4817173000192,662.4977698000148,662.4977698000148,662.4977698000148,662.58105170005,662.8986166000832,,,,,,,,,,,,,,,,,,,,,,down,5.161977899959311,None,space,0.3895728000206873,None,P127,001,2025-02-27_14h16.54.501,posner_endo_new1,2024.2.4,59.99253694141748,2025-02-27 14h17.05.395311 +0000,
cube_r.png,0.1,0.31,valid,24,24,0,down,9.884731699945405,None,space,0.3738662999821827,None,,,,,,,,,0,24,24,24,662.9140079000499,,,,,,,,,,,,,662.8989041000605,662.9140079000499,662.9140079000499,662.9140079000499,672.8045809000032,,,,672.811733599985,672.823463400011,672.823463400011,672.8707511000102,672.8710035000695,672.8871686999919,672.8871686999919,672.8871686999919,672.9535704000155,673.2709090000717,,,,,,,,,,,,,,,,,,,,,,down,9.884731699945405,None,space,0.3738662999821827,None,P127,001,2025-02-27_14h16.54.501,posner_endo_new1,2024.2.4,59.99253694141748,2025-02-27 14h17.05.395311 +0000,
cube_r.png,0.1,-0.31,invalid,25,25,0,down,5.791432400001213,None,space,0.3762360999826342,None,,,,,,,,,0,25,25,25,673.2868061000481,,,,,,,,,,,,,673.2711140000029,673.2868061000481,673.2868061000481,673.2868061000481,679.0818312000483,,,,679.0890211000806,679.1008059000596,679.1008059000596,679.1474978000624,679.1479981000302,679.16394150001,679.16394150001,679.16394150001,679.2471520000836,679.5487227999838,,,,,,,,,,,,,,,,,,,,,,down,5.791432400001213,None,space,0.3762360999826342,None,P127,001,2025-02-27_14h16.54.501,posner_endo_new1,2024.2.4,59.99253694141748,2025-02-27 14h17.05.395311 +0000,
cube_l.png,0.1,-0.31,valid,26,26,0,down,5.779268700047396,None,space,0.3587683999212459,None,,,,,,,,,0,26,26,26,679.5634843000444,,,,,,,,,,,,,679.5491673999932,679.5634843000444,679.5634843000444,679.5634843000444,685.3587929999921,,,,685.369381000055,685.3796429000795,685.3796429000795,685.424501700094,685.424832800054,685.4409945000662,685.4409945000662,685.4409945000662,685.5242356000235,685.8084618999856,,,,,,,,,,,,,,,,,,,,,,down,5.779268700047396,None,space,0.3587683999212459,None,P127,001,2025-02-27_14h16.54.501,posner_endo_new1,2024.2.4,59.99253694141748,2025-02-27 14h17.05.395311 +0000,
cube_r.png,0.1,0.31,valid,27,27,0,down,5.190910100005567,None,space,0.3374641000991687,None,,,,,,,,,0,27,27,27,685.8238841000712,,,,,,,,,,,,,685.8087405000115,685.8238841000712,685.8238841000712,685.8238841000712,691.0196091000689,,,,691.0263303000247,691.0381852000719,691.0381852000719,691.0853300000308,691.0855524000945,691.1018629000755,691.1018629000755,691.1018629000755,691.1850573000265,691.4522362999851,,,,,,,,,,,,,,,,,,,,,,down,5.190910100005567,None,space,0.3374641000991687,None,P127,001,2025-02-27_14h16.54.501,posner_endo_new1,2024.2.4,59.99253694141748,2025-02-27 14h17.05.395311 +0000,
cube_r.png,0.1,10,catch,28,28,0,down,4.481815799954347,None,None,,,,,,,,,,,0,28,28,28,691.4681281000376,,,,,,,,,,,,,691.4524120000424,691.4681281000376,691.4681281000376,691.4681281000376,695.9643000999931,,,,695.9721508000512,695.9835816000123,695.9835816000123,696.0303540000459,696.030889900052,696.0468080000719,696.0468080000719,696.0468080000719,696.1133937000996,699.0448588000145,,,,698.1279982000124,699.0603751000017,699.0603751000017,699.0603751000017,,,,,,,,,,,,,,,down,4.481815799954347,None,None,,,P127,001,2025-02-27_14h16.54.501,posner_endo_new1,2024.2.4,59.99253694141748,2025-02-27 14h17.05.395311 +0000,
cube_r.png,0.1,0.31,valid,29,29,0,down,2.7699772000778466,None,space,0.3590414000209421,None,,,,,,,,,0,29,29,29,699.0603751000017,,,,,,,,,,,,,699.0453116000863,699.0603751000017,699.0603751000017,699.0603751000017,701.842719300068,,,,701.8609233000316,701.8722887000768,701.8722887000768,701.9076660000719,701.9080156000564,701.9241233000066,701.9241233000066,701.9241233000066,702.007460599998,702.291644699988,,,,,,,,,,,,,,,,,,,,,,down,2.7699772000778466,None,space,0.3590414000209421,None,P127,001,2025-02-27_14h16.54.501,posner_endo_new1,2024.2.4,59.99253694141748,2025-02-27 14h17.05.395311 +0000,
cube_r.png,0.1,0.31,valid,30,30,0,down,5.490909100044519,None,space,0.4171742000617087,None,,,,,,,,,0,30,30,30,702.307209999999,,,,,,,,,,,,,702.2919324000832,702.307209999999,702.307209999999,702.307209999999,707.8033992000856,,,,707.8209643000737,707.8311958999839,707.8311958999839,707.8683064000215,707.8686493000714,707.884828899987,707.884828899987,707.884828899987,707.9680507000303,708.3193807000061,,,,,,,,,,,,,,,,,,,,,,down,5.490909100044519,None,space,0.4171742000617087,None,P127,001,2025-02-27_14h16.54.501,posner_endo_new1,2024.2.4,59.99253694141748,2025-02-27 14h17.05.395311 +0000,
cube_l.png,0.1,-0.31,valid,31,31,0,down,5.112303600064479,None,space,0.4795905000064522,None,,,,,,,,,0,31,31,31,708.334252800094,,,,,,,,,,,,,708.3198516000994,708.334252800094,708.334252800094,708.334252800094,713.4642408000072,,,,713.4826324000023,713.4937809000257,713.4937809000257,713.529079400003,713.5294253000757,713.5457058000611,713.5457058000611,713.5457058000611,713.6288390000118,714.0297640000936,,,,,,,,,,,,,,,,,,,,,,down,5.112303600064479,None,space,0.4795905000064522,None,P127,001,2025-02-27_14h16.54.501,posner_endo_new1,2024.2.4,59.99253694141748,2025-02-27 14h17.05.395311 +0000,
cube_r.png,0.1,0.31,valid,32,32,0,down,11.04190029995516,None,space,0.42933029995765537,None,,,,,,,,,0,32,32,32,714.045080400072,,,,,,,,,,,,,714.0300637000473,714.045080400072,714.045080400072,714.045080400072,725.1016969000921,,,,725.1131005000789,725.1234081999864,725.1234081999864,725.1672794000478,725.1676219000947,725.1837276000297,725.1837276000297,725.1837276000297,725.2670694000553,725.6178801000351,,,,,,,,,,,,,,,,,,,,,,down,11.04190029995516,None,space,0.42933029995765537,None,P127,001,2025-02-27_14h16.54.501,posner_endo_new1,2024.2.4,59.99253694141748,2025-02-27 14h17.05.395311 +0000,
cube_r.png,0.1,-0.31,invalid,33,33,0,down,4.580930299940519,None,space,0.44138390000443906,None,,,,,,,,,0,33,33,33,725.6333242000546,,,,,,,,,,,,,725.6181776000885,725.6333242000546,725.6333242000546,725.6333242000546,730.2297920000274,,,,730.2409962000092,730.2513303000014,730.2513303000014,730.2952813000884,730.2956225000089,730.3117881000508,730.3117881000508,730.3117881000508,730.3950031000422,730.7626571999863,,,,,,,,,,,,,,,,,,,,,,down,4.580930299940519,None,space,0.44138390000443906,None,P127,001,2025-02-27_14h16.54.501,posner_endo_new1,2024.2.4,59.99253694141748,2025-02-27 14h17.05.395311 +0000,
cube_r.png,0.1,10,catch,34,34,0,down,3.348331499961205,None,None,,,,,,,,,,,0,34,34,34,730.7780632000649,,,,,,,,,,,,,730.7629445000784,730.7780632000649,730.7780632000649,730.7780632000649,734.1424905000022,,,,734.1536255000392,734.163956000004,734.163956000004,734.2079621000448,734.2083197000902,734.2245550000807,734.2245550000807,734.2245550000807,734.307707900065,737.2221730999881,,,,736.3223174000159,737.2380514000542,737.2380514000542,737.2380514000542,,,,,,,,,,,,,,,down,3.348331499961205,None,None,,,P127,001,2025-02-27_14h16.54.501,posner_endo_new1,2024.2.4,59.99253694141748,2025-02-27 14h17.05.395311 +0000,
cube_r.png,0.1,0.31,valid,35,35,0,down,0.8408139999955893,None,space,0.4491336999926716,None,,,,,,,,,0,35,35,35,737.2380514000542,,,,,,,,,,,,,737.2224510000087,737.2380514000542,737.2380514000542,737.2380514000542,738.0884013000177,,,,738.0995432999916,738.1099422000116,738.1099422000116,738.1540436000796,738.1543951000785,738.1704603000544,738.1704603000544,738.1704603000544,738.2537956000306,738.6214201000985,,,,,,,,,,,,,,,,,,,,,,down,0.8408139999955893,None,space,0.4491336999926716,None,P127,001,2025-02-27_14h16.54.501,posner_endo_new1,2024.2.4,59.99253694141748,2025-02-27 14h17.05.395311 +0000,
cube_r.png,0.1,-0.31,invalid,36,36,0,down,5.73033590009436,None,space,0.4364207999315113,None,,,,,,,,,0,36,36,36,738.6366810000036,,,,,,,,,,,,,738.6217165000271,738.6366810000036,738.6366810000036,738.6366810000036,744.3820966000203,,,,744.3924167000223,744.4021570000332,744.4021570000332,744.4474647000898,744.447699100012,744.4638752000174,744.4638752000174,744.4638752000174,744.5472549000988,744.9144032000331,,,,,,,,,,,,,,,,,,,,,,down,5.73033590009436,None,space,0.4364207999315113,None,P127,001,2025-02-27_14h16.54.501,posner_endo_new1,2024.2.4,59.99253694141748,2025-02-27 14h17.05.395311 +0000,
cube_l.png,0.1,0.31,invalid,37,37,0,down,2.30046980001498,None,space,0.44834770006127656,None,,,,,,,,,0,37,37,37,744.9303364000516,,,,,,,,,,,,,744.9145882000448,744.9303364000516,744.9303364000516,744.9303364000516,747.245387300034,,,,747.2521244999953,747.2640259000473,747.2640259000473,747.3112348000286,747.3114601999987,747.3277417999925,747.3277417999925,747.3277417999925,747.4109646000434,747.7781142999884,,,,,,,,,,,,,,,,,,,,,,down,2.30046980001498,None,space,0.44834770006127656,None,P127,001,2025-02-27_14h16.54.501,posner_endo_new1,2024.2.4,59.99253694141748,2025-02-27 14h17.05.395311 +0000,
cube_l.png,0.1,0.31,invalid,38,38,0,down,5.707908499985933,None,space,0.6520703000715002,None,,,,,,,,,0,38,38,38,747.7941243000096,,,,,,,,,,,,,747.7782901000464,747.7941243000096,747.7941243000096,747.7941243000096,753.50565070007,,,,753.5150012000231,753.5271962000988,753.5271962000988,753.5712805000367,753.571710200049,753.5877601000248,753.5877601000248,753.5877601000248,753.6709661000641,754.2550432999851,,,,,,,,,,,,,,,,,,,,,,down,5.707908499985933,None,space,0.6520703000715002,None,P127,001,2025-02-27_14h16.54.501,posner_endo_new1,2024.2.4,59.99253694141748,2025-02-27 14h17.05.395311 +0000,
cube_r.png,0.1,0.31,valid,39,39,0,down,6.5749600999988616,None,space,0.5045590000227094,None,,,,,,,,,0,39,39,39,754.271080100094,,,,,,,,,,,,,754.2552958000451,754.271080100094,754.271080100094,754.271080100094,760.8484381000744,,,,760.8577743000351,760.8680367000634,760.8680367000634,760.913977200049,760.9142852000659,760.9305632000323,760.9305632000323,760.9305632000323,761.0138269000454,761.4477164000273,,,,,,,,,,,,,,,,,,,,,,down,6.5749600999988616,None,space,0.5045590000227094,None,P127,001,2025-02-27_14h16.54.501,posner_endo_new1,2024.2.4,59.99253694141748,2025-02-27 14h17.05.395311 +0000,
cube_l.png,0.1,0.31,invalid,40,40,0,down,5.247339199995622,None,space,0.6347526999888942,None,,,,,,,,,0,40,40,40,761.4633470000699,,,,,,,,,,,,,761.4479669000721,761.4633470000699,761.4633470000699,761.4633470000699,766.7256185000297,,,,766.7348618000979,766.7449485000689,766.7449485000689,766.7913718000054,766.7916805000277,766.8079020000296,766.8079020000296,766.8079020000296,766.891101700021,767.4583130000392,,,,,,,,,,,,,,,,,,,,,,down,5.247339199995622,None,space,0.6347526999888942,None,P127,001,2025-02-27_14h16.54.501,posner_endo_new1,2024.2.4,59.99253694141748,2025-02-27 14h17.05.395311 +0000,
cube_l.png,0.1,10,catch,41,41,0,down,4.741143899969757,None,None,,,,,,,,,,,0,41,41,41,767.4737871000543,,,,,,,,,,,,,767.4585700000171,767.4737871000543,767.4737871000543,767.4737871000543,772.2202058000257,,,,772.2295180000365,772.2397312000394,772.2397312000394,772.2857798000332,772.2860951999901,772.3022224000888,772.3022224000888,772.3022224000888,772.385508300038,775.2999116000719,,,,774.4001728000585,775.3158214000287,775.3158214000287,775.3158214000287,,,,,,,,,,,,,,,down,4.741143899969757,None,None,,,P127,001,2025-02-27_14h16.54.501,posner_endo_new1,2024.2.4,59.99253694141748,2025-02-27 14h17.05.395311 +0000,
cube_l.png,0.1,-0.31,valid,42,42,0,down,2.003625000012107,None,space,0.4378924999618903,None,,,,,,,,,0,42,42,42,775.3158214000287,,,,,,,,,,,,,775.3001462999964,775.3158214000287,775.3158214000287,775.3158214000287,777.3314277000027,,,,777.3407494000858,777.3508894999977,777.3508894999977,777.3971674999921,777.3974693000782,777.4136336999945,777.4136336999945,777.4136336999945,777.4802993000485,777.8642323000822,,,,,,,,,,,,,,,,,,,,,,down,2.003625000012107,None,space,0.4378924999618903,None,P127,001,2025-02-27_14h16.54.501,posner_endo_new1,2024.2.4,59.99253694141748,2025-02-27 14h17.05.395311 +0000,
cube_l.png,0.1,10,catch,43,43,0,down,5.094290899927728,None,None,,,,,,,,,,,0,43,43,43,777.8799833999947,,,,,,,,,,,,,777.8644845000235,777.8799833999947,777.8799833999947,777.8799833999947,782.9757708000252,,,,782.9850774999941,782.9952653000364,782.9952653000364,783.0414965000236,783.0418024000246,783.0579101000912,783.0579101000912,783.0579101000912,783.1411748999963,786.0555471000262,,,,785.1558215999976,786.0715226000175,786.0715226000175,786.0715226000175,,,,,,,,,,,,,,,down,5.094290899927728,None,None,,,P127,001,2025-02-27_14h16.54.501,posner_endo_new1,2024.2.4,59.99253694141748,2025-02-27 14h17.05.395311 +0000,
cube_l.png,0.1,0.31,invalid,44,44,0,down,2.0706382000353187,None,space,0.4733456999529153,None,,,,,,,,,0,44,44,44,786.0715226000175,,,,,,,,,,,,,786.055781400064,786.0715226000175,786.0715226000175,786.0715226000175,788.153773099999,,,,788.1622258999851,788.1722810000647,788.1722810000647,788.2194586000405,788.2196909000631,788.2360006000381,788.2360006000381,788.2360006000381,788.3192800000543,788.7196171000833,,,,,,,,,,,,,,,,,,,,,,down,2.0706382000353187,None,space,0.4733456999529153,None,P127,001,2025-02-27_14h16.54.501,posner_endo_new1,2024.2.4,59.99253694141748,2025-02-27 14h17.05.395311 +0000,
cube_l.png,0.1,0.31,invalid,45,45,0,down,5.439370599924587,None,space,0.5243037999607623,None,,,,,,,,,0,45,45,45,788.735408000066,,,,,,,,,,,,,788.7197984000668,788.735408000066,788.735408000066,788.735408000066,794.1812384000514,,,,794.1931560999947,794.2034458999988,794.2034458999988,794.2466344999848,794.2469803000567,794.2631093000527,794.2631093000527,794.2631093000527,794.3463637999957,794.7971050000051,,,,,,,,,,,,,,,,,,,,,,down,5.439370599924587,None,space,0.5243037999607623,None,P127,001,2025-02-27_14h16.54.501,posner_endo_new1,2024.2.4,59.99253694141748,2025-02-27 14h17.05.395311 +0000,
cube_r.png,0.1,0.31,valid,46,46,0,down,5.16941480000969,None,space,0.40355850011110306,None,,,,,,,,,0,46,46,46,794.8125679000514,,,,,,,,,,,,,794.7973973000189,794.8125679000514,794.8125679000514,794.8125679000514,799.991406599991,,,,799.9985775999958,800.0102513000602,800.0102513000602,800.0574056000914,800.0576294000493,800.0738699000794,800.0738699000794,800.0738699000794,800.1404865999939,800.4965136999963,,,,,,,,,,,,,,,,,,,,,,down,5.16941480000969,None,space,0.40355850011110306,None,P127,001,2025-02-27_14h16.54.501,posner_endo_new1,2024.2.4,59.99253694141748,2025-02-27 14h17.05.395311 +0000,
cube_l.png,0.1,-0.31,valid,47,47,0,down,3.331826200010255,None,space,0.37831939989700913,None,,,,,,,,,0,47,47,47,800.5072727000806,,,,,,,,,,,,,800.4966839000117,800.5072727000806,800.5072727000806,800.5072727000806,803.8541623000056,,,,803.8601842999924,803.8717265999876,803.8717265999876,803.9200963000767,803.9203179000178,803.9366369000636,803.9366369000636,803.9366369000636,804.0031581000658,804.3213100000285,,,,,,,,,,,,,,,,,,,,,,down,3.331826200010255,None,space,0.37831939989700913,None,P127,001,2025-02-27_14h16.54.501,posner_endo_new1,2024.2.4,59.99253694141748,2025-02-27 14h17.05.395311 +0000,
cube_r.png,0.1,-0.31,invalid,48,48,0,down,5.510636699968018,None,space,0.35035049996804446,None,,,,,,,,,0,48,48,48,804.3360676000593,,,,,,,,,,,,,804.3217507000081,804.3360676000593,804.3360676000593,804.3360676000593,809.8487551000435,,,,809.8565034000203,809.8668562000385,809.8668562000385,809.913999499986,809.9142489000224,809.9303764000069,809.9303764000069,809.9303764000069,810.0137787000276,810.2975857000565,,,,,,,,,,,,,,,,,,,,,,down,5.510636699968018,None,space,0.35035049996804446,None,P127,001,2025-02-27_14h16.54.501,posner_endo_new1,2024.2.4,59.99253694141748,2025-02-27 14h17.05.395311 +0000,
cube_r.png,0.1,10,catch,49,49,0,down,4.156784899998456,None,None,,,,,,,,,,,0,49,49,49,810.3135992999887,,,,,,,,,,,,,810.2977839000523,810.3135992999887,810.3135992999887,810.3135992999887,814.4767806000309,,,,814.4893030000385,814.4993394000921,814.4993394000921,814.542193600093,814.5425814000191,814.5586807000218,814.5586807000218,814.5586807000218,814.6419114000164,817.5564093000721,,,,816.656516600051,817.5722471000627,817.5722471000627,817.5722471000627,,,,,,,,,,,,,,,down,4.156784899998456,None,None,,,P127,001,2025-02-27_14h16.54.501,posner_endo_new1,2024.2.4,59.99253694141748,2025-02-27 14h17.05.395311 +0000,
cube_l.png,0.1,-0.31,valid,50,50,0,down,4.362195799942128,None,space,0.3685136999702081,None,,,,,,,,,0,50,50,50,817.5722471000627,,,,,,,,,,,,,817.5567139000632,817.5722471000627,817.5722471000627,817.5722471000627,821.9359457000392,,,,821.9483302000444,821.9583642000798,821.9583642000798,822.0012330000754,822.0016208000015,822.0177142000757,822.0177142000757,822.0177142000757,822.1009640000993,822.401993400068,,,,,,,,,,,,,,,,,,,,,,down,4.362195799942128,None,space,0.3685136999702081,None,P127,001,2025-02-27_14h16.54.501,posner_endo_new1,2024.2.4,59.99253694141748,2025-02-27 14h17.05.395311 +0000,
cube_l.png,0.1,-0.31,valid,51,51,0,down,5.605671599972993,None,space,0.4291297000600025,None,,,,,,,,,0,51,51,51,822.4173172999872,,,,,,,,,,,,,822.4023242000258,822.4173172999872,822.4173172999872,822.4173172999872,828.0296610000078,,,,828.0373578000581,828.0482679000124,828.0482679000124,828.095220200019,828.095479200012,828.1117213000543,828.1117213000543,828.1117213000543,828.1951342000393,828.5458790999837,,,,,,,,,,,,,,,,,,,,,,down,5.605671599972993,None,space,0.4291297000600025,None,P127,001,2025-02-27_14h16.54.501,posner_endo_new1,2024.2.4,59.99253694141748,2025-02-27 14h17.05.395311 +0000,
cube_r.png,0.1,-0.31,invalid,52,52,0,down,5.708898399956524,None,space,0.4062635999871418,None,,,,,,,,,0,52,52,52,828.5615083000157,,,,,,,,,,,,,828.5460872000549,828.5615083000157,828.5615083000157,828.5615083000157,834.273466899991,,,,834.2810904000653,834.2919002000708,834.2919002000708,834.3388857000973,834.3391548000509,834.3555468000704,834.3555468000704,834.3555468000704,834.4386489000171,834.7718447000952,,,,,,,,,,,,,,,,,,,,,,down,5.708898399956524,None,space,0.4062635999871418,None,P127,001,2025-02-27_14h16.54.501,posner_endo_new1,2024.2.4,59.99253694141748,2025-02-27 14h17.05.395311 +0000,
cube_l.png,0.1,-0.31,valid,53,53,0,down,5.762086299946532,None,space,0.39738560002297163,None,,,,,,,,,0,53,53,53,834.7881647000322,,,,,,,,,,,,,834.77201960003,834.7881647000322,834.7881647000322,834.7881647000322,840.5664452000055,,,,840.5723832000513,840.584070000099,840.584070000099,840.6326277999906,840.6328508000588,840.6491221000906,840.6491221000906,840.6491221000906,840.7157188000856,841.0494315000251,,,,,,,,,,,,,,,,,,,,,,down,5.762086299946532,None,space,0.39738560002297163,None,P127,001,2025-02-27_14h16.54.501,posner_endo_new1,2024.2.4,59.99253694141748,2025-02-27 14h17.05.395311 +0000,
cube_r.png,0.1,10,catch,54,54,0,down,5.862070499919355,None,None,,,,,,,,,,,0,54,54,54,841.065370400087,,,,,,,,,,,,,841.0496021000436,841.065370400087,841.065370400087,841.065370400087,846.9435558000114,,,,846.9495881000767,846.9612660000566,846.9612660000566,847.009370499989,847.0098759999964,847.0262422000524,847.0262422000524,847.0262422000524,847.1090995999984,850.0236659999937,,,,849.1237169000087,850.0395290000597,850.0395290000597,850.0395290000597,,,,,,,,,,,,,,,down,5.862070499919355,None,None,,,P127,001,2025-02-27_14h16.54.501,posner_endo_new1,2024.2.4,59.99253694141748,2025-02-27 14h17.05.395311 +0000,
cube_l.png,0.1,0.31,invalid,55,55,0,down,3.663192500011064,None,space,0.5116283000679687,None,,,,,,,,,0,55,55,55,850.0395290000597,,,,,,,,,,,,,850.0239330000477,850.0395290000597,850.0395290000597,850.0395290000597,853.7039025000995,,,,853.7132319000084,853.7229862000095,853.7229862000095,853.769084300031,853.7693394999951,853.7856818999862,853.7856818999862,853.7856818999862,853.8689469000092,854.3028934000758,,,,,,,,,,,,,,,,,,,,,,down,3.663192500011064,None,space,0.5116283000679687,None,P127,001,2025-02-27_14h16.54.501,posner_endo_new1,2024.2.4,59.99253694141748,2025-02-27 14h17.05.395311 +0000,
cube_l.png,0.1,-0.31,valid,56,56,0,down,5.696591199957766,None,space,0.3651209999807179,None,,,,,,,,,0,56,56,56,854.3184959000209,,,,,,,,,,,,,854.3030777000822,854.3184959000209,854.3184959000209,854.3184959000209,860.0301814000122,,,,860.0372326000361,860.0489521999843,860.0489521999843,860.0959953999845,860.096218300052,860.1125425000209,860.1125425000209,860.1125425000209,860.1957784000551,860.4796319000889,,,,,,,,,,,,,,,,,,,,,,down,5.696591199957766,None,space,0.3651209999807179,None,P127,001,2025-02-27_14h16.54.501,posner_endo_new1,2024.2.4,59.99253694141748,2025-02-27 14h17.05.395311 +0000,
cube_r.png,0.1,0.31,valid,57,57,0,down,3.950915199937299,None,space,0.45881089998874813,None,,,,,,,,,0,57,57,57,860.4956205000635,,,,,,,,,,,,,860.4798056000145,860.4956205000635,860.4956205000635,860.4956205000635,864.4587972000008,,,,864.4647299000062,864.4764116000151,864.4764116000151,864.5247642000904,864.5252643000567,864.5412248000503,864.5412248000503,864.5412248000503,864.6077971000923,865.0091972000664,,,,,,,,,,,,,,,,,,,,,,down,3.950915199937299,None,space,0.45881089998874813,None,P127,001,2025-02-27_14h16.54.501,posner_endo_new1,2024.2.4,59.99253694141748,2025-02-27 14h17.05.395311 +0000,
cube_r.png,0.1,-0.31,invalid,58,58,0,down,5.006887599942274,None,space,0.42158540000673383,None,,,,,,,,,0,58,58,58,865.0240275000688,,,,,,,,,,,,,865.0096465999959,865.0240275000688,865.0240275000688,865.0240275000688,870.0368961000349,,,,870.048449199996,870.0587821000954,870.0587821000954,870.1025127000175,870.1028683000477,870.119057700038,870.119057700038,870.119057700038,870.2022677999921,870.5531036000466,,,,,,,,,,,,,,,,,,,,,,down,5.006887599942274,None,space,0.42158540000673383,None,P127,001,2025-02-27_14h16.54.501,posner_endo_new1,2024.2.4,59.99253694141748,2025-02-27 14h17.05.395311 +0000,
cube_l.png,0.1,0.31,invalid,59,59,0,down,3.5976603999733925,None,space,0.4282301999628544,None,,,,,,,,,0,59,59,59,870.5684995000483,,,,,,,,,,,,,870.553390200017,870.5684995000483,870.5684995000483,870.5684995000483,874.1827125999844,,,,874.1940123999957,874.2040065000765,874.2040065000765,874.2482934000436,874.2486332000699,874.2647574000293,874.2647574000293,874.2647574000293,874.3479269000236,874.69893459999,,,,,,,,,,,,,,,,,,,,,,down,3.5976603999733925,None,space,0.4282301999628544,None,P127,001,2025-02-27_14h16.54.501,posner_endo_new1,2024.2.4,59.99253694141748,2025-02-27 14h17.05.395311 +0000,
