cue_img,cue_soa,target_x,trial,thisN,thisTrialN,thisRepN,key_control2.keys,key_control2.rt,key_control2.duration,key_resp.keys,key_resp.rt,key_resp.duration,practice.thisRepN,practice.thisTrialN,practice.thisN,practice.thisIndex,block1.thisRepN,block1.thisTrialN,block1.thisN,block1.thisIndex,block2.thisRepN,block2.thisTrialN,block2.thisN,block2.thisIndex,thisRow.t,notes,instructions.started,instructions_txt.started,key_control.started,instructions.stopped,key_control.keys,key_control.rt,key_control.duration,ready.started,ready_txt.started,ready_txt.stopped,ready.stopped,fix.started,fixation.started,key_control2.started,fixation_cross.started,fix.stopped,practice.key_control2.keys,practice.key_control2.rt,practice.key_control2.duration,cue.started,cube.started,fixation_cross_cue.started,cue.stopped,target.started,fixation_target.started,fixation_cross_target.started,key_resp.started,star.started,target.stopped,practice.key_resp.keys,practice.key_resp.rt,practice.key_resp.duration,star.stopped,fixation_target.stopped,fixation_cross_target.stopped,key_resp.stopped,block1.key_control2.keys,block1.key_control2.rt,block1.key_control2.duration,block1.key_resp.keys,block1.key_resp.rt,block1.key_resp.duration,break_2.started,text.started,key_control3.started,text.stopped,break_2.stopped,key_control3.keys,key_control3.rt,key_control3.duration,block2.key_control2.keys,block2.key_control2.rt,block2.key_control2.duration,block2.key_resp.keys,block2.key_resp.rt,block2.key_resp.duration,participant,session,date,expName,psychopyVersion,frameRate,expStart,
,,,,,,,,,,,,,,,,,,,,,,,,,,,0.007402800023555756,0.02975049999076873,0.02975049999076873,25.08608739997726,up,25.033694899990223,None,,,,,,,,,,,,,,,,,,,,,,,,,,,,,,,,,,,,,,,,,,,,,,,,,,P128,001,2025-02-27_14h57.37.099,posner_endo_new1,2024.2.4,59.92638643842964,2025-02-27 14h57.48.541637 +0000,
,,,,,,,,,,,,,,,,,,,,,,,,,,,,,,,,,,25.086248600040562,25.0983005000744,28.115873800008558,28.071970300050452,,,,,,,,,,,,,,,,,,,,,,,,,,,,,,,,,,,,,,,,,,,,,,P128,001,2025-02-27_14h57.37.099,posner_endo_new1,2024.2.4,59.92638643842964,2025-02-27 14h57.48.541637 +0000,
cube_l.png,0.1,-0.31,valid,0,0,0,down,13.699307200033218,None,space,0.2826819000765681,None,0,0,0,0,,,,,,,,,28.115873800008558,,,,,,,,,,,,,28.10070770001039,28.115873800008558,28.115873800008558,28.115873800008558,41.82409390003886,down,13.699307200033218,None,41.84080410003662,41.85239170002751,41.85239170002751,41.889727400033735,41.88994799996726,41.90630440006498,41.90630440006498,41.90630440006498,41.989639200037345,42.19019500003196,space,0.2826819000765681,None,,,,,,,,,,,,,,,,,,,,,,,,,P128,001,2025-02-27_14h57.37.099,posner_endo_new1,2024.2.4,59.92638643842964,2025-02-27 14h57.48.541637 +0000,
cube_l.png,0.1,0.31,invalid,1,1,0,down,4.544947099988349,None,space,0.3516172000672668,None,0,1,1,1,,,,,,,,,42.20607720001135,,,,,,,,,,,,,42.19036310003139,42.20607720001135,42.20607720001135,42.20607720001135,46.752681000041775,down,4.544947099988349,None,46.76456929999404,46.77483830007259,46.77483830007259,46.81802250002511,46.818362900055945,46.83458939997945,46.83458939997945,46.83458939997945,46.91774499998428,47.20152420003433,space,0.3516172000672668,None,,,,,,,,,,,,,,,,,,,,,,,,,P128,001,2025-02-27_14h57.37.099,posner_endo_new1,2024.2.4,59.92638643842964,2025-02-27 14h57.48.541637 +0000,
cube_r.png,0.1,-0.31,invalid,2,2,0,down,9.29314029996749,None,space,0.3018181000370532,None,0,2,2,2,,,,,,,,,47.21762500004843,,,,,,,,,,,,,47.201688800007105,47.21762500004843,47.21762500004843,47.21762500004843,56.525436399970204,down,9.29314029996749,None,56.531658299965784,56.54325129999779,56.54325129999779,56.59145519998856,56.591680200072005,56.607919099973515,56.607919099973515,56.607919099973515,56.674577399971895,56.92496410000604,space,0.3018181000370532,None,,,,,,,,,,,,,,,,,,,,,,,,,P128,001,2025-02-27_14h57.37.099,posner_endo_new1,2024.2.4,59.92638643842964,2025-02-27 14h57.48.541637 +0000,
cube_r.png,0.1,10,catch,3,3,0,down,21.434039099956863,None,None,,,0,3,3,3,,,,,,,,,56.94100510003045,,,,,,,,,,,,,56.925128099974245,56.94100510003045,56.94100510003045,56.94100510003045,78.38657950004563,down,21.434039099956863,None,78.39923330000602,78.40929109998979,78.40929109998979,78.45234690001234,78.45260319998488,78.46897420007735,78.46897420007735,78.46897420007735,78.55214739998337,81.46630780003034,None,,,80.56686010002159,81.48251640005037,81.48251640005037,81.48251640005037,,,,,,,,,,,,,,,,,,,,,P128,001,2025-02-27_14h57.37.099,posner_endo_new1,2024.2.4,59.92638643842964,2025-02-27 14h57.48.541637 +0000,
cube_l.png,0.1,-0.31,valid,4,4,0,down,1.8210017000092193,None,space,0.4539397000335157,None,0,4,4,4,,,,,,,,,81.48251640005037,,,,,,,,,,,,,81.46650199999567,81.48251640005037,81.48251640005037,81.48251640005037,83.31492979999166,down,1.8210017000092193,None,83.32728980004322,83.33735000004526,83.33735000004526,83.38031989999581,83.38071840000339,83.39679390005767,83.39679390005767,83.39679390005767,83.48004000005312,83.8643885999918,space,0.4539397000335157,None,,,,,,,,,,,,,,,,,,,,,,,,,P128,001,2025-02-27_14h57.37.099,posner_endo_new1,2024.2.4,59.92638643842964,2025-02-27 14h57.48.541637 +0000,
cube_l.png,0.1,0.31,invalid,5,5,0,down,5.168013699934818,None,space,0.3284754999913275,None,0,5,5,5,,,,,,,,,83.87961599999107,,,,,,,,,,,,,83.86470959999133,83.87961599999107,83.87961599999107,83.87961599999107,89.05899489996955,down,5.168013699934818,None,89.07143490004819,89.08148010005243,89.08148010005243,89.12446720001753,89.1248489000136,89.1409321000101,89.1409321000101,89.1409321000101,89.2242086000042,89.47529770003166,space,0.3284754999913275,None,,,,,,,,,,,,,,,,,,,,,,,,,P128,001,2025-02-27_14h57.37.099,posner_endo_new1,2024.2.4,59.92638643842964,2025-02-27 14h57.48.541637 +0000,
cube_r.png,0.1,-0.31,invalid,6,6,0,down,5.932334700017236,None,space,0.33294929994735867,None,0,6,6,6,,,,,,,,,89.49059870000929,,,,,,,,,,,,,89.47561409999616,89.49059870000929,89.49059870000929,89.49059870000929,95.43581549997907,down,5.932334700017236,None,95.44817700004205,95.45824299997184,95.45824299997184,95.50127410003915,95.5016530000139,95.51774210005533,95.51774210005533,95.51774210005533,95.6009866000386,95.85226670000702,space,0.33294929994735867,None,,,,,,,,,,,,,,,,,,,,,,,,,P128,001,2025-02-27_14h57.37.099,posner_endo_new1,2024.2.4,59.92638643842964,2025-02-27 14h57.48.541637 +0000,
cube_r.png,0.1,0.31,valid,7,7,0,down,4.339935899944976,None,space,0.34717590000946075,None,0,7,7,7,,,,,,,,,95.86739150003996,,,,,,,,,,,,,95.85258409997914,95.86739150003996,95.86739150003996,95.86739150003996,100.21431339997798,down,4.339935899944976,None,100.22242760006338,100.23312600003555,100.23312600003555,100.28016089997254,100.28043340006843,100.29671400005464,100.29671400005464,100.29671400005464,100.37970719998702,100.64718159998301,space,0.34717590000946075,None,,,,,,,,,,,,,,,,,,,,,,,,,P128,001,2025-02-27_14h57.37.099,posner_endo_new1,2024.2.4,59.92638643842964,2025-02-27 14h57.48.541637 +0000,
cube_l.png,0.1,-0.31,valid,8,8,0,down,5.63268809998408,None,space,0.25531919999048114,None,0,8,8,8,,,,,,,,,100.6628513999749,,,,,,,,,,,,,100.64740250003524,100.6628513999749,100.6628513999749,100.6628513999749,106.3081490000477,down,5.63268809998408,None,106.31648789998144,106.32688519998919,106.32688519998919,106.37391500000376,106.37419830006547,106.3904444000218,106.3904444000218,106.3904444000218,106.47357290005311,106.65765599999577,space,0.25531919999048114,None,,,,,,,,,,,,,,,,,,,,,,,,,P128,001,2025-02-27_14h57.37.099,posner_endo_new1,2024.2.4,59.92638643842964,2025-02-27 14h57.48.541637 +0000,
cube_r.png,0.1,-0.31,invalid,9,9,0,down,5.526573000010103,None,space,0.32759860006626695,None,0,9,9,9,,,,,,,,,106.67346419999376,,,,,,,,,,,,,106.65788060007617,106.67346419999376,106.67346419999376,106.67346419999376,112.20212829997763,down,5.526573000010103,None,112.21024200005922,112.22079900000244,112.22079900000244,112.26783680007793,112.26811240008101,112.28437150001992,112.28437150001992,112.28437150001992,112.36770729999989,112.61840440006927,space,0.32759860006626695,None,,,,,,,,,,,,,,,,,,,,,,,,,P128,001,2025-02-27_14h57.37.099,posner_endo_new1,2024.2.4,59.92638643842964,2025-02-27 14h57.48.541637 +0000,
cube_r.png,0.1,0.31,valid,10,10,0,down,5.997639400069602,None,space,0.23089890007395297,None,0,10,10,10,,,,,,,,,112.63391690002754,,,,,,,,,,,,,112.61862459999975,112.63391690002754,112.63391690002754,112.63391690002754,118.64552340004593,down,5.997639400069602,None,118.65366179996636,118.66415660001803,118.66415660001803,118.71133249998093,118.71160709997639,118.72791440004949,118.72791440004949,118.72791440004949,118.81100700004026,118.96180110005662,space,0.23089890007395297,None,,,,,,,,,,,,,,,,,,,,,,,,,P128,001,2025-02-27_14h57.37.099,posner_endo_new1,2024.2.4,59.92638643842964,2025-02-27 14h57.48.541637 +0000,
,,,,,,,,,,,,,,,,,,,,,,,,,,,,,,,,,,118.96194219996687,118.9776162999915,121.98655420006253,121.9583822999848,,,,,,,,,,,,,,,,,,,,,,,,,,,,,,,,,,,,,,,,,,,,,,P128,001,2025-02-27_14h57.37.099,posner_endo_new1,2024.2.4,59.92638643842964,2025-02-27 14h57.48.541637 +0000,
cube_l.png,0.1,10,catch,0,0,0,down,6.468785600038245,None,None,,,,,,,0,0,0,0,,,,,121.98655420006253,,,,,,,,,,,,,121.9777736000251,121.98655420006253,121.98655420006253,121.98655420006253,128.46873179997783,,,,128.47687240003143,128.48748959996738,128.48748959996738,128.53443920006976,128.53471869998612,128.55110859998967,128.55110859998967,128.55110859998967,128.63430550007615,131.5486767999828,,,,130.64894240000285,131.56466210004874,131.56466210004874,131.56466210004874,down,6.468785600038245,None,None,,,,,,,,,,,,,,,,,P128,001,2025-02-27_14h57.37.099,posner_endo_new1,2024.2.4,59.92638643842964,2025-02-27 14h57.48.541637 +0000,
cube_l.png,0.1,10,catch,1,1,0,down,3.707069900003262,None,None,,,,,,,0,1,1,1,,,,,131.56466210004874,,,,,,,,,,,,,131.5489016000647,131.56466210004874,131.56466210004874,131.56466210004874,135.27855090005323,,,,135.2866667000344,135.29722469998524,135.29722469998524,135.34427770006005,135.34455330006313,135.36078109999653,135.36078109999653,135.36078109999653,135.44403740006965,138.35837799997535,,,,137.45876639999915,138.3744075000286,138.3744075000286,138.3744075000286,down,3.707069900003262,None,None,,,,,,,,,,,,,,,,,P128,001,2025-02-27_14h57.37.099,posner_endo_new1,2024.2.4,59.92638643842964,2025-02-27 14h57.48.541637 +0000,
cube_l.png,0.1,0.31,invalid,2,2,0,down,1.6327795999823138,None,space,0.3841159000294283,None,,,,,0,2,2,2,,,,,138.3744075000286,,,,,,,,,,,,,138.3585957000032,138.3744075000286,138.3744075000286,138.3744075000286,140.02371940005105,,,,140.0318345000269,140.04240839998238,140.04240839998238,140.0894246000098,140.08969619998243,140.10604790004436,140.10604790004436,140.10604790004436,140.18918910005596,140.50635370006785,,,,,,,,down,1.6327795999823138,None,space,0.3841159000294283,None,,,,,,,,,,,,,,,P128,001,2025-02-27_14h57.37.099,posner_endo_new1,2024.2.4,59.92638643842964,2025-02-27 14h57.48.541637 +0000,
cube_l.png,0.1,0.31,invalid,3,3,0,down,9.94900709996,None,space,0.43426339991856366,None,,,,,0,3,3,3,,,,,140.52212219999637,,,,,,,,,,,,,140.50657960004173,140.52212219999637,140.52212219999637,140.52212219999637,150.47977169998921,,,,150.4880965000484,150.49839470000006,150.49839470000006,150.54548450000584,150.54576850007288,150.5618720999919,150.5618720999919,150.5618720999919,150.64508499996737,151.01245779998135,,,,,,,,down,9.94900709996,None,space,0.43426339991856366,None,,,,,,,,,,,,,,,P128,001,2025-02-27_14h57.37.099,posner_endo_new1,2024.2.4,59.92638643842964,2025-02-27 14h57.48.541637 +0000,
cube_l.png,0.1,-0.31,valid,4,4,0,down,4.827477799961343,None,space,0.3818049000110477,None,,,,,0,4,4,4,,,,,151.028086300008,,,,,,,,,,,,,151.01269920007326,151.028086300008,151.028086300008,151.028086300008,155.8574840000365,,,,155.86573459999636,155.87621100002434,155.87621100002434,155.9232922999654,155.92358120006975,155.93978320003953,155.93978320003953,155.93978320003953,156.02295999997295,156.32386730005965,,,,,,,,down,4.827477799961343,None,space,0.3818049000110477,None,,,,,,,,,,,,,,,P128,001,2025-02-27_14h57.37.099,posner_endo_new1,2024.2.4,59.92638643842964,2025-02-27 14h57.48.541637 +0000,
cube_r.png,0.1,-0.31,invalid,5,5,0,down,4.804138800012879,None,space,0.30507449992001057,None,,,,,0,5,5,5,,,,,156.33929490006994,,,,,,,,,,,,,156.32410019997042,156.33929490006994,156.33929490006994,156.33929490006994,161.15209440002218,,,,161.1602292000316,161.1707282999996,161.1707282999996,161.21778379997704,161.21806710003875,161.23432759998832,161.23432759998832,161.23432759998832,161.3176145000616,161.5516119999811,,,,,,,,down,4.804138800012879,None,space,0.30507449992001057,None,,,,,,,,,,,,,,,P128,001,2025-02-27_14h57.37.099,posner_endo_new1,2024.2.4,59.92638643842964,2025-02-27 14h57.48.541637 +0000,
cube_r.png,0.1,0.31,valid,6,6,0,down,5.912605299963616,None,space,0.32388279994484037,None,,,,,0,6,6,6,,,,,161.56731680000667,,,,,,,,,,,,,161.55183890007902,161.56731680000667,161.56731680000667,161.56731680000667,167.495647200034,,,,167.5039729999844,167.51422700006515,167.51422700006515,167.56134320003912,167.56162689998746,167.5778170999838,167.5778170999838,167.5778170999838,167.64444259996526,167.91197030001786,,,,,,,,down,5.912605299963616,None,space,0.32388279994484037,None,,,,,,,,,,,,,,,P128,001,2025-02-27_14h57.37.099,posner_endo_new1,2024.2.4,59.92638643842964,2025-02-27 14h57.48.541637 +0000,
cube_r.png,0.1,-0.31,invalid,7,7,0,down,7.231443099910393,None,space,0.32883619994390756,None,,,,,0,7,7,7,,,,,167.92751509998925,,,,,,,,,,,,,167.91219900001306,167.92751509998925,167.92751509998925,167.92751509998925,175.17122350004502,,,,175.17948970000725,175.18978929996956,175.18978929996956,175.23698559997138,175.23753549996763,175.25340160005726,175.25340160005726,175.25340160005726,175.33664550003596,175.58849560003728,,,,,,,,down,7.231443099910393,None,space,0.32883619994390756,None,,,,,,,,,,,,,,,P128,001,2025-02-27_14h57.37.099,posner_endo_new1,2024.2.4,59.92638643842964,2025-02-27 14h57.48.541637 +0000,
cube_l.png,0.1,-0.31,valid,8,8,0,down,6.94005659990944,None,space,0.2887183000566438,None,,,,,0,8,8,8,,,,,175.6030512000434,,,,,,,,,,,,,175.58898670005146,175.6030512000434,175.6030512000434,175.6030512000434,182.5479866999667,,,,182.5660910999868,182.57756320002954,182.57756320002954,182.61273960000835,182.6130871999776,182.62921859999187,182.62921859999187,182.62921859999187,182.7124115000479,182.93002089997754,,,,,,,,down,6.94005659990944,None,space,0.2887183000566438,None,,,,,,,,,,,,,,,P128,001,2025-02-27_14h57.37.099,posner_endo_new1,2024.2.4,59.92638643842964,2025-02-27 14h57.48.541637 +0000,
cube_r.png,0.1,-0.31,invalid,9,9,0,down,4.534051000024192,None,space,0.3341226999182254,None,,,,,0,9,9,9,,,,,182.94550979998894,,,,,,,,,,,,,182.93031089997385,182.94550979998894,182.94550979998894,182.94550979998894,187.49203830002807,,,,187.50044380000327,187.51046140003018,187.51046140003018,187.55764860007912,187.55788680003025,187.57415420003235,187.57415420003235,187.57415420003235,187.65739519998897,187.9244567999849,,,,,,,,down,4.534051000024192,None,space,0.3341226999182254,None,,,,,,,,,,,,,,,P128,001,2025-02-27_14h57.37.099,posner_endo_new1,2024.2.4,59.92638643842964,2025-02-27 14h57.48.541637 +0000,
cube_l.png,0.1,0.31,invalid,10,10,0,down,5.594947199919261,None,space,0.288613099954091,None,,,,,0,10,10,10,,,,,187.94039530004375,,,,,,,,,,,,,187.9246417999966,187.94039530004375,187.94039530004375,187.94039530004375,193.55286240007263,,,,193.5696595000336,193.58036310004536,193.58036310004536,193.61804560001474,193.61836359999143,193.6346813000273,193.6346813000273,193.6346813000273,193.71784379996825,193.93589780002367,,,,,,,,down,5.594947199919261,None,space,0.288613099954091,None,,,,,,,,,,,,,,,P128,001,2025-02-27_14h57.37.099,posner_endo_new1,2024.2.4,59.92638643842964,2025-02-27 14h57.48.541637 +0000,
cube_r.png,0.1,-0.31,invalid,11,11,0,down,6.1618172999005765,None,space,0.29222189995925874,None,,,,,0,11,11,11,,,,,193.9507913000416,,,,,,,,,,,,,193.93634600006044,193.9507913000416,193.9507913000416,193.9507913000416,200.1295522999717,,,,200.14075300004333,200.150761900004,200.150761900004,200.1945889000781,200.19492759997956,200.21119770000223,200.21119770000223,200.21119770000223,200.2944544000784,200.5121525999857,,,,,,,,down,6.1618172999005765,None,space,0.29222189995925874,None,,,,,,,,,,,,,,,P128,001,2025-02-27_14h57.37.099,posner_endo_new1,2024.2.4,59.92638643842964,2025-02-27 14h57.48.541637 +0000,
cube_r.png,0.1,0.31,valid,12,12,0,down,8.639850899926387,None,space,0.4054895000299439,None,,,,,0,12,12,12,,,,,200.52763110003434,,,,,,,,,,,,,200.51244880002923,200.52763110003434,200.52763110003434,200.52763110003434,209.17003230005503,,,,209.18114860006608,209.19158029998653,209.19158029998653,209.23545480007306,209.23579730000347,209.25205800007097,209.25205800007097,209.25205800007097,209.33515489997808,209.66930329997558,,,,,,,,down,8.639850899926387,None,space,0.4054895000299439,None,,,,,,,,,,,,,,,P128,001,2025-02-27_14h57.37.099,posner_endo_new1,2024.2.4,59.92638643842964,2025-02-27 14h57.48.541637 +0000,
cube_l.png,0.1,10,catch,13,13,0,down,6.330445899977349,None,space,0.31153029995039105,None,,,,,0,13,13,13,,,,,209.6849192000227,,,,,,,,,,,,,209.66960190003738,209.6849192000227,209.6849192000227,209.6849192000227,216.0297010000795,,,,216.04096530005336,216.05153110006358,216.05153110006358,216.0951453000307,216.0955048999749,216.11172030004673,216.11172030004673,216.11172030004673,216.19494580000173,216.42945290007629,,,,,,,,down,6.330445899977349,None,space,0.31153029995039105,None,,,,,,,,,,,,,,,P128,001,2025-02-27_14h57.37.099,posner_endo_new1,2024.2.4,59.92638643842964,2025-02-27 14h57.48.541637 +0000,
cube_r.png,0.1,-0.31,invalid,14,14,0,down,5.938203800003976,None,space,0.44987879996187985,None,,,,,0,14,14,14,,,,,216.44475590006914,,,,,,,,,,,,,216.4297488000011,216.44475590006914,216.44475590006914,216.44475590006914,222.38969710003585,,,,222.40079290000722,222.41107709996868,222.41107709996868,222.4554274000693,222.4557731000241,222.47174910001922,222.47174910001922,222.47174910001922,222.5551098000724,222.92286010005046,,,,,,,,down,5.938203800003976,None,space,0.44987879996187985,None,,,,,,,,,,,,,,,P128,001,2025-02-27_14h57.37.099,posner_endo_new1,2024.2.4,59.92638643842964,2025-02-27 14h57.48.541637 +0000,
cube_l.png,0.1,-0.31,valid,15,15,0,down,6.1893052000086755,None,space,0.4447229999350384,None,,,,,0,15,15,15,,,,,222.93802720005624,,,,,,,,,,,,,222.92316160001792,222.93802720005624,222.93802720005624,222.93802720005624,229.13255600002594,,,,229.13983910006937,229.1513258999912,229.1513258999912,229.1983792000683,229.1986366000492,229.21486539999023,229.21486539999023,229.21486539999023,229.28154380002525,229.66527270001825,,,,,,,,down,6.1893052000086755,None,space,0.4447229999350384,None,,,,,,,,,,,,,,,P128,001,2025-02-27_14h57.37.099,posner_endo_new1,2024.2.4,59.92638643842964,2025-02-27 14h57.48.541637 +0000,
cube_r.png,0.1,10,catch,16,16,0,down,2.494398699956946,None,None,,,,,,,0,16,16,16,,,,,229.68093829997815,,,,,,,,,,,,,229.6654757000506,229.68093829997815,229.68093829997815,229.68093829997815,232.17958800005727,,,,232.18679900001734,232.1981713999994,232.1981713999994,232.24541910004336,232.24568399996497,232.26185360003728,232.26185360003728,232.26185360003728,232.34519050002564,235.2593615000369,,,,234.35964320006315,235.27538040000945,235.27538040000945,235.27538040000945,down,2.494398699956946,None,None,,,,,,,,,,,,,,,,,P128,001,2025-02-27_14h57.37.099,posner_endo_new1,2024.2.4,59.92638643842964,2025-02-27 14h57.48.541637 +0000,
cube_r.png,0.1,10,catch,17,17,0,down,3.7960525000235066,None,None,,,,,,,0,17,17,17,,,,,235.27538040000945,,,,,,,,,,,,,235.25955419999082,235.27538040000945,235.27538040000945,235.27538040000945,239.07256950007286,,,,239.07985910004936,239.091155000031,239.091155000031,239.13841150002554,239.13865780003835,239.15498860005755,239.15498860005755,239.15498860005755,239.23804289998952,242.152196799987,,,,241.25272950006183,242.16834360000212,242.16834360000212,242.16834360000212,down,3.7960525000235066,None,None,,,,,,,,,,,,,,,,,P128,001,2025-02-27_14h57.37.099,posner_endo_new1,2024.2.4,59.92638643842964,2025-02-27 14h57.48.541637 +0000,
cube_l.png,0.1,0.31,invalid,18,18,0,down,5.326832000049762,None,space,0.34828090004157275,None,,,,,0,18,18,18,,,,,242.16834360000212,,,,,,,,,,,,,242.15238900005352,242.16834360000212,242.16834360000212,242.16834360000212,247.4972552000545,,,,247.50430620007683,247.51629110006616,247.51629110006616,247.56290909997188,247.5631547999801,247.57946530007757,247.57946530007757,247.57946530007757,247.6628118000226,247.93001750006806,,,,,,,,down,5.326832000049762,None,space,0.34828090004157275,None,,,,,,,,,,,,,,,P128,001,2025-02-27_14h57.37.099,posner_endo_new1,2024.2.4,59.92638643842964,2025-02-27 14h57.48.541637 +0000,
cube_l.png,0.1,10,catch,19,19,0,down,7.125356300035492,None,None,,,,,,,0,19,19,19,,,,,247.9458424000768,,,,,,,,,,,,,247.93022169999313,247.9458424000768,247.9458424000768,247.9458424000768,255.07293320004828,,,,255.08020219998434,255.09153420000803,255.09153420000803,255.1386551000178,255.13891340000555,255.1552080999827,255.1552080999827,255.1552080999827,255.23827940004412,258.15366750000976,,,,257.25320110004395,258.168897000025,258.168897000025,258.168897000025,down,7.125356300035492,None,None,,,,,,,,,,,,,,,,,P128,001,2025-02-27_14h57.37.099,posner_endo_new1,2024.2.4,59.92638643842964,2025-02-27 14h57.48.541637 +0000,
cube_l.png,0.1,0.31,invalid,20,20,0,down,2.3422092999098822,None,space,0.3967547999927774,None,,,,,0,20,20,20,,,,,258.168897000025,,,,,,,,,,,,,258.15422999998555,258.168897000025,258.168897000025,258.168897000025,260.51891610003076,,,,260.5411118000047,260.553918599966,260.553918599966,260.58298399997875,260.5832876000786,260.599375699996,260.599375699996,260.599375699996,260.68281979998574,261.00023070001043,,,,,,,,down,2.3422092999098822,None,space,0.3967547999927774,None,,,,,,,,,,,,,,,P128,001,2025-02-27_14h57.37.099,posner_endo_new1,2024.2.4,59.92638643842964,2025-02-27 14h57.48.541637 +0000,
cube_l.png,0.1,-0.31,valid,21,21,0,down,8.127898800070398,None,space,0.31117850006558,None,,,,,0,21,21,21,,,,,261.0157331000082,,,,,,,,,,,,,261.0004900000058,261.0157331000082,261.0157331000082,261.0157331000082,269.15997909998987,,,,269.1821768999798,269.19376340007875,269.19376340007875,269.22379560000263,269.22418829996604,269.24026400002185,269.24026400002185,269.24026400002185,269.32349890004843,269.5580065000104,,,,,,,,down,8.127898800070398,None,space,0.31117850006558,None,,,,,,,,,,,,,,,P128,001,2025-02-27_14h57.37.099,posner_endo_new1,2024.2.4,59.92638643842964,2025-02-27 14h57.48.541637 +0000,
cube_r.png,0.1,0.31,valid,22,22,0,down,7.065758700016886,None,space,0.3165249000303447,None,,,,,0,22,22,22,,,,,269.5732653000159,,,,,,,,,,,,,269.55834450002294,269.5732653000159,269.5732653000159,269.5732653000159,276.6507477000123,,,,276.663329300005,276.6734762999695,276.6734762999695,276.71620809996966,276.7165998000419,276.73265280004125,276.73265280004125,276.73265280004125,276.8158939999994,277.05058709997684,,,,,,,,down,7.065758700016886,None,space,0.3165249000303447,None,,,,,,,,,,,,,,,P128,001,2025-02-27_14h57.37.099,posner_endo_new1,2024.2.4,59.92638643842964,2025-02-27 14h57.48.541637 +0000,
cube_r.png,0.1,-0.31,invalid,23,23,0,down,6.87809140002355,None,space,0.5387368999654427,None,,,,,0,23,23,23,,,,,277.06564240006264,,,,,,,,,,,,,277.05092189996503,277.06564240006264,277.06564240006264,277.06564240006264,283.9599469000241,,,,283.97239610005636,283.98212170007173,283.98212170007173,284.0253376000328,284.02572729997337,284.04181109997444,284.04181109997444,284.04181109997444,284.12507960002404,284.59273050003685,,,,,,,,down,6.87809140002355,None,space,0.5387368999654427,None,,,,,,,,,,,,,,,P128,001,2025-02-27_14h57.37.099,posner_endo_new1,2024.2.4,59.92638643842964,2025-02-27 14h57.48.541637 +0000,
cube_r.png,0.1,0.31,valid,24,24,0,down,5.487076799967326,None,space,0.3241929999785498,None,,,,,0,24,24,24,,,,,284.6079451000551,,,,,,,,,,,,,284.5930757999886,284.6079451000551,284.6079451000551,284.6079451000551,290.10357839998323,,,,290.11167979997117,290.1222875000676,290.1222875000676,290.1693505999865,290.1696218000725,290.1859287000261,290.1859287000261,290.1859287000261,290.26921060006134,290.51996579999104,,,,,,,,down,5.487076799967326,None,space,0.3241929999785498,None,,,,,,,,,,,,,,,P128,001,2025-02-27_14h57.37.099,posner_endo_new1,2024.2.4,59.92638643842964,2025-02-27 14h57.48.541637 +0000,
cube_r.png,0.1,-0.31,invalid,25,25,0,down,6.07975570007693,None,space,0.4319129000650719,None,,,,,0,25,25,25,,,,,290.5356556000188,,,,,,,,,,,,,290.5201948999893,290.5356556000188,290.5356556000188,290.5356556000188,296.63028360006865,,,,296.6385600999929,296.6490601999685,296.6490601999685,296.69618319999427,296.69648909999523,296.7126350000035,296.7126350000035,296.7126350000035,296.7959327000426,297.14664459996857,,,,,,,,down,6.07975570007693,None,space,0.4319129000650719,None,,,,,,,,,,,,,,,P128,001,2025-02-27_14h57.37.099,posner_endo_new1,2024.2.4,59.92638643842964,2025-02-27 14h57.48.541637 +0000,
cube_l.png,0.1,-0.31,valid,26,26,0,down,5.941241399967112,None,space,0.3273613000055775,None,,,,,0,26,26,26,,,,,297.1622672000667,,,,,,,,,,,,,297.14687459997367,297.1622672000667,297.1622672000667,297.1622672000667,303.10723029996734,,,,303.1155031999806,303.1258382999804,303.1258382999804,303.1728615000611,303.17314880003687,303.1893435000675,303.1893435000675,303.1893435000675,303.2726332000457,303.5234864000231,,,,,,,,down,5.941241399967112,None,space,0.3273613000055775,None,,,,,,,,,,,,,,,P128,001,2025-02-27_14h57.37.099,posner_endo_new1,2024.2.4,59.92638643842964,2025-02-27 14h57.48.541637 +0000,
cube_r.png,0.1,0.31,valid,27,27,0,down,5.756371000083163,None,space,0.29933269997127354,None,,,,,0,27,27,27,,,,,303.538912500022,,,,,,,,,,,,,303.52372689999174,303.538912500022,303.538912500022,303.538912500022,309.3009568999987,,,,309.3091521000024,309.3194924000418,309.3194924000418,309.3665249000769,309.3668021999765,309.38299549999647,309.38299549999647,309.38299549999647,309.46634300006554,309.6839149000589,,,,,,,,down,5.756371000083163,None,space,0.29933269997127354,None,,,,,,,,,,,,,,,P128,001,2025-02-27_14h57.37.099,posner_endo_new1,2024.2.4,59.92638643842964,2025-02-27 14h57.48.541637 +0000,
cube_r.png,0.1,10,catch,28,28,0,down,7.677238499978557,None,space,0.38631989993155,None,,,,,0,28,28,28,,,,,309.69926490006037,,,,,,,,,,,,,309.68414500006475,309.69926490006037,309.69926490006037,309.69926490006037,317.3923659999855,,,,317.4007397000678,317.41122360003646,317.41122360003646,317.4582453999901,317.4585275000427,317.47456760006025,317.47456760006025,317.47456760006025,317.5580408000387,317.8753436000552,,,,,,,,down,7.677238499978557,None,space,0.38631989993155,None,,,,,,,,,,,,,,,P128,001,2025-02-27_14h57.37.099,posner_endo_new1,2024.2.4,59.92638643842964,2025-02-27 14h57.48.541637 +0000,
cube_r.png,0.1,0.31,valid,29,29,0,down,6.532233300036751,None,space,0.4107820000499487,None,,,,,0,29,29,29,,,,,317.89104889996815,,,,,,,,,,,,,317.875573300058,317.89104889996815,317.89104889996815,317.89104889996815,324.4351528000552,,,,324.44336979999207,324.4538743000012,324.4538743000012,324.5010371999815,324.5013255000813,324.5176444000099,324.5176444000099,324.5176444000099,324.6008073000703,324.93478270003106,,,,,,,,down,6.532233300036751,None,space,0.4107820000499487,None,,,,,,,,,,,,,,,P128,001,2025-02-27_14h57.37.099,posner_endo_new1,2024.2.4,59.92638643842964,2025-02-27 14h57.48.541637 +0000,
cube_r.png,0.1,0.31,valid,30,30,0,down,7.081597700016573,None,space,0.38418569997884333,None,,,,,0,30,30,30,,,,,324.9503152000252,,,,,,,,,,,,,324.93502149998676,324.9503152000252,324.9503152000252,324.9503152000252,332.04412410000805,,,,332.05235260003246,332.06284779997077,332.06284779997077,332.1099994999822,332.1102837000508,332.1267409999855,332.1267409999855,332.1267409999855,332.20963060006034,332.52692340000067,,,,,,,,down,7.081597700016573,None,space,0.38418569997884333,None,,,,,,,,,,,,,,,P128,001,2025-02-27_14h57.37.099,posner_endo_new1,2024.2.4,59.92638643842964,2025-02-27 14h57.48.541637 +0000,
cube_l.png,0.1,-0.31,valid,31,31,0,down,6.721248700050637,None,space,0.5794601000379771,None,,,,,0,31,31,31,,,,,332.5427972000325,,,,,,,,,,,,,332.5271549000172,332.5427972000325,332.5427972000325,332.5427972000325,339.2723151000682,,,,339.29431010002736,339.3061340000713,339.3061340000713,339.3358638000209,339.3362104999833,339.35241669998504,339.35241669998504,339.35241669998504,339.435602499987,339.9366499000462,,,,,,,,down,6.721248700050637,None,space,0.5794601000379771,None,,,,,,,,,,,,,,,P128,001,2025-02-27_14h57.37.099,posner_endo_new1,2024.2.4,59.92638643842964,2025-02-27 14h57.48.541637 +0000,
cube_r.png,0.1,0.31,valid,32,32,0,down,7.143831499968655,None,space,0.29735640005674213,None,,,,,0,32,32,32,,,,,339.95193860004656,,,,,,,,,,,,,339.93695090000983,339.95193860004656,339.95193860004656,339.95193860004656,347.1116343999747,,,,347.11883549997583,347.1302838000702,347.1302838000702,347.17796240001917,347.17818749998696,347.19439229997806,347.19439229997806,347.19439229997806,347.2609282999765,347.49478190008085,,,,,,,,down,7.143831499968655,None,space,0.29735640005674213,None,,,,,,,,,,,,,,,P128,001,2025-02-27_14h57.37.099,posner_endo_new1,2024.2.4,59.92638643842964,2025-02-27 14h57.48.541637 +0000,
cube_r.png,0.1,-0.31,invalid,33,33,0,down,9.136336999945343,None,space,0.3558471000287682,None,,,,,0,33,33,33,,,,,347.5108150000451,,,,,,,,,,,,,347.4949598000385,347.5108150000451,347.5108150000451,347.5108150000451,356.65214260003995,,,,356.6578950000694,356.6695416000439,356.6695416000439,356.7181514999829,356.7183880000375,356.7346166999778,356.7346166999778,356.7346166999778,356.8012332000071,357.10159500001464,,,,,,,,down,9.136336999945343,None,space,0.3558471000287682,None,,,,,,,,,,,,,,,P128,001,2025-02-27_14h57.37.099,posner_endo_new1,2024.2.4,59.92638643842964,2025-02-27 14h57.48.541637 +0000,
cube_r.png,0.1,10,catch,34,34,0,down,6.001761100022122,None,None,,,,,,,0,34,34,34,,,,,357.1175591000356,,,,,,,,,,,,,357.1017786000157,357.1175591000356,357.1175591000356,357.1175591000356,363.1286973999813,,,,363.1344921999844,363.146230100072,363.146230100072,363.1947206000332,363.194943599985,363.2113528000191,363.2113528000191,363.2113528000191,363.27783699997235,366.2089468999766,,,,365.2926436000271,366.22465640003793,366.22465640003793,366.22465640003793,down,6.001761100022122,None,None,,,,,,,,,,,,,,,,,P128,001,2025-02-27_14h57.37.099,posner_endo_new1,2024.2.4,59.92638643842964,2025-02-27 14h57.48.541637 +0000,
cube_r.png,0.1,0.31,valid,35,35,0,down,4.478826899896376,None,space,0.3194660999579355,None,,,,,0,35,35,35,,,,,366.22465640003793,,,,,,,,,,,,,366.2093225000426,366.22465640003793,366.22465640003793,366.22465640003793,370.70505240000784,,,,370.7190147000365,370.72951760003343,370.72951760003343,370.77037639997434,370.77067940006964,370.7870046000462,370.7870046000462,370.7870046000462,370.8701869000215,371.12091559998225,,,,,,,,down,4.478826899896376,None,space,0.3194660999579355,None,,,,,,,,,,,,,,,P128,001,2025-02-27_14h57.37.099,posner_endo_new1,2024.2.4,59.92638643842964,2025-02-27 14h57.48.541637 +0000,
cube_r.png,0.1,-0.31,invalid,36,36,0,down,9.647345200064592,None,space,0.39704250008799136,None,,,,,0,36,36,36,,,,,371.1364681000123,,,,,,,,,,,,,371.121182700037,371.1364681000123,371.1364681000123,371.1364681000123,380.7944378000684,,,,380.8039534999989,380.81429310003296,380.81429310003296,380.8602032000199,380.860518499976,380.87660269998014,380.87660269998014,380.87660269998014,380.9598665999947,381.27734180004336,,,,,,,,down,9.647345200064592,None,space,0.39704250008799136,None,,,,,,,,,,,,,,,P128,001,2025-02-27_14h57.37.099,posner_endo_new1,2024.2.4,59.92638643842964,2025-02-27 14h57.48.541637 +0000,
cube_l.png,0.1,0.31,invalid,37,37,0,down,7.51424099993892,None,space,0.4186440999619663,None,,,,,0,37,37,37,,,,,381.29291219997685,,,,,,,,,,,,,381.2776054000715,381.29291219997685,381.29291219997685,381.29291219997685,388.8195897999685,,,,388.82818519999273,388.83834969997406,388.83834969997406,388.88538750004955,388.88562209997326,388.90174620004836,388.90174620004836,388.90174620004836,388.9850508000236,389.33547920000274,,,,,,,,down,7.51424099993892,None,space,0.4186440999619663,None,,,,,,,,,,,,,,,P128,001,2025-02-27_14h57.37.099,posner_endo_new1,2024.2.4,59.92638643842964,2025-02-27 14h57.48.541637 +0000,
cube_l.png,0.1,0.31,invalid,38,38,0,down,9.312074200017378,None,space,0.275414300034754,None,,,,,0,38,38,38,,,,,389.35144880006555,,,,,,,,,,,,,389.3356630000053,389.35144880006555,389.35144880006555,389.35144880006555,398.6757339000469,,,,398.6820760000264,398.69384620001074,398.69384620001074,398.741837700014,398.7420667000115,398.7582340000663,398.7582340000663,398.7582340000663,398.8251117999898,399.04228429996874,,,,,,,,down,9.312074200017378,None,space,0.275414300034754,None,,,,,,,,,,,,,,,P128,001,2025-02-27_14h57.37.099,posner_endo_new1,2024.2.4,59.92638643842964,2025-02-27 14h57.48.541637 +0000,
cube_r.png,0.1,0.31,valid,39,39,0,down,10.645825600018725,None,space,0.4338107999647036,None,,,,,0,39,39,39,,,,,399.05799930007197,,,,,,,,,,,,,399.04246620007325,399.05799930007197,399.05799930007197,399.05799930007197,409.7150282000657,,,,409.7245088000782,409.73491670005023,409.73491670005023,409.78034920000937,409.78066210006364,409.7971542000305,409.7971542000305,409.7971542000305,409.88038009998854,410.2476895999862,,,,,,,,down,10.645825600018725,None,space,0.4338107999647036,None,,,,,,,,,,,,,,,P128,001,2025-02-27_14h57.37.099,posner_endo_new1,2024.2.4,59.92638643842964,2025-02-27 14h57.48.541637 +0000,
cube_l.png,0.1,0.31,invalid,40,40,0,down,6.880741000059061,None,space,0.34558160009328276,None,,,,,0,40,40,40,,,,,410.26331680000294,,,,,,,,,,,,,410.24795230000746,410.26331680000294,410.26331680000294,410.26331680000294,417.15743020002265,,,,417.1668579999823,417.1771440000739,417.1771440000739,417.2229440000374,417.22325759998057,417.2395519000711,417.2395519000711,417.2395519000711,417.3227362000616,417.5901151000289,,,,,,,,down,6.880741000059061,None,space,0.34558160009328276,None,,,,,,,,,,,,,,,P128,001,2025-02-27_14h57.37.099,posner_endo_new1,2024.2.4,59.92638643842964,2025-02-27 14h57.48.541637 +0000,
cube_l.png,0.1,10,catch,41,41,0,down,7.170654100016691,None,None,,,,,,,0,41,41,41,,,,,417.60578400001395,,,,,,,,,,,,,417.5903718000045,417.60578400001395,417.60578400001395,417.60578400001395,424.78292410005815,,,,424.79243330005556,424.802694800077,424.802694800077,424.84857769997325,424.84888740000315,424.8650428999681,424.8650428999681,424.8650428999681,424.9481556999963,427.86259989999235,,,,426.96286390000023,427.878653199994,427.878653199994,427.878653199994,down,7.170654100016691,None,None,,,,,,,,,,,,,,,,,P128,001,2025-02-27_14h57.37.099,posner_endo_new1,2024.2.4,59.92638643842964,2025-02-27 14h57.48.541637 +0000,
cube_l.png,0.1,-0.31,valid,42,42,0,down,5.744531900039874,None,space,0.3899439999368042,None,,,,,0,42,42,42,,,,,427.878653199994,,,,,,,,,,,,,427.8628645000281,427.878653199994,427.878653199994,427.878653199994,433.6401193999918,,,,433.64636160002556,433.657739300048,433.657739300048,433.7060693000676,433.70629190001637,433.72277670004405,433.72277670004405,433.72277670004405,433.78929700003937,434.1230502000544,,,,,,,,down,5.744531900039874,None,space,0.3899439999368042,None,,,,,,,,,,,,,,,P128,001,2025-02-27_14h57.37.099,posner_endo_new1,2024.2.4,59.92638643842964,2025-02-27 14h57.48.541637 +0000,
cube_l.png,0.1,10,catch,43,43,0,down,6.813328600022942,None,None,,,,,,,0,43,43,43,,,,,434.1388783999719,,,,,,,,,,,,,434.1232283000136,434.1388783999719,434.1388783999719,434.1388783999719,440.96591010002885,,,,440.9721118999878,440.9838009000523,440.9838009000523,441.0319569000276,441.0324513000669,441.04833670007065,441.04833670007065,441.04833670007065,441.1316389000276,444.0462341000093,,,,443.1465473000426,444.0621815000195,444.0621815000195,444.0621815000195,down,6.813328600022942,None,None,,,,,,,,,,,,,,,,,P128,001,2025-02-27_14h57.37.099,posner_endo_new1,2024.2.4,59.92638643842964,2025-02-27 14h57.48.541637 +0000,
cube_l.png,0.1,0.31,invalid,44,44,0,down,4.585349299944937,None,space,0.39474550005979836,None,,,,,0,44,44,44,,,,,444.0621815000195,,,,,,,,,,,,,444.04651630006265,444.0621815000195,444.0621815000195,444.0621815000195,448.6587195000611,,,,448.6700269000139,448.6803851000732,448.6803851000732,448.72424030001275,448.72460590000264,448.7408057000721,448.7408057000721,448.7408057000721,448.82392990007065,449.14165440003853,,,,,,,,down,4.585349299944937,None,space,0.39474550005979836,None,,,,,,,,,,,,,,,P128,001,2025-02-27_14h57.37.099,posner_endo_new1,2024.2.4,59.92638643842964,2025-02-27 14h57.48.541637 +0000,
cube_l.png,0.1,0.31,invalid,45,45,0,down,6.666753099998459,None,space,0.3857250000583008,None,,,,,0,45,45,45,,,,,449.15694070002064,,,,,,,,,,,,,449.14195830002427,449.15694070002064,449.15694070002064,449.15694070002064,455.8347544000717,,,,455.84595240000635,455.8562628000509,455.8562628000509,455.9001717000501,455.90051000006497,455.9167368999915,455.9167368999915,455.9167368999915,455.9999237000011,456.3175122999819,,,,,,,,down,6.666753099998459,None,space,0.3857250000583008,None,,,,,,,,,,,,,,,P128,001,2025-02-27_14h57.37.099,posner_endo_new1,2024.2.4,59.92638643842964,2025-02-27 14h57.48.541637 +0000,
cube_r.png,0.1,0.31,valid,46,46,0,down,8.66716010007076,None,space,0.4011502000503242,None,,,,,0,46,46,46,,,,,456.3329405999975,,,,,,,,,,,,,456.31780610000715,456.3329405999975,456.3329405999975,456.3329405999975,465.0087061000522,,,,465.0201048000017,465.0306223999942,465.0306223999942,465.0740882999962,465.0744362999685,465.09060009999666,465.09060009999666,465.09060009999666,465.1738093000604,465.50797560007777,,,,,,,,down,8.66716010007076,None,space,0.4011502000503242,None,,,,,,,,,,,,,,,P128,001,2025-02-27_14h57.37.099,posner_endo_new1,2024.2.4,59.92638643842964,2025-02-27 14h57.48.541637 +0000,
cube_l.png,0.1,-0.31,valid,47,47,0,down,11.58775990002323,None,space,0.37672749999910593,None,,,,,0,47,47,47,,,,,465.5235877999803,,,,,,,,,,,,,465.5082669999683,465.5235877999803,465.5235877999803,465.5235877999803,477.1124854000518,,,,477.11959889996797,477.13185930007603,477.13185930007603,477.1782850000309,477.17853040003683,477.1948903000448,477.1948903000448,477.1948903000448,477.2614269000478,477.5785952999722,,,,,,,,down,11.58775990002323,None,space,0.37672749999910593,None,,,,,,,,,,,,,,,P128,001,2025-02-27_14h57.37.099,posner_endo_new1,2024.2.4,59.92638643842964,2025-02-27 14h57.48.541637 +0000,
cube_r.png,0.1,-0.31,invalid,48,48,0,down,6.08527519996278,None,space,0.5383424999890849,None,,,,,0,48,48,48,,,,,477.5944526999956,,,,,,,,,,,,,477.5788010000251,477.5944526999956,477.5944526999956,477.5944526999956,483.68896689999383,,,,483.69631370005663,483.7079930000473,483.7079930000473,483.75501189997885,483.75526890007313,483.771471700049,483.771471700049,483.771471700049,483.83810220006853,484.32179590000305,,,,,,,,down,6.08527519996278,None,space,0.5383424999890849,None,,,,,,,,,,,,,,,P128,001,2025-02-27_14h57.37.099,posner_endo_new1,2024.2.4,59.92638643842964,2025-02-27 14h57.48.541637 +0000,
cube_r.png,0.1,10,catch,49,49,0,down,11.26180769992061,None,None,,,,,,,0,49,49,49,,,,,484.33755799999926,,,,,,,,,,,,,484.3220009000506,484.33755799999926,484.33755799999926,484.33755799999926,495.6107388000237,,,,495.6220465999795,495.63239609997254,495.63239609997254,495.67628800007515,495.67664970003534,495.69274299999233,495.69274299999233,495.69274299999233,495.7759831000585,498.6904775999719,,,,497.7905807000352,498.7062173000304,498.7062173000304,498.7062173000304,down,11.26180769992061,None,None,,,,,,,,,,,,,,,,,P128,001,2025-02-27_14h57.37.099,posner_endo_new1,2024.2.4,59.92638643842964,2025-02-27 14h57.48.541637 +0000,
cube_l.png,0.1,-0.31,valid,50,50,0,down,4.461565299890935,None,space,0.3779641001019627,None,,,,,0,50,50,50,,,,,498.7062173000304,,,,,,,,,,,,,498.6907518999651,498.7062173000304,498.7062173000304,498.7062173000304,503.16978930006735,,,,503.1809138000244,503.19122010003775,503.19122010003775,503.23512359999586,503.23546050000004,503.25161150004715,503.25161150004715,503.25161150004715,503.33488149999175,503.6358257000102,,,,,,,,down,4.461565299890935,None,space,0.3779641001019627,None,,,,,,,,,,,,,,,P128,001,2025-02-27_14h57.37.099,posner_endo_new1,2024.2.4,59.92638643842964,2025-02-27 14h57.48.541637 +0000,
cube_l.png,0.1,-0.31,valid,51,51,0,down,8.932913900003769,None,space,0.30189320002682507,None,,,,,0,51,51,51,,,,,503.6512498999946,,,,,,,,,,,,,503.63612310006283,503.6512498999946,503.6512498999946,503.6512498999946,512.5933426000411,,,,512.6044569000369,512.6148756999755,512.6148756999755,512.6587225999683,512.65896660008,512.6753574999748,512.6753574999748,512.6753574999748,512.7586432000389,512.9925663999747,,,,,,,,down,8.932913900003769,None,space,0.30189320002682507,None,,,,,,,,,,,,,,,P128,001,2025-02-27_14h57.37.099,posner_endo_new1,2024.2.4,59.92638643842964,2025-02-27 14h57.48.541637 +0000,
cube_r.png,0.1,-0.31,invalid,52,52,0,down,4.463534999988042,None,space,0.4755103000206873,None,,,,,0,52,52,52,,,,,513.0083396000555,,,,,,,,,,,,,512.9927676999941,513.0083396000555,513.0083396000555,513.0083396000555,517.4879533000058,,,,517.4951961999759,517.5066853000317,517.5066853000317,517.5538461999968,517.5541048999876,517.5703255999833,517.5703255999833,517.5703255999833,517.6537997999694,518.0539601000492,,,,,,,,down,4.463534999988042,None,space,0.4755103000206873,None,,,,,,,,,,,,,,,P128,001,2025-02-27_14h57.37.099,posner_endo_new1,2024.2.4,59.92638643842964,2025-02-27 14h57.48.541637 +0000,
cube_l.png,0.1,-0.31,valid,53,53,0,down,9.059172699926421,None,space,0.3886992000043392,None,,,,,0,53,53,53,,,,,518.06994820002,,,,,,,,,,,,,518.0541621000739,518.06994820002,518.06994820002,518.06994820002,527.1447327000787,,,,527.1518591999775,527.1635689999675,527.1635689999675,527.2106285999762,527.2108724999707,527.2271259999834,527.2271259999834,527.2271259999834,527.3103555999696,527.6277847000165,,,,,,,,down,9.059172699926421,None,space,0.3886992000043392,None,,,,,,,,,,,,,,,P128,001,2025-02-27_14h57.37.099,posner_endo_new1,2024.2.4,59.92638643842964,2025-02-27 14h57.48.541637 +0000,
cube_r.png,0.1,10,catch,54,54,0,down,6.452265500091016,None,None,,,,,,,0,54,54,54,,,,,527.6435074000619,,,,,,,,,,,,,527.627991400077,527.6435074000619,527.6435074000619,527.6435074000619,534.1044072000077,,,,534.1117149000056,534.1231417000527,534.1231417000527,534.1701308999909,534.1703743999824,534.1866113999858,534.1866113999858,534.1866113999858,534.2700416999869,537.184367400012,,,,536.284565799986,537.2003392999759,537.2003392999759,537.2003392999759,down,6.452265500091016,None,None,,,,,,,,,,,,,,,,,P128,001,2025-02-27_14h57.37.099,posner_endo_new1,2024.2.4,59.92638643842964,2025-02-27 14h57.48.541637 +0000,
cube_l.png,0.1,0.31,invalid,55,55,0,down,4.656325899995863,None,space,0.44097890006378293,None,,,,,0,55,55,55,,,,,537.2003392999759,,,,,,,,,,,,,537.1845630999887,537.2003392999759,537.2003392999759,537.2003392999759,541.8632030000445,,,,541.870453300071,541.8817854999797,541.8817854999797,541.9288795000175,541.9291385000106,541.9453686000779,541.9453686000779,541.9453686000779,542.0285459000152,542.3956586000277,,,,,,,,down,4.656325899995863,None,space,0.44097890006378293,None,,,,,,,,,,,,,,,P128,001,2025-02-27_14h57.37.099,posner_endo_new1,2024.2.4,59.92638643842964,2025-02-27 14h57.48.541637 +0000,
cube_l.png,0.1,-0.31,valid,56,56,0,down,9.380564899998717,None,space,0.5139770000241697,None,,,,,0,56,56,56,,,,,542.4116923999973,,,,,,,,,,,,,542.3958596000448,542.4116923999973,542.4116923999973,542.4116923999973,551.8037811999675,,,,551.8202597000636,551.831246900023,551.831246900023,551.8687414000742,551.869243800058,551.8851715000346,551.8851715000346,551.8851715000346,551.9684018000262,552.4033016000176,,,,,,,,down,9.380564899998717,None,space,0.5139770000241697,None,,,,,,,,,,,,,,,P128,001,2025-02-27_14h57.37.099,posner_endo_new1,2024.2.4,59.92638643842964,2025-02-27 14h57.48.541637 +0000,
cube_r.png,0.1,0.31,valid,57,57,0,down,8.934507200028747,None,space,0.4531126000219956,None,,,,,0,57,57,57,,,,,552.4179687000578,,,,,,,,,,,,,552.4037377000786,552.4179687000578,552.4179687000578,552.4179687000578,561.3601280000294,,,,561.3712535999948,561.3816323999781,561.3816323999781,561.4257402999792,561.4260773999849,561.4422260000138,561.4422260000138,561.4422260000138,561.5254558000015,561.9094056000467,,,,,,,,down,8.934507200028747,None,space,0.4531126000219956,None,,,,,,,,,,,,,,,P128,001,2025-02-27_14h57.37.099,posner_endo_new1,2024.2.4,59.92638643842964,2025-02-27 14h57.48.541637 +0000,
cube_r.png,0.1,-0.31,invalid,58,58,0,down,7.434697800083086,None,space,0.3056663000024855,None,,,,,0,58,58,58,,,,,561.9250017000595,,,,,,,,,,,,,561.9096097999718,561.9250017000595,561.9250017000595,561.9250017000595,569.3684052000754,,,,569.3756269000005,569.3873729000334,569.3873729000334,569.4340670000529,569.4345585000701,569.4505167000461,569.4505167000461,569.4505167000461,569.5338698000414,569.7686915000668,,,,,,,,down,7.434697800083086,None,space,0.3056663000024855,None,,,,,,,,,,,,,,,P128,001,2025-02-27_14h57.37.099,posner_endo_new1,2024.2.4,59.92638643842964,2025-02-27 14h57.48.541637 +0000,
cube_l.png,0.1,0.31,invalid,59,59,0,down,6.568912300048396,None,space,0.33170660003088415,None,,,,,0,59,59,59,,,,,569.7834670000011,,,,,,,,,,,,,569.7691227999749,569.7834670000011,569.7834670000011,569.7834670000011,576.3614176000701,,,,576.3725909000495,576.3829342999961,576.3829342999961,576.4271312999772,576.42747590004,576.443559300038,576.443559300038,576.443559300038,576.5268394000595,576.7778825999703,,,,,,,,down,6.568912300048396,None,space,0.33170660003088415,None,,,,,,,,,,,,,,,P128,001,2025-02-27_14h57.37.099,posner_endo_new1,2024.2.4,59.92638643842964,2025-02-27 14h57.48.541637 +0000,
,,,,,,,,,,,,,,,,,,,,,,,,,,,,,,,,,,,,,,,,,,,,,,,,,,,,,,,,,,,,,,,,,,,,,576.7780712000094,576.7931264999788,576.7931264999788,636.7985222999705,658.227500100038,space,81.4211365999654,None,,,,,,,P128,001,2025-02-27_14h57.37.099,posner_endo_new1,2024.2.4,59.92638643842964,2025-02-27 14h57.48.541637 +0000,
,,,,,,,,,,,,,,,,,,,,,,,,,,,,,,,,,,658.2275667000795,658.2432406999869,661.2513118999777,661.2239626999944,,,,,,,,,,,,,,,,,,,,,,,,,,,,,,,,,,,,,,,,,,,,,,P128,001,2025-02-27_14h57.37.099,posner_endo_new1,2024.2.4,59.92638643842964,2025-02-27 14h57.48.541637 +0000,
cube_l.png,0.1,10,catch,0,0,0,up,7.26103310007602,None,None,,,,,,,,,,,0,0,0,0,661.2513118999777,,,,,,,,,,,,,661.242166900076,661.2513118999777,661.2513118999777,661.2513118999777,668.5170928000007,,,,668.5233030000236,668.5348761000205,668.5348761000205,668.5828443000792,668.5830880000722,668.5994747000514,668.5994747000514,668.5994747000514,668.6827828000532,671.5970127000473,,,,670.6969401000533,671.6129969999893,671.6129969999893,671.6129969999893,,,,,,,,,,,,,,,up,7.26103310007602,None,None,,,P128,001,2025-02-27_14h57.37.099,posner_endo_new1,2024.2.4,59.92638643842964,2025-02-27 14h57.48.541637 +0000,
cube_l.png,0.1,10,catch,1,1,0,up,2.131263899966143,None,None,,,,,,,,,,,0,1,1,1,671.6129969999893,,,,,,,,,,,,,671.5972617000807,671.6129969999893,671.6129969999893,671.6129969999893,673.7453046999872,,,,673.7544846000383,673.7645268000197,673.7645268000197,673.8108419000637,673.8111501999665,673.8274221000029,673.8274221000029,673.8274221000029,673.9105823000427,676.8249057000503,,,,675.9252287000418,676.840948899975,676.840948899975,676.840948899975,,,,,,,,,,,,,,,up,2.131263899966143,None,None,,,P128,001,2025-02-27_14h57.37.099,posner_endo_new1,2024.2.4,59.92638643842964,2025-02-27 14h57.48.541637 +0000,
cube_l.png,0.1,0.31,invalid,2,2,0,up,2.176070300047286,None,space,0.4437668001046404,None,,,,,,,,,0,2,2,2,676.840948899975,,,,,,,,,,,,,676.825157299987,676.840948899975,676.840948899975,676.840948899975,679.0230854999973,,,,679.0323522000108,679.0426989999833,679.0426989999833,679.0888137000147,679.0891212000279,679.1052771999966,679.1052771999966,679.1052771999966,679.1885314000538,679.555974900024,,,,,,,,,,,,,,,,,,,,,,up,2.176070300047286,None,space,0.4437668001046404,None,P128,001,2025-02-27_14h57.37.099,posner_endo_new1,2024.2.4,59.92638643842964,2025-02-27 14h57.48.541637 +0000,
cube_l.png,0.1,0.31,invalid,3,3,0,up,3.5483682999620214,None,space,0.3758095999946818,None,,,,,,,,,0,3,3,3,679.571495500044,,,,,,,,,,,,,679.5562408000696,679.571495500044,679.571495500044,679.571495500044,683.1356154000387,,,,683.1450869999826,683.1554491000716,683.1554491000716,683.2012163000181,683.2015268000541,683.2177625000477,683.2177625000477,683.2177625000477,683.3011374999769,683.6017365000444,,,,,,,,,,,,,,,,,,,,,,up,3.5483682999620214,None,space,0.3758095999946818,None,P128,001,2025-02-27_14h57.37.099,posner_endo_new1,2024.2.4,59.92638643842964,2025-02-27 14h57.48.541637 +0000,
cube_l.png,0.1,-0.31,valid,4,4,0,up,2.695091300061904,None,space,0.35556669998914003,None,,,,,,,,,0,4,4,4,683.6173461000435,,,,,,,,,,,,,683.6019998000702,683.6173461000435,683.6173461000435,683.6173461000435,686.3157253999962,,,,686.3252182999859,686.3353746000212,686.3353746000212,686.3812918000622,686.3816100000404,686.3978469000431,686.3978469000431,686.3978469000431,686.481094900053,686.7652810000582,,,,,,,,,,,,,,,,,,,,,,up,2.695091300061904,None,space,0.35556669998914003,None,P128,001,2025-02-27_14h57.37.099,posner_endo_new1,2024.2.4,59.92638643842964,2025-02-27 14h57.48.541637 +0000,
cube_r.png,0.1,-0.31,invalid,5,5,0,up,4.267570500029251,None,space,0.3982237000018358,None,,,,,,,,,0,5,5,5,686.7808213999961,,,,,,,,,,,,,686.7655480999965,686.7808213999961,686.7808213999961,686.7808213999961,691.0607194000622,,,,691.0701551999664,691.0805810000747,691.0805810000747,691.1269326000474,691.12724479998,691.1430155000417,691.1430155000417,691.1430155000417,691.2261471999809,691.5438426000765,,,,,,,,,,,,,,,,,,,,,,up,4.267570500029251,None,space,0.3982237000018358,None,P128,001,2025-02-27_14h57.37.099,posner_endo_new1,2024.2.4,59.92638643842964,2025-02-27 14h57.48.541637 +0000,
cube_r.png,0.1,0.31,valid,6,6,0,up,3.313042899942957,None,space,0.368195699993521,None,,,,,,,,,0,6,6,6,691.5591456000693,,,,,,,,,,,,,691.5441108000232,691.5591456000693,691.5591456000693,691.5591456000693,694.8735501000192,,,,694.8828534000786,694.8930566000054,694.8930566000054,694.9391515000025,694.9394527999684,694.9557981999824,694.9557981999824,694.9557981999824,695.0390495000174,695.3398470999673,,,,,,,,,,,,,,,,,,,,,,up,3.313042899942957,None,space,0.368195699993521,None,P128,001,2025-02-27_14h57.37.099,posner_endo_new1,2024.2.4,59.92638643842964,2025-02-27 14h57.48.541637 +0000,
cube_r.png,0.1,-0.31,invalid,7,7,0,up,3.3087366999825463,None,space,0.2946474999189377,None,,,,,,,,,0,7,7,7,695.3554013000103,,,,,,,,,,,,,695.3401193000609,695.3554013000103,695.3554013000103,695.3554013000103,698.6698763000313,,,,698.6794058000669,698.6897226000438,698.6897226000438,698.7353926000651,698.7357073000167,698.7518590000691,698.7518590000691,698.7518590000691,698.8351800000528,699.0526119000278,,,,,,,,,,,,,,,,,,,,,,up,3.3087366999825463,None,space,0.2946474999189377,None,P128,001,2025-02-27_14h57.37.099,posner_endo_new1,2024.2.4,59.92638643842964,2025-02-27 14h57.48.541637 +0000,
cube_l.png,0.1,-0.31,valid,8,8,0,up,3.2356946000363678,None,space,0.29592970001976937,None,,,,,,,,,0,8,8,8,699.0682345000096,,,,,,,,,,,,,699.0528773000697,699.0682345000096,699.0682345000096,699.0682345000096,702.3159787000623,,,,702.3255353000714,702.3375897000078,702.3375897000078,702.3821063999785,702.3827773000812,702.3984755000565,702.3984755000565,702.3984755000565,702.465079799993,702.7005608000327,,,,,,,,,,,,,,,,,,,,,,up,3.2356946000363678,None,space,0.29592970001976937,None,P128,001,2025-02-27_14h57.37.099,posner_endo_new1,2024.2.4,59.92638643842964,2025-02-27 14h57.48.541637 +0000,
cube_r.png,0.1,-0.31,invalid,9,9,0,up,3.3733615999808535,None,space,0.39181139995343983,None,,,,,,,,,0,9,9,9,702.7150357000064,,,,,,,,,,,,,702.7011782000773,702.7150357000064,702.7150357000064,702.7150357000064,706.0971992000705,,,,706.1143568999832,706.1248646000167,706.1248646000167,706.1608717000345,706.1613110000035,706.1773129000794,706.1773129000794,706.1773129000794,706.260574700078,706.5784623000072,,,,,,,,,,,,,,,,,,,,,,up,3.3733615999808535,None,space,0.39181139995343983,None,P128,001,2025-02-27_14h57.37.099,posner_endo_new1,2024.2.4,59.92638643842964,2025-02-27 14h57.48.541637 +0000,
cube_l.png,0.1,0.31,invalid,10,10,0,up,3.150323300040327,None,space,0.37363489996641874,None,,,,,,,,,0,10,10,10,706.5938301000278,,,,,,,,,,,,,706.5788467000239,706.5938301000278,706.5938301000278,706.5938301000278,709.7583897999721,,,,709.7675024999771,709.7773478999734,709.7773478999734,709.8239701000275,709.8242013000418,709.8405578000238,709.8405578000238,709.8405578000238,709.9239003000548,710.2242772000609,,,,,,,,,,,,,,,,,,,,,,up,3.150323300040327,None,space,0.37363489996641874,None,P128,001,2025-02-27_14h57.37.099,posner_endo_new1,2024.2.4,59.92638643842964,2025-02-27 14h57.48.541637 +0000,
cube_r.png,0.1,-0.31,invalid,11,11,0,up,3.575660000089556,None,space,0.2993531000101939,None,,,,,,,,,0,11,11,11,710.2401627000654,,,,,,,,,,,,,710.2244640999706,710.2401627000654,710.2401627000654,710.2401627000654,713.820645299973,,,,713.8268143000314,713.8385611000704,713.8385611000704,713.8865124000004,713.8870058000321,713.9029287999729,713.9029287999729,713.9029287999729,713.9861964000156,714.2045792000135,,,,,,,,,,,,,,,,,,,,,,up,3.575660000089556,None,space,0.2993531000101939,None,P128,001,2025-02-27_14h57.37.099,posner_endo_new1,2024.2.4,59.92638643842964,2025-02-27 14h57.48.541637 +0000,
cube_r.png,0.1,0.31,valid,12,12,0,up,2.725046299980022,None,space,0.2510031999554485,None,,,,,,,,,0,12,12,12,714.2193010000046,,,,,,,,,,,,,714.2050291000633,714.2193010000046,714.2193010000046,714.2193010000046,716.9511606000597,,,,716.9622182999738,716.9725232999772,716.9725232999772,717.016722099972,717.0170629000058,717.0331637000199,717.0331637000199,717.0331637000199,717.1165262999712,717.300814300077,,,,,,,,,,,,,,,,,,,,,,up,2.725046299980022,None,space,0.2510031999554485,None,P128,001,2025-02-27_14h57.37.099,posner_endo_new1,2024.2.4,59.92638643842964,2025-02-27 14h57.48.541637 +0000,
cube_l.png,0.1,10,catch,13,13,0,up,3.283765999949537,None,space,0.1278619000222534,None,,,,,,,,,0,13,13,13,717.3163925000699,,,,,,,,,,,,,717.301115600043,717.3163925000699,717.3163925000699,717.3163925000699,720.6141760000028,,,,720.625316599966,720.6356810000725,720.6356810000725,720.6796293000225,720.679969000048,720.696291500004,720.696291500004,720.696291500004,720.7795026999665,720.830874199979,,,,,,,,,,,,,,,,,,,,,,up,3.283765999949537,None,space,0.1278619000222534,None,P128,001,2025-02-27_14h57.37.099,posner_endo_new1,2024.2.4,59.92638643842964,2025-02-27 14h57.48.541637 +0000,
cube_r.png,0.1,-0.31,invalid,14,14,0,up,2.44249160005711,None,space,0.3464903999119997,None,,,,,,,,,0,14,14,14,720.8459169999696,,,,,,,,,,,,,720.8311899000546,720.8459169999696,720.8459169999696,720.8459169999696,723.2947095000418,,,,723.30588790006,723.3162209000438,723.3162209000438,723.3603589000413,723.3606971000554,723.3767193000531,723.3767193000531,723.3767193000531,723.4599785000319,723.7277748000342,,,,,,,,,,,,,,,,,,,,,,up,2.44249160005711,None,space,0.3464903999119997,None,P128,001,2025-02-27_14h57.37.099,posner_endo_new1,2024.2.4,59.92638643842964,2025-02-27 14h57.48.541637 +0000,
cube_l.png,0.1,-0.31,valid,15,15,0,up,3.105267000035383,None,space,0.2837195999454707,None,,,,,,,,,0,15,15,15,723.7430504000513,,,,,,,,,,,,,723.7280800000299,723.7430504000513,723.7430504000513,723.7430504000513,726.8573498000624,,,,726.8646941999905,726.8877509000013,726.8877509000013,726.9230483999709,726.9233062000712,726.9399298999924,726.9399298999924,726.9399298999924,727.0231975000352,727.2402824000455,,,,,,,,,,,,,,,,,,,,,,up,3.105267000035383,None,space,0.2837195999454707,None,P128,001,2025-02-27_14h57.37.099,posner_endo_new1,2024.2.4,59.92638643842964,2025-02-27 14h57.48.541637 +0000,
cube_r.png,0.1,10,catch,16,16,0,up,2.903801799984649,None,space,0.19214010005816817,None,,,,,,,,,0,16,16,16,727.2560864000116,,,,,,,,,,,,,727.2404894999927,727.2560864000116,727.2560864000116,727.2560864000116,730.1706869000336,,,,730.1779044000432,730.1894504000666,730.1894504000666,730.2366118000355,730.2368680000072,730.2530197000597,730.2530197000597,730.2530197000597,730.3364431000082,730.4537504999898,,,,,,,,,,,,,,,,,,,,,,up,2.903801799984649,None,space,0.19214010005816817,None,P128,001,2025-02-27_14h57.37.099,posner_endo_new1,2024.2.4,59.92638643842964,2025-02-27 14h57.48.541637 +0000,
cube_r.png,0.1,10,catch,17,17,0,up,2.1630675999913365,None,None,,,,,,,,,,,0,17,17,17,730.4695005000103,,,,,,,,,,,,,730.4539602000732,730.4695005000103,730.4695005000103,730.4695005000103,732.6347986999899,,,,732.6420255000703,732.6538207000121,732.6538207000121,732.7006378000369,732.7008969000308,732.7170708000194,732.7170708000194,732.7170708000194,732.8003712000791,735.714817799977,,,,734.8150601000525,735.7307000000728,735.7307000000728,735.7307000000728,,,,,,,,,,,,,,,up,2.1630675999913365,None,None,,,P128,001,2025-02-27_14h57.37.099,posner_endo_new1,2024.2.4,59.92638643842964,2025-02-27 14h57.48.541637 +0000,
cube_l.png,0.1,0.31,invalid,18,18,0,up,0.1980412999400869,None,space,0.4236658000154421,None,,,,,,,,,0,18,18,18,735.7307000000728,,,,,,,,,,,,,735.715014000074,735.7307000000728,735.7307000000728,735.7307000000728,735.9314838000573,,,,735.9386692000553,735.9504510000115,735.9504510000115,735.9974391000578,735.9976962000364,736.0138014999684,736.0138014999684,736.0138014999684,736.0971731999889,736.4476226000115,,,,,,,,,,,,,,,,,,,,,,up,0.1980412999400869,None,space,0.4236658000154421,None,P128,001,2025-02-27_14h57.37.099,posner_endo_new1,2024.2.4,59.92638643842964,2025-02-27 14h57.48.541637 +0000,
cube_l.png,0.1,10,catch,19,19,0,up,1.849949000054039,None,None,,,,,,,,,,,0,19,19,19,736.4633769000648,,,,,,,,,,,,,736.4478296000743,736.4633769000648,736.4633769000648,736.4633769000648,738.3290375000797,,,,738.3362711999798,738.3477586000226,738.3477586000226,738.3948199000442,738.3950756000122,738.411482000025,738.411482000025,738.411482000025,738.494599299971,741.4089286000235,,,,740.5093004000373,741.4249507000204,741.4249507000204,741.4249507000204,,,,,,,,,,,,,,,up,1.849949000054039,None,None,,,P128,001,2025-02-27_14h57.37.099,posner_endo_new1,2024.2.4,59.92638643842964,2025-02-27 14h57.48.541637 +0000,
cube_l.png,0.1,0.31,invalid,20,20,0,up,3.1277809999883175,None,space,0.32273140002507716,None,,,,,,,,,0,20,20,20,741.4249507000204,,,,,,,,,,,,,741.4091241999995,741.4249507000204,741.4249507000204,741.4249507000204,744.5558018999873,,,,744.5628799999831,744.5745998000493,744.5745998000493,744.621759600006,744.6220081000356,744.6384165000636,744.6384165000636,744.6384165000636,744.7050971999997,744.972186399973,,,,,,,,,,,,,,,,,,,,,,up,3.1277809999883175,None,space,0.32273140002507716,None,P128,001,2025-02-27_14h57.37.099,posner_endo_new1,2024.2.4,59.92638643842964,2025-02-27 14h57.48.541637 +0000,
cube_l.png,0.1,-0.31,valid,21,21,0,up,3.412724799942225,None,space,0.3220594999147579,None,,,,,,,,,0,21,21,21,744.9880616000155,,,,,,,,,,,,,744.9723881999962,744.9880616000155,744.9880616000155,744.9880616000155,748.4019157000585,,,,748.4089977999683,748.4209447000176,748.4209447000176,748.4679611000465,748.4682073000586,748.4845156000229,748.4845156000229,748.4845156000229,748.5510604999727,748.8182107000612,,,,,,,,,,,,,,,,,,,,,,up,3.412724799942225,None,space,0.3220594999147579,None,P128,001,2025-02-27_14h57.37.099,posner_endo_new1,2024.2.4,59.92638643842964,2025-02-27 14h57.48.541637 +0000,
cube_r.png,0.1,0.31,valid,22,22,0,up,4.6222337000072,None,space,0.33601159998215735,None,,,,,,,,,0,22,22,22,748.8339194,,,,,,,,,,,,,748.8184083000524,748.8339194,748.8339194,748.8339194,753.46346800006,,,,753.4705522999866,753.482348300051,753.482348300051,753.529301200062,753.5295475000748,753.5458683000179,753.5458683000179,753.5458683000179,753.6124239000492,753.8964650999987,,,,,,,,,,,,,,,,,,,,,,up,4.6222337000072,None,space,0.33601159998215735,None,P128,001,2025-02-27_14h57.37.099,posner_endo_new1,2024.2.4,59.92638643842964,2025-02-27 14h57.48.541637 +0000,
cube_r.png,0.1,-0.31,invalid,23,23,0,up,6.520966700045392,None,space,0.30629819992464036,None,,,,,,,,,0,23,23,23,753.9122350000544,,,,,,,,,,,,,753.8966742000775,753.9122350000544,753.9122350000544,753.9122350000544,760.4398159000557,,,,760.4471407000674,760.4585466000717,760.4585466000717,760.5054895000067,760.5057508000173,760.5220323000103,760.5220323000103,760.5220323000103,760.5886956000468,760.8394454000518,,,,,,,,,,,,,,,,,,,,,,up,6.520966700045392,None,space,0.30629819992464036,None,P128,001,2025-02-27_14h57.37.099,posner_endo_new1,2024.2.4,59.92638643842964,2025-02-27 14h57.48.541637 +0000,
cube_r.png,0.1,0.31,valid,24,24,0,up,3.2487162000034004,None,space,0.42485509999096394,None,,,,,,,,,0,24,24,24,760.8552753999829,,,,,,,,,,,,,760.8396545000141,760.8552753999829,760.8552753999829,760.8552753999829,764.1193109999876,,,,764.1266300000716,764.1381413000636,764.1381413000636,764.1852457000641,764.185513000004,764.201563199982,764.201563199982,764.201563199982,764.2849309999729,764.6354193000589,,,,,,,,,,,,,,,,,,,,,,up,3.2487162000034004,None,space,0.42485509999096394,None,P128,001,2025-02-27_14h57.37.099,posner_endo_new1,2024.2.4,59.92638643842964,2025-02-27 14h57.48.541637 +0000,
cube_r.png,0.1,-0.31,invalid,25,25,0,up,3.181513600051403,None,space,0.36342089995741844,None,,,,,,,,,0,25,25,25,764.6512034999905,,,,,,,,,,,,,764.6356294000288,764.6512034999905,764.6512034999905,764.6512034999905,767.8488677999703,,,,767.8561723000603,767.8792077000253,767.8792077000253,767.9145816999953,767.9148401999846,767.9311238999944,767.9311238999944,767.9311238999944,767.9978499000426,768.29861050006,,,,,,,,,,,,,,,,,,,,,,up,3.181513600051403,None,space,0.36342089995741844,None,P128,001,2025-02-27_14h57.37.099,posner_endo_new1,2024.2.4,59.92638643842964,2025-02-27 14h57.48.541637 +0000,
cube_l.png,0.1,-0.31,valid,26,26,0,up,5.253863699967042,None,space,0.3746489000041038,None,,,,,,,,,0,26,26,26,768.3141382000176,,,,,,,,,,,,,768.2988184000133,768.3141382000176,768.3141382000176,768.3141382000176,773.5761449000565,,,,773.5821260000812,773.5938244999852,773.5938244999852,773.6421106000198,773.6423335999716,773.6586669000098,773.6586669000098,773.6586669000098,773.725452600047,774.0426154000452,,,,,,,,,,,,,,,,,,,,,,up,5.253863699967042,None,space,0.3746489000041038,None,P128,001,2025-02-27_14h57.37.099,posner_endo_new1,2024.2.4,59.92638643842964,2025-02-27 14h57.48.541637 +0000,
cube_r.png,0.1,0.31,valid,27,27,0,up,5.126583899953403,None,space,0.32675320003181696,None,,,,,,,,,0,27,27,27,774.0581944000442,,,,,,,,,,,,,774.0428018000675,774.0581944000442,774.0581944000442,774.0581944000442,779.1873965000268,,,,779.1945555000566,779.2061166000785,779.2061166000785,779.2531101000495,779.253355700057,779.2696875999682,779.2696875999682,779.2696875999682,779.3363072000211,779.6033494999865,,,,,,,,,,,,,,,,,,,,,,up,5.126583899953403,None,space,0.32675320003181696,None,P128,001,2025-02-27_14h57.37.099,posner_endo_new1,2024.2.4,59.92638643842964,2025-02-27 14h57.48.541637 +0000,
cube_r.png,0.1,10,catch,28,28,0,up,5.581185500021093,None,None,,,,,,,,,,,0,28,28,28,779.6193518000655,,,,,,,,,,,,,779.6035601000767,779.6193518000655,779.6193518000655,779.6193518000655,785.2143487000139,,,,785.2217000999954,785.2333433000604,785.2333433000604,785.2801493000006,785.2804026000667,785.2969077000162,785.2969077000162,785.2969077000162,785.363486199989,788.2947241000365,,,,787.3779349999968,788.3103221000638,788.3103221000638,788.3103221000638,,,,,,,,,,,,,,,up,5.581185500021093,None,None,,,P128,001,2025-02-27_14h57.37.099,posner_endo_new1,2024.2.4,59.92638643842964,2025-02-27 14h57.48.541637 +0000,
cube_r.png,0.1,0.31,valid,29,29,0,up,0.9940032999729738,None,space,0.4224152999231592,None,,,,,,,,,0,29,29,29,788.3103221000638,,,,,,,,,,,,,788.2951420000754,788.3103221000638,788.3103221000638,788.3103221000638,789.3112132999813,,,,789.327485900023,789.3385178999742,789.3385178999742,789.3760619000532,789.3765631000279,789.3924930000212,789.3924930000212,789.3924930000212,789.4757404000266,789.8268973000813,,,,,,,,,,,,,,,,,,,,,,up,0.9940032999729738,None,space,0.4224152999231592,None,P128,001,2025-02-27_14h57.37.099,posner_endo_new1,2024.2.4,59.92638643842964,2025-02-27 14h57.48.541637 +0000,
cube_r.png,0.1,0.31,valid,30,30,0,up,7.34244680008851,None,space,0.415462699951604,None,,,,,,,,,0,30,30,30,789.84220189997,,,,,,,,,,,,,789.8272014000686,789.84220189997,789.84220189997,789.84220189997,797.1861781000625,,,,797.197506400058,797.2078536000336,797.2078536000336,797.251495399978,797.2518631999847,797.2679047000129,797.2679047000129,797.2679047000129,797.351191099966,797.6851175000193,,,,,,,,,,,,,,,,,,,,,,up,7.34244680008851,None,space,0.415462699951604,None,P128,001,2025-02-27_14h57.37.099,posner_endo_new1,2024.2.4,59.92638643842964,2025-02-27 14h57.48.541637 +0000,
cube_l.png,0.1,-0.31,valid,31,31,0,up,4.18761020002421,None,space,0.6214744000462815,None,,,,,,,,,0,31,31,31,797.7006762999808,,,,,,,,,,,,,797.6853292000014,797.7006762999808,797.7006762999808,797.7006762999808,801.8972921000095,,,,801.9045950999716,801.9165780000621,801.9165780000621,801.9632524000481,801.9637640999863,801.9796708000358,801.9796708000358,801.9796708000358,802.0629220000701,802.6137152999872,,,,,,,,,,,,,,,,,,,,,,up,4.18761020002421,None,space,0.6214744000462815,None,P128,001,2025-02-27_14h57.37.099,posner_endo_new1,2024.2.4,59.92638643842964,2025-02-27 14h57.48.541637 +0000,
cube_r.png,0.1,0.31,valid,32,32,0,up,8.426932799979113,None,space,0.3965520999627188,None,,,,,,,,,0,32,32,32,802.6290149000706,,,,,,,,,,,,,802.61401140003,802.6290149000706,802.6290149000706,802.6290149000706,811.0717292000772,,,,811.0801175000379,811.0901807000628,811.0901807000628,811.1372173000127,811.1374645000324,811.1538058000151,811.1538058000151,811.1538058000151,811.237060500076,811.5543117000489,,,,,,,,,,,,,,,,,,,,,,up,8.426932799979113,None,space,0.3965520999627188,None,P128,001,2025-02-27_14h57.37.099,posner_endo_new1,2024.2.4,59.92638643842964,2025-02-27 14h57.48.541637 +0000,
cube_r.png,0.1,-0.31,invalid,33,33,0,up,1.7903413000749424,None,space,0.35300260002259165,None,,,,,,,,,0,33,33,33,811.5700448000571,,,,,,,,,,,,,811.5545118000591,811.5700448000571,811.5700448000571,811.5700448000571,813.3689341000281,,,,813.3759469999932,813.3877179999836,813.3877179999836,813.4348603000399,813.4353619000176,813.4512914000079,813.4512914000079,813.4512914000079,813.5346069000661,813.8193778999848,,,,,,,,,,,,,,,,,,,,,,up,1.7903413000749424,None,space,0.35300260002259165,None,P128,001,2025-02-27_14h57.37.099,posner_endo_new1,2024.2.4,59.92638643842964,2025-02-27 14h57.48.541637 +0000,
cube_r.png,0.1,10,catch,34,34,0,up,2.261657299939543,None,None,,,,,,,,,,,0,34,34,34,813.83424440003,,,,,,,,,,,,,813.8198296000483,813.83424440003,813.83424440003,813.83424440003,816.1000757999718,,,,816.1111209000228,816.1215244000778,816.1215244000778,816.1652876000153,816.1656240000157,816.1820169000421,816.1820169000421,816.1820169000421,816.265079200035,819.1797613999806,,,,818.2799026999855,819.1956326999934,819.1956326999934,819.1956326999934,,,,,,,,,,,,,,,up,2.261657299939543,None,None,,,P128,001,2025-02-27_14h57.37.099,posner_endo_new1,2024.2.4,59.92638643842964,2025-02-27 14h57.48.541637 +0000,
cube_r.png,0.1,0.31,valid,35,35,0,up,2.804799599922262,None,space,0.39178050006739795,None,,,,,,,,,0,35,35,35,819.1956326999934,,,,,,,,,,,,,819.1800685999915,819.1956326999934,819.1956326999934,819.1956326999934,822.010513999965,,,,822.0217841999838,822.0322593000019,822.0322593000019,822.0761109000305,822.076467200066,822.0926149999723,822.0926149999723,822.0926149999723,822.1758473999798,822.4935264000669,,,,,,,,,,,,,,,,,,,,,,up,2.804799599922262,None,space,0.39178050006739795,None,P128,001,2025-02-27_14h57.37.099,posner_endo_new1,2024.2.4,59.92638643842964,2025-02-27 14h57.48.541637 +0000,
cube_r.png,0.1,-0.31,invalid,36,36,0,up,2.3800142999971285,None,space,0.38186449999921024,None,,,,,,,,,0,36,36,36,822.5088379000081,,,,,,,,,,,,,822.4938286000397,822.5088379000081,822.5088379000081,822.5088379000081,824.8911439999938,,,,824.9023562000366,824.9127203000244,824.9127203000244,824.9566166000441,824.9569807000225,824.9729932000628,824.9729932000628,824.9729932000628,825.0562229000498,825.357322899974,,,,,,,,,,,,,,,,,,,,,,up,2.3800142999971285,None,space,0.38186449999921024,None,P128,001,2025-02-27_14h57.37.099,posner_endo_new1,2024.2.4,59.92638643842964,2025-02-27 14h57.48.541637 +0000,
cube_l.png,0.1,0.31,invalid,37,37,0,up,2.7312137000262737,None,space,0.43480849999468774,None,,,,,,,,,0,37,37,37,825.3726465000072,,,,,,,,,,,,,825.3576264000731,825.3726465000072,825.3726465000072,825.3726465000072,828.1208244999871,,,,828.13212319999,828.1421869000187,828.1421869000187,828.1865700000199,828.1869280000683,828.203008600045,828.203008600045,828.203008600045,828.2862859000452,828.6538272000616,,,,,,,,,,,,,,,,,,,,,,up,2.7312137000262737,None,space,0.43480849999468774,None,P128,001,2025-02-27_14h57.37.099,posner_endo_new1,2024.2.4,59.92638643842964,2025-02-27 14h57.48.541637 +0000,
cube_l.png,0.1,0.31,invalid,38,38,0,up,2.4509406000142917,None,space,0.35483309999108315,None,,,,,,,,,0,38,38,38,828.6692472000141,,,,,,,,,,,,,828.6541307000443,828.6692472000141,828.6692472000141,828.6692472000141,831.1345816999674,,,,831.1458062999882,831.1562617999734,831.1562617999734,831.2000313000754,831.2002915000776,831.2165767999832,831.2165767999832,831.2165767999832,831.299936800031,831.5836659000488,,,,,,,,,,,,,,,,,,,,,,up,2.4509406000142917,None,space,0.35483309999108315,None,P128,001,2025-02-27_14h57.37.099,posner_endo_new1,2024.2.4,59.92638643842964,2025-02-27 14h57.48.541637 +0000,
cube_r.png,0.1,0.31,valid,39,39,0,up,2.1698435000143945,None,space,0.34823820006567985,None,,,,,,,,,0,39,39,39,831.5994905000553,,,,,,,,,,,,,831.5838722999906,831.5994905000553,831.5994905000553,831.5994905000553,833.7814812000142,,,,833.7887090999866,833.800609500031,833.800609500031,833.8474659000058,833.8477341000689,833.8637252000626,833.8637252000626,833.8637252000626,833.9470789000625,834.2146381000057,,,,,,,,,,,,,,,,,,,,,,up,2.1698435000143945,None,space,0.34823820006567985,None,P128,001,2025-02-27_14h57.37.099,posner_endo_new1,2024.2.4,59.92638643842964,2025-02-27 14h57.48.541637 +0000,
cube_l.png,0.1,0.31,invalid,40,40,0,up,2.0422629000386223,None,space,0.3466216999804601,None,,,,,,,,,0,40,40,40,834.2304452999961,,,,,,,,,,,,,834.214848899981,834.2304452999961,834.2304452999961,834.2304452999961,836.2790880000684,,,,836.2863758000312,836.2976565000135,836.2976565000135,836.3448335999856,836.3453383999877,836.3612263000105,836.3612263000105,836.3612263000105,836.4444678999716,836.7126876000548,,,,,,,,,,,,,,,,,,,,,,up,2.0422629000386223,None,space,0.3466216999804601,None,P128,001,2025-02-27_14h57.37.099,posner_endo_new1,2024.2.4,59.92638643842964,2025-02-27 14h57.48.541637 +0000,
cube_l.png,0.1,10,catch,41,41,0,up,2.2644062999170274,None,None,,,,,,,,,,,0,41,41,41,836.7275294000283,,,,,,,,,,,,,836.7131406000117,836.7275294000283,836.7275294000283,836.7275294000283,838.9934517000802,,,,839.0046904999763,839.0152372000739,839.0152372000739,839.058664000011,839.0589244000148,839.0750564000336,839.0750564000336,839.0750564000336,839.1585991000757,842.0728160999715,,,,841.1729363000486,842.0887656999985,842.0887656999985,842.0887656999985,,,,,,,,,,,,,,,up,2.2644062999170274,None,None,,,P128,001,2025-02-27_14h57.37.099,posner_endo_new1,2024.2.4,59.92638643842964,2025-02-27 14h57.48.541637 +0000,
cube_l.png,0.1,-0.31,valid,42,42,0,up,0.10334599995985627,None,space,0.4096969000529498,None,,,,,,,,,0,42,42,42,842.0887656999985,,,,,,,,,,,,,842.0730178999947,842.0887656999985,842.0887656999985,842.0887656999985,842.2063316999702,,,,842.2136072000721,842.2248770999722,842.2248770999722,842.2720952000236,842.2723579000449,842.2885920000263,842.2885920000263,842.2885920000263,842.371857500053,842.7056890999665,,,,,,,,,,,,,,,,,,,,,,up,0.10334599995985627,None,space,0.4096969000529498,None,P128,001,2025-02-27_14h57.37.099,posner_endo_new1,2024.2.4,59.92638643842964,2025-02-27 14h57.48.541637 +0000,
cube_l.png,0.1,10,catch,43,43,0,up,2.3030298999510705,None,None,,,,,,,,,,,0,43,43,43,842.7214695999864,,,,,,,,,,,,,842.7058965000324,842.7214695999864,842.7214695999864,842.7214695999864,845.0366769999964,,,,845.0439436000306,845.0555203000549,845.0555203000549,845.1025032000616,845.1030230000615,845.1188974999823,845.1188974999823,845.1188974999823,845.2021823000396,848.1164166000672,,,,847.2169132999843,848.1329246000387,848.1329246000387,848.1329246000387,,,,,,,,,,,,,,,up,2.3030298999510705,None,None,,,P128,001,2025-02-27_14h57.37.099,posner_endo_new1,2024.2.4,59.92638643842964,2025-02-27 14h57.48.541637 +0000,
cube_l.png,0.1,0.31,invalid,44,44,0,up,2.1638658000156283,None,space,0.415350699913688,None,,,,,,,,,0,44,44,44,848.1329246000387,,,,,,,,,,,,,848.11662049999,848.1329246000387,848.1329246000387,848.1329246000387,850.2982790999813,,,,850.3055191000458,850.3167521000141,850.3167521000141,850.3638146000449,850.3640726000303,850.380413100007,850.380413100007,850.380413100007,850.4636237999657,850.7975853000535,,,,,,,,,,,,,,,,,,,,,,up,2.1638658000156283,None,space,0.415350699913688,None,P128,001,2025-02-27_14h57.37.099,posner_endo_new1,2024.2.4,59.92638643842964,2025-02-27 14h57.48.541637 +0000,
cube_l.png,0.1,0.31,invalid,45,45,0,up,2.1715712000150234,None,space,0.3920963000273332,None,,,,,,,,,0,45,45,45,850.8130766999675,,,,,,,,,,,,,850.7977947000181,850.8130766999675,850.8130766999675,850.8130766999675,852.9961652000202,,,,853.0126236000797,853.0241712999996,853.0241712999996,853.0611118000234,853.0614079000661,853.0776411000406,853.0776411000406,853.0776411000406,853.1607670000521,853.47826480004,,,,,,,,,,,,,,,,,,,,,,up,2.1715712000150234,None,space,0.3920963000273332,None,P128,001,2025-02-27_14h57.37.099,posner_endo_new1,2024.2.4,59.92638643842964,2025-02-27 14h57.48.541637 +0000,
cube_r.png,0.1,0.31,valid,46,46,0,up,2.7381635999772698,None,space,0.2940915999934077,None,,,,,,,,,0,46,46,46,853.4939136999892,,,,,,,,,,,,,853.4785054000095,853.4939136999892,853.4939136999892,853.4939136999892,856.2420389000326,,,,856.2506261999952,856.2609537000535,856.2609537000535,856.307682899991,856.3079719999805,856.3244580000173,856.3244580000173,856.3244580000173,856.4075418000575,856.6250412999652,,,,,,,,,,,,,,,,,,,,,,up,2.7381635999772698,None,space,0.2940915999934077,None,P128,001,2025-02-27_14h57.37.099,posner_endo_new1,2024.2.4,59.92638643842964,2025-02-27 14h57.48.541637 +0000,
cube_l.png,0.1,-0.31,valid,47,47,0,up,2.544285999960266,None,space,0.3084118999540806,None,,,,,,,,,0,47,47,47,856.6406325000571,,,,,,,,,,,,,856.6252933000214,856.6406325000571,856.6406325000571,856.6406325000571,859.1900644999696,,,,859.2081223999849,859.2195735999849,859.2195735999849,859.2547303000465,859.2550742999883,859.2712678000098,859.2712678000098,859.2712678000098,859.3544988000067,859.5888240999775,,,,,,,,,,,,,,,,,,,,,,up,2.544285999960266,None,space,0.3084118999540806,None,P128,001,2025-02-27_14h57.37.099,posner_endo_new1,2024.2.4,59.92638643842964,2025-02-27 14h57.48.541637 +0000,
cube_r.png,0.1,-0.31,invalid,48,48,0,up,2.8044705000938848,None,space,0.27743720007129014,None,,,,,,,,,0,48,48,48,859.6043097000802,,,,,,,,,,,,,859.589132299996,859.6043097000802,859.6043097000802,859.6043097000802,862.4192880999763,,,,862.430509799975,862.4408892000793,862.4408892000793,862.4848999000387,862.4852511000354,862.5012353999773,862.5012353999773,862.5012353999773,862.5846347999759,862.7856658999808,,,,,,,,,,,,,,,,,,,,,,up,2.8044705000938848,None,space,0.27743720007129014,None,P128,001,2025-02-27_14h57.37.099,posner_endo_new1,2024.2.4,59.92638643842964,2025-02-27 14h57.48.541637 +0000,
cube_r.png,0.1,10,catch,49,49,0,up,3.0397043999982998,None,space,0.31325400003697723,None,,,,,,,,,0,49,49,49,862.801053400035,,,,,,,,,,,,,862.7859643000411,862.801053400035,862.801053400035,862.801053400035,865.8493331000209,,,,865.8596432000631,865.8692806999898,865.8692806999898,865.9145570000401,865.914802000043,865.9311471000547,865.9311471000547,865.9311471000547,866.0143092999933,866.2481873000506,,,,,,,,,,,,,,,,,,,,,,up,3.0397043999982998,None,space,0.31325400003697723,None,P128,001,2025-02-27_14h57.37.099,posner_endo_new1,2024.2.4,59.92638643842964,2025-02-27 14h57.48.541637 +0000,
cube_l.png,0.1,-0.31,valid,50,50,0,up,3.3289930999744684,None,space,0.259572200011462,None,,,,,,,,,0,50,50,50,866.2636819999898,,,,,,,,,,,,,866.2483971000183,866.2636819999898,866.2636819999898,866.2636819999898,869.5949321000371,,,,869.6018091000151,869.6132182000438,869.6132182000438,869.6605586999794,869.6610089000314,869.6770110999933,869.6770110999933,869.6770110999933,869.7602260999847,869.9451063000597,,,,,,,,,,,,,,,,,,,,,,up,3.3289930999744684,None,space,0.259572200011462,None,P128,001,2025-02-27_14h57.37.099,posner_endo_new1,2024.2.4,59.92638643842964,2025-02-27 14h57.48.541637 +0000,
cube_l.png,0.1,-0.31,valid,51,51,0,up,2.76054839999415,None,space,0.26835180004127324,None,,,,,,,,,0,51,51,51,869.9600300000748,,,,,,,,,,,,,869.9454979000147,869.9600300000748,869.9600300000748,869.9600300000748,872.7255841000006,,,,872.7394541000249,872.749935299973,872.749935299973,872.7908508999972,872.7911443000194,872.8073381000431,872.8073381000431,872.8073381000431,872.8907128999708,873.091494900058,,,,,,,,,,,,,,,,,,,,,,up,2.76054839999415,None,space,0.26835180004127324,None,P128,001,2025-02-27_14h57.37.099,posner_endo_new1,2024.2.4,59.92638643842964,2025-02-27 14h57.48.541637 +0000,
cube_r.png,0.1,-0.31,invalid,52,52,0,up,1.6377564000431448,None,space,0.34197710000444204,None,,,,,,,,,0,52,52,52,873.1070270000491,,,,,,,,,,,,,873.0917437999742,873.1070270000491,873.1070270000491,873.1070270000491,874.7564119000454,,,,874.7657333000097,874.7758854000131,874.7758854000131,874.8221326000057,874.8224352999823,874.8386586999986,874.8386586999986,874.8386586999986,874.9218711999711,875.1893583000638,,,,,,,,,,,,,,,,,,,,,,up,1.6377564000431448,None,space,0.34197710000444204,None,P128,001,2025-02-27_14h57.37.099,posner_endo_new1,2024.2.4,59.92638643842964,2025-02-27 14h57.48.541637 +0000,
cube_l.png,0.1,-0.31,valid,53,53,0,up,2.6759673999622464,None,space,0.24012089997995645,None,,,,,,,,,0,53,53,53,875.2049982000608,,,,,,,,,,,,,875.1896359999664,875.2049982000608,875.2049982000608,875.2049982000608,877.8866830000188,,,,877.8958801999688,877.9060114000458,877.9060114000458,877.9522966999793,877.9526077000191,877.9687000999693,877.9687000999693,877.9687000999693,878.0517885000445,878.219670600025,,,,,,,,,,,,,,,,,,,,,,up,2.6759673999622464,None,space,0.24012089997995645,None,P128,001,2025-02-27_14h57.37.099,posner_endo_new1,2024.2.4,59.92638643842964,2025-02-27 14h57.48.541637 +0000,
cube_r.png,0.1,10,catch,54,54,0,up,2.277580299996771,None,space,0.2731874000746757,None,,,,,,,,,0,54,54,54,878.235139700002,,,,,,,,,,,,,878.2199347000569,878.235139700002,878.235139700002,878.235139700002,880.5173500999808,,,,880.5268732999684,880.5369579000399,880.5369579000399,880.5829546999885,880.5832647000207,880.599361200002,880.599361200002,880.599361200002,880.6827233000658,880.883645700058,,,,,,,,,,,,,,,,,,,,,,up,2.277580299996771,None,space,0.2731874000746757,None,P128,001,2025-02-27_14h57.37.099,posner_endo_new1,2024.2.4,59.92638643842964,2025-02-27 14h57.48.541637 +0000,
cube_l.png,0.1,0.31,invalid,55,55,0,up,2.4135801000520587,None,space,0.4138463999843225,None,,,,,,,,,0,55,55,55,880.899143800023,,,,,,,,,,,,,880.8839084000792,880.899143800023,880.899143800023,880.899143800023,883.3143477999838,,,,883.3236675000517,883.333836200065,883.333836200065,883.3800745999906,883.380375900073,883.3965563999955,883.3965563999955,883.3965563999955,883.4798345000017,883.8137815999798,,,,,,,,,,,,,,,,,,,,,,up,2.4135801000520587,None,space,0.4138463999843225,None,P128,001,2025-02-27_14h57.37.099,posner_endo_new1,2024.2.4,59.92638643842964,2025-02-27 14h57.48.541637 +0000,
cube_l.png,0.1,-0.31,valid,56,56,0,up,2.523280500085093,None,space,0.35731079999823123,None,,,,,,,,,0,56,56,56,883.8291487999959,,,,,,,,,,,,,883.8139535000082,883.8291487999959,883.8291487999959,883.8291487999959,886.3609892000677,,,,886.3667532000691,886.3784670999739,886.3784670999739,886.4268823000602,886.427374000079,886.443375700037,886.443375700037,886.443375700037,886.5265848999843,886.8113478000741,,,,,,,,,,,,,,,,,,,,,,up,2.523280500085093,None,space,0.35731079999823123,None,P128,001,2025-02-27_14h57.37.099,posner_endo_new1,2024.2.4,59.92638643842964,2025-02-27 14h57.48.541637 +0000,
cube_r.png,0.1,0.31,valid,57,57,0,up,2.3828587000025436,None,space,0.28292930009774864,None,,,,,,,,,0,57,57,57,886.8262882999843,,,,,,,,,,,,,886.8118030000478,886.8262882999843,886.8262882999843,886.8262882999843,889.2251917000394,,,,889.2362752000336,889.2465980000561,889.2465980000561,889.2907461000141,889.2910886000609,889.3073441999732,889.3073441999732,889.3073441999732,889.390481700073,889.5916918000439,,,,,,,,,,,,,,,,,,,,,,up,2.3828587000025436,None,space,0.28292930009774864,None,P128,001,2025-02-27_14h57.37.099,posner_endo_new1,2024.2.4,59.92638643842964,2025-02-27 14h57.48.541637 +0000,
cube_r.png,0.1,-0.31,invalid,58,58,0,up,2.4011882999911904,None,space,0.27768549998290837,None,,,,,,,,,0,58,58,58,889.6070524000097,,,,,,,,,,,,,889.5919862000737,889.6070524000097,889.6070524000097,889.6070524000097,892.0222397000762,,,,892.0334737000521,892.0437915000366,892.0437915000366,892.0878274000715,892.088172000018,892.1044540000148,892.1044540000148,892.1044540000148,892.187614500057,892.3884993999964,,,,,,,,,,,,,,,,,,,,,,up,2.4011882999911904,None,space,0.27768549998290837,None,P128,001,2025-02-27_14h57.37.099,posner_endo_new1,2024.2.4,59.92638643842964,2025-02-27 14h57.48.541637 +0000,
cube_l.png,0.1,0.31,invalid,59,59,0,up,2.603977099992335,None,space,0.3665264999726787,None,,,,,,,,,0,59,59,59,892.4040977000259,,,,,,,,,,,,,892.3888097000308,892.4040977000259,892.4040977000259,892.4040977000259,895.0192805000115,,,,895.0303650000133,895.0407538000727,895.0407538000727,895.0848371000029,895.0851826000726,895.1013548000483,895.1013548000483,895.1013548000483,895.1845273000654,895.4690995999845,,,,,,,,,,,,,,,,,,,,,,up,2.603977099992335,None,space,0.3665264999726787,None,P128,001,2025-02-27_14h57.37.099,posner_endo_new1,2024.2.4,59.92638643842964,2025-02-27 14h57.48.541637 +0000,
