cue_img,cue_soa,target_x,trial,thisN,thisTrialN,thisRepN,key_control2.keys,key_control2.rt,key_control2.duration,key_resp.keys,key_resp.rt,key_resp.duration,practice.thisRepN,practice.thisTrialN,practice.thisN,practice.thisIndex,block1.thisRepN,block1.thisTrialN,block1.thisN,block1.thisIndex,block2.thisRepN,block2.thisTrialN,block2.thisN,block2.thisIndex,thisRow.t,notes,instructions.started,instructions_txt.started,key_control.started,instructions.stopped,key_control.keys,key_control.rt,key_control.duration,ready.started,ready_txt.started,ready_txt.stopped,ready.stopped,fix.started,fixation.started,key_control2.started,fixation_cross.started,fix.stopped,practice.key_control2.keys,practice.key_control2.rt,practice.key_control2.duration,cue.started,cube.started,fixation_cross_cue.started,cue.stopped,target.started,fixation_target.started,fixation_cross_target.started,key_resp.started,star.started,target.stopped,practice.key_resp.keys,practice.key_resp.rt,practice.key_resp.duration,block1.key_control2.keys,block1.key_control2.rt,block1.key_control2.duration,star.stopped,fixation_target.stopped,fixation_cross_target.stopped,key_resp.stopped,block1.key_resp.keys,block1.key_resp.rt,block1.key_resp.duration,break_2.started,text.started,key_control3.started,text.stopped,break_2.stopped,key_control3.keys,key_control3.rt,key_control3.duration,block2.key_control2.keys,block2.key_control2.rt,block2.key_control2.duration,block2.key_resp.keys,block2.key_resp.rt,block2.key_resp.duration,participant,session,date,expName,psychopyVersion,frameRate,expStart,
,,,,,,,,,,,,,,,,,,,,,,,,,,,0.00746559991966933,0.019522299990057945,0.019522299990057945,355.0405356999254,up,355.01357009995263,None,,,,,,,,,,,,,,,,,,,,,,,,,,,,,,,,,,,,,,,,,,,,,,,,,,P129,001,2025-02-27_16h02.52.942,posner_endo_new1,2024.2.4,59.945713153560135,2025-02-27 16h03.02.026065 +0000,
,,,,,,,,,,,,,,,,,,,,,,,,,,,,,,,,,,355.040582699934,355.053733299952,358.0659350999631,358.034157600021,,,,,,,,,,,,,,,,,,,,,,,,,,,,,,,,,,,,,,,,,,,,,,P129,001,2025-02-27_16h02.52.942,posner_endo_new1,2024.2.4,59.945713153560135,2025-02-27 16h03.02.026065 +0000,
cube_l.png,0.1,-0.31,valid,0,0,0,up,20.111381600028835,None,space,0.3152454000664875,None,0,0,0,0,,,,,,,,,358.0659350999631,,,,,,,,,,,,,358.05233779991977,358.0659350999631,358.0659350999631,358.0659350999631,378.1813440999249,up,20.111381600028835,None,378.19556559994817,378.2055744000245,378.2055744000245,378.2469302000245,378.24717119999696,378.26331810001284,378.26331810001284,378.26331810001284,378.3465622999938,378.5804557999363,space,0.3152454000664875,None,,,,,,,,,,,,,,,,,,,,,,,,,P129,001,2025-02-27_16h02.52.942,posner_endo_new1,2024.2.4,59.945713153560135,2025-02-27 16h03.02.026065 +0000,
cube_l.png,0.1,0.31,invalid,1,1,0,up,4.013765800045803,None,space,0.47348599997349083,None,0,1,1,1,,,,,,,,,378.5965283999685,,,,,,,,,,,,,378.58062389993574,378.5965283999685,378.5965283999685,378.5965283999685,382.62672709999606,up,4.013765800045803,None,382.6361795000266,382.64613859995734,382.64613859995734,382.6922249000054,382.6925270999782,382.70880469994154,382.70880469994154,382.70880469994154,382.79200609994587,383.192640400026,space,0.47348599997349083,None,,,,,,,,,,,,,,,,,,,,,,,,,P129,001,2025-02-27_16h02.52.942,posner_endo_new1,2024.2.4,59.945713153560135,2025-02-27 16h03.02.026065 +0000,
cube_r.png,0.1,-0.31,invalid,2,2,0,up,3.3292685999767855,None,space,0.3647285000188276,None,0,2,2,2,,,,,,,,,383.208219800028,,,,,,,,,,,,,383.1928823000053,383.208219800028,383.208219800028,383.208219800028,386.53936609998345,up,3.3292685999767855,None,386.54869349999353,386.55872789991554,386.55872789991554,386.6048733999487,386.60517210001126,386.6214928999543,386.6214928999543,386.6214928999543,386.70467799995095,386.9889455999946,space,0.3647285000188276,None,,,,,,,,,,,,,,,,,,,,,,,,,P129,001,2025-02-27_16h02.52.942,posner_endo_new1,2024.2.4,59.945713153560135,2025-02-27 16h03.02.026065 +0000,
cube_r.png,0.1,10,catch,3,3,0,up,8.253350500017405,None,space,0.31602739996742457,None,0,3,3,3,,,,,,,,,387.0044908999698,,,,,,,,,,,,,386.9891905999975,387.0044908999698,387.0044908999698,387.0044908999698,395.2637590999948,up,8.253350500017405,None,395.27307979995385,395.2830641999608,395.2830641999608,395.3293935999973,395.32969839998987,395.3458160000155,395.3458160000155,395.3458160000155,395.42896779999137,395.6633566999808,space,0.31602739996742457,None,,,,,,,,,,,,,,,,,,,,,,,,,P129,001,2025-02-27_16h02.52.942,posner_endo_new1,2024.2.4,59.945713153560135,2025-02-27 16h03.02.026065 +0000,
cube_l.png,0.1,-0.31,valid,4,4,0,up,6.282514700083993,None,space,0.49459500005468726,None,0,4,4,4,,,,,,,,,395.67881129996385,,,,,,,,,,,,,395.66359849995933,395.67881129996385,395.67881129996385,395.67881129996385,401.97349310002755,up,6.282514700083993,None,401.9827724000206,401.99298500001896,401.99298500001896,402.03919969999697,402.03950139996596,402.0556894999463,402.0556894999463,402.0556894999463,402.1389295000117,402.55611170001794,space,0.49459500005468726,None,,,,,,,,,,,,,,,,,,,,,,,,,P129,001,2025-02-27_16h02.52.942,posner_endo_new1,2024.2.4,59.945713153560135,2025-02-27 16h03.02.026065 +0000,
cube_l.png,0.1,0.31,invalid,5,5,0,up,5.837799899978563,None,space,0.6254833999555558,None,0,5,5,5,,,,,,,,,402.57191619998775,,,,,,,,,,,,,402.5563613999402,402.57191619998775,402.57191619998775,402.57191619998775,408.41697719995864,up,5.837799899978563,None,408.42620959994383,408.4363449999364,408.4363449999364,408.4825309999287,408.48283569992054,408.49915639997926,408.49915639997926,408.49915639997926,408.5823656999273,409.13301539991517,space,0.6254833999555558,None,,,,,,,,,,,,,,,,,,,,,,,,,P129,001,2025-02-27_16h02.52.942,posner_endo_new1,2024.2.4,59.945713153560135,2025-02-27 16h03.02.026065 +0000,
cube_r.png,0.1,-0.31,invalid,6,6,0,up,5.636727600009181,None,space,0.4289967999793589,None,0,6,6,6,,,,,,,,,409.14844100002665,,,,,,,,,,,,,409.1332545999903,409.14844100002665,409.14844100002665,409.14844100002665,414.7938253999455,up,5.636727600009181,None,414.80312850000337,414.8132971000159,414.8132971000159,414.85931899992283,414.8596157999709,414.8759111999534,414.8759111999534,414.8759111999534,414.9589325999841,415.30997079994995,space,0.4289967999793589,None,,,,,,,,,,,,,,,,,,,,,,,,,P129,001,2025-02-27_16h02.52.942,posner_endo_new1,2024.2.4,59.945713153560135,2025-02-27 16h03.02.026065 +0000,
cube_r.png,0.1,0.31,valid,7,7,0,up,6.4997827999759465,None,space,0.40451779996510595,None,0,7,7,7,,,,,,,,,415.3255019999342,,,,,,,,,,,,,415.3102103000274,415.3255019999342,415.3255019999342,415.3255019999342,421.8362667999463,up,6.4997827999759465,None,421.8454201000277,421.85552989994176,421.85552989994176,421.9021551000187,421.9024562999839,421.9188052000245,421.9188052000245,421.9188052000245,421.98526949994266,422.33603389991913,space,0.40451779996510595,None,,,,,,,,,,,,,,,,,,,,,,,,,P129,001,2025-02-27_16h02.52.942,posner_endo_new1,2024.2.4,59.945713153560135,2025-02-27 16h03.02.026065 +0000,
cube_l.png,0.1,-0.31,valid,8,8,0,up,6.929636799963191,None,space,0.6402913999045268,None,0,8,8,8,,,,,,,,,422.35162339999806,,,,,,,,,,,,,422.33627760002855,422.35162339999806,422.35162339999806,422.35162339999806,429.295524999965,up,6.929636799963191,None,429.3048750999151,429.31502679991536,429.31502679991536,429.36124340002425,429.361538499943,429.377770400024,429.377770400024,429.377770400024,429.4609836000018,430.02815189992543,space,0.6402913999045268,None,,,,,,,,,,,,,,,,,,,,,,,,,P129,001,2025-02-27_16h02.52.942,posner_endo_new1,2024.2.4,59.945713153560135,2025-02-27 16h03.02.026065 +0000,
cube_r.png,0.1,-0.31,invalid,9,9,0,up,6.445757900015451,None,space,0.6445825999835506,None,0,9,9,9,,,,,,,,,430.04375539999455,,,,,,,,,,,,,430.02839499991387,430.04375539999455,430.04375539999455,430.04375539999455,436.50478009996004,up,6.445757900015451,None,436.5141082999762,436.5243720000144,436.5243720000144,436.57048879994545,436.5707972999662,436.5871247999603,436.5871247999603,436.5871247999603,436.6703549999511,437.2375400000019,space,0.6445825999835506,None,,,,,,,,,,,,,,,,,,,,,,,,,P129,001,2025-02-27_16h02.52.942,posner_endo_new1,2024.2.4,59.945713153560135,2025-02-27 16h03.02.026065 +0000,
cube_r.png,0.1,0.31,valid,10,10,0,up,6.668696100008674,None,space,0.47828719997778535,None,0,10,10,10,,,,,,,,,437.2531462999759,,,,,,,,,,,,,437.23778440000024,437.2531462999759,437.2531462999759,437.2531462999759,443.93067079992034,up,6.668696100008674,None,443.93992589996196,443.949986099964,443.949986099964,443.9963048999198,443.9966033999808,444.0126985999523,444.0126985999523,444.0126985999523,444.0961935999803,444.4967771000229,space,0.47828719997778535,None,,,,,,,,,,,,,,,,,,,,,,,,,P129,001,2025-02-27_16h02.52.942,posner_endo_new1,2024.2.4,59.945713153560135,2025-02-27 16h03.02.026065 +0000,
,,,,,,,,,,,,,,,,,,,,,,,,,,,,,,,,,,444.49694099999033,444.5122616000008,447.5251005999744,447.4932865999872,,,,,,,,,,,,,,,,,,,,,,,,,,,,,,,,,,,,,,,,,,,,,,P129,001,2025-02-27_16h02.52.942,posner_endo_new1,2024.2.4,59.945713153560135,2025-02-27 16h03.02.026065 +0000,
cube_l.png,0.1,10,catch,0,0,0,up,12.765037000062875,None,None,,,,,,,0,0,0,0,,,,,447.5251005999744,,,,,,,,,,,,,447.5159950000234,447.5251005999744,447.5251005999744,447.5251005999744,460.2972801999422,,,,460.3067169999704,460.31687929993495,460.31687929993495,460.3629803999793,460.36329429992475,460.3794091999298,460.3794091999298,460.3794091999298,460.46269129996654,463.37686219997704,,,,up,12.765037000062875,None,462.4773194999434,463.39328790002037,463.39328790002037,463.39328790002037,None,,,,,,,,,,,,,,,,,P129,001,2025-02-27_16h02.52.942,posner_endo_new1,2024.2.4,59.945713153560135,2025-02-27 16h03.02.026065 +0000,
cube_l.png,0.1,10,catch,1,1,0,up,4.881032999954186,None,None,,,,,,,0,1,1,1,,,,,463.39328790002037,,,,,,,,,,,,,463.3770233999239,463.39328790002037,463.39328790002037,463.39328790002037,468.28866830002517,,,,468.29485940001905,468.3064051999245,468.3064051999245,468.3548193000024,468.35503809992224,468.3712580000283,468.3712580000283,468.3712580000283,468.4377139999997,471.3691206999356,,,,up,4.881032999954186,None,470.4524384000106,471.384701199946,471.384701199946,471.384701199946,None,,,,,,,,,,,,,,,,,P129,001,2025-02-27_16h02.52.942,posner_endo_new1,2024.2.4,59.945713153560135,2025-02-27 16h03.02.026065 +0000,
cube_l.png,0.1,0.31,invalid,2,2,0,up,3.832734000054188,None,space,0.451183799887076,None,,,,,0,2,2,2,,,,,471.384701199946,,,,,,,,,,,,,471.36952389997896,471.384701199946,471.384701199946,471.384701199946,475.2325015999377,,,,475.2491152000148,475.26006360002793,475.26006360002793,475.297653799993,475.298139099963,475.31402349995915,475.31402349995915,475.31402349995915,475.3972560999682,475.7819545000093,,,,up,3.832734000054188,None,,,,,space,0.451183799887076,None,,,,,,,,,,,,,,,P129,001,2025-02-27_16h02.52.942,posner_endo_new1,2024.2.4,59.945713153560135,2025-02-27 16h03.02.026065 +0000,
cube_l.png,0.1,0.31,invalid,3,3,0,up,7.2123749000020325,None,space,0.47877429996151477,None,,,,,0,3,3,3,,,,,475.79689889994916,,,,,,,,,,,,,475.7824015999213,475.79689889994916,475.79689889994916,475.79689889994916,483.02406349999364,,,,483.03532509994693,483.045510499971,483.045510499971,483.0897164000198,483.0900525000179,483.10628389997873,483.10628389997873,483.10628389997873,483.1894294000231,483.59055690001696,,,,up,7.2123749000020325,None,,,,,space,0.47877429996151477,None,,,,,,,,,,,,,,,P129,001,2025-02-27_16h02.52.942,posner_endo_new1,2024.2.4,59.945713153560135,2025-02-27 16h03.02.026065 +0000,
cube_l.png,0.1,-0.31,valid,4,4,0,up,6.460063499980606,None,space,0.6218491999898106,None,,,,,0,4,4,4,,,,,483.60582229995634,,,,,,,,,,,,,483.5908534999471,483.60582229995634,483.60582229995634,483.60582229995634,490.06706459994894,,,,490.07824980001897,490.0885050999932,490.0885050999932,490.1324603999965,490.1327988000121,490.1491420000093,490.1491420000093,490.1491420000093,490.2323553999886,490.78292479994707,,,,up,6.460063499980606,None,,,,,space,0.6218491999898106,None,,,,,,,,,,,,,,,P129,001,2025-02-27_16h02.52.942,posner_endo_new1,2024.2.4,59.945713153560135,2025-02-27 16h03.02.026065 +0000,
cube_r.png,0.1,-0.31,invalid,5,5,0,up,7.195307500078343,None,space,0.5544829999562353,None,,,,,0,5,5,5,,,,,490.79842379991896,,,,,,,,,,,,,490.7832204999868,490.79842379991896,490.79842379991896,490.79842379991896,498.00889900000766,,,,498.0200393999694,498.0303731999593,498.0303731999593,498.0744452999206,498.07478729996365,498.09097739995923,498.09097739995923,498.09097739995923,498.17421770002693,498.6581783000147,,,,up,7.195307500078343,None,,,,,space,0.5544829999562353,None,,,,,,,,,,,,,,,P129,001,2025-02-27_16h02.52.942,posner_endo_new1,2024.2.4,59.945713153560135,2025-02-27 16h03.02.026065 +0000,
cube_r.png,0.1,0.31,valid,6,6,0,up,7.392403700039722,None,space,0.623321000020951,None,,,,,0,6,6,6,,,,,498.6736978000263,,,,,,,,,,,,,498.65847359993495,498.6736978000263,498.6736978000263,498.6736978000263,506.0675164000131,,,,506.0786934000207,506.08907979994547,506.08907979994547,506.13282189995516,506.13316660001874,506.1493636999512,506.1493636999512,506.1493636999512,506.2326809000224,506.7831849999493,,,,up,7.392403700039722,None,,,,,space,0.623321000020951,None,,,,,,,,,,,,,,,P129,001,2025-02-27_16h02.52.942,posner_endo_new1,2024.2.4,59.945713153560135,2025-02-27 16h03.02.026065 +0000,
cube_r.png,0.1,-0.31,invalid,7,7,0,up,11.395234899944626,None,space,0.6485160000156611,None,,,,,0,7,7,7,,,,,506.7986462999834,,,,,,,,,,,,,506.78347569995094,506.7986462999834,506.7986462999834,506.7986462999834,518.2049208999379,,,,518.2161408999236,518.2264433000237,518.2264433000237,518.2703850999242,518.2707220999291,518.2869622999569,518.2869622999569,518.2869622999569,518.3702473000158,518.9376711000223,,,,up,11.395234899944626,None,,,,,space,0.6485160000156611,None,,,,,,,,,,,,,,,P129,001,2025-02-27_16h02.52.942,posner_endo_new1,2024.2.4,59.945713153560135,2025-02-27 16h03.02.026065 +0000,
cube_l.png,0.1,-0.31,valid,8,8,0,up,7.393778099911287,None,space,0.7243681000545621,None,,,,,0,8,8,8,,,,,518.9529130000155,,,,,,,,,,,,,518.9379620000254,518.9529130000155,518.9529130000155,518.9529130000155,526.3629017999629,,,,526.3699555000057,526.3816525000148,526.3816525000148,526.4284977000207,526.4287406000076,526.4453109999886,526.4453109999886,526.4453109999886,526.5284855000209,527.1787095000036,,,,up,7.393778099911287,None,,,,,space,0.7243681000545621,None,,,,,,,,,,,,,,,P129,001,2025-02-27_16h02.52.942,posner_endo_new1,2024.2.4,59.945713153560135,2025-02-27 16h03.02.026065 +0000,
cube_r.png,0.1,-0.31,invalid,9,9,0,up,3.4713319999864325,None,space,0.6874217999866232,None,,,,,0,9,9,9,,,,,527.1943881999468,,,,,,,,,,,,,527.1789066999918,527.1943881999468,527.1943881999468,527.1943881999468,530.6751067999285,,,,530.6822199999588,530.6940006000223,530.6940006000223,530.7410241999896,530.7412716000108,530.7576798999216,530.7576798999216,530.7576798999216,530.8241928999778,531.457773400005,,,,up,3.4713319999864325,None,,,,,space,0.6874217999866232,None,,,,,,,,,,,,,,,P129,001,2025-02-27_16h02.52.942,posner_endo_new1,2024.2.4,59.945713153560135,2025-02-27 16h03.02.026065 +0000,
cube_l.png,0.1,0.31,invalid,10,10,0,up,6.791951199993491,None,space,0.6730152999516577,None,,,,,0,10,10,10,,,,,531.4735179999843,,,,,,,,,,,,,531.4579709999962,531.4735179999843,531.4735179999843,531.4735179999843,538.2674156000139,,,,538.2744825999252,538.2862389999209,538.2862389999209,538.3333462999435,538.3336033999221,538.3499197999481,538.3499197999481,538.3499197999481,538.4330059000058,539.0330759999342,,,,up,6.791951199993491,None,,,,,space,0.6730152999516577,None,,,,,,,,,,,,,,,P129,001,2025-02-27_16h02.52.942,posner_endo_new1,2024.2.4,59.945713153560135,2025-02-27 16h03.02.026065 +0000,
cube_r.png,0.1,-0.31,invalid,11,11,0,up,7.43260410008952,None,space,0.7743859000038356,None,,,,,0,11,11,11,,,,,539.0490601999918,,,,,,,,,,,,,539.0332744999323,539.0490601999918,539.0490601999918,539.0490601999918,546.4922420999501,,,,546.49931809993,546.5110492999665,546.5110492999665,546.5580807999941,546.5583026999375,546.5747000999982,546.5747000999982,546.5747000999982,546.6413433999987,547.3578914999962,,,,up,7.43260410008952,None,,,,,space,0.7743859000038356,None,,,,,,,,,,,,,,,P129,001,2025-02-27_16h02.52.942,posner_endo_new1,2024.2.4,59.945713153560135,2025-02-27 16h03.02.026065 +0000,
cube_r.png,0.1,0.31,valid,12,12,0,up,7.612351099960506,None,space,0.46181290003005415,None,,,,,0,12,12,12,,,,,547.3738997000037,,,,,,,,,,,,,547.3580656999256,547.3738997000037,547.3738997000037,547.3738997000037,555.000116799958,,,,555.0060130999191,555.0185726999771,555.0185726999771,555.0661261000205,555.0666591000045,555.082545000012,555.082545000012,555.082545000012,555.1491516999668,555.5505215999437,,,,up,7.612351099960506,None,,,,,space,0.46181290003005415,None,,,,,,,,,,,,,,,P129,001,2025-02-27_16h02.52.942,posner_endo_new1,2024.2.4,59.945713153560135,2025-02-27 16h03.02.026065 +0000,
cube_l.png,0.1,10,catch,13,13,0,up,6.620992899988778,None,None,,,,,,,0,13,13,13,,,,,555.5653843999607,,,,,,,,,,,,,555.5509523999644,555.5653843999607,555.5653843999607,555.5653843999607,562.1934012999991,,,,562.2045208999189,562.2146836000029,562.2146836000029,562.258876799955,562.2592128999531,562.2753351000138,562.2753351000138,562.2753351000138,562.3586104999995,565.2729938999983,,,,up,6.620992899988778,None,564.3732863999903,565.2890179000096,565.2890179000096,565.2890179000096,None,,,,,,,,,,,,,,,,,P129,001,2025-02-27_16h02.52.942,posner_endo_new1,2024.2.4,59.945713153560135,2025-02-27 16h03.02.026065 +0000,
cube_r.png,0.1,-0.31,invalid,14,14,0,up,1.9050348000600934,None,space,0.6763037000782788,None,,,,,0,14,14,14,,,,,565.2890179000096,,,,,,,,,,,,,565.2732606999343,565.2890179000096,565.2890179000096,565.2890179000096,567.2048523999983,,,,567.215940300026,567.2262548999861,567.2262548999861,567.2704014999326,567.2707375999307,567.2868757999968,567.2868757999968,567.2868757999968,567.3701655999757,567.9707483999664,,,,up,1.9050348000600934,None,,,,,space,0.6763037000782788,None,,,,,,,,,,,,,,,P129,001,2025-02-27_16h02.52.942,posner_endo_new1,2024.2.4,59.945713153560135,2025-02-27 16h03.02.026065 +0000,
cube_l.png,0.1,-0.31,valid,15,15,0,up,4.807919699931517,None,space,0.6077736000297591,None,,,,,0,15,15,15,,,,,567.9862353999633,,,,,,,,,,,,,567.9710391999688,567.9862353999633,567.9862353999633,567.9862353999633,572.7990704999538,,,,572.8101998999482,572.8205548999831,572.8205548999831,572.8646436999552,572.8649796999525,572.8812390000094,572.8812390000094,572.8812390000094,572.9644724000245,573.4984302999219,,,,up,4.807919699931517,None,,,,,space,0.6077736000297591,None,,,,,,,,,,,,,,,P129,001,2025-02-27_16h02.52.942,posner_endo_new1,2024.2.4,59.945713153560135,2025-02-27 16h03.02.026065 +0000,
cube_r.png,0.1,10,catch,16,16,0,up,7.055527999997139,None,None,,,,,,,0,16,16,16,,,,,573.5139462000225,,,,,,,,,,,,,573.4987220999319,573.5139462000225,573.5139462000225,573.5139462000225,580.5746739999158,,,,580.5857946999604,580.5961376000196,580.5961376000196,580.640385299921,580.6407361999154,580.6566313999938,580.6566313999938,580.6566313999938,580.739754499984,583.6542619999964,,,,up,7.055527999997139,None,582.7543935999274,583.670146599994,583.670146599994,583.670146599994,None,,,,,,,,,,,,,,,,,P129,001,2025-02-27_16h02.52.942,posner_endo_new1,2024.2.4,59.945713153560135,2025-02-27 16h03.02.026065 +0000,
cube_r.png,0.1,10,catch,17,17,0,up,5.211587400059216,None,None,,,,,,,0,17,17,17,,,,,583.670146599994,,,,,,,,,,,,,583.6545297999401,583.670146599994,583.670146599994,583.670146599994,588.883416299941,,,,588.8932960999664,588.9033544999547,588.9033544999547,588.9482077999273,588.948507699999,588.9647097999696,588.9647097999696,588.9647097999696,589.04792859999,591.962280799984,,,,up,5.211587400059216,None,591.0625936000142,591.9782996999566,591.9782996999566,591.9782996999566,None,,,,,,,,,,,,,,,,,P129,001,2025-02-27_16h02.52.942,posner_endo_new1,2024.2.4,59.945713153560135,2025-02-27 16h03.02.026065 +0000,
cube_l.png,0.1,0.31,invalid,18,18,0,up,5.247144200024195,None,space,0.4721822999417782,None,,,,,0,18,18,18,,,,,591.9782996999566,,,,,,,,,,,,,591.9625192999374,591.9782996999566,591.9782996999566,591.9782996999566,597.240721500013,,,,597.2503594999434,597.2604660999496,597.2604660999496,597.3063474999508,597.3066466000164,597.3228991000215,597.3228991000215,597.3228991000215,597.406147099915,597.8066598000005,,,,up,5.247144200024195,None,,,,,space,0.4721822999417782,None,,,,,,,,,,,,,,,P129,001,2025-02-27_16h02.52.942,posner_endo_new1,2024.2.4,59.945713153560135,2025-02-27 16h03.02.026065 +0000,
cube_l.png,0.1,10,catch,19,19,0,up,7.0432203999953344,None,None,,,,,,,0,19,19,19,,,,,597.8223887999775,,,,,,,,,,,,,597.806911899941,597.8223887999775,597.8223887999775,597.8223887999775,604.8825937999645,,,,604.8884405000135,604.8996504999232,604.8996504999232,604.9484577999683,604.9489456999581,604.9649208999472,604.9649208999472,604.9649208999472,605.0481674999464,607.9628463999834,,,,up,7.0432203999953344,None,607.0627386999549,607.9785117999418,607.9785117999418,607.9785117999418,None,,,,,,,,,,,,,,,,,P129,001,2025-02-27_16h02.52.942,posner_endo_new1,2024.2.4,59.945713153560135,2025-02-27 16h03.02.026065 +0000,
cube_l.png,0.1,0.31,invalid,20,20,0,up,4.175543099991046,None,space,0.5178373999660835,None,,,,,0,20,20,20,,,,,607.9785117999418,,,,,,,,,,,,,607.9632629000116,607.9785117999418,607.9785117999418,607.9785117999418,612.1590066999197,,,,612.1702451999299,612.1806354,612.1806354,612.2244636999676,612.2247999999672,612.2409632999916,612.2409632999916,612.2409632999916,612.3241985000204,612.7749277999392,,,,up,4.175543099991046,None,,,,,space,0.5178373999660835,None,,,,,,,,,,,,,,,P129,001,2025-02-27_16h02.52.942,posner_endo_new1,2024.2.4,59.945713153560135,2025-02-27 16h03.02.026065 +0000,
cube_l.png,0.1,-0.31,valid,21,21,0,up,7.171865699929185,None,space,0.5722476999508217,None,,,,,0,21,21,21,,,,,612.790422799997,,,,,,,,,,,,,612.7752294000238,612.790422799997,612.790422799997,612.790422799997,619.9676164999837,,,,619.9788160999306,619.9891549999593,619.9891549999593,620.0332194999792,620.0335645999294,620.0496329999296,620.0496329999296,620.0496329999296,620.1329742999515,620.6335944000166,,,,up,7.171865699929185,None,,,,,space,0.5722476999508217,None,,,,,,,,,,,,,,,P129,001,2025-02-27_16h02.52.942,posner_endo_new1,2024.2.4,59.945713153560135,2025-02-27 16h03.02.026065 +0000,
cube_r.png,0.1,0.31,valid,22,22,0,up,9.745304299984127,None,space,0.5580140999518335,None,,,,,0,22,22,22,,,,,620.6490703999298,,,,,,,,,,,,,620.6338941999711,620.6490703999298,620.6490703999298,620.6490703999298,630.4069562000223,,,,630.4181096999673,630.4284723999444,630.4284723999444,630.4726060000248,630.472942900029,630.4889823999256,630.4889823999256,630.4889823999256,630.5722030999605,631.0563049999764,,,,up,9.745304299984127,None,,,,,space,0.5580140999518335,None,,,,,,,,,,,,,,,P129,001,2025-02-27_16h02.52.942,posner_endo_new1,2024.2.4,59.945713153560135,2025-02-27 16h03.02.026065 +0000,
cube_r.png,0.1,-0.31,invalid,23,23,0,up,3.362145400024019,None,space,0.5726583999348804,None,,,,,0,23,23,23,,,,,631.0718655999517,,,,,,,,,,,,,631.056596999988,631.0718655999517,631.0718655999517,631.0718655999517,634.4363688000012,,,,634.4476344999857,634.4580900999717,634.4580900999717,634.5012146999361,634.501551699941,634.5176719999872,634.5176719999872,634.5176719999872,634.6014946999494,635.101712099975,,,,up,3.362145400024019,None,,,,,space,0.5726583999348804,None,,,,,,,,,,,,,,,P129,001,2025-02-27_16h02.52.942,posner_endo_new1,2024.2.4,59.945713153560135,2025-02-27 16h03.02.026065 +0000,
cube_r.png,0.1,0.31,valid,24,24,0,up,4.58870210009627,None,space,0.5713277000468224,None,,,,,0,24,24,24,,,,,635.1175745999208,,,,,,,,,,,,,635.1018897999311,635.1175745999208,635.1175745999208,635.1175745999208,639.7136073999573,,,,639.7197876999853,639.7315053999191,639.7315053999191,639.7795248000184,639.7797448999481,639.796025199932,639.796025199932,639.796025199932,639.8628176000202,640.3795821999665,,,,up,4.58870210009627,None,,,,,space,0.5713277000468224,None,,,,,,,,,,,,,,,P129,001,2025-02-27_16h02.52.942,posner_endo_new1,2024.2.4,59.945713153560135,2025-02-27 16h03.02.026065 +0000,
cube_r.png,0.1,-0.31,invalid,25,25,0,up,3.974648200091906,None,space,0.6490724000614136,None,,,,,0,25,25,25,,,,,640.3955964000197,,,,,,,,,,,,,640.3797592999181,640.3955964000197,640.3955964000197,640.3955964000197,644.376566199935,,,,644.3932151999325,644.4042679999257,644.4042679999257,644.4414918000111,644.4417685000226,644.4580209000269,644.4580209000269,644.4580209000269,644.5413346999558,645.1083820000058,,,,up,3.974648200091906,None,,,,,space,0.6490724000614136,None,,,,,,,,,,,,,,,P129,001,2025-02-27_16h02.52.942,posner_endo_new1,2024.2.4,59.945713153560135,2025-02-27 16h03.02.026065 +0000,
cube_l.png,0.1,-0.31,valid,26,26,0,up,4.573703399975784,None,space,0.47074100002646446,None,,,,,0,26,26,26,,,,,645.1240420999238,,,,,,,,,,,,,645.1086183999432,645.1240420999238,645.1240420999238,645.1240420999238,649.7042790999403,,,,649.7205970999785,649.731517600012,649.731517600012,649.7693783999421,649.7698751999997,649.7857712999685,649.7857712999685,649.7857712999685,649.8690296999412,650.2703779999865,,,,up,4.573703399975784,None,,,,,space,0.47074100002646446,None,,,,,,,,,,,,,,,P129,001,2025-02-27_16h02.52.942,posner_endo_new1,2024.2.4,59.945713153560135,2025-02-27 16h03.02.026065 +0000,
cube_r.png,0.1,0.31,valid,27,27,0,up,10.510178200085647,None,space,0.4934925000416115,None,,,,,0,27,27,27,,,,,650.2852411000058,,,,,,,,,,,,,650.2708233000012,650.2852411000058,650.2852411000058,650.2852411000058,660.8092819999438,,,,660.8197037000209,660.829286799999,660.829286799999,660.8747995999875,660.8750416999683,660.8913201999385,660.8913201999385,660.8913201999385,660.9746662999969,661.3915609000251,,,,up,10.510178200085647,None,,,,,space,0.4934925000416115,None,,,,,,,,,,,,,,,P129,001,2025-02-27_16h02.52.942,posner_endo_new1,2024.2.4,59.945713153560135,2025-02-27 16h03.02.026065 +0000,
cube_r.png,0.1,10,catch,28,28,0,up,6.858523099916056,None,None,,,,,,,0,28,28,28,,,,,661.4074842999689,,,,,,,,,,,,,661.3917460999219,661.4074842999689,661.4074842999689,661.4074842999689,668.2690743999556,,,,668.2874850999797,668.2988984999247,668.2988984999247,668.3338727999944,668.3343982999213,668.3502649000147,668.3502649000147,668.3502649000147,668.4335143999197,671.348348199972,,,,up,6.858523099916056,None,670.4481222999748,671.3638534999918,671.3638534999918,671.3638534999918,None,,,,,,,,,,,,,,,,,P129,001,2025-02-27_16h02.52.942,posner_endo_new1,2024.2.4,59.945713153560135,2025-02-27 16h03.02.026065 +0000,
cube_r.png,0.1,0.31,valid,29,29,0,up,4.84576349996496,None,space,0.537591899977997,None,,,,,0,29,29,29,,,,,671.3638534999918,,,,,,,,,,,,,671.3487887999509,671.3638534999918,671.3638534999918,671.3638534999918,676.2267155000009,,,,676.2379819999915,676.2479072000133,676.2479072000133,676.2922800999368,676.2926267000148,676.3088385999436,676.3088385999436,676.3088385999436,676.3920953000197,676.8594518000027,,,,up,4.84576349996496,None,,,,,space,0.537591899977997,None,,,,,,,,,,,,,,,P129,001,2025-02-27_16h02.52.942,posner_endo_new1,2024.2.4,59.945713153560135,2025-02-27 16h03.02.026065 +0000,
cube_r.png,0.1,0.31,valid,30,30,0,up,6.726794500020333,None,space,0.46189729997422546,None,,,,,0,30,30,30,,,,,676.874891799991,,,,,,,,,,,,,676.8597536999732,676.874891799991,676.874891799991,676.874891799991,683.6028594999807,,,,683.6139614999993,683.6242578999372,683.6242578999372,683.6681165000191,683.6684513000073,683.6847331000026,683.6847331000026,683.6847331000026,683.7679156999802,684.1521955999779,,,,up,6.726794500020333,None,,,,,space,0.46189729997422546,None,,,,,,,,,,,,,,,P129,001,2025-02-27_16h02.52.942,posner_endo_new1,2024.2.4,59.945713153560135,2025-02-27 16h03.02.026065 +0000,
cube_l.png,0.1,-0.31,valid,31,31,0,up,5.58695289993193,None,space,0.5464883999666199,None,,,,,0,31,31,31,,,,,684.167407699977,,,,,,,,,,,,,684.1524876999902,684.167407699977,684.167407699977,684.167407699977,689.7623609999428,,,,689.7694516999181,689.7811672999524,689.7811672999524,689.8285350999795,689.8287835000083,689.8450527000241,689.8450527000241,689.8450527000241,689.911748399958,690.3952680999646,,,,up,5.58695289993193,None,,,,,space,0.5464883999666199,None,,,,,,,,,,,,,,,P129,001,2025-02-27_16h02.52.942,posner_endo_new1,2024.2.4,59.945713153560135,2025-02-27 16h03.02.026065 +0000,
cube_r.png,0.1,0.31,valid,32,32,0,up,6.087262000073679,None,space,0.4537352001061663,None,,,,,0,32,32,32,,,,,690.4109770000214,,,,,,,,,,,,,690.3954648999497,690.4109770000214,690.4109770000214,690.4109770000214,696.5058965999633,,,,696.5129891999532,696.5245235000039,696.5245235000039,696.5715123999398,696.5717590999557,696.5880751999794,696.5880751999794,696.5880751999794,696.6712926999899,697.0551564999623,,,,up,6.087262000073679,None,,,,,space,0.4537352001061663,None,,,,,,,,,,,,,,,P129,001,2025-02-27_16h02.52.942,posner_endo_new1,2024.2.4,59.945713153560135,2025-02-27 16h03.02.026065 +0000,
cube_r.png,0.1,-0.31,invalid,33,33,0,up,5.627129100030288,None,space,0.4743581999791786,None,,,,,0,33,33,33,,,,,697.0709709000075,,,,,,,,,,,,,697.0553596999962,697.0709709000075,697.0709709000075,697.0709709000075,702.6993192000082,,,,702.7064373999601,702.7182567999698,702.7182567999698,702.765245800023,702.7657539999345,702.7816512000281,702.7816512000281,702.7816512000281,702.864917299943,703.2662323999684,,,,up,5.627129100030288,None,,,,,space,0.4743581999791786,None,,,,,,,,,,,,,,,P129,001,2025-02-27_16h02.52.942,posner_endo_new1,2024.2.4,59.945713153560135,2025-02-27 16h03.02.026065 +0000,
cube_r.png,0.1,10,catch,34,34,0,up,6.184868399985135,None,None,,,,,,,0,34,34,34,,,,,703.2811110999901,,,,,,,,,,,,,703.266664099996,703.2811110999901,703.2811110999901,703.2811110999901,709.4760827999562,,,,709.4872894999571,709.4975607999368,709.4975607999368,709.5416749999858,709.5420178999193,709.5582413999364,709.5582413999364,709.5582413999364,709.6414183999877,712.5559129000176,,,,up,6.184868399985135,None,711.656057999935,712.5718000999186,712.5718000999186,712.5718000999186,None,,,,,,,,,,,,,,,,,P129,001,2025-02-27_16h02.52.942,posner_endo_new1,2024.2.4,59.945713153560135,2025-02-27 16h03.02.026065 +0000,
cube_r.png,0.1,0.31,valid,35,35,0,up,3.4311092999996617,None,space,0.6040660000871867,None,,,,,0,35,35,35,,,,,712.5718000999186,,,,,,,,,,,,,712.5561869000085,712.5718000999186,712.5718000999186,712.5718000999186,716.0194969000295,,,,716.0306364999851,716.0406735999277,716.0406735999277,716.0849385999609,716.0852758999681,716.10157910001,716.10157910001,716.10157910001,716.1847987999208,716.71870019997,,,,up,3.4311092999996617,None,,,,,space,0.6040660000871867,None,,,,,,,,,,,,,,,P129,001,2025-02-27_16h02.52.942,posner_endo_new1,2024.2.4,59.945713153560135,2025-02-27 16h03.02.026065 +0000,
cube_r.png,0.1,-0.31,invalid,36,36,0,up,6.587977199931629,None,space,0.4560308000072837,None,,,,,0,36,36,36,,,,,716.734208000009,,,,,,,,,,,,,716.7190030999482,716.734208000009,716.734208000009,716.734208000009,723.3286301000044,,,,723.3391776999924,723.3488028999418,723.3488028999418,723.394229699974,723.3944611999905,723.4108239000197,723.4108239000197,723.4108239000197,723.4941053999355,723.8776815999299,,,,up,6.587977199931629,None,,,,,space,0.4560308000072837,None,,,,,,,,,,,,,,,P129,001,2025-02-27_16h02.52.942,posner_endo_new1,2024.2.4,59.945713153560135,2025-02-27 16h03.02.026065 +0000,
cube_l.png,0.1,0.31,invalid,37,37,0,up,7.332385799963959,None,space,0.483370800036937,None,,,,,0,37,37,37,,,,,723.8935349999228,,,,,,,,,,,,,723.8778635999188,723.8935349999228,723.8935349999228,723.8935349999228,731.236678199959,,,,731.2431578999385,731.2549596999306,731.2549596999306,731.3027954000281,731.3030151999556,731.3194122000132,731.3194122000132,731.3194122000132,731.3860022999579,731.8202878999291,,,,up,7.332385799963959,None,,,,,space,0.483370800036937,None,,,,,,,,,,,,,,,P129,001,2025-02-27_16h02.52.942,posner_endo_new1,2024.2.4,59.945713153560135,2025-02-27 16h03.02.026065 +0000,
cube_l.png,0.1,0.31,invalid,38,38,0,up,9.711540899937972,None,space,0.6080726999789476,None,,,,,0,38,38,38,,,,,731.8353062999668,,,,,,,,,,,,,731.8207407000009,731.8353062999668,731.8353062999668,731.8353062999668,741.5601779000135,,,,741.5713646999793,741.5816484999377,741.5816484999377,741.6256960999453,741.6260388999945,741.6426105999853,741.6426105999853,741.6426105999853,741.7253936999477,742.2593079999788,,,,up,9.711540899937972,None,,,,,space,0.6080726999789476,None,,,,,,,,,,,,,,,P129,001,2025-02-27_16h02.52.942,posner_endo_new1,2024.2.4,59.945713153560135,2025-02-27 16h03.02.026065 +0000,
cube_r.png,0.1,0.31,valid,39,39,0,up,8.09560420003254,None,space,0.635513300076127,None,,,,,0,39,39,39,,,,,742.274819699931,,,,,,,,,,,,,742.2596058999188,742.274819699931,742.274819699931,742.274819699931,750.3843986999709,,,,750.3955667000264,750.4059623000212,750.4059623000212,750.4499781000195,750.450321799959,750.4665038000094,750.4665038000094,750.4665038000094,750.5496276000049,751.1170365000144,,,,up,8.09560420003254,None,,,,,space,0.635513300076127,None,,,,,,,,,,,,,,,P129,001,2025-02-27_16h02.52.942,posner_endo_new1,2024.2.4,59.945713153560135,2025-02-27 16h03.02.026065 +0000,
cube_l.png,0.1,0.31,invalid,40,40,0,up,6.461625500000082,None,space,0.6063124999636784,None,,,,,0,40,40,40,,,,,751.1324520999333,,,,,,,,,,,,,751.1173247999977,751.1324520999333,751.1324520999333,751.1324520999333,757.6104374999413,,,,757.6215569999767,757.631901799934,757.631901799934,757.676001099986,757.6763367999811,757.6924511999823,757.6924511999823,757.6924511999823,757.7755854999414,758.3096345999511,,,,up,6.461625500000082,None,,,,,space,0.6063124999636784,None,,,,,,,,,,,,,,,P129,001,2025-02-27_16h02.52.942,posner_endo_new1,2024.2.4,59.945713153560135,2025-02-27 16h03.02.026065 +0000,
cube_l.png,0.1,10,catch,41,41,0,up,11.085425600060262,None,None,,,,,,,0,41,41,41,,,,,758.3251089999685,,,,,,,,,,,,,758.3099296999862,758.3251089999685,758.3251089999685,758.3251089999685,769.4151612999849,,,,769.4263641999569,769.4367170999758,769.4367170999758,769.4804310000036,769.4807697000215,769.4969613000285,769.4969613000285,769.4969613000285,769.5802429999458,772.4946461999789,,,,up,11.085425600060262,None,771.5948823000072,772.5105871999403,772.5105871999403,772.5105871999403,None,,,,,,,,,,,,,,,,,P129,001,2025-02-27_16h02.52.942,posner_endo_new1,2024.2.4,59.945713153560135,2025-02-27 16h03.02.026065 +0000,
cube_l.png,0.1,-0.31,valid,42,42,0,up,6.0999594000168145,None,space,0.5621015999931842,None,,,,,0,42,42,42,,,,,772.5105871999403,,,,,,,,,,,,,772.4949252000079,772.5105871999403,772.5105871999403,772.5105871999403,778.6217725999886,,,,778.6276612000074,778.6395233999938,778.6395233999938,778.6877771000145,778.6879974999465,778.7042266000062,778.7042266000062,778.7042266000062,778.770739599946,779.2723642999772,,,,up,6.0999594000168145,None,,,,,space,0.5621015999931842,None,,,,,,,,,,,,,,,P129,001,2025-02-27_16h02.52.942,posner_endo_new1,2024.2.4,59.945713153560135,2025-02-27 16h03.02.026065 +0000,
cube_l.png,0.1,10,catch,43,43,0,up,6.81894300004933,None,None,,,,,,,0,43,43,43,,,,,779.2868909999961,,,,,,,,,,,,,779.2728319999296,779.2868909999961,779.2868909999961,779.2868909999961,786.1151913999347,,,,786.1332458999241,786.1445931999478,786.1445931999478,786.1801199999172,786.1806530000176,786.1965344999917,786.1965344999917,786.1965344999917,786.2797958999872,789.1945726999547,,,,up,6.81894300004933,None,788.2944170000264,789.2101553999819,789.2101553999819,789.2101553999819,None,,,,,,,,,,,,,,,,,P129,001,2025-02-27_16h02.52.942,posner_endo_new1,2024.2.4,59.945713153560135,2025-02-27 16h03.02.026065 +0000,
cube_l.png,0.1,0.31,invalid,44,44,0,up,8.240234699915163,None,space,0.7282479000277817,None,,,,,0,44,44,44,,,,,789.2101553999819,,,,,,,,,,,,,789.1950248000212,789.2101553999819,789.2101553999819,789.2101553999819,797.45382039994,,,,797.4718142999336,797.4833334999857,797.4833334999857,797.5185557999648,797.5190860999282,797.5349656000035,797.5349656000035,797.5349656000035,797.6182138000149,798.2694633000065,,,,up,8.240234699915163,None,,,,,space,0.7282479000277817,None,,,,,,,,,,,,,,,P129,001,2025-02-27_16h02.52.942,posner_endo_new1,2024.2.4,59.945713153560135,2025-02-27 16h03.02.026065 +0000,
cube_l.png,0.1,0.31,invalid,45,45,0,up,6.533713500015438,None,space,0.6440643999958411,None,,,,,0,45,45,45,,,,,798.2842182000168,,,,,,,,,,,,,798.2699575999286,798.2842182000168,798.2842182000168,798.2842182000168,804.8287278999342,,,,804.839928500005,804.8501891000196,804.8501891000196,804.8942949000048,804.8946333000204,804.9108834000072,804.9108834000072,804.9108834000072,804.9940762999468,805.561439699959,,,,up,6.533713500015438,None,,,,,space,0.6440643999958411,None,,,,,,,,,,,,,,,P129,001,2025-02-27_16h02.52.942,posner_endo_new1,2024.2.4,59.945713153560135,2025-02-27 16h03.02.026065 +0000,
cube_r.png,0.1,0.31,valid,46,46,0,up,5.489263100083917,None,space,0.5442129999864846,None,,,,,0,46,46,46,,,,,805.5768326999387,,,,,,,,,,,,,805.5617265999317,805.5768326999387,805.5768326999387,805.5768326999387,811.0723496000282,,,,811.0836317000212,811.0938506999519,811.0938506999519,811.1380382999778,811.1383789000101,811.1545170999598,811.1545170999598,811.1545170999598,811.2376585999737,811.7049723999808,,,,up,5.489263100083917,None,,,,,space,0.5442129999864846,None,,,,,,,,,,,,,,,P129,001,2025-02-27_16h02.52.942,posner_endo_new1,2024.2.4,59.945713153560135,2025-02-27 16h03.02.026065 +0000,
cube_l.png,0.1,-0.31,valid,47,47,0,up,4.226063500042073,None,space,0.6415748000144958,None,,,,,0,47,47,47,,,,,811.7205602999311,,,,,,,,,,,,,811.7052579999436,811.7205602999311,811.7205602999311,811.7205602999311,815.9507845999906,,,,815.9619021000108,815.9721742999973,815.9721742999973,816.0162612999557,816.0166070000269,816.0327834999189,816.0327834999189,816.0327834999189,816.1160480999388,816.6832067000214,,,,up,4.226063500042073,None,,,,,space,0.6415748000144958,None,,,,,,,,,,,,,,,P129,001,2025-02-27_16h02.52.942,posner_endo_new1,2024.2.4,59.945713153560135,2025-02-27 16h03.02.026065 +0000,
cube_r.png,0.1,-0.31,invalid,48,48,0,up,7.560682200011797,None,space,0.5343989999964833,None,,,,,0,48,48,48,,,,,816.6987702000188,,,,,,,,,,,,,816.6835058999714,816.6987702000188,816.6987702000188,816.6987702000188,824.2754860999994,,,,824.2866738999728,824.2970031999284,824.2970031999284,824.3411492999876,824.3414925999241,824.3577712000115,824.3577712000115,824.3577712000115,824.4408483000007,824.9081940000178,,,,up,7.560682200011797,None,,,,,space,0.5343989999964833,None,,,,,,,,,,,,,,,P129,001,2025-02-27_16h02.52.942,posner_endo_new1,2024.2.4,59.945713153560135,2025-02-27 16h03.02.026065 +0000,
cube_r.png,0.1,10,catch,49,49,0,up,7.086674300022423,None,None,,,,,,,0,49,49,49,,,,,824.9237786999438,,,,,,,,,,,,,824.9084761999547,824.9237786999438,824.9237786999438,824.9237786999438,832.0175881999312,,,,832.0287924000295,832.0391348999692,832.0391348999692,832.0832800000207,832.0836201999336,832.099733699928,832.099733699928,832.099733699928,832.1829888999928,835.0973410999868,,,,up,7.086674300022423,None,834.1975656999275,835.1133596999571,835.1133596999571,835.1133596999571,None,,,,,,,,,,,,,,,,,P129,001,2025-02-27_16h02.52.942,posner_endo_new1,2024.2.4,59.945713153560135,2025-02-27 16h03.02.026065 +0000,
cube_l.png,0.1,-0.31,valid,50,50,0,up,2.625428900006227,None,space,0.5965891999658197,None,,,,,0,50,50,50,,,,,835.1133596999571,,,,,,,,,,,,,835.0976110999472,835.1133596999571,835.1133596999571,835.1133596999571,837.7452911,,,,837.7563709999667,837.7667183999438,837.7667183999438,837.8106491999933,837.810985899996,837.8272353999782,837.8272353999782,837.8272353999782,837.9103809000226,838.4275691999355,,,,up,2.625428900006227,None,,,,,space,0.5965891999658197,None,,,,,,,,,,,,,,,P129,001,2025-02-27_16h02.52.942,posner_endo_new1,2024.2.4,59.945713153560135,2025-02-27 16h03.02.026065 +0000,
cube_l.png,0.1,-0.31,valid,51,51,0,up,4.767751400009729,None,space,0.5954028000123799,None,,,,,0,51,51,51,,,,,838.443092499976,,,,,,,,,,,,,838.4277425999753,838.443092499976,838.443092499976,838.443092499976,843.222429699963,,,,843.2286211999599,843.2403294999385,843.2403294999385,843.2883460000157,843.288835400017,843.304757899954,843.304757899954,843.304757899954,843.3879862999311,843.9060881999321,,,,up,4.767751400009729,None,,,,,space,0.5954028000123799,None,,,,,,,,,,,,,,,P129,001,2025-02-27_16h02.52.942,posner_endo_new1,2024.2.4,59.945713153560135,2025-02-27 16h03.02.026065 +0000,
cube_r.png,0.1,-0.31,invalid,52,52,0,up,6.017035899916664,None,space,0.5402733000228181,None,,,,,0,52,52,52,,,,,843.9208024999825,,,,,,,,,,,,,843.9065224999795,843.9208024999825,843.9208024999825,843.9208024999825,849.9492969999555,,,,849.9604600999737,849.9708815999329,849.9708815999329,850.0148287999909,850.0151661999989,850.0313219999662,850.0313219999662,850.0313219999662,850.1146076000296,850.5820179999573,,,,up,6.017035899916664,None,,,,,space,0.5402733000228181,None,,,,,,,,,,,,,,,P129,001,2025-02-27_16h02.52.942,posner_endo_new1,2024.2.4,59.945713153560135,2025-02-27 16h03.02.026065 +0000,
cube_l.png,0.1,-0.31,valid,53,53,0,up,8.86851969989948,None,space,0.5488349000224844,None,,,,,0,53,53,53,,,,,850.5974690000294,,,,,,,,,,,,,850.58230489993,850.5974690000294,850.5974690000294,850.5974690000294,859.472746699932,,,,859.48131069995,859.4913084999425,859.4913084999425,859.538256199914,859.5385011999169,859.5549479000038,859.5549479000038,859.5549479000038,859.6382869000081,860.1053960999707,,,,up,8.86851969989948,None,,,,,space,0.5488349000224844,None,,,,,,,,,,,,,,,P129,001,2025-02-27_16h02.52.942,posner_endo_new1,2024.2.4,59.945713153560135,2025-02-27 16h03.02.026065 +0000,
cube_r.png,0.1,10,catch,54,54,0,up,4.9930793000385165,None,None,,,,,,,0,54,54,54,,,,,860.121091799927,,,,,,,,,,,,,860.1055972999893,860.121091799927,860.121091799927,860.121091799927,865.1168512000004,,,,865.1240260999184,865.1358563000103,865.1358563000103,865.1829744999995,865.1832171999849,865.199382300023,865.199382300023,865.199382300023,865.2658042999683,868.1967615999747,,,,up,4.9930793000385165,None,867.2805823999224,868.2127089999849,868.2127089999849,868.2127089999849,None,,,,,,,,,,,,,,,,,P129,001,2025-02-27_16h02.52.942,posner_endo_new1,2024.2.4,59.945713153560135,2025-02-27 16h03.02.026065 +0000,
cube_l.png,0.1,0.31,invalid,55,55,0,up,3.126614600070752,None,space,0.6078753999900073,None,,,,,0,55,55,55,,,,,868.2127089999849,,,,,,,,,,,,,868.1969494000077,868.2127089999849,868.2127089999849,868.2127089999849,871.3437393999193,,,,871.350839199964,871.3626280999742,871.3626280999742,871.4096614000155,871.4099032999948,871.4259805999463,871.4259805999463,871.4259805999463,871.5093610999174,872.0430740999291,,,,up,3.126614600070752,None,,,,,space,0.6078753999900073,None,,,,,,,,,,,,,,,P129,001,2025-02-27_16h02.52.942,posner_endo_new1,2024.2.4,59.945713153560135,2025-02-27 16h03.02.026065 +0000,
cube_l.png,0.1,-0.31,valid,56,56,0,up,5.415322299930267,None,space,0.5589348999783397,None,,,,,0,56,56,56,,,,,872.0590533999493,,,,,,,,,,,,,872.0432686000131,872.0590533999493,872.0590533999493,872.0590533999493,877.4874836999224,,,,877.4945958999451,877.5063440999947,877.5063440999947,877.5533660999499,877.5536130999681,877.5699983999366,877.5699983999366,877.5699983999366,877.6364752999507,878.1367253999924,,,,up,5.415322299930267,None,,,,,space,0.5589348999783397,None,,,,,,,,,,,,,,,P129,001,2025-02-27_16h02.52.942,posner_endo_new1,2024.2.4,59.945713153560135,2025-02-27 16h03.02.026065 +0000,
cube_r.png,0.1,0.31,valid,57,57,0,up,6.5056808000663295,None,space,0.5625319000100717,None,,,,,0,57,57,57,,,,,878.1527203000151,,,,,,,,,,,,,878.1369186999509,878.1527203000151,878.1527203000151,878.1527203000151,884.6635361999506,,,,884.6707334999228,884.6821343000047,884.6821343000047,884.7294627999654,884.7299902000232,884.7458566999994,884.7458566999994,884.7458566999994,884.8290821999544,885.3140154000139,,,,up,6.5056808000663295,None,,,,,space,0.5625319000100717,None,,,,,,,,,,,,,,,P129,001,2025-02-27_16h02.52.942,posner_endo_new1,2024.2.4,59.945713153560135,2025-02-27 16h03.02.026065 +0000,
cube_r.png,0.1,-0.31,invalid,58,58,0,up,8.145585099933669,None,space,0.6808971000136808,None,,,,,0,58,58,58,,,,,885.328622299945,,,,,,,,,,,,,885.314489500015,885.328622299945,885.328622299945,885.328622299945,893.4887318999972,,,,893.5067403999856,893.5180193999549,893.5180193999549,893.5537934999447,893.554326799931,893.5701870999765,893.5701870999765,893.5701870999765,893.6534571999218,894.2549019999569,,,,up,8.145585099933669,None,,,,,space,0.6808971000136808,None,,,,,,,,,,,,,,,P129,001,2025-02-27_16h02.52.942,posner_endo_new1,2024.2.4,59.945713153560135,2025-02-27 16h03.02.026065 +0000,
cube_l.png,0.1,0.31,invalid,59,59,0,up,6.694454199983738,None,space,0.5651421999791637,None,,,,,0,59,59,59,,,,,894.269432800007,,,,,,,,,,,,,894.2554057999514,894.269432800007,894.269432800007,894.269432800007,900.9805458999472,,,,900.9917681999505,901.0017675999552,901.0017675999552,901.0461055999622,901.046443499974,901.0626153999474,901.0626153999474,901.0626153999474,901.1460066,901.6298951000208,,,,up,6.694454199983738,None,,,,,space,0.5651421999791637,None,,,,,,,,,,,,,,,P129,001,2025-02-27_16h02.52.942,posner_endo_new1,2024.2.4,59.945713153560135,2025-02-27 16h03.02.026065 +0000,
,,,,,,,,,,,,,,,,,,,,,,,,,,,,,,,,,,,,,,,,,,,,,,,,,,,,,,,,,,,,,,,,,,,,,901.6300780000165,901.6452315999195,901.6452315999195,961.6505468999967,965.3143706999253,space,63.65384439995978,None,,,,,,,P129,001,2025-02-27_16h02.52.942,posner_endo_new1,2024.2.4,59.945713153560135,2025-02-27 16h03.02.026065 +0000,
,,,,,,,,,,,,,,,,,,,,,,,,,,,,,,,,,,965.3144254999934,965.3300816999981,968.3376401999267,968.3110341000138,,,,,,,,,,,,,,,,,,,,,,,,,,,,,,,,,,,,,,,,,,,,,,P129,001,2025-02-27_16h02.52.942,posner_endo_new1,2024.2.4,59.945713153560135,2025-02-27 16h03.02.026065 +0000,
cube_l.png,0.1,10,catch,0,0,0,down,5.53738340002019,None,None,,,,,,,,,,,0,0,0,0,968.3376401999267,,,,,,,,,,,,,968.3286905999994,968.3376401999267,968.3376401999267,968.3376401999267,973.8897348999744,,,,973.9067690999946,973.9178553000093,973.9178553000093,973.9548496999778,973.9553398999851,973.9712808999466,973.9712808999466,973.9712808999466,974.0545246999245,976.9690823999699,,,,,,,976.0693452999694,976.9849533999804,976.9849533999804,976.9849533999804,,,,,,,,,,,,down,5.53738340002019,None,None,,,P129,001,2025-02-27_16h02.52.942,posner_endo_new1,2024.2.4,59.945713153560135,2025-02-27 16h03.02.026065 +0000,
cube_l.png,0.1,10,catch,1,1,0,down,4.410016200039536,None,None,,,,,,,,,,,0,1,1,1,976.9849533999804,,,,,,,,,,,,,976.9693555999547,976.9849533999804,976.9849533999804,976.9849533999804,981.3983241999522,,,,981.4094709999627,981.4197507000063,981.4197507000063,981.4639305999735,981.4642665999709,981.4804127999814,981.4804127999814,981.4804127999814,981.563732999959,984.4780560999643,,,,,,,983.5781799999531,984.4940097000217,984.4940097000217,984.4940097000217,,,,,,,,,,,,down,4.410016200039536,None,None,,,P129,001,2025-02-27_16h02.52.942,posner_endo_new1,2024.2.4,59.945713153560135,2025-02-27 16h03.02.026065 +0000,
cube_l.png,0.1,0.31,invalid,2,2,0,down,2.6766456000041217,None,space,0.6870792999397963,None,,,,,,,,,0,2,2,2,984.4940097000217,,,,,,,,,,,,,984.47832809994,984.4940097000217,984.4940097000217,984.4940097000217,987.1760022999952,,,,987.187174599967,987.1975144000025,987.1975144000025,987.241308699944,987.2416508999886,987.2578877999913,987.2578877999913,987.2578877999913,987.341148699983,987.9583210999845,,,,,,,,,,,,,,,,,,,,,,down,2.6766456000041217,None,space,0.6870792999397963,None,P129,001,2025-02-27_16h02.52.942,posner_endo_new1,2024.2.4,59.945713153560135,2025-02-27 16h03.02.026065 +0000,
cube_l.png,0.1,0.31,invalid,3,3,0,down,8.732455900055356,None,space,0.7546423999592662,None,,,,,,,,,0,3,3,3,987.973814799916,,,,,,,,,,,,,987.9586150000105,987.973814799916,987.973814799916,987.973814799916,996.7160305000143,,,,996.7271508999402,996.7374244999373,996.7374244999373,996.7816053000279,996.7819407000206,996.7981440000003,996.7981440000003,996.7981440000003,996.8813947999151,997.565046499949,,,,,,,,,,,,,,,,,,,,,,down,8.732455900055356,None,space,0.7546423999592662,None,P129,001,2025-02-27_16h02.52.942,posner_endo_new1,2024.2.4,59.945713153560135,2025-02-27 16h03.02.026065 +0000,
cube_l.png,0.1,-0.31,valid,4,4,0,down,2.950410300050862,None,space,0.7031124000204727,None,,,,,,,,,0,4,4,4,997.5806116999593,,,,,,,,,,,,,997.5653384999605,997.5806116999593,997.5806116999593,997.5806116999593,1000.5454881999176,,,,1000.5565695000114,1000.5669874999439,1000.5669874999439,1000.6111194000114,1000.6114558000118,1000.6276488000294,1000.6276488000294,1000.6276488000294,1000.7107449999312,1001.3447407999774,,,,,,,,,,,,,,,,,,,,,,down,2.950410300050862,None,space,0.7031124000204727,None,P129,001,2025-02-27_16h02.52.942,posner_endo_new1,2024.2.4,59.945713153560135,2025-02-27 16h03.02.026065 +0000,
cube_r.png,0.1,-0.31,invalid,5,5,0,down,7.562663899967447,None,space,0.6003848999971524,None,,,,,,,,,0,5,5,5,1001.3600784000009,,,,,,,,,,,,,1001.345034900005,1001.3600784000009,1001.3600784000009,1001.3600784000009,1008.9368270999985,,,,1008.9482396999374,1008.9585656999843,1008.9585656999843,1009.002467699931,1009.0028112999862,1009.0189955999376,1009.0189955999376,1009.0189955999376,1009.1022165999748,1009.6361222999403,,,,,,,,,,,,,,,,,,,,,,down,7.562663899967447,None,space,0.6003848999971524,None,P129,001,2025-02-27_16h02.52.942,posner_endo_new1,2024.2.4,59.945713153560135,2025-02-27 16h03.02.026065 +0000,
cube_r.png,0.1,0.31,valid,6,6,0,down,1.9512016999069601,None,space,0.5778974000131711,None,,,,,,,,,0,6,6,6,1009.6516038000118,,,,,,,,,,,,,1009.6364230000181,1009.6516038000118,1009.6516038000118,1009.6516038000118,1011.6175068999873,,,,1011.6285631000064,1011.6389203999424,1011.6389203999424,1011.6830750999507,1011.683423499926,1011.6995496000163,1011.6995496000163,1011.6995496000163,1011.7828189999564,1012.2835691999644,,,,,,,,,,,,,,,,,,,,,,down,1.9512016999069601,None,space,0.5778974000131711,None,P129,001,2025-02-27_16h02.52.942,posner_endo_new1,2024.2.4,59.945713153560135,2025-02-27 16h03.02.026065 +0000,
cube_r.png,0.1,-0.31,invalid,7,7,0,down,1.9438012999016792,None,space,0.7130960000213236,None,,,,,,,,,0,7,7,7,1012.2989415000193,,,,,,,,,,,,,1012.2838607999729,1012.2989415000193,1012.2989415000193,1012.2989415000193,1014.2480832999572,,,,1014.2591180999298,1014.2691551999887,1014.2691551999887,1014.3137497999705,1014.3139842000091,1014.330320399953,1014.330320399953,1014.330320399953,1014.413522399962,1015.0469440999441,,,,,,,,,,,,,,,,,,,,,,down,1.9438012999016792,None,space,0.7130960000213236,None,P129,001,2025-02-27_16h02.52.942,posner_endo_new1,2024.2.4,59.945713153560135,2025-02-27 16h03.02.026065 +0000,
cube_l.png,0.1,-0.31,valid,8,8,0,down,7.547796699916944,None,space,0.6248736999696121,None,,,,,,,,,0,8,8,8,1015.0626983999973,,,,,,,,,,,,,1015.04713359999,1015.0626983999973,1015.0626983999973,1015.0626983999973,1022.6226376999402,,,,1022.6284647999564,1022.6404817999573,1022.6404817999573,1022.68838279997,1022.6888788000215,1022.7048054999905,1022.7048054999905,1022.7048054999905,1022.7880334999645,1023.3392848999938,,,,,,,,,,,,,,,,,,,,,,down,7.547796699916944,None,space,0.6248736999696121,None,P129,001,2025-02-27_16h02.52.942,posner_endo_new1,2024.2.4,59.945713153560135,2025-02-27 16h03.02.026065 +0000,
cube_r.png,0.1,-0.31,invalid,9,9,0,down,7.488873700029217,None,space,0.6648823999566957,None,,,,,,,,,0,9,9,9,1023.3541506999172,,,,,,,,,,,,,1023.339745300007,1023.3541506999172,1023.3541506999172,1023.3541506999172,1030.8479205999756,,,,1030.85904999997,1030.869272199925,1030.869272199925,1030.9134885999374,1030.9138247999363,1030.9298507999629,1030.9298507999629,1030.9298507999629,1031.0131580999587,1031.5972648999887,,,,,,,,,,,,,,,,,,,,,,down,7.488873700029217,None,space,0.6648823999566957,None,P129,001,2025-02-27_16h02.52.942,posner_endo_new1,2024.2.4,59.945713153560135,2025-02-27 16h03.02.026065 +0000,
cube_l.png,0.1,0.31,invalid,10,10,0,down,7.127219400019385,None,space,0.6678636999567971,None,,,,,,,,,0,10,10,10,1031.6125463999342,,,,,,,,,,,,,1031.5975583000109,1031.6125463999342,1031.6125463999342,1031.6125463999342,1038.7563762000063,,,,1038.7676062999526,1038.7776056999573,1038.7776056999573,1038.8220526999794,1038.822392400005,1038.8385531000094,1038.8385531000094,1038.8385531000094,1038.9218104999745,1039.522419399931,,,,,,,,,,,,,,,,,,,,,,down,7.127219400019385,None,space,0.6678636999567971,None,P129,001,2025-02-27_16h02.52.942,posner_endo_new1,2024.2.4,59.945713153560135,2025-02-27 16h03.02.026065 +0000,
cube_r.png,0.1,-0.31,invalid,11,11,0,down,7.408633799990639,None,space,0.9020667999284342,None,,,,,,,,,0,11,11,11,1039.537790399976,,,,,,,,,,,,,1039.5227140999632,1039.537790399976,1039.537790399976,1039.537790399976,1046.9482654000167,,,,1046.9593949000118,1046.9696404000279,1046.9696404000279,1047.0136689000065,1047.0140059000114,1047.030163599993,1047.030163599993,1047.030163599993,1047.1132920000236,1047.947036299971,,,,,,,,,,,,,,,,,,,,,,down,7.408633799990639,None,space,0.9020667999284342,None,P129,001,2025-02-27_16h02.52.942,posner_endo_new1,2024.2.4,59.945713153560135,2025-02-27 16h03.02.026065 +0000,
cube_r.png,0.1,0.31,valid,12,12,0,down,7.576957399956882,None,space,0.5434245000360534,None,,,,,,,,,0,12,12,12,1047.9625578999985,,,,,,,,,,,,,1047.9473285999848,1047.9625578999985,1047.9625578999985,1047.9625578999985,1055.5559790999396,,,,1055.5670905000297,1055.5771092999494,1055.5771092999494,1055.6215139999986,1055.6218573999358,1055.6379867999349,1055.6379867999349,1055.6379867999349,1055.721217699931,1056.1886258999584,,,,,,,,,,,,,,,,,,,,,,down,7.576957399956882,None,space,0.5434245000360534,None,P129,001,2025-02-27_16h02.52.942,posner_endo_new1,2024.2.4,59.945713153560135,2025-02-27 16h03.02.026065 +0000,
cube_l.png,0.1,10,catch,13,13,0,down,8.950301599921659,None,None,,,,,,,,,,,0,13,13,13,1056.2040738000069,,,,,,,,,,,,,1056.188918299973,1056.2040738000069,1056.2040738000069,1056.2040738000069,1065.1628358999733,,,,1065.1739717000164,1065.1843173999805,1065.1843173999805,1065.228403499932,1065.2287424999522,1065.244809799944,1065.244809799944,1065.244809799944,1065.3280657000141,1068.242540200008,,,,,,,1067.3426786999917,1068.2583764999872,1068.2583764999872,1068.2583764999872,,,,,,,,,,,,down,8.950301599921659,None,None,,,P129,001,2025-02-27_16h02.52.942,posner_endo_new1,2024.2.4,59.945713153560135,2025-02-27 16h03.02.026065 +0000,
cube_r.png,0.1,-0.31,invalid,14,14,0,down,9.008763900026679,None,space,0.6251675999956205,None,,,,,,,,,0,14,14,14,1068.2583764999872,,,,,,,,,,,,,1068.2428199999267,1068.2583764999872,1068.2583764999872,1068.2583764999872,1077.2837903000182,,,,1077.2950224999804,1077.3051466000034,1077.3051466000034,1077.349383499939,1077.3497220999561,1077.3656864999793,1077.3656864999793,1077.3656864999793,1077.4490565999877,1077.9992521000095,,,,,,,,,,,,,,,,,,,,,,down,9.008763900026679,None,space,0.6251675999956205,None,P129,001,2025-02-27_16h02.52.942,posner_endo_new1,2024.2.4,59.945713153560135,2025-02-27 16h03.02.026065 +0000,
cube_l.png,0.1,-0.31,valid,15,15,0,down,2.572400899953209,None,space,0.5805881000123918,None,,,,,,,,,0,15,15,15,1078.0146638000151,,,,,,,,,,,,,1077.999546899926,1078.0146638000151,1078.0146638000151,1078.0146638000151,1080.596669999999,,,,1080.602833700017,1080.6146114999428,1080.6146114999428,1080.6625301999738,1080.66274900001,1080.6790691999486,1080.6790691999486,1080.6790691999486,1080.745891599916,1081.2626310000196,,,,,,,,,,,,,,,,,,,,,,down,2.572400899953209,None,space,0.5805881000123918,None,P129,001,2025-02-27_16h02.52.942,posner_endo_new1,2024.2.4,59.945713153560135,2025-02-27 16h03.02.026065 +0000,
cube_r.png,0.1,10,catch,16,16,0,down,8.300560500007123,None,None,,,,,,,,,,,0,16,16,16,1081.278440999915,,,,,,,,,,,,,1081.2628040999407,1081.278440999915,1081.278440999915,1081.278440999915,1089.5871987999417,,,,1089.5929118000204,1089.6043592999922,1089.6043592999922,1089.6533092999598,1089.6537951999344,1089.6697309999727,1089.6697309999727,1089.6697309999727,1089.7363409999525,1092.6675787999993,,,,,,,1091.750943699968,1092.6835133000277,1092.6835133000277,1092.6835133000277,,,,,,,,,,,,down,8.300560500007123,None,None,,,P129,001,2025-02-27_16h02.52.942,posner_endo_new1,2024.2.4,59.945713153560135,2025-02-27 16h03.02.026065 +0000,
cube_r.png,0.1,10,catch,17,17,0,down,6.535219699959271,None,None,,,,,,,,,,,0,17,17,17,1092.6835133000277,,,,,,,,,,,,,1092.667849499965,1092.6835133000277,1092.6835133000277,1092.6835133000277,1099.2281099000247,,,,1099.2392996000126,1099.2497015999397,1099.2497015999397,1099.293519299943,1099.293858799967,1099.3099377999315,1099.3099377999315,1099.3099377999315,1099.3933263999643,1102.3076523999916,,,,,,,1101.4078769999323,1102.3236751999939,1102.3236751999939,1102.3236751999939,,,,,,,,,,,,down,6.535219699959271,None,None,,,P129,001,2025-02-27_16h02.52.942,posner_endo_new1,2024.2.4,59.945713153560135,2025-02-27 16h03.02.026065 +0000,
cube_l.png,0.1,0.31,invalid,18,18,0,down,7.263423900003545,None,space,0.6689793000696227,None,,,,,,,,,0,18,18,18,1102.3236751999939,,,,,,,,,,,,,1102.3079268999863,1102.3236751999939,1102.3236751999939,1102.3236751999939,1109.6007329999702,,,,1109.611849799985,1109.6222458999837,1109.6222458999837,1109.6662401999347,1109.6665823999792,1109.6828402000247,1109.6828402000247,1109.6828402000247,1109.7661212999374,1110.3665518999333,,,,,,,,,,,,,,,,,,,,,,down,7.263423900003545,None,space,0.6689793000696227,None,P129,001,2025-02-27_16h02.52.942,posner_endo_new1,2024.2.4,59.945713153560135,2025-02-27 16h03.02.026065 +0000,
cube_l.png,0.1,10,catch,19,19,0,down,6.165155899943784,None,None,,,,,,,,,,,0,19,19,19,1110.3819602000294,,,,,,,,,,,,,1110.366871099919,1110.3819602000294,1110.3819602000294,1110.3819602000294,1116.5602201999864,,,,1116.5714192999294,1116.5817890999606,1116.5817890999606,1116.6258179999422,1116.6261645000195,1116.6426631999202,1116.6426631999202,1116.6426631999202,1116.725622399943,1119.6403181999922,,,,,,,1118.7402037000284,1119.65592499997,1119.65592499997,1119.65592499997,,,,,,,,,,,,down,6.165155899943784,None,None,,,P129,001,2025-02-27_16h02.52.942,posner_endo_new1,2024.2.4,59.945713153560135,2025-02-27 16h03.02.026065 +0000,
cube_l.png,0.1,0.31,invalid,20,20,0,down,5.002722300007008,None,space,0.7484000999247655,None,,,,,,,,,0,20,20,20,1119.65592499997,,,,,,,,,,,,,1119.6406052999664,1119.65592499997,1119.65592499997,1119.65592499997,1124.6687486999435,,,,1124.679216300021,1124.688882999937,1124.688882999937,1124.7341069999384,1124.7343407999724,1124.7506654999452,1124.7506654999452,1124.7506654999452,1124.8340185999405,1125.5007754999679,,,,,,,,,,,,,,,,,,,,,,down,5.002722300007008,None,space,0.7484000999247655,None,P129,001,2025-02-27_16h02.52.942,posner_endo_new1,2024.2.4,59.945713153560135,2025-02-27 16h03.02.026065 +0000,
cube_l.png,0.1,-0.31,valid,21,21,0,down,5.862527000019327,None,space,0.6804722999222577,None,,,,,,,,,0,21,21,21,1125.5164548999164,,,,,,,,,,,,,1125.500964100007,1125.5164548999164,1125.5164548999164,1125.5164548999164,1131.3946614000015,,,,1131.401361300028,1131.4132942999713,1131.4132942999713,1131.4606842999347,1131.4609164999565,1131.4773713999894,1131.4773713999894,1131.4773713999894,1131.5436043000082,1132.1607227999484,,,,,,,,,,,,,,,,,,,,,,down,5.862527000019327,None,space,0.6804722999222577,None,P129,001,2025-02-27_16h02.52.942,posner_endo_new1,2024.2.4,59.945713153560135,2025-02-27 16h03.02.026065 +0000,
cube_r.png,0.1,0.31,valid,22,22,0,down,8.082575400010683,None,space,0.6186662999680266,None,,,,,,,,,0,22,22,22,1132.1764680999331,,,,,,,,,,,,,1132.1609149000142,1132.1764680999331,1132.1764680999331,1132.1764680999331,1140.2693558000028,,,,1140.2832683000015,1140.293659799965,1140.293659799965,1140.3346585999243,1140.3350926999701,1140.351097399951,1140.351097399951,1140.351097399951,1140.4343637999846,1140.985143100028,,,,,,,,,,,,,,,,,,,,,,down,8.082575400010683,None,space,0.6186662999680266,None,P129,001,2025-02-27_16h02.52.942,posner_endo_new1,2024.2.4,59.945713153560135,2025-02-27 16h03.02.026065 +0000,
cube_r.png,0.1,-0.31,invalid,23,23,0,down,7.930120199918747,None,space,0.5539243000093848,None,,,,,,,,,0,23,23,23,1141.0007531000301,,,,,,,,,,,,,1140.9853990999982,1141.0007531000301,1141.0007531000301,1141.0007531000301,1148.9436836999375,,,,1148.9531979999738,1148.9633615999483,1148.9633615999483,1149.0093934999313,1149.009693,1149.0259420999791,1149.0259420999791,1149.0259420999791,1149.1091506999219,1149.5927482999396,,,,,,,,,,,,,,,,,,,,,,down,7.930120199918747,None,space,0.5539243000093848,None,P129,001,2025-02-27_16h02.52.942,posner_endo_new1,2024.2.4,59.945713153560135,2025-02-27 16h03.02.026065 +0000,
cube_r.png,0.1,0.31,valid,24,24,0,down,6.666773699922487,None,space,0.6513410999905318,None,,,,,,,,,0,24,24,24,1149.6086334999418,,,,,,,,,,,,,1149.5930090999464,1149.6086334999418,1149.6086334999418,1149.6086334999418,1156.2862201000098,,,,1156.2955588999903,1156.3056701999158,1156.3056701999158,1156.3519261999754,1156.35222469992,1156.3683120999485,1156.3683120999485,1156.3683120999485,1156.4516444000183,1157.0354865000118,,,,,,,,,,,,,,,,,,,,,,down,6.666773699922487,None,space,0.6513410999905318,None,P129,001,2025-02-27_16h02.52.942,posner_endo_new1,2024.2.4,59.945713153560135,2025-02-27 16h03.02.026065 +0000,
cube_r.png,0.1,-0.31,invalid,25,25,0,down,7.9765160999959335,None,space,0.559147399966605,None,,,,,,,,,0,25,25,25,1157.0510742999613,,,,,,,,,,,,,1157.035745000001,1157.0510742999613,1157.0510742999613,1157.0510742999613,1165.0439036999596,,,,1165.0532838000217,1165.0633896000218,1165.0633896000218,1165.109527099994,1165.1098247999325,1165.1261820999207,1165.1261820999207,1165.1261820999207,1165.2093388999347,1165.693282000022,,,,,,,,,,,,,,,,,,,,,,down,7.9765160999959335,None,space,0.559147399966605,None,P129,001,2025-02-27_16h02.52.942,posner_endo_new1,2024.2.4,59.945713153560135,2025-02-27 16h03.02.026065 +0000,
cube_l.png,0.1,-0.31,valid,26,26,0,down,5.718314600060694,None,space,0.6605522999307141,None,,,,,,,,,0,26,26,26,1165.7087661999976,,,,,,,,,,,,,1165.6935362999793,1165.7087661999976,1165.7087661999976,1165.7087661999976,1171.4373966000276,,,,1171.4467506000074,1171.4570477999514,1171.4570477999514,1171.5030186999356,1171.50331499998,1171.5196505999193,1171.5196505999193,1171.5196505999193,1171.6028681999305,1172.1866027999204,,,,,,,,,,,,,,,,,,,,,,down,5.718314600060694,None,space,0.6605522999307141,None,P129,001,2025-02-27_16h02.52.942,posner_endo_new1,2024.2.4,59.945713153560135,2025-02-27 16h03.02.026065 +0000,
cube_r.png,0.1,0.31,valid,27,27,0,down,6.120204300037585,None,space,0.5699426999781281,None,,,,,,,,,0,27,27,27,1172.2021948000183,,,,,,,,,,,,,1172.1868563999888,1172.2021948000183,1172.2021948000183,1172.2021948000183,1178.3304755999707,,,,1178.3398397000274,1178.3500474999892,1178.3500474999892,1178.3960821999935,1178.3963867999846,1178.412427000003,1178.412427000003,1178.412427000003,1178.495761899976,1178.9963986999355,,,,,,,,,,,,,,,,,,,,,,down,6.120204300037585,None,space,0.5699426999781281,None,P129,001,2025-02-27_16h02.52.942,posner_endo_new1,2024.2.4,59.945713153560135,2025-02-27 16h03.02.026065 +0000,
cube_r.png,0.1,10,catch,28,28,0,down,12.83856940001715,None,None,,,,,,,,,,,0,28,28,28,1179.0118519000243,,,,,,,,,,,,,1178.9966528000077,1179.0118519000243,1179.0118519000243,1179.0118519000243,1191.866472600028,,,,1191.875845799921,1191.8860775999492,1191.8860775999492,1191.93215160002,1191.932453699992,1191.9486921000062,1191.9486921000062,1191.9486921000062,1192.0320214999374,1194.9462539999513,,,,,,,1194.046671899967,1194.9622963999864,1194.9622963999864,1194.9622963999864,,,,,,,,,,,,down,12.83856940001715,None,None,,,P129,001,2025-02-27_16h02.52.942,posner_endo_new1,2024.2.4,59.945713153560135,2025-02-27 16h03.02.026065 +0000,
cube_r.png,0.1,0.31,valid,29,29,0,down,7.088929799967445,None,space,0.6050692000426352,None,,,,,,,,,0,29,29,29,1194.9622963999864,,,,,,,,,,,,,1194.946490500006,1194.9622963999864,1194.9622963999864,1194.9622963999864,1202.0562310999958,,,,1202.065536399954,1202.0756044000154,1202.0756044000154,1202.1218429999426,1202.1221536999801,1202.1381926999893,1202.1381926999893,1202.1381926999893,1202.2215934999986,1202.7552601000061,,,,,,,,,,,,,,,,,,,,,,down,7.088929799967445,None,space,0.6050692000426352,None,P129,001,2025-02-27_16h02.52.942,posner_endo_new1,2024.2.4,59.945713153560135,2025-02-27 16h03.02.026065 +0000,
cube_r.png,0.1,0.31,valid,30,30,0,down,7.151915800059214,None,space,0.6581954000284895,None,,,,,,,,,0,30,30,30,1202.771007000003,,,,,,,,,,,,,1202.7555151999695,1202.771007000003,1202.771007000003,1202.771007000003,1209.9313838999951,,,,1209.9394519999623,1209.9499273999827,1209.9499273999827,1209.9970540999202,1209.9972739999648,1210.0136430999264,1210.0136430999264,1210.0136430999264,1210.096834099968,1210.6804541000165,,,,,,,,,,,,,,,,,,,,,,down,7.151915800059214,None,space,0.6581954000284895,None,P129,001,2025-02-27_16h02.52.942,posner_endo_new1,2024.2.4,59.945713153560135,2025-02-27 16h03.02.026065 +0000,
cube_l.png,0.1,-0.31,valid,31,31,0,down,4.442406099988148,None,space,1.0076470000203699,None,,,,,,,,,0,31,31,31,1210.6962305000052,,,,,,,,,,,,,1210.6806301999604,1210.6962305000052,1210.6962305000052,1210.6962305000052,1215.1423970999895,,,,1215.1485753000015,1215.1599763999693,1215.1599763999693,1215.2084254999645,1215.2089187999954,1215.2248023999855,1215.2248023999855,1215.2248023999855,1215.308039400028,1216.2423096999992,,,,,,,,,,,,,,,,,,,,,,down,4.442406099988148,None,space,1.0076470000203699,None,P129,001,2025-02-27_16h02.52.942,posner_endo_new1,2024.2.4,59.945713153560135,2025-02-27 16h03.02.026065 +0000,
cube_r.png,0.1,0.31,valid,32,32,0,down,8.458079200005159,None,space,0.5573672999162227,None,,,,,,,,,0,32,32,32,1216.2570527999196,,,,,,,,,,,,,1216.2427683999995,1216.2570527999196,1216.2570527999196,1216.2570527999196,1224.7166181999492,,,,1224.727825299953,1224.7381413999246,1224.7381413999246,1224.782124200021,1224.7824608000228,1224.7984030999942,1224.7984030999942,1224.7984030999942,1224.881789600011,1225.3659228999168,,,,,,,,,,,,,,,,,,,,,,down,8.458079200005159,None,space,0.5573672999162227,None,P129,001,2025-02-27_16h02.52.942,posner_endo_new1,2024.2.4,59.945713153560135,2025-02-27 16h03.02.026065 +0000,
cube_r.png,0.1,-0.31,invalid,33,33,0,down,7.885409099981189,None,space,0.5674000999424607,None,,,,,,,,,0,33,33,33,1225.3812950999709,,,,,,,,,,,,,1225.3662194999633,1225.3812950999709,1225.3812950999709,1225.3812950999709,1233.2737758000148,,,,1233.2795864000218,1233.2910385000287,1233.2910385000287,1233.3398363000015,1233.340060699964,1233.3564650999615,1233.3564650999615,1233.3564650999615,1233.4231982999481,1233.9398522999836,,,,,,,,,,,,,,,,,,,,,,down,7.885409099981189,None,space,0.5674000999424607,None,P129,001,2025-02-27_16h02.52.942,posner_endo_new1,2024.2.4,59.945713153560135,2025-02-27 16h03.02.026065 +0000,
cube_r.png,0.1,10,catch,34,34,0,down,6.519424100057222,None,None,,,,,,,,,,,0,34,34,34,1233.9558668999234,,,,,,,,,,,,,1233.9400266999146,1233.9558668999234,1233.9558668999234,1233.9558668999234,1240.4831464999588,,,,1240.488992300001,1240.5005527000176,1240.5005527000176,1240.5491169999586,1240.5496185999364,1240.5655797999352,1240.5655797999352,1240.5655797999352,1240.6321654999629,1243.563408899936,,,,,,,1242.6469980999827,1243.5793085999321,1243.5793085999321,1243.5793085999321,,,,,,,,,,,,down,6.519424100057222,None,None,,,P129,001,2025-02-27_16h02.52.942,posner_endo_new1,2024.2.4,59.945713153560135,2025-02-27 16h03.02.026065 +0000,
cube_r.png,0.1,0.31,valid,35,35,0,down,4.871743499999866,None,space,0.6148391999304295,None,,,,,,,,,0,35,35,35,1243.5793085999321,,,,,,,,,,,,,1243.563679600018,1243.5793085999321,1243.5793085999321,1243.5793085999321,1248.4588532999624,,,,1248.4699801999377,1248.4802930000005,1248.4802930000005,1248.5245288999286,1248.5248750000028,1248.5409877999919,1248.5409877999919,1248.5409877999919,1248.624267200008,1249.1582282999298,,,,,,,,,,,,,,,,,,,,,,down,4.871743499999866,None,space,0.6148391999304295,None,P129,001,2025-02-27_16h02.52.942,posner_endo_new1,2024.2.4,59.945713153560135,2025-02-27 16h03.02.026065 +0000,
cube_r.png,0.1,-0.31,invalid,36,36,0,down,7.133278999943286,None,space,0.6750492999562994,None,,,,,,,,,0,36,36,36,1249.173619100009,,,,,,,,,,,,,1249.1585210999474,1249.173619100009,1249.173619100009,1249.173619100009,1256.3174324999563,,,,1256.328706100001,1256.3390938999364,1256.3390938999364,1256.383180600009,1256.3835170000093,1256.3995953999693,1256.3995953999693,1256.3995953999693,1256.4828138999874,1257.0833318999503,,,,,,,,,,,,,,,,,,,,,,down,7.133278999943286,None,space,0.6750492999562994,None,P129,001,2025-02-27_16h02.52.942,posner_endo_new1,2024.2.4,59.945713153560135,2025-02-27 16h03.02.026065 +0000,
cube_l.png,0.1,0.31,invalid,37,37,0,down,6.584545899997465,None,space,0.6324282999848947,None,,,,,,,,,0,37,37,37,1257.098829500028,,,,,,,,,,,,,1257.0836299000075,1257.098829500028,1257.098829500028,1257.098829500028,1263.6928707999177,,,,1263.7022106000222,1263.7144520999864,1263.7144520999864,1263.7585661999183,1263.7589904000051,1263.775015500025,1263.775015500025,1263.775015500025,1263.8582749000052,1264.4093235000037,,,,,,,,,,,,,,,,,,,,,,down,6.584545899997465,None,space,0.6324282999848947,None,P129,001,2025-02-27_16h02.52.942,posner_endo_new1,2024.2.4,59.945713153560135,2025-02-27 16h03.02.026065 +0000,
cube_l.png,0.1,0.31,invalid,38,38,0,down,7.290176099981181,None,space,0.5954735000850633,None,,,,,,,,,0,38,38,38,1264.4246127000079,,,,,,,,,,,,,1264.409584500012,1264.4246127000079,1264.4246127000079,1264.4246127000079,1271.7183396000182,,,,1271.72761609999,1271.7376858999487,1271.7376858999487,1271.7838143999688,1271.7841122000245,1271.8004429999273,1271.8004429999273,1271.8004429999273,1271.883513799985,1272.401178299915,,,,,,,,,,,,,,,,,,,,,,down,7.290176099981181,None,space,0.5954735000850633,None,P129,001,2025-02-27_16h02.52.942,posner_endo_new1,2024.2.4,59.945713153560135,2025-02-27 16h03.02.026065 +0000,
cube_r.png,0.1,0.31,valid,39,39,0,down,5.890795800019987,None,space,0.7387782000005245,None,,,,,,,,,0,39,39,39,1272.4165387999965,,,,,,,,,,,,,1272.401434200001,1272.4165387999965,1272.4165387999965,1272.4165387999965,1278.3116928000236,,,,1278.3211795999669,1278.3312679999508,1278.3312679999508,1278.3771972999675,1278.3775014999555,1278.3937100999756,1278.3937100999756,1278.3937100999756,1278.4769296000013,1279.1443159999326,,,,,,,,,,,,,,,,,,,,,,down,5.890795800019987,None,space,0.7387782000005245,None,P129,001,2025-02-27_16h02.52.942,posner_endo_new1,2024.2.4,59.945713153560135,2025-02-27 16h03.02.026065 +0000,
cube_l.png,0.1,0.31,invalid,40,40,0,down,5.788632200099528,None,space,0.6282550999894738,None,,,,,,,,,0,40,40,40,1279.1595627999632,,,,,,,,,,,,,1279.1445753999287,1279.1595627999632,1279.1595627999632,1279.1595627999632,1284.9548963999841,,,,1284.9642771999352,1284.9744429999264,1284.9744429999264,1285.0204532999778,1285.0207476000069,1285.0369514999911,1285.0369514999911,1285.0369514999911,1285.1201417000266,1285.670786099974,,,,,,,,,,,,,,,,,,,,,,down,5.788632200099528,None,space,0.6282550999894738,None,P129,001,2025-02-27_16h02.52.942,posner_endo_new1,2024.2.4,59.945713153560135,2025-02-27 16h03.02.026065 +0000,
cube_l.png,0.1,10,catch,41,41,0,down,9.397117600077763,None,None,,,,,,,,,,,0,41,41,41,1285.6862567999633,,,,,,,,,,,,,1285.6710426999489,1285.6862567999633,1285.6862567999633,1285.6862567999633,1295.0943953000242,,,,1295.103733099997,1295.113948000013,1295.113948000013,1295.1600248999894,1295.1603369999211,1295.1766274999827,1295.1766274999827,1295.1766274999827,1295.2598411999643,1298.174295899924,,,,,,,1297.2745035999687,1298.1901838999474,1298.1901838999474,1298.1901838999474,,,,,,,,,,,,down,9.397117600077763,None,None,,,P129,001,2025-02-27_16h02.52.942,posner_endo_new1,2024.2.4,59.945713153560135,2025-02-27 16h03.02.026065 +0000,
cube_l.png,0.1,-0.31,valid,42,42,0,down,5.301092199981213,None,space,0.5249966999981552,None,,,,,,,,,0,42,42,42,1298.1901838999474,,,,,,,,,,,,,1298.1745391999139,1298.1901838999474,1298.1901838999474,1298.1901838999474,1303.5023603999289,,,,1303.510225599981,1303.5211057999404,1303.5211057999404,1303.5681660999544,1303.5683833999792,1303.5847423999803,1303.5847423999803,1303.5847423999803,1303.6678850000026,1304.11820050003,,,,,,,,,,,,,,,,,,,,,,down,5.301092199981213,None,space,0.5249966999981552,None,P129,001,2025-02-27_16h02.52.942,posner_endo_new1,2024.2.4,59.945713153560135,2025-02-27 16h03.02.026065 +0000,
cube_l.png,0.1,10,catch,43,43,0,down,7.604390499996953,None,None,,,,,,,,,,,0,43,43,43,1304.1342357000103,,,,,,,,,,,,,1304.1183741999557,1304.1342357000103,1304.1342357000103,1304.1342357000103,1311.7437938000076,,,,1311.7499721000204,1311.7616985000204,1311.7616985000204,1311.8097416999517,1311.8099599999841,1311.8263300999533,1311.8263300999533,1311.8263300999533,1311.8929206000175,1314.8237437999342,,,,,,,1313.907468899968,1314.8397382999538,1314.8397382999538,1314.8397382999538,,,,,,,,,,,,down,7.604390499996953,None,None,,,P129,001,2025-02-27_16h02.52.942,posner_endo_new1,2024.2.4,59.945713153560135,2025-02-27 16h03.02.026065 +0000,
cube_l.png,0.1,0.31,invalid,44,44,0,down,3.6916776000289246,None,space,0.5699199000373483,None,,,,,,,,,0,44,44,44,1314.8397382999538,,,,,,,,,,,,,1314.8239041999914,1314.8397382999538,1314.8397382999538,1314.8397382999538,1318.5369666999904,,,,1318.5431731999852,1318.5548714000033,1318.5548714000033,1318.6026390999323,1318.6028566999594,1318.6193985999562,1318.6193985999562,1318.6193985999562,1318.702669100021,1319.2028026999906,,,,,,,,,,,,,,,,,,,,,,down,3.6916776000289246,None,space,0.5699199000373483,None,P129,001,2025-02-27_16h02.52.942,posner_endo_new1,2024.2.4,59.945713153560135,2025-02-27 16h03.02.026065 +0000,
cube_l.png,0.1,0.31,invalid,45,45,0,down,6.784774100058712,None,space,0.5553375999443233,None,,,,,,,,,0,45,45,45,1319.2187235999154,,,,,,,,,,,,,1319.2029787999345,1319.2187235999154,1319.2187235999154,1319.2187235999154,1326.0124325000215,,,,1326.0182172999484,1326.0299022999825,1326.0299022999825,1326.0784425999736,1326.0786638000282,1326.0949097999837,1326.0949097999837,1326.0949097999837,1326.1616834999295,1326.661883099936,,,,,,,,,,,,,,,,,,,,,,down,6.784774100058712,None,space,0.5553375999443233,None,P129,001,2025-02-27_16h02.52.942,posner_endo_new1,2024.2.4,59.945713153560135,2025-02-27 16h03.02.026065 +0000,
cube_r.png,0.1,0.31,valid,46,46,0,down,7.413227100041695,None,space,0.6056023000273854,None,,,,,,,,,0,46,46,46,1326.6777349999174,,,,,,,,,,,,,1326.662057599984,1326.6777349999174,1326.6777349999174,1326.6777349999174,1334.104046799941,,,,1334.1098632999929,1334.121247199946,1334.121247199946,1334.1702540999977,1334.170476899948,1334.1867691000225,1334.1867691000225,1334.1867691000225,1334.253313299967,1334.8036285999697,,,,,,,,,,,,,,,,,,,,,,down,7.413227100041695,None,space,0.6056023000273854,None,P129,001,2025-02-27_16h02.52.942,posner_endo_new1,2024.2.4,59.945713153560135,2025-02-27 16h03.02.026065 +0000,
cube_l.png,0.1,-0.31,valid,47,47,0,down,4.495421500061639,None,space,0.556038000038825,None,,,,,,,,,0,47,47,47,1334.8194640999427,,,,,,,,,,,,,1334.8038087999448,1334.8194640999427,1334.8194640999427,1334.8194640999427,1339.3156948999967,,,,1339.3214915000135,1339.3327011999208,1339.3327011999208,1339.381302600028,1339.3817263999954,1339.3977573999437,1339.3977573999437,1339.3977573999437,1339.4809982000152,1339.9651128000114,,,,,,,,,,,,,,,,,,,,,,down,4.495421500061639,None,space,0.556038000038825,None,P129,001,2025-02-27_16h02.52.942,posner_endo_new1,2024.2.4,59.945713153560135,2025-02-27 16h03.02.026065 +0000,
cube_r.png,0.1,-0.31,invalid,48,48,0,down,6.7666927999816835,None,space,0.5754397999262437,None,,,,,,,,,0,48,48,48,1339.980749999988,,,,,,,,,,,,,1339.965356700006,1339.980749999988,1339.980749999988,1339.980749999988,1346.758204499958,,,,1346.7666661000112,1346.776783999987,1346.776783999987,1346.8239353999961,1346.8241563999327,1346.8405363999773,1346.8405363999773,1346.8405363999773,1346.923784499988,1347.4240121999756,,,,,,,,,,,,,,,,,,,,,,down,6.7666927999816835,None,space,0.5754397999262437,None,P129,001,2025-02-27_16h02.52.942,posner_endo_new1,2024.2.4,59.945713153560135,2025-02-27 16h03.02.026065 +0000,
cube_r.png,0.1,10,catch,49,49,0,down,11.899892500019632,None,None,,,,,,,,,,,0,49,49,49,1347.4397241999395,,,,,,,,,,,,,1347.4241904999362,1347.4397241999395,1347.4397241999395,1347.4397241999395,1359.3451038999483,,,,1359.3508791999193,1359.3625430000247,1359.3625430000247,1359.411026299931,1359.4112445999635,1359.4277967999224,1359.4277967999224,1359.4277967999224,1359.4942543000216,1362.4251318000024,,,,,,,1361.508505799924,1362.4408868999453,1362.4408868999453,1362.4408868999453,,,,,,,,,,,,down,11.899892500019632,None,None,,,P129,001,2025-02-27_16h02.52.942,posner_endo_new1,2024.2.4,59.945713153560135,2025-02-27 16h03.02.026065 +0000,
cube_l.png,0.1,-0.31,valid,50,50,0,down,5.122952500008978,None,space,0.6211673999205232,None,,,,,,,,,0,50,50,50,1362.4408868999453,,,,,,,,,,,,,1362.4254963999847,1362.4408868999453,1362.4408868999453,1362.4408868999453,1367.5703837999608,,,,1367.5798337999731,1367.5899973999476,1367.5899973999476,1367.6360191999702,1367.6363183999201,1367.6525829000166,1367.6525829000166,1367.6525829000166,1367.7357905999525,1368.2862859999295,,,,,,,,,,,,,,,,,,,,,,down,5.122952500008978,None,space,0.6211673999205232,None,P129,001,2025-02-27_16h02.52.942,posner_endo_new1,2024.2.4,59.945713153560135,2025-02-27 16h03.02.026065 +0000,
cube_l.png,0.1,-0.31,valid,51,51,0,down,6.173438199912198,None,space,0.587700399919413,None,,,,,,,,,0,51,51,51,1368.30189709994,,,,,,,,,,,,,1368.2865410000086,1368.30189709994,1368.30189709994,1368.30189709994,1374.4800481999991,,,,1374.4888122000266,1374.498563000001,1374.498563000001,1374.5456561999163,1374.5458766999654,1374.5623149999883,1374.5623149999883,1374.5623149999883,1374.645342499949,1375.162204299937,,,,,,,,,,,,,,,,,,,,,,down,6.173438199912198,None,space,0.587700399919413,None,P129,001,2025-02-27_16h02.52.942,posner_endo_new1,2024.2.4,59.945713153560135,2025-02-27 16h03.02.026065 +0000,
cube_r.png,0.1,-0.31,invalid,52,52,0,down,6.608472799998708,None,space,0.6383167000021785,None,,,,,,,,,0,52,52,52,1375.1783022999298,,,,,,,,,,,,,1375.1623820000095,1375.1783022999298,1375.1783022999298,1375.1783022999298,1381.7891810999718,,,,1381.798484299914,1381.8086918999907,1381.8086918999907,1381.8547580000013,1381.855068899924,1381.8713657999178,1381.8713657999178,1381.8713657999178,1381.9546115000267,1382.521636600024,,,,,,,,,,,,,,,,,,,,,,down,6.608472799998708,None,space,0.6383167000021785,None,P129,001,2025-02-27_16h02.52.942,posner_endo_new1,2024.2.4,59.945713153560135,2025-02-27 16h03.02.026065 +0000,
cube_l.png,0.1,-0.31,valid,53,53,0,down,8.833835699944757,None,space,0.5617516000056639,None,,,,,,,,,0,53,53,53,1382.5373724999372,,,,,,,,,,,,,1382.5219043999678,1382.5373724999372,1382.5373724999372,1382.5373724999372,1391.379308499978,,,,1391.3886887999251,1391.398855999927,1391.398855999927,1391.4450154999504,1391.4453228999628,1391.4615376000293,1391.4615376000293,1391.4615376000293,1391.5447649999987,1392.0287734000012,,,,,,,,,,,,,,,,,,,,,,down,8.833835699944757,None,space,0.5617516000056639,None,P129,001,2025-02-27_16h02.52.942,posner_endo_new1,2024.2.4,59.945713153560135,2025-02-27 16h03.02.026065 +0000,
cube_r.png,0.1,10,catch,54,54,0,down,7.6144570000469685,None,None,,,,,,,,,,,0,54,54,54,1392.0442888999823,,,,,,,,,,,,,1392.0290279999608,1392.0442888999823,1392.0442888999823,1392.0442888999823,1399.670850399998,,,,1399.680119000026,1399.6900441999314,1399.6900441999314,1399.7365821999265,1399.7368844000157,1399.7530236999737,1399.7530236999737,1399.7530236999737,1399.8364216999616,1402.750609699986,,,,,,,1401.8509692000225,1402.7666816000128,1402.7666816000128,1402.7666816000128,,,,,,,,,,,,down,7.6144570000469685,None,None,,,P129,001,2025-02-27_16h02.52.942,posner_endo_new1,2024.2.4,59.945713153560135,2025-02-27 16h03.02.026065 +0000,
cube_l.png,0.1,0.31,invalid,55,55,0,down,5.308219099999405,None,space,0.6859582000179216,None,,,,,,,,,0,55,55,55,1402.7666816000128,,,,,,,,,,,,,1402.7508465999272,1402.7666816000128,1402.7666816000128,1402.7666816000128,1408.0789324999787,,,,1408.0879647999536,1408.0976927999873,1408.0976927999873,1408.14496830001,1408.1451880999375,1408.1610744999489,1408.1610744999489,1408.1610744999489,1408.2443923000246,1408.8611375999171,,,,,,,,,,,,,,,,,,,,,,down,5.308219099999405,None,space,0.6859582000179216,None,P129,001,2025-02-27_16h02.52.942,posner_endo_new1,2024.2.4,59.945713153560135,2025-02-27 16h03.02.026065 +0000,
cube_l.png,0.1,-0.31,valid,56,56,0,down,5.765904400032014,None,space,0.7412809999659657,None,,,,,,,,,0,56,56,56,1408.8771034999518,,,,,,,,,,,,,1408.8613174000056,1408.8771034999518,1408.8771034999518,1408.8771034999518,1414.655350200017,,,,1414.6615211999742,1414.6732432999415,1414.6732432999415,1414.7211707999231,1414.721393899992,1414.7378872999689,1414.7378872999689,1414.7378872999689,1414.8210954000242,1415.487883899943,,,,,,,,,,,,,,,,,,,,,,down,5.765904400032014,None,space,0.7412809999659657,None,P129,001,2025-02-27_16h02.52.942,posner_endo_new1,2024.2.4,59.945713153560135,2025-02-27 16h03.02.026065 +0000,
cube_r.png,0.1,0.31,valid,57,57,0,down,4.803271700046025,None,space,0.5960382000776008,None,,,,,,,,,0,57,57,57,1415.5036192999687,,,,,,,,,,,,,1415.4880583999911,1415.5036192999687,1415.5036192999687,1415.5036192999687,1420.31591939996,,,,1420.3221042000223,1420.3338476999197,1420.3338476999197,1420.381954899989,1420.382173400023,1420.3987176999217,1420.3987176999217,1420.3987176999217,1420.46502220002,1420.9990412999177,,,,,,,,,,,,,,,,,,,,,,down,4.803271700046025,None,space,0.5960382000776008,None,P129,001,2025-02-27_16h02.52.942,posner_endo_new1,2024.2.4,59.945713153560135,2025-02-27 16h03.02.026065 +0000,
cube_r.png,0.1,-0.31,invalid,58,58,0,down,8.020426700008102,None,space,0.7416514001088217,None,,,,,,,,,0,58,58,58,1421.0146281999769,,,,,,,,,,,,,1420.9992177999811,1421.0146281999769,1421.0146281999769,1421.0146281999769,1429.0415035999613,,,,1429.0577983999392,1429.0687099000206,1429.0687099000206,1429.1065096999519,1429.1070206000004,1429.1229174999753,1429.1229174999753,1429.1229174999753,1429.2061836000066,1429.8739744999912,,,,,,,,,,,,,,,,,,,,,,down,8.020426700008102,None,space,0.7416514001088217,None,P129,001,2025-02-27_16h02.52.942,posner_endo_new1,2024.2.4,59.945713153560135,2025-02-27 16h03.02.026065 +0000,
cube_l.png,0.1,0.31,invalid,59,59,0,down,9.370765700004995,None,space,0.6983377999858931,None,,,,,,,,,0,59,59,59,1429.8888199999928,,,,,,,,,,,,,1429.8744217000203,1429.8888199999928,1429.8888199999928,1429.8888199999928,1439.2638083000202,,,,1439.2699898999417,1439.2816757999826,1439.2816757999826,1439.3294164999388,1439.3296436999226,1439.3461023999844,1439.3461023999844,1439.3461023999844,1439.429197599995,1440.046143100015,,,,,,,,,,,,,,,,,,,,,,down,9.370765700004995,None,space,0.6983377999858931,None,P129,001,2025-02-27_16h02.52.942,posner_endo_new1,2024.2.4,59.945713153560135,2025-02-27 16h03.02.026065 +0000,
