cue_img,cue_soa,target_x,trial,thisN,thisTrialN,thisRepN,key_control2.keys,key_control2.rt,key_control2.duration,key_resp.keys,key_resp.rt,key_resp.duration,practice.thisRepN,practice.thisTrialN,practice.thisN,practice.thisIndex,block1.thisRepN,block1.thisTrialN,block1.thisN,block1.thisIndex,block2.thisRepN,block2.thisTrialN,block2.thisN,block2.thisIndex,thisRow.t,notes,instructions.started,instructions_txt.started,key_control.started,instructions.stopped,key_control.keys,key_control.rt,key_control.duration,ready.started,ready_txt.started,ready_txt.stopped,ready.stopped,fix.started,fixation.started,key_control2.started,fixation_cross.started,fix.stopped,practice.key_control2.keys,practice.key_control2.rt,practice.key_control2.duration,cue.started,cube.started,fixation_cross_cue.started,cue.stopped,target.started,fixation_target.started,fixation_cross_target.started,key_resp.started,star.started,target.stopped,practice.key_resp.keys,practice.key_resp.rt,practice.key_resp.duration,block1.key_control2.keys,block1.key_control2.rt,block1.key_control2.duration,block1.key_resp.keys,block1.key_resp.rt,block1.key_resp.duration,star.stopped,fixation_target.stopped,fixation_cross_target.stopped,key_resp.stopped,break_2.started,text.started,key_control3.started,text.stopped,break_2.stopped,key_control3.keys,key_control3.rt,key_control3.duration,block2.key_control2.keys,block2.key_control2.rt,block2.key_control2.duration,block2.key_resp.keys,block2.key_resp.rt,block2.key_resp.duration,participant,session,date,expName,psychopyVersion,frameRate,expStart,
,,,,,,,,,,,,,,,,,,,,,,,,,,,0.007557200035080314,0.025246300036087632,0.025246300036087632,478.0908034000313,up,478.04819460003637,None,,,,,,,,,,,,,,,,,,,,,,,,,,,,,,,,,,,,,,,,,,,,,,,,,,P130,001,2025-02-28_08h55.12.988,posner_endo_new1,2024.2.4,60.03388311605669,2025-02-28 08h55.20.806246 +0000,
,,,,,,,,,,,,,,,,,,,,,,,,,,,,,,,,,,478.0908564000856,478.103635400068,481.1039655000204,481.08436820004135,,,,,,,,,,,,,,,,,,,,,,,,,,,,,,,,,,,,,,,,,,,,,,P130,001,2025-02-28_08h55.12.988,posner_endo_new1,2024.2.4,60.03388311605669,2025-02-28 08h55.20.806246 +0000,
cube_l.png,0.1,-0.31,valid,0,0,0,down,15.1933260000078,None,space,0.23591069993562996,None,0,0,0,0,,,,,,,,,481.1039655000204,,,,,,,,,,,,,481.09189120004885,481.1039655000204,481.1039655000204,481.1039655000204,496.3024016000563,down,15.1933260000078,None,496.3169796000002,496.327123700059,496.327123700059,496.3683735000668,496.3686152000446,496.38492360000964,496.38492360000964,496.38492360000964,496.45151510008145,496.6355843000347,space,0.23591069993562996,None,,,,,,,,,,,,,,,,,,,,,,,,,P130,001,2025-02-28_08h55.12.988,posner_endo_new1,2024.2.4,60.03388311605669,2025-02-28 08h55.20.806246 +0000,
cube_l.png,0.1,0.31,invalid,1,1,0,down,1.838291099993512,None,space,0.8119514000136405,None,0,1,1,1,,,,,,,,,496.6513689000858,,,,,,,,,,,,,496.63575540005695,496.6513689000858,496.6513689000858,496.6513689000858,498.5001965999836,down,1.838291099993512,None,498.5064920000732,498.5180645000655,498.5180645000655,498.566109300009,498.5663457000628,498.5826781000942,498.5826781000942,498.5826781000942,498.64923219999764,499.39950719999615,space,0.8119514000136405,None,,,,,,,,,,,,,,,,,,,,,,,,,P130,001,2025-02-28_08h55.12.988,posner_endo_new1,2024.2.4,60.03388311605669,2025-02-28 08h55.20.806246 +0000,
cube_r.png,0.1,-0.31,invalid,2,2,0,down,4.826005199924111,None,space,0.3179725999943912,None,0,2,2,2,,,,,,,,,499.4152304000454,,,,,,,,,,,,,499.3996853000717,499.4152304000454,499.4152304000454,499.4152304000454,504.24456660007127,down,4.826005199924111,None,504.252849600045,504.2632908000378,504.2632908000378,504.31016750005074,504.3104035999859,504.3268414000049,504.3268414000049,504.3268414000049,504.41022910003085,504.6605480000144,space,0.3179725999943912,None,,,,,,,,,,,,,,,,,,,,,,,,,P130,001,2025-02-28_08h55.12.988,posner_endo_new1,2024.2.4,60.03388311605669,2025-02-28 08h55.20.806246 +0000,
cube_r.png,0.1,10,catch,3,3,0,down,5.94901129999198,None,space,0.6022965000011027,None,0,3,3,3,,,,,,,,,504.6764770000009,,,,,,,,,,,,,504.66071760002524,504.6764770000009,504.6764770000009,504.6764770000009,510.6378799000522,down,5.94901129999198,None,510.6439364000689,510.65551100007724,510.65551100007724,510.70384309999645,510.704079200048,510.72037930006627,510.72037930006627,510.72037930006627,510.78683090000413,511.33706619997974,space,0.6022965000011027,None,,,,,,,,,,,,,,,,,,,,,,,,,P130,001,2025-02-28_08h55.12.988,posner_endo_new1,2024.2.4,60.03388311605669,2025-02-28 08h55.20.806246 +0000,
cube_l.png,0.1,-0.31,valid,4,4,0,down,8.8414877000032,None,space,0.4159248999785632,None,0,4,4,4,,,,,,,,,511.352900100057,,,,,,,,,,,,,511.3372420000378,511.352900100057,511.352900100057,511.352900100057,520.2113189999945,down,8.8414877000032,None,520.2174131000647,520.2286430000095,520.2286430000095,520.2773166000843,520.2775531000225,520.293747000047,520.293747000047,520.293747000047,520.3607482000953,520.7111681000097,space,0.4159248999785632,None,,,,,,,,,,,,,,,,,,,,,,,,,P130,001,2025-02-28_08h55.12.988,posner_endo_new1,2024.2.4,60.03388311605669,2025-02-28 08h55.20.806246 +0000,
cube_l.png,0.1,0.31,invalid,5,5,0,down,7.674889799905941,None,space,0.3674598999787122,None,0,5,5,5,,,,,,,,,520.7267544000642,,,,,,,,,,,,,520.711339200032,520.7267544000642,520.7267544000642,520.7267544000642,528.4033503000392,down,7.674889799905941,None,528.409635100048,528.4212149999803,528.4212149999803,528.4689392000437,528.4691843000473,528.4854854000732,528.4854854000732,528.4854854000732,528.5688346000388,528.8692290000618,space,0.3674598999787122,None,,,,,,,,,,,,,,,,,,,,,,,,,P130,001,2025-02-28_08h55.12.988,posner_endo_new1,2024.2.4,60.03388311605669,2025-02-28 08h55.20.806246 +0000,
cube_r.png,0.1,-0.31,invalid,6,6,0,down,6.740544300060719,None,space,0.2854970000917092,None,0,6,6,6,,,,,,,,,528.8851636000909,,,,,,,,,,,,,528.8694069000194,528.8851636000909,528.8851636000909,528.8851636000909,535.6289984000614,down,6.740544300060719,None,535.6350228000665,535.6465437000152,535.6465437000152,535.6949950000271,535.6952299000695,535.7115577000659,535.7115577000659,535.7115577000659,535.7946708999807,536.0118905000854,space,0.2854970000917092,None,,,,,,,,,,,,,,,,,,,,,,,,,P130,001,2025-02-28_08h55.12.988,posner_endo_new1,2024.2.4,60.03388311605669,2025-02-28 08h55.20.806246 +0000,
cube_r.png,0.1,0.31,valid,7,7,0,down,7.7656523999758065,None,space,0.3111788999522105,None,0,7,7,7,,,,,,,,,536.0277728000656,,,,,,,,,,,,,536.012063000002,536.0277728000656,536.0277728000656,536.0277728000656,543.8040544000687,down,7.7656523999758065,None,543.810092800064,543.8216993000824,543.8216993000824,543.8698992000427,543.8701383000007,543.8864707000321,543.8864707000321,543.8864707000321,543.9696580000455,544.2035346000921,space,0.3111788999522105,None,,,,,,,,,,,,,,,,,,,,,,,,,P130,001,2025-02-28_08h55.12.988,posner_endo_new1,2024.2.4,60.03388311605669,2025-02-28 08h55.20.806246 +0000,
cube_l.png,0.1,-0.31,valid,8,8,0,down,7.046279500005767,None,space,0.2590172999771312,None,0,8,8,8,,,,,,,,,544.2194321000716,,,,,,,,,,,,,544.2037121000467,544.2194321000716,544.2194321000716,544.2194321000716,551.279619100038,down,7.046279500005767,None,551.2858706000261,551.2976348000811,551.2976348000811,551.3456929000095,551.3459305000724,551.3620169000933,551.3620169000933,551.3620169000933,551.4287483000662,551.6291190000484,space,0.2590172999771312,None,,,,,,,,,,,,,,,,,,,,,,,,,P130,001,2025-02-28_08h55.12.988,posner_endo_new1,2024.2.4,60.03388311605669,2025-02-28 08h55.20.806246 +0000,
cube_r.png,0.1,-0.31,invalid,9,9,0,down,7.628644100041129,None,space,0.2970018999185413,None,0,9,9,9,,,,,,,,,551.6452871999936,,,,,,,,,,,,,551.6292950999923,551.6452871999936,551.6452871999936,551.6452871999936,559.288292500074,down,7.628644100041129,None,559.29433230008,559.3059273000108,559.3059273000108,559.354081400088,559.3543220000574,559.370676600025,559.370676600025,559.370676600025,559.4539436000632,559.6710612000898,space,0.2970018999185413,None,,,,,,,,,,,,,,,,,,,,,,,,,P130,001,2025-02-28_08h55.12.988,posner_endo_new1,2024.2.4,60.03388311605669,2025-02-28 08h55.20.806246 +0000,
cube_r.png,0.1,0.31,valid,10,10,0,down,7.61962179990951,None,space,0.3201595999998972,None,0,10,10,10,,,,,,,,,559.6868179000448,,,,,,,,,,,,,559.6712302999804,559.6868179000448,559.6868179000448,559.6868179000448,567.3132894000737,down,7.61962179990951,None,567.3192852000939,567.3307857000036,567.3307857000036,567.3792562000453,567.3794915000908,567.3956807000795,567.3956807000795,567.3956807000795,567.4790406000102,567.7294545000186,space,0.3201595999998972,None,,,,,,,,,,,,,,,,,,,,,,,,,P130,001,2025-02-28_08h55.12.988,posner_endo_new1,2024.2.4,60.03388311605669,2025-02-28 08h55.20.806246 +0000,
,,,,,,,,,,,,,,,,,,,,,,,,,,,,,,,,,,567.7295704000862,567.7453350999858,570.748952300055,570.7261210000142,,,,,,,,,,,,,,,,,,,,,,,,,,,,,,,,,,,,,,,,,,,,,,P130,001,2025-02-28_08h55.12.988,posner_endo_new1,2024.2.4,60.03388311605669,2025-02-28 08h55.20.806246 +0000,
cube_l.png,0.1,10,catch,0,0,0,down,13.220645800000057,None,space,0.31165329995565116,None,,,,,0,0,0,0,,,,,570.748952300055,,,,,,,,,,,,,570.7399634000612,570.748952300055,570.748952300055,570.748952300055,583.9795902000042,,,,583.9856128999963,583.9973638000665,583.9973638000665,584.0454650000902,584.0457143000094,584.0619223000249,584.0619223000249,584.0619223000249,584.1284086999949,584.3792218000162,,,,down,13.220645800000057,None,space,0.31165329995565116,None,,,,,,,,,,,,,,,,,,,P130,001,2025-02-28_08h55.12.988,posner_endo_new1,2024.2.4,60.03388311605669,2025-02-28 08h55.20.806246 +0000,
cube_l.png,0.1,10,catch,1,1,0,down,6.0549349000211805,None,None,,,,,,,0,1,1,1,,,,,584.3950114999898,,,,,,,,,,,,,584.379399400088,584.3950114999898,584.3950114999898,584.3950114999898,590.4561047999887,,,,590.4622272000415,590.4738327000523,590.4738327000523,590.522137699998,590.5223740000511,590.5388428000733,590.5388428000733,590.5388428000733,590.6055024000816,593.5362981000217,,,,down,6.0549349000211805,None,None,,,592.6198748000897,593.5524672000902,593.5524672000902,593.5524672000902,,,,,,,,,,,,,,,P130,001,2025-02-28_08h55.12.988,posner_endo_new1,2024.2.4,60.03388311605669,2025-02-28 08h55.20.806246 +0000,
cube_l.png,0.1,0.31,invalid,2,2,0,down,4.169787299935706,None,space,0.3823748000431806,None,,,,,0,2,2,2,,,,,593.5524672000902,,,,,,,,,,,,,593.5364668000257,593.5524672000902,593.5524672000902,593.5524672000902,597.7321919000242,,,,597.7382872999879,597.7498329000082,597.7498329000082,597.7981144000078,597.7983503000578,597.8147316999966,597.8147316999966,597.8147316999966,597.8978260000004,598.1984362000367,,,,down,4.169787299935706,None,space,0.3823748000431806,None,,,,,,,,,,,,,,,,,,,P130,001,2025-02-28_08h55.12.988,posner_endo_new1,2024.2.4,60.03388311605669,2025-02-28 08h55.20.806246 +0000,
cube_l.png,0.1,0.31,invalid,3,3,0,down,7.835566500085406,None,space,0.4880016000242904,None,,,,,0,3,3,3,,,,,598.2142818000866,,,,,,,,,,,,,598.1986175000202,598.2142818000866,598.2142818000866,598.2142818000866,606.0569798999932,,,,606.0629807000514,606.0744246999966,606.0744246999966,606.1229685000144,606.1232126000104,606.1395107000135,606.1395107000135,606.1395107000135,606.2061303000664,606.6397862000158,,,,down,7.835566500085406,None,space,0.4880016000242904,None,,,,,,,,,,,,,,,,,,,P130,001,2025-02-28_08h55.12.988,posner_endo_new1,2024.2.4,60.03388311605669,2025-02-28 08h55.20.806246 +0000,
cube_l.png,0.1,-0.31,valid,4,4,0,down,3.017653900082223,None,space,0.4339054999873042,None,,,,,0,4,4,4,,,,,606.6556670999853,,,,,,,,,,,,,606.6399727000389,606.6556670999853,606.6556670999853,606.6556670999853,609.6867376000155,,,,609.6926841000095,609.7042825000826,609.7042825000826,609.7526432999875,609.7528812000528,609.7690852000378,609.7690852000378,609.7690852000378,609.8523682000814,610.2193678000476,,,,down,3.017653900082223,None,space,0.4339054999873042,None,,,,,,,,,,,,,,,,,,,P130,001,2025-02-28_08h55.12.988,posner_endo_new1,2024.2.4,60.03388311605669,2025-02-28 08h55.20.806246 +0000,
cube_r.png,0.1,-0.31,invalid,5,5,0,down,4.0542994000716135,None,space,0.31621439999435097,None,,,,,0,5,5,5,,,,,610.2352983000455,,,,,,,,,,,,,610.2195459000068,610.2352983000455,610.2352983000455,610.2352983000455,614.2986518000253,,,,614.3048031000653,614.3164397000801,614.3164397000801,614.364553600084,614.3647893000161,614.3811410000781,614.3811410000781,614.3811410000781,614.4477070000721,614.6983878000174,,,,down,4.0542994000716135,None,space,0.31621439999435097,None,,,,,,,,,,,,,,,,,,,P130,001,2025-02-28_08h55.12.988,posner_endo_new1,2024.2.4,60.03388311605669,2025-02-28 08h55.20.806246 +0000,
cube_r.png,0.1,0.31,valid,6,6,0,down,5.239349700044841,None,space,0.34484659996815026,None,,,,,0,6,6,6,,,,,614.7141746000852,,,,,,,,,,,,,614.698579100077,614.7141746000852,614.7141746000852,614.7141746000852,619.9595979000442,,,,619.9656200000318,619.977189600002,619.977189600002,620.0253627999919,620.0255971000297,620.0420174000319,620.0420174000319,620.0420174000319,620.1254137000069,620.3925465000793,,,,down,5.239349700044841,None,space,0.34484659996815026,None,,,,,,,,,,,,,,,,,,,P130,001,2025-02-28_08h55.12.988,posner_endo_new1,2024.2.4,60.03388311605669,2025-02-28 08h55.20.806246 +0000,
cube_r.png,0.1,-0.31,invalid,7,7,0,down,7.178175800014287,None,space,0.3800782000180334,None,,,,,0,7,7,7,,,,,620.408101900015,,,,,,,,,,,,,620.3927250000415,620.408101900015,620.408101900015,620.408101900015,627.6017126000952,,,,627.6078269000864,627.6189147999976,627.6189147999976,627.6676215000916,627.6681290999986,627.6840365000535,627.6840365000535,627.6840365000535,627.7672724000877,628.068942700047,,,,down,7.178175800014287,None,space,0.3800782000180334,None,,,,,,,,,,,,,,,,,,,P130,001,2025-02-28_08h55.12.988,posner_endo_new1,2024.2.4,60.03388311605669,2025-02-28 08h55.20.806246 +0000,
cube_l.png,0.1,-0.31,valid,8,8,0,down,5.6057839000131935,None,space,0.3978508999571204,None,,,,,0,8,8,8,,,,,628.0836506000487,,,,,,,,,,,,,628.0693960000062,628.0836506000487,628.0836506000487,628.0836506000487,633.6958510000259,,,,633.703954400029,633.7140938000521,633.7140938000521,633.7613350000465,633.7615858000936,633.7778998999856,633.7778998999856,633.7778998999856,633.8611714000581,634.1785683000926,,,,down,5.6057839000131935,None,space,0.3978508999571204,None,,,,,,,,,,,,,,,,,,,P130,001,2025-02-28_08h55.12.988,posner_endo_new1,2024.2.4,60.03388311605669,2025-02-28 08h55.20.806246 +0000,
cube_r.png,0.1,-0.31,invalid,9,9,0,down,5.983813799917698,None,space,0.3369496000232175,None,,,,,0,9,9,9,,,,,634.1940950000426,,,,,,,,,,,,,634.1787623000564,634.1940950000426,634.1940950000426,634.1940950000426,640.188842899981,,,,640.1957229999825,640.2074646999827,640.2074646999827,640.2547171000624,640.2549701000098,640.2713583000004,640.2713583000004,640.2713583000004,640.3544794000918,640.6215314000146,,,,down,5.983813799917698,None,space,0.3369496000232175,None,,,,,,,,,,,,,,,,,,,P130,001,2025-02-28_08h55.12.988,posner_endo_new1,2024.2.4,60.03388311605669,2025-02-28 08h55.20.806246 +0000,
cube_l.png,0.1,0.31,invalid,10,10,0,down,6.435929899918847,None,space,0.35945580003317446,None,,,,,0,10,10,10,,,,,640.63746550004,,,,,,,,,,,,,640.6217268999899,640.63746550004,640.63746550004,640.63746550004,647.081726500066,,,,647.0886642000405,647.1004495000234,647.1004495000234,647.1476734000025,647.147929900093,647.164366699988,647.164366699988,647.164366699988,647.2308105999837,647.5316113000736,,,,down,6.435929899918847,None,space,0.35945580003317446,None,,,,,,,,,,,,,,,,,,,P130,001,2025-02-28_08h55.12.988,posner_endo_new1,2024.2.4,60.03388311605669,2025-02-28 08h55.20.806246 +0000,
cube_r.png,0.1,-0.31,invalid,11,11,0,down,6.422521299915388,None,space,0.34048749995417893,None,,,,,0,11,11,11,,,,,647.5472333000507,,,,,,,,,,,,,647.5318077000557,647.5472333000507,647.5472333000507,647.5472333000507,653.9749034000561,,,,653.9818011000752,653.9934534000931,653.9934534000931,654.0407245000824,654.0409771000268,654.0572866000002,654.0572866000002,654.0572866000002,654.1403588000685,654.4076926000416,,,,down,6.422521299915388,None,space,0.34048749995417893,None,,,,,,,,,,,,,,,,,,,P130,001,2025-02-28_08h55.12.988,posner_endo_new1,2024.2.4,60.03388311605669,2025-02-28 08h55.20.806246 +0000,
cube_r.png,0.1,0.31,valid,12,12,0,down,5.714200900052674,None,space,0.3497390999691561,None,,,,,0,12,12,12,,,,,654.4235424000071,,,,,,,,,,,,,654.4078944000648,654.4235424000071,654.4235424000071,654.4235424000071,660.1517347000772,,,,660.1586191999959,660.1705315000145,660.1705315000145,660.2178439000854,660.218093500007,660.2342351999832,660.2342351999832,660.2342351999832,660.3009163000388,660.5849267999874,,,,down,5.714200900052674,None,space,0.3497390999691561,None,,,,,,,,,,,,,,,,,,,P130,001,2025-02-28_08h55.12.988,posner_endo_new1,2024.2.4,60.03388311605669,2025-02-28 08h55.20.806246 +0000,
cube_l.png,0.1,10,catch,13,13,0,down,7.409683100064285,None,space,0.2783045000396669,None,,,,,0,13,13,13,,,,,660.6003931000596,,,,,,,,,,,,,660.5851230000844,660.6003931000596,660.6003931000596,660.6003931000596,668.0269678999903,,,,668.0338332999963,668.0453628000105,668.0453628000105,668.0930119000841,668.0932596999919,668.1093223000644,668.1093223000644,668.1093223000644,668.1760573000647,668.3933773000026,,,,down,7.409683100064285,None,space,0.2783045000396669,None,,,,,,,,,,,,,,,,,,,P130,001,2025-02-28_08h55.12.988,posner_endo_new1,2024.2.4,60.03388311605669,2025-02-28 08h55.20.806246 +0000,
cube_r.png,0.1,-0.31,invalid,14,14,0,down,6.768546000006609,None,space,0.43120360001921654,None,,,,,0,14,14,14,,,,,668.4091133000329,,,,,,,,,,,,,668.3935738999862,668.4091133000329,668.4091133000329,668.4091133000329,675.1863452000543,,,,675.1932170999935,675.2049352000467,675.2049352000467,675.2521760000382,675.2524249000708,675.2688634999795,675.2688634999795,675.2688634999795,675.3356831000419,675.7026009000838,,,,down,6.768546000006609,None,space,0.43120360001921654,None,,,,,,,,,,,,,,,,,,,P130,001,2025-02-28_08h55.12.988,posner_endo_new1,2024.2.4,60.03388311605669,2025-02-28 08h55.20.806246 +0000,
cube_l.png,0.1,-0.31,valid,15,15,0,down,4.955560100032017,None,space,0.40334159997291863,None,,,,,0,15,15,15,,,,,675.718400200014,,,,,,,,,,,,,675.7027942000423,675.718400200014,675.718400200014,675.718400200014,680.6807651000563,,,,680.6876267000334,680.6992321000434,680.6992321000434,680.7467044000514,680.7469532000832,680.7632946000667,680.7632946000667,680.7632946000667,680.8463960000081,681.180391700007,,,,down,4.955560100032017,None,space,0.40334159997291863,None,,,,,,,,,,,,,,,,,,,P130,001,2025-02-28_08h55.12.988,posner_endo_new1,2024.2.4,60.03388311605669,2025-02-28 08h55.20.806246 +0000,
cube_r.png,0.1,10,catch,16,16,0,down,6.262367599993013,None,None,,,,,,,0,16,16,16,,,,,681.1959747000365,,,,,,,,,,,,,681.1805831000675,681.1959747000365,681.1959747000365,681.1959747000365,687.4739656000165,,,,687.4808265999891,687.4925228999928,687.4925228999928,687.5397702000337,687.5400253999978,687.5562609999906,687.5562609999906,687.5562609999906,687.6395033000736,690.5539646000834,,,,down,6.262367599993013,None,None,,,689.6540283000795,690.569865000085,690.569865000085,690.569865000085,,,,,,,,,,,,,,,P130,001,2025-02-28_08h55.12.988,posner_endo_new1,2024.2.4,60.03388311605669,2025-02-28 08h55.20.806246 +0000,
cube_r.png,0.1,10,catch,17,17,0,down,3.0721948998980224,None,None,,,,,,,0,17,17,17,,,,,690.569865000085,,,,,,,,,,,,,690.554149899981,690.569865000085,690.569865000085,690.569865000085,693.6508756000549,,,,693.6578183000674,693.6695605000714,693.6695605000714,693.716817800072,693.7170661999844,693.73341970006,693.73341970006,693.73341970006,693.8167271000566,696.7307438000571,,,,down,3.0721948998980224,None,None,,,695.8312736999942,696.7470370000228,696.7470370000228,696.7470370000228,,,,,,,,,,,,,,,P130,001,2025-02-28_08h55.12.988,posner_endo_new1,2024.2.4,60.03388311605669,2025-02-28 08h55.20.806246 +0000,
cube_l.png,0.1,0.31,invalid,18,18,0,down,3.8383348000934348,None,space,0.3581880999263376,None,,,,,0,18,18,18,,,,,696.7470370000228,,,,,,,,,,,,,696.7309265000513,696.7470370000228,696.7470370000228,696.7470370000228,700.5938003000338,,,,700.6006920000073,700.6126093000639,700.6126093000639,700.659762000083,700.6600122000091,700.6762945000082,700.6762945000082,700.6762945000082,700.7595654000761,701.0433801000472,,,,down,3.8383348000934348,None,space,0.3581880999263376,None,,,,,,,,,,,,,,,,,,,P130,001,2025-02-28_08h55.12.988,posner_endo_new1,2024.2.4,60.03388311605669,2025-02-28 08h55.20.806246 +0000,
cube_l.png,0.1,10,catch,19,19,0,down,5.766387200099416,None,None,,,,,,,0,19,19,19,,,,,701.0592512000585,,,,,,,,,,,,,701.0435729000019,701.0592512000585,701.0592512000585,701.0592512000585,706.837449499988,,,,706.8443578000879,706.8561488999985,706.8561488999985,706.9032834999962,706.9037962000584,706.9197066000197,706.9197066000197,706.9197066000197,707.002963499981,709.9176655000774,,,,down,5.766387200099416,None,None,,,709.0178098999895,709.9335460000439,709.9335460000439,709.9335460000439,,,,,,,,,,,,,,,P130,001,2025-02-28_08h55.12.988,posner_endo_new1,2024.2.4,60.03388311605669,2025-02-28 08h55.20.806246 +0000,
cube_l.png,0.1,0.31,invalid,20,20,0,down,3.452313099987805,None,space,0.40686709992587566,None,,,,,0,20,20,20,,,,,709.9335460000439,,,,,,,,,,,,,709.9179316000082,709.9335460000439,709.9335460000439,709.9335460000439,713.3977178999921,,,,713.4084936000872,713.4188967000227,713.4188967000227,713.4632890000939,713.4636310000205,713.4798062000191,713.4798062000191,713.4798062000191,713.5630969000049,713.8972444999963,,,,down,3.452313099987805,None,space,0.40686709992587566,None,,,,,,,,,,,,,,,,,,,P130,001,2025-02-28_08h55.12.988,posner_endo_new1,2024.2.4,60.03388311605669,2025-02-28 08h55.20.806246 +0000,
cube_l.png,0.1,-0.31,valid,21,21,0,down,4.850178899941966,None,space,0.5244027000153437,None,,,,,0,21,21,21,,,,,713.9128766000504,,,,,,,,,,,,,713.8975302000763,713.9128766000504,713.9128766000504,713.9128766000504,718.7752431000117,,,,718.7821649999823,718.7939642000711,718.7939642000711,718.8412524000742,718.8415059000254,718.8575656000758,718.8575656000758,718.8575656000758,718.9409506000811,719.3911564000882,,,,down,4.850178899941966,None,space,0.5244027000153437,None,,,,,,,,,,,,,,,,,,,P130,001,2025-02-28_08h55.12.988,posner_endo_new1,2024.2.4,60.03388311605669,2025-02-28 08h55.20.806246 +0000,
cube_r.png,0.1,0.31,valid,22,22,0,down,3.266556999995373,None,space,0.3678203000454232,None,,,,,0,22,22,22,,,,,719.4071677000029,,,,,,,,,,,,,719.3913605000125,719.4071677000029,719.4071677000029,719.4071677000029,722.6878788000904,,,,722.6946557000047,722.706384900026,722.706384900026,722.7535052000312,722.7537549000699,722.7704220000887,722.7704220000887,722.7704220000887,722.8366807000712,723.1542375000427,,,,down,3.266556999995373,None,space,0.3678203000454232,None,,,,,,,,,,,,,,,,,,,P130,001,2025-02-28_08h55.12.988,posner_endo_new1,2024.2.4,60.03388311605669,2025-02-28 08h55.20.806246 +0000,
cube_r.png,0.1,-0.31,invalid,23,23,0,down,3.6475850000279024,None,space,0.3575300000375137,None,,,,,0,23,23,23,,,,,723.1700409000041,,,,,,,,,,,,,723.1544334000209,723.1700409000041,723.1700409000041,723.1700409000041,726.8335648000939,,,,726.8404592000879,726.852144000004,726.852144000004,726.8995143000502,726.899773000041,726.9160871000495,726.9160871000495,726.9160871000495,726.9992916000774,727.2832870000275,,,,down,3.6475850000279024,None,space,0.3575300000375137,None,,,,,,,,,,,,,,,,,,,P130,001,2025-02-28_08h55.12.988,posner_endo_new1,2024.2.4,60.03388311605669,2025-02-28 08h55.20.806246 +0000,
cube_r.png,0.1,0.31,valid,24,24,0,down,1.5354376999894157,None,space,0.3224807999795303,None,,,,,0,24,24,24,,,,,727.2990531000542,,,,,,,,,,,,,727.2834810999921,727.2990531000542,727.2990531000542,727.2990531000542,728.8483777000802,,,,728.8552070000442,728.8669436000055,728.8669436000055,728.9142729000887,728.9145229000133,728.9307647000533,728.9307647000533,728.9307647000533,729.0139324000338,729.264503100072,,,,down,1.5354376999894157,None,space,0.3224807999795303,None,,,,,,,,,,,,,,,,,,,P130,001,2025-02-28_08h55.12.988,posner_endo_new1,2024.2.4,60.03388311605669,2025-02-28 08h55.20.806246 +0000,
cube_r.png,0.1,-0.31,invalid,25,25,0,down,2.1455109000671655,None,space,0.39487279998138547,None,,,,,0,25,25,25,,,,,729.2803994000424,,,,,,,,,,,,,729.2646947000176,729.2803994000424,729.2803994000424,729.2803994000424,731.4292007000186,,,,731.4360699000536,731.447660600068,731.447660600068,731.4948837000411,731.4951334000798,731.5111635000212,731.5111635000212,731.5111635000212,731.5946499999845,731.9119611000642,,,,down,2.1455109000671655,None,space,0.39487279998138547,None,,,,,,,,,,,,,,,,,,,P130,001,2025-02-28_08h55.12.988,posner_endo_new1,2024.2.4,60.03388311605669,2025-02-28 08h55.20.806246 +0000,
cube_l.png,0.1,-0.31,valid,26,26,0,down,4.7866765999933705,None,space,0.3606379999546334,None,,,,,0,26,26,26,,,,,731.9276037000818,,,,,,,,,,,,,731.91215930006,731.9276037000818,731.9276037000818,731.9276037000818,736.7236120000016,,,,736.7306249000831,736.7423116000136,736.7423116000136,736.7894943000283,736.7897475000937,736.8059852999868,736.8059852999868,736.8059852999868,736.889161100029,737.1731469000224,,,,down,4.7866765999933705,None,space,0.3606379999546334,None,,,,,,,,,,,,,,,,,,,P130,001,2025-02-28_08h55.12.988,posner_endo_new1,2024.2.4,60.03388311605669,2025-02-28 08h55.20.806246 +0000,
cube_r.png,0.1,0.31,valid,27,27,0,down,1.5171661999775097,None,space,0.3947203999850899,None,,,,,0,27,27,27,,,,,737.1888034000294,,,,,,,,,,,,,737.1733428000007,737.1888034000294,737.1888034000294,737.1888034000294,738.721674200031,,,,738.7284734999994,738.74039609998,738.74039609998,738.7874174000463,738.7876684000948,738.8039023000747,738.8039023000747,738.8039023000747,738.8872106000781,739.2043172999984,,,,down,1.5171661999775097,None,space,0.3947203999850899,None,,,,,,,,,,,,,,,,,,,P130,001,2025-02-28_08h55.12.988,posner_endo_new1,2024.2.4,60.03388311605669,2025-02-28 08h55.20.806246 +0000,
cube_r.png,0.1,10,catch,28,28,0,down,1.445772200007923,None,space,0.32973240001592785,None,,,,,0,28,28,28,,,,,739.2200900000753,,,,,,,,,,,,,739.2045093000634,739.2200900000753,739.2200900000753,739.2200900000753,740.6695849000243,,,,740.6764013000065,740.6884127000812,740.6884127000812,740.7354611000046,740.7357012000866,740.7520631999942,740.7520631999942,740.7520631999942,740.8352268000599,741.0859460000647,,,,down,1.445772200007923,None,space,0.32973240001592785,None,,,,,,,,,,,,,,,,,,,P130,001,2025-02-28_08h55.12.988,posner_endo_new1,2024.2.4,60.03388311605669,2025-02-28 08h55.20.806246 +0000,
cube_r.png,0.1,0.31,valid,29,29,0,down,4.309754499932751,None,space,0.4022926999023184,None,,,,,0,29,29,29,,,,,741.1014608000405,,,,,,,,,,,,,741.0861256000353,741.1014608000405,741.1014608000405,741.1014608000405,745.4147745000664,,,,745.4208502999973,745.4322237999877,745.4322237999877,745.4804897999857,745.4807291000616,745.4971631000517,745.4971631000517,745.4971631000517,745.5803685000865,745.9142214000458,,,,down,4.309754499932751,None,space,0.4022926999023184,None,,,,,,,,,,,,,,,,,,,P130,001,2025-02-28_08h55.12.988,posner_endo_new1,2024.2.4,60.03388311605669,2025-02-28 08h55.20.806246 +0000,
cube_r.png,0.1,0.31,valid,30,30,0,down,1.6478919999208301,None,space,0.4213086999952793,None,,,,,0,30,30,30,,,,,745.9297378000338,,,,,,,,,,,,,745.9144009000156,745.9297378000338,745.9297378000338,745.9297378000338,747.5793604000937,,,,747.5853142000269,747.5968919000588,747.5968919000588,747.6450377000729,747.6452783000423,747.6616628000047,747.6616628000047,747.6616628000047,747.7448064000346,748.0952993000392,,,,down,1.6478919999208301,None,space,0.4213086999952793,None,,,,,,,,,,,,,,,,,,,P130,001,2025-02-28_08h55.12.988,posner_endo_new1,2024.2.4,60.03388311605669,2025-02-28 08h55.20.806246 +0000,
cube_l.png,0.1,-0.31,valid,31,31,0,down,3.0346972999395803,None,space,0.42335759999696165,None,,,,,0,31,31,31,,,,,748.1110017000465,,,,,,,,,,,,,748.0954785000067,748.1110017000465,748.1110017000465,748.1110017000465,751.1588154000929,,,,751.1647390000289,751.1762230000459,751.1762230000459,751.2247805000516,751.2250173999928,751.241250500083,751.241250500083,751.241250500083,751.3079114999855,751.6747015999863,,,,down,3.0346972999395803,None,space,0.42335759999696165,None,,,,,,,,,,,,,,,,,,,P130,001,2025-02-28_08h55.12.988,posner_endo_new1,2024.2.4,60.03388311605669,2025-02-28 08h55.20.806246 +0000,
cube_r.png,0.1,0.31,valid,32,32,0,down,6.495489599998109,None,space,0.3768454999662936,None,,,,,0,32,32,32,,,,,751.6908358000219,,,,,,,,,,,,,751.6748859999934,751.6908358000219,751.6908358000219,751.6908358000219,758.2015952999936,,,,758.2076395000331,758.2192087000003,758.2192087000003,758.2676517000655,758.2678870999953,758.2840968000237,758.2840968000237,758.2840968000237,758.3506792000262,758.6676668000873,,,,down,6.495489599998109,None,space,0.3768454999662936,None,,,,,,,,,,,,,,,,,,,P130,001,2025-02-28_08h55.12.988,posner_endo_new1,2024.2.4,60.03388311605669,2025-02-28 08h55.20.806246 +0000,
cube_r.png,0.1,-0.31,invalid,33,33,0,down,6.7900131000205874,None,space,0.4909143999684602,None,,,,,0,33,33,33,,,,,758.6836019000039,,,,,,,,,,,,,758.6678462000564,758.6836019000039,758.6836019000039,758.6836019000039,765.4777563000098,,,,765.4837503000163,765.4953978999984,765.4953978999984,765.5434095000383,765.543643400073,765.5598301000427,765.5598301000427,765.5598301000427,765.6432356000878,766.0603030000348,,,,down,6.7900131000205874,None,space,0.4909143999684602,None,,,,,,,,,,,,,,,,,,,P130,001,2025-02-28_08h55.12.988,posner_endo_new1,2024.2.4,60.03388311605669,2025-02-28 08h55.20.806246 +0000,
cube_r.png,0.1,10,catch,34,34,0,down,1.9900889999698848,None,None,,,,,,,0,34,34,34,,,,,766.0761100000236,,,,,,,,,,,,,766.0604816999985,766.0761100000236,766.0761100000236,766.0761100000236,768.0748700000113,,,,768.0809027000796,768.0925802000565,768.0925802000565,768.1409078000579,768.141146000009,768.15748360008,768.15748360008,768.15748360008,768.2405392000219,771.1548779000295,,,,down,1.9900889999698848,None,None,,,770.2549655000912,771.1705860000802,771.1705860000802,771.1705860000802,,,,,,,,,,,,,,,P130,001,2025-02-28_08h55.12.988,posner_endo_new1,2024.2.4,60.03388311605669,2025-02-28 08h55.20.806246 +0000,
cube_r.png,0.1,0.31,valid,35,35,0,down,6.559435700066388,None,space,0.4160240999190137,None,,,,,0,35,35,35,,,,,771.1705860000802,,,,,,,,,,,,,771.155231700046,771.1705860000802,771.1705860000802,771.1705860000802,777.7321279000025,,,,777.7410016000504,777.751251699985,777.751251699985,777.7975609999849,777.7978570000269,777.8141440000618,777.8141440000618,777.8141440000618,777.8974758000113,778.231483599986,,,,down,6.559435700066388,None,space,0.4160240999190137,None,,,,,,,,,,,,,,,,,,,P130,001,2025-02-28_08h55.12.988,posner_endo_new1,2024.2.4,60.03388311605669,2025-02-28 08h55.20.806246 +0000,
cube_r.png,0.1,-0.31,invalid,36,36,0,down,7.227189600002021,None,space,0.3095012999838218,None,,,,,0,36,36,36,,,,,778.246995100053,,,,,,,,,,,,,778.2317226000596,778.246995100053,778.246995100053,778.246995100053,785.4907037999947,,,,785.4993970000651,785.5094764999812,785.5094764999812,785.5563594000414,785.5566628000233,785.5728062000126,785.5728062000126,785.5728062000126,785.6560625000857,785.8901611000765,,,,down,7.227189600002021,None,space,0.3095012999838218,None,,,,,,,,,,,,,,,,,,,P130,001,2025-02-28_08h55.12.988,posner_endo_new1,2024.2.4,60.03388311605669,2025-02-28 08h55.20.806246 +0000,
cube_l.png,0.1,0.31,invalid,37,37,0,down,2.9759152999613434,None,space,0.5832240000599995,None,,,,,0,37,37,37,,,,,785.9058672999963,,,,,,,,,,,,,785.8904022000497,785.9058672999963,785.9058672999963,785.9058672999963,788.8871326000663,,,,788.8958053999813,788.9060864000348,788.9060864000348,788.952889700071,788.9531845999882,788.9693456999958,788.9693456999958,788.9693456999958,789.0526207999792,789.5697379000485,,,,down,2.9759152999613434,None,space,0.5832240000599995,None,,,,,,,,,,,,,,,,,,,P130,001,2025-02-28_08h55.12.988,posner_endo_new1,2024.2.4,60.03388311605669,2025-02-28 08h55.20.806246 +0000,
cube_l.png,0.1,0.31,invalid,38,38,0,down,1.5531669000629336,None,space,0.4476107999216765,None,,,,,0,38,38,38,,,,,789.5854560000589,,,,,,,,,,,,,789.5699858000735,789.5854560000589,789.5854560000589,789.5854560000589,791.1514290000778,,,,791.160059900023,791.1702148000477,791.1702148000477,791.217213600059,791.217507500085,791.2337725000689,791.2337725000689,791.2337725000689,791.3169804000063,791.6843901000684,,,,down,1.5531669000629336,None,space,0.4476107999216765,None,,,,,,,,,,,,,,,,,,,P130,001,2025-02-28_08h55.12.988,posner_endo_new1,2024.2.4,60.03388311605669,2025-02-28 08h55.20.806246 +0000,
cube_r.png,0.1,0.31,valid,39,39,0,down,2.0065696999663487,None,space,0.4764354999642819,None,,,,,0,39,39,39,,,,,791.6998592000455,,,,,,,,,,,,,791.6846359000774,791.6998592000455,791.6998592000455,791.6998592000455,793.7155992999906,,,,793.7242404000135,793.7344689000165,793.7344689000165,793.7812454000814,793.7815478000557,793.797831700067,793.797831700067,793.797831700067,793.8808886000188,794.2816726000747,,,,down,2.0065696999663487,None,space,0.4764354999642819,None,,,,,,,,,,,,,,,,,,,P130,001,2025-02-28_08h55.12.988,posner_endo_new1,2024.2.4,60.03388311605669,2025-02-28 08h55.20.806246 +0000,
cube_l.png,0.1,0.31,invalid,40,40,0,down,1.6501955999992788,None,space,0.2916666000382975,None,,,,,0,40,40,40,,,,,794.2971931000939,,,,,,,,,,,,,794.2819079000037,794.2971931000939,794.2971931000939,794.2971931000939,795.9632194000296,,,,795.971838700003,795.981982700061,795.981982700061,796.0289648000617,796.0292810000246,796.0455198000418,796.0455198000418,796.0455198000418,796.128708000062,796.3461841000244,,,,down,1.6501955999992788,None,space,0.2916666000382975,None,,,,,,,,,,,,,,,,,,,P130,001,2025-02-28_08h55.12.988,posner_endo_new1,2024.2.4,60.03388311605669,2025-02-28 08h55.20.806246 +0000,
cube_l.png,0.1,10,catch,41,41,0,down,5.712490700068884,None,None,,,,,,,0,41,41,41,,,,,796.3618718000362,,,,,,,,,,,,,796.3464329000562,796.3618718000362,796.3618718000362,796.3618718000362,802.0903001000406,,,,802.0989835000364,802.1091994000599,802.1091994000599,802.1560392000247,802.1563319000416,802.1725511000259,802.1725511000259,802.1725511000259,802.2555260000518,805.1699537000386,,,,down,5.712490700068884,None,None,,,804.2702633000445,805.1861713000108,805.1861713000108,805.1861713000108,,,,,,,,,,,,,,,P130,001,2025-02-28_08h55.12.988,posner_endo_new1,2024.2.4,60.03388311605669,2025-02-28 08h55.20.806246 +0000,
cube_l.png,0.1,-0.31,valid,42,42,0,down,3.1914242999628186,None,space,0.43939050007611513,None,,,,,0,42,42,42,,,,,805.1861713000108,,,,,,,,,,,,,805.1701783000026,805.1861713000108,805.1861713000108,805.1861713000108,808.3840754000703,,,,808.3928194000619,808.4030124000274,808.4030124000274,808.4496030000737,808.449900800013,808.4660482000327,808.4660482000327,808.4660482000327,808.5493411000352,808.9167811000952,,,,down,3.1914242999628186,None,space,0.43939050007611513,None,,,,,,,,,,,,,,,,,,,P130,001,2025-02-28_08h55.12.988,posner_endo_new1,2024.2.4,60.03388311605669,2025-02-28 08h55.20.806246 +0000,
cube_l.png,0.1,10,catch,43,43,0,down,2.1492828000336885,None,None,,,,,,,0,43,43,43,,,,,808.9323136000894,,,,,,,,,,,,,808.917019900051,808.9323136000894,808.9323136000894,808.9323136000894,811.0977619000478,,,,811.1064224999864,811.1166120000416,811.1166120000416,811.1634717000416,811.1637739000143,811.1800265000202,811.1800265000202,811.1800265000202,811.2632265000138,814.177671500016,,,,down,2.1492828000336885,None,None,,,813.2778056000825,814.1936712000752,814.1936712000752,814.1936712000752,,,,,,,,,,,,,,,P130,001,2025-02-28_08h55.12.988,posner_endo_new1,2024.2.4,60.03388311605669,2025-02-28 08h55.20.806246 +0000,
cube_l.png,0.1,0.31,invalid,44,44,0,down,2.225205999915488,None,space,0.42108860006555915,None,,,,,0,44,44,44,,,,,814.1936712000752,,,,,,,,,,,,,814.1778994000051,814.1936712000752,814.1936712000752,814.1936712000752,816.4256723000435,,,,816.4343466000864,816.4445352000184,816.4445352000184,816.4913756999886,816.4916716000298,816.5078578999965,816.5078578999965,816.5078578999965,816.5912547000917,816.9418433000101,,,,down,2.225205999915488,None,space,0.42108860006555915,None,,,,,,,,,,,,,,,,,,,P130,001,2025-02-28_08h55.12.988,posner_endo_new1,2024.2.4,60.03388311605669,2025-02-28 08h55.20.806246 +0000,
cube_l.png,0.1,0.31,invalid,45,45,0,down,2.0528029000852257,None,space,0.43162320007104427,None,,,,,0,45,45,45,,,,,816.9574413000373,,,,,,,,,,,,,816.9420796000632,816.9574413000373,816.9574413000373,816.9574413000373,819.0230145000387,,,,819.0317071999889,819.0420355000533,819.0420355000533,819.0887817000039,819.0890781000489,819.1053135000402,819.1053135000402,819.1053135000402,819.1884996000445,819.5390165999997,,,,down,2.0528029000852257,None,space,0.43162320007104427,None,,,,,,,,,,,,,,,,,,,P130,001,2025-02-28_08h55.12.988,posner_endo_new1,2024.2.4,60.03388311605669,2025-02-28 08h55.20.806246 +0000,
cube_r.png,0.1,0.31,valid,46,46,0,down,2.31902729999274,None,space,0.36498880002181977,None,,,,,0,46,46,46,,,,,819.5548150000395,,,,,,,,,,,,,819.5391928000608,819.5548150000395,819.5548150000395,819.5548150000395,821.8865316000301,,,,821.8925468000816,821.9043235999998,821.9043235999998,821.9524640000891,821.9527000000235,821.9691028000088,821.9691028000088,821.9691028000088,822.035759499995,822.3360553000821,,,,down,2.31902729999274,None,space,0.36498880002181977,None,,,,,,,,,,,,,,,,,,,P130,001,2025-02-28_08h55.12.988,posner_endo_new1,2024.2.4,60.03388311605669,2025-02-28 08h55.20.806246 +0000,
cube_l.png,0.1,-0.31,valid,47,47,0,down,4.1141053000465035,None,space,0.5798582000425085,None,,,,,0,47,47,47,,,,,822.3519463000121,,,,,,,,,,,,,822.3362326000351,822.3519463000121,822.3519463000121,822.3519463000121,826.4817745999899,,,,826.4878189000301,826.4992653999943,826.4992653999943,826.5476446000393,826.5478845000034,826.5643044000026,826.5643044000026,826.5643044000026,826.6309011999983,827.1478985000867,,,,down,4.1141053000465035,None,space,0.5798582000425085,None,,,,,,,,,,,,,,,,,,,P130,001,2025-02-28_08h55.12.988,posner_endo_new1,2024.2.4,60.03388311605669,2025-02-28 08h55.20.806246 +0000,
cube_r.png,0.1,-0.31,invalid,48,48,0,down,1.678605700028129,None,space,0.5284862000262365,None,,,,,0,48,48,48,,,,,827.1636809000047,,,,,,,,,,,,,827.1480759000406,827.1636809000047,827.1636809000047,827.1636809000047,828.8464453000342,,,,828.8559741000645,828.8662657000823,828.8662657000823,828.9121226000134,828.9124441000167,828.9286535000429,828.9286535000429,828.9286535000429,829.0118433000753,829.4626554000424,,,,down,1.678605700028129,None,space,0.5284862000262365,None,,,,,,,,,,,,,,,,,,,P130,001,2025-02-28_08h55.12.988,posner_endo_new1,2024.2.4,60.03388311605669,2025-02-28 08h55.20.806246 +0000,
cube_r.png,0.1,10,catch,49,49,0,down,5.8051240999484435,None,None,,,,,,,0,49,49,49,,,,,829.4779056999832,,,,,,,,,,,,,829.4629098000005,829.4779056999832,829.4779056999832,829.4779056999832,835.2900569000049,,,,835.2996409999905,835.3099278000882,835.3099278000882,835.3555775000714,835.3558994000778,835.3719250999857,835.3719250999857,835.3719250999857,835.4553618000355,838.3694777000928,,,,down,5.8051240999484435,None,None,,,837.4697016000282,838.3855048000114,838.3855048000114,838.3855048000114,,,,,,,,,,,,,,,P130,001,2025-02-28_08h55.12.988,posner_endo_new1,2024.2.4,60.03388311605669,2025-02-28 08h55.20.806246 +0000,
cube_l.png,0.1,-0.31,valid,50,50,0,down,1.3446925999596715,None,space,0.4565719000529498,None,,,,,0,50,50,50,,,,,838.3855048000114,,,,,,,,,,,,,838.3697222000919,838.3855048000114,838.3855048000114,838.3855048000114,839.7353709000163,,,,839.7449363000924,839.755251100054,839.755251100054,839.8008737000637,839.8011938000564,839.8174411000218,839.8174411000218,839.8174411000218,839.9006976999808,840.2846598000033,,,,down,1.3446925999596715,None,space,0.4565719000529498,None,,,,,,,,,,,,,,,,,,,P130,001,2025-02-28_08h55.12.988,posner_endo_new1,2024.2.4,60.03388311605669,2025-02-28 08h55.20.806246 +0000,
cube_l.png,0.1,-0.31,valid,51,51,0,down,1.406144000007771,None,space,0.5423308000899851,None,,,,,0,51,51,51,,,,,840.3003313000081,,,,,,,,,,,,,840.2849161000922,840.3003313000081,840.3003313000081,840.3003313000081,841.7166178000625,,,,841.7261497,841.7364190000808,841.7364190000808,841.7822731999913,841.7825968000107,841.7987842999864,841.7987842999864,841.7987842999864,841.8819539999822,842.349296700093,,,,down,1.406144000007771,None,space,0.5423308000899851,None,,,,,,,,,,,,,,,,,,,P130,001,2025-02-28_08h55.12.988,posner_endo_new1,2024.2.4,60.03388311605669,2025-02-28 08h55.20.806246 +0000,
cube_r.png,0.1,-0.31,invalid,52,52,0,down,4.301877899910323,None,space,0.404138799989596,None,,,,,0,52,52,52,,,,,842.3648304999806,,,,,,,,,,,,,842.3495520000579,842.3648304999806,842.3648304999806,842.3648304999806,846.678190400009,,,,846.6878421000438,846.698093199986,846.698093199986,846.7436944000656,846.7440110000316,846.7603772000875,846.7603772000875,846.7603772000875,846.8437049000058,847.1776215999853,,,,down,4.301877899910323,None,space,0.404138799989596,None,,,,,,,,,,,,,,,,,,,P130,001,2025-02-28_08h55.12.988,posner_endo_new1,2024.2.4,60.03388311605669,2025-02-28 08h55.20.806246 +0000,
cube_l.png,0.1,-0.31,valid,53,53,0,down,2.2327689999947324,None,space,0.3575542999897152,None,,,,,0,53,53,53,,,,,847.1932182000019,,,,,,,,,,,,,847.1778856000165,847.1932182000019,847.1932182000019,847.1932182000019,849.4420122000156,,,,849.4515810000012,849.4619767999975,849.4619767999975,849.5077450000681,849.5080683000851,849.5242284000851,849.5242284000851,849.5242284000851,849.607490900089,849.8915828000754,,,,down,2.2327689999947324,None,space,0.3575542999897152,None,,,,,,,,,,,,,,,,,,,P130,001,2025-02-28_08h55.12.988,posner_endo_new1,2024.2.4,60.03388311605669,2025-02-28 08h55.20.806246 +0000,
cube_r.png,0.1,10,catch,54,54,0,down,1.6792449000058696,None,None,,,,,,,0,54,54,54,,,,,849.907217000029,,,,,,,,,,,,,849.8918443000875,849.907217000029,849.907217000029,849.907217000029,851.5900523000164,,,,851.599743800005,851.6100449000951,851.6100449000951,851.6555080000544,851.6558272000402,851.6719384000171,851.6719384000171,851.6719384000171,851.755250700051,854.669713600073,,,,down,1.6792449000058696,None,None,,,853.7700100999791,854.6855511000613,854.6855511000613,854.6855511000613,,,,,,,,,,,,,,,P130,001,2025-02-28_08h55.12.988,posner_endo_new1,2024.2.4,60.03388311605669,2025-02-28 08h55.20.806246 +0000,
cube_l.png,0.1,0.31,invalid,55,55,0,down,5.924471599981189,None,space,0.47012810001615435,None,,,,,0,55,55,55,,,,,854.6855511000613,,,,,,,,,,,,,854.6699619999854,854.6855511000613,854.6855511000613,854.6855511000613,860.6141475000186,,,,860.6222081000451,860.6324232000625,860.6324232000625,860.679675100022,860.6799104000675,860.6958921999903,860.6958921999903,860.6958921999903,860.7793276000302,861.1798927000491,,,,down,5.924471599981189,None,space,0.47012810001615435,None,,,,,,,,,,,,,,,,,,,P130,001,2025-02-28_08h55.12.988,posner_endo_new1,2024.2.4,60.03388311605669,2025-02-28 08h55.20.806246 +0000,
cube_l.png,0.1,-0.31,valid,56,56,0,down,1.9265102000208572,None,space,0.35330469999462366,None,,,,,0,56,56,56,,,,,861.1956509000156,,,,,,,,,,,,,861.1800682999892,861.1956509000156,861.1956509000156,861.1956509000156,863.1276217000559,,,,863.1340101000387,863.1457332000136,863.1457332000136,863.1936978000449,863.1939318000805,863.2102145000827,863.2102145000827,863.2102145000827,863.2767570000142,863.5773748999927,,,,down,1.9265102000208572,None,space,0.35330469999462366,None,,,,,,,,,,,,,,,,,,,P130,001,2025-02-28_08h55.12.988,posner_endo_new1,2024.2.4,60.03388311605669,2025-02-28 08h55.20.806246 +0000,
cube_r.png,0.1,0.31,valid,57,57,0,down,5.360817899927497,None,space,0.39069119992200285,None,,,,,0,57,57,57,,,,,863.5931475000689,,,,,,,,,,,,,863.5775512000546,863.5931475000689,863.5931475000689,863.5931475000689,868.9551624000305,,,,868.9612226000754,868.9729790000711,868.9729790000711,869.021072100033,869.0213130000047,869.0376145000337,869.0376145000337,869.0376145000337,869.1042357999831,869.4380946999881,,,,down,5.360817899927497,None,space,0.39069119992200285,None,,,,,,,,,,,,,,,,,,,P130,001,2025-02-28_08h55.12.988,posner_endo_new1,2024.2.4,60.03388311605669,2025-02-28 08h55.20.806246 +0000,
cube_r.png,0.1,-0.31,invalid,58,58,0,down,1.8122271000174806,None,space,0.3362230999628082,None,,,,,0,58,58,58,,,,,869.4538890999975,,,,,,,,,,,,,869.4382722000591,869.4538890999975,869.4538890999975,869.4538890999975,871.2694683000445,,,,871.2754882000154,871.2869750000536,871.2869750000536,871.3353603000287,871.3355968000833,871.351928899996,871.351928899996,871.351928899996,871.4184344999958,871.7022454000544,,,,down,1.8122271000174806,None,space,0.3362230999628082,None,,,,,,,,,,,,,,,,,,,P130,001,2025-02-28_08h55.12.988,posner_endo_new1,2024.2.4,60.03388311605669,2025-02-28 08h55.20.806246 +0000,
cube_l.png,0.1,0.31,invalid,59,59,0,down,1.827916800044477,None,space,0.43059949995949864,None,,,,,0,59,59,59,,,,,871.718093500007,,,,,,,,,,,,,871.702425000025,871.718093500007,871.718093500007,871.718093500007,873.5505399000831,,,,873.5564917000011,873.5679319000337,873.5679319000337,873.6163581000874,873.6166000000667,873.6330787000479,873.6330787000479,873.6330787000479,873.7162630000385,874.0666160000255,,,,down,1.827916800044477,None,space,0.43059949995949864,None,,,,,,,,,,,,,,,,,,,P130,001,2025-02-28_08h55.12.988,posner_endo_new1,2024.2.4,60.03388311605669,2025-02-28 08h55.20.806246 +0000,
,,,,,,,,,,,,,,,,,,,,,,,,,,,,,,,,,,,,,,,,,,,,,,,,,,,,,,,,,,,,,,,,,,,,,874.0667363000102,874.0823817000492,874.0823817000492,934.0878088000463,961.0776907000691,space,86.9844569999259,None,,,,,,,P130,001,2025-02-28_08h55.12.988,posner_endo_new1,2024.2.4,60.03388311605669,2025-02-28 08h55.20.806246 +0000,
,,,,,,,,,,,,,,,,,,,,,,,,,,,,,,,,,,961.0777468000306,961.0936259999871,964.0972311000805,964.074247600045,,,,,,,,,,,,,,,,,,,,,,,,,,,,,,,,,,,,,,,,,,,,,,P130,001,2025-02-28_08h55.12.988,posner_endo_new1,2024.2.4,60.03388311605669,2025-02-28 08h55.20.806246 +0000,
cube_l.png,0.1,10,catch,0,0,0,up,7.4330107000423595,None,None,,,,,,,,,,,0,0,0,0,964.0972311000805,,,,,,,,,,,,,964.0884054000489,964.0972311000805,964.0972311000805,964.0972311000805,971.5337898000143,,,,971.5406447000569,971.5524768000469,971.5524768000469,971.599656800041,971.5999085999792,971.6160909000318,971.6160909000318,971.6160909000318,971.6993074000347,974.613662000047,,,,,,,,,,973.7139037000015,974.6297335000709,974.6297335000709,974.6297335000709,,,,,,,,,up,7.4330107000423595,None,None,,,P130,001,2025-02-28_08h55.12.988,posner_endo_new1,2024.2.4,60.03388311605669,2025-02-28 08h55.20.806246 +0000,
cube_l.png,0.1,10,catch,1,1,0,up,3.9001928999787197,None,None,,,,,,,,,,,0,1,1,1,974.6297335000709,,,,,,,,,,,,,974.6138369999826,974.6297335000709,974.6297335000709,974.6297335000709,978.543205199996,,,,978.5505189000396,978.5620788000524,978.5620788000524,978.6092365999939,978.6097942000488,978.6255734000588,978.6255734000588,978.6255734000588,978.7088524000719,981.6237167000072,,,,,,,,,,980.7234418999869,981.6391705999849,981.6391705999849,981.6391705999849,,,,,,,,,up,3.9001928999787197,None,None,,,P130,001,2025-02-28_08h55.12.988,posner_endo_new1,2024.2.4,60.03388311605669,2025-02-28 08h55.20.806246 +0000,
cube_l.png,0.1,0.31,invalid,2,2,0,up,1.9715454999823123,None,space,0.4497323000105098,None,,,,,,,,,0,2,2,2,981.6391705999849,,,,,,,,,,,,,981.6241864000913,981.6391705999849,981.6391705999849,981.6391705999849,983.6224226000486,,,,983.6413909000112,983.6531782000093,983.6531782000093,983.6872408000054,983.6875432999805,983.7037996000145,983.7037996000145,983.7037996000145,983.787000900018,984.1555394000607,,,,,,,,,,,,,,,,,,,,,,up,1.9715454999823123,None,space,0.4497323000105098,None,P130,001,2025-02-28_08h55.12.988,posner_endo_new1,2024.2.4,60.03388311605669,2025-02-28 08h55.20.806246 +0000,
cube_l.png,0.1,0.31,invalid,3,3,0,up,2.5363884000107646,None,space,0.4244525999529287,None,,,,,,,,,0,3,3,3,984.1699045000132,,,,,,,,,,,,,984.1560396000277,984.1699045000132,984.1699045000132,984.1699045000132,986.7193066000473,,,,986.7378256000811,986.74871970003,986.74871970003,986.7840406000614,986.784368099994,986.8006259000394,986.8006259000394,986.8006259000394,986.883841300034,987.2346230000257,,,,,,,,,,,,,,,,,,,,,,up,2.5363884000107646,None,space,0.4244525999529287,None,P130,001,2025-02-28_08h55.12.988,posner_endo_new1,2024.2.4,60.03388311605669,2025-02-28 08h55.20.806246 +0000,
cube_l.png,0.1,-0.31,valid,4,4,0,up,6.248233399935998,None,space,0.3366655999561772,None,,,,,,,,,0,4,4,4,987.2500857000705,,,,,,,,,,,,,987.2348863000516,987.2500857000705,987.2500857000705,987.2500857000705,993.511057500029,,,,993.5184267000295,993.5300467000343,993.5300467000343,993.5770719000138,993.5773091000738,993.5937269000569,993.5937269000569,993.5937269000569,993.6601809000131,993.9440141000086,,,,,,,,,,,,,,,,,,,,,,up,6.248233399935998,None,space,0.3366655999561772,None,P130,001,2025-02-28_08h55.12.988,posner_endo_new1,2024.2.4,60.03388311605669,2025-02-28 08h55.20.806246 +0000,
cube_r.png,0.1,-0.31,invalid,5,5,0,up,13.354714900022373,None,space,0.36843100003898144,None,,,,,,,,,0,5,5,5,993.9599940000335,,,,,,,,,,,,,993.9442065000767,993.9599940000335,993.9599940000335,993.9599940000335,1007.3304009999847,,,,1007.3367355000228,1007.3484795000404,1007.3484795000404,1007.3963905000128,1007.3966290000826,1007.4127909999806,1007.4127909999806,1007.4127909999806,1007.4795240000822,1007.7963778000558,,,,,,,,,,,,,,,,,,,,,,up,13.354714900022373,None,space,0.36843100003898144,None,P130,001,2025-02-28_08h55.12.988,posner_endo_new1,2024.2.4,60.03388311605669,2025-02-28 08h55.20.806246 +0000,
cube_r.png,0.1,0.31,valid,6,6,0,up,9.030123800039291,None,space,0.32389479991979897,None,,,,,,,,,0,6,6,6,1007.8125145999948,,,,,,,,,,,,,1007.7965633000713,1007.8125145999948,1007.8125145999948,1007.8125145999948,1016.8540682999883,,,,1016.8604960000375,1016.8720699000405,1016.8720699000405,1016.9198983000824,1016.9201345000183,1016.9365585000487,1016.9365585000487,1016.9365585000487,1017.0030853000935,1017.2703872000566,,,,,,,,,,,,,,,,,,,,,,up,9.030123800039291,None,space,0.32389479991979897,None,P130,001,2025-02-28_08h55.12.988,posner_endo_new1,2024.2.4,60.03388311605669,2025-02-28 08h55.20.806246 +0000,
cube_r.png,0.1,-0.31,invalid,7,7,0,up,7.716211699997075,None,space,0.35268549993634224,None,,,,,,,,,0,7,7,7,1017.2861652000574,,,,,,,,,,,,,1017.270572300069,1017.2861652000574,1017.2861652000574,1017.2861652000574,1025.0121730000246,,,,1025.0188493999885,1025.0306351000909,1025.0306351000909,1025.078220400028,1025.078455900075,1025.094837200013,1025.094837200013,1025.094837200013,1025.1612466999795,1025.4618128000293,,,,,,,,,,,,,,,,,,,,,,up,7.716211699997075,None,space,0.35268549993634224,None,P130,001,2025-02-28_08h55.12.988,posner_endo_new1,2024.2.4,60.03388311605669,2025-02-28 08h55.20.806246 +0000,
cube_l.png,0.1,-0.31,valid,8,8,0,up,8.18863979994785,None,space,0.4303504000417888,None,,,,,,,,,0,8,8,8,1025.4777183000697,,,,,,,,,,,,,1025.462005199981,1025.4777183000697,1025.4777183000697,1025.4777183000697,1033.671005400014,,,,1033.6818095000926,1033.6922332000686,1033.6922332000686,1033.7361078000395,1033.7364545000019,1033.7526795000304,1033.7526795000304,1033.7526795000304,1033.835683500045,1034.18678930006,,,,,,,,,,,,,,,,,,,,,,up,8.18863979994785,None,space,0.4303504000417888,None,P130,001,2025-02-28_08h55.12.988,posner_endo_new1,2024.2.4,60.03388311605669,2025-02-28 08h55.20.806246 +0000,
cube_r.png,0.1,-0.31,invalid,9,9,0,up,6.111933600041084,None,space,0.3882960000773892,None,,,,,,,,,0,9,9,9,1034.2022114000283,,,,,,,,,,,,,1034.1870878000045,1034.2022114000283,1034.2022114000283,1034.2022114000283,1040.330538099981,,,,1040.341419900069,1040.3514591000276,1040.3514591000276,1040.395921700052,1040.3962866000365,1040.4125780999893,1040.4125780999893,1040.4125780999893,1040.4957879000576,1040.81327230006,,,,,,,,,,,,,,,,,,,,,,up,6.111933600041084,None,space,0.3882960000773892,None,P130,001,2025-02-28_08h55.12.988,posner_endo_new1,2024.2.4,60.03388311605669,2025-02-28 08h55.20.806246 +0000,
cube_l.png,0.1,0.31,invalid,10,10,0,up,3.0298221999546513,None,space,0.3623886000132188,None,,,,,,,,,0,10,10,10,1040.8286417000927,,,,,,,,,,,,,1040.8135722000152,1040.8286417000927,1040.8286417000927,1040.8286417000927,1043.8605910000624,,,,1043.871438800008,1043.8817711999873,1043.8817711999873,1043.925835800008,1043.9261773000471,1043.9421387000475,1043.9421387000475,1043.9421387000475,1044.0254442000296,1044.3100931000663,,,,,,,,,,,,,,,,,,,,,,up,3.0298221999546513,None,space,0.3623886000132188,None,P130,001,2025-02-28_08h55.12.988,posner_endo_new1,2024.2.4,60.03388311605669,2025-02-28 08h55.20.806246 +0000,
cube_r.png,0.1,-0.31,invalid,11,11,0,up,3.4776130999671295,None,space,0.37225120002403855,None,,,,,,,,,0,11,11,11,1044.3250901000574,,,,,,,,,,,,,1044.3103933000239,1044.3250901000574,1044.3250901000574,1044.3250901000574,1047.8062836000463,,,,1047.8171121000778,1047.8272574000293,1047.8272574000293,1047.8716584000504,1047.8719995000865,1047.888182900031,1047.888182900031,1047.888182900031,1047.9714555999963,1048.272233500029,,,,,,,,,,,,,,,,,,,,,,up,3.4776130999671295,None,space,0.37225120002403855,None,P130,001,2025-02-28_08h55.12.988,posner_endo_new1,2024.2.4,60.03388311605669,2025-02-28 08h55.20.806246 +0000,
cube_r.png,0.1,0.31,valid,12,12,0,up,6.938859999994747,None,space,0.39622230001259595,None,,,,,,,,,0,12,12,12,1048.2877339000115,,,,,,,,,,,,,1048.2725276000565,1048.2877339000115,1048.2877339000115,1048.2877339000115,1055.231731900014,,,,1055.2386594000272,1055.2502633000258,1055.2502633000258,1055.2973391000414,1055.2975781999994,1055.3140041000443,1055.3140041000443,1055.3140041000443,1055.3804831000743,1055.7145477000158,,,,,,,,,,,,,,,,,,,,,,up,6.938859999994747,None,space,0.39622230001259595,None,P130,001,2025-02-28_08h55.12.988,posner_endo_new1,2024.2.4,60.03388311605669,2025-02-28 08h55.20.806246 +0000,
cube_l.png,0.1,10,catch,13,13,0,up,3.3520287999417633,None,None,,,,,,,,,,,0,13,13,13,1055.7303031000774,,,,,,,,,,,,,1055.7147355000488,1055.7303031000774,1055.7303031000774,1055.7303031000774,1059.0942740000319,,,,1059.1002569000702,1059.1122258000541,1059.1122258000541,1059.1601623999886,1059.1603984000394,1059.176721099997,1059.176721099997,1059.176721099997,1059.2599205999868,1062.174045599997,,,,,,,,,,1061.2745918000583,1062.1902844000142,1062.1902844000142,1062.1902844000142,,,,,,,,,up,3.3520287999417633,None,None,,,P130,001,2025-02-28_08h55.12.988,posner_endo_new1,2024.2.4,60.03388311605669,2025-02-28 08h55.20.806246 +0000,
cube_r.png,0.1,-0.31,invalid,14,14,0,up,3.7801410999381915,None,space,1.0593203000025824,None,,,,,,,,,0,14,14,14,1062.1902844000142,,,,,,,,,,,,,1062.1742307000095,1062.1902844000142,1062.1902844000142,1062.1902844000142,1065.9871804000577,,,,1065.9932911000215,1066.0045978000853,1066.0045978000853,1066.0531368000666,1066.053383300081,1066.0696015000576,1066.0696015000576,1066.0696015000576,1066.1363725999836,1067.1357779999962,,,,,,,,,,,,,,,,,,,,,,up,3.7801410999381915,None,space,1.0593203000025824,None,P130,001,2025-02-28_08h55.12.988,posner_endo_new1,2024.2.4,60.03388311605669,2025-02-28 08h55.20.806246 +0000,
cube_l.png,0.1,-0.31,valid,15,15,0,up,5.827051499974914,None,space,0.29647979990113527,None,,,,,,,,,0,15,15,15,1067.1518099000677,,,,,,,,,,,,,1067.1359639000148,1067.1518099000677,1067.1518099000677,1067.1518099000677,1072.9800615999848,,,,1072.9861189000076,1072.9972179000033,1072.9972179000033,1073.045945400023,1073.0464635000098,1073.0623196000233,1073.0623196000233,1073.0623196000233,1073.1456281000283,1073.3640999000054,,,,,,,,,,,,,,,,,,,,,,up,5.827051499974914,None,space,0.29647979990113527,None,P130,001,2025-02-28_08h55.12.988,posner_endo_new1,2024.2.4,60.03388311605669,2025-02-28 08h55.20.806246 +0000,
cube_r.png,0.1,10,catch,16,16,0,up,6.25627060001716,None,None,,,,,,,,,,,0,16,16,16,1073.378652399988,,,,,,,,,,,,,1073.3645443000132,1073.378652399988,1073.378652399988,1073.378652399988,1079.640261500026,,,,1079.6512229000218,1079.6615268000169,1079.6615268000169,1079.7060549000744,1079.7063958999934,1079.7223352000583,1079.7223352000583,1079.7223352000583,1079.8056471000891,1082.7200650000013,,,,,,,,,,1081.8202946999809,1082.7359753000783,1082.7359753000783,1082.7359753000783,,,,,,,,,up,6.25627060001716,None,None,,,P130,001,2025-02-28_08h55.12.988,posner_endo_new1,2024.2.4,60.03388311605669,2025-02-28 08h55.20.806246 +0000,
cube_r.png,0.1,10,catch,17,17,0,up,2.4584800000302494,None,None,,,,,,,,,,,0,17,17,17,1082.7359753000783,,,,,,,,,,,,,1082.720339899999,1082.7359753000783,1082.7359753000783,1082.7359753000783,1085.2012177000288,,,,1085.2121263000881,1085.2224432000658,1085.2224432000658,1085.2667912000325,1085.267133400077,1085.283368900069,1085.283368900069,1085.283368900069,1085.3665149000008,1088.2808760000626,,,,,,,,,,1087.38108140009,1088.2967959999805,1088.2967959999805,1088.2967959999805,,,,,,,,,up,2.4584800000302494,None,None,,,P130,001,2025-02-28_08h55.12.988,posner_endo_new1,2024.2.4,60.03388311605669,2025-02-28 08h55.20.806246 +0000,
cube_l.png,0.1,0.31,invalid,18,18,0,up,3.7372615999775007,None,space,0.4084116000449285,None,,,,,,,,,0,18,18,18,1088.2967959999805,,,,,,,,,,,,,1088.2811488000443,1088.2967959999805,1088.2967959999805,1088.2967959999805,1092.0443616000703,,,,1092.0551967000356,1092.065536200069,1092.065536200069,1092.1098144000862,1092.1101562000113,1092.1263906999957,1092.1263906999957,1092.1263906999957,1092.2096309000626,1092.543777300045,,,,,,,,,,,,,,,,,,,,,,up,3.7372615999775007,None,space,0.4084116000449285,None,P130,001,2025-02-28_08h55.12.988,posner_endo_new1,2024.2.4,60.03388311605669,2025-02-28 08h55.20.806246 +0000,
cube_l.png,0.1,10,catch,19,19,0,up,6.54797850002069,None,None,,,,,,,,,,,0,19,19,19,1092.5591600000625,,,,,,,,,,,,,1092.544066100032,1092.5591600000625,1092.5591600000625,1092.5591600000625,1099.1204569999827,,,,1099.13134000008,1099.1416362000164,1099.1416362000164,1099.1858965000138,1099.1862390000606,1099.2024936000817,1099.2024936000817,1099.2024936000817,1099.2856552000158,1102.2000492999796,,,,,,,,,,1101.3003978000488,1102.2159823999973,1102.2159823999973,1102.2159823999973,,,,,,,,,up,6.54797850002069,None,None,,,P130,001,2025-02-28_08h55.12.988,posner_endo_new1,2024.2.4,60.03388311605669,2025-02-28 08h55.20.806246 +0000,
cube_l.png,0.1,0.31,invalid,20,20,0,up,0.11561059998348355,None,space,0.4475146000040695,None,,,,,,,,,0,20,20,20,1102.2159823999973,,,,,,,,,,,,,1102.2003204000648,1102.2159823999973,1102.2159823999973,1102.2159823999973,1102.3338020000374,,,,1102.3446895000525,1102.3550492000068,1102.3550492000068,1102.399396300083,1102.399742800044,1102.4158123000525,1102.4158123000525,1102.4158123000525,1102.4991060000611,1102.8665596999926,,,,,,,,,,,,,,,,,,,,,,up,0.11561059998348355,None,space,0.4475146000040695,None,P130,001,2025-02-28_08h55.12.988,posner_endo_new1,2024.2.4,60.03388311605669,2025-02-28 08h55.20.806246 +0000,
cube_l.png,0.1,-0.31,valid,21,21,0,up,1.6806450000731274,None,space,0.4695599999977276,None,,,,,,,,,0,21,21,21,1102.8819398999913,,,,,,,,,,,,,1102.8668495999882,1102.8819398999913,1102.8819398999913,1102.8819398999913,1104.5651005000109,,,,1104.5759490000783,1104.5862073000753,1104.5862073000753,1104.630365399993,1104.6307126000756,1104.6468322,1104.6468322,1104.6468322,1104.7300966000184,1105.1308964000782,,,,,,,,,,,,,,,,,,,,,,up,1.6806450000731274,None,space,0.4695599999977276,None,P130,001,2025-02-28_08h55.12.988,posner_endo_new1,2024.2.4,60.03388311605669,2025-02-28 08h55.20.806246 +0000,
cube_r.png,0.1,0.31,valid,22,22,0,up,7.5846163999522105,None,space,0.3407870999071747,None,,,,,,,,,0,22,22,22,1105.146369400085,,,,,,,,,,,,,1105.1311843000585,1105.146369400085,1105.146369400085,1105.146369400085,1112.7392577000428,,,,1112.7460354000796,1112.7576984000625,1112.7576984000625,1112.8052302000578,1112.805477600079,1112.8217992000282,1112.8217992000282,1112.8217992000282,1112.8885492000263,1113.1723322999896,,,,,,,,,,,,,,,,,,,,,,up,7.5846163999522105,None,space,0.3407870999071747,None,P130,001,2025-02-28_08h55.12.988,posner_endo_new1,2024.2.4,60.03388311605669,2025-02-28 08h55.20.806246 +0000,
cube_r.png,0.1,-0.31,invalid,23,23,0,up,7.3662713000085205,None,space,0.36687090003397316,None,,,,,,,,,0,23,23,23,1113.1882605000865,,,,,,,,,,,,,1113.1725224000402,1113.1882605000865,1113.1882605000865,1113.1882605000865,1120.5646001000423,,,,1120.5707427000161,1120.5824565000366,1120.5824565000366,1120.6306293000234,1120.6308644000674,1120.6473252000287,1120.6473252000287,1120.6473252000287,1120.7137784999795,1121.03091890004,,,,,,,,,,,,,,,,,,,,,,up,7.3662713000085205,None,space,0.36687090003397316,None,P130,001,2025-02-28_08h55.12.988,posner_endo_new1,2024.2.4,60.03388311605669,2025-02-28 08h55.20.806246 +0000,
cube_r.png,0.1,0.31,valid,24,24,0,up,7.892181399976835,None,space,0.39550149999558926,None,,,,,,,,,0,24,24,24,1121.0467686000047,,,,,,,,,,,,,1121.031103300047,1121.0467686000047,1121.0467686000047,1121.0467686000047,1128.9397558000637,,,,1128.9458080000477,1128.9575728999916,1128.9575728999916,1129.0052224000683,1129.0056675000815,1129.0216479999945,1129.0216479999945,1129.0216479999945,1129.1051514000865,1129.4226522999816,,,,,,,,,,,,,,,,,,,,,,up,7.892181399976835,None,space,0.39550149999558926,None,P130,001,2025-02-28_08h55.12.988,posner_endo_new1,2024.2.4,60.03388311605669,2025-02-28 08h55.20.806246 +0000,
cube_r.png,0.1,-0.31,invalid,25,25,0,up,4.860357399913482,None,space,0.41025850002188236,None,,,,,,,,,0,25,25,25,1129.4381393999793,,,,,,,,,,,,,1129.4229184000287,1129.4381393999793,1129.4381393999793,1129.4381393999793,1134.3010001999792,,,,1134.3106127000647,1134.3209181000711,1134.3209181000711,1134.3665026000235,1134.3668192999903,1134.3831090000458,1134.3831090000458,1134.3831090000458,1134.4663486999925,1134.8004551000195,,,,,,,,,,,,,,,,,,,,,,up,4.860357399913482,None,space,0.41025850002188236,None,P130,001,2025-02-28_08h55.12.988,posner_endo_new1,2024.2.4,60.03388311605669,2025-02-28 08h55.20.806246 +0000,
cube_l.png,0.1,-0.31,valid,26,26,0,up,3.370711600058712,None,space,0.5163011999102309,None,,,,,,,,,0,26,26,26,1134.8161277000327,,,,,,,,,,,,,1134.8007201000582,1134.8161277000327,1134.8161277000327,1134.8161277000327,1138.196968000033,,,,1138.2065386000322,1138.2168173000682,1138.2168173000682,1138.2627060000086,1138.2630264000036,1138.279180200072,1138.279180200072,1138.279180200072,1138.3626526000444,1138.796589500038,,,,,,,,,,,,,,,,,,,,,,up,3.370711600058712,None,space,0.5163011999102309,None,P130,001,2025-02-28_08h55.12.988,posner_endo_new1,2024.2.4,60.03388311605669,2025-02-28 08h55.20.806246 +0000,
cube_r.png,0.1,0.31,valid,27,27,0,up,4.151182699948549,None,space,0.34527689998503774,None,,,,,,,,,0,27,27,27,1138.8119730000617,,,,,,,,,,,,,1138.79685100005,1138.8119730000617,1138.8119730000617,1138.8119730000617,1142.9754984000465,,,,1142.985063,1142.9952909999993,1142.9952909999993,1143.0411149000283,1143.04142959998,1143.0576580000343,1143.0576580000343,1143.0576580000343,1143.1408782000653,1143.4085852000862,,,,,,,,,,,,,,,,,,,,,,up,4.151182699948549,None,space,0.34527689998503774,None,P130,001,2025-02-28_08h55.12.988,posner_endo_new1,2024.2.4,60.03388311605669,2025-02-28 08h55.20.806246 +0000,
cube_r.png,0.1,10,catch,28,28,0,up,7.1707669999450445,None,None,,,,,,,,,,,0,28,28,28,1143.4238867000677,,,,,,,,,,,,,1143.4088529000292,1143.4238867000677,1143.4238867000677,1143.4238867000677,1150.6011946999934,,,,1150.6109471999807,1150.621288000024,1150.621288000024,1150.6665206000907,1150.66684239998,1150.6831582000013,1150.6831582000013,1150.6831582000013,1150.7664324000943,1153.6807939000428,,,,,,,,,,1152.7811015000334,1153.6968519000802,1153.6968519000802,1153.6968519000802,,,,,,,,,up,7.1707669999450445,None,None,,,P130,001,2025-02-28_08h55.12.988,posner_endo_new1,2024.2.4,60.03388311605669,2025-02-28 08h55.20.806246 +0000,
cube_r.png,0.1,0.31,valid,29,29,0,up,4.898229900049046,None,space,0.36235860001761466,None,,,,,,,,,0,29,29,29,1153.6968519000802,,,,,,,,,,,,,1153.6810431000777,1153.6968519000802,1153.6968519000802,1153.6968519000802,1158.6095630000345,,,,1158.6191685000667,1158.6294824000215,1158.6294824000215,1158.675258900039,1158.6755765000125,1158.69164189999,1158.69164189999,1158.69164189999,1158.7749735000543,1159.0592351000523,,,,,,,,,,,,,,,,,,,,,,up,4.898229900049046,None,space,0.36235860001761466,None,P130,001,2025-02-28_08h55.12.988,posner_endo_new1,2024.2.4,60.03388311605669,2025-02-28 08h55.20.806246 +0000,
cube_r.png,0.1,0.31,valid,30,30,0,up,2.311790599953383,None,space,0.3540497999638319,None,,,,,,,,,0,30,30,30,1159.0745700000552,,,,,,,,,,,,,1159.059500100091,1159.0745700000552,1159.0745700000552,1159.0745700000552,1161.3901144000702,,,,1161.3996766000055,1161.409958000062,1161.409958000062,1161.4557265000185,1161.4560506000416,1161.4720846000127,1161.4720846000127,1161.4720846000127,1161.5555469000246,1161.8397773000179,,,,,,,,,,,,,,,,,,,,,,up,2.311790599953383,None,space,0.3540497999638319,None,P130,001,2025-02-28_08h55.12.988,posner_endo_new1,2024.2.4,60.03388311605669,2025-02-28 08h55.20.806246 +0000,
cube_l.png,0.1,-0.31,valid,31,31,0,up,6.235211199964397,None,space,0.3507774999598041,None,,,,,,,,,0,31,31,31,1161.8549347000662,,,,,,,,,,,,,1161.8400457000826,1161.8549347000662,1161.8549347000662,1161.8549347000662,1168.0997520000674,,,,1168.109362600022,1168.1197293000296,1168.1197293000296,1168.1655689000618,1168.165882900008,1168.1820483000483,1168.1820483000483,1168.1820483000483,1168.2653144000797,1168.549487899989,,,,,,,,,,,,,,,,,,,,,,up,6.235211199964397,None,space,0.3507774999598041,None,P130,001,2025-02-28_08h55.12.988,posner_endo_new1,2024.2.4,60.03388311605669,2025-02-28 08h55.20.806246 +0000,
cube_r.png,0.1,0.31,valid,32,32,0,up,2.334179400000721,None,space,0.36101690004579723,None,,,,,,,,,0,32,32,32,1168.5648347000824,,,,,,,,,,,,,1168.5497594000772,1168.5648347000824,1168.5648347000824,1168.5648347000824,1170.9136447000783,,,,1170.9232779000886,1170.9335639000637,1170.9335639000637,1170.979362700018,1170.9796760000754,1170.9957186999964,1170.9957186999964,1170.9957186999964,1171.0791390000377,1171.3635786999948,,,,,,,,,,,,,,,,,,,,,,up,2.334179400000721,None,space,0.36101690004579723,None,P130,001,2025-02-28_08h55.12.988,posner_endo_new1,2024.2.4,60.03388311605669,2025-02-28 08h55.20.806246 +0000,
cube_r.png,0.1,-0.31,invalid,33,33,0,up,2.1043275999836624,None,space,0.4082006000680849,None,,,,,,,,,0,33,33,33,1171.3786830999888,,,,,,,,,,,,,1171.3638517000945,1171.3786830999888,1171.3786830999888,1171.3786830999888,1173.4944006000878,,,,1173.5038991000038,1173.5141490000533,1173.5141490000533,1173.5599719000747,1173.5602883000392,1173.5765194999985,1173.5765194999985,1173.5765194999985,1173.6596668000566,1173.9938565000193,,,,,,,,,,,,,,,,,,,,,,up,2.1043275999836624,None,space,0.4082006000680849,None,P130,001,2025-02-28_08h55.12.988,posner_endo_new1,2024.2.4,60.03388311605669,2025-02-28 08h55.20.806246 +0000,
cube_r.png,0.1,10,catch,34,34,0,up,1.8177747000008821,None,space,0.3818434999557212,None,,,,,,,,,0,34,34,34,1174.0093267000047,,,,,,,,,,,,,1173.9941196000436,1174.0093267000047,1174.0093267000047,1174.0093267000047,1175.8419248000719,,,,1175.851406400092,1175.8618304000702,1175.8618304000702,1175.9076859999914,1175.9080105000176,1175.924021700048,1175.924021700048,1175.924021700048,1176.0072635000106,1176.3083486000542,,,,,,,,,,,,,,,,,,,,,,up,1.8177747000008821,None,space,0.3818434999557212,None,P130,001,2025-02-28_08h55.12.988,posner_endo_new1,2024.2.4,60.03388311605669,2025-02-28 08h55.20.806246 +0000,
cube_r.png,0.1,0.31,valid,35,35,0,up,2.1668336999136955,None,space,0.3863260999787599,None,,,,,,,,,0,35,35,35,1176.3236888999818,,,,,,,,,,,,,1176.3086116000777,1176.3236888999818,1176.3236888999818,1176.3236888999818,1178.5059646000154,,,,1178.515444300021,1178.5258276000386,1178.5258276000386,1178.5715748000657,1178.5718928000424,1178.5880405000644,1178.5880405000644,1178.5880405000644,1178.671240900061,1178.9888012000592,,,,,,,,,,,,,,,,,,,,,,up,2.1668336999136955,None,space,0.3863260999787599,None,P130,001,2025-02-28_08h55.12.988,posner_endo_new1,2024.2.4,60.03388311605669,2025-02-28 08h55.20.806246 +0000,
cube_r.png,0.1,-0.31,invalid,36,36,0,up,1.951078400015831,None,space,0.3520299999509007,None,,,,,,,,,0,36,36,36,1179.0042979000136,,,,,,,,,,,,,1178.9890670999885,1179.0042979000136,1179.0042979000136,1179.0042979000136,1180.9696114000399,,,,1180.9756561000831,1180.9872473999858,1180.9872473999858,1181.035587600083,1181.0358257000335,1181.0522104999982,1181.0522104999982,1181.0522104999982,1181.118668799987,1181.4192093000747,,,,,,,,,,,,,,,,,,,,,,up,1.951078400015831,None,space,0.3520299999509007,None,P130,001,2025-02-28_08h55.12.988,posner_endo_new1,2024.2.4,60.03388311605669,2025-02-28 08h55.20.806246 +0000,
cube_l.png,0.1,0.31,invalid,37,37,0,up,1.9442413999931887,None,space,0.3964387000305578,None,,,,,,,,,0,37,37,37,1181.4349652000237,,,,,,,,,,,,,1181.4193935000803,1181.4349652000237,1181.4349652000237,1181.4349652000237,1183.3840017000912,,,,1183.3899385000113,1183.401590500027,1183.401590500027,1183.4498240000103,1183.450072000036,1183.4664450000273,1183.4664450000273,1183.4664450000273,1183.549672299996,1183.8668218000093,,,,,,,,,,,,,,,,,,,,,,up,1.9442413999931887,None,space,0.3964387000305578,None,P130,001,2025-02-28_08h55.12.988,posner_endo_new1,2024.2.4,60.03388311605669,2025-02-28 08h55.20.806246 +0000,
cube_l.png,0.1,0.31,invalid,38,38,0,up,4.600092399981804,None,space,0.4581630000611767,None,,,,,,,,,0,38,38,38,1183.8826273999875,,,,,,,,,,,,,1183.8670087000355,1183.8826273999875,1183.8826273999875,1183.8826273999875,1188.495502200094,,,,1188.5016047999961,1188.5130812000716,1188.5130812000716,1188.561277300003,1188.561514000059,1188.5777212000685,1188.5777212000685,1188.5777212000685,1188.6611129000084,1189.0448838000884,,,,,,,,,,,,,,,,,,,,,,up,4.600092399981804,None,space,0.4581630000611767,None,P130,001,2025-02-28_08h55.12.988,posner_endo_new1,2024.2.4,60.03388311605669,2025-02-28 08h55.20.806246 +0000,
cube_r.png,0.1,0.31,valid,39,39,0,up,4.149749199976213,None,space,0.4071456000674516,None,,,,,,,,,0,39,39,39,1189.0606252000434,,,,,,,,,,,,,1189.0450706999982,1189.0606252000434,1189.0606252000434,1189.0606252000434,1193.2239432000788,,,,1193.2299274000106,1193.2414101000177,1193.2414101000177,1193.2898624000372,1193.2901040000143,1193.3062749999808,1193.3062749999808,1193.3062749999808,1193.3729909000685,1193.7233565000352,,,,,,,,,,,,,,,,,,,,,,up,4.149749199976213,None,space,0.4071456000674516,None,P130,001,2025-02-28_08h55.12.988,posner_endo_new1,2024.2.4,60.03388311605669,2025-02-28 08h55.20.806246 +0000,
cube_l.png,0.1,0.31,invalid,40,40,0,up,4.1914012000197545,None,space,0.4348366999765858,None,,,,,,,,,0,40,40,40,1193.7392863000277,,,,,,,,,,,,,1193.7235441000666,1193.7392863000277,1193.7392863000277,1193.7392863000277,1197.9359403999988,,,,1197.9419944999972,1197.95364349999,1197.95364349999,1198.0016572000459,1198.0019001000328,1198.0181810000213,1198.0181810000213,1198.0181810000213,1198.1014315000502,1198.4686765000224,,,,,,,,,,,,,,,,,,,,,,up,4.1914012000197545,None,space,0.4348366999765858,None,P130,001,2025-02-28_08h55.12.988,posner_endo_new1,2024.2.4,60.03388311605669,2025-02-28 08h55.20.806246 +0000,
cube_l.png,0.1,10,catch,41,41,0,up,2.686574299936183,None,None,,,,,,,,,,,0,41,41,41,1198.484383000061,,,,,,,,,,,,,1198.468861100031,1198.484383000061,1198.484383000061,1198.484383000061,1201.1822981000878,,,,1201.188312000013,1201.1998659999808,1201.1998659999808,1201.248181700008,1201.2484181000618,1201.2648969000438,1201.2648969000438,1201.2648969000438,1201.331415600027,1204.2622672000434,,,,,,,,,,1203.3459966999944,1204.2784511999926,1204.2784511999926,1204.2784511999926,,,,,,,,,up,2.686574299936183,None,None,,,P130,001,2025-02-28_08h55.12.988,posner_endo_new1,2024.2.4,60.03388311605669,2025-02-28 08h55.20.806246 +0000,
cube_l.png,0.1,-0.31,valid,42,42,0,up,4.091967899934389,None,space,0.4025523999007419,None,,,,,,,,,0,42,42,42,1204.2784511999926,,,,,,,,,,,,,1204.2624426999828,1204.2784511999926,1204.2784511999926,1204.2784511999926,1208.3750313000055,,,,1208.3810851000017,1208.3927931000944,1208.3927931000944,1208.4409815000836,1208.441218300024,1208.4575950000435,1208.4575950000435,1208.4575950000435,1208.5240784999914,1208.8745699999854,,,,,,,,,,,,,,,,,,,,,,up,4.091967899934389,None,space,0.4025523999007419,None,P130,001,2025-02-28_08h55.12.988,posner_endo_new1,2024.2.4,60.03388311605669,2025-02-28 08h55.20.806246 +0000,
cube_l.png,0.1,10,catch,43,43,0,up,2.160618899972178,None,None,,,,,,,,,,,0,43,43,43,1208.8904045000672,,,,,,,,,,,,,1208.8747515000869,1208.8904045000672,1208.8904045000672,1208.8904045000672,1211.0557425000006,,,,1211.0617094000336,1211.0733423000202,1211.0733423000202,1211.121624500025,1211.121874900069,1211.1381563000614,1211.1381563000614,1211.1381563000614,1211.2212283000117,1214.1355417000595,,,,,,,,,,1213.2359855000395,1214.151623700047,1214.151623700047,1214.151623700047,,,,,,,,,up,2.160618899972178,None,None,,,P130,001,2025-02-28_08h55.12.988,posner_endo_new1,2024.2.4,60.03388311605669,2025-02-28 08h55.20.806246 +0000,
cube_l.png,0.1,0.31,invalid,44,44,0,up,1.7630025999387726,None,space,0.3851905999472365,None,,,,,,,,,0,44,44,44,1214.151623700047,,,,,,,,,,,,,1214.135719300015,1214.151623700047,1214.151623700047,1214.151623700047,1215.9172463000286,,,,1215.9233220000751,1215.935126400087,1215.935126400087,1215.983230200014,1215.983469100087,1215.9998222000431,1215.9998222000431,1215.9998222000431,1216.0663852000143,1216.4001685000258,,,,,,,,,,,,,,,,,,,,,,up,1.7630025999387726,None,space,0.3851905999472365,None,P130,001,2025-02-28_08h55.12.988,posner_endo_new1,2024.2.4,60.03388311605669,2025-02-28 08h55.20.806246 +0000,
cube_l.png,0.1,0.31,invalid,45,45,0,up,1.9232388000236824,None,space,0.5337092999834567,None,,,,,,,,,0,45,45,45,1216.415973199997,,,,,,,,,,,,,1216.4003553000512,1216.415973199997,1216.415973199997,1216.415973199997,1218.3480058000423,,,,1218.3540506000863,1218.365594400093,1218.365594400093,1218.4141669999808,1218.4144099000841,1218.4305653000483,1218.4305653000483,1218.4305653000483,1218.4972591000842,1218.980960600078,,,,,,,,,,,,,,,,,,,,,,up,1.9232388000236824,None,space,0.5337092999834567,None,P130,001,2025-02-28_08h55.12.988,posner_endo_new1,2024.2.4,60.03388311605669,2025-02-28 08h55.20.806246 +0000,
cube_r.png,0.1,0.31,valid,46,46,0,up,2.2143863000674173,None,space,0.4407428000122309,None,,,,,,,,,0,46,46,46,1218.9967105999822,,,,,,,,,,,,,1218.981143400073,1218.9967105999822,1218.9967105999822,1218.9967105999822,1221.2121118000941,,,,1221.218323500012,1221.2299651000649,1221.2299651000649,1221.2778120000148,1221.2780475000618,1221.2943763000658,1221.2943763000658,1221.2943763000658,1221.3777337000938,1221.7446927999845,,,,,,,,,,,,,,,,,,,,,,up,2.2143863000674173,None,space,0.4407428000122309,None,P130,001,2025-02-28_08h55.12.988,posner_endo_new1,2024.2.4,60.03388311605669,2025-02-28 08h55.20.806246 +0000,
cube_l.png,0.1,-0.31,valid,47,47,0,up,2.3384090000763535,None,space,0.5482866000384092,None,,,,,,,,,0,47,47,47,1221.7605910000857,,,,,,,,,,,,,1221.744877899997,1221.7605910000857,1221.7605910000857,1221.7605910000857,1224.108916600002,,,,1224.1149369000923,1224.1267294000136,1224.1267294000136,1224.174953800044,1224.1751927000005,1224.191528400057,1224.191528400057,1224.191528400057,1224.257964999997,1224.7418403000338,,,,,,,,,,,,,,,,,,,,,,up,2.3384090000763535,None,space,0.5482866000384092,None,P130,001,2025-02-28_08h55.12.988,posner_endo_new1,2024.2.4,60.03388311605669,2025-02-28 08h55.20.806246 +0000,
cube_r.png,0.1,-0.31,invalid,48,48,0,up,3.245507500017993,None,space,0.4456048000138253,None,,,,,,,,,0,48,48,48,1224.7575483000837,,,,,,,,,,,,,1224.742029300076,1224.7575483000837,1224.7575483000837,1224.7575483000837,1228.0049485000782,,,,1228.0109019000083,1228.022550499998,1228.022550499998,1228.0709769000532,1228.0712140999967,1228.087616899982,1228.087616899982,1228.087616899982,1228.1707183000399,1228.5377260000678,,,,,,,,,,,,,,,,,,,,,,up,3.245507500017993,None,space,0.4456048000138253,None,P130,001,2025-02-28_08h55.12.988,posner_endo_new1,2024.2.4,60.03388311605669,2025-02-28 08h55.20.806246 +0000,
cube_r.png,0.1,10,catch,49,49,0,up,1.9455342000583187,None,None,,,,,,,,,,,0,49,49,49,1228.553632700001,,,,,,,,,,,,,1228.537907400052,1228.553632700001,1228.553632700001,1228.553632700001,1230.5024230000563,,,,1230.5083964000223,1230.5199436000548,1230.5199436000548,1230.5682349000126,1230.568477199995,1230.5849815000547,1230.5849815000547,1230.5849815000547,1230.6514920000918,1233.582395000034,,,,,,,,,,1232.6662143000867,1233.5985098000383,1233.5985098000383,1233.5985098000383,,,,,,,,,up,1.9455342000583187,None,None,,,P130,001,2025-02-28_08h55.12.988,posner_endo_new1,2024.2.4,60.03388311605669,2025-02-28 08h55.20.806246 +0000,
cube_l.png,0.1,-0.31,valid,50,50,0,up,5.204153599916026,None,space,0.43750440003350377,None,,,,,,,,,0,50,50,50,1233.5985098000383,,,,,,,,,,,,,1233.582569600083,1233.5985098000383,1233.5985098000383,1233.5985098000383,1238.810679999995,,,,1238.8168896000134,1238.8284756999929,1238.8284756999929,1238.8765970000532,1238.8768325999845,1238.893086600001,1238.893086600001,1238.893086600001,1238.9762781000463,1239.3435120000504,,,,,,,,,,,,,,,,,,,,,,up,5.204153599916026,None,space,0.43750440003350377,None,P130,001,2025-02-28_08h55.12.988,posner_endo_new1,2024.2.4,60.03388311605669,2025-02-28 08h55.20.806246 +0000,
cube_l.png,0.1,-0.31,valid,51,51,0,up,2.755601800046861,None,space,0.46548200002871454,None,,,,,,,,,0,51,51,51,1239.3593252000865,,,,,,,,,,,,,1239.3436927000294,1239.3593252000865,1239.3593252000865,1239.3593252000865,1242.1238815999823,,,,1242.1299138000468,1242.1415710999863,1242.1415710999863,1242.1898571000202,1242.1900953000877,1242.2061598000582,1242.2061598000582,1242.2061598000582,1242.2728326000506,1242.6734997000312,,,,,,,,,,,,,,,,,,,,,,up,2.755601800046861,None,space,0.46548200002871454,None,P130,001,2025-02-28_08h55.12.988,posner_endo_new1,2024.2.4,60.03388311605669,2025-02-28 08h55.20.806246 +0000,
cube_r.png,0.1,-0.31,invalid,52,52,0,up,1.8829154999693856,None,space,0.3979238999309018,None,,,,,,,,,0,52,52,52,1242.6891724000452,,,,,,,,,,,,,1242.673689300078,1242.6891724000452,1242.6891724000452,1242.6891724000452,1244.5881942000706,,,,1244.5942364999792,1244.6059437000658,1244.6059437000658,1244.653937300085,1244.654174800031,1244.6705008000135,1244.6705008000135,1244.6705008000135,1244.7537703000708,1245.0711186000844,,,,,,,,,,,,,,,,,,,,,,up,1.8829154999693856,None,space,0.3979238999309018,None,P130,001,2025-02-28_08h55.12.988,posner_endo_new1,2024.2.4,60.03388311605669,2025-02-28 08h55.20.806246 +0000,
cube_l.png,0.1,-0.31,valid,53,53,0,up,3.3640389000065625,None,space,0.46006169996690005,None,,,,,,,,,0,53,53,53,1245.086659600027,,,,,,,,,,,,,1245.0713041999843,1245.086659600027,1245.086659600027,1245.086659600027,1248.4674749000696,,,,1248.4735629000934,1248.4849550999934,1248.4849550999934,1248.5332834,1248.5335232000798,1248.5498394999886,1248.5498394999886,1248.5498394999886,1248.6330490000546,1249.0166087000398,,,,,,,,,,,,,,,,,,,,,,up,3.3640389000065625,None,space,0.46006169996690005,None,P130,001,2025-02-28_08h55.12.988,posner_endo_new1,2024.2.4,60.03388311605669,2025-02-28 08h55.20.806246 +0000,
cube_r.png,0.1,10,catch,54,54,0,up,1.7619105000048876,None,None,,,,,,,,,,,0,54,54,54,1249.0327173999976,,,,,,,,,,,,,1249.0167937000515,1249.0327173999976,1249.0327173999976,1249.0327173999976,1250.7984667000128,,,,1250.8045476999832,1250.8163928000722,1250.8163928000722,1250.8643564999802,1250.864590000012,1250.8808120000176,1250.8808120000176,1250.8808120000176,1250.9640826000832,1253.8784389999928,,,,,,,,,,1252.9785822000122,1253.8943866000045,1253.8943866000045,1253.8943866000045,,,,,,,,,up,1.7619105000048876,None,None,,,P130,001,2025-02-28_08h55.12.988,posner_endo_new1,2024.2.4,60.03388311605669,2025-02-28 08h55.20.806246 +0000,
cube_l.png,0.1,0.31,invalid,55,55,0,up,3.5721709999488667,None,space,0.38522850000299513,None,,,,,,,,,0,55,55,55,1253.8943866000045,,,,,,,,,,,,,1253.878613100038,1253.8943866000045,1253.8943866000045,1253.8943866000045,1257.4748199000023,,,,1257.4808841000777,1257.4925484000705,1257.4925484000705,1257.5407277999911,1257.540965900058,1257.5574400000041,1257.5574400000041,1257.5574400000041,1257.6238688000012,1257.9575445000082,,,,,,,,,,,,,,,,,,,,,,up,3.5721709999488667,None,space,0.38522850000299513,None,P130,001,2025-02-28_08h55.12.988,posner_endo_new1,2024.2.4,60.03388311605669,2025-02-28 08h55.20.806246 +0000,
cube_l.png,0.1,-0.31,valid,56,56,0,up,2.6374762000050396,None,space,0.3688429999165237,None,,,,,,,,,0,56,56,56,1257.9736693000887,,,,,,,,,,,,,1257.9577276000055,1257.9736693000887,1257.9736693000887,1257.9736693000887,1260.6217034000438,,,,1260.6277032000944,1260.6392616999801,1260.6392616999801,1260.6876395000145,1260.687879400095,1260.7040458000265,1260.7040458000265,1260.7040458000265,1260.7706263000146,1261.0877711999929,,,,,,,,,,,,,,,,,,,,,,up,2.6374762000050396,None,space,0.3688429999165237,None,P130,001,2025-02-28_08h55.12.988,posner_endo_new1,2024.2.4,60.03388311605669,2025-02-28 08h55.20.806246 +0000,
cube_r.png,0.1,0.31,valid,57,57,0,up,2.1231225000228733,None,space,0.3513285000808537,None,,,,,,,,,0,57,57,57,1261.103566500009,,,,,,,,,,,,,1261.0879744000267,1261.103566500009,1261.103566500009,1261.103566500009,1263.2356510000536,,,,1263.2417351000477,1263.2535229000496,1263.2535229000496,1263.301597499987,1263.30183640006,1263.318194200052,1263.318194200052,1263.318194200052,1263.3847321000649,1263.685240300023,,,,,,,,,,,,,,,,,,,,,,up,2.1231225000228733,None,space,0.3513285000808537,None,P130,001,2025-02-28_08h55.12.988,posner_endo_new1,2024.2.4,60.03388311605669,2025-02-28 08h55.20.806246 +0000,
cube_r.png,0.1,-0.31,invalid,58,58,0,up,1.8380436999723315,None,space,0.3564966000849381,None,,,,,,,,,0,58,58,58,1263.7011391000124,,,,,,,,,,,,,1263.6854232000187,1263.7011391000124,1263.7011391000124,1263.7011391000124,1265.55028830003,,,,1265.5598297000397,1265.5701498000417,1265.5701498000417,1265.616001800052,1265.6163291999837,1265.6325082000112,1265.6325082000112,1265.6325082000112,1265.7156773000024,1265.9999110000208,,,,,,,,,,,,,,,,,,,,,,up,1.8380436999723315,None,space,0.3564966000849381,None,P130,001,2025-02-28_08h55.12.988,posner_endo_new1,2024.2.4,60.03388311605669,2025-02-28 08h55.20.806246 +0000,
cube_l.png,0.1,0.31,invalid,59,59,0,up,2.13180990004912,None,space,0.39404130005277693,None,,,,,,,,,0,59,59,59,1266.0153687000275,,,,,,,,,,,,,1266.0001747000497,1266.0153687000275,1266.0153687000275,1266.0153687000275,1268.1642164000077,,,,1268.1723464999814,1268.18280770001,1268.18280770001,1268.2298941999907,1268.2301315000514,1268.2463696000632,1268.2463696000632,1268.2463696000632,1268.329560699989,1268.6469729000237,,,,,,,,,,,,,,,,,,,,,,up,2.13180990004912,None,space,0.39404130005277693,None,P130,001,2025-02-28_08h55.12.988,posner_endo_new1,2024.2.4,60.03388311605669,2025-02-28 08h55.20.806246 +0000,
