cue_img,cue_soa,target_x,trial,thisN,thisTrialN,thisRepN,key_control2.keys,key_control2.rt,key_control2.duration,key_resp.keys,key_resp.rt,key_resp.duration,practice.thisRepN,practice.thisTrialN,practice.thisN,practice.thisIndex,block1.thisRepN,block1.thisTrialN,block1.thisN,block1.thisIndex,block2.thisRepN,block2.thisTrialN,block2.thisN,block2.thisIndex,thisRow.t,notes,instructions.started,instructions_txt.started,key_control.started,instructions.stopped,key_control.keys,key_control.rt,key_control.duration,ready.started,ready_txt.started,ready_txt.stopped,ready.stopped,fix.started,fixation.started,key_control2.started,fixation_cross.started,fix.stopped,practice.key_control2.keys,practice.key_control2.rt,practice.key_control2.duration,cue.started,cube.started,fixation_cross_cue.started,cue.stopped,target.started,fixation_target.started,fixation_cross_target.started,key_resp.started,star.started,target.stopped,practice.key_resp.keys,practice.key_resp.rt,practice.key_resp.duration,star.stopped,fixation_target.stopped,fixation_cross_target.stopped,key_resp.stopped,block1.key_control2.keys,block1.key_control2.rt,block1.key_control2.duration,block1.key_resp.keys,block1.key_resp.rt,block1.key_resp.duration,cube.stopped,fixation_cross_cue.stopped,break_2.started,text.started,key_control3.started,text.stopped,break_2.stopped,key_control3.keys,key_control3.rt,key_control3.duration,block2.key_control2.keys,block2.key_control2.rt,block2.key_control2.duration,block2.key_resp.keys,block2.key_resp.rt,block2.key_resp.duration,participant,session,date,expName,psychopyVersion,frameRate,expStart,
,,,,,,,,,,,,,,,,,,,,,,,,,,,0.007446800009347498,0.027732199989259243,0.027732199989259243,238.2223807000555,up,238.18973830004688,None,,,,,,,,,,,,,,,,,,,,,,,,,,,,,,,,,,,,,,,,,,,,,,,,,,,,P131,001,2025-02-28_13h52.06.064,posner_endo_new1,2024.2.4,60.10399190698834,2025-02-28 13h52.14.298910 +0000,
,,,,,,,,,,,,,,,,,,,,,,,,,,,,,,,,,,238.22242770006415,238.23485890007578,241.23504060006235,241.2154787000036,,,,,,,,,,,,,,,,,,,,,,,,,,,,,,,,,,,,,,,,,,,,,,,,P131,001,2025-02-28_13h52.06.064,posner_endo_new1,2024.2.4,60.10399190698834,2025-02-28 13h52.14.298910 +0000,
cube_l.png,0.1,-0.31,valid,0,0,0,up,7.902699299971573,None,space,0.6141170000191778,None,0,0,0,0,,,,,,,,,241.23504060006235,,,,,,,,,,,,,241.22240199998487,241.23504060006235,241.23504060006235,241.23504060006235,249.14132489997428,up,7.902699299971573,None,249.15231989999302,249.16245930001605,249.16245930001605,249.20686819998082,249.2070895000361,249.22383769997396,249.22383769997396,249.22383769997396,249.2899419000605,249.84069230000023,space,0.6141170000191778,None,,,,,,,,,,,,,,,,,,,,,,,,,,,P131,001,2025-02-28_13h52.06.064,posner_endo_new1,2024.2.4,60.10399190698834,2025-02-28 13h52.14.298910 +0000,
cube_l.png,0.1,0.31,invalid,1,1,0,up,2.608608999988064,None,space,0.40566300007048994,None,0,1,1,1,,,,,,,,,249.85650440002792,,,,,,,,,,,,,249.84085560007952,249.85650440002792,249.85650440002792,249.85650440002792,252.47079220006708,up,2.608608999988064,None,252.47660100006033,252.4882329000393,252.4882329000393,252.53727009997237,252.53749470005278,252.55404159997124,252.55404159997124,252.55404159997124,252.62031869997736,252.97068540006876,space,0.40566300007048994,None,,,,,,,,,,,,,,,,,,,,,,,,,,,P131,001,2025-02-28_13h52.06.064,posner_endo_new1,2024.2.4,60.10399190698834,2025-02-28 13h52.14.298910 +0000,
cube_r.png,0.1,-0.31,invalid,2,2,0,up,4.814451600075699,None,space,0.5886541999643669,None,0,2,2,2,,,,,,,,,252.98663609998766,,,,,,,,,,,,,252.97085200005677,252.98663609998766,252.98663609998766,252.98663609998766,257.8159708000021,up,4.814451600075699,None,257.822739400086,257.83490220003296,257.83490220003296,257.88204030005727,257.88226470001973,257.8985027000308,257.8985027000308,257.8985027000308,257.9649190000491,258.49840120004956,space,0.5886541999643669,None,,,,,,,,,,,,,,,,,,,,,,,,,,,P131,001,2025-02-28_13h52.06.064,posner_endo_new1,2024.2.4,60.10399190698834,2025-02-28 13h52.14.298910 +0000,
cube_r.png,0.1,10,catch,3,3,0,up,3.7986227000365034,None,None,,,0,3,3,3,,,,,,,,,258.5145743000321,,,,,,,,,,,,,258.49856470001396,258.5145743000321,258.5145743000321,258.5145743000321,262.3277661000611,up,3.7986227000365034,None,262.33355450001545,262.34531180001795,262.34531180001795,262.39382740005385,262.39405250002164,262.4103853000561,262.4103853000561,262.4103853000561,262.4937487000134,265.40749960008543,None,,,264.5081451999722,265.424074199982,265.424074199982,265.424074199982,,,,,,,,,,,,,,,,,,,,,,,P131,001,2025-02-28_13h52.06.064,posner_endo_new1,2024.2.4,60.10399190698834,2025-02-28 13h52.14.298910 +0000,
cube_l.png,0.1,-0.31,valid,4,4,0,up,2.785107900039293,None,space,0.5043888000072911,None,0,4,4,4,,,,,,,,,265.424074199982,,,,,,,,,,,,,265.4076529999729,265.424074199982,265.424074199982,265.424074199982,268.22189240006264,up,2.785107900039293,None,268.22768890007865,268.23927899997216,268.23927899997216,268.287774000084,268.28800549998414,268.3042943000328,268.3042943000328,268.3042943000328,268.3876083000796,268.82131600007415,space,0.5043888000072911,None,,,,,,,,,,,,,,,,,,,,,,,,,,,P131,001,2025-02-28_13h52.06.064,posner_endo_new1,2024.2.4,60.10399190698834,2025-02-28 13h52.14.298910 +0000,
cube_l.png,0.1,0.31,invalid,5,5,0,up,4.988119999994524,None,space,0.4837624999927357,None,0,5,5,5,,,,,,,,,268.8369417000795,,,,,,,,,,,,,268.82147690001875,268.8369417000795,268.8369417000795,268.8369417000795,273.8327164000366,up,4.988119999994524,None,273.8386719999835,273.8500710000517,273.8500710000517,273.89879860007204,273.89902160002384,273.91532340005506,273.91532340005506,273.91532340005506,273.9818050999893,274.41547970008105,space,0.4837624999927357,None,,,,,,,,,,,,,,,,,,,,,,,,,,,P131,001,2025-02-28_13h52.06.064,posner_endo_new1,2024.2.4,60.10399190698834,2025-02-28 13h52.14.298910 +0000,
cube_r.png,0.1,-0.31,invalid,6,6,0,up,6.865428199991584,None,space,0.4041637000627816,None,0,6,6,6,,,,,,,,,274.43148140003905,,,,,,,,,,,,,274.41564140003175,274.43148140003905,274.43148140003905,274.43148140003905,281.30860480002593,up,6.865428199991584,None,281.31452030001674,281.32613760000095,281.32613760000095,281.3745729000075,281.3747959000757,281.39107840007637,281.39107840007637,281.39107840007637,281.4574080000166,281.8078773000743,space,0.4041637000627816,None,,,,,,,,,,,,,,,,,,,,,,,,,,,P131,001,2025-02-28_13h52.06.064,posner_endo_new1,2024.2.4,60.10399190698834,2025-02-28 13h52.14.298910 +0000,
cube_r.png,0.1,0.31,valid,7,7,0,up,6.31390370009467,None,space,0.3573653999483213,None,0,7,7,7,,,,,,,,,281.8236274999799,,,,,,,,,,,,,281.80804440006614,281.8236274999799,281.8236274999799,281.8236274999799,288.1515177000547,up,6.31390370009467,None,288.1574052000651,288.1692327000201,288.1692327000201,288.21751290000975,288.2177322000498,288.23404060001485,288.23404060001485,288.23404060001485,288.3007147000171,288.60113960003946,space,0.3573653999483213,None,,,,,,,,,,,,,,,,,,,,,,,,,,,P131,001,2025-02-28_13h52.06.064,posner_endo_new1,2024.2.4,60.10399190698834,2025-02-28 13h52.14.298910 +0000,
cube_l.png,0.1,-0.31,valid,8,8,0,up,4.832591500016861,None,space,0.4322814999613911,None,0,8,8,8,,,,,,,,,288.6168932999717,,,,,,,,,,,,,288.6013001999818,288.6168932999717,288.6168932999717,288.6168932999717,293.46266850002576,up,4.832591500016861,None,293.46841890004,293.4798835000256,293.4798835000256,293.5288452000823,293.52906650002114,293.54522209998686,293.54522209998686,293.54522209998686,293.6120857000351,293.9788923000451,space,0.4322814999613911,None,,,,,,,,,,,,,,,,,,,,,,,,,,,P131,001,2025-02-28_13h52.06.064,posner_endo_new1,2024.2.4,60.10399190698834,2025-02-28 13h52.14.298910 +0000,
cube_r.png,0.1,-0.31,invalid,9,9,0,up,6.198396699968725,None,space,0.5048511000350118,None,0,9,9,9,,,,,,,,,293.9947710999986,,,,,,,,,,,,,293.9790521999821,293.9947710999986,293.9947710999986,293.9947710999986,300.2058610999957,up,6.198396699968725,None,300.21166700008325,300.22328610008117,300.22328610008117,300.2718888000818,300.2721118000336,300.28837650001515,300.28837650001515,300.28837650001515,300.3550514000235,300.8053446999984,space,0.5048511000350118,None,,,,,,,,,,,,,,,,,,,,,,,,,,,P131,001,2025-02-28_13h52.06.064,posner_endo_new1,2024.2.4,60.10399190698834,2025-02-28 13h52.14.298910 +0000,
cube_r.png,0.1,0.31,valid,10,10,0,up,5.108488199999556,None,space,0.38233390008099377,None,0,10,10,10,,,,,,,,,300.82108879997395,,,,,,,,,,,,,300.8055064000655,300.82108879997395,300.82108879997395,300.82108879997395,305.9333233999787,up,5.108488199999556,None,305.93906470004003,305.9505679999711,305.9505679999711,305.99932280008215,305.9995446000248,306.01580240007024,306.01580240007024,306.01580240007024,306.08262440003455,306.39982260006946,space,0.38233390008099377,None,,,,,,,,,,,,,,,,,,,,,,,,,,,P131,001,2025-02-28_13h52.06.064,posner_endo_new1,2024.2.4,60.10399190698834,2025-02-28 13h52.14.298910 +0000,
,,,,,,,,,,,,,,,,,,,,,,,,,,,,,,,,,,306.39993100007996,306.4155365000479,309.41852359997574,309.396148800035,,,,,,,,,,,,,,,,,,,,,,,,,,,,,,,,,,,,,,,,,,,,,,,,P131,001,2025-02-28_13h52.06.064,posner_endo_new1,2024.2.4,60.10399190698834,2025-02-28 13h52.14.298910 +0000,
cube_l.png,0.1,10,catch,0,0,0,up,18.895147099974565,None,None,,,,,,,0,0,0,0,,,,,309.41852359997574,,,,,,,,,,,,,309.40986870008055,309.41852359997574,309.41852359997574,309.41852359997574,328.32686849997845,,,,328.3329082999844,328.34458889998496,328.34458889998496,328.39280290005263,328.3930262000067,328.40963510004804,328.40963510004804,328.40963510004804,328.4762010000413,331.40728190005757,,,,330.49087850004435,331.4234688000288,331.4234688000288,331.4234688000288,up,18.895147099974565,None,None,,,,,,,,,,,,,,,,,,,P131,001,2025-02-28_13h52.06.064,posner_endo_new1,2024.2.4,60.10399190698834,2025-02-28 13h52.14.298910 +0000,
cube_l.png,0.1,10,catch,1,1,0,up,2.649602899909951,None,None,,,,,,,0,1,1,1,,,,,331.4234688000288,,,,,,,,,,,,,331.4074464000296,331.4234688000288,331.4234688000288,331.4234688000288,334.0879807000747,,,,334.09392010001466,334.1055238000117,334.1055238000117,334.1538229000289,334.15404649998527,334.17036650003865,334.17036650003865,334.17036650003865,334.23693320003804,337.16794920002576,,,,336.2517902000109,337.18403110001236,337.18403110001236,337.18403110001236,up,2.649602899909951,None,None,,,,,,,,,,,,,,,,,,,P131,001,2025-02-28_13h52.06.064,posner_endo_new1,2024.2.4,60.10399190698834,2025-02-28 13h52.14.298910 +0000,
cube_l.png,0.1,0.31,invalid,2,2,0,up,3.0095756999216974,None,space,0.49996899999678135,None,,,,,0,2,2,2,,,,,337.18403110001236,,,,,,,,,,,,,337.168107500067,337.18403110001236,337.18403110001236,337.18403110001236,340.19814260001294,,,,340.2039382000221,340.2154971000273,340.2154971000273,340.26431050000247,340.2645327000646,340.2811292000115,340.2811292000115,340.2811292000115,340.34732679999433,340.79764200001955,,,,,,,,up,3.0095756999216974,None,space,0.49996899999678135,None,,,,,,,,,,,,,,,,,P131,001,2025-02-28_13h52.06.064,posner_endo_new1,2024.2.4,60.10399190698834,2025-02-28 13h52.14.298910 +0000,
cube_l.png,0.1,0.31,invalid,3,3,0,up,5.69152149988804,None,space,0.4677787000546232,None,,,,,0,3,3,3,,,,,340.8136099000694,,,,,,,,,,,,,340.79781740007456,340.8136099000694,340.8136099000694,340.8136099000694,346.50866980000865,,,,346.51525799999945,346.5268186000176,346.5268186000176,346.5745802000165,346.5748046999797,346.59106840007007,346.59106840007007,346.59106840007007,346.6739179000724,347.07430870004464,,,,,,,,up,5.69152149988804,None,space,0.4677787000546232,None,,,,,,,,,,,,,,,,,P131,001,2025-02-28_13h52.06.064,posner_endo_new1,2024.2.4,60.10399190698834,2025-02-28 13h52.14.298910 +0000,
cube_l.png,0.1,-0.31,valid,4,4,0,up,5.630999999935739,None,space,0.33662119996733963,None,,,,,0,4,4,4,,,,,347.0906264000805,,,,,,,,,,,,,347.07448379998095,347.0906264000805,347.0906264000805,347.0906264000805,352.73543930007145,,,,352.74127540003974,352.75277340004686,352.75277340004686,352.8015684999991,352.8017921000719,352.8179575999966,352.8179575999966,352.8179575999966,352.88469299999997,353.16841050004587,,,,,,,,up,5.630999999935739,None,space,0.33662119996733963,None,,,,,,,,,,,,,,,,,P131,001,2025-02-28_13h52.06.064,posner_endo_new1,2024.2.4,60.10399190698834,2025-02-28 13h52.14.298910 +0000,
cube_r.png,0.1,-0.31,invalid,5,5,0,up,5.825439700041898,None,space,0.4275824000360444,None,,,,,0,5,5,5,,,,,353.1842720999848,,,,,,,,,,,,,353.16858050005976,353.1842720999848,353.1842720999848,353.1842720999848,359.0125346999848,,,,359.0183704000665,359.0301188000012,359.0301188000012,359.07863020000514,359.0788618000224,359.09508050000295,359.09508050000295,359.09508050000295,359.1614579000743,359.5288967000088,,,,,,,,up,5.825439700041898,None,space,0.4275824000360444,None,,,,,,,,,,,,,,,,,P131,001,2025-02-28_13h52.06.064,posner_endo_new1,2024.2.4,60.10399190698834,2025-02-28 13h52.14.298910 +0000,
cube_r.png,0.1,0.31,valid,6,6,0,up,6.041117800050415,None,space,0.408837299910374,None,,,,,0,6,6,6,,,,,359.54473750002217,,,,,,,,,,,,,359.52907160006,359.54473750002217,359.54473750002217,359.54473750002217,365.58896990003996,,,,365.5947179000359,365.60642720002215,365.60642720002215,365.6552101999987,365.6554329000646,365.6716959000332,365.6716959000332,365.6716959000332,365.7380492000375,366.088503499981,,,,,,,,up,6.041117800050415,None,space,0.408837299910374,None,,,,,,,,,,,,,,,,,P131,001,2025-02-28_13h52.06.064,posner_endo_new1,2024.2.4,60.10399190698834,2025-02-28 13h52.14.298910 +0000,
cube_r.png,0.1,-0.31,invalid,7,7,0,up,6.505159500055015,None,space,0.4791361999232322,None,,,,,0,7,7,7,,,,,366.1044398000231,,,,,,,,,,,,,366.08867700002156,366.1044398000231,366.1044398000231,366.1044398000231,372.6152936000144,,,,372.6210828999756,372.63269390002824,372.63269390002824,372.681210400071,372.68143170000985,372.6976692000171,372.6976692000171,372.6976692000171,372.76418579998426,373.1811360999709,,,,,,,,up,6.505159500055015,None,space,0.4791361999232322,None,,,,,,,,,,,,,,,,,P131,001,2025-02-28_13h52.06.064,posner_endo_new1,2024.2.4,60.10399190698834,2025-02-28 13h52.14.298910 +0000,
cube_l.png,0.1,-0.31,valid,8,8,0,up,6.340014299959876,None,space,0.33968340000137687,None,,,,,0,8,8,8,,,,,373.19722850003745,,,,,,,,,,,,,373.1813116000267,373.19722850003745,373.19722850003745,373.19722850003745,379.54160720005166,,,,379.547373300069,379.5589761000592,379.5589761000592,379.6073940000497,379.6076151999878,379.6237113000825,379.6237113000825,379.6237113000825,379.70741200004704,379.97448400000576,,,,,,,,up,6.340014299959876,None,space,0.33968340000137687,None,,,,,,,,,,,,,,,,,P131,001,2025-02-28_13h52.06.064,posner_endo_new1,2024.2.4,60.10399190698834,2025-02-28 13h52.14.298910 +0000,
cube_r.png,0.1,-0.31,invalid,9,9,0,up,7.587701799930073,None,space,0.4048901000060141,None,,,,,0,9,9,9,,,,,379.98996490007266,,,,,,,,,,,,,379.9746625000844,379.98996490007266,379.98996490007266,379.98996490007266,387.5833022000734,,,,387.58915150002576,387.6007002000697,387.6007002000697,387.64911130000837,387.6493332000682,387.6656199999852,387.6656199999852,387.6656199999852,387.73261090007145,388.08268490002956,,,,,,,,up,7.587701799930073,None,space,0.4048901000060141,None,,,,,,,,,,,,,,,,,P131,001,2025-02-28_13h52.06.064,posner_endo_new1,2024.2.4,60.10399190698834,2025-02-28 13h52.14.298910 +0000,
cube_l.png,0.1,0.31,invalid,10,10,0,up,4.4229063000530005,None,space,0.44794649991672486,None,,,,,0,10,10,10,,,,,388.0986907000188,,,,,,,,,,,,,388.0828543000389,388.0986907000188,388.0986907000188,388.0986907000188,392.52828329999465,,,,392.534051500028,392.5455684000626,392.5455684000626,392.59424400003627,392.5944718000246,392.61078780004755,392.61078780004755,392.61078780004755,392.69413930003066,393.06127579999156,,,,,,,,up,4.4229063000530005,None,space,0.44794649991672486,None,,,,,,,,,,,,,,,,,P131,001,2025-02-28_13h52.06.064,posner_endo_new1,2024.2.4,60.10399190698834,2025-02-28 13h52.14.298910 +0000,
cube_r.png,0.1,-0.31,invalid,11,11,0,up,5.005010199965909,None,space,0.3585273999487981,None,,,,,0,11,11,11,,,,,393.0766925000353,,,,,,,,,,,,,393.0614462000085,393.0766925000353,393.0766925000353,393.0766925000353,398.0893172000069,,,,398.0951295000268,398.1067194000352,398.1067194000352,398.15523410006426,398.155456700013,398.17138610000256,398.17138610000256,398.17138610000256,398.2551274000434,398.53884609998204,,,,,,,,up,5.005010199965909,None,space,0.3585273999487981,None,,,,,,,,,,,,,,,,,P131,001,2025-02-28_13h52.06.064,posner_endo_new1,2024.2.4,60.10399190698834,2025-02-28 13h52.14.298910 +0000,
cube_r.png,0.1,0.31,valid,12,12,0,up,4.85514829994645,None,space,0.3427053999621421,None,,,,,0,12,12,12,,,,,398.5547664000187,,,,,,,,,,,,,398.5390208000317,398.5547664000187,398.5547664000187,398.5547664000187,403.4170933000278,,,,403.42286970000714,403.4346954000648,403.4346954000648,403.48295259999577,403.48317520006094,403.4995891000144,403.4995891000144,403.4995891000144,403.5659926000517,403.85013210005127,,,,,,,,up,4.85514829994645,None,space,0.3427053999621421,None,,,,,,,,,,,,,,,,,P131,001,2025-02-28_13h52.06.064,posner_endo_new1,2024.2.4,60.10399190698834,2025-02-28 13h52.14.298910 +0000,
cube_l.png,0.1,10,catch,13,13,0,up,5.551265400019474,None,None,,,,,,,0,13,13,13,,,,,403.86596279998776,,,,,,,,,,,,,403.85030140005983,403.86596279998776,403.86596279998776,403.86596279998776,409.4275396000594,,,,409.43333929998334,409.445172799984,409.445172799984,409.4934115000069,409.49363450007513,409.5097692999989,409.5097692999989,409.5097692999989,409.5765853000339,412.5071887000231,,,,411.5912118999986,412.5239161000354,412.5239161000354,412.5239161000354,up,5.551265400019474,None,None,,,,,,,,,,,,,,,,,,,P131,001,2025-02-28_13h52.06.064,posner_endo_new1,2024.2.4,60.10399190698834,2025-02-28 13h52.14.298910 +0000,
cube_r.png,0.1,-0.31,invalid,14,14,0,up,2.349964200053364,None,space,0.3793396999826655,None,,,,,0,14,14,14,,,,,412.5239161000354,,,,,,,,,,,,,412.50734670006204,412.5239161000354,412.5239161000354,412.5239161000354,414.8886484000832,,,,414.8945737000322,414.9061400999781,414.9061400999781,414.95470600004774,414.954928799998,414.9712123000063,414.9712123000063,414.9712123000063,415.03785259998403,415.35436490003485,,,,,,,,up,2.349964200053364,None,space,0.3793396999826655,None,,,,,,,,,,,,,,,,,P131,001,2025-02-28_13h52.06.064,posner_endo_new1,2024.2.4,60.10399190698834,2025-02-28 13h52.14.298910 +0000,
cube_l.png,0.1,-0.31,valid,15,15,0,up,9.583209199947305,None,space,0.4021320999599993,None,,,,,0,15,15,15,,,,,415.3704356000526,,,,,,,,,,,,,415.35454309999477,415.3704356000526,415.3704356000526,415.3704356000526,424.9617660000222,,,,424.96762990008574,424.9792429000372,424.9792429000372,425.0272987000644,425.0275199000025,425.04438049998134,425.04438049998134,425.04438049998134,425.12757340003736,425.4613978000125,,,,,,,,up,9.583209199947305,None,space,0.4021320999599993,None,,,,,,,,,,,,,,,,,P131,001,2025-02-28_13h52.06.064,posner_endo_new1,2024.2.4,60.10399190698834,2025-02-28 13h52.14.298910 +0000,
cube_r.png,0.1,10,catch,16,16,0,up,5.388049399945885,None,None,,,,,,,0,16,16,16,,,,,425.4769853000762,,,,,,,,,,,,,425.46156840003096,425.4769853000762,425.4769853000762,425.4769853000762,430.8719592000125,,,,430.87784720002674,430.8895093000028,430.8895093000028,430.93822850007564,430.9384513000259,430.9548187999753,430.9548187999753,430.9548187999753,431.021494399989,433.95221080002375,,,,433.0360690000234,433.9684268999845,433.9684268999845,433.9684268999845,up,5.388049399945885,None,None,,,,,,,,,,,,,,,,,,,P131,001,2025-02-28_13h52.06.064,posner_endo_new1,2024.2.4,60.10399190698834,2025-02-28 13h52.14.298910 +0000,
cube_r.png,0.1,10,catch,17,17,0,up,3.5771910999901593,None,None,,,,,,,0,17,17,17,,,,,433.9684268999845,,,,,,,,,,,,,433.9523731999798,433.9684268999845,433.9684268999845,433.9684268999845,437.54895399999805,,,,437.5547459999798,437.5663724000333,437.5663724000333,437.6146588000702,437.61488060001284,437.6313970000483,437.6313970000483,437.6313970000483,437.6979965000646,440.62875480006915,,,,439.7126428000629,440.6447874000296,440.6447874000296,440.6447874000296,up,3.5771910999901593,None,None,,,,,,,,,,,,,,,,,,,P131,001,2025-02-28_13h52.06.064,posner_endo_new1,2024.2.4,60.10399190698834,2025-02-28 13h52.14.298910 +0000,
cube_l.png,0.1,0.31,invalid,18,18,0,up,4.214180999901146,None,space,0.4311984000960365,None,,,,,0,18,18,18,,,,,440.6447874000296,,,,,,,,,,,,,440.6289187000366,440.6447874000296,440.6447874000296,440.6447874000296,444.87433450005483,,,,444.880152800004,444.8916374000255,444.8916374000255,444.9407176000532,444.94094040000346,444.95739720005076,444.95739720005076,444.95739720005076,445.02379110001493,445.3910146000562,,,,,,,,up,4.214180999901146,None,space,0.4311984000960365,None,,,,,,,,,,,,,,,,,P131,001,2025-02-28_13h52.06.064,posner_endo_new1,2024.2.4,60.10399190698834,2025-02-28 13h52.14.298910 +0000,
cube_l.png,0.1,10,catch,19,19,0,up,6.363271999987774,None,None,,,,,,,0,19,19,19,,,,,445.4063476000447,,,,,,,,,,,,,445.3911847000709,445.4063476000447,445.4063476000447,445.4063476000447,451.7840680000372,,,,451.78991819999646,451.8012545000529,451.8012545000529,451.8342317000497,451.8344462000532,451.85030729998834,451.85030729998834,451.85030729998834,451.93350949999876,454.84768300002906,,,,453.94751279999036,454.86376259999815,454.86376259999815,454.86376259999815,up,6.363271999987774,None,None,,,451.85030729998834,451.85030729998834,,,,,,,,,,,,,,,P131,001,2025-02-28_13h52.06.064,posner_endo_new1,2024.2.4,60.10399190698834,2025-02-28 13h52.14.298910 +0000,
cube_l.png,0.1,0.31,invalid,20,20,0,up,4.498042099992745,None,space,0.4038503000047058,None,,,,,0,20,20,20,,,,,454.86376259999815,,,,,,,,,,,,,454.84785820008256,454.86376259999815,454.86376259999815,454.86376259999815,459.3765853000805,,,,459.38251919997856,459.39409289998,459.39409289998,459.4424135000445,459.44263459998183,459.45886730006896,459.45886730006896,459.45886730006896,459.5255837000441,459.87616149999667,,,,,,,,up,4.498042099992745,None,space,0.4038503000047058,None,,,,,,,,,,,,,,,,,P131,001,2025-02-28_13h52.06.064,posner_endo_new1,2024.2.4,60.10399190698834,2025-02-28 13h52.14.298910 +0000,
cube_l.png,0.1,-0.31,valid,21,21,0,up,6.117238500039093,None,space,0.37603839999064803,None,,,,,0,21,21,21,,,,,459.8921364999842,,,,,,,,,,,,,459.8763314000098,459.8921364999842,459.8921364999842,459.8921364999842,466.0194065000396,,,,466.02523060003296,466.03698400000576,466.03698400000576,466.08592860004865,466.0861603000667,466.102244000067,466.102244000067,466.102244000067,466.1689216999803,466.4860947000561,,,,,,,,up,6.117238500039093,None,space,0.37603839999064803,None,,,,,,,,,,,,,,,,,P131,001,2025-02-28_13h52.06.064,posner_endo_new1,2024.2.4,60.10399190698834,2025-02-28 13h52.14.298910 +0000,
cube_r.png,0.1,0.31,valid,22,22,0,up,5.795585899963044,None,space,0.3767327000387013,None,,,,,0,22,22,22,,,,,466.5019197000656,,,,,,,,,,,,,466.48626650008373,466.5019197000656,466.5019197000656,466.5019197000656,472.31365490006283,,,,472.3195056000259,472.3313094000332,472.3313094000332,472.37953410006594,472.3797642000718,472.3958815999795,472.3958815999795,472.3958815999795,472.4790434000315,472.77949470002204,,,,,,,,up,5.795585899963044,None,space,0.3767327000387013,None,,,,,,,,,,,,,,,,,P131,001,2025-02-28_13h52.06.064,posner_endo_new1,2024.2.4,60.10399190698834,2025-02-28 13h52.14.298910 +0000,
cube_r.png,0.1,-0.31,invalid,23,23,0,up,4.957856800057925,None,space,0.3963163000298664,None,,,,,0,23,23,23,,,,,472.7953901999863,,,,,,,,,,,,,472.77966930007096,472.7953901999863,472.7953901999863,472.7953901999863,477.75785380008165,,,,477.76367180002853,477.7753021999961,477.7753021999961,477.8238722999813,477.82409830007236,477.8402218000265,477.8402218000265,477.8402218000265,477.90648350003175,478.2407855000347,,,,,,,,up,4.957856800057925,None,space,0.3963163000298664,None,,,,,,,,,,,,,,,,,P131,001,2025-02-28_13h52.06.064,posner_endo_new1,2024.2.4,60.10399190698834,2025-02-28 13h52.14.298910 +0000,
cube_r.png,0.1,0.31,valid,24,24,0,up,6.624863300006837,None,space,0.34700660000089556,None,,,,,0,24,24,24,,,,,478.2566994000226,,,,,,,,,,,,,478.24095920007676,478.2566994000226,478.2566994000226,478.2566994000226,484.88398080004845,,,,484.88984349998645,484.90157420001924,484.90157420001924,484.9494783000555,484.9497020000126,484.9662265999941,484.9662265999941,484.9662265999941,485.0496625000378,485.31691250007134,,,,,,,,up,6.624863300006837,None,space,0.34700660000089556,None,,,,,,,,,,,,,,,,,P131,001,2025-02-28_13h52.06.064,posner_endo_new1,2024.2.4,60.10399190698834,2025-02-28 13h52.14.298910 +0000,
cube_r.png,0.1,-0.31,invalid,25,25,0,up,6.6372704999521375,None,space,0.47606250003445894,None,,,,,0,25,25,25,,,,,485.33272970002145,,,,,,,,,,,,,485.3170829999726,485.33272970002145,485.33272970002145,485.33272970002145,491.97687520005275,,,,491.9826856000582,491.99451700004283,491.99451700004283,492.042438799981,492.04266260005534,492.05928460008,492.05928460008,492.05928460008,492.14236050006,492.54282500001136,,,,,,,,up,6.6372704999521375,None,space,0.47606250003445894,None,,,,,,,,,,,,,,,,,P131,001,2025-02-28_13h52.06.064,posner_endo_new1,2024.2.4,60.10399190698834,2025-02-28 13h52.14.298910 +0000,
cube_l.png,0.1,-0.31,valid,26,26,0,up,5.395461099920794,None,space,0.3378717000596225,None,,,,,0,26,26,26,,,,,492.55842650006525,,,,,,,,,,,,,492.5429941000184,492.55842650006525,492.55842650006525,492.55842650006525,497.9706157000037,,,,497.97640430007596,497.9878647000296,497.9878647000296,498.0363267000066,498.036546700052,498.05312370008323,498.05312370008323,498.05312370008323,498.11969179997686,498.403482099995,,,,,,,,up,5.395461099920794,None,space,0.3378717000596225,None,,,,,,,,,,,,,,,,,P131,001,2025-02-28_13h52.06.064,posner_endo_new1,2024.2.4,60.10399190698834,2025-02-28 13h52.14.298910 +0000,
cube_r.png,0.1,0.31,valid,27,27,0,up,4.286972300033085,None,space,0.38791280006989837,None,,,,,0,27,27,27,,,,,498.41912750003394,,,,,,,,,,,,,498.4036505999975,498.41912750003394,498.41912750003394,498.41912750003394,502.71586200001184,,,,502.72163669997826,502.7332117999904,502.7332117999904,502.78166750003584,502.78188640007284,502.7981526000658,502.7981526000658,502.7981526000658,502.8648475999944,503.19826239999384,,,,,,,,up,4.286972300033085,None,space,0.38791280006989837,None,,,,,,,,,,,,,,,,,P131,001,2025-02-28_13h52.06.064,posner_endo_new1,2024.2.4,60.10399190698834,2025-02-28 13h52.14.298910 +0000,
cube_r.png,0.1,10,catch,28,28,0,up,5.411753699998371,None,None,,,,,,,0,28,28,28,,,,,503.21415150002576,,,,,,,,,,,,,503.19842949998565,503.21415150002576,503.21415150002576,503.21415150002576,508.6266266000457,,,,508.63250780000817,508.6443829999771,508.6443829999771,508.69217170006596,508.69239710003603,508.7089735000627,508.7089735000627,508.7089735000627,508.79214949999005,511.70626510004513,,,,510.80659679998644,511.7221463000169,511.7221463000169,511.7221463000169,up,5.411753699998371,None,None,,,,,,,,,,,,,,,,,,,P131,001,2025-02-28_13h52.06.064,posner_endo_new1,2024.2.4,60.10399190698834,2025-02-28 13h52.14.298910 +0000,
cube_r.png,0.1,0.31,valid,29,29,0,up,2.855174799915403,None,space,0.3915481000440195,None,,,,,0,29,29,29,,,,,511.7221463000169,,,,,,,,,,,,,511.7064281000057,511.7221463000169,511.7221463000169,511.7221463000169,514.5863317999756,,,,514.5921618000139,514.6039762999862,514.6039762999862,514.6530267000198,514.653249300085,514.6693078000098,514.6693078000098,514.6693078000098,514.7360038000625,515.0692304000258,,,,,,,,up,2.855174799915403,None,space,0.3915481000440195,None,,,,,,,,,,,,,,,,,P131,001,2025-02-28_13h52.06.064,posner_endo_new1,2024.2.4,60.10399190698834,2025-02-28 13h52.14.298910 +0000,
cube_r.png,0.1,0.31,valid,30,30,0,up,8.96403129992541,None,space,0.42972279991954565,None,,,,,0,30,30,30,,,,,515.0855451000389,,,,,,,,,,,,,515.0693992000306,515.0855451000389,515.0855451000389,515.0855451000389,524.0606324999826,,,,524.0664529000642,524.0783386999974,524.0783386999974,524.1263392000692,524.1265595000004,524.1429533000337,524.1429533000337,524.1429533000337,524.2263148999773,524.576961099985,,,,,,,,up,8.96403129992541,None,space,0.42972279991954565,None,,,,,,,,,,,,,,,,,P131,001,2025-02-28_13h52.06.064,posner_endo_new1,2024.2.4,60.10399190698834,2025-02-28 13h52.14.298910 +0000,
cube_l.png,0.1,-0.31,valid,31,31,0,up,5.505114199942909,None,space,0.38163070008158684,None,,,,,0,31,31,31,,,,,524.592423300026,,,,,,,,,,,,,524.5771303999936,524.592423300026,524.592423300026,524.592423300026,530.1043365000514,,,,530.1101090000011,530.1215566999745,530.1215566999745,530.1701493000146,530.1703741999809,530.1867451000726,530.1867451000726,530.1867451000726,530.2536100000143,530.5707061000867,,,,,,,,up,5.505114199942909,None,space,0.38163070008158684,None,,,,,,,,,,,,,,,,,P131,001,2025-02-28_13h52.06.064,posner_endo_new1,2024.2.4,60.10399190698834,2025-02-28 13h52.14.298910 +0000,
cube_r.png,0.1,0.31,valid,32,32,0,up,6.286665100022219,None,space,0.3696881999494508,None,,,,,0,32,32,32,,,,,530.5865531000309,,,,,,,,,,,,,530.5708746999735,530.5865531000309,530.5865531000309,530.5865531000309,536.8809029000113,,,,536.8866917000851,536.8983362000436,536.8983362000436,536.9464813000523,536.9467065000208,536.9634128999896,536.9634128999896,536.9634128999896,537.0297368000029,537.347015800071,,,,,,,,up,6.286665100022219,None,space,0.3696881999494508,None,,,,,,,,,,,,,,,,,P131,001,2025-02-28_13h52.06.064,posner_endo_new1,2024.2.4,60.10399190698834,2025-02-28 13h52.14.298910 +0000,
cube_r.png,0.1,-0.31,invalid,33,33,0,up,6.711030300008133,None,space,0.3934233000036329,None,,,,,0,33,33,33,,,,,537.362907600007,,,,,,,,,,,,,537.3471839000704,537.362907600007,537.362907600007,537.362907600007,544.0900825000135,,,,544.0959611000726,544.1078642000211,544.1078642000211,544.1559202000499,544.1561509000603,544.172633600072,544.172633600072,544.172633600072,544.2557072000345,544.5729552999837,,,,,,,,up,6.711030300008133,None,space,0.3934233000036329,None,,,,,,,,,,,,,,,,,P131,001,2025-02-28_13h52.06.064,posner_endo_new1,2024.2.4,60.10399190698834,2025-02-28 13h52.14.298910 +0000,
cube_r.png,0.1,10,catch,34,34,0,up,6.038048999966122,None,None,,,,,,,0,34,34,34,,,,,544.5888655000599,,,,,,,,,,,,,544.5731385999825,544.5888655000599,544.5888655000599,544.5888655000599,550.6334585000295,,,,550.6392665000167,550.6508639000822,550.6508639000822,550.6994086999912,550.6996296000434,550.7157808999764,550.7157808999764,550.7157808999764,550.7992609000066,553.713341100025,,,,552.8138143999968,553.7294189999811,553.7294189999811,553.7294189999811,up,6.038048999966122,None,None,,,,,,,,,,,,,,,,,,,P131,001,2025-02-28_13h52.06.064,posner_endo_new1,2024.2.4,60.10399190698834,2025-02-28 13h52.14.298910 +0000,
cube_r.png,0.1,0.31,valid,35,35,0,up,3.544305599993095,None,space,0.31751429999712855,None,,,,,0,35,35,35,,,,,553.7294189999811,,,,,,,,,,,,,553.7134984000586,553.7294189999811,553.7294189999811,553.7294189999811,557.2765861999942,,,,557.2823707000352,557.2940986000467,557.2940986000467,557.3421080000699,557.3423287000041,557.3592791000847,557.3592791000847,557.3592791000847,557.4258050000062,557.6927886999911,,,,,,,,up,3.544305599993095,None,space,0.31751429999712855,None,,,,,,,,,,,,,,,,,P131,001,2025-02-28_13h52.06.064,posner_endo_new1,2024.2.4,60.10399190698834,2025-02-28 13h52.14.298910 +0000,
cube_r.png,0.1,-0.31,invalid,36,36,0,up,5.165301200002432,None,space,0.34893810003995895,None,,,,,0,36,36,36,,,,,557.7086458000122,,,,,,,,,,,,,557.6929561999859,557.7086458000122,557.7086458000122,557.7086458000122,562.887490299996,,,,562.8932778000599,562.904889700003,562.904889700003,562.9535504999803,562.9537725000409,562.970158000011,562.970158000011,562.970158000011,563.0365118000191,563.3206435000757,,,,,,,,up,5.165301200002432,None,space,0.34893810003995895,None,,,,,,,,,,,,,,,,,P131,001,2025-02-28_13h52.06.064,posner_endo_new1,2024.2.4,60.10399190698834,2025-02-28 13h52.14.298910 +0000,
cube_l.png,0.1,0.31,invalid,37,37,0,up,6.569176499964669,None,space,0.424170000012964,None,,,,,0,37,37,37,,,,,563.3361980000045,,,,,,,,,,,,,563.3208133999724,563.3361980000045,563.3361980000045,563.3361980000045,569.9136800999986,,,,569.9194219000638,569.9311346000759,569.9311346000759,569.9797132000094,569.9799329000525,569.9960952000692,569.9960952000692,569.9960952000692,570.0792538999813,570.4298195000738,,,,,,,,up,6.569176499964669,None,space,0.424170000012964,None,,,,,,,,,,,,,,,,,P131,001,2025-02-28_13h52.06.064,posner_endo_new1,2024.2.4,60.10399190698834,2025-02-28 13h52.14.298910 +0000,
cube_l.png,0.1,0.31,invalid,38,38,0,up,5.220214800094254,None,space,0.4380375000182539,None,,,,,0,38,38,38,,,,,570.4455393999815,,,,,,,,,,,,,570.4299957000185,570.4455393999815,570.4455393999815,570.4455393999815,575.6743952999823,,,,575.6801607999951,575.6918132000137,575.6918132000137,575.7402317000087,575.7404604000039,575.7568651000038,575.7568651000038,575.7568651000038,575.8402448000852,576.206767900032,,,,,,,,up,5.220214800094254,None,space,0.4380375000182539,None,,,,,,,,,,,,,,,,,P131,001,2025-02-28_13h52.06.064,posner_endo_new1,2024.2.4,60.10399190698834,2025-02-28 13h52.14.298910 +0000,
cube_r.png,0.1,0.31,valid,39,39,0,up,5.0670163000468165,None,space,0.35787549999076873,None,,,,,0,39,39,39,,,,,576.2231966999825,,,,,,,,,,,,,576.2069362000329,576.2231966999825,576.2231966999825,576.2231966999825,581.3019875000464,,,,581.3077211000491,581.3192938000429,581.3192938000429,581.368083700072,581.3683086000383,581.3846528000431,581.3846528000431,581.3846528000431,581.4674336999888,581.7516903000651,,,,,,,,up,5.0670163000468165,None,space,0.35787549999076873,None,,,,,,,,,,,,,,,,,P131,001,2025-02-28_13h52.06.064,posner_endo_new1,2024.2.4,60.10399190698834,2025-02-28 13h52.14.298910 +0000,
cube_l.png,0.1,0.31,invalid,40,40,0,up,4.162084999959916,None,space,0.39255089999642223,None,,,,,0,40,40,40,,,,,581.7676467000274,,,,,,,,,,,,,581.7518590000691,581.7676467000274,581.7676467000274,581.7676467000274,585.9306736000581,,,,585.9364150000038,585.9479844999732,585.9479844999732,585.996211700025,585.9964321000734,586.0132044000784,586.0132044000784,586.0132044000784,586.079957799986,586.4132758000633,,,,,,,,up,4.162084999959916,None,space,0.39255089999642223,None,,,,,,,,,,,,,,,,,P131,001,2025-02-28_13h52.06.064,posner_endo_new1,2024.2.4,60.10399190698834,2025-02-28 13h52.14.298910 +0000,
cube_l.png,0.1,10,catch,41,41,0,up,5.2519928000401706,None,space,0.2361131999641657,None,,,,,0,41,41,41,,,,,586.4293505999958,,,,,,,,,,,,,586.4134451000718,586.4293505999958,586.4293505999958,586.4293505999958,591.6912593999878,,,,591.6970150000416,591.708687699982,591.708687699982,591.7575159000698,591.7577361000003,591.7735341000371,591.7735341000371,591.7735341000371,591.8405622000573,592.0245313000632,,,,,,,,up,5.2519928000401706,None,space,0.2361131999641657,None,,,,,,,,,,,,,,,,,P131,001,2025-02-28_13h52.06.064,posner_endo_new1,2024.2.4,60.10399190698834,2025-02-28 13h52.14.298910 +0000,
cube_l.png,0.1,-0.31,valid,42,42,0,up,6.6098468999844044,None,space,0.4054362999740988,None,,,,,0,42,42,42,,,,,592.0402684999863,,,,,,,,,,,,,592.0246990000596,592.0402684999863,592.0402684999863,592.0402684999863,598.6511309000198,,,,598.6568724000826,598.6685667000711,598.6685667000711,598.7169803000288,598.7172041999875,598.7330733999843,598.7330733999843,598.7330733999843,598.7998613000382,599.1504774000496,,,,,,,,up,6.6098468999844044,None,space,0.4054362999740988,None,,,,,,,,,,,,,,,,,P131,001,2025-02-28_13h52.06.064,posner_endo_new1,2024.2.4,60.10399190698834,2025-02-28 13h52.14.298910 +0000,
cube_l.png,0.1,10,catch,43,43,0,up,8.427100299973972,None,None,,,,,,,0,43,43,43,,,,,599.166343400022,,,,,,,,,,,,,599.1506493000779,599.166343400022,599.166343400022,599.166343400022,607.6082250999752,,,,607.6140069999965,607.6255129000638,607.6255129000638,607.6742831000593,607.6745065000141,607.6910146999871,607.6910146999871,607.6910146999871,607.7742232000455,610.6885434000287,,,,609.7890378000448,610.7046478000702,610.7046478000702,610.7046478000702,up,8.427100299973972,None,None,,,,,,,,,,,,,,,,,,,P131,001,2025-02-28_13h52.06.064,posner_endo_new1,2024.2.4,60.10399190698834,2025-02-28 13h52.14.298910 +0000,
cube_l.png,0.1,0.31,invalid,44,44,0,up,2.4575402000918984,None,space,0.4796036999905482,None,,,,,0,44,44,44,,,,,610.7046478000702,,,,,,,,,,,,,610.6886998000555,610.7046478000702,610.7046478000702,610.7046478000702,613.1689330000663,,,,613.1746768000303,613.1861388999969,613.1861388999969,613.2189945999999,613.2192075999919,613.2355249000248,613.2355249000248,613.2355249000248,613.3185876000207,613.7188486000523,,,,,,,,up,2.4575402000918984,None,space,0.4796036999905482,None,613.2355249000248,613.2355249000248,,,,,,,,,,,,,,,P131,001,2025-02-28_13h52.06.064,posner_endo_new1,2024.2.4,60.10399190698834,2025-02-28 13h52.14.298910 +0000,
cube_l.png,0.1,0.31,invalid,45,45,0,up,6.787574899964966,None,space,0.46514909993857145,None,,,,,0,45,45,45,,,,,613.7344703000272,,,,,,,,,,,,,613.719023099984,613.7344703000272,613.7344703000272,613.7344703000272,620.528638000018,,,,620.5345858000219,620.5462584000779,620.5462584000779,620.5947472000262,620.5949692000868,620.6111856000498,620.6111856000498,620.6111856000498,620.6944530999754,621.0781429000199,,,,,,,,up,6.787574899964966,None,space,0.46514909993857145,None,,,,,,,,,,,,,,,,,P131,001,2025-02-28_13h52.06.064,posner_endo_new1,2024.2.4,60.10399190698834,2025-02-28 13h52.14.298910 +0000,
cube_r.png,0.1,0.31,valid,46,46,0,up,4.979954899987206,None,space,0.567540799966082,None,,,,,0,46,46,46,,,,,621.0941087000538,,,,,,,,,,,,,621.0783132000361,621.0941087000538,621.0941087000538,621.0941087000538,626.0897820000537,,,,626.0955775000621,626.1073740000138,626.1073740000138,626.1555596999824,626.1557803000323,626.1722027000505,626.1722027000505,626.1722027000505,626.2553184999852,626.7558166000526,,,,,,,,up,4.979954899987206,None,space,0.567540799966082,None,,,,,,,,,,,,,,,,,P131,001,2025-02-28_13h52.06.064,posner_endo_new1,2024.2.4,60.10399190698834,2025-02-28 13h52.14.298910 +0000,
cube_l.png,0.1,-0.31,valid,47,47,0,up,3.999046199955046,None,space,0.390922800055705,None,,,,,0,47,47,47,,,,,626.7712441000622,,,,,,,,,,,,,626.7559859000612,626.7712441000622,626.7712441000622,626.7712441000622,630.7849285000702,,,,630.7906837000046,630.8022580000106,630.8022580000106,630.8509132000618,630.8511329999892,630.8674762999872,630.8674762999872,630.8674762999872,630.9334473999916,631.2671422000276,,,,,,,,up,3.999046199955046,None,space,0.390922800055705,None,,,,,,,,,,,,,,,,,P131,001,2025-02-28_13h52.06.064,posner_endo_new1,2024.2.4,60.10399190698834,2025-02-28 13h52.14.298910 +0000,
cube_r.png,0.1,-0.31,invalid,48,48,0,up,4.318093899986707,None,space,0.3702183999121189,None,,,,,0,48,48,48,,,,,631.283731100033,,,,,,,,,,,,,631.2673096000217,631.283731100033,631.283731100033,631.283731100033,635.6130161000183,,,,635.6187758999877,635.6302695000777,635.6302695000777,635.6790730999783,635.6792928000214,635.6958397000562,635.6958397000562,635.6958397000562,635.7624745999929,636.079322500038,,,,,,,,up,4.318093899986707,None,space,0.3702183999121189,None,,,,,,,,,,,,,,,,,P131,001,2025-02-28_13h52.06.064,posner_endo_new1,2024.2.4,60.10399190698834,2025-02-28 13h52.14.298910 +0000,
cube_r.png,0.1,10,catch,49,49,0,up,3.6751925999997184,None,None,,,,,,,0,49,49,49,,,,,636.0950819000136,,,,,,,,,,,,,636.079487400013,636.0950819000136,636.0950819000136,636.0950819000136,639.7757609999971,,,,639.7815819000825,639.7932859000284,639.7932859000284,639.8415939999977,639.8418152000522,639.8582414999837,639.8582414999837,639.8582414999837,639.9247125000693,642.8555713000242,,,,641.939399600029,642.8719247999834,642.8719247999834,642.8719247999834,up,3.6751925999997184,None,None,,,,,,,,,,,,,,,,,,,P131,001,2025-02-28_13h52.06.064,posner_endo_new1,2024.2.4,60.10399190698834,2025-02-28 13h52.14.298910 +0000,
cube_l.png,0.1,-0.31,valid,50,50,0,up,2.3459693000186235,None,space,0.3968921999912709,None,,,,,0,50,50,50,,,,,642.8719247999834,,,,,,,,,,,,,642.8557283000555,642.8719247999834,642.8719247999834,642.8719247999834,645.2200926999794,,,,645.2258869999787,645.2374750999734,645.2374750999734,645.2860804999946,645.2863014000468,645.3025063000387,645.3025063000387,645.3025063000387,645.3694954999955,645.7029398999875,,,,,,,,up,2.3459693000186235,None,space,0.3968921999912709,None,,,,,,,,,,,,,,,,,P131,001,2025-02-28_13h52.06.064,posner_endo_new1,2024.2.4,60.10399190698834,2025-02-28 13h52.14.298910 +0000,
cube_l.png,0.1,-0.31,valid,51,51,0,up,4.891588400001638,None,space,0.37608700001146644,None,,,,,0,51,51,51,,,,,645.7188015000429,,,,,,,,,,,,,645.7031089999946,645.7188015000429,645.7188015000429,645.7188015000429,650.6147063000826,,,,650.620543200057,650.6321194000775,650.6321194000775,650.6804654999869,650.6806865000399,650.6967683000257,650.6967683000257,650.6967683000257,650.7803384000435,651.0805542999879,,,,,,,,up,4.891588400001638,None,space,0.37608700001146644,None,,,,,,,,,,,,,,,,,P131,001,2025-02-28_13h52.06.064,posner_endo_new1,2024.2.4,60.10399190698834,2025-02-28 13h52.14.298910 +0000,
cube_r.png,0.1,-0.31,invalid,52,52,0,up,4.889217899995856,None,space,0.37860890000592917,None,,,,,0,52,52,52,,,,,651.0966443000361,,,,,,,,,,,,,651.080728800036,651.0966443000361,651.0966443000361,651.0966443000361,655.9925764000509,,,,655.9983357000165,656.0099622000707,656.0099622000707,656.0583607000299,656.0585818000836,656.0747649000259,656.0747649000259,656.0747649000259,656.1415106999921,656.4586936000269,,,,,,,,up,4.889217899995856,None,space,0.37860890000592917,None,,,,,,,,,,,,,,,,,P131,001,2025-02-28_13h52.06.064,posner_endo_new1,2024.2.4,60.10399190698834,2025-02-28 13h52.14.298910 +0000,
cube_l.png,0.1,-0.31,valid,53,53,0,up,4.927143299952149,None,space,0.4072595000034198,None,,,,,0,53,53,53,,,,,656.4743093000725,,,,,,,,,,,,,656.4588609000202,656.4743093000725,656.4743093000725,656.4743093000725,661.4036098000361,,,,661.4095590000506,661.4212705000537,661.4212705000537,661.4694421000313,661.4696656999877,661.4860266000032,661.4860266000032,661.4860266000032,661.5525943000102,661.9031392000616,,,,,,,,up,4.927143299952149,None,space,0.4072595000034198,None,,,,,,,,,,,,,,,,,P131,001,2025-02-28_13h52.06.064,posner_endo_new1,2024.2.4,60.10399190698834,2025-02-28 13h52.14.298910 +0000,
cube_r.png,0.1,10,catch,54,54,0,up,6.562809400027618,None,None,,,,,,,0,54,54,54,,,,,661.9189059999771,,,,,,,,,,,,,661.9033064000541,661.9189059999771,661.9189059999771,661.9189059999771,668.4958593000192,,,,668.5016996000195,668.5132753000362,668.5132753000362,668.5620836999733,668.5623038000194,668.5788580999942,668.5788580999942,668.5788580999942,668.644976300071,671.5761811999837,,,,670.6597346999915,671.5923404999776,671.5923404999776,671.5923404999776,up,6.562809400027618,None,None,,,,,,,,,,,,,,,,,,,P131,001,2025-02-28_13h52.06.064,posner_endo_new1,2024.2.4,60.10399190698834,2025-02-28 13h52.14.298910 +0000,
cube_l.png,0.1,0.31,invalid,55,55,0,up,3.3620018999790773,None,space,0.3944975999183953,None,,,,,0,55,55,55,,,,,671.5923404999776,,,,,,,,,,,,,671.5763453000691,671.5923404999776,671.5923404999776,671.5923404999776,674.9564211000688,,,,674.9622635000851,674.9738242999883,674.9738242999883,675.0224009000231,675.0226252999855,675.038962700055,675.038962700055,675.038962700055,675.1053299000487,675.4391030999832,,,,,,,,up,3.3620018999790773,None,space,0.3944975999183953,None,,,,,,,,,,,,,,,,,P131,001,2025-02-28_13h52.06.064,posner_endo_new1,2024.2.4,60.10399190698834,2025-02-28 13h52.14.298910 +0000,
cube_l.png,0.1,-0.31,valid,56,56,0,up,6.418866100022569,None,space,0.45588560006581247,None,,,,,0,56,56,56,,,,,675.4551486000419,,,,,,,,,,,,,675.4392707999796,675.4551486000419,675.4551486000419,675.4551486000419,681.882648400031,,,,681.888627700042,681.900221100077,681.900221100077,681.9485856000101,681.9488057000563,681.9648956999881,681.9648956999881,681.9648956999881,682.0314847000409,682.4317581000505,,,,,,,,up,6.418866100022569,None,space,0.45588560006581247,None,,,,,,,,,,,,,,,,,P131,001,2025-02-28_13h52.06.064,posner_endo_new1,2024.2.4,60.10399190698834,2025-02-28 13h52.14.298910 +0000,
cube_r.png,0.1,0.31,valid,57,57,0,up,5.090498500037938,None,space,0.47220479999668896,None,,,,,0,57,57,57,,,,,682.4478059000103,,,,,,,,,,,,,682.4319261000492,682.4478059000103,682.4478059000103,682.4478059000103,687.543569899979,,,,687.5493018000852,687.561071400065,687.561071400065,687.6094466000795,687.6096698000329,687.6260236999951,687.6260236999951,687.6260236999951,687.692534700036,688.1095443000086,,,,,,,,up,5.090498500037938,None,space,0.47220479999668896,None,,,,,,,,,,,,,,,,,P131,001,2025-02-28_13h52.06.064,posner_endo_new1,2024.2.4,60.10399190698834,2025-02-28 13h52.14.298910 +0000,
cube_r.png,0.1,-0.31,invalid,58,58,0,up,5.6765731000341475,None,space,0.40507989993784577,None,,,,,0,58,58,58,,,,,688.1249744000379,,,,,,,,,,,,,688.1097109999973,688.1249744000379,688.1249744000379,688.1249744000379,693.8034744000761,,,,693.8092397999717,693.8207360000815,693.8207360000815,693.8698206000263,693.8700401000679,693.8860873000231,693.8860873000231,693.8860873000231,693.9525130999973,694.3033052000683,,,,,,,,up,5.6765731000341475,None,space,0.40507989993784577,None,,,,,,,,,,,,,,,,,P131,001,2025-02-28_13h52.06.064,posner_endo_new1,2024.2.4,60.10399190698834,2025-02-28 13h52.14.298910 +0000,
cube_l.png,0.1,0.31,invalid,59,59,0,up,5.083146600052714,None,space,0.36677940003573895,None,,,,,0,59,59,59,,,,,694.3191784999799,,,,,,,,,,,,,694.3034888000693,694.3191784999799,694.3191784999799,694.3191784999799,699.4148342000553,,,,699.4206585000502,699.4321033000015,699.4321033000015,699.4804746999871,699.4807015000843,699.497123899986,699.497123899986,699.497123899986,699.5803348000627,699.880760399974,,,,,,,,up,5.083146600052714,None,space,0.36677940003573895,None,,,,,,,,,,,,,,,,,P131,001,2025-02-28_13h52.06.064,posner_endo_new1,2024.2.4,60.10399190698834,2025-02-28 13h52.14.298910 +0000,
,,,,,,,,,,,,,,,,,,,,,,,,,,,,,,,,,,,,,,,,,,,,,,,,,,,,,,,,,,,,,,,,,,,,,,,699.8808707999997,699.8967673999723,699.8967673999723,759.902063400019,776.6691216999898,space,76.7692979000276,None,,,,,,,P131,001,2025-02-28_13h52.06.064,posner_endo_new1,2024.2.4,60.10399190698834,2025-02-28 13h52.14.298910 +0000,
,,,,,,,,,,,,,,,,,,,,,,,,,,,,,,,,,,776.6691754000494,776.6848869000096,779.6881192000583,779.6651610999834,,,,,,,,,,,,,,,,,,,,,,,,,,,,,,,,,,,,,,,,,,,,,,,,P131,001,2025-02-28_13h52.06.064,posner_endo_new1,2024.2.4,60.10399190698834,2025-02-28 13h52.14.298910 +0000,
cube_l.png,0.1,10,catch,0,0,0,down,6.058172499993816,None,None,,,,,,,,,,,0,0,0,0,779.6881192000583,,,,,,,,,,,,,779.6793464000802,779.6881192000583,779.6881192000583,779.6881192000583,785.7594923999859,,,,785.7654404999921,785.777016100008,785.777016100008,785.8255853999872,785.8258102000691,785.8422766000731,785.8422766000731,785.8422766000731,785.9090144999791,788.8399217000697,,,,787.9233293000143,788.8560872999951,788.8560872999951,788.8560872999951,,,,,,,,,,,,,,,,,down,6.058172499993816,None,None,,,P131,001,2025-02-28_13h52.06.064,posner_endo_new1,2024.2.4,60.10399190698834,2025-02-28 13h52.14.298910 +0000,
cube_l.png,0.1,10,catch,1,1,0,down,0.8494564000284299,None,None,,,,,,,,,,,0,1,1,1,788.8560872999951,,,,,,,,,,,,,788.8400816000067,788.8560872999951,788.8560872999951,788.8560872999951,789.7221784000285,,,,789.727968799998,789.7394732000539,789.7394732000539,789.7884095000336,789.788630999974,789.804957000073,789.804957000073,789.804957000073,789.8714049999835,792.8024124000221,,,,791.88630750007,792.8187252000207,792.8187252000207,792.8187252000207,,,,,,,,,,,,,,,,,down,0.8494564000284299,None,None,,,P131,001,2025-02-28_13h52.06.064,posner_endo_new1,2024.2.4,60.10399190698834,2025-02-28 13h52.14.298910 +0000,
cube_l.png,0.1,0.31,invalid,2,2,0,down,1.4553666999563575,None,space,0.5239017999265343,None,,,,,,,,,0,2,2,2,792.8187252000207,,,,,,,,,,,,,792.8025749999797,792.8187252000207,792.8187252000207,792.8187252000207,794.2845529000042,,,,794.2902601000387,794.3019092000322,794.3019092000322,794.3504624000052,794.3506901999936,794.3673146000365,794.3673146000365,794.3673146000365,794.4502002000809,794.9004384999862,,,,,,,,,,,,,,,,,,,,,,,,down,1.4553666999563575,None,space,0.5239017999265343,None,P131,001,2025-02-28_13h52.06.064,posner_endo_new1,2024.2.4,60.10399190698834,2025-02-28 13h52.14.298910 +0000,
cube_l.png,0.1,0.31,invalid,3,3,0,down,5.253686200012453,None,space,0.4207151000155136,None,,,,,,,,,0,3,3,3,794.9161071000854,,,,,,,,,,,,,794.9006120000267,794.9161071000854,794.9161071000854,794.9161071000854,800.1784108000575,,,,800.1842018000316,800.1957999999868,800.1957999999868,800.244432699983,800.2446598000824,800.2609481000109,800.2609481000109,800.2609481000109,800.3274273000425,800.6945774999913,,,,,,,,,,,,,,,,,,,,,,,,down,5.253686200012453,None,space,0.4207151000155136,None,P131,001,2025-02-28_13h52.06.064,posner_endo_new1,2024.2.4,60.10399190698834,2025-02-28 13h52.14.298910 +0000,
cube_l.png,0.1,-0.31,valid,4,4,0,down,4.708053800044581,None,space,0.3783460999839008,None,,,,,,,,,0,4,4,4,800.7104452999774,,,,,,,,,,,,,800.6947498000227,800.7104452999774,800.7104452999774,800.7104452999774,805.4230571000371,,,,805.4288264000788,805.4404747000663,805.4404747000663,805.4887013999978,805.4889234000584,805.5054705999792,805.5054705999792,805.5054705999792,805.5882825000444,805.8893795000622,,,,,,,,,,,,,,,,,,,,,,,,down,4.708053800044581,None,space,0.3783460999839008,None,P131,001,2025-02-28_13h52.06.064,posner_endo_new1,2024.2.4,60.10399190698834,2025-02-28 13h52.14.298910 +0000,
cube_r.png,0.1,-0.31,invalid,5,5,0,down,4.936744000064209,None,space,0.3661446999758482,None,,,,,,,,,0,5,5,5,805.9052204000764,,,,,,,,,,,,,805.8895573000191,805.9052204000764,805.9052204000764,805.9052204000764,810.8508499000454,,,,810.8566352999769,810.8684187000617,810.8684187000617,810.9169063000008,810.9171257000417,810.93349700002,810.93349700002,810.93349700002,811.0000245000701,811.3006464000791,,,,,,,,,,,,,,,,,,,,,,,,down,4.936744000064209,None,space,0.3661446999758482,None,P131,001,2025-02-28_13h52.06.064,posner_endo_new1,2024.2.4,60.10399190698834,2025-02-28 13h52.14.298910 +0000,
cube_r.png,0.1,0.31,valid,6,6,0,down,5.86950569995679,None,space,0.366347000002861,None,,,,,,,,,0,6,6,6,811.3162772000069,,,,,,,,,,,,,811.300817499985,811.3162772000069,811.3162772000069,811.3162772000069,817.1943676000228,,,,817.2000973999966,817.2116723000072,817.2116723000072,817.2605089000426,817.2607276000781,817.2769052999793,817.2769052999793,817.2769052999793,817.3433263000334,817.6441032000585,,,,,,,,,,,,,,,,,,,,,,,,down,5.86950569995679,None,space,0.366347000002861,None,P131,001,2025-02-28_13h52.06.064,posner_endo_new1,2024.2.4,60.10399190698834,2025-02-28 13h52.14.298910 +0000,
cube_r.png,0.1,-0.31,invalid,7,7,0,down,3.9507956000743434,None,space,0.3457169000757858,None,,,,,,,,,0,7,7,7,817.6595172000816,,,,,,,,,,,,,817.6442832000321,817.6595172000816,817.6595172000816,817.6595172000816,821.6231091000373,,,,821.6288446000544,821.6403419000562,821.6403419000562,821.689272699994,821.6894978000782,821.7058576000854,821.7058576000854,821.7058576000854,821.7889168000547,822.0559219000861,,,,,,,,,,,,,,,,,,,,,,,,down,3.9507956000743434,None,space,0.3457169000757858,None,P131,001,2025-02-28_13h52.06.064,posner_endo_new1,2024.2.4,60.10399190698834,2025-02-28 13h52.14.298910 +0000,
cube_l.png,0.1,-0.31,valid,8,8,0,down,4.7779952000128105,None,space,0.3235976999858394,None,,,,,,,,,0,8,8,8,822.0718710999936,,,,,,,,,,,,,822.0560995000415,822.0718710999936,822.0718710999936,822.0718710999936,826.8513485000003,,,,826.8570649999892,826.8690190999769,826.8690190999769,826.9172740000067,826.917498899973,826.9338455999969,826.9338455999969,826.9338455999969,827.0169176000636,827.2674028000329,,,,,,,,,,,,,,,,,,,,,,,,down,4.7779952000128105,None,space,0.3235976999858394,None,P131,001,2025-02-28_13h52.06.064,posner_endo_new1,2024.2.4,60.10399190698834,2025-02-28 13h52.14.298910 +0000,
cube_r.png,0.1,-0.31,invalid,9,9,0,down,6.9030325000640005,None,space,0.5043759999098256,None,,,,,,,,,0,9,9,9,827.2832983999979,,,,,,,,,,,,,827.2675776000833,827.2832983999979,827.2832983999979,827.2832983999979,834.1938847000711,,,,834.1997113000834,834.2115243000444,834.2115243000444,834.2595591000281,834.2597820999799,834.276226200047,834.276226200047,834.276226200047,834.3593788000289,834.7925157999853,,,,,,,,,,,,,,,,,,,,,,,,down,6.9030325000640005,None,space,0.5043759999098256,None,P131,001,2025-02-28_13h52.06.064,posner_endo_new1,2024.2.4,60.10399190698834,2025-02-28 13h52.14.298910 +0000,
cube_l.png,0.1,0.31,invalid,10,10,0,down,4.594494699966162,None,space,0.38834229996427894,None,,,,,,,,,0,10,10,10,834.8088668000419,,,,,,,,,,,,,834.7926876000129,834.8088668000419,834.8088668000419,834.8088668000419,839.4052488000598,,,,839.4109997000778,839.4226892000297,839.4226892000297,839.4709833000088,839.4712061000755,839.4874460999854,839.4874460999854,839.4874460999854,839.5707945000613,839.8877328999806,,,,,,,,,,,,,,,,,,,,,,,,down,4.594494699966162,None,space,0.38834229996427894,None,P131,001,2025-02-28_13h52.06.064,posner_endo_new1,2024.2.4,60.10399190698834,2025-02-28 13h52.14.298910 +0000,
cube_r.png,0.1,-0.31,invalid,11,11,0,down,6.122830200009048,None,space,0.3869607000378892,None,,,,,,,,,0,11,11,11,839.9034526000032,,,,,,,,,,,,,839.8879108000547,839.9034526000032,839.9034526000032,839.9034526000032,846.0317633000668,,,,846.0375284000766,846.0491892000427,846.0491892000427,846.0974689000286,846.0976890000748,846.113792899996,846.113792899996,846.113792899996,846.1974943000823,846.5146015000064,,,,,,,,,,,,,,,,,,,,,,,,down,6.122830200009048,None,space,0.3869607000378892,None,P131,001,2025-02-28_13h52.06.064,posner_endo_new1,2024.2.4,60.10399190698834,2025-02-28 13h52.14.298910 +0000,
cube_r.png,0.1,0.31,valid,12,12,0,down,5.184130500070751,None,space,0.33302240003831685,None,,,,,,,,,0,12,12,12,846.5305767999962,,,,,,,,,,,,,846.5147710000165,846.5305767999962,846.5305767999962,846.5305767999962,851.7256869000848,,,,851.731461300049,851.7431318999734,851.7431318999734,851.7915753000416,851.7917973999865,851.8082918999717,851.8082918999717,851.8082918999717,851.874789500027,852.1420524000423,,,,,,,,,,,,,,,,,,,,,,,,down,5.184130500070751,None,space,0.33302240003831685,None,P131,001,2025-02-28_13h52.06.064,posner_endo_new1,2024.2.4,60.10399190698834,2025-02-28 13h52.14.298910 +0000,
cube_l.png,0.1,10,catch,13,13,0,down,4.428217499982566,None,None,,,,,,,,,,,0,13,13,13,852.157843700028,,,,,,,,,,,,,852.1422264000867,852.157843700028,852.157843700028,852.157843700028,856.5877015000442,,,,856.593573500053,856.605782700004,856.605782700004,856.6534830000019,856.6537111999933,856.6699103000574,856.6699103000574,856.6699103000574,856.7531268000603,859.6674011000432,,,,858.7677900000708,859.6833025000524,859.6833025000524,859.6833025000524,,,,,,,,,,,,,,,,,down,4.428217499982566,None,None,,,P131,001,2025-02-28_13h52.06.064,posner_endo_new1,2024.2.4,60.10399190698834,2025-02-28 13h52.14.298910 +0000,
cube_r.png,0.1,-0.31,invalid,14,14,0,down,2.0951453000307083,None,space,0.37117079994641244,None,,,,,,,,,0,14,14,14,859.6833025000524,,,,,,,,,,,,,859.6675700000487,859.6833025000524,859.6833025000524,859.6833025000524,861.782232800033,,,,861.7879910999909,861.7993788999738,861.7993788999738,861.8481290000491,861.8483480999712,861.8646416000556,861.8646416000556,861.8646416000556,861.9311590000289,862.2479020999745,,,,,,,,,,,,,,,,,,,,,,,,down,2.0951453000307083,None,space,0.37117079994641244,None,P131,001,2025-02-28_13h52.06.064,posner_endo_new1,2024.2.4,60.10399190698834,2025-02-28 13h52.14.298910 +0000,
cube_l.png,0.1,-0.31,valid,15,15,0,down,4.682061400031671,None,space,0.36870489991270006,None,,,,,,,,,0,15,15,15,862.2642537000356,,,,,,,,,,,,,862.2480741000036,862.2642537000356,862.2642537000356,862.2642537000356,866.9602589000715,,,,866.9661325999768,866.9776917999843,866.9776917999843,867.0260287000565,867.0262517000083,867.0428004000569,867.0428004000569,867.0428004000569,867.1258719000034,867.4264619000023,,,,,,,,,,,,,,,,,,,,,,,,down,4.682061400031671,None,space,0.36870489991270006,None,P131,001,2025-02-28_13h52.06.064,posner_endo_new1,2024.2.4,60.10399190698834,2025-02-28 13h52.14.298910 +0000,
cube_r.png,0.1,10,catch,16,16,0,down,4.960508599993773,None,None,,,,,,,,,,,0,16,16,16,867.442292700056,,,,,,,,,,,,,867.4266343000345,867.442292700056,867.442292700056,867.442292700056,872.4045357999858,,,,872.4103250000626,872.4217658999842,872.4217658999842,872.4706342000281,872.4708626000211,872.4871577000013,872.4871577000013,872.4871577000013,872.5537713000085,875.4845233000815,,,,874.5683180000633,875.500913200085,875.500913200085,875.500913200085,,,,,,,,,,,,,,,,,down,4.960508599993773,None,None,,,P131,001,2025-02-28_13h52.06.064,posner_endo_new1,2024.2.4,60.10399190698834,2025-02-28 13h52.14.298910 +0000,
cube_r.png,0.1,10,catch,17,17,0,down,3.557411600020714,None,None,,,,,,,,,,,0,17,17,17,875.500913200085,,,,,,,,,,,,,875.484689700068,875.500913200085,875.500913200085,875.500913200085,879.0644650000613,,,,879.0702626000857,879.0819148999872,879.0819148999872,879.1304742000066,879.1306957000634,879.1468528000405,879.1468528000405,879.1468528000405,879.2130010999972,882.1442595000844,,,,881.2282225000672,882.1607770000119,882.1607770000119,882.1607770000119,,,,,,,,,,,,,,,,,down,3.557411600020714,None,None,,,P131,001,2025-02-28_13h52.06.064,posner_endo_new1,2024.2.4,60.10399190698834,2025-02-28 13h52.14.298910 +0000,
cube_l.png,0.1,0.31,invalid,18,18,0,down,0.6254554999759421,None,space,0.41921379999257624,None,,,,,,,,,0,18,18,18,882.1607770000119,,,,,,,,,,,,,882.1444233000511,882.1607770000119,882.1607770000119,882.1607770000119,882.7939294000389,,,,882.7996533000842,882.8112035000231,882.8112035000231,882.859850000008,882.8600705000572,882.8766788999783,882.8766788999783,882.8766788999783,882.9430018999847,883.3099760999903,,,,,,,,,,,,,,,,,,,,,,,,down,0.6254554999759421,None,space,0.41921379999257624,None,P131,001,2025-02-28_13h52.06.064,posner_endo_new1,2024.2.4,60.10399190698834,2025-02-28 13h52.14.298910 +0000,
cube_l.png,0.1,10,catch,19,19,0,down,5.1246635999996215,None,None,,,,,,,,,,,0,19,19,19,883.32606760005,,,,,,,,,,,,,883.3101498000324,883.32606760005,883.32606760005,883.32606760005,888.4547583999811,,,,888.4604975000257,888.4719594999915,888.4719594999915,888.5209473000141,888.5211664000526,888.5373672000133,888.5373672000133,888.5373672000133,888.6039584000828,891.5346081000753,,,,890.6185747000854,891.5509858999867,891.5509858999867,891.5509858999867,,,,,,,,,,,,,,,,,down,5.1246635999996215,None,None,,,P131,001,2025-02-28_13h52.06.064,posner_endo_new1,2024.2.4,60.10399190698834,2025-02-28 13h52.14.298910 +0000,
cube_l.png,0.1,0.31,invalid,20,20,0,down,2.4434924999950454,None,space,0.43425299995578825,None,,,,,,,,,0,20,20,20,891.5509858999867,,,,,,,,,,,,,891.5347700000275,891.5509858999867,891.5509858999867,891.5509858999867,893.9992879000492,,,,894.0050840000622,894.0166220000247,894.0166220000247,894.0652416000376,894.0654617000837,894.0816257999977,894.0816257999977,894.0816257999977,894.1482077999972,894.5321993000107,,,,,,,,,,,,,,,,,,,,,,,,down,2.4434924999950454,None,space,0.43425299995578825,None,P131,001,2025-02-28_13h52.06.064,posner_endo_new1,2024.2.4,60.10399190698834,2025-02-28 13h52.14.298910 +0000,
cube_l.png,0.1,-0.31,valid,21,21,0,down,5.942729200003669,None,space,0.3712418000213802,None,,,,,,,,,0,21,21,21,894.54785610002,,,,,,,,,,,,,894.5323713000398,894.54785610002,894.54785610002,894.54785610002,900.4924295999808,,,,900.498219900066,900.5097086000023,900.5097086000023,900.5584801000077,900.5587007000577,900.5750934000826,900.5750934000826,900.5750934000826,900.6417000000365,900.958776100073,,,,,,,,,,,,,,,,,,,,,,,,down,5.942729200003669,None,space,0.3712418000213802,None,P131,001,2025-02-28_13h52.06.064,posner_endo_new1,2024.2.4,60.10399190698834,2025-02-28 13h52.14.298910 +0000,
cube_r.png,0.1,0.31,valid,22,22,0,down,5.299170499900356,None,space,0.3496698000235483,None,,,,,,,,,0,22,22,22,900.9746001000749,,,,,,,,,,,,,900.958948399988,900.9746001000749,900.9746001000749,900.9746001000749,906.2862095000455,,,,906.2920248999726,906.3036096000578,906.3036096000578,906.3526053000242,906.3528258000733,906.3694023999851,906.3694023999851,906.3694023999851,906.4359189000679,906.7198013999732,,,,,,,,,,,,,,,,,,,,,,,,down,5.299170499900356,None,space,0.3496698000235483,None,P131,001,2025-02-28_13h52.06.064,posner_endo_new1,2024.2.4,60.10399190698834,2025-02-28 13h52.14.298910 +0000,
cube_r.png,0.1,-0.31,invalid,23,23,0,down,4.659495299914852,None,space,0.39959970000199974,None,,,,,,,,,0,23,23,23,906.7351016000612,,,,,,,,,,,,,906.7199750000145,906.7351016000612,906.7351016000612,906.7351016000612,911.3982933000661,,,,911.4040577000706,911.4157404000871,911.4157404000871,911.4639236000367,911.4641512000235,911.4805013000732,911.4805013000732,911.4805013000732,911.563914700062,911.8812915000599,,,,,,,,,,,,,,,,,,,,,,,,down,4.659495299914852,None,space,0.39959970000199974,None,P131,001,2025-02-28_13h52.06.064,posner_endo_new1,2024.2.4,60.10399190698834,2025-02-28 13h52.14.298910 +0000,
cube_r.png,0.1,0.31,valid,24,24,0,down,2.929586899932474,None,space,0.38439249992370605,None,,,,,,,,,0,24,24,24,911.8970395000651,,,,,,,,,,,,,911.8814637999749,911.8970395000651,911.8970395000651,911.8970395000651,914.8278277000645,,,,914.8336031000363,914.8451617000392,914.8451617000392,914.8939147000201,914.8941354000708,914.9104621000588,914.9104621000588,914.9104621000588,914.9770070000086,915.3106777999783,,,,,,,,,,,,,,,,,,,,,,,,down,2.929586899932474,None,space,0.38439249992370605,None,P131,001,2025-02-28_13h52.06.064,posner_endo_new1,2024.2.4,60.10399190698834,2025-02-28 13h52.14.298910 +0000,
cube_r.png,0.1,-0.31,invalid,25,25,0,down,6.091831799945794,None,space,0.40280250005889684,None,,,,,,,,,0,25,25,25,915.3265845000278,,,,,,,,,,,,,915.3108503000112,915.3265845000278,915.3265845000278,915.3265845000278,921.4211177000543,,,,921.4269438000629,921.4386980000418,921.4386980000418,921.4872791999951,921.4875017000595,921.5035722000757,921.5035722000757,921.5035722000757,921.5701687000692,921.9208372000139,,,,,,,,,,,,,,,,,,,,,,,,down,6.091831799945794,None,space,0.40280250005889684,None,P131,001,2025-02-28_13h52.06.064,posner_endo_new1,2024.2.4,60.10399190698834,2025-02-28 13h52.14.298910 +0000,
cube_l.png,0.1,-0.31,valid,26,26,0,down,5.042296200059354,None,space,0.3108414000598714,None,,,,,,,,,0,26,26,26,921.9362154999981,,,,,,,,,,,,,921.921009200043,921.9362154999981,921.9362154999981,921.9362154999981,926.9822734000627,,,,926.988070200081,926.9995898000197,926.9995898000197,927.0480960999848,927.0483165000333,927.0644383999752,927.0644383999752,927.0644383999752,927.1313224000623,927.3816695000278,,,,,,,,,,,,,,,,,,,,,,,,down,5.042296200059354,None,space,0.3108414000598714,None,P131,001,2025-02-28_13h52.06.064,posner_endo_new1,2024.2.4,60.10399190698834,2025-02-28 13h52.14.298910 +0000,
cube_r.png,0.1,0.31,valid,27,27,0,down,6.804887000005692,None,space,0.4067959999665618,None,,,,,,,,,0,27,27,27,927.3974753000075,,,,,,,,,,,,,927.3818416000577,927.3974753000075,927.3974753000075,927.3974753000075,934.2081230999902,,,,934.2139625999844,934.2257311000722,934.2257311000722,934.2736447000643,934.2738656000001,934.2906361999922,934.2906361999922,934.2906361999922,934.3573959000641,934.707353600068,,,,,,,,,,,,,,,,,,,,,,,,down,6.804887000005692,None,space,0.4067959999665618,None,P131,001,2025-02-28_13h52.06.064,posner_endo_new1,2024.2.4,60.10399190698834,2025-02-28 13h52.14.298910 +0000,
cube_r.png,0.1,10,catch,28,28,0,down,3.959207999985665,None,None,,,,,,,,,,,0,28,28,28,934.7236504000612,,,,,,,,,,,,,934.7075373000698,934.7236504000612,934.7236504000612,934.7236504000612,938.687108400045,,,,938.69287420006,938.704631700064,938.704631700064,938.7528959000483,938.7531187999994,938.7693488000659,938.7693488000659,938.7693488000659,938.8526641000062,941.7669822999742,,,,940.8674369000364,941.7830374999903,941.7830374999903,941.7830374999903,,,,,,,,,,,,,,,,,down,3.959207999985665,None,None,,,P131,001,2025-02-28_13h52.06.064,posner_endo_new1,2024.2.4,60.10399190698834,2025-02-28 13h52.14.298910 +0000,
cube_r.png,0.1,0.31,valid,29,29,0,down,2.787588599952869,None,space,0.3655741000548005,None,,,,,,,,,0,29,29,29,941.7830374999903,,,,,,,,,,,,,941.7671415000223,941.7830374999903,941.7830374999903,941.7830374999903,944.5806290999753,,,,944.5863786999835,944.5980115000857,944.5980115000857,944.6469762000488,944.6472032000311,944.6630496999715,944.6630496999715,944.6630496999715,944.7299215000821,945.0304475000594,,,,,,,,,,,,,,,,,,,,,,,,down,2.787588599952869,None,space,0.3655741000548005,None,P131,001,2025-02-28_13h52.06.064,posner_endo_new1,2024.2.4,60.10399190698834,2025-02-28 13h52.14.298910 +0000,
cube_r.png,0.1,0.31,valid,30,30,0,down,5.7403449000557885,None,space,0.38339600001927465,None,,,,,,,,,0,30,30,30,945.0464194000233,,,,,,,,,,,,,945.0306234000018,945.0464194000233,945.0464194000233,945.0464194000233,950.791193400044,,,,950.7970807000529,950.8086311999941,950.8086311999941,950.857160900021,950.8573808000656,950.8737506000325,950.8737506000325,950.8737506000325,950.939913899987,951.2740035000024,,,,,,,,,,,,,,,,,,,,,,,,down,5.7403449000557885,None,space,0.38339600001927465,None,P131,001,2025-02-28_13h52.06.064,posner_endo_new1,2024.2.4,60.10399190698834,2025-02-28 13h52.14.298910 +0000,
cube_l.png,0.1,-0.31,valid,31,31,0,down,4.2565275999950245,None,space,0.4396197999594733,None,,,,,,,,,0,31,31,31,951.2898911000229,,,,,,,,,,,,,951.2741771000437,951.2898911000229,951.2898911000229,951.2898911000229,955.5531063000672,,,,955.5589153000619,955.5705692999763,955.5705692999763,955.6189830000512,955.619201799971,955.6357204000233,955.6357204000233,955.6357204000233,955.7185620000819,956.0855329000624,,,,,,,,,,,,,,,,,,,,,,,,down,4.2565275999950245,None,space,0.4396197999594733,None,P131,001,2025-02-28_13h52.06.064,posner_endo_new1,2024.2.4,60.10399190698834,2025-02-28 13h52.14.298910 +0000,
cube_r.png,0.1,0.31,valid,32,32,0,down,7.9891308000078425,None,space,0.46388609998393804,None,,,,,,,,,0,32,32,32,956.1017515000422,,,,,,,,,,,,,956.0857094000094,956.1017515000422,956.1017515000422,956.1017515000422,964.0943117000861,,,,964.1001631000545,964.111725899973,964.111725899973,964.1602275000187,964.1604488000739,964.1769527000142,964.1769527000142,964.1769527000142,964.2600294000003,964.6435584999854,,,,,,,,,,,,,,,,,,,,,,,,down,7.9891308000078425,None,space,0.46388609998393804,None,P131,001,2025-02-28_13h52.06.064,posner_endo_new1,2024.2.4,60.10399190698834,2025-02-28 13h52.14.298910 +0000,
cube_r.png,0.1,-0.31,invalid,33,33,0,down,6.3426904999651015,None,space,0.457991800038144,None,,,,,,,,,0,33,33,33,964.6596793000354,,,,,,,,,,,,,964.6437354000518,964.6596793000354,964.6596793000354,964.6596793000354,971.0039100000868,,,,971.0096689000493,971.0213173000375,971.0213173000375,971.0697709000669,971.0699915000005,971.0861156000756,971.0861156000756,971.0861156000756,971.1528676999733,971.5528533000033,,,,,,,,,,,,,,,,,,,,,,,,down,6.3426904999651015,None,space,0.457991800038144,None,P131,001,2025-02-28_13h52.06.064,posner_endo_new1,2024.2.4,60.10399190698834,2025-02-28 13h52.14.298910 +0000,
cube_r.png,0.1,10,catch,34,34,0,down,9.617319100070745,None,None,,,,,,,,,,,0,34,34,34,971.5692561999895,,,,,,,,,,,,,971.5530236000195,971.5692561999895,971.5692561999895,971.5692561999895,981.1930288000731,,,,981.1987860000227,981.2105133000296,981.2105133000296,981.2592957000015,981.2595153000439,981.2760689000133,981.2760689000133,981.2760689000133,981.3426823000191,984.2733535000589,,,,983.3573700999841,984.2896966000553,984.2896966000553,984.2896966000553,,,,,,,,,,,,,,,,,down,9.617319100070745,None,None,,,P131,001,2025-02-28_13h52.06.064,posner_endo_new1,2024.2.4,60.10399190698834,2025-02-28 13h52.14.298910 +0000,
cube_r.png,0.1,0.31,valid,35,35,0,down,10.456247900030576,None,space,0.469827999942936,None,,,,,,,,,0,35,35,35,984.2896966000553,,,,,,,,,,,,,984.2735160000157,984.2896966000553,984.2896966000553,984.2896966000553,994.7627302000765,,,,994.7686699000187,994.780072900001,994.780072900001,994.828733399976,994.8289550000336,994.8454054000322,994.8454054000322,994.8454054000322,994.9288154999958,995.3289937999798,,,,,,,,,,,,,,,,,,,,,,,,down,10.456247900030576,None,space,0.469827999942936,None,P131,001,2025-02-28_13h52.06.064,posner_endo_new1,2024.2.4,60.10399190698834,2025-02-28 13h52.14.298910 +0000,
cube_r.png,0.1,-0.31,invalid,36,36,0,down,5.425144399981946,None,space,0.3929616999812424,None,,,,,,,,,0,36,36,36,995.3450986000244,,,,,,,,,,,,,995.3291668000165,995.3450986000244,995.3450986000244,995.3450986000244,1000.7755111000733,,,,1000.7976476000622,1000.809794700006,1000.809794700006,1000.8391019999981,1000.839438199997,1000.8559801999945,1000.8559801999945,1000.8559801999945,1000.9393235000316,1001.2568605000852,,,,,,,,,,,,,,,,,,,,,,,,down,5.425144399981946,None,space,0.3929616999812424,None,P131,001,2025-02-28_13h52.06.064,posner_endo_new1,2024.2.4,60.10399190698834,2025-02-28 13h52.14.298910 +0000,
cube_l.png,0.1,0.31,invalid,37,37,0,down,6.8418459999375045,None,space,0.4818446000572294,None,,,,,,,,,0,37,37,37,1001.272281600046,,,,,,,,,,,,,1001.2571505000815,1001.272281600046,1001.272281600046,1001.272281600046,1008.1162285000319,,,,1008.1226839000592,1008.13439380005,1008.13439380005,1008.1816526000621,1008.1818818000611,1008.1985484000761,1008.1985484000761,1008.1985484000761,1008.2817849999992,1008.682253499981,,,,,,,,,,,,,,,,,,,,,,,,down,6.8418459999375045,None,space,0.4818446000572294,None,P131,001,2025-02-28_13h52.06.064,posner_endo_new1,2024.2.4,60.10399190698834,2025-02-28 13h52.14.298910 +0000,
cube_l.png,0.1,0.31,invalid,38,38,0,down,4.377136399969459,None,space,0.4214934000046924,None,,,,,,,,,0,38,38,38,1008.6976293000625,,,,,,,,,,,,,1008.6824404000072,1008.6976293000625,1008.6976293000625,1008.6976293000625,1013.0774137000553,,,,1013.0838588000042,1013.0956508000381,1013.0956508000381,1013.143617899972,1013.1438631999772,1013.1599320999812,1013.1599320999812,1013.1599320999812,1013.2268369999947,1013.593593699974,,,,,,,,,,,,,,,,,,,,,,,,down,4.377136399969459,None,space,0.4214934000046924,None,P131,001,2025-02-28_13h52.06.064,posner_endo_new1,2024.2.4,60.10399190698834,2025-02-28 13h52.14.298910 +0000,
cube_r.png,0.1,0.31,valid,39,39,0,down,3.632840699981898,None,space,0.3508484000340104,None,,,,,,,,,0,39,39,39,1013.609785299981,,,,,,,,,,,,,1013.5937807000009,1013.609785299981,1013.609785299981,1013.609785299981,1017.2564914000686,,,,1017.262965700007,1017.2747109000338,1017.2747109000338,1017.3226480999729,1017.3228762000799,1017.3390938000521,1017.3390938000521,1017.3390938000521,1017.4056405000156,1017.7059996000025,,,,,,,,,,,,,,,,,,,,,,,,down,3.632840699981898,None,space,0.3508484000340104,None,P131,001,2025-02-28_13h52.06.064,posner_endo_new1,2024.2.4,60.10399190698834,2025-02-28 13h52.14.298910 +0000,
cube_l.png,0.1,0.31,invalid,40,40,0,down,6.68857030000072,None,space,0.4943196999374777,None,,,,,,,,,0,40,40,40,1017.7221213000594,,,,,,,,,,,,,1017.7061823999975,1017.7221213000594,1017.7221213000594,1017.7221213000594,1024.4162499000086,,,,1024.4227045000298,1024.4345916999737,1024.4345916999737,1024.482053500018,1024.4822866000468,1024.4980787000386,1024.4980787000386,1024.4980787000386,1024.5817780999932,1024.9985560000641,,,,,,,,,,,,,,,,,,,,,,,,down,6.68857030000072,None,space,0.4943196999374777,None,P131,001,2025-02-28_13h52.06.064,posner_endo_new1,2024.2.4,60.10399190698834,2025-02-28 13h52.14.298910 +0000,
cube_l.png,0.1,10,catch,41,41,0,down,5.196278500021435,None,None,,,,,,,,,,,0,41,41,41,1025.0145915000467,,,,,,,,,,,,,1024.9987378000515,1025.0145915000467,1025.0145915000467,1025.0145915000467,1030.2263577000704,,,,1030.2328854000662,1030.244655800052,1030.244655800052,1030.2924817000749,1030.2927115000784,1030.3092703999719,1030.3092703999719,1030.3092703999719,1030.3759377000388,1033.3066018000245,,,,1032.390455899993,1033.322497199988,1033.322497199988,1033.322497199988,,,,,,,,,,,,,,,,,down,5.196278500021435,None,None,,,P131,001,2025-02-28_13h52.06.064,posner_endo_new1,2024.2.4,60.10399190698834,2025-02-28 13h52.14.298910 +0000,
cube_l.png,0.1,-0.31,valid,42,42,0,down,0.9919169000349939,None,space,0.35825469996780157,None,,,,,,,,,0,42,42,42,1033.322497199988,,,,,,,,,,,,,1033.3067636999767,1033.322497199988,1033.322497199988,1033.322497199988,1034.3226591000566,,,,1034.3284180000192,1034.3399556999793,1034.3399556999793,1034.3884767000563,1034.3886995000066,1034.4048970000586,1034.4048970000586,1034.4048970000586,1034.4715722000692,1034.7719804000808,,,,,,,,,,,,,,,,,,,,,,,,down,0.9919169000349939,None,space,0.35825469996780157,None,P131,001,2025-02-28_13h52.06.064,posner_endo_new1,2024.2.4,60.10399190698834,2025-02-28 13h52.14.298910 +0000,
cube_l.png,0.1,10,catch,43,43,0,down,6.526539499987848,None,None,,,,,,,,,,,0,43,43,43,1034.7879923,,,,,,,,,,,,,1034.7721531999996,1034.7879923,1034.7879923,1034.7879923,1041.3157171000494,,,,1041.321556400042,1041.3335885000415,1041.3335885000415,1041.381447999971,1041.3816762000788,1041.3978970000753,1041.3978970000753,1041.3978970000753,1041.4811454999726,1044.395304500009,,,,1043.4959163999883,1044.4113671000814,1044.4113671000814,1044.4113671000814,,,,,,,,,,,,,,,,,down,6.526539499987848,None,None,,,P131,001,2025-02-28_13h52.06.064,posner_endo_new1,2024.2.4,60.10399190698834,2025-02-28 13h52.14.298910 +0000,
cube_l.png,0.1,0.31,invalid,44,44,0,down,2.7433335999958217,None,space,0.41949130001012236,None,,,,,,,,,0,44,44,44,1044.4113671000814,,,,,,,,,,,,,1044.3954642000608,1044.4113671000814,1044.4113671000814,1044.4113671000814,1047.1594512000447,,,,1047.165306000039,1047.1768445000052,1047.1768445000052,1047.225495700026,1047.2257164000766,1047.2419299000176,1047.2419299000176,1047.2419299000176,1047.3086071000434,1047.6755711999722,,,,,,,,,,,,,,,,,,,,,,,,down,2.7433335999958217,None,space,0.41949130001012236,None,P131,001,2025-02-28_13h52.06.064,posner_endo_new1,2024.2.4,60.10399190698834,2025-02-28 13h52.14.298910 +0000,
cube_l.png,0.1,0.31,invalid,45,45,0,down,5.111318900017068,None,space,0.4997838999843225,None,,,,,,,,,0,45,45,45,1047.6915116000455,,,,,,,,,,,,,1047.675746300025,1047.6915116000455,1047.6915116000455,1047.6915116000455,1052.8038066000445,,,,1052.809505400015,1052.8210416000802,1052.8210416000802,1052.8692315000808,1052.869450099999,1052.8862575000385,1052.8862575000385,1052.8862575000385,1052.9526240000268,1053.3867700999836,,,,,,,,,,,,,,,,,,,,,,,,down,5.111318900017068,None,space,0.4997838999843225,None,P131,001,2025-02-28_13h52.06.064,posner_endo_new1,2024.2.4,60.10399190698834,2025-02-28 13h52.14.298910 +0000,
cube_r.png,0.1,0.31,valid,46,46,0,down,5.736832200083882,None,space,0.38907109992578626,None,,,,,,,,,0,46,46,46,1053.4021820999915,,,,,,,,,,,,,1053.3869423000142,1053.4021820999915,1053.4021820999915,1053.4021820999915,1059.1473356999923,,,,1059.15312849998,1059.164978099987,1059.164978099987,1059.2131942000706,1059.2134255000856,1059.2296087000286,1059.2296087000286,1059.2296087000286,1059.3126805999782,1059.6299966999795,,,,,,,,,,,,,,,,,,,,,,,,down,5.736832200083882,None,space,0.38907109992578626,None,P131,001,2025-02-28_13h52.06.064,posner_endo_new1,2024.2.4,60.10399190698834,2025-02-28 13h52.14.298910 +0000,
cube_l.png,0.1,-0.31,valid,47,47,0,down,7.02085289999377,None,space,0.3956579000223428,None,,,,,,,,,0,47,47,47,1059.645976300002,,,,,,,,,,,,,1059.630173600046,1059.645976300002,1059.645976300002,1059.645976300002,1066.6728281000396,,,,1066.6785937000532,1066.6901218000567,1066.6901218000567,1066.7389175000135,1066.739141499973,1066.7553954999894,1066.7553954999894,1066.7553954999894,1066.8383950000862,1067.1557969000423,,,,,,,,,,,,,,,,,,,,,,,,down,7.02085289999377,None,space,0.3956579000223428,None,P131,001,2025-02-28_13h52.06.064,posner_endo_new1,2024.2.4,60.10399190698834,2025-02-28 13h52.14.298910 +0000,
cube_r.png,0.1,-0.31,invalid,48,48,0,down,12.143025299999863,None,space,0.3863763000117615,None,,,,,,,,,0,48,48,48,1067.1715778000653,,,,,,,,,,,,,1067.1559742999962,1067.1715778000653,1067.1715778000653,1067.1715778000653,1079.326589000062,,,,1079.3323930000188,1079.343934900011,1079.343934900011,1079.3926894000033,1079.3929119000677,1079.4091338000726,1079.4091338000726,1079.4091338000726,1079.4757055999944,1079.80951130006,,,,,,,,,,,,,,,,,,,,,,,,down,12.143025299999863,None,space,0.3863763000117615,None,P131,001,2025-02-28_13h52.06.064,posner_endo_new1,2024.2.4,60.10399190698834,2025-02-28 13h52.14.298910 +0000,
cube_r.png,0.1,10,catch,49,49,0,down,4.465829099994153,None,None,,,,,,,,,,,0,49,49,49,1079.8251707999734,,,,,,,,,,,,,1079.8096904000267,1079.8251707999734,1079.8251707999734,1079.8251707999734,1084.304788700072,,,,1084.3105111999903,1084.322183500044,1084.322183500044,1084.3707615999738,1084.3709798000054,1084.3873114000307,1084.3873114000307,1084.3873114000307,1084.4541175999912,1087.3843179000542,,,,1086.4684426999884,1087.4008992000017,1087.4008992000017,1087.4008992000017,,,,,,,,,,,,,,,,,down,4.465829099994153,None,None,,,P131,001,2025-02-28_13h52.06.064,posner_endo_new1,2024.2.4,60.10399190698834,2025-02-28 13h52.14.298910 +0000,
cube_l.png,0.1,-0.31,valid,50,50,0,down,2.3304080000380054,None,space,0.4023067000089213,None,,,,,,,,,0,50,50,50,1087.4008992000017,,,,,,,,,,,,,1087.3844779999927,1087.4008992000017,1087.4008992000017,1087.4008992000017,1089.732811999973,,,,1089.7386561000021,1089.7503401000286,1089.7503401000286,1089.7987001000438,1089.7989214999834,1089.8151854000753,1089.8151854000753,1089.8151854000753,1089.8984306000639,1090.2322169999825,,,,,,,,,,,,,,,,,,,,,,,,down,2.3304080000380054,None,space,0.4023067000089213,None,P131,001,2025-02-28_13h52.06.064,posner_endo_new1,2024.2.4,60.10399190698834,2025-02-28 13h52.14.298910 +0000,
cube_l.png,0.1,-0.31,valid,51,51,0,down,4.0669595000799745,None,space,0.33745690004434437,None,,,,,,,,,0,51,51,51,1090.2480113999918,,,,,,,,,,,,,1090.2323892000131,1090.2480113999918,1090.2480113999918,1090.2480113999918,1094.3277980000712,,,,1094.3335396000184,1094.3451772000408,1094.3451772000408,1094.393797500059,1094.3940175999887,1094.4104474000633,1094.4104474000633,1094.4104474000633,1094.4770746000577,1094.760978700011,,,,,,,,,,,,,,,,,,,,,,,,down,4.0669595000799745,None,space,0.33745690004434437,None,P131,001,2025-02-28_13h52.06.064,posner_endo_new1,2024.2.4,60.10399190698834,2025-02-28 13h52.14.298910 +0000,
cube_r.png,0.1,-0.31,invalid,52,52,0,down,4.569777800003067,None,space,0.39721570000983775,None,,,,,,,,,0,52,52,52,1094.7768432999728,,,,,,,,,,,,,1094.7611542000668,1094.7768432999728,1094.7768432999728,1094.7768432999728,1099.3562092999928,,,,1099.3620604000753,1099.3737428999739,1099.3737428999739,1099.4220596000087,1099.4222875999985,1099.4383991999784,1099.4383991999784,1099.4383991999784,1099.5218366000336,1099.8386169000296,,,,,,,,,,,,,,,,,,,,,,,,down,4.569777800003067,None,space,0.39721570000983775,None,P131,001,2025-02-28_13h52.06.064,posner_endo_new1,2024.2.4,60.10399190698834,2025-02-28 13h52.14.298910 +0000,
cube_l.png,0.1,-0.31,valid,53,53,0,down,4.436182399978861,None,space,0.35274349991232157,None,,,,,,,,,0,53,53,53,1099.8549180000555,,,,,,,,,,,,,1099.8387932999758,1099.8549180000555,1099.8549180000555,1099.8549180000555,1104.3009287000168,,,,1104.3066772000166,1104.3183099000016,1104.3183099000016,1104.3672720000613,1104.3674957000185,1104.3836424000328,1104.3836424000328,1104.3836424000328,1104.4667896999745,1104.7502288999967,,,,,,,,,,,,,,,,,,,,,,,,down,4.436182399978861,None,space,0.35274349991232157,None,P131,001,2025-02-28_13h52.06.064,posner_endo_new1,2024.2.4,60.10399190698834,2025-02-28 13h52.14.298910 +0000,
cube_r.png,0.1,10,catch,54,54,0,down,4.683718500076793,None,None,,,,,,,,,,,0,54,54,54,1104.7666301000863,,,,,,,,,,,,,1104.7503993000137,1104.7666301000863,1104.7666301000863,1104.7666301000863,1109.462283700006,,,,1109.4681293000467,1109.4795674000634,1109.4795674000634,1109.5284459000686,1109.5286694000242,1109.5448369000806,1109.5448369000806,1109.5448369000806,1109.6116641000845,1112.5423642999958,,,,1111.6262380999979,1112.558472200064,1112.558472200064,1112.558472200064,,,,,,,,,,,,,,,,,down,4.683718500076793,None,None,,,P131,001,2025-02-28_13h52.06.064,posner_endo_new1,2024.2.4,60.10399190698834,2025-02-28 13h52.14.298910 +0000,
cube_l.png,0.1,0.31,invalid,55,55,0,down,1.596648900071159,None,space,0.423753899987787,None,,,,,,,,,0,55,55,55,1112.558472200064,,,,,,,,,,,,,1112.542526400066,1112.558472200064,1112.558472200064,1112.558472200064,1114.157866200083,,,,1114.163700700039,1114.1754244000185,1114.1754244000185,1114.2236678000772,1114.2238877000054,1114.2402574999724,1114.2402574999724,1114.2402574999724,1114.3235722000245,1114.6733487000456,,,,,,,,,,,,,,,,,,,,,,,,down,1.596648900071159,None,space,0.423753899987787,None,P131,001,2025-02-28_13h52.06.064,posner_endo_new1,2024.2.4,60.10399190698834,2025-02-28 13h52.14.298910 +0000,
cube_l.png,0.1,-0.31,valid,56,56,0,down,4.176607900066301,None,space,0.40566429996397346,None,,,,,,,,,0,56,56,56,1114.6898528999882,,,,,,,,,,,,,1114.67352140008,1114.6898528999882,1114.6898528999882,1114.6898528999882,1118.8697608000366,,,,1118.8754708999768,1118.8870756999822,1118.8870756999822,1118.935510499985,1118.935731500038,1118.951567400014,1118.951567400014,1118.951567400014,1119.0353220000397,1119.3692462000763,,,,,,,,,,,,,,,,,,,,,,,,down,4.176607900066301,None,space,0.40566429996397346,None,P131,001,2025-02-28_13h52.06.064,posner_endo_new1,2024.2.4,60.10399190698834,2025-02-28 13h52.14.298910 +0000,
cube_r.png,0.1,0.31,valid,57,57,0,down,4.337782599963248,None,space,0.35625910002272576,None,,,,,,,,,0,57,57,57,1119.3850692000706,,,,,,,,,,,,,1119.3694218000164,1119.3850692000706,1119.3850692000706,1119.3850692000706,1123.7312844999833,,,,1123.7370953999925,1123.7487707000691,1123.7487707000691,1123.7973161999835,1123.7975365000311,1123.8139232000103,1123.8139232000103,1123.8139232000103,1123.8969048999716,1124.180811700062,,,,,,,,,,,,,,,,,,,,,,,,down,4.337782599963248,None,space,0.35625910002272576,None,P131,001,2025-02-28_13h52.06.064,posner_endo_new1,2024.2.4,60.10399190698834,2025-02-28 13h52.14.298910 +0000,
cube_r.png,0.1,-0.31,invalid,58,58,0,down,3.9020055999280885,None,space,0.32143489993177354,None,,,,,,,,,0,58,58,58,1124.196636000066,,,,,,,,,,,,,1124.1809832999716,1124.196636000066,1124.196636000066,1124.196636000066,1128.109733600053,,,,1128.1154552000808,1128.1270080000395,1128.1270080000395,1128.1599256000482,1128.160135300015,1128.1757754000137,1128.1757754000137,1128.1757754000137,1128.258978900034,1128.5098668000428,,,,,,,,,,,,,,1128.1757754000137,1128.1757754000137,,,,,,,,,down,3.9020055999280885,None,space,0.32143489993177354,None,P131,001,2025-02-28_13h52.06.064,posner_endo_new1,2024.2.4,60.10399190698834,2025-02-28 13h52.14.298910 +0000,
cube_l.png,0.1,0.31,invalid,59,59,0,down,5.73301069997251,None,space,0.38666650000959635,None,,,,,,,,,0,59,59,59,1128.525689000031,,,,,,,,,,,,,1128.5100394000765,1128.525689000031,1128.525689000031,1128.525689000031,1134.2704575000098,,,,1134.2762268000515,1134.2878264000174,1134.2878264000174,1134.336392599973,1134.3366124000167,1134.3529729000293,1134.3529729000293,1134.3529729000293,1134.419511700049,1134.7533977000276,,,,,,,,,,,,,,,,,,,,,,,,down,5.73301069997251,None,space,0.38666650000959635,None,P131,001,2025-02-28_13h52.06.064,posner_endo_new1,2024.2.4,60.10399190698834,2025-02-28 13h52.14.298910 +0000,
