cue_img,cue_soa,target_x,trial,thisN,thisTrialN,thisRepN,key_control2.keys,key_control2.rt,key_control2.duration,key_resp.keys,key_resp.rt,key_resp.duration,practice.thisRepN,practice.thisTrialN,practice.thisN,practice.thisIndex,block1.thisRepN,block1.thisTrialN,block1.thisN,block1.thisIndex,block2.thisRepN,block2.thisTrialN,block2.thisN,block2.thisIndex,thisRow.t,notes,instructions.started,instructions_txt.started,key_control.started,instructions.stopped,key_control.keys,key_control.rt,key_control.duration,ready.started,ready_txt.started,ready_txt.stopped,ready.stopped,fix.started,fixation.started,key_control2.started,fixation_cross.started,fix.stopped,practice.key_control2.keys,practice.key_control2.rt,practice.key_control2.duration,cue.started,cube.started,fixation_cross_cue.started,cue.stopped,target.started,fixation_target.started,fixation_cross_target.started,key_resp.started,star.started,target.stopped,practice.key_resp.keys,practice.key_resp.rt,practice.key_resp.duration,star.stopped,fixation_target.stopped,fixation_cross_target.stopped,key_resp.stopped,block1.key_control2.keys,block1.key_control2.rt,block1.key_control2.duration,block1.key_resp.keys,block1.key_resp.rt,block1.key_resp.duration,break_2.started,text.started,key_control3.started,text.stopped,break_2.stopped,key_control3.keys,key_control3.rt,key_control3.duration,block2.key_control2.keys,block2.key_control2.rt,block2.key_control2.duration,block2.key_resp.keys,block2.key_resp.rt,block2.key_resp.duration,participant,session,date,expName,psychopyVersion,frameRate,expStart,
,,,,,,,,,,,,,,,,,,,,,,,,,,,0.007432600017637014,0.01950990012846887,0.01950990012846887,193.04167359997518,up,193.01575529994443,None,,,,,,,,,,,,,,,,,,,,,,,,,,,,,,,,,,,,,,,,,,,,,,,,,,P132,001,2025-03-06_10h57.41.517,posner_endo_new1,2024.2.4,60.047473460597196,2025-03-06 10h58.16.324589 +0000,
,,,,,,,,,,,,,,,,,,,,,,,,,,,,,,,,,,193.04171449993737,193.0548591001425,196.06126530002803,196.03570359991863,,,,,,,,,,,,,,,,,,,,,,,,,,,,,,,,,,,,,,,,,,,,,,P132,001,2025-03-06_10h57.41.517,posner_endo_new1,2024.2.4,60.047473460597196,2025-03-06 10h58.16.324589 +0000,
cube_l.png,0.1,-0.31,valid,0,0,0,down,10.477296999888495,None,space,0.3799263001419604,None,0,0,0,0,,,,,,,,,196.06126530002803,,,,,,,,,,,,,196.04899569996633,196.06126530002803,196.06126530002803,196.06126530002803,206.5419358999934,down,10.477296999888495,None,206.55742420000024,206.5675872999709,206.5675872999709,206.60776800010353,206.60799030005,206.62439469993114,206.62439469993114,206.62439469993114,206.70756180002354,207.0081434000749,space,0.3799263001419604,None,,,,,,,,,,,,,,,,,,,,,,,,,P132,001,2025-03-06_10h57.41.517,posner_endo_new1,2024.2.4,60.047473460597196,2025-03-06 10h58.16.324589 +0000,
cube_l.png,0.1,0.31,invalid,1,1,0,down,4.498764300020412,None,space,0.43531759991310537,None,0,1,1,1,,,,,,,,,207.02396590006538,,,,,,,,,,,,,207.00831150007434,207.02396590006538,207.02396590006538,207.02396590006538,211.5366468001157,down,4.498764300020412,None,211.54375730012543,211.5557907000184,211.5557907000184,211.6022052001208,211.60243190010078,211.61938640009612,211.61938640009612,211.61938640009612,211.685927500017,212.06952899997123,space,0.43531759991310537,None,,,,,,,,,,,,,,,,,,,,,,,,,P132,001,2025-03-06_10h57.41.517,posner_endo_new1,2024.2.4,60.047473460597196,2025-03-06 10h58.16.324589 +0000,
cube_r.png,0.1,-0.31,invalid,2,2,0,down,3.64540379983373,None,space,0.4921610001474619,None,0,2,2,2,,,,,,,,,212.08552239998244,,,,,,,,,,,,,212.06969380006194,212.08552239998244,212.08552239998244,212.08552239998244,215.73264289996587,down,3.64540379983373,None,215.7414545000065,215.75115190003999,215.75115190003999,215.79855299997143,215.79878009995446,215.81491490011103,215.81491490011103,215.81491490011103,215.8977020001039,216.31517830002122,space,0.4921610001474619,None,,,,,,,,,,,,,,,,,,,,,,,,,P132,001,2025-03-06_10h57.41.517,posner_endo_new1,2024.2.4,60.047473460597196,2025-03-06 10h58.16.324589 +0000,
cube_r.png,0.1,10,catch,3,3,0,down,3.983482599956915,None,None,,,0,3,3,3,,,,,,,,,216.33122409996577,,,,,,,,,,,,,216.31534440000542,216.33122409996577,216.33122409996577,216.33122409996577,220.3276130000595,down,3.983482599956915,None,220.33438839996234,220.34682120010257,220.34682120010257,220.39364090003073,220.39386439998634,220.4101176999975,220.4101176999975,220.4101176999975,220.47664569993503,223.40818380005658,None,,,222.4913530999329,223.42373210005462,223.42373210005462,223.42373210005462,,,,,,,,,,,,,,,,,,,,,P132,001,2025-03-06_10h57.41.517,posner_endo_new1,2024.2.4,60.047473460597196,2025-03-06 10h58.16.324589 +0000,
cube_l.png,0.1,-0.31,valid,4,4,0,down,2.131670500151813,None,space,0.4495782998856157,None,0,4,4,4,,,,,,,,,223.42373210005462,,,,,,,,,,,,,223.40857139998116,223.42373210005462,223.42373210005462,223.42373210005462,225.5719254000578,down,2.131670500151813,None,225.57830259995535,225.58967419993132,225.58967419993132,225.63838250003755,225.63861849997193,225.6549957001116,225.6549957001116,225.6549957001116,225.72151860012673,226.10532480012625,space,0.4495782998856157,None,,,,,,,,,,,,,,,,,,,,,,,,,P132,001,2025-03-06_10h57.41.517,posner_endo_new1,2024.2.4,60.047473460597196,2025-03-06 10h58.16.324589 +0000,
cube_l.png,0.1,0.31,invalid,5,5,0,down,4.393605200108141,None,space,0.46852680016309023,None,0,5,5,5,,,,,,,,,226.1210519000888,,,,,,,,,,,,,226.1054980000481,226.1210519000888,226.1210519000888,226.1210519000888,230.51721740001813,down,4.393605200108141,None,230.52444280008785,230.53657729993574,230.53657729993574,230.58309129998088,230.58331730007194,230.60000410000794,230.60000410000794,230.60000410000794,230.6665026000701,231.08338170009665,space,0.46852680016309023,None,,,,,,,,,,,,,,,,,,,,,,,,,P132,001,2025-03-06_10h57.41.517,posner_endo_new1,2024.2.4,60.047473460597196,2025-03-06 10h58.16.324589 +0000,
cube_r.png,0.1,-0.31,invalid,6,6,0,down,4.489110600203276,None,space,0.6059533997904509,None,0,6,6,6,,,,,,,,,231.09938080003485,,,,,,,,,,,,,231.0835496999789,231.09938080003485,231.09938080003485,231.09938080003485,235.59535900014453,down,4.489110600203276,None,235.6020335999783,235.613830300048,235.613830300048,235.6609799999278,235.66120480000973,235.6780207999982,235.6780207999982,235.6780207999982,235.74473159993067,236.2946691000834,space,0.6059533997904509,None,,,,,,,,,,,,,,,,,,,,,,,,,P132,001,2025-03-06_10h57.41.517,posner_endo_new1,2024.2.4,60.047473460597196,2025-03-06 10h58.16.324589 +0000,
cube_r.png,0.1,0.31,valid,7,7,0,down,4.0523592999670655,None,space,0.4857516000047326,None,0,7,7,7,,,,,,,,,236.3106037999969,,,,,,,,,,,,,236.29483989998698,236.3106037999969,236.3106037999969,236.3106037999969,240.37390760006383,down,4.0523592999670655,None,240.38027140009217,240.3920017001219,240.3920017001219,240.44000139995478,240.44023160007782,240.45605179993436,240.45605179993436,240.45605179993436,240.53934779996052,240.95670560002327,space,0.4857516000047326,None,,,,,,,,,,,,,,,,,,,,,,,,,P132,001,2025-03-06_10h57.41.517,posner_endo_new1,2024.2.4,60.047473460597196,2025-03-06 10h58.16.324589 +0000,
cube_l.png,0.1,-0.31,valid,8,8,0,down,3.711359499953687,None,space,0.3819510000757873,None,0,8,8,8,,,,,,,,,240.97213850007392,,,,,,,,,,,,,240.9568692999892,240.97213850007392,240.97213850007392,240.97213850007392,244.68841159995645,down,3.711359499953687,None,244.71367010008544,244.72393220011145,244.72393220011145,244.751792000141,244.75210539996624,244.7682656000834,244.7682656000834,244.7682656000834,244.8520621000789,245.15284300013445,space,0.3819510000757873,None,,,,,,,,,,,,,,,,,,,,,,,,,P132,001,2025-03-06_10h57.41.517,posner_endo_new1,2024.2.4,60.047473460597196,2025-03-06 10h58.16.324589 +0000,
cube_r.png,0.1,-0.31,invalid,9,9,0,down,3.4988302001729608,None,space,0.4192019000183791,None,0,9,9,9,,,,,,,,,245.16825999994762,,,,,,,,,,,,,245.153080600081,245.16825999994762,245.16825999994762,245.16825999994762,248.6824467999395,down,3.4988302001729608,None,248.69284510007128,248.70284290006384,248.70284290006384,248.74810600001365,248.74841020000167,248.76461130008101,248.76461130008101,248.76461130008101,248.847857600078,249.19858320010826,space,0.4192019000183791,None,,,,,,,,,,,,,,,,,,,,,,,,,P132,001,2025-03-06_10h57.41.517,posner_endo_new1,2024.2.4,60.047473460597196,2025-03-06 10h58.16.324589 +0000,
cube_r.png,0.1,0.31,valid,10,10,0,down,4.461550400126725,None,space,0.40254170005209744,None,0,10,10,10,,,,,,,,,249.21410110010765,,,,,,,,,,,,,249.19882520008832,249.21410110010765,249.21410110010765,249.21410110010765,253.67771770013496,down,4.461550400126725,None,253.68686160002835,253.69642219995148,253.69642219995148,253.74304380011745,253.74326699995436,253.75955770001747,253.75955770001747,253.75955770001747,253.84321360010654,254.1761990999803,space,0.40254170005209744,None,,,,,,,,,,,,,,,,,,,,,,,,,P132,001,2025-03-06_10h57.41.517,posner_endo_new1,2024.2.4,60.047473460597196,2025-03-06 10h58.16.324589 +0000,
,,,,,,,,,,,,,,,,,,,,,,,,,,,,,,,,,,254.17631080001593,254.19244850007817,257.22262870008126,257.17421919992194,,,,,,,,,,,,,,,,,,,,,,,,,,,,,,,,,,,,,,,,,,,,,,P132,001,2025-03-06_10h57.41.517,posner_endo_new1,2024.2.4,60.047473460597196,2025-03-06 10h58.16.324589 +0000,
cube_l.png,0.1,10,catch,0,0,0,down,33.677009199978784,None,None,,,,,,,0,0,0,0,,,,,257.22262870008126,,,,,,,,,,,,,257.21348450006917,257.22262870008126,257.22262870008126,257.22262870008126,290.90582809993066,,,,290.9155876999721,290.9249386000447,290.9249386000447,290.97165830014274,290.97188520012423,290.9877194999717,290.9877194999717,290.9877194999717,291.0709194999654,293.9852523000445,,,,293.08605249994434,294.0016107999254,294.0016107999254,294.0016107999254,down,33.677009199978784,None,None,,,,,,,,,,,,,,,,,P132,001,2025-03-06_10h57.41.517,posner_endo_new1,2024.2.4,60.047473460597196,2025-03-06 10h58.16.324589 +0000,
cube_l.png,0.1,10,catch,1,1,0,down,1.4730986000504345,None,None,,,,,,,0,1,1,1,,,,,294.0016107999254,,,,,,,,,,,,,293.98541439999826,294.0016107999254,294.0016107999254,294.0016107999254,295.48440490011126,,,,295.4911730000749,295.5030300000217,295.5030300000217,295.5500932999421,295.550318100024,295.56677499995567,295.56677499995567,295.56677499995567,295.6330061000772,298.564251099946,,,,297.64810830005445,298.5805234001018,298.5805234001018,298.5805234001018,down,1.4730986000504345,None,None,,,,,,,,,,,,,,,,,P132,001,2025-03-06_10h57.41.517,posner_endo_new1,2024.2.4,60.047473460597196,2025-03-06 10h58.16.324589 +0000,
cube_l.png,0.1,0.31,invalid,2,2,0,down,1.3985977000556886,None,space,0.4563812001142651,None,,,,,0,2,2,2,,,,,298.5805234001018,,,,,,,,,,,,,298.56441110000014,298.5805234001018,298.5805234001018,298.5805234001018,299.9798662001267,,,,299.9862293000333,299.99796649999917,299.99796649999917,300.0457578001078,300.04598670010455,300.06231820001267,300.06231820001267,300.06231820001267,300.1455310001038,300.5290262999479,,,,,,,,down,1.3985977000556886,None,space,0.4563812001142651,None,,,,,,,,,,,,,,,P132,001,2025-03-06_10h57.41.517,posner_endo_new1,2024.2.4,60.047473460597196,2025-03-06 10h58.16.324589 +0000,
cube_l.png,0.1,0.31,invalid,3,3,0,down,4.466034799814224,None,space,0.41380829992704093,None,,,,,0,3,3,3,,,,,300.5451891999692,,,,,,,,,,,,,300.5291991000995,300.5451891999692,300.5451891999692,300.5451891999692,305.0244766001124,,,,305.03100740001537,305.0427427000832,305.0427427000832,305.0904767999891,305.0907020000741,305.10675649996847,305.10675649996847,305.10675649996847,305.17385879997164,305.5242705999408,,,,,,,,down,4.466034799814224,None,space,0.41380829992704093,None,,,,,,,,,,,,,,,P132,001,2025-03-06_10h57.41.517,posner_endo_new1,2024.2.4,60.047473460597196,2025-03-06 10h58.16.324589 +0000,
cube_l.png,0.1,-0.31,valid,4,4,0,down,4.446910899830982,None,space,0.37226219987496734,None,,,,,0,4,4,4,,,,,305.5400819000788,,,,,,,,,,,,,305.5244509000331,305.5400819000788,305.5400819000788,305.5400819000788,310.0028645999264,,,,310.0091196000576,310.0210104000289,310.0210104000289,310.0685068999883,310.068730100058,310.0854418000672,310.0854418000672,310.0854418000672,310.15191190014593,310.4689102000557,,,,,,,,down,4.446910899830982,None,space,0.37226219987496734,None,,,,,,,,,,,,,,,P132,001,2025-03-06_10h57.41.517,posner_endo_new1,2024.2.4,60.047473460597196,2025-03-06 10h58.16.324589 +0000,
cube_r.png,0.1,-0.31,invalid,5,5,0,down,5.310928100021556,None,space,0.42057399987243116,None,,,,,0,5,5,5,,,,,310.4849928000476,,,,,,,,,,,,,310.46908519999124,310.4849928000476,310.4849928000476,310.4849928000476,315.7969649999868,,,,315.80319710006006,315.81483900011517,315.81483900011517,315.8624931999948,315.86272360011935,315.8790575999301,315.8790575999301,315.8790575999301,315.94599930010736,316.31298350007273,,,,,,,,down,5.310928100021556,None,space,0.42057399987243116,None,,,,,,,,,,,,,,,P132,001,2025-03-06_10h57.41.517,posner_endo_new1,2024.2.4,60.047473460597196,2025-03-06 10h58.16.324589 +0000,
cube_r.png,0.1,0.31,valid,6,6,0,down,3.8018402999732643,None,space,0.3837526000570506,None,,,,,0,6,6,6,,,,,316.32904050010256,,,,,,,,,,,,,316.3131579000037,316.32904050010256,316.32904050010256,316.32904050010256,320.14246290014125,,,,320.1489572999999,320.1607540999539,320.1607540999539,320.20861720014364,320.20884410012513,320.2249123000074,320.2249123000074,320.2249123000074,320.3082006999757,320.62526380014606,,,,,,,,down,3.8018402999732643,None,space,0.3837526000570506,None,,,,,,,,,,,,,,,P132,001,2025-03-06_10h57.41.517,posner_endo_new1,2024.2.4,60.047473460597196,2025-03-06 10h58.16.324589 +0000,
cube_r.png,0.1,-0.31,invalid,7,7,0,down,3.4015679999720305,None,space,0.4067585999146104,None,,,,,0,7,7,7,,,,,320.64120210008696,,,,,,,,,,,,,320.6254374999553,320.64120210008696,320.64120210008696,320.64120210008696,324.0551813999191,,,,324.0613935000729,324.0731277000159,324.0731277000159,324.12118489993736,324.1214076001197,324.1376305001322,324.1376305001322,324.1376305001322,324.20424619992264,324.5546164000407,,,,,,,,down,3.4015679999720305,None,space,0.4067585999146104,None,,,,,,,,,,,,,,,P132,001,2025-03-06_10h57.41.517,posner_endo_new1,2024.2.4,60.047473460597196,2025-03-06 10h58.16.324589 +0000,
cube_l.png,0.1,-0.31,valid,8,8,0,down,4.496341899968684,None,space,0.4488019000273198,None,,,,,0,8,8,8,,,,,324.5705766999163,,,,,,,,,,,,,324.5547929999884,324.5705766999163,324.5705766999163,324.5705766999163,329.08330100006424,,,,329.0895007001236,329.1011602000799,329.1011602000799,329.1492979999166,329.14952350012027,329.165822400013,329.165822400013,329.165822400013,329.24913370003924,329.616333700018,,,,,,,,down,4.496341899968684,None,space,0.4488019000273198,None,,,,,,,,,,,,,,,P132,001,2025-03-06_10h57.41.517,posner_endo_new1,2024.2.4,60.047473460597196,2025-03-06 10h58.16.324589 +0000,
cube_r.png,0.1,-0.31,invalid,9,9,0,down,4.347162300022319,None,space,0.44664289988577366,None,,,,,0,9,9,9,,,,,329.6319403001107,,,,,,,,,,,,,329.61650789994746,329.6319403001107,329.6319403001107,329.6319403001107,333.99490709998645,,,,334.00097159994766,334.01262419996783,334.01262419996783,334.0610664000269,334.06129959993996,334.07712409994565,334.07712409994565,334.07712409994565,334.16074929991737,334.5279099000618,,,,,,,,down,4.347162300022319,None,space,0.44664289988577366,None,,,,,,,,,,,,,,,P132,001,2025-03-06_10h57.41.517,posner_endo_new1,2024.2.4,60.047473460597196,2025-03-06 10h58.16.324589 +0000,
cube_l.png,0.1,0.31,invalid,10,10,0,down,4.259237699909136,None,space,0.39845219999551773,None,,,,,0,10,10,10,,,,,334.54372439999133,,,,,,,,,,,,,334.528086300008,334.54372439999133,334.54372439999133,334.54372439999133,338.8063765000552,,,,338.812364500016,338.82407109998167,338.82407109998167,338.87215370009653,338.8723850999959,338.8887930000201,338.8887930000201,338.8887930000201,338.9559319000691,339.28966000000946,,,,,,,,down,4.259237699909136,None,space,0.39845219999551773,None,,,,,,,,,,,,,,,P132,001,2025-03-06_10h57.41.517,posner_endo_new1,2024.2.4,60.047473460597196,2025-03-06 10h58.16.324589 +0000,
cube_r.png,0.1,-0.31,invalid,11,11,0,down,4.353792099980637,None,space,0.4321079000364989,None,,,,,0,11,11,11,,,,,339.3055084999651,,,,,,,,,,,,,339.2898329999298,339.3055084999651,339.3055084999651,339.3055084999651,343.668545300141,,,,343.6743972999975,343.68666450004093,343.68666450004093,343.7343556000851,343.73458210006356,343.75059670000337,343.75059670000337,343.75059670000337,343.83387250010855,344.1851467001252,,,,,,,,down,4.353792099980637,None,space,0.4321079000364989,None,,,,,,,,,,,,,,,P132,001,2025-03-06_10h57.41.517,posner_endo_new1,2024.2.4,60.047473460597196,2025-03-06 10h58.16.324589 +0000,
cube_r.png,0.1,0.31,valid,12,12,0,down,3.0353669999167323,None,space,0.48802979988977313,None,,,,,0,12,12,12,,,,,344.2001847999636,,,,,,,,,,,,,344.1855204999447,344.2001847999636,344.2001847999636,344.2001847999636,347.2483723999467,,,,347.2564842000138,347.26698560011573,347.26698560011573,347.3138908999972,347.3141161999665,347.33059959998354,347.33059959998354,347.33059959998354,347.413819400128,347.8309557000175,,,,,,,,down,3.0353669999167323,None,space,0.48802979988977313,None,,,,,,,,,,,,,,,P132,001,2025-03-06_10h57.41.517,posner_endo_new1,2024.2.4,60.047473460597196,2025-03-06 10h58.16.324589 +0000,
cube_l.png,0.1,10,catch,13,13,0,down,4.436920000007376,None,None,,,,,,,0,13,13,13,,,,,347.84676510002464,,,,,,,,,,,,,347.83112840005197,347.84676510002464,347.84676510002464,347.84676510002464,352.2928558001295,,,,352.29927200009115,352.31087330006994,352.31087330006994,352.3585068001412,352.3587309999857,352.3753756999504,352.3753756999504,352.3753756999504,352.44212030014023,355.3727349000983,,,,354.45626090001315,355.3884992999956,355.3884992999956,355.3884992999956,down,4.436920000007376,None,None,,,,,,,,,,,,,,,,,P132,001,2025-03-06_10h57.41.517,posner_endo_new1,2024.2.4,60.047473460597196,2025-03-06 10h58.16.324589 +0000,
cube_r.png,0.1,-0.31,invalid,14,14,0,down,1.6790726000908762,None,space,0.4082356998696923,None,,,,,0,14,14,14,,,,,355.3884992999956,,,,,,,,,,,,,355.3728968000505,355.3884992999956,355.3884992999956,355.3884992999956,357.0715256999247,,,,357.07797119999304,357.08966329996474,357.08966329996474,357.1372676999308,357.13749380013905,357.1537588001229,357.1537588001229,357.1537588001229,357.2205527999904,357.5709852001164,,,,,,,,down,1.6790726000908762,None,space,0.4082356998696923,None,,,,,,,,,,,,,,,P132,001,2025-03-06_10h57.41.517,posner_endo_new1,2024.2.4,60.047473460597196,2025-03-06 10h58.16.324589 +0000,
cube_l.png,0.1,-0.31,valid,15,15,0,down,4.672002600040287,None,space,0.38237089989706874,None,,,,,0,15,15,15,,,,,357.5869265999645,,,,,,,,,,,,,357.5711697000079,357.5869265999645,357.5869265999645,357.5869265999645,362.2660620000679,,,,362.27196760009974,362.28376489994116,362.28376489994116,362.33163870009594,362.3318654000759,362.3484452001285,362.3484452001285,362.3484452001285,362.4151215001475,362.7325287000276,,,,,,,,down,4.672002600040287,None,space,0.38237089989706874,None,,,,,,,,,,,,,,,P132,001,2025-03-06_10h57.41.517,posner_endo_new1,2024.2.4,60.047473460597196,2025-03-06 10h58.16.324589 +0000,
cube_r.png,0.1,10,catch,16,16,0,down,4.359872400062159,None,None,,,,,,,0,16,16,16,,,,,362.7478477000259,,,,,,,,,,,,,362.7327008000575,362.7478477000259,362.7478477000259,362.7478477000259,367.1112594001461,,,,367.1171577000059,367.12879490014166,367.12879490014166,367.1772402001079,367.17746459995396,367.19332460011356,367.19332460011356,367.19332460011356,367.2769001000561,370.19060930004343,,,,369.291020500008,370.20675559993833,370.20675559993833,370.20675559993833,down,4.359872400062159,None,None,,,,,,,,,,,,,,,,,P132,001,2025-03-06_10h57.41.517,posner_endo_new1,2024.2.4,60.047473460597196,2025-03-06 10h58.16.324589 +0000,
cube_r.png,0.1,10,catch,17,17,0,down,1.764269300037995,None,None,,,,,,,0,17,17,17,,,,,370.20675559993833,,,,,,,,,,,,,370.1907707999926,370.20675559993833,370.20675559993833,370.20675559993833,371.97277950006537,,,,371.9790793999564,371.9909405000508,371.9909405000508,372.0385944999289,372.0388178001158,372.05547880008817,372.05547880008817,372.05547880008817,372.12191900005564,375.05284289992414,,,,374.1364772999659,375.0689535001293,375.0689535001293,375.0689535001293,down,1.764269300037995,None,None,,,,,,,,,,,,,,,,,P132,001,2025-03-06_10h57.41.517,posner_endo_new1,2024.2.4,60.047473460597196,2025-03-06 10h58.16.324589 +0000,
cube_l.png,0.1,0.31,invalid,18,18,0,down,1.9182908001821488,None,space,0.4045619999524206,None,,,,,0,18,18,18,,,,,375.0689535001293,,,,,,,,,,,,,375.0530030000955,375.0689535001293,375.0689535001293,375.0689535001293,377.0004563999828,,,,377.0063602000009,377.01795000000857,377.01795000000857,377.0670575001277,377.067282400094,377.0837203999981,377.0837203999981,377.0837203999981,377.1503053000197,377.5005111999344,,,,,,,,down,1.9182908001821488,None,space,0.4045619999524206,None,,,,,,,,,,,,,,,P132,001,2025-03-06_10h57.41.517,posner_endo_new1,2024.2.4,60.047473460597196,2025-03-06 10h58.16.324589 +0000,
cube_l.png,0.1,10,catch,19,19,0,down,4.134412500075996,None,None,,,,,,,0,19,19,19,,,,,377.5165184000507,,,,,,,,,,,,,377.50068400008604,377.5165184000507,377.5165184000507,377.5165184000507,381.66287430003285,,,,381.66876289993525,381.6802549001295,381.6802549001295,381.7283711999189,381.7285957999993,381.745597000001,381.745597000001,381.745597000001,381.8120494999457,384.74296490009874,,,,383.8267228999175,384.7591119001154,384.7591119001154,384.7591119001154,down,4.134412500075996,None,None,,,,,,,,,,,,,,,,,P132,001,2025-03-06_10h57.41.517,posner_endo_new1,2024.2.4,60.047473460597196,2025-03-06 10h58.16.324589 +0000,
cube_l.png,0.1,0.31,invalid,20,20,0,down,1.2920174000319093,None,space,0.47383200004696846,None,,,,,0,20,20,20,,,,,384.7591119001154,,,,,,,,,,,,,384.74312660004944,384.7591119001154,384.7591119001154,384.7591119001154,386.05873719998635,,,,386.06467240001075,386.0763463000767,386.0763463000767,386.1242327000946,386.1244622000959,386.140550600132,386.140550600132,386.140550600132,386.2241704000626,386.6245423001237,,,,,,,,down,1.2920174000319093,None,space,0.47383200004696846,None,,,,,,,,,,,,,,,P132,001,2025-03-06_10h57.41.517,posner_endo_new1,2024.2.4,60.047473460597196,2025-03-06 10h58.16.324589 +0000,
cube_l.png,0.1,-0.31,valid,21,21,0,down,4.298968599876389,None,space,0.6680841001216322,None,,,,,0,21,21,21,,,,,386.64048649999313,,,,,,,,,,,,,386.62472150009125,386.64048649999313,386.64048649999313,386.64048649999313,390.95342139992863,,,,390.95950430002995,390.9713314000983,390.9713314000983,391.0189845999703,391.0192106999457,391.03595119994134,391.03595119994134,391.03595119994134,391.1028406000696,391.7189839000348,,,,,,,,down,4.298968599876389,None,space,0.6680841001216322,None,,,,,,,,,,,,,,,P132,001,2025-03-06_10h57.41.517,posner_endo_new1,2024.2.4,60.047473460597196,2025-03-06 10h58.16.324589 +0000,
cube_r.png,0.1,0.31,valid,22,22,0,down,4.723925000056624,None,space,0.37901940010488033,None,,,,,0,22,22,22,,,,,391.73523290012963,,,,,,,,,,,,,391.7191671000328,391.73523290012963,391.73523290012963,391.73523290012963,396.4646239001304,,,,396.47093300009146,396.482844900107,396.482844900107,396.53044040012173,396.5306635000743,396.54650830011815,396.54650830011815,396.54650830011815,396.630353000015,396.93065160000697,,,,,,,,down,4.723925000056624,None,space,0.37901940010488033,None,,,,,,,,,,,,,,,P132,001,2025-03-06_10h57.41.517,posner_endo_new1,2024.2.4,60.047473460597196,2025-03-06 10h58.16.324589 +0000,
cube_r.png,0.1,-0.31,invalid,23,23,0,down,4.29694370017387,None,space,0.4116579999681562,None,,,,,0,23,23,23,,,,,396.9465700001456,,,,,,,,,,,,,396.9308239000384,396.9465700001456,396.9465700001456,396.9465700001456,401.2612094001379,,,,401.28382829995826,401.29366969992407,401.29366969992407,401.32522820006125,401.32557770004496,401.34215459995903,401.34215459995903,401.34215459995903,401.4252729001455,401.75951350014657,,,,,,,,down,4.29694370017387,None,space,0.4116579999681562,None,,,,,,,,,,,,,,,P132,001,2025-03-06_10h57.41.517,posner_endo_new1,2024.2.4,60.047473460597196,2025-03-06 10h58.16.324589 +0000,
cube_r.png,0.1,0.31,valid,24,24,0,down,3.4369138998445123,None,space,0.4526320998556912,None,,,,,0,24,24,24,,,,,401.7748996000737,,,,,,,,,,,,,401.75982240005396,401.7748996000737,401.7748996000737,401.7748996000737,405.22211299999617,,,,405.2281033000909,405.23978770012036,405.23978770012036,405.2883939000312,405.2886209001299,405.3047929999884,405.3047929999884,405.3047929999884,405.37146489997394,405.771661600098,,,,,,,,down,3.4369138998445123,None,space,0.4526320998556912,None,,,,,,,,,,,,,,,P132,001,2025-03-06_10h57.41.517,posner_endo_new1,2024.2.4,60.047473460597196,2025-03-06 10h58.16.324589 +0000,
cube_r.png,0.1,-0.31,invalid,25,25,0,down,3.247874000109732,None,space,0.3922745999880135,None,,,,,0,25,25,25,,,,,405.7875640001148,,,,,,,,,,,,,405.7718382999301,405.7875640001148,405.7875640001148,405.7875640001148,409.05168829998,,,,409.05777349998243,409.06976360012777,409.06976360012777,409.1171488999389,409.117376799928,409.13368809991516,409.13368809991516,409.13368809991516,409.20069490000606,409.53435249999166,,,,,,,,down,3.247874000109732,None,space,0.3922745999880135,None,,,,,,,,,,,,,,,P132,001,2025-03-06_10h57.41.517,posner_endo_new1,2024.2.4,60.047473460597196,2025-03-06 10h58.16.324589 +0000,
cube_l.png,0.1,-0.31,valid,26,26,0,down,3.652380600105971,None,space,0.39251959999091923,None,,,,,0,26,26,26,,,,,409.5504624999594,,,,,,,,,,,,,409.5345262000337,409.5504624999594,409.5504624999594,409.5504624999594,413.2136703999713,,,,413.21970560005866,413.23164870007895,413.23164870007895,413.2800571001135,413.2802800000645,413.2966843000613,413.2966843000613,413.2966843000613,413.3632577001117,413.69692400004715,,,,,,,,down,3.652380600105971,None,space,0.39251959999091923,None,,,,,,,,,,,,,,,P132,001,2025-03-06_10h57.41.517,posner_endo_new1,2024.2.4,60.047473460597196,2025-03-06 10h58.16.324589 +0000,
cube_r.png,0.1,0.31,valid,27,27,0,down,4.523266399977729,None,space,0.5275238000322133,None,,,,,0,27,27,27,,,,,413.7125661999453,,,,,,,,,,,,,413.6971016000025,413.7125661999453,413.7125661999453,413.7125661999453,418.24246990005486,,,,418.2485659001395,418.26059209997766,418.26059209997766,418.3083363000769,418.3085672999732,418.32491830014624,418.32491830014624,418.32491830014624,418.4079480001237,418.85825329995714,,,,,,,,down,4.523266399977729,None,space,0.5275238000322133,None,,,,,,,,,,,,,,,P132,001,2025-03-06_10h57.41.517,posner_endo_new1,2024.2.4,60.047473460597196,2025-03-06 10h58.16.324589 +0000,
cube_r.png,0.1,10,catch,28,28,0,down,4.337404299993068,None,None,,,,,,,0,28,28,28,,,,,418.87404099991545,,,,,,,,,,,,,418.8584305001423,418.87404099991545,418.87404099991545,418.87404099991545,423.2204488001298,,,,423.22631920012645,423.23798880004324,423.23798880004324,423.28659670008346,423.28682160004973,423.3031840999611,423.3031840999611,423.3031840999611,423.369670300046,426.2999867000617,,,,425.3842400999274,426.316715199966,426.316715199966,426.316715199966,down,4.337404299993068,None,None,,,,,,,,,,,,,,,,,P132,001,2025-03-06_10h57.41.517,posner_endo_new1,2024.2.4,60.047473460597196,2025-03-06 10h58.16.324589 +0000,
cube_r.png,0.1,0.31,valid,29,29,0,down,3.150399799924344,None,space,0.35847089998424053,None,,,,,0,29,29,29,,,,,426.316715199966,,,,,,,,,,,,,426.30014910013415,426.316715199966,426.316715199966,426.316715199966,429.48078040010296,,,,429.4867839999497,429.4982418001164,429.4982418001164,429.54675560002215,429.5469802999869,429.5633364999667,429.5633364999667,429.5633364999667,429.6298196001444,429.93048870004714,,,,,,,,down,3.150399799924344,None,space,0.35847089998424053,None,,,,,,,,,,,,,,,P132,001,2025-03-06_10h57.41.517,posner_endo_new1,2024.2.4,60.047473460597196,2025-03-06 10h58.16.324589 +0000,
cube_r.png,0.1,0.31,valid,30,30,0,down,4.240882300073281,None,space,0.42829840001650155,None,,,,,0,30,30,30,,,,,429.94633039995097,,,,,,,,,,,,,429.9306700001471,429.94633039995097,429.94633039995097,429.94633039995097,434.19228870002553,,,,434.1983859001193,434.21013709995896,434.21013709995896,434.2585058999248,434.2587308001239,434.2753087999299,434.2753087999299,434.2753087999299,434.34213620005175,434.7088679999579,,,,,,,,down,4.240882300073281,None,space,0.42829840001650155,None,,,,,,,,,,,,,,,P132,001,2025-03-06_10h57.41.517,posner_endo_new1,2024.2.4,60.047473460597196,2025-03-06 10h58.16.324589 +0000,
cube_l.png,0.1,-0.31,valid,31,31,0,down,4.014870599843562,None,space,0.3405911000445485,None,,,,,0,31,31,31,,,,,434.7247093000915,,,,,,,,,,,,,434.7090616999194,434.7247093000915,434.7247093000915,434.7247093000915,438.7545956999529,,,,438.76054059993476,438.7721800999716,438.7721800999716,438.8206826001406,438.82091270014644,438.83721000002697,438.83721000002697,438.83721000002697,438.9038623999804,439.18748180009425,,,,,,,,down,4.014870599843562,None,space,0.3405911000445485,None,,,,,,,,,,,,,,,P132,001,2025-03-06_10h57.41.517,posner_endo_new1,2024.2.4,60.047473460597196,2025-03-06 10h58.16.324589 +0000,
cube_r.png,0.1,0.31,valid,32,32,0,down,4.392512999940664,None,space,0.43831580015830696,None,,,,,0,32,32,32,,,,,439.2032733000815,,,,,,,,,,,,,439.18765590013936,439.2032733000815,439.2032733000815,439.2032733000815,443.5998917000834,,,,443.60571469995193,443.6174896999728,443.6174896999728,443.6657108999789,443.6659361999482,443.6822890001349,443.6822890001349,443.6822890001349,443.7655247999355,444.1322332001291,,,,,,,,down,4.392512999940664,None,space,0.43831580015830696,None,,,,,,,,,,,,,,,P132,001,2025-03-06_10h57.41.517,posner_endo_new1,2024.2.4,60.047473460597196,2025-03-06 10h58.16.324589 +0000,
cube_r.png,0.1,-0.31,invalid,33,33,0,down,2.6951823998242617,None,space,0.7176887998357415,None,,,,,0,33,33,33,,,,,444.14849460008554,,,,,,,,,,,,,444.1324136001058,444.14849460008554,444.14849460008554,444.14849460008554,446.8463644001167,,,,446.85222060000524,446.86387949995697,446.86387949995697,446.9120605001226,446.9122953999322,446.9288717000745,446.9288717000745,446.9288717000745,446.99511720007285,447.66182860010304,,,,,,,,down,2.6951823998242617,None,space,0.7176887998357415,None,,,,,,,,,,,,,,,P132,001,2025-03-06_10h57.41.517,posner_endo_new1,2024.2.4,60.047473460597196,2025-03-06 10h58.16.324589 +0000,
cube_r.png,0.1,10,catch,34,34,0,down,3.6049923000391573,None,None,,,,,,,0,34,34,34,,,,,447.6781814000569,,,,,,,,,,,,,447.6620002000127,447.6781814000569,447.6781814000569,447.6781814000569,451.29134440002963,,,,451.29734109994024,451.3088555999566,451.3088555999566,451.3577159999404,451.3579393001273,451.3743938000407,451.3743938000407,451.3743938000407,451.4408100999426,454.3717833000701,,,,453.4553571001161,454.38745369995013,454.38745369995013,454.38745369995013,down,3.6049923000391573,None,None,,,,,,,,,,,,,,,,,P132,001,2025-03-06_10h57.41.517,posner_endo_new1,2024.2.4,60.047473460597196,2025-03-06 10h58.16.324589 +0000,
cube_r.png,0.1,0.31,valid,35,35,0,down,1.8876964999362826,None,space,0.43696890003047884,None,,,,,0,35,35,35,,,,,454.38745369995013,,,,,,,,,,,,,454.37194330012426,454.38745369995013,454.38745369995013,454.38745369995013,456.28670329996385,,,,456.29267550003715,456.30432470003143,456.30432470003143,456.35241960012354,456.3526417000685,456.3693556000944,456.3693556000944,456.3693556000944,456.4525333000347,456.81956130010076,,,,,,,,down,1.8876964999362826,None,space,0.43696890003047884,None,,,,,,,,,,,,,,,P132,001,2025-03-06_10h57.41.517,posner_endo_new1,2024.2.4,60.047473460597196,2025-03-06 10h58.16.324589 +0000,
cube_r.png,0.1,-0.31,invalid,36,36,0,down,4.896512000123039,None,space,0.4327124999836087,None,,,,,0,36,36,36,,,,,456.83485800004564,,,,,,,,,,,,,456.8197503001429,456.83485800004564,456.83485800004564,456.83485800004564,461.74768529995345,,,,461.75379200000316,461.76527740014717,461.76527740014717,461.813889299985,461.8141127000563,461.8299217999447,461.8299217999447,461.8299217999447,461.8965207999572,462.26355640008114,,,,,,,,down,4.896512000123039,None,space,0.4327124999836087,None,,,,,,,,,,,,,,,P132,001,2025-03-06_10h57.41.517,posner_endo_new1,2024.2.4,60.047473460597196,2025-03-06 10h58.16.324589 +0000,
cube_l.png,0.1,0.31,invalid,37,37,0,down,4.284252299927175,None,space,0.46831970009952784,None,,,,,0,37,37,37,,,,,462.279840500094,,,,,,,,,,,,,462.2637314000167,462.279840500094,462.279840500094,462.279840500094,466.5780150000937,,,,466.6011183001101,466.613472300116,466.613472300116,466.6419512000866,466.642390999943,466.6583980000578,466.6583980000578,466.6583980000578,466.7416524,467.1425636999775,,,,,,,,down,4.284252299927175,None,space,0.46831970009952784,None,,,,,,,,,,,,,,,P132,001,2025-03-06_10h57.41.517,posner_endo_new1,2024.2.4,60.047473460597196,2025-03-06 10h58.16.324589 +0000,
cube_l.png,0.1,0.31,invalid,38,38,0,down,2.757076899986714,None,space,0.4948861999437213,None,,,,,0,38,38,38,,,,,467.15823719999753,,,,,,,,,,,,,467.1428324000444,467.15823719999753,467.15823719999753,467.15823719999753,469.9232038001064,,,,469.9328557001427,469.9429365999531,469.9429365999531,469.9886990999803,469.989013500046,470.0052114999853,470.0052114999853,470.0052114999853,470.0884648999199,470.50602690014057,,,,,,,,down,2.757076899986714,None,space,0.4948861999437213,None,,,,,,,,,,,,,,,P132,001,2025-03-06_10h57.41.517,posner_endo_new1,2024.2.4,60.047473460597196,2025-03-06 10h58.16.324589 +0000,
cube_r.png,0.1,0.31,valid,39,39,0,down,4.097965500084683,None,space,0.5420796000398695,None,,,,,0,39,39,39,,,,,470.52130990009755,,,,,,,,,,,,,470.50628770003095,470.52130990009755,470.52130990009755,470.52130990009755,474.6348357000388,,,,474.64440739993006,474.6543559001293,474.6543559001293,474.70054100011475,474.7008464001119,474.71703479997814,474.71703479997814,474.71703479997814,474.8004165000748,475.2676919000223,,,,,,,,down,4.097965500084683,None,space,0.5420796000398695,None,,,,,,,,,,,,,,,P132,001,2025-03-06_10h57.41.517,posner_endo_new1,2024.2.4,60.047473460597196,2025-03-06 10h58.16.324589 +0000,
cube_l.png,0.1,0.31,invalid,40,40,0,down,3.7445316000375897,None,space,0.4570089001208544,None,,,,,0,40,40,40,,,,,475.28325779992156,,,,,,,,,,,,,475.2679445000831,475.28325779992156,475.28325779992156,475.28325779992156,479.0305614999961,,,,479.04017050005496,479.050265799975,479.050265799975,479.09614160005003,479.09644689993,479.1126048001461,479.1126048001461,479.1126048001461,479.195865200134,479.57979290001094,,,,,,,,down,3.7445316000375897,None,space,0.4570089001208544,None,,,,,,,,,,,,,,,P132,001,2025-03-06_10h57.41.517,posner_endo_new1,2024.2.4,60.047473460597196,2025-03-06 10h58.16.324589 +0000,
cube_l.png,0.1,10,catch,41,41,0,down,3.8572728999424726,None,None,,,,,,,0,41,41,41,,,,,479.59538060007617,,,,,,,,,,,,,479.58004299993627,479.59538060007617,479.59538060007617,479.59538060007617,483.4593146000989,,,,483.46904639992863,483.47921720007434,483.47921720007434,483.5249719999265,483.5252813999541,483.54135140008293,483.54135140008293,483.54135140008293,483.6246686000377,486.53901270008646,,,,485.639227299951,486.55505530000664,486.55505530000664,486.55505530000664,down,3.8572728999424726,None,None,,,,,,,,,,,,,,,,,P132,001,2025-03-06_10h57.41.517,posner_endo_new1,2024.2.4,60.047473460597196,2025-03-06 10h58.16.324589 +0000,
cube_l.png,0.1,-0.31,valid,42,42,0,down,1.5925119000021368,None,space,0.4479398999828845,None,,,,,0,42,42,42,,,,,486.55505530000664,,,,,,,,,,,,,486.5392561000772,486.55505530000664,486.55505530000664,486.55505530000664,488.1545852001291,,,,488.16423010011204,488.17430690000765,488.17430690000765,488.2200859999284,488.22039490006864,488.2365590000991,488.2365590000991,488.2365590000991,488.3199066000525,488.6874234001152,,,,,,,,down,1.5925119000021368,None,space,0.4479398999828845,None,,,,,,,,,,,,,,,P132,001,2025-03-06_10h57.41.517,posner_endo_new1,2024.2.4,60.047473460597196,2025-03-06 10h58.16.324589 +0000,
cube_l.png,0.1,10,catch,43,43,0,down,3.6609279001131654,None,None,,,,,,,0,43,43,43,,,,,488.70281910011545,,,,,,,,,,,,,488.6876741000451,488.70281910011545,488.70281910011545,488.70281910011545,492.3667798000388,,,,492.3763125000987,492.3863530000672,492.3863530000672,492.43249269993976,492.43280120007694,492.44901450001635,492.44901450001635,492.44901450001635,492.5323771999683,495.4465572000481,,,,494.5468347999267,495.46256779995747,495.46256779995747,495.46256779995747,down,3.6609279001131654,None,None,,,,,,,,,,,,,,,,,P132,001,2025-03-06_10h57.41.517,posner_endo_new1,2024.2.4,60.047473460597196,2025-03-06 10h58.16.324589 +0000,
cube_l.png,0.1,0.31,invalid,44,44,0,down,1.5331171001307666,None,space,0.5195179001893848,None,,,,,0,44,44,44,,,,,495.46256779995747,,,,,,,,,,,,,495.4467925999779,495.46256779995747,495.46256779995747,495.46256779995747,497.0134732001461,,,,497.03686029999517,497.0483093999792,497.0483093999792,497.0773990000598,497.07779190014116,497.09385600010864,497.09385600010864,497.09385600010864,497.1771217000205,497.62806969997473,,,,,,,,down,1.5331171001307666,None,space,0.5195179001893848,None,,,,,,,,,,,,,,,P132,001,2025-03-06_10h57.41.517,posner_endo_new1,2024.2.4,60.047473460597196,2025-03-06 10h58.16.324589 +0000,
cube_l.png,0.1,0.31,invalid,45,45,0,down,3.4958923999220133,None,space,0.4279777000192553,None,,,,,0,45,45,45,,,,,497.64329749997705,,,,,,,,,,,,,497.62840420007706,497.64329749997705,497.64329749997705,497.64329749997705,501.14119870006107,,,,501.1536219001282,501.1636959000025,501.1636959000025,501.2065135000739,501.20690260012634,501.22298049996607,501.22298049996607,501.22298049996607,501.3062510001473,501.65739320009016,,,,,,,,down,3.4958923999220133,None,space,0.4279777000192553,None,,,,,,,,,,,,,,,P132,001,2025-03-06_10h57.41.517,posner_endo_new1,2024.2.4,60.047473460597196,2025-03-06 10h58.16.324589 +0000,
cube_r.png,0.1,0.31,valid,46,46,0,down,3.9311957000754774,None,space,0.4006828002166003,None,,,,,0,46,46,46,,,,,501.67252660007216,,,,,,,,,,,,,501.65771690011024,501.67252660007216,501.67252660007216,501.67252660007216,505.6198237000499,,,,505.632440000074,505.6424480001442,505.6424480001442,505.6852740000468,505.6856685001403,505.7017302000895,505.7017302000895,505.7017302000895,505.78498480003327,506.119347400032,,,,,,,,down,3.9311957000754774,None,space,0.4006828002166003,None,,,,,,,,,,,,,,,P132,001,2025-03-06_10h57.41.517,posner_endo_new1,2024.2.4,60.047473460597196,2025-03-06 10h58.16.324589 +0000,
cube_l.png,0.1,-0.31,valid,47,47,0,down,4.068972900044173,None,space,0.49647229979746044,None,,,,,0,47,47,47,,,,,506.13464180007577,,,,,,,,,,,,,506.1196741000749,506.13464180007577,506.13464180007577,506.13464180007577,510.2151128000114,,,,510.2276668001432,510.237855900079,510.237855900079,510.28093579993583,510.28119629994035,510.29734449996613,510.29734449996613,510.29734449996613,510.38071590010077,510.7979236000683,,,,,,,,down,4.068972900044173,None,space,0.49647229979746044,None,,,,,,,,,,,,,,,P132,001,2025-03-06_10h57.41.517,posner_endo_new1,2024.2.4,60.047473460597196,2025-03-06 10h58.16.324589 +0000,
cube_r.png,0.1,-0.31,invalid,48,48,0,down,5.214499699883163,None,space,0.4174474000465125,None,,,,,0,48,48,48,,,,,510.8136122999713,,,,,,,,,,,,,510.7981374999508,510.8136122999713,510.8136122999713,510.8136122999713,516.0423463000916,,,,516.0502675999887,516.0612681999337,516.0612681999337,516.1082172999159,516.1084785000421,516.1248926999979,516.1248926999979,516.1248926999979,516.191463300027,516.5585964999627,,,,,,,,down,5.214499699883163,None,space,0.4174474000465125,None,,,,,,,,,,,,,,,P132,001,2025-03-06_10h57.41.517,posner_endo_new1,2024.2.4,60.047473460597196,2025-03-06 10h58.16.324589 +0000,
cube_r.png,0.1,10,catch,49,49,0,down,3.8137052000965923,None,None,,,,,,,0,49,49,49,,,,,516.5743170001078,,,,,,,,,,,,,516.5588031001389,516.5743170001078,516.5743170001078,516.5743170001078,520.4047805999871,,,,520.412544199964,520.4234656000044,520.4234656000044,520.4705141999293,520.4707740999293,520.4871020000428,520.4871020000428,520.4871020000428,520.5703477000352,523.4845756001305,,,,522.5848914999515,523.5006498999428,523.5006498999428,523.5006498999428,down,3.8137052000965923,None,None,,,,,,,,,,,,,,,,,P132,001,2025-03-06_10h57.41.517,posner_endo_new1,2024.2.4,60.047473460597196,2025-03-06 10h58.16.324589 +0000,
cube_l.png,0.1,-0.31,valid,50,50,0,down,1.846798700047657,None,space,0.40846500010229647,None,,,,,0,50,50,50,,,,,523.5006498999428,,,,,,,,,,,,,523.4847685999703,523.5006498999428,523.5006498999428,523.5006498999428,525.3497504999395,,,,525.3575172999408,525.3683466000948,525.3683466000948,525.4155790000223,525.4158427999355,525.4319321999792,525.4319321999792,525.4319321999792,525.515331099974,525.8492694001179,,,,,,,,down,1.846798700047657,None,space,0.40846500010229647,None,,,,,,,,,,,,,,,P132,001,2025-03-06_10h57.41.517,posner_endo_new1,2024.2.4,60.047473460597196,2025-03-06 10h58.16.324589 +0000,
cube_l.png,0.1,-0.31,valid,51,51,0,down,3.506054300116375,None,space,0.46382129983976483,None,,,,,0,51,51,51,,,,,525.8649705999997,,,,,,,,,,,,,525.8494790000841,525.8649705999997,525.8649705999997,525.8649705999997,529.3789371999446,,,,529.3867516999599,529.3975563000422,529.3975563000422,529.4447689000517,529.4450352001004,529.4611987001263,529.4611987001263,529.4611987001263,529.5444046000484,529.9281661000568,,,,,,,,down,3.506054300116375,None,space,0.46382129983976483,None,,,,,,,,,,,,,,,P132,001,2025-03-06_10h57.41.517,posner_endo_new1,2024.2.4,60.047473460597196,2025-03-06 10h58.16.324589 +0000,
cube_r.png,0.1,-0.31,invalid,52,52,0,down,3.9877258997876197,None,space,0.493833500193432,None,,,,,0,52,52,52,,,,,529.9439459999558,,,,,,,,,,,,,529.9283745000139,529.9439459999558,529.9439459999558,529.9439459999558,533.9408430000767,,,,533.9486531000584,533.9595931000076,533.9595931000076,534.006712500006,534.0069756000303,534.0231451001018,534.0231451001018,534.0231451001018,534.1064884001389,534.5236710000318,,,,,,,,down,3.9877258997876197,None,space,0.493833500193432,None,,,,,,,,,,,,,,,P132,001,2025-03-06_10h57.41.517,posner_endo_new1,2024.2.4,60.047473460597196,2025-03-06 10h58.16.324589 +0000,
cube_l.png,0.1,-0.31,valid,53,53,0,down,3.784546800190583,None,space,0.3642589000519365,None,,,,,0,53,53,53,,,,,534.5391534999944,,,,,,,,,,,,,534.5238767000847,534.5391534999944,534.5391534999944,534.5391534999944,538.3363717999309,,,,538.3441759000998,538.3550162001047,538.3550162001047,538.4021298000589,538.4023903999478,538.4186420999467,538.4186420999467,538.4186420999467,538.5020592999645,538.7858337999787,,,,,,,,down,3.784546800190583,None,space,0.3642589000519365,None,,,,,,,,,,,,,,,P132,001,2025-03-06_10h57.41.517,posner_endo_new1,2024.2.4,60.047473460597196,2025-03-06 10h58.16.324589 +0000,
cube_r.png,0.1,10,catch,54,54,0,down,4.417615700047463,None,None,,,,,,,0,54,54,54,,,,,538.8017198001035,,,,,,,,,,,,,538.7860407999251,538.8017198001035,538.8017198001035,538.8017198001035,543.2313773001079,,,,543.2391463001259,543.250192000065,543.250192000065,543.2972254999913,543.2974888000172,543.3135705001187,543.3135705001187,543.3135705001187,543.3969946999568,546.3113206999842,,,,545.4116420999635,546.3273301001173,546.3273301001173,546.3273301001173,down,4.417615700047463,None,None,,,,,,,,,,,,,,,,,P132,001,2025-03-06_10h57.41.517,posner_endo_new1,2024.2.4,60.047473460597196,2025-03-06 10h58.16.324589 +0000,
cube_l.png,0.1,0.31,invalid,55,55,0,down,1.8685274999588728,None,space,0.450722899986431,None,,,,,0,55,55,55,,,,,546.3273301001173,,,,,,,,,,,,,546.3115284000523,546.3273301001173,546.3273301001173,546.3273301001173,548.209534100024,,,,548.2173427001107,548.228293400025,548.228293400025,548.2754446000326,548.2757071000524,548.2919849001337,548.2919849001337,548.2919849001337,548.3586218000855,548.7589718000963,,,,,,,,down,1.8685274999588728,None,space,0.450722899986431,None,,,,,,,,,,,,,,,P132,001,2025-03-06_10h57.41.517,posner_endo_new1,2024.2.4,60.047473460597196,2025-03-06 10h58.16.324589 +0000,
cube_l.png,0.1,-0.31,valid,56,56,0,down,4.332873500185087,None,space,0.4375205999240279,None,,,,,0,56,56,56,,,,,548.7748460001312,,,,,,,,,,,,,548.759178499924,548.7748460001312,548.7748460001312,548.7748460001312,553.121244699927,,,,553.1291265999898,553.1399680001196,553.1399680001196,553.1870544999838,553.1873175001238,553.2035626999568,553.2035626999568,553.2035626999568,553.2869440000504,553.6540022001136,,,,,,,,down,4.332873500185087,None,space,0.4375205999240279,None,,,,,,,,,,,,,,,P132,001,2025-03-06_10h57.41.517,posner_endo_new1,2024.2.4,60.047473460597196,2025-03-06 10h58.16.324589 +0000,
cube_r.png,0.1,0.31,valid,57,57,0,down,4.077629399951547,None,space,0.4493180999998003,None,,,,,0,57,57,57,,,,,553.6699834000319,,,,,,,,,,,,,553.6542305999901,553.6699834000319,553.6699834000319,553.6699834000319,557.7498610999901,,,,557.7578835999593,557.7685329001397,557.7685329001397,557.8156976001337,557.8159585001413,557.8322145000566,557.8322145000566,557.8322145000566,557.8986823000014,558.2827574999537,,,,,,,,down,4.077629399951547,None,space,0.4493180999998003,None,,,,,,,,,,,,,,,P132,001,2025-03-06_10h57.41.517,posner_endo_new1,2024.2.4,60.047473460597196,2025-03-06 10h58.16.324589 +0000,
cube_r.png,0.1,-0.31,invalid,58,58,0,down,3.881301499903202,None,space,0.4693458001129329,None,,,,,0,58,58,58,,,,,558.2983693999704,,,,,,,,,,,,,558.2829629001208,558.2983693999704,558.2983693999704,558.2983693999704,562.1953408000991,,,,562.2031479999423,562.2141214001458,562.2141214001458,562.2612093000207,562.2614323999733,562.2775769999716,562.2775769999716,562.2775769999716,562.3610702999867,562.7610444000456,,,,,,,,down,3.881301499903202,None,space,0.4693458001129329,None,,,,,,,,,,,,,,,P132,001,2025-03-06_10h57.41.517,posner_endo_new1,2024.2.4,60.047473460597196,2025-03-06 10h58.16.324589 +0000,
cube_l.png,0.1,0.31,invalid,59,59,0,down,4.666221399791539,None,space,0.5308958000969142,None,,,,,0,59,59,59,,,,,562.7772125999909,,,,,,,,,,,,,562.7612141000573,562.7772125999909,562.7772125999909,562.7772125999909,567.4563221000135,,,,567.4622679001186,567.4739397999365,567.4739397999365,567.521965400083,567.5221897000447,567.5390662001446,567.5390662001446,567.5390662001446,567.6056977999397,568.0727047000546,,,,,,,,down,4.666221399791539,None,space,0.5308958000969142,None,,,,,,,,,,,,,,,P132,001,2025-03-06_10h57.41.517,posner_endo_new1,2024.2.4,60.047473460597196,2025-03-06 10h58.16.324589 +0000,
,,,,,,,,,,,,,,,,,,,,,,,,,,,,,,,,,,,,,,,,,,,,,,,,,,,,,,,,,,,,,,,,,,,,,568.0728162000887,568.0885318999644,568.0885318999644,628.0939221000299,732.9709439999424,space,164.8755519001279,None,,,,,,,P132,001,2025-03-06_10h57.41.517,posner_endo_new1,2024.2.4,60.047473460597196,2025-03-06 10h58.16.324589 +0000,
,,,,,,,,,,,,,,,,,,,,,,,,,,,,,,,,,,732.971044300124,732.9861781999934,736.0045578000136,735.9672687000129,,,,,,,,,,,,,,,,,,,,,,,,,,,,,,,,,,,,,,,,,,,,,,P132,001,2025-03-06_10h57.41.517,posner_endo_new1,2024.2.4,60.047473460597196,2025-03-06 10h58.16.324589 +0000,
cube_l.png,0.1,10,catch,0,0,0,up,4.151467300020158,None,None,,,,,,,,,,,0,0,0,0,736.0045578000136,,,,,,,,,,,,,735.9959297000896,736.0045578000136,736.0045578000136,736.0045578000136,740.1635559001006,,,,740.1698878000025,740.1816436999943,740.1816436999943,740.2294105999172,740.2296369001269,740.245966100134,740.245966100134,740.245966100134,740.3290912001394,743.2432673000731,,,,742.3431512999814,743.2595679999795,743.2595679999795,743.2595679999795,,,,,,,,,,,,,,,up,4.151467300020158,None,None,,,P132,001,2025-03-06_10h57.41.517,posner_endo_new1,2024.2.4,60.047473460597196,2025-03-06 10h58.16.324589 +0000,
cube_l.png,0.1,10,catch,1,1,0,up,2.4648705997969955,None,None,,,,,,,,,,,0,1,1,1,743.2595679999795,,,,,,,,,,,,,743.2434302999172,743.2595679999795,743.2595679999795,743.2595679999795,745.740653899964,,,,745.7468081000261,745.7584057000931,745.7584057000931,745.807267599972,745.8074924999382,745.8233869001269,745.8233869001269,745.8233869001269,745.890200600028,748.8210309001151,,,,747.9047232000157,748.8370831001084,748.8370831001084,748.8370831001084,,,,,,,,,,,,,,,up,2.4648705997969955,None,None,,,P132,001,2025-03-06_10h57.41.517,posner_endo_new1,2024.2.4,60.047473460597196,2025-03-06 10h58.16.324589 +0000,
cube_l.png,0.1,0.31,invalid,2,2,0,up,2.7024592000525445,None,space,0.4972411999478936,None,,,,,,,,,0,2,2,2,748.8370831001084,,,,,,,,,,,,,748.8211918999441,748.8370831001084,748.8370831001084,748.8370831001084,751.551320000086,,,,751.5574632999487,751.5689626000822,751.5689626000822,751.6176899999846,751.6179136999417,751.6342329001054,751.6342329001054,751.6342329001054,751.7008885000832,752.134076999966,,,,,,,,,,,,,,,,,,,,,,up,2.7024592000525445,None,space,0.4972411999478936,None,P132,001,2025-03-06_10h57.41.517,posner_endo_new1,2024.2.4,60.047473460597196,2025-03-06 10h58.16.324589 +0000,
cube_l.png,0.1,0.31,invalid,3,3,0,up,4.917524599935859,None,space,0.5612504999153316,None,,,,,,,,,0,3,3,3,752.150452400092,,,,,,,,,,,,,752.1342511000112,752.150452400092,752.150452400092,752.150452400092,757.0794886001386,,,,757.0857665999793,757.0973589001223,757.0973589001223,757.145253200084,757.1454765999224,757.1618852000684,757.1618852000684,757.1618852000684,757.2450445001014,757.7287113999482,,,,,,,,,,,,,,,,,,,,,,up,4.917524599935859,None,space,0.5612504999153316,None,P132,001,2025-03-06_10h57.41.517,posner_endo_new1,2024.2.4,60.047473460597196,2025-03-06 10h58.16.324589 +0000,
cube_l.png,0.1,-0.31,valid,4,4,0,up,3.9716119000222534,None,space,0.41179979988373816,None,,,,,,,,,0,4,4,4,757.7447128000204,,,,,,,,,,,,,757.7288919000421,757.7447128000204,757.7447128000204,757.7447128000204,761.7247234000824,,,,761.731751000043,761.7435775001068,761.7435775001068,761.7904529001098,761.7906826001126,761.8069915999658,761.8069915999658,761.8069915999658,761.8906837000977,762.2242517999839,,,,,,,,,,,,,,,,,,,,,,up,3.9716119000222534,None,space,0.41179979988373816,None,P132,001,2025-03-06_10h57.41.517,posner_endo_new1,2024.2.4,60.047473460597196,2025-03-06 10h58.16.324589 +0000,
cube_r.png,0.1,-0.31,invalid,5,5,0,up,5.971750900149345,None,space,0.3926762999035418,None,,,,,,,,,0,5,5,5,762.2399152000435,,,,,,,,,,,,,762.2244260001462,762.2399152000435,762.2399152000435,762.2399152000435,768.217578999931,,,,768.2241096000653,768.23576890002,768.23576890002,768.2841082001105,768.2843309999444,768.3001234000549,768.3001234000549,768.3001234000549,768.3671703999862,768.7008593000937,,,,,,,,,,,,,,,,,,,,,,up,5.971750900149345,None,space,0.3926762999035418,None,P132,001,2025-03-06_10h57.41.517,posner_endo_new1,2024.2.4,60.047473460597196,2025-03-06 10h58.16.324589 +0000,
cube_r.png,0.1,0.31,valid,6,6,0,up,4.839719400042668,None,space,0.3622975000180304,None,,,,,,,,,0,6,6,6,768.7168300999328,,,,,,,,,,,,,768.7010342001449,768.7168300999328,768.7168300999328,768.7168300999328,773.5640674000606,,,,773.5838216000702,773.594187800074,773.594187800074,773.6285288000945,773.6288378001191,773.6451000000816,773.6451000000816,773.6451000000816,773.728279999923,774.0125446999446,,,,,,,,,,,,,,,,,,,,,,up,4.839719400042668,None,space,0.3622975000180304,None,P132,001,2025-03-06_10h57.41.517,posner_endo_new1,2024.2.4,60.047473460597196,2025-03-06 10h58.16.324589 +0000,
cube_r.png,0.1,-0.31,invalid,7,7,0,up,5.296438599936664,None,space,0.35940369986929,None,,,,,,,,,0,7,7,7,774.0280071001034,,,,,,,,,,,,,774.0128007999156,774.0280071001034,774.0280071001034,774.0280071001034,779.3400485001039,,,,779.3462946000509,779.3580937001389,779.3580937001389,779.4055502000265,779.4057803000323,779.4225882999599,779.4225882999599,779.4225882999599,779.489256999921,779.7897826000117,,,,,,,,,,,,,,,,,,,,,,up,5.296438599936664,None,space,0.35940369986929,None,P132,001,2025-03-06_10h57.41.517,posner_endo_new1,2024.2.4,60.047473460597196,2025-03-06 10h58.16.324589 +0000,
cube_l.png,0.1,-0.31,valid,8,8,0,up,4.159096400020644,None,space,0.3971597000490874,None,,,,,,,,,0,8,8,8,779.8055322000291,,,,,,,,,,,,,779.7899571999442,779.8055322000291,779.8055322000291,779.8055322000291,783.9687491001096,,,,783.9749845000915,783.9867177000269,783.9867177000269,784.0345602999441,784.0347899000626,784.051284099929,784.051284099929,784.051284099929,784.1343352000695,784.4514760000166,,,,,,,,,,,,,,,,,,,,,,up,4.159096400020644,None,space,0.3971597000490874,None,P132,001,2025-03-06_10h57.41.517,posner_endo_new1,2024.2.4,60.047473460597196,2025-03-06 10h58.16.324589 +0000,
cube_r.png,0.1,-0.31,invalid,9,9,0,up,4.416429599979892,None,space,0.4008156000636518,None,,,,,,,,,0,9,9,9,784.4674345001113,,,,,,,,,,,,,784.4516519000754,784.4674345001113,784.4674345001113,784.4674345001113,788.8968281999696,,,,788.9035088999663,788.9151811001357,788.9151811001357,788.9623911001254,788.9626158999745,788.979493800085,788.979493800085,788.979493800085,789.0460707000457,789.3960522999987,,,,,,,,,,,,,,,,,,,,,,up,4.416429599979892,None,space,0.4008156000636518,None,P132,001,2025-03-06_10h57.41.517,posner_endo_new1,2024.2.4,60.047473460597196,2025-03-06 10h58.16.324589 +0000,
cube_l.png,0.1,0.31,invalid,10,10,0,up,4.728411799995229,None,space,0.41365120001137257,None,,,,,,,,,0,10,10,10,789.4122993000783,,,,,,,,,,,,,789.3962276999373,789.4122993000783,789.4122993000783,789.4122993000783,794.1437385000754,,,,794.1664895000868,794.1765791000798,794.1765791000798,794.207181799924,794.2075702000875,794.2236581000034,794.2236581000034,794.2236581000034,794.3068967000581,794.6413408999797,,,,,,,,,,,,,,,,,,,,,,up,4.728411799995229,None,space,0.41365120001137257,None,P132,001,2025-03-06_10h57.41.517,posner_endo_new1,2024.2.4,60.047473460597196,2025-03-06 10h58.16.324589 +0000,
cube_r.png,0.1,-0.31,invalid,11,11,0,up,4.555025200126693,None,space,0.5206020001787692,None,,,,,,,,,0,11,11,11,794.6565426001325,,,,,,,,,,,,,794.641670800047,794.6565426001325,794.6565426001325,794.6565426001325,799.2200541999191,,,,799.2332373000681,799.2432997000869,799.2432997000869,799.285311399959,799.2857055000495,799.3017967999913,799.3017967999913,799.3017967999913,799.3850420999806,799.8359278000426,,,,,,,,,,,,,,,,,,,,,,up,4.555025200126693,None,space,0.5206020001787692,None,P132,001,2025-03-06_10h57.41.517,posner_endo_new1,2024.2.4,60.047473460597196,2025-03-06 10h58.16.324589 +0000,
cube_r.png,0.1,0.31,valid,12,12,0,up,5.280679600080475,None,space,0.38568309997208416,None,,,,,,,,,0,12,12,12,799.851237700088,,,,,,,,,,,,,799.8362592000049,799.851237700088,799.851237700088,799.851237700088,805.1471744000446,,,,805.1561889001168,805.1661416001152,805.1661416001152,805.2128117000684,805.2130885000806,805.229508999968,805.229508999968,805.229508999968,805.3127250000834,805.629946900066,,,,,,,,,,,,,,,,,,,,,,up,5.280679600080475,None,space,0.38568309997208416,None,P132,001,2025-03-06_10h57.41.517,posner_endo_new1,2024.2.4,60.047473460597196,2025-03-06 10h58.16.324589 +0000,
cube_l.png,0.1,10,catch,13,13,0,up,4.270682699978352,None,None,,,,,,,,,,,0,13,13,13,805.6457231999375,,,,,,,,,,,,,805.6301776999608,805.6457231999375,805.6457231999375,805.6457231999375,809.9256084000226,,,,809.9344343999401,809.9444562999997,809.9444562999997,809.9914762000553,809.9917572000995,810.00795749994,810.00795749994,810.00795749994,810.0911578000523,813.0055813000072,,,,812.1057303000707,813.0217113001272,813.0217113001272,813.0217113001272,,,,,,,,,,,,,,,up,4.270682699978352,None,None,,,P132,001,2025-03-06_10h57.41.517,posner_endo_new1,2024.2.4,60.047473460597196,2025-03-06 10h58.16.324589 +0000,
cube_r.png,0.1,-0.31,invalid,14,14,0,up,1.5180220000911504,None,space,0.4989316000137478,None,,,,,,,,,0,14,14,14,813.0217113001272,,,,,,,,,,,,,813.005801100051,813.0217113001272,813.0217113001272,813.0217113001272,814.5542985999491,,,,814.5632154000923,814.5731605000328,814.5731605000328,814.6200485001318,814.6203257001471,814.6365623001475,814.6365623001475,814.6365623001475,814.7196097001433,815.1371089001186,,,,,,,,,,,,,,,,,,,,,,up,1.5180220000911504,None,space,0.4989316000137478,None,P132,001,2025-03-06_10h57.41.517,posner_endo_new1,2024.2.4,60.047473460597196,2025-03-06 10h58.16.324589 +0000,
cube_l.png,0.1,-0.31,valid,15,15,0,up,4.027485999977216,None,space,0.4210326001048088,None,,,,,,,,,0,15,15,15,815.1524618000258,,,,,,,,,,,,,815.1373362001032,815.1524618000258,815.1524618000258,815.1524618000258,819.1828716001473,,,,819.1915484000929,819.2015605000779,819.2015605000779,819.2487099999562,819.2489952000324,819.2650959000457,819.2650959000457,819.2650959000457,819.3484873999842,819.6989150000736,,,,,,,,,,,,,,,,,,,,,,up,4.027485999977216,None,space,0.4210326001048088,None,P132,001,2025-03-06_10h57.41.517,posner_endo_new1,2024.2.4,60.047473460597196,2025-03-06 10h58.16.324589 +0000,
cube_r.png,0.1,10,catch,16,16,0,up,5.121091800043359,None,None,,,,,,,,,,,0,16,16,16,819.7147743001115,,,,,,,,,,,,,819.6991459999699,819.7147743001115,819.7147743001115,819.7147743001115,824.8441800000146,,,,824.8591700000688,824.8696010999847,824.8696010999847,824.909259099979,824.9096923000179,824.9257189000491,824.9257189000491,824.9257189000491,825.0090332999825,827.9235197999515,,,,827.0238531001378,827.9395987000316,827.9395987000316,827.9395987000316,,,,,,,,,,,,,,,up,5.121091800043359,None,None,,,P132,001,2025-03-06_10h57.41.517,posner_endo_new1,2024.2.4,60.047473460597196,2025-03-06 10h58.16.324589 +0000,
cube_r.png,0.1,10,catch,17,17,0,up,2.2725873000454158,None,None,,,,,,,,,,,0,17,17,17,827.9395987000316,,,,,,,,,,,,,827.9237562001217,827.9395987000316,827.9395987000316,827.9395987000316,830.2215986000374,,,,830.2315773000009,830.2416650999803,830.2416650999803,830.2873104999308,830.2876129001379,830.3038417000789,830.3038417000789,830.3038417000789,830.3870775001124,833.301324600121,,,,832.4016789000016,833.317288500024,833.317288500024,833.317288500024,,,,,,,,,,,,,,,up,2.2725873000454158,None,None,,,P132,001,2025-03-06_10h57.41.517,posner_endo_new1,2024.2.4,60.047473460597196,2025-03-06 10h58.16.324589 +0000,
cube_l.png,0.1,0.31,invalid,18,18,0,up,1.2389575999695808,None,space,0.43618430010974407,None,,,,,,,,,0,18,18,18,833.317288500024,,,,,,,,,,,,,833.3015646999702,833.317288500024,833.317288500024,833.317288500024,834.5670730001293,,,,834.5762229999527,834.5859980999958,834.5859980999958,834.6329952001106,834.6332191000693,834.649569200119,834.649569200119,834.649569200119,834.7326053001452,835.0995388999581,,,,,,,,,,,,,,,,,,,,,,up,1.2389575999695808,None,space,0.43618430010974407,None,P132,001,2025-03-06_10h57.41.517,posner_endo_new1,2024.2.4,60.047473460597196,2025-03-06 10h58.16.324589 +0000,
cube_l.png,0.1,10,catch,19,19,0,up,5.97705029998906,None,None,,,,,,,,,,,0,19,19,19,835.1156534999609,,,,,,,,,,,,,835.0997130000032,835.1156534999609,835.1156534999609,835.1156534999609,841.0957194000948,,,,841.1171598001383,841.1273262000177,841.1273262000177,841.1593633999582,841.1597627999727,841.1757930000313,841.1757930000313,841.1757930000313,841.2589269001037,844.1734232001472,,,,843.2735266000964,844.1892701000907,844.1892701000907,844.1892701000907,,,,,,,,,,,,,,,up,5.97705029998906,None,None,,,P132,001,2025-03-06_10h57.41.517,posner_endo_new1,2024.2.4,60.047473460597196,2025-03-06 10h58.16.324589 +0000,
cube_l.png,0.1,0.31,invalid,20,20,0,up,1.1032889999914914,None,space,0.5122433998622,None,,,,,,,,,0,20,20,20,844.1892701000907,,,,,,,,,,,,,844.1737305999268,844.1892701000907,844.1892701000907,844.1892701000907,845.3061315000523,,,,845.3191446999554,845.3292704999913,845.3292704999913,845.3715689999517,845.3719550000969,845.3880450001452,845.3880450001452,845.3880450001452,845.4712924000341,845.9056871000212,,,,,,,,,,,,,,,,,,,,,,up,1.1032889999914914,None,space,0.5122433998622,None,P132,001,2025-03-06_10h57.41.517,posner_endo_new1,2024.2.4,60.047473460597196,2025-03-06 10h58.16.324589 +0000,
cube_l.png,0.1,-0.31,valid,21,21,0,up,4.28288760012947,None,space,0.4848026998806745,None,,,,,,,,,0,21,21,21,845.9208507000003,,,,,,,,,,,,,845.906018699985,845.9208507000003,845.9208507000003,845.9208507000003,850.2177754000295,,,,850.2307351001073,850.2409457000904,850.2409457000904,850.2832235000096,850.2836106999312,850.2996847000904,850.2996847000904,850.2996847000904,850.3829351000022,850.8006051999982,,,,,,,,,,,,,,,,,,,,,,up,4.28288760012947,None,space,0.4848026998806745,None,P132,001,2025-03-06_10h57.41.517,posner_endo_new1,2024.2.4,60.047473460597196,2025-03-06 10h58.16.324589 +0000,
cube_r.png,0.1,0.31,valid,22,22,0,up,4.132102199830115,None,space,0.5039301000069827,None,,,,,,,,,0,22,22,22,850.8158235000446,,,,,,,,,,,,,850.8009357999545,850.8158235000446,850.8158235000446,850.8158235000446,854.9629744000267,,,,854.9758836000692,854.9859271000605,854.9859271000605,855.0283627000172,855.0287520999555,855.0448465000372,855.0448465000372,855.0448465000372,855.1280984000769,855.5623395000584,,,,,,,,,,,,,,,,,,,,,,up,4.132102199830115,None,space,0.5039301000069827,None,P132,001,2025-03-06_10h57.41.517,posner_endo_new1,2024.2.4,60.047473460597196,2025-03-06 10h58.16.324589 +0000,
cube_r.png,0.1,-0.31,invalid,23,23,0,up,3.721896099857986,None,space,0.5183455001097172,None,,,,,,,,,0,23,23,23,855.5779784999322,,,,,,,,,,,,,855.5626771999523,855.5779784999322,855.5779784999322,855.5779784999322,859.3086125999689,,,,859.3166231999639,859.3271324001253,859.3271324001253,859.374218699988,859.3744866000488,859.3908804999664,859.3908804999664,859.3908804999664,859.4741154999938,859.9244806000497,,,,,,,,,,,,,,,,,,,,,,up,3.721896099857986,None,space,0.5183455001097172,None,P132,001,2025-03-06_10h57.41.517,posner_endo_new1,2024.2.4,60.047473460597196,2025-03-06 10h58.16.324589 +0000,
cube_r.png,0.1,0.31,valid,24,24,0,up,4.3193118998315185,None,space,0.28702819999307394,None,,,,,,,,,0,24,24,24,859.9403361000586,,,,,,,,,,,,,859.9246928000357,859.9403361000586,859.9403361000586,859.9403361000586,864.269961199956,,,,864.277912999969,864.2888803000096,864.2888803000096,864.3359507999849,864.3362118001096,864.352425100049,864.352425100049,864.352425100049,864.418871199945,864.6530639000703,,,,,,,,,,,,,,,,,,,,,,up,4.3193118998315185,None,space,0.28702819999307394,None,P132,001,2025-03-06_10h57.41.517,posner_endo_new1,2024.2.4,60.047473460597196,2025-03-06 10h58.16.324589 +0000,
cube_r.png,0.1,-0.31,invalid,25,25,0,up,3.640722000040114,None,space,0.45096389995887876,None,,,,,,,,,0,25,25,25,864.6687092001084,,,,,,,,,,,,,864.653274100041,864.6687092001084,864.6687092001084,864.6687092001084,868.316115600057,,,,868.3241034999955,868.3346903000493,868.3346903000493,868.3817303001415,868.3819921999238,868.3982901999261,868.3982901999261,868.3982901999261,868.4815567999613,868.8653973999899,,,,,,,,,,,,,,,,,,,,,,up,3.640722000040114,None,space,0.45096389995887876,None,P132,001,2025-03-06_10h57.41.517,posner_endo_new1,2024.2.4,60.047473460597196,2025-03-06 10h58.16.324589 +0000,
cube_l.png,0.1,-0.31,valid,26,26,0,up,5.994908699998632,None,space,0.4053830001503229,None,,,,,,,,,0,26,26,26,868.8811768000014,,,,,,,,,,,,,868.8656101000961,868.8811768000014,868.8811768000014,868.8811768000014,874.8925652999897,,,,874.9004989000969,874.9113350000698,874.9113350000698,874.9584566999692,874.958717700094,874.9748806999996,874.9748806999996,874.9748806999996,875.0581155000255,875.3920923999976,,,,,,,,,,,,,,,,,,,,,,up,5.994908699998632,None,space,0.4053830001503229,None,P132,001,2025-03-06_10h57.41.517,posner_endo_new1,2024.2.4,60.047473460597196,2025-03-06 10h58.16.324589 +0000,
cube_r.png,0.1,0.31,valid,27,27,0,up,4.8206265000626445,None,space,0.36252199998125434,None,,,,,,,,,0,27,27,27,875.4078892001417,,,,,,,,,,,,,875.3923069001175,875.4078892001417,875.4078892001417,875.4078892001417,880.2371932000387,,,,880.2453908000607,880.2558502000757,880.2558502000757,880.3029779000208,880.303240600042,880.3194748000242,880.3194748000242,880.3194748000242,880.4026355999522,880.6866450000089,,,,,,,,,,,,,,,,,,,,,,up,4.8206265000626445,None,space,0.36252199998125434,None,P132,001,2025-03-06_10h57.41.517,posner_endo_new1,2024.2.4,60.047473460597196,2025-03-06 10h58.16.324589 +0000,
cube_r.png,0.1,10,catch,28,28,0,up,4.54986899998039,None,None,,,,,,,,,,,0,28,28,28,880.7024240000173,,,,,,,,,,,,,880.686858400004,880.7024240000173,880.7024240000173,880.7024240000173,885.265373500064,,,,885.2749622000847,885.2850101001095,885.2850101001095,885.3311519001145,885.3314606000204,885.3478210999165,885.3478210999165,885.3478210999165,885.4308615000919,888.3454108999576,,,,887.4454117999412,888.3613080999348,888.3613080999348,888.3613080999348,,,,,,,,,,,,,,,up,4.54986899998039,None,None,,,P132,001,2025-03-06_10h57.41.517,posner_endo_new1,2024.2.4,60.047473460597196,2025-03-06 10h58.16.324589 +0000,
cube_r.png,0.1,0.31,valid,29,29,0,up,1.714509699959308,None,space,0.469249099958688,None,,,,,,,,,0,29,29,29,888.3613080999348,,,,,,,,,,,,,888.3456522000488,888.3613080999348,888.3613080999348,888.3613080999348,890.0771890999749,,,,890.0866427000146,890.0966380999889,890.0966380999889,890.142808600096,890.1431261999533,890.1593677001074,890.1593677001074,890.1593677001074,890.2425953999627,890.6434041000903,,,,,,,,,,,,,,,,,,,,,,up,1.714509699959308,None,space,0.469249099958688,None,P132,001,2025-03-06_10h57.41.517,posner_endo_new1,2024.2.4,60.047473460597196,2025-03-06 10h58.16.324589 +0000,
cube_r.png,0.1,0.31,valid,30,30,0,up,4.361899700015783,None,space,0.36314320005476475,None,,,,,,,,,0,30,30,30,890.6586915999651,,,,,,,,,,,,,890.643683000002,890.6586915999651,890.6586915999651,890.6586915999651,895.0223538000137,,,,895.031820199918,895.0418857999612,895.0418857999612,895.0877652999479,895.0880724999588,895.1042627999559,895.1042627999559,895.1042627999559,895.1874452999327,895.4716231999919,,,,,,,,,,,,,,,,,,,,,,up,4.361899700015783,None,space,0.36314320005476475,None,P132,001,2025-03-06_10h57.41.517,posner_endo_new1,2024.2.4,60.047473460597196,2025-03-06 10h58.16.324589 +0000,
cube_l.png,0.1,-0.31,valid,31,31,0,up,4.012806900078431,None,space,0.3708403001073748,None,,,,,,,,,0,31,31,31,895.4872149999719,,,,,,,,,,,,,895.4718800000846,895.4872149999719,895.4872149999719,895.4872149999719,899.501055700006,,,,899.5105729000643,899.5206331999507,899.5206331999507,899.5665550001431,899.5668604001403,899.583044399973,899.583044399973,899.583044399973,899.6662672001403,899.9669864000753,,,,,,,,,,,,,,,,,,,,,,up,4.012806900078431,None,space,0.3708403001073748,None,P132,001,2025-03-06_10h57.41.517,posner_endo_new1,2024.2.4,60.047473460597196,2025-03-06 10h58.16.324589 +0000,
cube_r.png,0.1,0.31,valid,32,32,0,up,3.6295650000683963,None,space,0.4485108000226319,None,,,,,,,,,0,32,32,32,899.98260019999,,,,,,,,,,,,,899.9672487999778,899.98260019999,899.98260019999,899.98260019999,903.6134754000232,,,,903.6228726999834,903.6331327999942,903.6331327999942,903.6790273999795,903.6793349001091,903.6954658001196,903.6954658001196,903.6954658001196,903.7788295000792,904.1462640000973,,,,,,,,,,,,,,,,,,,,,,up,3.6295650000683963,None,space,0.4485108000226319,None,P132,001,2025-03-06_10h57.41.517,posner_endo_new1,2024.2.4,60.047473460597196,2025-03-06 10h58.16.324589 +0000,
cube_r.png,0.1,-0.31,invalid,33,33,0,up,4.0184004998300225,None,space,0.4346781000494957,None,,,,,,,,,0,33,33,33,904.1616957001388,,,,,,,,,,,,,904.1465223999694,904.1616957001388,904.1616957001388,904.1616957001388,908.1919327999931,,,,908.2015077001415,908.2115335001145,908.2115335001145,908.2576693000738,908.2579753999598,908.2742403000593,908.2742403000593,908.2742403000593,908.3574676001444,908.7248295000754,,,,,,,,,,,,,,,,,,,,,,up,4.0184004998300225,None,space,0.4346781000494957,None,P132,001,2025-03-06_10h57.41.517,posner_endo_new1,2024.2.4,60.047473460597196,2025-03-06 10h58.16.324589 +0000,
cube_r.png,0.1,10,catch,34,34,0,up,4.584292900050059,None,None,,,,,,,,,,,0,34,34,34,908.7403172000777,,,,,,,,,,,,,908.7250888999552,908.7403172000777,908.7403172000777,908.7403172000777,913.336661899928,,,,913.3460866999812,913.3561627001036,913.3561627001036,913.402468000073,913.4027833000291,913.4188755999785,913.4188755999785,913.4188755999785,913.5022410000674,916.4164895999711,,,,915.5167759999167,916.4324708001222,916.4324708001222,916.4324708001222,,,,,,,,,,,,,,,up,4.584292900050059,None,None,,,P132,001,2025-03-06_10h57.41.517,posner_endo_new1,2024.2.4,60.047473460597196,2025-03-06 10h58.16.324589 +0000,
cube_r.png,0.1,0.31,valid,35,35,0,up,1.3155739998910576,None,space,0.37975449999794364,None,,,,,,,,,0,35,35,35,916.4324708001222,,,,,,,,,,,,,916.4167293999344,916.4324708001222,916.4324708001222,916.4324708001222,917.7491043000482,,,,917.7586318999529,917.7687631000299,917.7687631000299,917.8145169999916,917.8148231999949,917.8310626000166,917.8310626000166,917.8310626000166,917.9143445000518,918.2152166999876,,,,,,,,,,,,,,,,,,,,,,up,1.3155739998910576,None,space,0.37975449999794364,None,P132,001,2025-03-06_10h57.41.517,posner_endo_new1,2024.2.4,60.047473460597196,2025-03-06 10h58.16.324589 +0000,
cube_r.png,0.1,-0.31,invalid,36,36,0,up,3.1096570000518113,None,space,0.4418411999940872,None,,,,,,,,,0,36,36,36,918.2306202000473,,,,,,,,,,,,,918.2154733000789,918.2306202000473,918.2306202000473,918.2306202000473,921.3453623999376,,,,921.3549560999963,921.3650867999531,921.3650867999531,921.4109960000496,921.4113094999921,921.4273006999865,921.4273006999865,921.4273006999865,921.5107426999602,921.877971699927,,,,,,,,,,,,,,,,,,,,,,up,3.1096570000518113,None,space,0.4418411999940872,None,P132,001,2025-03-06_10h57.41.517,posner_endo_new1,2024.2.4,60.047473460597196,2025-03-06 10h58.16.324589 +0000,
cube_l.png,0.1,0.31,invalid,37,37,0,up,2.6460833998862654,None,space,0.4984347999561578,None,,,,,,,,,0,37,37,37,921.8937059999444,,,,,,,,,,,,,921.878230500035,921.8937059999444,921.8937059999444,921.8937059999444,924.5419672999997,,,,924.5513589000329,924.5614122999832,924.5614122999832,924.6076412999537,924.6079512999859,924.6241011000238,924.6241011000238,924.6241011000238,924.7074404999148,925.1246454999782,,,,,,,,,,,,,,,,,,,,,,up,2.6460833998862654,None,space,0.4984347999561578,None,P132,001,2025-03-06_10h57.41.517,posner_endo_new1,2024.2.4,60.047473460597196,2025-03-06 10h58.16.324589 +0000,
cube_l.png,0.1,0.31,invalid,38,38,0,up,3.4958006001543254,None,space,0.44929159991443157,None,,,,,,,,,0,38,38,38,925.1402704000939,,,,,,,,,,,,,925.1248989000451,925.1402704000939,925.1402704000939,925.1402704000939,928.6379788001068,,,,928.6474127001129,928.657262200024,928.657262200024,928.7033810000867,928.7036870000884,928.7199429001193,928.7199429001193,928.7199429001193,928.8031359999441,929.1706390001345,,,,,,,,,,,,,,,,,,,,,,up,3.4958006001543254,None,space,0.44929159991443157,None,P132,001,2025-03-06_10h57.41.517,posner_endo_new1,2024.2.4,60.047473460597196,2025-03-06 10h58.16.324589 +0000,
cube_r.png,0.1,0.31,valid,39,39,0,up,3.2583496998995543,None,space,0.375597600126639,None,,,,,,,,,0,39,39,39,929.186129400041,,,,,,,,,,,,,929.1708947001025,929.186129400041,929.186129400041,929.186129400041,932.4504480999894,,,,932.4599123999942,932.4698878999334,932.4698878999334,932.5162603000645,932.5165723999962,932.5327910999767,932.5327910999767,932.5327910999767,932.6159679000266,932.916728900047,,,,,,,,,,,,,,,,,,,,,,up,3.2583496998995543,None,space,0.375597600126639,None,P132,001,2025-03-06_10h57.41.517,posner_endo_new1,2024.2.4,60.047473460597196,2025-03-06 10h58.16.324589 +0000,
cube_l.png,0.1,0.31,invalid,40,40,0,up,6.232089699944481,None,space,0.48800130002200603,None,,,,,,,,,0,40,40,40,932.9321556000505,,,,,,,,,,,,,932.9169848000165,932.9321556000505,932.9321556000505,932.9321556000505,939.1769544000272,,,,939.1857277001254,939.1955820999574,939.1955820999574,939.2427487000823,939.242974899942,939.259178499924,939.259178499924,939.259178499924,939.3426993000321,939.7593648999464,,,,,,,,,,,,,,,,,,,,,,up,6.232089699944481,None,space,0.48800130002200603,None,P132,001,2025-03-06_10h57.41.517,posner_endo_new1,2024.2.4,60.047473460597196,2025-03-06 10h58.16.324589 +0000,
cube_l.png,0.1,10,catch,41,41,0,up,3.7491542000789195,None,None,,,,,,,,,,,0,41,41,41,939.7753703999333,,,,,,,,,,,,,939.7595385001041,939.7753703999333,939.7753703999333,939.7753703999333,943.5400622999296,,,,943.5581765000243,943.5699948000256,943.5699948000256,943.6048844000325,943.6051811000798,943.6213078999426,943.6213078999426,943.6213078999426,943.7040623999201,946.6187138999812,,,,945.7191824999172,946.6349685001187,946.6349685001187,946.6349685001187,,,,,,,,,,,,,,,up,3.7491542000789195,None,None,,,P132,001,2025-03-06_10h57.41.517,posner_endo_new1,2024.2.4,60.047473460597196,2025-03-06 10h58.16.324589 +0000,
cube_l.png,0.1,-0.31,valid,42,42,0,up,1.5135588999837637,None,space,0.3998608000110835,None,,,,,,,,,0,42,42,42,946.6349685001187,,,,,,,,,,,,,946.618876399938,946.6349685001187,946.6349685001187,946.6349685001187,948.1504232001025,,,,948.1563397999853,948.1679330000188,948.1679330000188,948.216684800107,948.2169079000596,948.2334603001364,948.2334603001364,948.2334603001364,948.300176900113,948.6499528000131,,,,,,,,,,,,,,,,,,,,,,up,1.5135588999837637,None,space,0.3998608000110835,None,P132,001,2025-03-06_10h57.41.517,posner_endo_new1,2024.2.4,60.047473460597196,2025-03-06 10h58.16.324589 +0000,
cube_l.png,0.1,10,catch,43,43,0,up,3.393946200143546,None,None,,,,,,,,,,,0,43,43,43,948.6663848001044,,,,,,,,,,,,,948.6501245999243,948.6663848001044,948.6663848001044,948.6663848001044,952.0631981999613,,,,952.0690602001268,952.0807279001456,952.0807279001456,952.1295481999405,952.1297701001167,952.1459766000044,952.1459766000044,952.1459766000044,952.2293998000678,955.1435511999298,,,,954.2434960000683,955.1596731999889,955.1596731999889,955.1596731999889,,,,,,,,,,,,,,,up,3.393946200143546,None,None,,,P132,001,2025-03-06_10h57.41.517,posner_endo_new1,2024.2.4,60.047473460597196,2025-03-06 10h58.16.324589 +0000,
cube_l.png,0.1,0.31,invalid,44,44,0,up,1.5003949000965804,None,space,0.46686979988589883,None,,,,,,,,,0,44,44,44,955.1596731999889,,,,,,,,,,,,,955.14371199999,955.1596731999889,955.1596731999889,955.1596731999889,956.6755359000526,,,,956.6813737000339,956.693025900051,956.693025900051,956.7409588000737,956.7411808001343,956.757455999963,956.757455999963,956.757455999963,956.8415258000605,957.2251840000972,,,,,,,,,,,,,,,,,,,,,,up,1.5003949000965804,None,space,0.46686979988589883,None,P132,001,2025-03-06_10h57.41.517,posner_endo_new1,2024.2.4,60.047473460597196,2025-03-06 10h58.16.324589 +0000,
cube_l.png,0.1,0.31,invalid,45,45,0,up,5.004139899974689,None,space,0.4303081000689417,None,,,,,,,,,0,45,45,45,957.2405882999301,,,,,,,,,,,,,957.2253608999308,957.2405882999301,957.2405882999301,957.2405882999301,962.2531085999217,,,,962.2590340999886,962.2706937999465,962.2706937999465,962.3191331000999,962.3193564999383,962.3350955999922,962.3350955999922,962.3350955999922,962.4021538000088,962.7693713000044,,,,,,,,,,,,,,,,,,,,,,up,5.004139899974689,None,space,0.4303081000689417,None,P132,001,2025-03-06_10h57.41.517,posner_endo_new1,2024.2.4,60.047473460597196,2025-03-06 10h58.16.324589 +0000,
cube_r.png,0.1,0.31,valid,46,46,0,up,5.826690600020811,None,space,0.3874452000018209,None,,,,,,,,,0,46,46,46,962.7852793000638,,,,,,,,,,,,,962.7695468999445,962.7852793000638,962.7852793000638,962.7852793000638,968.6136141000316,,,,968.6261716000736,968.6362073000055,968.6362073000055,968.6789389001206,968.6793386000209,968.6954042001162,968.6954042001162,968.6954042001162,968.7786507001147,969.0963441000786,,,,,,,,,,,,,,,,,,,,,,up,5.826690600020811,None,space,0.3874452000018209,None,P132,001,2025-03-06_10h57.41.517,posner_endo_new1,2024.2.4,60.047473460597196,2025-03-06 10h58.16.324589 +0000,
cube_l.png,0.1,-0.31,valid,47,47,0,up,3.1809350999537855,None,space,0.5176862999796867,None,,,,,,,,,0,47,47,47,969.1116456999443,,,,,,,,,,,,,969.0966874000151,969.1116456999443,969.1116456999443,969.1116456999443,972.3095901999623,,,,972.3221626000013,972.3318157999311,972.3318157999311,972.375505700009,972.3757696000393,972.3920955001377,972.3920955001377,972.3920955001377,972.4586950000376,972.9256992000155,,,,,,,,,,,,,,,,,,,,,,up,3.1809350999537855,None,space,0.5176862999796867,None,P132,001,2025-03-06_10h57.41.517,posner_endo_new1,2024.2.4,60.047473460597196,2025-03-06 10h58.16.324589 +0000,
cube_r.png,0.1,-0.31,invalid,48,48,0,up,4.7117747000884265,None,space,0.42748129996471107,None,,,,,,,,,0,48,48,48,972.9416022999212,,,,,,,,,,,,,972.9259220999666,972.9416022999212,972.9416022999212,972.9416022999212,977.6543654999696,,,,977.6621073000133,977.6728990999982,977.6728990999982,977.7200819000136,977.7203474999405,977.7365709999576,977.7365709999576,977.7365709999576,977.8197761001065,978.1703013000078,,,,,,,,,,,,,,,,,,,,,,up,4.7117747000884265,None,space,0.42748129996471107,None,P132,001,2025-03-06_10h57.41.517,posner_endo_new1,2024.2.4,60.047473460597196,2025-03-06 10h58.16.324589 +0000,
cube_r.png,0.1,10,catch,49,49,0,up,3.5059729998465627,None,None,,,,,,,,,,,0,49,49,49,978.1862534000538,,,,,,,,,,,,,978.1705104000866,978.1862534000538,978.1862534000538,978.1862534000538,981.7000416999217,,,,981.707744400017,981.7187894999515,981.7187894999515,981.7660044999793,981.766270800028,981.7824653000571,981.7824653000571,981.7824653000571,981.8659365000203,984.7797972999979,,,,983.8803461000789,984.796023099916,984.796023099916,984.796023099916,,,,,,,,,,,,,,,up,3.5059729998465627,None,None,,,P132,001,2025-03-06_10h57.41.517,posner_endo_new1,2024.2.4,60.047473460597196,2025-03-06 10h58.16.324589 +0000,
cube_l.png,0.1,-0.31,valid,50,50,0,up,2.144439100055024,None,space,0.4075223000254482,None,,,,,,,,,0,50,50,50,984.796023099916,,,,,,,,,,,,,984.7800016000401,984.796023099916,984.796023099916,984.796023099916,986.9447667999193,,,,986.9525059999432,986.9634565000888,986.9634565000888,987.0105330001097,987.0107946000062,987.0271179000847,987.0271179000847,987.0271179000847,987.1102247000672,987.4442116999999,,,,,,,,,,,,,,,,,,,,,,up,2.144439100055024,None,space,0.4075223000254482,None,P132,001,2025-03-06_10h57.41.517,posner_endo_new1,2024.2.4,60.047473460597196,2025-03-06 10h58.16.324589 +0000,
cube_l.png,0.1,-0.31,valid,51,51,0,up,4.464085099985823,None,space,0.4549197000451386,None,,,,,,,,,0,51,51,51,987.4599604001269,,,,,,,,,,,,,987.4444246999919,987.4599604001269,987.4599604001269,987.4599604001269,991.9396200999618,,,,991.9473323000129,991.9583664000966,991.9583664000966,992.0053763999604,992.0056390000973,992.022010799963,992.022010799963,992.022010799963,992.1051900000311,992.4890104001388,,,,,,,,,,,,,,,,,,,,,,up,4.464085099985823,None,space,0.4549197000451386,None,P132,001,2025-03-06_10h57.41.517,posner_endo_new1,2024.2.4,60.047473460597196,2025-03-06 10h58.16.324589 +0000,
cube_r.png,0.1,-0.31,invalid,52,52,0,up,3.883970099966973,None,space,0.41856010002084076,None,,,,,,,,,0,52,52,52,992.504842699971,,,,,,,,,,,,,992.4892233000137,992.504842699971,992.504842699971,992.504842699971,996.4017296000384,,,,996.4094964000396,996.4204824001063,996.4204824001063,996.467597000068,996.4678694999311,996.4842030999716,996.4842030999716,996.4842030999716,996.5673643001355,996.9178891999181,,,,,,,,,,,,,,,,,,,,,,up,3.883970099966973,None,space,0.41856010002084076,None,P132,001,2025-03-06_10h57.41.517,posner_endo_new1,2024.2.4,60.047473460597196,2025-03-06 10h58.16.324589 +0000,
cube_l.png,0.1,-0.31,valid,53,53,0,up,4.399107799865305,None,space,0.3569460001308471,None,,,,,,,,,0,53,53,53,996.9336185001303,,,,,,,,,,,,,996.9181073999498,996.9336185001303,996.9336185001303,996.9336185001303,1001.3466932000592,,,,1001.3545605000108,1001.3653531000018,1001.3653531000018,1001.4125087999273,1001.4127726000734,1001.4289494999684,1001.4289494999684,1001.4289494999684,1001.49565539998,1001.7961635000538,,,,,,,,,,,,,,,,,,,,,,up,4.399107799865305,None,space,0.3569460001308471,None,P132,001,2025-03-06_10h57.41.517,posner_endo_new1,2024.2.4,60.047473460597196,2025-03-06 10h58.16.324589 +0000,
cube_r.png,0.1,10,catch,54,54,0,up,4.327922200085595,None,None,,,,,,,,,,,0,54,54,54,1001.8120602001436,,,,,,,,,,,,,1001.7963737000246,1001.8120602001436,1001.8120602001436,1001.8120602001436,1006.1418377000373,,,,1006.1495288000442,1006.1604830001015,1006.1604830001015,1006.2074707001448,1006.2077335000504,1006.2240581000224,1006.2240581000224,1006.2240581000224,1006.307585200062,1009.2214884001296,,,,1008.3220476999413,1009.237639100058,1009.237639100058,1009.237639100058,,,,,,,,,,,,,,,up,4.327922200085595,None,None,,,P132,001,2025-03-06_10h57.41.517,posner_endo_new1,2024.2.4,60.047473460597196,2025-03-06 10h58.16.324589 +0000,
cube_l.png,0.1,0.31,invalid,55,55,0,up,2.007204399909824,None,space,0.47741559986025095,None,,,,,,,,,0,55,55,55,1009.237639100058,,,,,,,,,,,,,1009.2216894000303,1009.237639100058,1009.237639100058,1009.237639100058,1011.2532961999532,,,,1011.2610037999693,1011.2720208999235,1011.2720208999235,1011.3191079001408,1011.3193699999247,1011.3356095000636,1011.3356095000636,1011.3356095000636,1011.4189033999573,1011.8192239000928,,,,,,,,,,,,,,,,,,,,,,up,2.007204399909824,None,space,0.47741559986025095,None,P132,001,2025-03-06_10h57.41.517,posner_endo_new1,2024.2.4,60.047473460597196,2025-03-06 10h58.16.324589 +0000,
cube_l.png,0.1,-0.31,valid,56,56,0,up,5.617653200170025,None,space,0.336398100014776,None,,,,,,,,,0,56,56,56,1011.8350873999298,,,,,,,,,,,,,1011.8194385999814,1011.8350873999298,1011.8350873999298,1011.8350873999298,1017.4635680001229,,,,1017.4712902000174,1017.4822017999832,1017.4822017999832,1017.5293403000105,1017.5295994000044,1017.545809000032,1017.545809000032,1017.545809000032,1017.629117500037,1017.8963639999274,,,,,,,,,,,,,,,,,,,,,,up,5.617653200170025,None,space,0.336398100014776,None,P132,001,2025-03-06_10h57.41.517,posner_endo_new1,2024.2.4,60.047473460597196,2025-03-06 10h58.16.324589 +0000,
cube_r.png,0.1,0.31,valid,57,57,0,up,4.283641499932855,None,space,0.36521519999951124,None,,,,,,,,,0,57,57,57,1017.9122585000005,,,,,,,,,,,,,1017.8965777999256,1017.9122585000005,1017.9122585000005,1017.9122585000005,1022.2087958001066,,,,1022.2166929000523,1022.2273369000759,1022.2273369000759,1022.274531400064,1022.2748002000153,1022.2909991999622,1022.2909991999622,1022.2909991999622,1022.3577984001022,1022.6582395001315,,,,,,,,,,,,,,,,,,,,,,up,4.283641499932855,None,space,0.36521519999951124,None,P132,001,2025-03-06_10h57.41.517,posner_endo_new1,2024.2.4,60.047473460597196,2025-03-06 10h58.16.324589 +0000,
cube_r.png,0.1,-0.31,invalid,58,58,0,up,3.498220100067556,None,space,0.4280824000015855,None,,,,,,,,,0,58,58,58,1022.6739503999706,,,,,,,,,,,,,1022.6584520000033,1022.6739503999706,1022.6739503999706,1022.6739503999706,1026.1879811999388,,,,1026.1956734000705,1026.2067474001087,1026.2067474001087,1026.2536891999189,1026.2539508000482,1026.2702514999546,1026.2702514999546,1026.2702514999546,1026.3536120001227,1026.7041321001016,,,,,,,,,,,,,,,,,,,,,,up,3.498220100067556,None,space,0.4280824000015855,None,P132,001,2025-03-06_10h57.41.517,posner_endo_new1,2024.2.4,60.047473460597196,2025-03-06 10h58.16.324589 +0000,
cube_l.png,0.1,0.31,invalid,59,59,0,up,4.228283699834719,None,space,0.3090921000111848,None,,,,,,,,,0,59,59,59,1026.7199387999717,,,,,,,,,,,,,1026.704354800051,1026.7199387999717,1026.7199387999717,1026.7199387999717,1030.9499465001281,,,,1030.9576592000667,1030.9684959000442,1030.9684959000442,1031.0155637999997,1031.0158247000072,1031.0319769000635,1031.0319769000635,1031.0319769000635,1031.115302799968,1031.3494093001354,,,,,,,,,,,,,,,,,,,,,,up,4.228283699834719,None,space,0.3090921000111848,None,P132,001,2025-03-06_10h57.41.517,posner_endo_new1,2024.2.4,60.047473460597196,2025-03-06 10h58.16.324589 +0000,
