cue_img,cue_soa,target_x,trial,thisN,thisTrialN,thisRepN,key_control2.keys,key_control2.rt,key_control2.duration,key_resp.keys,key_resp.rt,key_resp.duration,practice.thisRepN,practice.thisTrialN,practice.thisN,practice.thisIndex,block1.thisRepN,block1.thisTrialN,block1.thisN,block1.thisIndex,block2.thisRepN,block2.thisTrialN,block2.thisN,block2.thisIndex,thisRow.t,notes,instructions.started,instructions_txt.started,key_control.started,instructions.stopped,key_control.keys,key_control.rt,key_control.duration,ready.started,ready_txt.started,ready_txt.stopped,ready.stopped,fix.started,fixation.started,key_control2.started,fixation_cross.started,fix.stopped,practice.key_control2.keys,practice.key_control2.rt,practice.key_control2.duration,cue.started,cube.started,fixation_cross_cue.started,cue.stopped,target.started,fixation_target.started,fixation_cross_target.started,key_resp.started,star.started,target.stopped,practice.key_resp.keys,practice.key_resp.rt,practice.key_resp.duration,star.stopped,fixation_target.stopped,fixation_cross_target.stopped,key_resp.stopped,block1.key_control2.keys,block1.key_control2.rt,block1.key_control2.duration,block1.key_resp.keys,block1.key_resp.rt,block1.key_resp.duration,break_2.started,text.started,key_control3.started,text.stopped,break_2.stopped,key_control3.keys,key_control3.rt,key_control3.duration,block2.key_control2.keys,block2.key_control2.rt,block2.key_control2.duration,block2.key_resp.keys,block2.key_resp.rt,block2.key_resp.duration,participant,session,date,expName,psychopyVersion,frameRate,expStart,
,,,,,,,,,,,,,,,,,,,,,,,,,,,0.00771309994161129,0.020247200038284063,0.020247200038284063,26.110903599997982,up,26.07299599982798,None,,,,,,,,,,,,,,,,,,,,,,,,,,,,,,,,,,,,,,,,,,,,,,,,,,P133,001,2025-03-26_11h22.26.118,posner_endo_new1,2024.2.4,60.041128220392295,2025-03-26 11h22.31.494388 +0000,
,,,,,,,,,,,,,,,,,,,,,,,,,,,,,,,,,,26.110952199902385,26.123749899910763,29.130828199908137,29.104652300011367,,,,,,,,,,,,,,,,,,,,,,,,,,,,,,,,,,,,,,,,,,,,,,P133,001,2025-03-26_11h22.26.118,posner_endo_new1,2024.2.4,60.041128220392295,2025-03-26 11h22.31.494388 +0000,
cube_r.png,0.1,0.31,valid,0,0,0,up,4.954976100008935,None,space,0.36116029997356236,None,0,0,0,10,,,,,,,,,29.130828199908137,,,,,,,,,,,,,29.11825259984471,29.130828199908137,29.130828199908137,29.130828199908137,34.10023149987683,up,4.954976100008935,None,34.11952669988386,34.130885399878025,34.130885399878025,34.16567140002735,34.16588749992661,34.18232270004228,34.18232270004228,34.18232270004228,34.265404699835926,34.54951509996317,space,0.36116029997356236,None,,,,,,,,,,,,,,,,,,,,,,,,,P133,001,2025-03-26_11h22.26.118,posner_endo_new1,2024.2.4,60.041128220392295,2025-03-26 11h22.31.494388 +0000,
cube_l.png,0.1,-0.31,valid,1,1,0,up,3.952817500103265,None,space,0.3029322000220418,None,0,1,1,8,,,,,,,,,34.56506449985318,,,,,,,,,,,,,34.549692499917,34.56506449985318,34.56506449985318,34.56506449985318,38.52867929986678,up,3.952817500103265,None,38.535705799935386,38.54745249985717,38.54745249985717,38.59447339992039,38.59469509986229,38.61107949982397,38.61107949982397,38.61107949982397,38.677622799994424,38.92815910000354,space,0.3029322000220418,None,,,,,,,,,,,,,,,,,,,,,,,,,P133,001,2025-03-26_11h22.26.118,posner_endo_new1,2024.2.4,60.041128220392295,2025-03-26 11h22.31.494388 +0000,
cube_r.png,0.1,0.31,valid,2,2,0,up,4.365099200047553,None,space,0.3153578999917954,None,0,2,2,7,,,,,,,,,38.94406449981034,,,,,,,,,,,,,38.92832439998165,38.94406449981034,38.94406449981034,38.94406449981034,43.3236067998223,up,4.365099200047553,None,43.32946499995887,43.34108539996669,43.34108539996669,43.38998580002226,43.390206899959594,43.406170999864116,43.406170999864116,43.406170999864116,43.472678899997845,43.723415799904615,space,0.3153578999917954,None,,,,,,,,,,,,,,,,,,,,,,,,,P133,001,2025-03-26_11h22.26.118,posner_endo_new1,2024.2.4,60.041128220392295,2025-03-26 11h22.31.494388 +0000,
cube_r.png,0.1,-0.31,invalid,3,3,0,up,2.56242539989762,None,space,0.3329883001279086,None,0,3,3,6,,,,,,,,,43.73907390004024,,,,,,,,,,,,,43.72358169988729,43.73907390004024,43.73907390004024,43.73907390004024,46.3040605999995,up,2.56242539989762,None,46.30990759981796,46.32160759996623,46.32160759996623,46.369864699896425,46.37008559983224,46.38639839994721,46.38639839994721,46.38639839994721,46.45300509990193,46.720309800002724,space,0.3329883001279086,None,,,,,,,,,,,,,,,,,,,,,,,,,P133,001,2025-03-26_11h22.26.118,posner_endo_new1,2024.2.4,60.041128220392295,2025-03-26 11h22.31.494388 +0000,
cube_l.png,0.1,-0.31,valid,4,4,0,up,3.6773910999763757,None,space,0.31004579993896186,None,0,4,4,0,,,,,,,,,46.73616339988075,,,,,,,,,,,,,46.720474699977785,46.73616339988075,46.73616339988075,46.73616339988075,50.41630439995788,up,3.6773910999763757,None,50.4221408998128,50.43376039993018,50.43376039993018,50.48243039986119,50.4826582998503,50.498852299991995,50.498852299991995,50.498852299991995,50.56516689993441,50.8160095999483,space,0.31004579993896186,None,,,,,,,,,,,,,,,,,,,,,,,,,P133,001,2025-03-26_11h22.26.118,posner_endo_new1,2024.2.4,60.041128220392295,2025-03-26 11h22.31.494388 +0000,
cube_r.png,0.1,10,catch,5,5,0,up,4.933431199984625,None,None,,,0,5,5,3,,,,,,,,,50.831795499892905,,,,,,,,,,,,,50.81617120001465,50.831795499892905,50.831795499892905,50.831795499892905,55.77747289999388,up,4.933431199984625,None,55.78337119985372,55.79494239995256,55.79494239995256,55.843420799821615,55.84364189999178,55.86000530002639,55.86000530002639,55.86000530002639,55.926572599913925,58.85746049997397,None,,,57.9412205000408,58.87379189999774,58.87379189999774,58.87379189999774,,,,,,,,,,,,,,,,,,,,,P133,001,2025-03-26_11h22.26.118,posner_endo_new1,2024.2.4,60.041128220392295,2025-03-26 11h22.31.494388 +0000,
cube_r.png,0.1,-0.31,invalid,6,6,0,up,2.259737499989569,None,space,0.37717380002141,None,0,6,6,2,,,,,,,,,58.87379189999774,,,,,,,,,,,,,58.857614799868315,58.87379189999774,58.87379189999774,58.87379189999774,61.1388285998255,up,2.259737499989569,None,61.14457300002687,61.156251800013706,61.156251800013706,61.204815599834546,61.20503439987078,61.2212753999047,61.2212753999047,61.2212753999047,61.287756599951535,61.604887599823996,space,0.37717380002141,None,,,,,,,,,,,,,,,,,,,,,,,,,P133,001,2025-03-26_11h22.26.118,posner_endo_new1,2024.2.4,60.041128220392295,2025-03-26 11h22.31.494388 +0000,
cube_l.png,0.1,0.31,invalid,7,7,0,up,4.0087387000676244,None,space,0.36582139995880425,None,0,7,7,1,,,,,,,,,61.62073599989526,,,,,,,,,,,,,61.605052599916235,61.62073599989526,61.62073599989526,61.62073599989526,65.63476970000193,up,4.0087387000676244,None,65.64604100002907,65.656495800009,65.656495800009,65.70008089998737,65.70042519993149,65.71667149988934,65.71667149988934,65.71667149988934,65.79996289988048,66.08439789991826,space,0.36582139995880425,None,,,,,,,,,,,,,,,,,,,,,,,,,P133,001,2025-03-26_11h22.26.118,posner_endo_new1,2024.2.4,60.041128220392295,2025-03-26 11h22.31.494388 +0000,
cube_r.png,0.1,-0.31,invalid,8,8,0,up,5.465676499996334,None,space,0.3589737000875175,None,0,8,8,9,,,,,,,,,66.09966319985688,,,,,,,,,,,,,66.0846863000188,66.09966319985688,66.09966319985688,66.09966319985688,71.5783285999205,up,5.465676499996334,None,71.58480679988861,71.59624009998515,71.59624009998515,71.64405140001327,71.64428469981067,71.66018759994768,71.66018759994768,71.66018759994768,71.74375919997692,72.02769499993883,space,0.3589737000875175,None,,,,,,,,,,,,,,,,,,,,,,,,,P133,001,2025-03-26_11h22.26.118,posner_endo_new1,2024.2.4,60.041128220392295,2025-03-26 11h22.31.494388 +0000,
cube_l.png,0.1,-0.31,valid,9,9,0,up,9.818014200078323,None,space,0.31050929985940456,None,0,9,9,4,,,,,,,,,72.04349279985763,,,,,,,,,,,,,72.02786140004173,72.04349279985763,72.04349279985763,72.04349279985763,81.86755550000817,up,9.818014200078323,None,81.8739593999926,81.8856863998808,81.8856863998808,81.93365409993567,81.93387739988975,81.95009229984134,81.95009229984134,81.95009229984134,82.03331209998578,82.26722549996339,space,0.31050929985940456,None,,,,,,,,,,,,,,,,,,,,,,,,,P133,001,2025-03-26_11h22.26.118,posner_endo_new1,2024.2.4,60.041128220392295,2025-03-26 11h22.31.494388 +0000,
cube_l.png,0.1,0.31,invalid,10,10,0,up,4.513813399942592,None,space,0.3357047999743372,None,0,10,10,5,,,,,,,,,82.28314369986765,,,,,,,,,,,,,82.26738839992322,82.28314369986765,82.28314369986765,82.28314369986765,86.81240639998578,up,4.513813399942592,None,86.81862779986113,86.8302715998143,86.8302715998143,86.87847070000134,86.87869010004215,86.89490600000136,86.89490600000136,86.89490600000136,86.96153740002774,87.24546459992416,space,0.3357047999743372,None,,,,,,,,,,,,,,,,,,,,,,,,,P133,001,2025-03-26_11h22.26.118,posner_endo_new1,2024.2.4,60.041128220392295,2025-03-26 11h22.31.494388 +0000,
,,,,,,,,,,,,,,,,,,,,,,,,,,,,,,,,,,87.24558059987612,87.26114890002646,90.27984339999966,90.24254380003549,,,,,,,,,,,,,,,,,,,,,,,,,,,,,,,,,,,,,,,,,,,,,,P133,001,2025-03-26_11h22.26.118,posner_endo_new1,2024.2.4,60.041128220392295,2025-03-26 11h22.31.494388 +0000,
cube_l.png,0.1,10,catch,0,0,0,up,6.173474400071427,None,None,,,,,,,0,0,0,0,,,,,90.27984339999966,,,,,,,,,,,,,90.27100069983862,90.27984339999966,90.27984339999966,90.27984339999966,96.47036010003649,,,,96.48980859993026,96.5009398998227,96.5009398998227,96.53528289985843,96.53562669991516,96.55169390002266,96.55169390002266,96.55169390002266,96.6349163998384,99.54963259981014,,,,98.64953569998033,99.56541069992818,99.56541069992818,99.56541069992818,up,6.173474400071427,None,None,,,,,,,,,,,,,,,,,P133,001,2025-03-26_11h22.26.118,posner_endo_new1,2024.2.4,60.041128220392295,2025-03-26 11h22.31.494388 +0000,
cube_l.png,0.1,10,catch,1,1,0,up,5.263931399909779,None,None,,,,,,,0,1,1,1,,,,,99.56541069992818,,,,,,,,,,,,,99.54990919982083,99.56541069992818,99.56541069992818,99.56541069992818,104.84440449997783,,,,104.85649050003849,104.86670319992118,104.86670319992118,104.91005099983886,104.91039670002647,104.92662679986097,104.92662679986097,104.92662679986097,105.00972789991647,107.92427519988269,,,,107.02442679996602,107.94010009989142,107.94010009989142,107.94010009989142,up,5.263931399909779,None,None,,,,,,,,,,,,,,,,,P133,001,2025-03-26_11h22.26.118,posner_endo_new1,2024.2.4,60.041128220392295,2025-03-26 11h22.31.494388 +0000,
cube_l.png,0.1,0.31,invalid,2,2,0,up,9.225500100059435,None,space,0.3436215999536216,None,,,,,0,2,2,2,,,,,107.94010009989142,,,,,,,,,,,,,107.92454409995116,107.94010009989142,107.94010009989142,107.94010009989142,117.18176049995236,,,,117.19418670004234,117.20462649990804,117.20462649990804,117.24737999984063,117.24772510002367,117.2639108998701,117.2639108998701,117.2639108998701,117.34711860003881,117.61472649988718,,,,,,,,up,9.225500100059435,None,space,0.3436215999536216,None,,,,,,,,,,,,,,,P133,001,2025-03-26_11h22.26.118,posner_endo_new1,2024.2.4,60.041128220392295,2025-03-26 11h22.31.494388 +0000,
cube_l.png,0.1,0.31,invalid,3,3,0,up,3.0709762999322265,None,space,0.2954358998686075,None,,,,,0,3,3,3,,,,,117.63016659999266,,,,,,,,,,,,,117.61502859997563,117.63016659999266,117.63016659999266,117.63016659999266,120.7111213998869,,,,120.71875360002741,120.72991420002654,120.72991420002654,120.77700100000948,120.77725179982372,120.7935029999353,120.7935029999353,120.7935029999353,120.86022509983741,121.0942597000394,,,,,,,,up,3.0709762999322265,None,space,0.2954358998686075,None,,,,,,,,,,,,,,,P133,001,2025-03-26_11h22.26.118,posner_endo_new1,2024.2.4,60.041128220392295,2025-03-26 11h22.31.494388 +0000,
cube_l.png,0.1,-0.31,valid,4,4,0,up,3.9119256001431495,None,space,0.3350792999844998,None,,,,,0,4,4,4,,,,,121.10978879989125,,,,,,,,,,,,,121.09445829992183,121.10978879989125,121.10978879989125,121.10978879989125,125.02351940004155,,,,125.03117390000261,125.04221439990215,125.04221439990215,125.08932999987155,125.0895753998775,125.10578109999187,125.10578109999187,125.10578109999187,125.18908129981719,125.45623889984563,,,,,,,,up,3.9119256001431495,None,space,0.3350792999844998,None,,,,,,,,,,,,,,,P133,001,2025-03-26_11h22.26.118,posner_endo_new1,2024.2.4,60.041128220392295,2025-03-26 11h22.31.494388 +0000,
cube_r.png,0.1,-0.31,invalid,5,5,0,up,5.549503399990499,None,space,0.32496290002018213,None,,,,,0,5,5,5,,,,,125.4719948999118,,,,,,,,,,,,,125.4564381998498,125.4719948999118,125.4719948999118,125.4719948999118,131.03376379981637,,,,131.04138459987007,131.05267879995517,131.05267879995517,131.09958769986406,131.09980880003422,131.11634760000743,131.11634760000743,131.11634760000743,131.18286259984598,131.45004709996283,,,,,,,,up,5.549503399990499,None,space,0.32496290002018213,None,,,,,,,,,,,,,,,P133,001,2025-03-26_11h22.26.118,posner_endo_new1,2024.2.4,60.041128220392295,2025-03-26 11h22.31.494388 +0000,
cube_r.png,0.1,0.31,valid,6,6,0,up,7.2753882999531925,None,space,0.2946130000054836,None,,,,,0,6,6,6,,,,,131.46608569985256,,,,,,,,,,,,,131.4502186998725,131.46608569985256,131.46608569985256,131.46608569985256,138.74255879991688,,,,138.7498329000082,138.76138839987107,138.76138839987107,138.80871220002882,138.80893979989924,138.82508770003915,138.82508770003915,138.82508770003915,138.8919128999114,139.12574189994484,,,,,,,,up,7.2753882999531925,None,space,0.2946130000054836,None,,,,,,,,,,,,,,,P133,001,2025-03-26_11h22.26.118,posner_endo_new1,2024.2.4,60.041128220392295,2025-03-26 11h22.31.494388 +0000,
cube_r.png,0.1,-0.31,invalid,7,7,0,up,6.42410479998216,None,space,0.3848137999884784,None,,,,,0,7,7,7,,,,,139.14145340002142,,,,,,,,,,,,,139.12592509994283,139.14145340002142,139.14145340002142,139.14145340002142,145.56921879993752,,,,145.57540129986592,145.58722530002706,145.58722530002706,145.63497369992547,145.63519349996932,145.65151280001737,145.65151280001737,145.65151280001737,145.7347627999261,146.0518864998594,,,,,,,,up,6.42410479998216,None,space,0.3848137999884784,None,,,,,,,,,,,,,,,P133,001,2025-03-26_11h22.26.118,posner_endo_new1,2024.2.4,60.041128220392295,2025-03-26 11h22.31.494388 +0000,
cube_l.png,0.1,-0.31,valid,8,8,0,up,4.985502500087023,None,space,0.37814699998125434,None,,,,,0,8,8,8,,,,,146.06767049990594,,,,,,,,,,,,,146.05205890000798,146.06767049990594,146.06767049990594,146.06767049990594,151.06335289985873,,,,151.0709891000297,151.09397859987803,151.09397859987803,151.12925919983536,151.1294968998991,151.145835199859,151.145835199859,151.145835199859,151.21261489996687,151.52964399987832,,,,,,,,up,4.985502500087023,None,space,0.37814699998125434,None,,,,,,,,,,,,,,,P133,001,2025-03-26_11h22.26.118,posner_endo_new1,2024.2.4,60.041128220392295,2025-03-26 11h22.31.494388 +0000,
cube_r.png,0.1,-0.31,invalid,9,9,0,up,3.852220800006762,None,space,0.30974100017920136,None,,,,,0,9,9,9,,,,,151.54545879992656,,,,,,,,,,,,,151.52982479985803,151.54545879992656,151.54545879992656,151.54545879992656,155.40881539997645,,,,155.41498439991847,155.42672899994068,155.42672899994068,155.47487229993567,155.4750907998532,155.49144289991818,155.49144289991818,155.49144289991818,155.5580314998515,155.8083538999781,,,,,,,,up,3.852220800006762,None,space,0.30974100017920136,None,,,,,,,,,,,,,,,P133,001,2025-03-26_11h22.26.118,posner_endo_new1,2024.2.4,60.041128220392295,2025-03-26 11h22.31.494388 +0000,
cube_l.png,0.1,0.31,invalid,10,10,0,up,3.357164700049907,None,space,0.3469442999921739,None,,,,,0,10,10,10,,,,,155.82432059990242,,,,,,,,,,,,,155.80852689989842,155.82432059990242,155.82432059990242,155.82432059990242,159.18816719995812,,,,159.19444919982925,159.20628939988092,159.20628939988092,159.25446289987303,159.25468849996105,159.2708788998425,159.2708788998425,159.2708788998425,159.3374897998292,159.62136039999314,,,,,,,,up,3.357164700049907,None,space,0.3469442999921739,None,,,,,,,,,,,,,,,P133,001,2025-03-26_11h22.26.118,posner_endo_new1,2024.2.4,60.041128220392295,2025-03-26 11h22.31.494388 +0000,
cube_r.png,0.1,-0.31,invalid,11,11,0,up,3.9843634001445025,None,space,0.31223180005326867,None,,,,,0,11,11,11,,,,,159.63705559982918,,,,,,,,,,,,,159.62153210001998,159.63705559982918,159.63705559982918,159.63705559982918,163.6338633999694,,,,163.64000019989908,163.65176819986664,163.65176819986664,163.69974059984088,163.6999617998954,163.71639319998212,163.71639319998212,163.71639319998212,163.7829885999672,164.03335659997538,,,,,,,,up,3.9843634001445025,None,space,0.31223180005326867,None,,,,,,,,,,,,,,,P133,001,2025-03-26_11h22.26.118,posner_endo_new1,2024.2.4,60.041128220392295,2025-03-26 11h22.31.494388 +0000,
cube_r.png,0.1,0.31,valid,12,12,0,up,4.83577929995954,None,space,0.33441770006902516,None,,,,,0,12,12,12,,,,,164.04933710000478,,,,,,,,,,,,,164.03352899989113,164.04933710000478,164.04933710000478,164.04933710000478,168.8949909999501,,,,168.90105509990826,168.91265569999814,168.91265569999814,168.96114249993116,168.9613645998761,168.97768340003677,168.97768340003677,168.97768340003677,169.0442496999167,169.32791059999727,,,,,,,,up,4.83577929995954,None,space,0.33441770006902516,None,,,,,,,,,,,,,,,P133,001,2025-03-26_11h22.26.118,posner_endo_new1,2024.2.4,60.041128220392295,2025-03-26 11h22.31.494388 +0000,
cube_l.png,0.1,10,catch,13,13,0,up,3.6137294999789447,None,None,,,,,,,0,13,13,13,,,,,169.3438500999473,,,,,,,,,,,,,169.32808139990084,169.3438500999473,169.3438500999473,169.3438500999473,172.97433499991894,,,,172.98139299987815,172.9928841998335,172.9928841998335,173.04030349990353,173.0405226999428,173.0564837998245,173.0564837998245,173.0564837998245,173.14001469989307,176.0543074000161,,,,175.15462449984625,176.0702865999192,176.0702865999192,176.0702865999192,up,3.6137294999789447,None,None,,,,,,,,,,,,,,,,,P133,001,2025-03-26_11h22.26.118,posner_endo_new1,2024.2.4,60.041128220392295,2025-03-26 11h22.31.494388 +0000,
cube_r.png,0.1,-0.31,invalid,14,14,0,up,1.542961300117895,None,space,0.4113217999693006,None,,,,,0,14,14,14,,,,,176.0702865999192,,,,,,,,,,,,,176.05447109998204,176.0702865999192,176.0702865999192,176.0702865999192,177.6194066000171,,,,177.62556639988907,177.63731389981695,177.63731389981695,177.68555429996923,177.68577530002221,177.70204639993608,177.70204639993608,177.70204639993608,177.76854819990695,178.1191048999317,,,,,,,,up,1.542961300117895,None,space,0.4113217999693006,None,,,,,,,,,,,,,,,P133,001,2025-03-26_11h22.26.118,posner_endo_new1,2024.2.4,60.041128220392295,2025-03-26 11h22.31.494388 +0000,
cube_l.png,0.1,-0.31,valid,15,15,0,up,3.902963599888608,None,space,0.3375989000778645,None,,,,,0,15,15,15,,,,,178.13480829983018,,,,,,,,,,,,,178.11927809985355,178.13480829983018,178.13480829983018,178.13480829983018,182.04822739982046,,,,182.05472130002454,182.06657769996673,182.06657769996673,182.11441069981083,182.11462959996425,182.13075829995796,182.13075829995796,182.13075829995796,182.197378099896,182.4810770000331,,,,,,,,up,3.902963599888608,None,space,0.3375989000778645,None,,,,,,,,,,,,,,,P133,001,2025-03-26_11h22.26.118,posner_endo_new1,2024.2.4,60.041128220392295,2025-03-26 11h22.31.494388 +0000,
cube_r.png,0.1,10,catch,16,16,0,up,4.523965800181031,None,space,0.32504360005259514,None,,,,,0,16,16,16,,,,,182.497074799845,,,,,,,,,,,,,182.48124859994277,182.497074799845,182.497074799845,182.497074799845,187.02670709998347,,,,187.0328214999754,187.04420899995603,187.04420899995603,187.09248989983462,187.09300570003688,187.1089309998788,187.1089309998788,187.1089309998788,187.1921614999883,187.443481199909,,,,,,,,up,4.523965800181031,None,space,0.32504360005259514,None,,,,,,,,,,,,,,,P133,001,2025-03-26_11h22.26.118,posner_endo_new1,2024.2.4,60.041128220392295,2025-03-26 11h22.31.494388 +0000,
cube_r.png,0.1,10,catch,17,17,0,up,6.107164999935776,None,None,,,,,,,0,17,17,17,,,,,187.45864510000683,,,,,,,,,,,,,187.44376929989085,187.45864510000683,187.45864510000683,187.45864510000683,193.5704733999446,,,,193.58094929996878,193.59058670001104,193.59058670001104,193.6358294999227,193.63606199994683,193.6524231999647,193.6524231999647,193.6524231999647,193.7357040999923,196.64973519998603,,,,195.75031729997136,196.66585099999793,196.66585099999793,196.66585099999793,up,6.107164999935776,None,None,,,,,,,,,,,,,,,,,P133,001,2025-03-26_11h22.26.118,posner_endo_new1,2024.2.4,60.041128220392295,2025-03-26 11h22.31.494388 +0000,
cube_l.png,0.1,0.31,invalid,18,18,0,up,2.091510600177571,None,space,0.4837982999160886,None,,,,,0,18,18,18,,,,,196.66585099999793,,,,,,,,,,,,,196.649909599917,196.66585099999793,196.66585099999793,196.66585099999793,198.76471439981833,,,,198.77143359999172,198.78322730003856,198.78322730003856,198.83054340002127,198.8307763999328,198.8471317999065,198.8471317999065,198.8471317999065,198.9303577998653,199.34727699984796,,,,,,,,up,2.091510600177571,None,space,0.4837982999160886,None,,,,,,,,,,,,,,,P133,001,2025-03-26_11h22.26.118,posner_endo_new1,2024.2.4,60.041128220392295,2025-03-26 11h22.31.494388 +0000,
cube_l.png,0.1,10,catch,19,19,0,up,4.21845669997856,None,space,0.2967664999887347,None,,,,,0,19,19,19,,,,,199.3632226998452,,,,,,,,,,,,,199.3474497999996,199.3632226998452,199.3632226998452,199.3632226998452,203.59294179989956,,,,203.5998302998487,203.61151129985228,203.61151129985228,203.65865539992228,203.65913129993714,203.67516199988313,203.67516199988313,203.67516199988313,203.75836370000616,203.9764245999977,,,,,,,,up,4.21845669997856,None,space,0.2967664999887347,None,,,,,,,,,,,,,,,P133,001,2025-03-26_11h22.26.118,posner_endo_new1,2024.2.4,60.041128220392295,2025-03-26 11h22.31.494388 +0000,
cube_l.png,0.1,0.31,invalid,20,20,0,up,4.727260600076988,None,space,0.38368379999883473,None,,,,,0,20,20,20,,,,,203.99146759998985,,,,,,,,,,,,,203.9767993998248,203.99146759998985,203.99146759998985,203.99146759998985,208.7209844000172,,,,208.72756719985045,208.73933849995956,208.73933849995956,208.78700909996405,208.7872301999014,208.80356819997542,208.80356819997542,208.80356819997542,208.8702070999425,209.20377859985456,,,,,,,,up,4.727260600076988,None,space,0.38368379999883473,None,,,,,,,,,,,,,,,P133,001,2025-03-26_11h22.26.118,posner_endo_new1,2024.2.4,60.041128220392295,2025-03-26 11h22.31.494388 +0000,
cube_l.png,0.1,-0.31,valid,21,21,0,up,3.361776400124654,None,space,0.44123629992827773,None,,,,,0,21,21,21,,,,,209.2196078998968,,,,,,,,,,,,,209.20395869994536,209.2196078998968,209.2196078998968,209.2196078998968,212.58385209995322,,,,212.59051369992085,212.60210060002282,212.60210060002282,212.64958099997602,212.64980240003206,212.66629199986346,212.66629199986346,212.66629199986346,212.7495647999458,213.11637669987977,,,,,,,,up,3.361776400124654,None,space,0.44123629992827773,None,,,,,,,,,,,,,,,P133,001,2025-03-26_11h22.26.118,posner_endo_new1,2024.2.4,60.041128220392295,2025-03-26 11h22.31.494388 +0000,
cube_r.png,0.1,0.31,valid,22,22,0,up,4.304549699882045,None,space,0.3298056998755783,None,,,,,0,22,22,22,,,,,213.13258469989523,,,,,,,,,,,,,213.11655119992793,213.13258469989523,213.13258469989523,213.13258469989523,217.4451019000262,,,,217.4518130000215,217.4632897998672,217.4632897998672,217.51122899982147,217.51144719985314,217.52800769987516,217.52800769987516,217.52800769987516,217.59469399997033,217.86160800000653,,,,,,,,up,4.304549699882045,None,space,0.3298056998755783,None,,,,,,,,,,,,,,,P133,001,2025-03-26_11h22.26.118,posner_endo_new1,2024.2.4,60.041128220392295,2025-03-26 11h22.31.494388 +0000,
cube_r.png,0.1,-0.31,invalid,23,23,0,up,3.639590499922633,None,space,0.42139200004749,None,,,,,0,23,23,23,,,,,217.8775988998823,,,,,,,,,,,,,217.86179160000756,217.8775988998823,217.8775988998823,217.8775988998823,221.524343600031,,,,221.5306222999934,221.542086499976,221.542086499976,221.59056209982373,221.59080569981597,221.60682470002212,221.60682470002212,221.60682470002212,221.673723799875,222.04084959998727,,,,,,,,up,3.639590499922633,None,space,0.42139200004749,None,,,,,,,,,,,,,,,P133,001,2025-03-26_11h22.26.118,posner_endo_new1,2024.2.4,60.041128220392295,2025-03-26 11h22.31.494388 +0000,
cube_r.png,0.1,0.31,valid,24,24,0,up,4.09240569989197,None,space,0.38204320007935166,None,,,,,0,24,24,24,,,,,222.05656259995885,,,,,,,,,,,,,222.04102689982392,222.05656259995885,222.05656259995885,222.05656259995885,226.15326289995573,,,,226.15957210003398,226.17126389988698,226.17126389988698,226.21909989998676,226.21933759981766,226.23558199987747,226.23558199987747,226.23558199987747,226.31887139985338,226.6196887998376,,,,,,,,up,4.09240569989197,None,space,0.38204320007935166,None,,,,,,,,,,,,,,,P133,001,2025-03-26_11h22.26.118,posner_endo_new1,2024.2.4,60.041128220392295,2025-03-26 11h22.31.494388 +0000,
cube_r.png,0.1,-0.31,invalid,25,25,0,up,5.914072399958968,None,space,0.3280203000176698,None,,,,,0,25,25,25,,,,,226.6352682998404,,,,,,,,,,,,,226.619868400041,226.6352682998404,226.6352682998404,226.6352682998404,232.56314179999754,,,,232.5707703998778,232.58257550001144,232.58257550001144,232.6291561999824,232.6293967999518,232.6456835998688,232.6456835998688,232.6456835998688,232.71230779984035,232.97946429997683,,,,,,,,up,5.914072399958968,None,space,0.3280203000176698,None,,,,,,,,,,,,,,,P133,001,2025-03-26_11h22.26.118,posner_endo_new1,2024.2.4,60.041128220392295,2025-03-26 11h22.31.494388 +0000,
cube_l.png,0.1,-0.31,valid,26,26,0,up,3.4735004000831395,None,space,0.36067930003628135,None,,,,,0,26,26,26,,,,,232.99543709983118,,,,,,,,,,,,,232.97964429995045,232.99543709983118,232.99543709983118,232.99543709983118,236.47577989986166,,,,236.48208380001597,236.4936543998774,236.4936543998774,236.54185679997317,236.54209079989232,236.5584821999073,236.5584821999073,236.5584821999073,236.62488939985633,236.925607400015,,,,,,,,up,3.4735004000831395,None,space,0.36067930003628135,None,,,,,,,,,,,,,,,P133,001,2025-03-26_11h22.26.118,posner_endo_new1,2024.2.4,60.041128220392295,2025-03-26 11h22.31.494388 +0000,
cube_r.png,0.1,0.31,valid,27,27,0,up,10.92807689984329,None,space,0.37347269989550114,None,,,,,0,27,27,27,,,,,236.94144239998423,,,,,,,,,,,,,236.92578779999167,236.94144239998423,236.94144239998423,236.94144239998423,247.88088719989173,,,,247.8875221000053,247.8993138000369,247.8993138000369,247.9467523000203,247.9469863998238,247.9634721998591,247.9634721998591,247.9634721998591,248.0299084999133,248.34715229994617,,,,,,,,up,10.92807689984329,None,space,0.37347269989550114,None,,,,,,,,,,,,,,,P133,001,2025-03-26_11h22.26.118,posner_endo_new1,2024.2.4,60.041128220392295,2025-03-26 11h22.31.494388 +0000,
cube_r.png,0.1,10,catch,28,28,0,up,4.40254499996081,None,None,,,,,,,0,28,28,28,,,,,248.36296699987724,,,,,,,,,,,,,248.34733479982242,248.36296699987724,248.36296699987724,248.36296699987724,252.77579839993268,,,,252.78213860001415,252.7935981999617,252.7935981999617,252.8417447998654,252.84198319981806,252.8584080999717,252.8584080999717,252.8584080999717,252.92508820001967,255.85594079992734,,,,254.93958409992047,255.87169829988852,255.87169829988852,255.87169829988852,up,4.40254499996081,None,None,,,,,,,,,,,,,,,,,P133,001,2025-03-26_11h22.26.118,posner_endo_new1,2024.2.4,60.041128220392295,2025-03-26 11h22.31.494388 +0000,
cube_r.png,0.1,0.31,valid,29,29,0,up,8.605539300013334,None,space,0.42234289995394647,None,,,,,0,29,29,29,,,,,255.87169829988852,,,,,,,,,,,,,255.85611149994656,255.87169829988852,255.87169829988852,255.87169829988852,264.48087089997716,,,,264.4873497998342,264.4990230000112,264.4990230000112,264.546664299909,264.54688549996354,264.5631883998867,264.5631883998867,264.5631883998867,264.64648779993877,264.9968044999987,,,,,,,,up,8.605539300013334,None,space,0.42234289995394647,None,,,,,,,,,,,,,,,P133,001,2025-03-26_11h22.26.118,posner_endo_new1,2024.2.4,60.041128220392295,2025-03-26 11h22.31.494388 +0000,
cube_r.png,0.1,0.31,valid,30,30,0,up,5.00866620009765,None,space,0.3820369001477957,None,,,,,0,30,30,30,,,,,265.0126726999879,,,,,,,,,,,,,264.99697589990683,265.0126726999879,265.0126726999879,265.0126726999879,270.0250205998309,,,,270.0311352999415,270.04299039999023,270.04299039999023,270.09085279982537,270.0910723998677,270.1074406998232,270.1074406998232,270.1074406998232,270.1741032998543,270.4911450999789,,,,,,,,up,5.00866620009765,None,space,0.3820369001477957,None,,,,,,,,,,,,,,,P133,001,2025-03-26_11h22.26.118,posner_endo_new1,2024.2.4,60.041128220392295,2025-03-26 11h22.31.494388 +0000,
cube_l.png,0.1,-0.31,valid,31,31,0,up,2.6266350999940187,None,space,0.3937574001029134,None,,,,,0,31,31,31,,,,,270.5071244998835,,,,,,,,,,,,,270.49131829990074,270.5071244998835,270.5071244998835,270.5071244998835,273.13856150000356,,,,273.14581699995324,273.1574295000173,273.1574295000173,273.20428760000505,273.20451790001243,273.2211050000042,273.2211050000042,273.2211050000042,273.3041383998934,273.62156350002624,,,,,,,,up,2.6266350999940187,None,space,0.3937574001029134,None,,,,,,,,,,,,,,,P133,001,2025-03-26_11h22.26.118,posner_endo_new1,2024.2.4,60.041128220392295,2025-03-26 11h22.31.494388 +0000,
cube_r.png,0.1,0.31,valid,32,32,0,up,3.7041489998809993,None,space,0.3009191998280585,None,,,,,0,32,32,32,,,,,273.6371654998511,,,,,,,,,,,,,273.6217350999359,273.6371654998511,273.6371654998511,273.6371654998511,277.35078069986776,,,,277.35740639991127,277.3691136999987,277.3691136999987,277.4168426999822,277.4170700998511,277.433386699995,277.433386699995,277.433386699995,277.49992919992656,277.7504279999994,,,,,,,,up,3.7041489998809993,None,space,0.3009191998280585,None,,,,,,,,,,,,,,,P133,001,2025-03-26_11h22.26.118,posner_endo_new1,2024.2.4,60.041128220392295,2025-03-26 11h22.31.494388 +0000,
cube_r.png,0.1,-0.31,invalid,33,33,0,up,6.910554299829528,None,space,0.36270989989861846,None,,,,,0,33,33,33,,,,,277.7663294998929,,,,,,,,,,,,,277.7506026998162,277.7663294998929,277.7663294998929,277.7663294998929,284.69324960000813,,,,284.6998584999237,284.7115633999929,284.7115633999929,284.75929299998097,284.75951549992897,284.7758189998567,284.7758189998567,284.7758189998567,284.8423466999084,285.14293810003437,,,,,,,,up,6.910554299829528,None,space,0.36270989989861846,None,,,,,,,,,,,,,,,P133,001,2025-03-26_11h22.26.118,posner_endo_new1,2024.2.4,60.041128220392295,2025-03-26 11h22.31.494388 +0000,
cube_r.png,0.1,10,catch,34,34,0,up,3.95929539995268,None,space,0.34364700014702976,None,,,,,0,34,34,34,,,,,285.1586070000194,,,,,,,,,,,,,285.1431099998299,285.1586070000194,285.1586070000194,285.1586070000194,289.1221493999474,,,,289.12803849997,289.13978139986284,289.13978139986284,289.1880108998157,289.18850599997677,289.20443969988264,289.20443969988264,289.20443969988264,289.2876762000378,289.5558597999625,,,,,,,,up,3.95929539995268,None,space,0.34364700014702976,None,,,,,,,,,,,,,,,P133,001,2025-03-26_11h22.26.118,posner_endo_new1,2024.2.4,60.041128220392295,2025-03-26 11h22.31.494388 +0000,
cube_r.png,0.1,0.31,valid,35,35,0,up,4.37091219983995,None,space,0.41700660018250346,None,,,,,0,35,35,35,,,,,289.570733099943,,,,,,,,,,,,,289.55631170002744,289.570733099943,289.570733099943,289.570733099943,293.95089509990066,,,,293.9613951998763,293.97102579986677,293.97102579986677,294.0163827999495,294.0166168999858,294.03305369988084,294.03305369988084,294.03305369988084,294.1161695998162,294.46673689992167,,,,,,,,up,4.37091219983995,None,space,0.41700660018250346,None,,,,,,,,,,,,,,,P133,001,2025-03-26_11h22.26.118,posner_endo_new1,2024.2.4,60.041128220392295,2025-03-26 11h22.31.494388 +0000,
cube_r.png,0.1,-0.31,invalid,36,36,0,up,4.218836300075054,None,space,0.42235799995251,None,,,,,0,36,36,36,,,,,294.4826883999631,,,,,,,,,,,,,294.466922899941,294.4826883999631,294.4826883999631,294.4826883999631,298.7122013999615,,,,298.7192220999859,298.73100079991855,298.73100079991855,298.77816759981215,298.7783868999686,298.7947827000171,298.7947827000171,298.7947827000171,298.86137059982866,299.2282290000003,,,,,,,,up,4.218836300075054,None,space,0.42235799995251,None,,,,,,,,,,,,,,,P133,001,2025-03-26_11h22.26.118,posner_endo_new1,2024.2.4,60.041128220392295,2025-03-26 11h22.31.494388 +0000,
cube_l.png,0.1,0.31,invalid,37,37,0,up,6.905320399906486,None,space,0.3502332998905331,None,,,,,0,37,37,37,,,,,299.2444168999791,,,,,,,,,,,,,299.22840889985673,299.2444168999791,299.2444168999791,299.2444168999791,306.1547862000298,,,,306.1606821999885,306.1724805999547,306.1724805999547,306.2207547998987,306.2209749999456,306.23724509985186,306.23724509985186,306.23724509985186,306.32044869987294,306.6042224999983,,,,,,,,up,6.905320399906486,None,space,0.3502332998905331,None,,,,,,,,,,,,,,,P133,001,2025-03-26_11h22.26.118,posner_endo_new1,2024.2.4,60.041128220392295,2025-03-26 11h22.31.494388 +0000,
cube_l.png,0.1,0.31,invalid,38,38,0,up,9.001615799963474,None,space,0.3724586998578161,None,,,,,0,38,38,38,,,,,306.62017249991186,,,,,,,,,,,,,306.6043926998973,306.62017249991186,306.62017249991186,306.62017249991186,315.62852859986015,,,,315.6357626998797,315.6473236999009,315.6473236999009,315.69400110002607,315.6944333999418,315.71046569989994,315.71046569989994,315.71046569989994,315.79371499991976,316.0947974999435,,,,,,,,up,9.001615799963474,None,space,0.3724586998578161,None,,,,,,,,,,,,,,,P133,001,2025-03-26_11h22.26.118,posner_endo_new1,2024.2.4,60.041128220392295,2025-03-26 11h22.31.494388 +0000,
cube_r.png,0.1,0.31,valid,39,39,0,up,7.966807899996638,None,space,0.29334429977461696,None,,,,,0,39,39,39,,,,,316.11037689982913,,,,,,,,,,,,,316.09505130001344,316.11037689982913,316.11037689982913,316.11037689982913,324.0865237999242,,,,324.0957114000339,324.10590089997277,324.10590089997277,324.15225849999115,324.15255989995785,324.16877789981663,324.16877789981663,324.16877789981663,324.2519761000294,324.46965410001576,,,,,,,,up,7.966807899996638,None,space,0.29334429977461696,None,,,,,,,,,,,,,,,P133,001,2025-03-26_11h22.26.118,posner_endo_new1,2024.2.4,60.041128220392295,2025-03-26 11h22.31.494388 +0000,
cube_l.png,0.1,0.31,invalid,40,40,0,up,8.384035399882123,None,space,0.34198800008744,None,,,,,0,40,40,40,,,,,324.48502799985,,,,,,,,,,,,,324.46989990002476,324.48502799985,324.48502799985,324.48502799985,332.8772686999291,,,,332.88302759989165,332.89517559995875,332.89517559995875,332.94322080002166,332.94343839981593,332.95964699983597,332.95964699983597,332.95964699983597,333.0264898999594,333.3103179000318,,,,,,,,up,8.384035399882123,None,space,0.34198800008744,None,,,,,,,,,,,,,,,P133,001,2025-03-26_11h22.26.118,posner_endo_new1,2024.2.4,60.041128220392295,2025-03-26 11h22.31.494388 +0000,
cube_l.png,0.1,10,catch,41,41,0,up,4.103164500091225,None,None,,,,,,,0,41,41,41,,,,,333.3262757998891,,,,,,,,,,,,,333.31048600003123,333.3262757998891,333.3262757998891,333.3262757998891,337.4391951998696,,,,337.44495070003904,337.4565508000087,337.4565508000087,337.5054126000032,337.505633499939,337.52199060004205,337.52199060004205,337.52199060004205,337.6052912999876,340.519239799818,,,,339.61961319996044,340.53546649985947,340.53546649985947,340.53546649985947,up,4.103164500091225,None,None,,,,,,,,,,,,,,,,,P133,001,2025-03-26_11h22.26.118,posner_endo_new1,2024.2.4,60.041128220392295,2025-03-26 11h22.31.494388 +0000,
cube_l.png,0.1,-0.31,valid,42,42,0,up,7.278158799977973,None,space,0.4197470999788493,None,,,,,0,42,42,42,,,,,340.53546649985947,,,,,,,,,,,,,340.5193990999833,340.53546649985947,340.53546649985947,340.53546649985947,347.8286927998997,,,,347.8347610000055,347.84630249999464,347.84630249999464,347.89444149984047,347.89468469982967,347.9111400998663,347.9111400998663,347.9111400998663,347.97766790003516,348.3453448000364,,,,,,,,up,7.278158799977973,None,space,0.4197470999788493,None,,,,,,,,,,,,,,,P133,001,2025-03-26_11h22.26.118,posner_endo_new1,2024.2.4,60.041128220392295,2025-03-26 11h22.31.494388 +0000,
cube_l.png,0.1,10,catch,43,43,0,up,6.804932599887252,None,None,,,,,,,0,43,43,43,,,,,348.36068609985523,,,,,,,,,,,,,348.34552339999937,348.36068609985523,348.36068609985523,348.36068609985523,355.170888699824,,,,355.17667029984295,355.1882048000116,355.1882048000116,355.23720319988206,355.23742309981026,355.2537302998826,355.2537302998826,355.2537302998826,355.3201121999882,358.2509572999552,,,,357.33492029993795,358.26724009984173,358.26724009984173,358.26724009984173,up,6.804932599887252,None,None,,,,,,,,,,,,,,,,,P133,001,2025-03-26_11h22.26.118,posner_endo_new1,2024.2.4,60.041128220392295,2025-03-26 11h22.31.494388 +0000,
cube_l.png,0.1,0.31,invalid,44,44,0,up,1.5385263999924064,None,space,0.42228429997339845,None,,,,,0,44,44,44,,,,,358.26724009984173,,,,,,,,,,,,,358.25111970002763,358.26724009984173,358.26724009984173,358.26724009984173,359.8165042998735,,,,359.8224732000381,359.83402459998615,359.83402459998615,359.88238890003413,359.88260789983906,359.8988667000085,359.8988667000085,359.8988667000085,359.9652428999543,360.3323718998581,,,,,,,,up,1.5385263999924064,None,space,0.42228429997339845,None,,,,,,,,,,,,,,,P133,001,2025-03-26_11h22.26.118,posner_endo_new1,2024.2.4,60.041128220392295,2025-03-26 11h22.31.494388 +0000,
cube_l.png,0.1,0.31,invalid,45,45,0,up,4.968946699984372,None,space,0.3745099001098424,None,,,,,0,45,45,45,,,,,360.348375499947,,,,,,,,,,,,,360.33254730002955,360.348375499947,360.348375499947,360.348375499947,365.3274089000188,,,,365.3331832999829,365.34463049983606,365.34463049983606,365.3934810999781,365.39370010001585,365.409771699924,365.409771699924,365.409771699924,365.4765516000334,365.79337059985846,,,,,,,,up,4.968946699984372,None,space,0.3745099001098424,None,,,,,,,,,,,,,,,P133,001,2025-03-26_11h22.26.118,posner_endo_new1,2024.2.4,60.041128220392295,2025-03-26 11h22.31.494388 +0000,
cube_r.png,0.1,0.31,valid,46,46,0,up,3.852197000058368,None,space,0.40972959995269775,None,,,,,0,46,46,46,,,,,365.8094720998779,,,,,,,,,,,,,365.7935396998655,365.8094720998779,365.8094720998779,365.8094720998779,369.6730326998513,,,,369.6788222999312,369.69055780000053,369.69055780000053,369.7390433999244,369.73926299996674,369.75536039983854,369.75536039983854,369.75536039983854,369.8222600999288,370.1724635998253,,,,,,,,up,3.852197000058368,None,space,0.40972959995269775,None,,,,,,,,,,,,,,,P133,001,2025-03-26_11h22.26.118,posner_endo_new1,2024.2.4,60.041128220392295,2025-03-26 11h22.31.494388 +0000,
cube_l.png,0.1,-0.31,valid,47,47,0,up,3.673088800162077,None,space,0.3662668999750167,None,,,,,0,47,47,47,,,,,370.18833759985864,,,,,,,,,,,,,370.17263289983384,370.18833759985864,370.18833759985864,370.18833759985864,373.86859199986793,,,,373.87437870004214,373.88582860003226,373.88582860003226,373.93457749998197,373.93479559989646,373.95123669994064,373.95123669994064,373.95123669994064,374.01775550004095,374.31844199984334,,,,,,,,up,3.673088800162077,None,space,0.3662668999750167,None,,,,,,,,,,,,,,,P133,001,2025-03-26_11h22.26.118,posner_endo_new1,2024.2.4,60.041128220392295,2025-03-26 11h22.31.494388 +0000,
cube_r.png,0.1,-0.31,invalid,48,48,0,up,5.623262099921703,None,space,0.35317570017650723,None,,,,,0,48,48,48,,,,,374.33406060002744,,,,,,,,,,,,,374.31861560000107,374.33406060002744,374.33406060002744,374.33406060002744,379.96251089987345,,,,379.9682254998479,379.97997500002384,379.97997500002384,380.0284132999368,380.0286391999107,380.0450742999092,380.0450742999092,380.0450742999092,380.1115520999301,380.4119555999059,,,,,,,,up,5.623262099921703,None,space,0.35317570017650723,None,,,,,,,,,,,,,,,P133,001,2025-03-26_11h22.26.118,posner_endo_new1,2024.2.4,60.041128220392295,2025-03-26 11h22.31.494388 +0000,
cube_r.png,0.1,10,catch,49,49,0,up,3.6018121000379324,None,None,,,,,,,0,49,49,49,,,,,380.42789179994725,,,,,,,,,,,,,380.41212300001644,380.42789179994725,380.42789179994725,380.42789179994725,384.04164239997044,,,,384.0472732000053,384.0587993999943,384.0587993999943,384.10774119989946,384.1079632998444,384.12407619995065,384.12407619995065,384.12407619995065,384.19081719988026,387.1215431999881,,,,386.2054355000146,387.137631499907,387.137631499907,387.137631499907,up,3.6018121000379324,None,None,,,,,,,,,,,,,,,,,P133,001,2025-03-26_11h22.26.118,posner_endo_new1,2024.2.4,60.041128220392295,2025-03-26 11h22.31.494388 +0000,
cube_l.png,0.1,-0.31,valid,50,50,0,up,1.0913327999878675,None,space,0.5601143999956548,None,,,,,0,50,50,50,,,,,387.137631499907,,,,,,,,,,,,,387.121701200027,387.137631499907,387.137631499907,387.137631499907,388.23706089984626,,,,388.24282559985295,388.254369399976,388.254369399976,388.3032084000297,388.3034268999472,388.3198134000413,388.3198134000413,388.3198134000413,388.3864541000221,388.8865274998825,,,,,,,,up,1.0913327999878675,None,space,0.5601143999956548,None,,,,,,,,,,,,,,,P133,001,2025-03-26_11h22.26.118,posner_endo_new1,2024.2.4,60.041128220392295,2025-03-26 11h22.31.494388 +0000,
cube_l.png,0.1,-0.31,valid,51,51,0,up,3.591197800124064,None,space,0.36006890004500747,None,,,,,0,51,51,51,,,,,388.9024958999362,,,,,,,,,,,,,388.88669499987736,388.9024958999362,388.9024958999362,388.9024958999362,392.4994129999541,,,,392.5051785998512,392.5168399999384,392.5168399999384,392.56564419995993,392.56586609990336,392.5821688999422,392.5821688999422,392.5821688999422,392.64881539996713,392.94916970003396,,,,,,,,up,3.591197800124064,None,space,0.36006890004500747,None,,,,,,,,,,,,,,,P133,001,2025-03-26_11h22.26.118,posner_endo_new1,2024.2.4,60.041128220392295,2025-03-26 11h22.31.494388 +0000,
cube_r.png,0.1,-0.31,invalid,52,52,0,up,4.2724725001025945,None,space,0.38255099998787045,None,,,,,0,52,52,52,,,,,392.9649944999255,,,,,,,,,,,,,392.94933789991774,392.9649944999255,392.9649944999255,392.9649944999255,397.2446318999864,,,,397.2503176999744,397.26195019995794,397.26195019995794,397.31076529994607,397.3109840999823,397.3270465999376,397.3270465999376,397.3270465999376,397.39381209993735,397.71114169992507,,,,,,,,up,4.2724725001025945,None,space,0.38255099998787045,None,,,,,,,,,,,,,,,P133,001,2025-03-26_11h22.26.118,posner_endo_new1,2024.2.4,60.041128220392295,2025-03-26 11h22.31.494388 +0000,
cube_l.png,0.1,-0.31,valid,53,53,0,up,7.654099900042638,None,space,0.3473648999352008,None,,,,,0,53,53,53,,,,,397.726751799928,,,,,,,,,,,,,397.71131039992906,397.726751799928,397.726751799928,397.726751799928,405.38640940003097,,,,405.3924411998596,405.40395209984854,405.40395209984854,405.45216470002197,405.4525925000198,405.4685992000159,405.4685992000159,405.4685992000159,405.551856999984,405.81990440003574,,,,,,,,up,7.654099900042638,None,space,0.3473648999352008,None,,,,,,,,,,,,,,,P133,001,2025-03-26_11h22.26.118,posner_endo_new1,2024.2.4,60.041128220392295,2025-03-26 11h22.31.494388 +0000,
cube_r.png,0.1,10,catch,54,54,0,up,3.241882599890232,None,None,,,,,,,0,54,54,54,,,,,405.83555519999936,,,,,,,,,,,,,405.82027739984915,405.83555519999936,405.83555519999936,405.83555519999936,409.0828968998976,,,,409.0912840999663,409.10166109981947,409.10166109981947,409.14857499999925,409.1488522000145,409.16520719998516,409.16520719998516,409.16520719998516,409.248364900006,412.16267939982936,,,,411.2629731998313,412.17856759997085,412.17856759997085,412.17856759997085,up,3.241882599890232,None,None,,,,,,,,,,,,,,,,,P133,001,2025-03-26_11h22.26.118,posner_endo_new1,2024.2.4,60.041128220392295,2025-03-26 11h22.31.494388 +0000,
cube_l.png,0.1,0.31,invalid,55,55,0,up,0.4601051998324692,None,space,0.3642367001157254,None,,,,,0,55,55,55,,,,,412.17856759997085,,,,,,,,,,,,,412.1628953998443,412.17856759997085,412.17856759997085,412.17856759997085,412.64592949999496,,,,412.65429159998894,412.66466899984516,412.66466899984516,412.7116409998853,412.7119239999447,412.72819539997727,412.72819539997727,412.72819539997727,412.8113845998887,413.0953742999118,,,,,,,,up,0.4601051998324692,None,space,0.3642367001157254,None,,,,,,,,,,,,,,,P133,001,2025-03-26_11h22.26.118,posner_endo_new1,2024.2.4,60.041128220392295,2025-03-26 11h22.31.494388 +0000,
cube_l.png,0.1,-0.31,valid,56,56,0,up,4.365848199930042,None,space,0.48177740001119673,None,,,,,0,56,56,56,,,,,413.1110793999396,,,,,,,,,,,,,413.09561419999227,413.1110793999396,413.1110793999396,413.1110793999396,417.4908487999346,,,,417.4991101999767,417.50970719987527,417.50970719987527,417.5567399999127,417.55696179997176,417.5732414999511,417.5732414999511,417.5732414999511,417.6563438999001,418.056854599854,,,,,,,,up,4.365848199930042,None,space,0.48177740001119673,None,,,,,,,,,,,,,,,P133,001,2025-03-26_11h22.26.118,posner_endo_new1,2024.2.4,60.041128220392295,2025-03-26 11h22.31.494388 +0000,
cube_r.png,0.1,0.31,valid,57,57,0,up,7.060420099878684,None,space,0.30555639998055995,None,,,,,0,57,57,57,,,,,418.07261839997955,,,,,,,,,,,,,418.05702680000104,418.07261839997955,418.07261839997955,418.07261839997955,425.14953309996054,,,,425.15538699994795,425.16678699990734,425.16678699990734,425.215548499953,425.21576649998315,425.23201579996385,425.23201579996385,425.23201579996385,425.2985814998392,425.5491762999445,,,,,,,,up,7.060420099878684,None,space,0.30555639998055995,None,,,,,,,,,,,,,,,P133,001,2025-03-26_11h22.26.118,posner_endo_new1,2024.2.4,60.041128220392295,2025-03-26 11h22.31.494388 +0000,
cube_r.png,0.1,-0.31,invalid,58,58,0,up,3.768803099868819,None,space,0.3683622998651117,None,,,,,0,58,58,58,,,,,425.5651133998763,,,,,,,,,,,,,425.54934509983286,425.5651133998763,425.5651133998763,425.5651133998763,429.3453402000014,,,,429.3510769000277,429.3625637998339,429.3625637998339,429.4112011999823,429.41141920001246,429.4277725999709,429.4277725999709,429.4277725999709,429.49427679996006,429.8113470999524,,,,,,,,up,3.768803099868819,None,space,0.3683622998651117,None,,,,,,,,,,,,,,,P133,001,2025-03-26_11h22.26.118,posner_endo_new1,2024.2.4,60.041128220392295,2025-03-26 11h22.31.494388 +0000,
cube_l.png,0.1,0.31,invalid,59,59,0,up,4.985524199903011,None,space,0.3969474001787603,None,,,,,0,59,59,59,,,,,429.8273348000366,,,,,,,,,,,,,429.81151409982704,429.8273348000366,429.8273348000366,429.8273348000366,434.82307369983755,,,,434.8287839998957,434.8401883998886,434.8401883998886,434.8893176999409,434.88953639985994,434.9053797998931,434.9053797998931,434.9053797998931,434.97204010002315,435.3059606999159,,,,,,,,up,4.985524199903011,None,space,0.3969474001787603,None,,,,,,,,,,,,,,,P133,001,2025-03-26_11h22.26.118,posner_endo_new1,2024.2.4,60.041128220392295,2025-03-26 11h22.31.494388 +0000,
,,,,,,,,,,,,,,,,,,,,,,,,,,,,,,,,,,,,,,,,,,,,,,,,,,,,,,,,,,,,,,,,,,,,,435.30606969981454,435.3215379999019,435.3215379999019,495.32700349995866,503.56961979996413,space,68.244072600035,None,,,,,,,P133,001,2025-03-26_11h22.26.118,posner_endo_new1,2024.2.4,60.041128220392295,2025-03-26 11h22.31.494388 +0000,
,,,,,,,,,,,,,,,,,,,,,,,,,,,,,,,,,,503.56968849990517,503.5851835999638,506.65848400001414,506.5659117999021,,,,,,,,,,,,,,,,,,,,,,,,,,,,,,,,,,,,,,,,,,,,,,P133,001,2025-03-26_11h22.26.118,posner_endo_new1,2024.2.4,60.041128220392295,2025-03-26 11h22.31.494388 +0000,
cube_l.png,0.1,10,catch,0,0,0,down,7.490793999982998,None,None,,,,,,,,,,,0,0,0,0,506.65848400001414,,,,,,,,,,,,,506.6502564998809,506.65848400001414,506.65848400001414,506.65848400001414,514.1585999999661,,,,514.1671036998741,514.1773196998984,514.1773196998984,514.2242695998866,514.2245527999476,514.2409029998817,514.2409029998817,514.2409029998817,514.3240876998752,517.2383089999203,,,,516.3387529000174,517.2545212998521,517.2545212998521,517.2545212998521,,,,,,,,,,,,,,,down,7.490793999982998,None,None,,,P133,001,2025-03-26_11h22.26.118,posner_endo_new1,2024.2.4,60.041128220392295,2025-03-26 11h22.31.494388 +0000,
cube_l.png,0.1,10,catch,1,1,0,down,1.8952198000624776,None,None,,,,,,,,,,,0,1,1,1,517.2545212998521,,,,,,,,,,,,,517.2385285999626,517.2545212998521,517.2545212998521,517.2545212998521,519.1535183999222,,,,519.1619335999712,519.172184499912,519.172184499912,519.2192498999648,519.2195272999816,519.2359499000013,519.2359499000013,519.2359499000013,519.3190961999353,522.2333704999182,,,,521.333675700007,522.2493908000179,522.2493908000179,522.2493908000179,,,,,,,,,,,,,,,down,1.8952198000624776,None,None,,,P133,001,2025-03-26_11h22.26.118,posner_endo_new1,2024.2.4,60.041128220392295,2025-03-26 11h22.31.494388 +0000,
cube_l.png,0.1,0.31,invalid,2,2,0,down,1.8365261000581086,None,space,0.4149892998393625,None,,,,,,,,,0,2,2,2,522.2493908000179,,,,,,,,,,,,,522.2335885998327,522.2493908000179,522.2493908000179,522.2493908000179,524.0984346999321,,,,524.1069236998446,524.1172244998161,524.1172244998161,524.1641618998256,524.1644390998408,524.180744000012,524.180744000012,524.180744000012,524.264117699815,524.5980295999907,,,,,,,,,,,,,,,,,,,,,,down,1.8365261000581086,None,space,0.4149892998393625,None,P133,001,2025-03-26_11h22.26.118,posner_endo_new1,2024.2.4,60.041128220392295,2025-03-26 11h22.31.494388 +0000,
cube_l.png,0.1,0.31,invalid,3,3,0,down,5.2724685000721365,None,space,0.505169800017029,None,,,,,,,,,0,3,3,3,524.6136232998688,,,,,,,,,,,,,524.5982651000377,524.6136232998688,524.6136232998688,524.6136232998688,529.8928202998359,,,,529.9012352998834,529.9112841000315,529.9112841000315,529.9583501999732,529.9586314000189,529.9747733999975,529.9747733999975,529.9747733999975,530.0582004999742,530.4918885999359,,,,,,,,,,,,,,,,,,,,,,down,5.2724685000721365,None,space,0.505169800017029,None,P133,001,2025-03-26_11h22.26.118,posner_endo_new1,2024.2.4,60.041128220392295,2025-03-26 11h22.31.494388 +0000,
cube_l.png,0.1,-0.31,valid,4,4,0,down,3.4334161998704076,None,space,0.3867130000144243,None,,,,,,,,,0,4,4,4,530.5075572999194,,,,,,,,,,,,,530.4921228999738,530.5075572999194,530.5075572999194,530.5075572999194,533.9551627999172,,,,533.9635593998246,533.9735343998764,533.9735343998764,534.0207878998481,534.0210704000201,534.0372923999093,534.0372923999093,534.0372923999093,534.1205966998823,534.4379014000297,,,,,,,,,,,,,,,,,,,,,,down,3.4334161998704076,None,space,0.3867130000144243,None,P133,001,2025-03-26_11h22.26.118,posner_endo_new1,2024.2.4,60.041128220392295,2025-03-26 11h22.31.494388 +0000,
cube_r.png,0.1,-0.31,invalid,5,5,0,down,5.159808099968359,None,space,0.3400673000141978,None,,,,,,,,,0,5,5,5,534.4535548000131,,,,,,,,,,,,,534.4381403999869,534.4535548000131,534.4535548000131,534.4535548000131,539.6159723999444,,,,539.6243564998731,539.6346275999676,539.6346275999676,539.6816731998697,539.6819541000295,539.6982016998809,539.6982016998809,539.6982016998809,539.7814799000043,540.0488195000216,,,,,,,,,,,,,,,,,,,,,,down,5.159808099968359,None,space,0.3400673000141978,None,P133,001,2025-03-26_11h22.26.118,posner_endo_new1,2024.2.4,60.041128220392295,2025-03-26 11h22.31.494388 +0000,
cube_r.png,0.1,0.31,valid,6,6,0,down,5.661318399943411,None,space,0.3955488000065088,None,,,,,,,,,0,6,6,6,540.0645703999326,,,,,,,,,,,,,540.0490520999301,540.0645703999326,540.0645703999326,540.0645703999326,545.7428766998928,,,,545.751268299995,545.7616506998893,545.7616506998893,545.8087908998132,545.8090688998345,545.825368499849,545.825368499849,545.825368499849,545.9084985000081,546.2259257000405,,,,,,,,,,,,,,,,,,,,,,down,5.661318399943411,None,space,0.3955488000065088,None,P133,001,2025-03-26_11h22.26.118,posner_endo_new1,2024.2.4,60.041128220392295,2025-03-26 11h22.31.494388 +0000,
cube_r.png,0.1,-0.31,invalid,7,7,0,down,3.7154232999309897,None,space,0.3776767000090331,None,,,,,,,,,0,7,7,7,546.2415251999628,,,,,,,,,,,,,546.2261649998836,546.2415251999628,546.2415251999628,546.2415251999628,549.9719563999679,,,,549.9799540999811,549.9907370000146,549.9907370000146,550.0378137999214,550.03803159995,550.0542880999856,550.0542880999856,550.0542880999856,550.1208716998808,550.4381853998639,,,,,,,,,,,,,,,,,,,,,,down,3.7154232999309897,None,space,0.3776767000090331,None,P133,001,2025-03-26_11h22.26.118,posner_endo_new1,2024.2.4,60.041128220392295,2025-03-26 11h22.31.494388 +0000,
cube_l.png,0.1,-0.31,valid,8,8,0,down,3.695381300058216,None,space,0.36690130014903843,None,,,,,,,,,0,8,8,8,550.4539095000364,,,,,,,,,,,,,550.4383592000231,550.4539095000364,550.4539095000364,550.4539095000364,554.1510476998519,,,,554.1568705998361,554.1685989999678,554.1685989999678,554.2169508999214,554.2171749998815,554.2334826998413,554.2334826998413,554.2334826998413,554.3166523999535,554.616997399833,,,,,,,,,,,,,,,,,,,,,,down,3.695381300058216,None,space,0.36690130014903843,None,P133,001,2025-03-26_11h22.26.118,posner_endo_new1,2024.2.4,60.041128220392295,2025-03-26 11h22.31.494388 +0000,
cube_r.png,0.1,-0.31,invalid,9,9,0,down,6.908958900021389,None,space,0.36124560004100204,None,,,,,,,,,0,9,9,9,554.6328451000154,,,,,,,,,,,,,554.6171714998782,554.6328451000154,554.6328451000154,554.6328451000154,561.5434461999685,,,,561.5491682998836,561.5609118000139,561.5609118000139,561.6093331000302,561.6095540998504,561.6258574998938,561.6258574998938,561.6258574998938,561.7090638999362,561.9929910998326,,,,,,,,,,,,,,,,,,,,,,down,6.908958900021389,None,space,0.36124560004100204,None,P133,001,2025-03-26_11h22.26.118,posner_endo_new1,2024.2.4,60.041128220392295,2025-03-26 11h22.31.494388 +0000,
cube_l.png,0.1,0.31,invalid,10,10,0,down,6.132791999960318,None,space,0.4362043999135494,None,,,,,,,,,0,10,10,10,562.0087108998559,,,,,,,,,,,,,561.9931691000238,562.0087108998559,562.0087108998559,562.0087108998559,568.1532544998918,,,,568.1592049999163,568.1704728999175,568.1704728999175,568.2191462998744,568.2193779998925,568.2355670998804,568.2355670998804,568.2355670998804,568.3187430999242,568.6859146999195,,,,,,,,,,,,,,,,,,,,,,down,6.132791999960318,None,space,0.4362043999135494,None,P133,001,2025-03-26_11h22.26.118,posner_endo_new1,2024.2.4,60.041128220392295,2025-03-26 11h22.31.494388 +0000,
cube_r.png,0.1,-0.31,invalid,11,11,0,down,7.182857500156388,None,space,0.34970830008387566,None,,,,,,,,,0,11,11,11,568.7019420999568,,,,,,,,,,,,,568.6860889999662,568.7019420999568,568.7019420999568,568.7019420999568,575.895302799996,,,,575.9010197999887,575.9126281000208,575.9126281000208,575.9612169999164,575.9614355999511,575.9776282999665,575.9776282999665,575.9776282999665,576.060929399915,576.3282694998197,,,,,,,,,,,,,,,,,,,,,,down,7.182857500156388,None,space,0.34970830008387566,None,P133,001,2025-03-26_11h22.26.118,posner_endo_new1,2024.2.4,60.041128220392295,2025-03-26 11h22.31.494388 +0000,
cube_r.png,0.1,0.31,valid,12,12,0,down,11.725117400055751,None,space,0.4124253001064062,None,,,,,,,,,0,12,12,12,576.3440570000093,,,,,,,,,,,,,576.3284449998755,576.3440570000093,576.3440570000093,576.3440570000093,588.0829081998672,,,,588.0886991999578,588.1003163999412,588.1003163999412,588.1487747998908,588.1489982998464,588.1651989999227,588.1651989999227,588.1651989999227,588.2486977998633,588.5823309998959,,,,,,,,,,,,,,,,,,,,,,down,11.725117400055751,None,space,0.4124253001064062,None,P133,001,2025-03-26_11h22.26.118,posner_endo_new1,2024.2.4,60.041128220392295,2025-03-26 11h22.31.494388 +0000,
cube_l.png,0.1,10,catch,13,13,0,down,4.37584020011127,None,space,0.31355939991772175,None,,,,,,,,,0,13,13,13,588.5979490999598,,,,,,,,,,,,,588.5825118999928,588.5979490999598,588.5979490999598,588.5979490999598,592.977860199986,,,,592.9834946999326,592.9951825998724,592.9951825998724,593.0438657000195,593.0440847999416,593.060271400027,593.060271400027,593.060271400027,593.1268767998554,593.3775197998621,,,,,,,,,,,,,,,,,,,,,,down,4.37584020011127,None,space,0.31355939991772175,None,P133,001,2025-03-26_11h22.26.118,posner_endo_new1,2024.2.4,60.041128220392295,2025-03-26 11h22.31.494388 +0000,
cube_r.png,0.1,-0.31,invalid,14,14,0,down,9.156040000030771,None,space,0.3833253998309374,None,,,,,,,,,0,14,14,14,593.3930988998618,,,,,,,,,,,,,593.3777005998418,593.3930988998618,593.3930988998618,593.3930988998618,602.5513778999448,,,,602.5573177998886,602.5687597999349,602.5687597999349,602.6173614999279,602.6176028000191,602.6338489998598,602.6338489998598,602.6338489998598,602.7003090998624,603.0340311999898,,,,,,,,,,,,,,,,,,,,,,down,9.156040000030771,None,space,0.3833253998309374,None,P133,001,2025-03-26_11h22.26.118,posner_endo_new1,2024.2.4,60.041128220392295,2025-03-26 11h22.31.494388 +0000,
cube_l.png,0.1,-0.31,valid,15,15,0,down,5.170621800003573,None,space,0.42167750000953674,None,,,,,,,,,0,15,15,15,603.0501647999045,,,,,,,,,,,,,603.0342168998905,603.0501647999045,603.0501647999045,603.0501647999045,608.2288313999306,,,,608.2347456999123,608.2463336000219,608.2463336000219,608.294793299865,608.2950289000291,608.3113156999461,608.3113156999461,608.3113156999461,608.377961399965,608.7450573998503,,,,,,,,,,,,,,,,,,,,,,down,5.170621800003573,None,space,0.42167750000953674,None,P133,001,2025-03-26_11h22.26.118,posner_endo_new1,2024.2.4,60.041128220392295,2025-03-26 11h22.31.494388 +0000,
cube_r.png,0.1,10,catch,16,16,0,down,4.044248200021684,None,None,,,,,,,,,,,0,16,16,16,608.7610076998826,,,,,,,,,,,,,608.7452473999001,608.7610076998826,608.7610076998826,608.7610076998826,612.8075841998216,,,,612.8134714998305,612.8250424999278,612.8250424999278,612.8734877000097,612.8737244999502,612.8897909999359,612.8897909999359,612.8897909999359,612.973183499882,615.8873193999752,,,,614.9877132999245,615.9035928999074,615.9035928999074,615.9035928999074,,,,,,,,,,,,,,,down,4.044248200021684,None,None,,,P133,001,2025-03-26_11h22.26.118,posner_endo_new1,2024.2.4,60.041128220392295,2025-03-26 11h22.31.494388 +0000,
cube_r.png,0.1,10,catch,17,17,0,down,4.013841700041667,None,None,,,,,,,,,,,0,17,17,17,615.9035928999074,,,,,,,,,,,,,615.887494900031,615.9035928999074,615.9035928999074,615.9035928999074,619.9335324999411,,,,619.9394904000219,619.9512042999268,619.9512042999268,619.9995523998514,619.9997876000125,620.0159893999808,620.0159893999808,620.0159893999808,620.0826024999842,623.0134391000029,,,,622.0972698999103,623.0295702998992,623.0295702998992,623.0295702998992,,,,,,,,,,,,,,,down,4.013841700041667,None,None,,,P133,001,2025-03-26_11h22.26.118,posner_endo_new1,2024.2.4,60.041128220392295,2025-03-26 11h22.31.494388 +0000,
cube_l.png,0.1,0.31,invalid,18,18,0,down,2.831681299954653,None,space,0.43937449995428324,None,,,,,,,,,0,18,18,18,623.0295702998992,,,,,,,,,,,,,623.0136094999034,623.0295702998992,623.0295702998992,623.0295702998992,625.8775098000187,,,,625.8834285999183,625.8950696999673,625.8950696999673,625.9434491998982,625.9436753999908,625.9598489999771,625.9598489999771,625.9598489999771,626.0432551999111,626.4103431999683,,,,,,,,,,,,,,,,,,,,,,down,2.831681299954653,None,space,0.43937449995428324,None,P133,001,2025-03-26_11h22.26.118,posner_endo_new1,2024.2.4,60.041128220392295,2025-03-26 11h22.31.494388 +0000,
cube_l.png,0.1,10,catch,19,19,0,down,4.1706216998863965,None,None,,,,,,,,,,,0,19,19,19,626.4261749999132,,,,,,,,,,,,,626.4105332999025,626.4261749999132,626.4261749999132,626.4261749999132,630.6059606999625,,,,630.611865399871,630.6233051000163,630.6233051000163,630.6718599998858,630.6720924999099,630.6884180998895,630.6884180998895,630.6884180998895,630.754954099888,633.6858661998995,,,,632.76973369997,633.7018980998546,633.7018980998546,633.7018980998546,,,,,,,,,,,,,,,down,4.1706216998863965,None,None,,,P133,001,2025-03-26_11h22.26.118,posner_endo_new1,2024.2.4,60.041128220392295,2025-03-26 11h22.31.494388 +0000,
cube_l.png,0.1,0.31,invalid,20,20,0,down,4.59992179996334,None,space,0.404593100072816,None,,,,,,,,,0,20,20,20,633.7018980998546,,,,,,,,,,,,,633.6860376999248,633.7018980998546,633.7018980998546,633.7018980998546,638.314733899897,,,,638.320810199948,638.3324759998359,638.3324759998359,638.3805641999934,638.3808014998212,638.3972308000084,638.3972308000084,638.3972308000084,638.4639706998132,638.8140163999051,,,,,,,,,,,,,,,,,,,,,,down,4.59992179996334,None,space,0.404593100072816,None,P133,001,2025-03-26_11h22.26.118,posner_endo_new1,2024.2.4,60.041128220392295,2025-03-26 11h22.31.494388 +0000,
cube_l.png,0.1,-0.31,valid,21,21,0,down,1.8151591001078486,None,space,0.39040869986638427,None,,,,,,,,,0,21,21,21,638.8300456998404,,,,,,,,,,,,,638.8141975998878,638.8300456998404,638.8300456998404,638.8300456998404,640.6622784999199,,,,640.6681836999487,640.6794751998968,640.6794751998968,640.7282550998498,640.72849449981,640.744783599861,640.744783599861,640.744783599861,640.8112736998592,641.1451624999754,,,,,,,,,,,,,,,,,,,,,,down,1.8151591001078486,None,space,0.39040869986638427,None,P133,001,2025-03-26_11h22.26.118,posner_endo_new1,2024.2.4,60.041128220392295,2025-03-26 11h22.31.494388 +0000,
cube_r.png,0.1,0.31,valid,22,22,0,down,6.212677699979395,None,space,0.3350310998503119,None,,,,,,,,,0,22,22,22,641.1610061998945,,,,,,,,,,,,,641.1453521000221,641.1610061998945,641.1610061998945,641.1610061998945,647.3891048999503,,,,647.395039799856,647.406543900026,647.406543900026,647.4545461998787,647.454782199813,647.4712677998468,647.4712677998468,647.4712677998468,647.5545563998166,647.8216917999089,,,,,,,,,,,,,,,,,,,,,,down,6.212677699979395,None,space,0.3350310998503119,None,P133,001,2025-03-26_11h22.26.118,posner_endo_new1,2024.2.4,60.041128220392295,2025-03-26 11h22.31.494388 +0000,
cube_r.png,0.1,-0.31,invalid,23,23,0,down,4.872110200114548,None,space,0.3654765000101179,None,,,,,,,,,0,23,23,23,647.8374395999126,,,,,,,,,,,,,647.8218718999997,647.8374395999126,647.8374395999126,647.8374395999126,652.7165440998506,,,,652.7224524999037,652.7340014998335,652.7340014998335,652.7824943999294,652.7827274999581,652.7991792999674,652.7991792999674,652.7991792999674,652.865669199964,653.1664147998672,,,,,,,,,,,,,,,,,,,,,,down,4.872110200114548,None,space,0.3654765000101179,None,P133,001,2025-03-26_11h22.26.118,posner_endo_new1,2024.2.4,60.041128220392295,2025-03-26 11h22.31.494388 +0000,
cube_r.png,0.1,0.31,valid,24,24,0,down,5.4559158000629395,None,space,0.38127689994871616,None,,,,,,,,,0,24,24,24,653.1821375999134,,,,,,,,,,,,,653.1666019000113,653.1821375999134,653.1821375999134,653.1821375999134,658.6442056000233,,,,658.6500518999528,658.6617566000205,658.6617566000205,658.7098289998248,658.7100610998459,658.7263356999028,658.7263356999028,658.7263356999028,658.8096302999184,659.1102461998817,,,,,,,,,,,,,,,,,,,,,,down,5.4559158000629395,None,space,0.38127689994871616,None,P133,001,2025-03-26_11h22.26.118,posner_endo_new1,2024.2.4,60.041128220392295,2025-03-26 11h22.31.494388 +0000,
cube_r.png,0.1,-0.31,invalid,25,25,0,down,5.1679827000480145,None,space,0.3634472000412643,None,,,,,,,,,0,25,25,25,659.1259043999016,,,,,,,,,,,,,659.1104360998143,659.1259043999016,659.1259043999016,659.1259043999016,664.3048115000129,,,,664.3108713999391,664.322632299969,664.322632299969,664.3707918999717,664.3710445999168,664.3871889000293,664.3871889000293,664.3871889000293,664.4539542999119,664.7546228999272,,,,,,,,,,,,,,,,,,,,,,down,5.1679827000480145,None,space,0.3634472000412643,None,P133,001,2025-03-26_11h22.26.118,posner_endo_new1,2024.2.4,60.041128220392295,2025-03-26 11h22.31.494388 +0000,
cube_l.png,0.1,-0.31,valid,26,26,0,down,5.874867000151426,None,space,0.3670389000326395,None,,,,,,,,,0,26,26,26,664.7702659999486,,,,,,,,,,,,,664.7548046000302,664.7702659999486,664.7702659999486,664.7702659999486,670.6482814999763,,,,670.6540088998154,670.6653356999159,670.6653356999159,670.7141623999923,670.714380600024,670.7307829998899,670.7307829998899,670.7307829998899,670.7973615999799,671.1145378998481,,,,,,,,,,,,,,,,,,,,,,down,5.874867000151426,None,space,0.3670389000326395,None,P133,001,2025-03-26_11h22.26.118,posner_endo_new1,2024.2.4,60.041128220392295,2025-03-26 11h22.31.494388 +0000,
cube_r.png,0.1,0.31,valid,27,27,0,down,3.483369399793446,None,space,0.30604300019331276,None,,,,,,,,,0,27,27,27,671.1304005000275,,,,,,,,,,,,,671.1147105998825,671.1304005000275,671.1304005000275,671.1304005000275,674.6275206999853,,,,674.6334732999094,674.6451337998733,674.6451337998733,674.6933637999464,674.6935995998792,674.7099937999155,674.7099937999155,674.7099937999155,674.7766887999605,675.0271789999679,,,,,,,,,,,,,,,,,,,,,,down,3.483369399793446,None,space,0.30604300019331276,None,P133,001,2025-03-26_11h22.26.118,posner_endo_new1,2024.2.4,60.041128220392295,2025-03-26 11h22.31.494388 +0000,
cube_r.png,0.1,10,catch,28,28,0,down,5.114177800016478,None,space,0.3362290000077337,None,,,,,,,,,0,28,28,28,675.0429165998939,,,,,,,,,,,,,675.0273670998868,675.0429165998939,675.0429165998939,675.0429165998939,680.1720020000357,,,,680.1778743998148,680.1895147999749,680.1895147999749,680.2377694000024,680.2379876999184,680.2544017999899,680.2544017999899,680.2544017999899,680.3209797998425,680.6047222998459,,,,,,,,,,,,,,,,,,,,,,down,5.114177800016478,None,space,0.3362290000077337,None,P133,001,2025-03-26_11h22.26.118,posner_endo_new1,2024.2.4,60.041128220392295,2025-03-26 11h22.31.494388 +0000,
cube_r.png,0.1,0.31,valid,29,29,0,down,7.168263599975035,None,space,0.3556552999652922,None,,,,,,,,,0,29,29,29,680.6206565999892,,,,,,,,,,,,,680.6048975000158,680.6206565999892,680.6206565999892,680.6206565999892,687.7974298999179,,,,687.8031768000219,687.8147030000109,687.8147030000109,687.8633745999541,687.8635994999204,687.8800381999463,687.8800381999463,687.8800381999463,687.9632235998288,688.2469213998411,,,,,,,,,,,,,,,,,,,,,,down,7.168263599975035,None,space,0.3556552999652922,None,P133,001,2025-03-26_11h22.26.118,posner_endo_new1,2024.2.4,60.041128220392295,2025-03-26 11h22.31.494388 +0000,
cube_r.png,0.1,0.31,valid,30,30,0,down,6.350078799994662,None,space,0.36879779980517924,None,,,,,,,,,0,30,30,30,688.26293109986,,,,,,,,,,,,,688.2470966998953,688.26293109986,688.26293109986,688.26293109986,694.6237059000414,,,,694.6295157999266,694.6411009998992,694.6411009998992,694.6896925999317,694.689911799971,694.7062430998776,694.7062430998776,694.7062430998776,694.7729336000048,695.0899676999543,,,,,,,,,,,,,,,,,,,,,,down,6.350078799994662,None,space,0.36879779980517924,None,P133,001,2025-03-26_11h22.26.118,posner_endo_new1,2024.2.4,60.041128220392295,2025-03-26 11h22.31.494388 +0000,
cube_l.png,0.1,-0.31,valid,31,31,0,down,5.459997500060126,None,space,0.3648208000231534,None,,,,,,,,,0,31,31,31,695.1058024000376,,,,,,,,,,,,,695.0901531998534,695.1058024000376,695.1058024000376,695.1058024000376,700.56788769993,,,,700.5736485000234,700.5852985999081,700.5852985999081,700.6337260999717,700.6339507999364,700.6501768999733,700.6501768999733,700.6501768999733,700.7334544998594,701.0172845998313,,,,,,,,,,,,,,,,,,,,,,down,5.459997500060126,None,space,0.3648208000231534,None,P133,001,2025-03-26_11h22.26.118,posner_endo_new1,2024.2.4,60.041128220392295,2025-03-26 11h22.31.494388 +0000,
cube_r.png,0.1,0.31,valid,32,32,0,down,4.220239999936894,None,space,0.3872845000587404,None,,,,,,,,,0,32,32,32,701.0331814999226,,,,,,,,,,,,,701.017474199878,701.0331814999226,701.0331814999226,701.0331814999226,705.2629908998497,,,,705.2687129999977,705.2803807999007,705.2803807999007,705.3288626999129,705.3290832999628,705.3454654999077,705.3454654999077,705.3454654999077,705.4120531999506,705.7455253000371,,,,,,,,,,,,,,,,,,,,,,down,4.220239999936894,None,space,0.3872845000587404,None,P133,001,2025-03-26_11h22.26.118,posner_endo_new1,2024.2.4,60.041128220392295,2025-03-26 11h22.31.494388 +0000,
cube_r.png,0.1,-0.31,invalid,33,33,0,down,4.755275800125673,None,space,0.3364976001903415,None,,,,,,,,,0,33,33,33,705.7617516999599,,,,,,,,,,,,,705.745700399857,705.7617516999599,705.7617516999599,705.7617516999599,710.5240652000066,,,,710.529847699916,710.5415344999637,710.5415344999637,710.5901587000117,710.5903771999292,710.6066570000257,710.6066570000257,710.6066570000257,710.6733144999016,710.957214999944,,,,,,,,,,,,,,,,,,,,,,down,4.755275800125673,None,space,0.3364976001903415,None,P133,001,2025-03-26_11h22.26.118,posner_endo_new1,2024.2.4,60.041128220392295,2025-03-26 11h22.31.494388 +0000,
cube_r.png,0.1,10,catch,34,34,0,down,3.6728461999446154,None,None,,,,,,,,,,,0,34,34,34,710.9728859998286,,,,,,,,,,,,,710.9573935000226,710.9728859998286,710.9728859998286,710.9728859998286,714.6530936998315,,,,714.6588481999934,714.6703538999427,714.6703538999427,714.7193312000018,714.7195528999437,714.7358349999413,714.7358349999413,714.7358349999413,714.8024842999876,717.7332297000103,,,,716.816991899861,717.7494208998978,717.7494208998978,717.7494208998978,,,,,,,,,,,,,,,down,3.6728461999446154,None,None,,,P133,001,2025-03-26_11h22.26.118,posner_endo_new1,2024.2.4,60.041128220392295,2025-03-26 11h22.31.494388 +0000,
cube_r.png,0.1,0.31,valid,35,35,0,down,2.776043799938634,None,space,0.3845104998908937,None,,,,,,,,,0,35,35,35,717.7494208998978,,,,,,,,,,,,,717.7333930998575,717.7494208998978,717.7494208998978,717.7494208998978,720.5307062999345,,,,720.5364274999592,720.5480425998103,720.5480425998103,720.5966028999537,720.5968212999869,720.6131535000168,720.6131535000168,720.6131535000168,720.679677200038,721.0134785999544,,,,,,,,,,,,,,,,,,,,,,down,2.776043799938634,None,space,0.3845104998908937,None,P133,001,2025-03-26_11h22.26.118,posner_endo_new1,2024.2.4,60.041128220392295,2025-03-26 11h22.31.494388 +0000,
cube_r.png,0.1,-0.31,invalid,36,36,0,down,6.537220199825242,None,space,0.4056940998416394,None,,,,,,,,,0,36,36,36,721.0292925999966,,,,,,,,,,,,,721.0136529998854,721.0292925999966,721.0292925999966,721.0292925999966,727.5732445998583,,,,727.5790497998241,727.590930899838,727.590930899838,727.6394120999612,727.6396407999564,727.6557431998663,727.6557431998663,727.6557431998663,727.7224981000181,728.0729771999177,,,,,,,,,,,,,,,,,,,,,,down,6.537220199825242,None,space,0.4056940998416394,None,P133,001,2025-03-26_11h22.26.118,posner_endo_new1,2024.2.4,60.041128220392295,2025-03-26 11h22.31.494388 +0000,
cube_l.png,0.1,0.31,invalid,37,37,0,down,10.613004700047895,None,space,0.3741645000409335,None,,,,,,,,,0,37,37,37,728.0887366000097,,,,,,,,,,,,,728.0731559998821,728.0887366000097,728.0887366000097,728.0887366000097,738.7119187999051,,,,738.7176995000336,738.7294656999875,738.7294656999875,738.7779341000132,738.7781538998242,738.7945281998254,738.7945281998254,738.7945281998254,738.8610755999107,739.1783143999055,,,,,,,,,,,,,,,,,,,,,,down,10.613004700047895,None,space,0.3741645000409335,None,P133,001,2025-03-26_11h22.26.118,posner_endo_new1,2024.2.4,60.041128220392295,2025-03-26 11h22.31.494388 +0000,
cube_l.png,0.1,0.31,invalid,38,38,0,down,6.843041900079697,None,space,0.4234091001562774,None,,,,,,,,,0,38,38,38,739.1940583998803,,,,,,,,,,,,,739.1784886999521,739.1940583998803,739.1940583998803,739.1940583998803,746.038035799982,,,,746.043807500042,746.0554698000196,746.0554698000196,746.1038693999872,746.104092199821,746.1202246998437,746.1202246998437,746.1202246998437,746.2035230998881,746.5540831999388,,,,,,,,,,,,,,,,,,,,,,down,6.843041900079697,None,space,0.4234091001562774,None,P133,001,2025-03-26_11h22.26.118,posner_endo_new1,2024.2.4,60.041128220392295,2025-03-26 11h22.31.494388 +0000,
cube_r.png,0.1,0.31,valid,39,39,0,down,7.043815900105983,None,space,0.3595491999294609,None,,,,,,,,,0,39,39,39,746.5698758999351,,,,,,,,,,,,,746.5542585998774,746.5698758999351,746.5698758999351,746.5698758999351,753.6300812999252,,,,753.6357946000062,753.647445499897,753.647445499897,753.6962184999138,753.6964399998542,753.712540899869,753.712540899869,753.712540899869,753.7790612999815,754.0796723999083,,,,,,,,,,,,,,,,,,,,,,down,7.043815900105983,None,space,0.3595491999294609,None,P133,001,2025-03-26_11h22.26.118,posner_endo_new1,2024.2.4,60.041128220392295,2025-03-26 11h22.31.494388 +0000,
cube_l.png,0.1,0.31,invalid,40,40,0,down,5.814120899885893,None,space,0.33830920001491904,None,,,,,,,,,0,40,40,40,754.0955674999859,,,,,,,,,,,,,754.0798494999763,754.0955674999859,754.0955674999859,754.0955674999859,759.9234885999467,,,,759.9291848998982,759.940634300001,759.940634300001,759.9895823998377,759.9897995998617,760.0060492998455,760.0060492998455,760.0060492998455,760.0727560999803,760.3565670000389,,,,,,,,,,,,,,,,,,,,,,down,5.814120899885893,None,space,0.33830920001491904,None,P133,001,2025-03-26_11h22.26.118,posner_endo_new1,2024.2.4,60.041128220392295,2025-03-26 11h22.31.494388 +0000,
cube_l.png,0.1,10,catch,41,41,0,down,7.961233500158414,None,None,,,,,,,,,,,0,41,41,41,760.3724285999779,,,,,,,,,,,,,760.356743299868,760.3724285999779,760.3724285999779,760.3724285999779,768.3484783999156,,,,768.3544623998459,768.3661807000171,768.3661807000171,768.4143162998371,768.4145368000027,768.4307581998874,768.4307581998874,768.4307581998874,768.5141820998397,771.4283270998858,,,,770.5288005999755,771.4444140000269,771.4444140000269,771.4444140000269,,,,,,,,,,,,,,,down,7.961233500158414,None,None,,,P133,001,2025-03-26_11h22.26.118,posner_endo_new1,2024.2.4,60.041128220392295,2025-03-26 11h22.31.494388 +0000,
cube_l.png,0.1,-0.31,valid,42,42,0,down,3.200632099993527,None,space,0.367748900083825,None,,,,,,,,,0,42,42,42,771.4444140000269,,,,,,,,,,,,,771.4284917998593,771.4444140000269,771.4444140000269,771.4444140000269,774.658494199859,,,,774.6642094999552,774.6758377000224,774.6758377000224,774.7243568999693,774.7245799000375,774.7409981000237,774.7409981000237,774.7409981000237,774.8075502000283,775.1248619998805,,,,,,,,,,,,,,,,,,,,,,down,3.200632099993527,None,space,0.367748900083825,None,P133,001,2025-03-26_11h22.26.118,posner_endo_new1,2024.2.4,60.041128220392295,2025-03-26 11h22.31.494388 +0000,
cube_l.png,0.1,10,catch,43,43,0,down,6.5925853999797255,None,None,,,,,,,,,,,0,43,43,43,775.1406898000278,,,,,,,,,,,,,775.1250418999698,775.1406898000278,775.1406898000278,775.1406898000278,781.7347611999139,,,,781.7404606000055,781.7520696998108,781.7520696998108,781.8006231000181,781.8008450998459,781.8170902000275,781.8170902000275,781.8170902000275,781.883807499893,784.8146172999404,,,,783.8984134998173,784.8306623999961,784.8306623999961,784.8306623999961,,,,,,,,,,,,,,,down,6.5925853999797255,None,None,,,P133,001,2025-03-26_11h22.26.118,posner_endo_new1,2024.2.4,60.041128220392295,2025-03-26 11h22.31.494388 +0000,
cube_l.png,0.1,0.31,invalid,44,44,0,down,3.094814200187102,None,space,0.44356629997491837,None,,,,,,,,,0,44,44,44,784.8306623999961,,,,,,,,,,,,,784.8147785000037,784.8306623999961,784.8306623999961,784.8306623999961,787.9283354999498,,,,787.9341215000022,787.9458539998159,787.9458539998159,787.9943553998601,787.9945792998187,788.0107137998566,788.0107137998566,788.0107137998566,788.094026299892,788.461169899907,,,,,,,,,,,,,,,,,,,,,,down,3.094814200187102,None,space,0.44356629997491837,None,P133,001,2025-03-26_11h22.26.118,posner_endo_new1,2024.2.4,60.041128220392295,2025-03-26 11h22.31.494388 +0000,
cube_l.png,0.1,0.31,invalid,45,45,0,down,4.408575200010091,None,space,0.37020170013420284,None,,,,,,,,,0,45,45,45,788.4770464999601,,,,,,,,,,,,,788.4613467999734,788.4770464999601,788.4770464999601,788.4770464999601,792.8903403999284,,,,792.8963948998135,792.9080864998978,792.9080864998978,792.955878400011,792.9560992999468,792.9724083999172,792.9724083999172,792.9724083999172,793.0555173999164,793.3561576998327,,,,,,,,,,,,,,,,,,,,,,down,4.408575200010091,None,space,0.37020170013420284,None,P133,001,2025-03-26_11h22.26.118,posner_endo_new1,2024.2.4,60.041128220392295,2025-03-26 11h22.31.494388 +0000,
cube_r.png,0.1,0.31,valid,46,46,0,down,7.224945400143042,None,space,0.36562850000336766,None,,,,,,,,,0,46,46,46,793.3719621000346,,,,,,,,,,,,,793.356331899995,793.3719621000346,793.3719621000346,793.3719621000346,800.5990013999399,,,,800.6087391998153,800.618915699888,800.618915699888,800.6646149000153,800.66491819988,800.6810745999683,800.6810745999683,800.6810745999683,800.7644668999128,801.04872229998,,,,,,,,,,,,,,,,,,,,,,down,7.224945400143042,None,space,0.36562850000336766,None,P133,001,2025-03-26_11h22.26.118,posner_endo_new1,2024.2.4,60.041128220392295,2025-03-26 11h22.31.494388 +0000,
cube_l.png,0.1,-0.31,valid,47,47,0,down,6.260850899852812,None,space,0.5129706999287009,None,,,,,,,,,0,47,47,47,801.0639751998242,,,,,,,,,,,,,801.0489781999495,801.0639751998242,801.0639751998242,801.0639751998242,807.3418023998383,,,,807.3511863998137,807.3605893999338,807.3605893999338,807.4078822999727,807.4081027000211,807.4241440999322,807.4241440999322,807.4241440999322,807.4908093998674,807.9412998999469,,,,,,,,,,,,,,,,,,,,,,down,6.260850899852812,None,space,0.5129706999287009,None,P133,001,2025-03-26_11h22.26.118,posner_endo_new1,2024.2.4,60.041128220392295,2025-03-26 11h22.31.494388 +0000,
cube_r.png,0.1,-0.31,invalid,48,48,0,down,6.103889900026843,None,space,0.36877390020526946,None,,,,,,,,,0,48,48,48,807.9571125998627,,,,,,,,,,,,,807.9414778999053,807.9571125998627,807.9571125998627,807.9571125998627,814.0682301998604,,,,814.0747352000326,814.0867589998525,814.0867589998525,814.1342136999592,814.1344395999331,814.1508104999084,814.1508104999084,814.1508104999084,814.2173168999143,814.5343826999888,,,,,,,,,,,,,,,,,,,,,,down,6.103889900026843,None,space,0.36877390020526946,None,P133,001,2025-03-26_11h22.26.118,posner_endo_new1,2024.2.4,60.041128220392295,2025-03-26 11h22.31.494388 +0000,
cube_r.png,0.1,10,catch,49,49,0,down,6.406749799847603,None,None,,,,,,,,,,,0,49,49,49,814.5503487000242,,,,,,,,,,,,,814.5345546999015,814.5503487000242,814.5503487000242,814.5503487000242,820.9612661998253,,,,820.9681798999663,820.980098299915,820.980098299915,821.0271349998657,821.0273539999034,821.0436722999439,821.0436722999439,821.0436722999439,821.1269002999179,824.041036099894,,,,823.1415838999674,824.0572970998473,824.0572970998473,824.0572970998473,,,,,,,,,,,,,,,down,6.406749799847603,None,None,,,P133,001,2025-03-26_11h22.26.118,posner_endo_new1,2024.2.4,60.041128220392295,2025-03-26 11h22.31.494388 +0000,
cube_l.png,0.1,-0.31,valid,50,50,0,down,2.4533182999584824,None,space,0.3877014999743551,None,,,,,,,,,0,50,50,50,824.0572970998473,,,,,,,,,,,,,824.0411983998492,824.0572970998473,824.0572970998473,824.0572970998473,826.5221659999806,,,,826.5287706998643,826.5403156999964,826.5403156999964,826.5881129999179,826.5883348998614,826.6048119999468,826.6048119999468,826.6048119999468,826.6712336000055,827.0049276000354,,,,,,,,,,,,,,,,,,,,,,down,2.4533182999584824,None,space,0.3877014999743551,None,P133,001,2025-03-26_11h22.26.118,posner_endo_new1,2024.2.4,60.041128220392295,2025-03-26 11h22.31.494388 +0000,
cube_l.png,0.1,-0.31,valid,51,51,0,down,10.184245000127703,None,space,0.35762930009514093,None,,,,,,,,,0,51,51,51,827.0207411998417,,,,,,,,,,,,,827.0051013999619,827.0207411998417,827.0207411998417,827.0207411998417,837.2112566998694,,,,837.2182708999608,837.229851400014,837.229851400014,837.2769817998633,837.2772037000395,837.2936652000062,837.2936652000062,837.2936652000062,837.376986599993,837.6607482000254,,,,,,,,,,,,,,,,,,,,,,down,10.184245000127703,None,space,0.35762930009514093,None,P133,001,2025-03-26_11h22.26.118,posner_endo_new1,2024.2.4,60.041128220392295,2025-03-26 11h22.31.494388 +0000,
cube_r.png,0.1,-0.31,invalid,52,52,0,down,5.760259200120345,None,space,0.3411720998119563,None,,,,,,,,,0,52,52,52,837.6766186000314,,,,,,,,,,,,,837.660934999818,837.6766186000314,837.6766186000314,837.6766186000314,843.438210999826,,,,843.4441698000301,843.4557488998398,843.4557488998398,843.5041455999017,843.5043640998192,843.5208220998757,843.5208220998757,843.5208220998757,843.5872800999787,843.8709714999422,,,,,,,,,,,,,,,,,,,,,,down,5.760259200120345,None,space,0.3411720998119563,None,P133,001,2025-03-26_11h22.26.118,posner_endo_new1,2024.2.4,60.041128220392295,2025-03-26 11h22.31.494388 +0000,
cube_l.png,0.1,-0.31,valid,53,53,0,down,7.182003400055692,None,space,0.42115770000964403,None,,,,,,,,,0,53,53,53,843.8869145000353,,,,,,,,,,,,,843.8711506000254,843.8869145000353,843.8869145000353,843.8869145000353,851.0802486999892,,,,851.0872996998951,851.0989832000341,851.0989832000341,851.1463444998953,851.1465632999316,851.1628584000282,851.1628584000282,851.1628584000282,851.2293171999045,851.5963236999232,,,,,,,,,,,,,,,,,,,,,,down,7.182003400055692,None,space,0.42115770000964403,None,P133,001,2025-03-26_11h22.26.118,posner_endo_new1,2024.2.4,60.041128220392295,2025-03-26 11h22.31.494388 +0000,
cube_r.png,0.1,10,catch,54,54,0,down,5.745185599895194,None,None,,,,,,,,,,,0,54,54,54,851.6123430000152,,,,,,,,,,,,,851.596494599944,851.6123430000152,851.6123430000152,851.6123430000152,857.3739306000061,,,,857.3799641998485,857.3919603000395,857.3919603000395,857.4396716000047,857.4398988999892,857.4563292998355,857.4563292998355,857.4563292998355,857.53983959998,860.4538014999125,,,,859.5542861998547,860.4700130999554,860.4700130999554,860.4700130999554,,,,,,,,,,,,,,,down,5.745185599895194,None,None,,,P133,001,2025-03-26_11h22.26.118,posner_endo_new1,2024.2.4,60.041128220392295,2025-03-26 11h22.31.494388 +0000,
cube_l.png,0.1,0.31,invalid,55,55,0,down,3.8717255000956357,None,space,0.41475049988366663,None,,,,,,,,,0,55,55,55,860.4700130999554,,,,,,,,,,,,,860.4539643998723,860.4700130999554,860.4700130999554,860.4700130999554,864.3498717998154,,,,864.3558420999907,864.3671848999802,864.3671848999802,864.416075799847,864.4162977000233,864.4326263999101,864.4326263999101,864.4326263999101,864.4992207000032,864.8496736998204,,,,,,,,,,,,,,,,,,,,,,down,3.8717255000956357,None,space,0.41475049988366663,None,P133,001,2025-03-26_11h22.26.118,posner_endo_new1,2024.2.4,60.041128220392295,2025-03-26 11h22.31.494388 +0000,
cube_l.png,0.1,-0.31,valid,56,56,0,down,5.068363500060514,None,space,0.36230650008656085,None,,,,,,,,,0,56,56,56,864.8654120999854,,,,,,,,,,,,,864.8498466999736,864.8654120999854,864.8654120999854,864.8654120999854,869.9443240000401,,,,869.9502214000095,869.9619139998686,869.9619139998686,870.0103043999989,870.0105241998099,870.026877899887,870.026877899887,870.026877899887,870.0933943998534,870.3939006000292,,,,,,,,,,,,,,,,,,,,,,down,5.068363500060514,None,space,0.36230650008656085,None,P133,001,2025-03-26_11h22.26.118,posner_endo_new1,2024.2.4,60.041128220392295,2025-03-26 11h22.31.494388 +0000,
cube_r.png,0.1,0.31,valid,57,57,0,down,4.691717300098389,None,space,0.35140929999761283,None,,,,,,,,,0,57,57,57,870.4099726998247,,,,,,,,,,,,,870.394075299846,870.4099726998247,870.4099726998247,870.4099726998247,875.1057655999903,,,,875.1122174998745,875.1239241999574,875.1239241999574,875.1716789000202,875.1719016998541,875.188272099942,875.188272099942,875.188272099942,875.2549393000081,875.5554044998717,,,,,,,,,,,,,,,,,,,,,,down,4.691717300098389,None,space,0.35140929999761283,None,P133,001,2025-03-26_11h22.26.118,posner_endo_new1,2024.2.4,60.041128220392295,2025-03-26 11h22.31.494388 +0000,
cube_r.png,0.1,-0.31,invalid,58,58,0,down,5.994450399884954,None,space,0.3503180998377502,None,,,,,,,,,0,58,58,58,875.5711618999485,,,,,,,,,,,,,875.5555777999107,875.5711618999485,875.5711618999485,875.5711618999485,881.5823439999949,,,,881.5884181999136,881.5996584999375,881.5996584999375,881.6483822998125,881.6486008998472,881.6649729998317,881.6649729998317,881.6649729998317,881.731531099882,882.0321619999595,,,,,,,,,,,,,,,,,,,,,,down,5.994450399884954,None,space,0.3503180998377502,None,P133,001,2025-03-26_11h22.26.118,posner_endo_new1,2024.2.4,60.041128220392295,2025-03-26 11h22.31.494388 +0000,
cube_l.png,0.1,0.31,invalid,59,59,0,down,5.069763700012118,None,space,0.3638462000526488,None,,,,,,,,,0,59,59,59,882.0478797999676,,,,,,,,,,,,,882.0323348999955,882.0478797999676,882.0478797999676,882.0478797999676,887.1268125998322,,,,887.1330025999341,887.1445871999022,887.1445871999022,887.1927991998382,887.1930164999794,887.2092611000407,887.2092611000407,887.2092611000407,887.2758879000321,887.5762724999804,,,,,,,,,,,,,,,,,,,,,,down,5.069763700012118,None,space,0.3638462000526488,None,P133,001,2025-03-26_11h22.26.118,posner_endo_new1,2024.2.4,60.041128220392295,2025-03-26 11h22.31.494388 +0000,
