cue_img,cue_soa,target_x,trial,thisN,thisTrialN,thisRepN,key_control2.keys,key_control2.rt,key_control2.duration,key_resp.keys,key_resp.rt,key_resp.duration,practice.thisRepN,practice.thisTrialN,practice.thisN,practice.thisIndex,block1.thisRepN,block1.thisTrialN,block1.thisN,block1.thisIndex,block2.thisRepN,block2.thisTrialN,block2.thisN,block2.thisIndex,thisRow.t,notes,instructions.started,instructions_txt.started,key_control.started,instructions.stopped,key_control.keys,key_control.rt,key_control.duration,ready.started,ready_txt.started,ready_txt.stopped,ready.stopped,fix.started,fixation.started,key_control2.started,fixation_cross.started,fix.stopped,practice.key_control2.keys,practice.key_control2.rt,practice.key_control2.duration,cue.started,cube.started,fixation_cross_cue.started,cue.stopped,target.started,fixation_target.started,fixation_cross_target.started,key_resp.started,star.started,target.stopped,practice.key_resp.keys,practice.key_resp.rt,practice.key_resp.duration,star.stopped,fixation_target.stopped,fixation_cross_target.stopped,key_resp.stopped,block1.key_control2.keys,block1.key_control2.rt,block1.key_control2.duration,block1.key_resp.keys,block1.key_resp.rt,block1.key_resp.duration,break_2.started,text.started,key_control3.started,break_2.stopped,key_control3.keys,key_control3.rt,key_control3.duration,block2.key_control2.keys,block2.key_control2.rt,block2.key_control2.duration,block2.key_resp.keys,block2.key_resp.rt,block2.key_resp.duration,participant,session,date,expName,psychopyVersion,frameRate,expStart,
,,,,,,,,,,,,,,,,,,,,,,,,,,,0.007437699940055609,0.030400600051507354,0.030400600051507354,20.458491400117055,up,20.40817860001698,None,,,,,,,,,,,,,,,,,,,,,,,,,,,,,,,,,,,,,,,,,,,,,,,,,P134,001,2025-03-26_13h14.26.470,posner_endo_new1,2024.2.4,60.10388353166325,2025-03-26 13h14.32.500404 +0000,
,,,,,,,,,,,,,,,,,,,,,,,,,,,,,,,,,,20.4586575999856,20.47079350007698,23.47436650004238,23.443001300096512,,,,,,,,,,,,,,,,,,,,,,,,,,,,,,,,,,,,,,,,,,,,,P134,001,2025-03-26_13h14.26.470,posner_endo_new1,2024.2.4,60.10388353166325,2025-03-26 13h14.32.500404 +0000,
cube_l.png,0.1,0.31,invalid,0,0,0,down,8.228376799961552,None,space,0.43191699986346066,None,0,0,0,1,,,,,,,,,23.47436650004238,,,,,,,,,,,,,23.46104870014824,23.47436650004238,23.47436650004238,23.47436650004238,31.71991450013593,down,8.228376799961552,None,31.75670940009877,31.768292699940503,31.768292699940503,31.783710400108248,31.784084599930793,31.800336400046945,31.800336400046945,31.800336400046945,31.883536800043657,32.23465760005638,space,0.43191699986346066,None,,,,,,,,,,,,,,,,,,,,,,,,P134,001,2025-03-26_13h14.26.470,posner_endo_new1,2024.2.4,60.10388353166325,2025-03-26 13h14.32.500404 +0000,
cube_r.png,0.1,-0.31,invalid,1,1,0,down,1.8366008000448346,None,space,0.39510790002532303,None,0,1,1,6,,,,,,,,,32.24975279998034,,,,,,,,,,,,,32.23496529995464,32.24975279998034,32.24975279998034,32.24975279998034,34.09917880012654,down,1.8366008000448346,None,34.10856360010803,34.11817439994775,34.11817439994775,34.164880600059405,34.165380500024185,34.181307499995455,34.181307499995455,34.181307499995455,34.26456080004573,34.58298579999246,space,0.39510790002532303,None,,,,,,,,,,,,,,,,,,,,,,,,P134,001,2025-03-26_13h14.26.470,posner_endo_new1,2024.2.4,60.10388353166325,2025-03-26 13h14.32.500404 +0000,
cube_l.png,0.1,-0.31,valid,2,2,0,down,4.057322700042278,None,space,0.5242945000063628,None,0,2,2,0,,,,,,,,,34.597574800020084,,,,,,,,,,,,,34.58340690005571,34.597574800020084,34.597574800020084,34.597574800020084,38.66137370001525,down,4.057322700042278,None,38.6733482000418,38.68359920009971,38.68359920009971,38.72701520007104,38.72735660010949,38.743344499962404,38.743344499962404,38.743344499962404,38.82670530001633,39.27717100013979,space,0.5242945000063628,None,,,,,,,,,,,,,,,,,,,,,,,,P134,001,2025-03-26_13h14.26.470,posner_endo_new1,2024.2.4,60.10388353166325,2025-03-26 13h14.32.500404 +0000,
cube_r.png,0.1,0.31,valid,3,3,0,down,2.2660698001272976,None,space,0.31261789985001087,None,0,3,3,10,,,,,,,,,39.292951399926096,,,,,,,,,,,,,39.277445800136775,39.292951399926096,39.292951399926096,39.292951399926096,41.575064399978146,down,2.2660698001272976,None,41.58801980013959,41.60022670007311,41.60022670007311,41.641054400010034,41.64172780001536,41.657357200048864,41.657357200048864,41.657357200048864,41.740636500064284,41.97614019992761,space,0.31261789985001087,None,,,,,,,,,,,,,,,,,,,,,,,,P134,001,2025-03-26_13h14.26.470,posner_endo_new1,2024.2.4,60.10388353166325,2025-03-26 13h14.32.500404 +0000,
cube_r.png,0.1,0.31,valid,4,4,0,down,4.080185000086203,None,space,0.3361908998340368,None,0,4,4,7,,,,,,,,,41.990493200020865,,,,,,,,,,,,,41.97668640012853,41.990493200020865,41.990493200020865,41.990493200020865,46.08826300012879,down,4.080185000086203,None,46.111995900049806,46.12328170007095,46.12328170007095,46.15221230010502,46.15252000000328,46.16875650011934,46.16875650011934,46.16875650011934,46.252337800106034,46.51959350006655,space,0.3361908998340368,None,,,,,,,,,,,,,,,,,,,,,,,,P134,001,2025-03-26_13h14.26.470,posner_endo_new1,2024.2.4,60.10388353166325,2025-03-26 13h14.32.500404 +0000,
cube_l.png,0.1,-0.31,valid,5,5,0,down,3.9033587998710573,None,space,0.401578500168398,None,0,5,5,4,,,,,,,,,46.53558379993774,,,,,,,,,,,,,46.51983490004204,46.53558379993774,46.53558379993774,46.53558379993774,50.45077550015412,down,3.9033587998710573,None,50.47073610010557,50.48122479999438,50.48122479999438,50.51464039995335,50.51507670013234,50.531166800064966,50.531166800064966,50.531166800064966,50.61475760000758,50.948700699955225,space,0.401578500168398,None,,,,,,,,,,,,,,,,,,,,,,,,P134,001,2025-03-26_13h14.26.470,posner_endo_new1,2024.2.4,60.10388353166325,2025-03-26 13h14.32.500404 +0000,
cube_l.png,0.1,-0.31,valid,6,6,0,down,3.962840399937704,None,space,0.4091322999447584,None,0,6,6,8,,,,,,,,,50.96392640005797,,,,,,,,,,,,,50.94894000003114,50.96392640005797,50.96392640005797,50.96392640005797,54.92807130003348,down,3.962840399937704,None,54.93816230003722,54.94835010007955,54.94835010007955,54.99404689995572,54.99477540003136,55.01035579992458,55.01035579992458,55.01035579992458,55.09363649995066,55.429038299946114,space,0.4091322999447584,None,,,,,,,,,,,,,,,,,,,,,,,,P134,001,2025-03-26_13h14.26.470,posner_endo_new1,2024.2.4,60.10388353166325,2025-03-26 13h14.32.500404 +0000,
cube_r.png,0.1,-0.31,invalid,7,7,0,down,4.1801368000451475,None,space,0.4714013999328017,None,0,7,7,2,,,,,,,,,55.443348499946296,,,,,,,,,,,,,55.42959429998882,55.443348499946296,55.443348499946296,55.443348499946296,59.6410695000086,down,4.1801368000451475,None,59.664643299998716,59.6763673000969,59.6763673000969,59.70521160005592,59.70559610007331,59.72166740009561,59.72166740009561,59.72166740009561,59.80484480015002,60.205741100013256,space,0.4714013999328017,None,,,,,,,,,,,,,,,,,,,,,,,,P134,001,2025-03-26_13h14.26.470,posner_endo_new1,2024.2.4,60.10388353166325,2025-03-26 13h14.32.500404 +0000,
cube_r.png,0.1,-0.31,invalid,8,8,0,down,4.329862900078297,None,space,0.3799948999658227,None,0,8,8,9,,,,,,,,,60.221167100127786,,,,,,,,,,,,,60.2060621001292,60.221167100127786,60.221167100127786,60.221167100127786,64.56808320013806,down,4.329862900078297,None,64.58216190012172,64.59184750006534,64.59184750006534,64.63349590008147,64.63373839994892,64.65006060013548,64.65006060013548,64.65006060013548,64.73382620001212,65.03595050005242,space,0.3799948999658227,None,,,,,,,,,,,,,,,,,,,,,,,,P134,001,2025-03-26_13h14.26.470,posner_endo_new1,2024.2.4,60.10388353166325,2025-03-26 13h14.32.500404 +0000,
cube_r.png,0.1,10,catch,9,9,0,down,4.509129100013524,None,None,,,0,9,9,3,,,,,,,,,65.05022790003568,,,,,,,,,,,,,65.03650639997795,65.05022790003568,65.05022790003568,65.05022790003568,69.56473139999434,down,4.509129100013524,None,69.58875370002352,69.60088800010271,69.60088800010271,69.62842410011217,69.6288532000035,69.64487279998139,69.64487279998139,69.64487279998139,69.72853370010853,72.64234260004014,None,,,71.74311239994131,72.65862250002101,72.65862250002101,72.65862250002101,,,,,,,,,,,,,,,,,,,,P134,001,2025-03-26_13h14.26.470,posner_endo_new1,2024.2.4,60.10388353166325,2025-03-26 13h14.32.500404 +0000,
cube_l.png,0.1,0.31,invalid,10,10,0,down,1.6524908000137657,None,space,0.34443779988214374,None,0,10,10,5,,,,,,,,,72.65862250002101,,,,,,,,,,,,,72.64254610007629,72.65862250002101,72.65862250002101,72.65862250002101,74.32452360005118,down,1.6524908000137657,None,74.33369829994626,74.34374719997868,74.34374719997868,74.39040730008855,74.39068980002776,74.40689630014822,74.40689630014822,74.40689630014822,74.4737591999583,74.75763210002333,space,0.34443779988214374,None,,,,,,,,,,,,,,,,,,,,,,,,P134,001,2025-03-26_13h14.26.470,posner_endo_new1,2024.2.4,60.10388353166325,2025-03-26 13h14.32.500404 +0000,
,,,,,,,,,,,,,,,,,,,,,,,,,,,,,,,,,,74.75778750004247,74.77290410012938,77.77757050003856,77.7541298000142,,,,,,,,,,,,,,,,,,,,,,,,,,,,,,,,,,,,,,,,,,,,,P134,001,2025-03-26_13h14.26.470,posner_endo_new1,2024.2.4,60.10388353166325,2025-03-26 13h14.32.500404 +0000,
cube_l.png,0.1,10,catch,0,0,0,down,0.2291654001455754,None,None,,,,,,,0,0,0,0,,,,,77.77757050003856,,,,,,,,,,,,,77.7689102999866,77.77757050003856,77.77757050003856,77.77757050003856,78.02070720004849,,,,78.02693319995888,78.03878709999844,78.03878709999844,78.08670939994045,78.08694340009242,78.10309430002235,78.10309430002235,78.10309430002235,78.18656689999625,81.10181919997558,,,,80.20131739997305,81.11703750002198,81.11703750002198,81.11703750002198,down,0.2291654001455754,None,None,,,,,,,,,,,,,,,,P134,001,2025-03-26_13h14.26.470,posner_endo_new1,2024.2.4,60.10388353166325,2025-03-26 13h14.32.500404 +0000,
cube_l.png,0.1,10,catch,1,1,0,down,3.9304360998794436,None,None,,,,,,,0,1,1,1,,,,,81.11703750002198,,,,,,,,,,,,,81.10237250011414,81.11703750002198,81.11703750002198,81.11703750002198,85.06501040002331,,,,85.08747120015323,85.09756739996374,85.09756739996374,85.12922820006497,85.12965909997001,85.14567210013047,85.14567210013047,85.14567210013047,85.22929690009914,88.14319350011647,,,,87.24390839994885,88.15931580006145,88.15931580006145,88.15931580006145,down,3.9304360998794436,None,None,,,,,,,,,,,,,,,,P134,001,2025-03-26_13h14.26.470,posner_endo_new1,2024.2.4,60.10388353166325,2025-03-26 13h14.32.500404 +0000,
cube_l.png,0.1,0.31,invalid,2,2,0,down,0.8323427999857813,None,space,0.4450474998448044,None,,,,,0,2,2,2,,,,,88.15931580006145,,,,,,,,,,,,,88.14342450001277,88.15931580006145,88.15931580006145,88.15931580006145,88.99301910004579,,,,89.0028085000813,89.0129313999787,89.0129313999787,89.05839160014875,89.05869770003483,89.07534789992496,89.07534789992496,89.07534789992496,89.15823790011927,89.5255257000681,,,,,,,,down,0.8323427999857813,None,space,0.4450474998448044,None,,,,,,,,,,,,,,P134,001,2025-03-26_13h14.26.470,posner_endo_new1,2024.2.4,60.10388353166325,2025-03-26 13h14.32.500404 +0000,
cube_l.png,0.1,0.31,invalid,3,3,0,down,4.545051199849695,None,space,0.4422997001092881,None,,,,,0,3,3,3,,,,,89.54169540014118,,,,,,,,,,,,,89.52578669996001,89.54169540014118,89.54169540014118,89.54169540014118,94.08817410003394,,,,94.098074400099,94.10825740010478,94.10825740010478,94.15296919993125,94.15328650013544,94.17016909993254,94.17016909993254,94.17016909993254,94.25344190001488,94.62039540009573,,,,,,,,down,4.545051199849695,None,space,0.4422997001092881,None,,,,,,,,,,,,,,P134,001,2025-03-26_13h14.26.470,posner_endo_new1,2024.2.4,60.10388353166325,2025-03-26 13h14.32.500404 +0000,
cube_l.png,0.1,-0.31,valid,4,4,0,down,3.322326499968767,None,space,0.37714209989644587,None,,,,,0,4,4,4,,,,,94.63636539992876,,,,,,,,,,,,,94.62064229999669,94.63636539992876,94.63636539992876,94.63636539992876,97.9669119999744,,,,97.97662760014646,97.98674630001187,97.98674630001187,98.03290840005502,98.03320950013585,98.04949450003915,98.04949450003915,98.04949450003915,98.11616690014489,98.43341369996779,,,,,,,,down,3.322326499968767,None,space,0.37714209989644587,None,,,,,,,,,,,,,,P134,001,2025-03-26_13h14.26.470,posner_endo_new1,2024.2.4,60.10388353166325,2025-03-26 13h14.32.500404 +0000,
cube_r.png,0.1,-0.31,invalid,5,5,0,down,4.606148200109601,None,space,0.3298400999046862,None,,,,,0,5,5,5,,,,,98.44868730008602,,,,,,,,,,,,,98.43366610002704,98.44868730008602,98.44868730008602,98.44868730008602,103.06213889992796,,,,103.0719091000501,103.08211489999667,103.08211489999667,103.12781159998849,103.12811230006628,103.14387110015377,103.14387110015377,103.14387110015377,103.22749970015138,103.47799720009789,,,,,,,,down,4.606148200109601,None,space,0.3298400999046862,None,,,,,,,,,,,,,,P134,001,2025-03-26_13h14.26.470,posner_endo_new1,2024.2.4,60.10388353166325,2025-03-26 13h14.32.500404 +0000,
cube_r.png,0.1,0.31,valid,6,6,0,down,3.968746099853888,None,space,0.35308470018208027,None,,,,,0,6,6,6,,,,,103.49399719992653,,,,,,,,,,,,,103.47824249998666,103.49399719992653,103.49399719992653,103.49399719992653,107.47377849998884,,,,107.48413019999862,107.49433730007149,107.49433730007149,107.54000320006162,107.54030600003898,107.55641099996865,107.55641099996865,107.55641099996865,107.62313840002753,107.92336819996126,,,,,,,,down,3.968746099853888,None,space,0.35308470018208027,None,,,,,,,,,,,,,,P134,001,2025-03-26_13h14.26.470,posner_endo_new1,2024.2.4,60.10388353166325,2025-03-26 13h14.32.500404 +0000,
cube_r.png,0.1,-0.31,invalid,7,7,0,down,4.299367599887773,None,space,0.3049706001766026,None,,,,,0,7,7,7,,,,,107.93941670004278,,,,,,,,,,,,,107.92361940001138,107.93941670004278,107.93941670004278,107.93941670004278,112.2525446000509,,,,112.26212129998021,112.27240230003372,112.27240230003372,112.31799830007367,112.31830190005712,112.33455640007742,112.33455640007742,112.33455640007742,112.41775869997218,112.65220590005629,,,,,,,,down,4.299367599887773,None,space,0.3049706001766026,None,,,,,,,,,,,,,,P134,001,2025-03-26_13h14.26.470,posner_endo_new1,2024.2.4,60.10388353166325,2025-03-26 13h14.32.500404 +0000,
cube_l.png,0.1,-0.31,valid,8,8,0,down,4.419554100139067,None,space,0.3226167999673635,None,,,,,0,8,8,8,,,,,112.6675494001247,,,,,,,,,,,,,112.6524567999877,112.6675494001247,112.6675494001247,112.6675494001247,117.09738990012556,,,,117.10700720013119,117.11735430010594,117.11735430010594,117.16355150006711,117.163854500046,117.17949150013737,117.17949150013737,117.17949150013737,117.24655740009621,117.51398029993288,,,,,,,,down,4.419554100139067,None,space,0.3226167999673635,None,,,,,,,,,,,,,,P134,001,2025-03-26_13h14.26.470,posner_endo_new1,2024.2.4,60.10388353166325,2025-03-26 13h14.32.500404 +0000,
cube_r.png,0.1,-0.31,invalid,9,9,0,down,5.1258216998539865,None,space,0.4438028000295162,None,,,,,0,9,9,9,,,,,117.529140900122,,,,,,,,,,,,,117.51423340011388,117.529140900122,117.529140900122,117.529140900122,122.6582849000115,,,,122.66787240002304,122.67811889993027,122.67811889993027,122.72437379998155,122.72467639995739,122.74094010004774,122.74094010004774,122.74094010004774,122.80713149998337,123.19128350005485,,,,,,,,down,5.1258216998539865,None,space,0.4438028000295162,None,,,,,,,,,,,,,,P134,001,2025-03-26_13h14.26.470,posner_endo_new1,2024.2.4,60.10388353166325,2025-03-26 13h14.32.500404 +0000,
cube_l.png,0.1,0.31,invalid,10,10,0,down,4.159809600096196,None,space,0.4241632001940161,None,,,,,0,10,10,10,,,,,123.2071806001477,,,,,,,,,,,,,123.19153359998018,123.2071806001477,123.2071806001477,123.2071806001477,127.37017310014926,,,,127.37968769995496,127.38969250000082,127.38969250000082,127.4359148000367,127.43621810013428,127.4527328000404,127.4527328000404,127.4527328000404,127.51929419999942,127.88668789993972,,,,,,,,down,4.159809600096196,None,space,0.4241632001940161,None,,,,,,,,,,,,,,P134,001,2025-03-26_13h14.26.470,posner_endo_new1,2024.2.4,60.10388353166325,2025-03-26 13h14.32.500404 +0000,
cube_r.png,0.1,-0.31,invalid,11,11,0,down,4.552780100144446,None,space,0.30253349989652634,None,,,,,0,11,11,11,,,,,127.9022892001085,,,,,,,,,,,,,127.8869489999488,127.9022892001085,127.9022892001085,127.9022892001085,132.46554170013405,,,,132.47518800012767,132.48531670006923,132.48531670006923,132.5310794999823,132.53138029994443,132.54726140014827,132.54726140014827,132.54726140014827,132.63048329995945,132.86446890002117,,,,,,,,down,4.552780100144446,None,space,0.30253349989652634,None,,,,,,,,,,,,,,P134,001,2025-03-26_13h14.26.470,posner_endo_new1,2024.2.4,60.10388353166325,2025-03-26 13h14.32.500404 +0000,
cube_r.png,0.1,0.31,valid,12,12,0,down,5.150457200128585,None,space,0.5438967999070883,None,,,,,0,12,12,12,,,,,132.88059790013358,,,,,,,,,,,,,132.86471799993888,132.88059790013358,132.88059790013358,132.88059790013358,138.0425072000362,,,,138.0522189999465,138.06227200012654,138.06227200012654,138.10830350010656,138.10860539996065,138.12489120010287,138.12489120010287,138.12489120010287,138.1913457000628,138.67559460015036,,,,,,,,down,5.150457200128585,None,space,0.5438967999070883,None,,,,,,,,,,,,,,P134,001,2025-03-26_13h14.26.470,posner_endo_new1,2024.2.4,60.10388353166325,2025-03-26 13h14.32.500404 +0000,
cube_l.png,0.1,10,catch,13,13,0,down,5.555496499873698,None,None,,,,,,,0,13,13,13,,,,,138.69130340008996,,,,,,,,,,,,,138.67584759998135,138.69130340008996,138.69130340008996,138.69130340008996,144.25305339996703,,,,144.26252180011943,144.27264440013096,144.27264440013096,144.3191188001074,144.31942040007561,144.33545659994707,144.33545659994707,144.33545659994707,144.41869199997745,147.33292600000277,,,,146.433326800121,147.3491194001399,147.3491194001399,147.3491194001399,down,5.555496499873698,None,None,,,,,,,,,,,,,,,,P134,001,2025-03-26_13h14.26.470,posner_endo_new1,2024.2.4,60.10388353166325,2025-03-26 13h14.32.500404 +0000,
cube_r.png,0.1,-0.31,invalid,14,14,0,down,2.4016466999892145,None,space,0.45957439998164773,None,,,,,0,14,14,14,,,,,147.3491194001399,,,,,,,,,,,,,147.33315680013038,147.3491194001399,147.3491194001399,147.3491194001399,149.76384850009345,,,,149.7722911001183,149.7827898999676,149.7827898999676,149.83002270013094,149.83056259993464,149.84640819998458,149.84640819998458,149.84640819998458,149.91301320004277,150.31489649997093,,,,,,,,down,2.4016466999892145,None,space,0.45957439998164773,None,,,,,,,,,,,,,,P134,001,2025-03-26_13h14.26.470,posner_endo_new1,2024.2.4,60.10388353166325,2025-03-26 13h14.32.500404 +0000,
cube_l.png,0.1,-0.31,valid,15,15,0,down,5.685127499978989,None,space,0.43157620006240904,None,,,,,0,15,15,15,,,,,150.3292537999805,,,,,,,,,,,,,150.3153778000269,150.3292537999805,150.3292537999805,150.3292537999805,156.02528159995563,,,,156.04400050011463,156.0553858000785,156.0553858000785,156.09025300014764,156.09080180013552,156.10667919996195,156.10667919996195,156.10667919996195,156.18995689996518,156.54158700001426,,,,,,,,down,5.685127499978989,None,space,0.43157620006240904,None,,,,,,,,,,,,,,P134,001,2025-03-26_13h14.26.470,posner_endo_new1,2024.2.4,60.10388353166325,2025-03-26 13h14.32.500404 +0000,
cube_r.png,0.1,10,catch,16,16,0,down,6.331025299848989,None,None,,,,,,,0,16,16,16,,,,,156.5562370000407,,,,,,,,,,,,,156.54207130009308,156.5562370000407,156.5562370000407,156.5562370000407,162.90151800005697,,,,162.92049850011244,162.93193379999138,162.93193379999138,162.96599099994637,162.96629610005766,162.98247950011864,162.98247950011864,162.98247950011864,163.0664337000344,165.9810025000479,,,,165.0807710001245,165.9965429001022,165.9965429001022,165.9965429001022,down,6.331025299848989,None,None,,,,,,,,,,,,,,,,P134,001,2025-03-26_13h14.26.470,posner_endo_new1,2024.2.4,60.10388353166325,2025-03-26 13h14.32.500404 +0000,
cube_r.png,0.1,10,catch,17,17,0,down,3.066541099920869,None,None,,,,,,,0,17,17,17,,,,,165.9965429001022,,,,,,,,,,,,,165.981432300061,165.9965429001022,165.9965429001022,165.9965429001022,169.07866280013695,,,,169.0972154000774,169.10856950003654,169.10856950003654,169.14361539995298,169.14415990002453,169.1599727999419,169.1599727999419,169.1599727999419,169.24322980013676,172.15804990008473,,,,171.25781129999086,172.17353520006873,172.17353520006873,172.17353520006873,down,3.066541099920869,None,None,,,,,,,,,,,,,,,,P134,001,2025-03-26_13h14.26.470,posner_endo_new1,2024.2.4,60.10388353166325,2025-03-26 13h14.32.500404 +0000,
cube_l.png,0.1,0.31,invalid,18,18,0,down,1.8729144998360425,None,space,0.5613327999599278,None,,,,,0,18,18,18,,,,,172.17353520006873,,,,,,,,,,,,,172.15850699995644,172.17353520006873,172.17353520006873,172.17353520006873,174.05687410011888,,,,174.0762164001353,174.08759030001238,174.08759030001238,174.12138859997503,174.12173140002415,174.13780839997344,174.13780839997344,174.13780839997344,174.22130380012095,174.70549970003776,,,,,,,,down,1.8729144998360425,None,space,0.5613327999599278,None,,,,,,,,,,,,,,P134,001,2025-03-26_13h14.26.470,posner_endo_new1,2024.2.4,60.10388353166325,2025-03-26 13h14.32.500404 +0000,
cube_l.png,0.1,10,catch,19,19,0,down,5.981895099859685,None,None,,,,,,,0,19,19,19,,,,,174.72056340007111,,,,,,,,,,,,,174.70578920003027,174.72056340007111,174.72056340007111,174.72056340007111,180.7166572001297,,,,180.73545120004565,180.7467976999469,180.7467976999469,180.78121359995566,180.78158619999886,180.79765029996634,180.79765029996634,180.79765029996634,180.88146540010348,183.796141800005,,,,182.8959435999859,183.81161740003154,183.81161740003154,183.81161740003154,down,5.981895099859685,None,None,,,,,,,,,,,,,,,,P134,001,2025-03-26_13h14.26.470,posner_endo_new1,2024.2.4,60.10388353166325,2025-03-26 13h14.32.500404 +0000,
cube_l.png,0.1,0.31,invalid,20,20,0,down,3.9638195000588894,None,space,0.4945918000303209,None,,,,,0,20,20,20,,,,,183.81161740003154,,,,,,,,,,,,,183.79659990011714,183.81161740003154,183.81161740003154,183.81161740003154,187.79258040012792,,,,187.80923529993743,187.8191305999644,187.8191305999644,187.8573527999688,187.85770189994946,187.87430409993976,187.87430409993976,187.87430409993976,187.95750400004908,188.37497350014746,,,,,,,,down,3.9638195000588894,None,space,0.4945918000303209,None,,,,,,,,,,,,,,P134,001,2025-03-26_13h14.26.470,posner_endo_new1,2024.2.4,60.10388353166325,2025-03-26 13h14.32.500404 +0000,
cube_l.png,0.1,-0.31,valid,21,21,0,down,7.929171900032088,None,space,0.4408825000282377,None,,,,,0,21,21,21,,,,,188.38998370012268,,,,,,,,,,,,,188.37527079996653,188.38998370012268,188.38998370012268,188.38998370012268,196.33488969993778,,,,196.35652159992605,196.36666240007617,196.36666240007617,196.39873680006713,196.3991260000039,196.41506110015325,196.41506110015325,196.41506110015325,196.49832820007578,196.86594399996102,,,,,,,,down,7.929171900032088,None,space,0.4408825000282377,None,,,,,,,,,,,,,,P134,001,2025-03-26_13h14.26.470,posner_endo_new1,2024.2.4,60.10388353166325,2025-03-26 13h14.32.500404 +0000,
cube_r.png,0.1,0.31,valid,22,22,0,down,6.061764600221068,None,space,0.33868429996073246,None,,,,,0,22,22,22,,,,,196.88126810011454,,,,,,,,,,,,,196.8662662000861,196.88126810011454,196.88126810011454,196.88126810011454,202.9592959000729,,,,202.96756340004504,202.97835220000707,202.97835220000707,203.02589970012195,203.02658400009386,203.04226260003634,203.04226260003634,203.04226260003634,203.1088589001447,203.3941983000841,,,,,,,,down,6.061764600221068,None,space,0.33868429996073246,None,,,,,,,,,,,,,,P134,001,2025-03-26_13h14.26.470,posner_endo_new1,2024.2.4,60.10388353166325,2025-03-26 13h14.32.500404 +0000,
cube_r.png,0.1,-0.31,invalid,23,23,0,down,7.245841100113466,None,space,0.48494560015387833,None,,,,,0,23,23,23,,,,,203.40858689998277,,,,,,,,,,,,,203.39477359992452,203.40858689998277,203.40858689998277,203.40858689998277,210.6687690000981,,,,210.68018939998,210.69045450002886,210.69045450002886,210.73427830007859,210.73462430015206,210.75042970012873,210.75042970012873,210.75042970012873,210.833674200112,211.25157129997388,,,,,,,,down,7.245841100113466,None,space,0.48494560015387833,None,,,,,,,,,,,,,,P134,001,2025-03-26_13h14.26.470,posner_endo_new1,2024.2.4,60.10388353166325,2025-03-26 13h14.32.500404 +0000,
cube_r.png,0.1,0.31,valid,24,24,0,down,7.012188199907541,None,space,0.5937502000015229,None,,,,,0,24,24,24,,,,,211.26692089997232,,,,,,,,,,,,,211.25185710005462,211.26692089997232,211.26692089997232,211.26692089997232,218.29386899992824,,,,218.3053618001286,218.31559560005553,218.31559560005553,218.35972109995782,218.36007139994763,218.376339700073,218.376339700073,218.376339700073,218.4426407001447,218.97711500013247,,,,,,,,down,7.012188199907541,None,space,0.5937502000015229,None,,,,,,,,,,,,,,P134,001,2025-03-26_13h14.26.470,posner_endo_new1,2024.2.4,60.10388353166325,2025-03-26 13h14.32.500404 +0000,
cube_r.png,0.1,-0.31,invalid,25,25,0,down,7.4938693000003695,None,space,0.4470689999870956,None,,,,,0,25,25,25,,,,,218.99252460012212,,,,,,,,,,,,,218.9773999999743,218.99252460012212,218.99252460012212,218.99252460012212,226.50217880005948,,,,226.51059730001725,226.52098729996942,226.52098729996942,226.5680426999461,226.5685978999827,226.5845347000286,226.5845347000286,226.5845347000286,226.66780090006068,227.0362520001363,,,,,,,,down,7.4938693000003695,None,space,0.4470689999870956,None,,,,,,,,,,,,,,P134,001,2025-03-26_13h14.26.470,posner_endo_new1,2024.2.4,60.10388353166325,2025-03-26 13h14.32.500404 +0000,
cube_l.png,0.1,-0.31,valid,26,26,0,down,6.299906200030819,None,space,0.3712788999546319,None,,,,,0,26,26,26,,,,,227.0507430001162,,,,,,,,,,,,,227.03672889992595,227.0507430001162,227.0507430001162,227.0507430001162,233.36206690012477,,,,233.37399390013888,233.38432920002379,233.38432920002379,233.4277560999617,233.4280982001219,233.44425650010817,233.44425650010817,233.44425650010817,233.5274853000883,233.82827759999782,,,,,,,,down,6.299906200030819,None,space,0.3712788999546319,None,,,,,,,,,,,,,,P134,001,2025-03-26_13h14.26.470,posner_endo_new1,2024.2.4,60.10388353166325,2025-03-26 13h14.32.500404 +0000,
cube_r.png,0.1,0.31,valid,27,27,0,down,6.355095099890605,None,space,0.48529450013302267,None,,,,,0,27,27,27,,,,,233.84355170000345,,,,,,,,,,,,,233.82857230002992,233.84355170000345,233.84355170000345,233.84355170000345,240.2047977000475,,,,240.2161861001514,240.22644190001301,240.22644190001301,240.27040329994634,240.27074800012633,240.287114799954,240.287114799954,240.287114799954,240.37040739995427,240.78792680008337,,,,,,,,down,6.355095099890605,None,space,0.48529450013302267,None,,,,,,,,,,,,,,P134,001,2025-03-26_13h14.26.470,posner_endo_new1,2024.2.4,60.10388353166325,2025-03-26 13h14.32.500404 +0000,
cube_r.png,0.1,10,catch,28,28,0,down,7.204054400091991,None,None,,,,,,,0,28,28,28,,,,,240.803071500035,,,,,,,,,,,,,240.78821890009567,240.803071500035,240.803071500035,240.803071500035,248.01335080014542,,,,248.02493120008148,248.03512310003862,248.03512310003862,248.07935380004346,248.07969549996778,248.09585399995558,248.09585399995558,248.09585399995558,248.1624825000763,251.09350920002908,,,,250.1771388000343,251.10918279993348,251.10918279993348,251.10918279993348,down,7.204054400091991,None,None,,,,,,,,,,,,,,,,P134,001,2025-03-26_13h14.26.470,posner_endo_new1,2024.2.4,60.10388353166325,2025-03-26 13h14.32.500404 +0000,
cube_r.png,0.1,0.31,valid,29,29,0,down,6.27374570001848,None,space,0.3525902999099344,None,,,,,0,29,29,29,,,,,251.10918279993348,,,,,,,,,,,,,251.09377679997124,251.10918279993348,251.10918279993348,251.10918279993348,257.3872905999888,,,,257.3987464001402,257.40886200009845,257.40886200009845,257.452965100063,257.4533065999858,257.46974309999496,257.46974309999496,257.46974309999496,257.55257069994695,257.8365797000006,,,,,,,,down,6.27374570001848,None,space,0.3525902999099344,None,,,,,,,,,,,,,,P134,001,2025-03-26_13h14.26.470,posner_endo_new1,2024.2.4,60.10388353166325,2025-03-26 13h14.32.500404 +0000,
cube_r.png,0.1,0.31,valid,30,30,0,down,6.626410400029272,None,space,0.30670140008442104,None,,,,,0,30,30,30,,,,,257.8522926000878,,,,,,,,,,,,,257.8367745000869,257.8522926000878,257.8522926000878,257.8522926000878,264.48198350006714,,,,264.5047456000466,264.517013899982,264.517013899982,264.5455086999573,264.54584949999116,264.5619049000088,264.5619049000088,264.5619049000088,264.6453720999416,264.8800697999541,,,,,,,,down,6.626410400029272,None,space,0.30670140008442104,None,,,,,,,,,,,,,,P134,001,2025-03-26_13h14.26.470,posner_endo_new1,2024.2.4,60.10388353166325,2025-03-26 13h14.32.500404 +0000,
cube_l.png,0.1,-0.31,valid,31,31,0,down,7.320562100037932,None,space,0.39045800012536347,None,,,,,0,31,31,31,,,,,264.8949418000411,,,,,,,,,,,,,264.8803606000729,264.8949418000411,264.8949418000411,264.8949418000411,272.22201610007323,,,,272.2327135000378,272.2428923000116,272.2428923000116,272.2880035000853,272.2883041999303,272.3041594000533,272.3041594000533,272.3041594000533,272.38745760009624,272.7049617001321,,,,,,,,down,7.320562100037932,None,space,0.39045800012536347,None,,,,,,,,,,,,,,P134,001,2025-03-26_13h14.26.470,posner_endo_new1,2024.2.4,60.10388353166325,2025-03-26 13h14.32.500404 +0000,
cube_r.png,0.1,0.31,valid,32,32,0,down,7.51008650008589,None,space,0.32106199976988137,None,,,,,0,32,32,32,,,,,272.72053620009683,,,,,,,,,,,,,272.7052098000422,272.72053620009683,272.72053620009683,272.72053620009683,280.2469432000071,,,,280.2562386000063,280.26613020012155,280.26613020012155,280.31344940001145,280.3141157999635,280.32980010006577,280.32980010006577,280.32980010006577,280.3964110999368,280.6651087999344,,,,,,,,down,7.51008650008589,None,space,0.32106199976988137,None,,,,,,,,,,,,,,P134,001,2025-03-26_13h14.26.470,posner_endo_new1,2024.2.4,60.10388353166325,2025-03-26 13h14.32.500404 +0000,
cube_r.png,0.1,-0.31,invalid,33,33,0,down,7.191027499968186,None,space,0.38763169990852475,None,,,,,0,33,33,33,,,,,280.6795145000797,,,,,,,,,,,,,280.66569439996965,280.6795145000797,280.6795145000797,280.6795145000797,287.8744254000485,,,,287.8970194000285,287.9091124001425,287.9091124001425,287.9383386000991,287.9387283001561,287.95473699993454,287.95473699993454,287.95473699993454,288.03809839999303,288.35573770012707,,,,,,,,down,7.191027499968186,None,space,0.38763169990852475,None,,,,,,,,,,,,,,P134,001,2025-03-26_13h14.26.470,posner_endo_new1,2024.2.4,60.10388353166325,2025-03-26 13h14.32.500404 +0000,
cube_r.png,0.1,10,catch,34,34,0,down,6.740086399950087,None,None,,,,,,,0,34,34,34,,,,,288.3709373001475,,,,,,,,,,,,,288.35605620010756,288.3709373001475,288.3709373001475,288.3709373001475,295.117104700068,,,,295.13949250010774,295.1515977999661,295.1515977999661,295.1808805000037,295.1812660000287,295.19734210008755,295.19734210008755,295.19734210008755,295.28051139996387,298.1950703000184,,,,297.29527639993466,298.210840200074,298.210840200074,298.210840200074,down,6.740086399950087,None,None,,,,,,,,,,,,,,,,P134,001,2025-03-26_13h14.26.470,posner_endo_new1,2024.2.4,60.10388353166325,2025-03-26 13h14.32.500404 +0000,
cube_r.png,0.1,0.31,valid,35,35,0,down,3.124305200064555,None,space,0.4034901999402791,None,,,,,0,35,35,35,,,,,298.210840200074,,,,,,,,,,,,,298.1953682999592,298.210840200074,298.210840200074,298.210840200074,301.3425741000101,,,,301.35498089995235,301.3650235000532,301.3650235000532,301.40782790002413,301.40821600006893,301.4243701000232,301.4243701000232,301.4243701000232,301.507633500034,301.84193000011146,,,,,,,,down,3.124305200064555,None,space,0.4034901999402791,None,,,,,,,,,,,,,,P134,001,2025-03-26_13h14.26.470,posner_endo_new1,2024.2.4,60.10388353166325,2025-03-26 13h14.32.500404 +0000,
cube_r.png,0.1,-0.31,invalid,36,36,0,down,6.477119700051844,None,space,0.49102879990823567,None,,,,,0,36,36,36,,,,,301.85712990001775,,,,,,,,,,,,,301.8422513999976,301.85712990001775,301.85712990001775,301.85712990001775,308.3356439000927,,,,308.3479162999429,308.3580521000549,308.3580521000549,308.40059540001675,308.40098970010877,308.4170754000079,308.4170754000079,308.4170754000079,308.50031240005046,308.91785009996966,,,,,,,,down,6.477119700051844,None,space,0.49102879990823567,None,,,,,,,,,,,,,,P134,001,2025-03-26_13h14.26.470,posner_endo_new1,2024.2.4,60.10388353166325,2025-03-26 13h14.32.500404 +0000,
cube_l.png,0.1,0.31,invalid,37,37,0,down,6.458017900120467,None,space,0.3922983000520617,None,,,,,0,37,37,37,,,,,308.9332274000626,,,,,,,,,,,,,308.9181886999868,308.9332274000626,308.9332274000626,308.9332274000626,315.39647940010764,,,,315.42133960011415,315.43317660014145,315.43317660014145,315.4600676000118,315.4604524001479,315.47668029996566,315.47668029996566,315.47668029996566,315.55994389997795,315.8774205001537,,,,,,,,down,6.458017900120467,None,space,0.3922983000520617,None,,,,,,,,,,,,,,P134,001,2025-03-26_13h14.26.470,posner_endo_new1,2024.2.4,60.10388353166325,2025-03-26 13h14.32.500404 +0000,
cube_l.png,0.1,0.31,invalid,38,38,0,down,5.641834000125527,None,space,0.44008699990808964,None,,,,,0,38,38,38,,,,,315.8927408999298,,,,,,,,,,,,,315.87774290004745,315.8927408999298,315.8927408999298,315.8927408999298,321.5383210000582,,,,321.5499122000765,321.5595943001099,321.5595943001099,321.6037425000686,321.6039889000822,321.620559199946,321.620559199946,321.620559199946,321.70388319995254,322.0720794000663,,,,,,,,down,5.641834000125527,None,space,0.44008699990808964,None,,,,,,,,,,,,,,P134,001,2025-03-26_13h14.26.470,posner_endo_new1,2024.2.4,60.10388353166325,2025-03-26 13h14.32.500404 +0000,
cube_r.png,0.1,0.31,valid,39,39,0,down,5.8164845001883805,None,space,0.4562639999203384,None,,,,,0,39,39,39,,,,,322.08677590009756,,,,,,,,,,,,,322.07254440011457,322.08677590009756,322.08677590009756,322.08677590009756,327.9154232000001,,,,327.930445099948,327.94144880003296,327.94144880003296,327.98057570005767,327.9808320000302,327.99727519997396,327.99727519997396,327.99727519997396,328.08053279994056,328.46496680006385,,,,,,,,down,5.8164845001883805,None,space,0.4562639999203384,None,,,,,,,,,,,,,,P134,001,2025-03-26_13h14.26.470,posner_endo_new1,2024.2.4,60.10388353166325,2025-03-26 13h14.32.500404 +0000,
cube_l.png,0.1,0.31,invalid,40,40,0,down,5.75101609993726,None,space,0.4958375000860542,None,,,,,0,40,40,40,,,,,328.480025799945,,,,,,,,,,,,,328.4653296000324,328.480025799945,328.480025799945,328.480025799945,334.24207259994,,,,334.25273870001547,334.26290130009875,334.26290130009875,334.30785680003464,334.30816420004703,334.3240374000743,334.3240374000743,334.3240374000743,334.4075998000335,334.82492700009607,,,,,,,,down,5.75101609993726,None,space,0.4958375000860542,None,,,,,,,,,,,,,,P134,001,2025-03-26_13h14.26.470,posner_endo_new1,2024.2.4,60.10388353166325,2025-03-26 13h14.32.500404 +0000,
cube_l.png,0.1,10,catch,41,41,0,down,5.63008450018242,None,None,,,,,,,0,41,41,41,,,,,334.8402285000775,,,,,,,,,,,,,334.82517670001835,334.8402285000775,334.8402285000775,334.8402285000775,340.4853108001407,,,,340.4951935999561,340.50532989995554,340.50532989995554,340.55109010008164,340.5514068999328,340.5678463000804,340.5678463000804,340.5678463000804,340.6508528001141,343.56552780000493,,,,342.6655018001329,343.58159570000134,343.58159570000134,343.58159570000134,down,5.63008450018242,None,None,,,,,,,,,,,,,,,,P134,001,2025-03-26_13h14.26.470,posner_endo_new1,2024.2.4,60.10388353166325,2025-03-26 13h14.32.500404 +0000,
cube_l.png,0.1,-0.31,valid,42,42,0,down,3.985429000109434,None,space,0.364080699859187,None,,,,,0,42,42,42,,,,,343.58159570000134,,,,,,,,,,,,,343.5657574001234,343.58159570000134,343.58159570000134,343.58159570000134,347.57814790005796,,,,347.59258670010604,347.6048677000217,347.6048677000217,347.6445534999948,347.64528900012374,347.6609225999564,347.6609225999564,347.6609225999564,347.7275068999734,348.0295388000086,,,,,,,,down,3.985429000109434,None,space,0.364080699859187,None,,,,,,,,,,,,,,P134,001,2025-03-26_13h14.26.470,posner_endo_new1,2024.2.4,60.10388353166325,2025-03-26 13h14.32.500404 +0000,
cube_l.png,0.1,10,catch,43,43,0,down,6.730723800137639,None,space,0.34689969988539815,None,,,,,0,43,43,43,,,,,348.0438999000471,,,,,,,,,,,,,348.0301272999495,348.0438999000471,348.0438999000471,348.0438999000471,354.7893221999984,,,,354.81425460008904,354.82490220014006,354.82490220014006,354.8532422001008,354.8536332999356,354.86955550010316,354.86955550010316,354.86955550010316,354.95282010012306,355.22064770013094,,,,,,,,down,6.730723800137639,None,space,0.34689969988539815,None,,,,,,,,,,,,,,P134,001,2025-03-26_13h14.26.470,posner_endo_new1,2024.2.4,60.10388353166325,2025-03-26 13h14.32.500404 +0000,
cube_l.png,0.1,0.31,invalid,44,44,0,down,8.442919800058007,None,space,0.48242320003919303,None,,,,,0,44,44,44,,,,,355.23583150003105,,,,,,,,,,,,,355.22096640011296,355.23583150003105,355.23583150003105,355.23583150003105,363.6951651999261,,,,363.70816510007717,363.7179012000561,363.7179012000561,363.76061440003105,363.76100170006976,363.7771068001166,363.7771068001166,363.7771068001166,363.8603396001272,364.26145699992776,,,,,,,,down,8.442919800058007,None,space,0.48242320003919303,None,,,,,,,,,,,,,,P134,001,2025-03-26_13h14.26.470,posner_endo_new1,2024.2.4,60.10388353166325,2025-03-26 13h14.32.500404 +0000,
cube_l.png,0.1,0.31,invalid,45,45,0,down,5.586703500011936,None,space,0.4241015000734478,None,,,,,0,45,45,45,,,,,364.2766988000367,,,,,,,,,,,,,364.26178100006655,364.2766988000367,364.2766988000367,364.2766988000367,369.87142869993113,,,,369.8786983001046,369.8903195001185,369.8903195001185,369.9373274000827,369.9375647001434,369.95403379993513,369.95403379993513,369.95403379993513,370.02094399998896,370.3879994000308,,,,,,,,down,5.586703500011936,None,space,0.4241015000734478,None,,,,,,,,,,,,,,P134,001,2025-03-26_13h14.26.470,posner_endo_new1,2024.2.4,60.10388353166325,2025-03-26 13h14.32.500404 +0000,
cube_r.png,0.1,0.31,valid,46,46,0,down,6.538482900010422,None,space,0.46073109982535243,None,,,,,0,46,46,46,,,,,370.4038842001464,,,,,,,,,,,,,370.3881606000941,370.4038842001464,370.4038842001464,370.4038842001464,376.9482343001291,,,,376.95826729992405,376.96837630006485,376.96837630006485,377.0141251999885,377.0144330000039,377.0306438000407,377.0306438000407,377.0306438000407,377.09727940009907,377.4975545001216,,,,,,,,down,6.538482900010422,None,space,0.46073109982535243,None,,,,,,,,,,,,,,P134,001,2025-03-26_13h14.26.470,posner_endo_new1,2024.2.4,60.10388353166325,2025-03-26 13h14.32.500404 +0000,
cube_l.png,0.1,-0.31,valid,47,47,0,down,6.47886690008454,None,space,0.38152240007184446,None,,,,,0,47,47,47,,,,,377.51308370009065,,,,,,,,,,,,,377.49780150013976,377.51308370009065,377.51308370009065,377.51308370009065,384.00788670009933,,,,384.01842839992605,384.02854329999536,384.02854329999536,384.0732299000956,384.073534199968,384.0902404000517,384.0902404000517,384.0902404000517,384.17345630005,384.474057600135,,,,,,,,down,6.47886690008454,None,space,0.38152240007184446,None,,,,,,,,,,,,,,P134,001,2025-03-26_13h14.26.470,posner_endo_new1,2024.2.4,60.10388353166325,2025-03-26 13h14.32.500404 +0000,
cube_r.png,0.1,-0.31,invalid,48,48,0,down,8.41268750000745,None,space,0.33884670003317297,None,,,,,0,48,48,48,,,,,384.48975870013237,,,,,,,,,,,,,384.4743028001394,384.48975870013237,384.48975870013237,384.48975870013237,392.91687129996717,,,,392.9410030001309,392.9531396001112,392.9531396001112,392.98056409996934,392.98087590001523,392.9973437001463,392.9973437001463,392.9973437001463,393.08053459995426,393.348544199951,,,,,,,,down,8.41268750000745,None,space,0.33884670003317297,None,,,,,,,,,,,,,,P134,001,2025-03-26_13h14.26.470,posner_endo_new1,2024.2.4,60.10388353166325,2025-03-26 13h14.32.500404 +0000,
cube_r.png,0.1,10,catch,49,49,0,down,5.642792500089854,None,None,,,,,,,0,49,49,49,,,,,393.36406380007975,,,,,,,,,,,,,393.34878990007564,393.36406380007975,393.36406380007975,393.36406380007975,399.01072590006515,,,,399.0361411999911,399.04605840006843,399.04605840006843,399.0744716001209,399.07481959997676,399.0909319999628,399.0909319999628,399.0909319999628,399.1743167000823,402.0899499999359,,,,401.189443500014,402.1052101000678,402.1052101000678,402.1052101000678,down,5.642792500089854,None,None,,,,,,,,,,,,,,,,P134,001,2025-03-26_13h14.26.470,posner_endo_new1,2024.2.4,60.10388353166325,2025-03-26 13h14.32.500404 +0000,
cube_l.png,0.1,-0.31,valid,50,50,0,down,4.781806299928576,None,space,0.3826122998725623,None,,,,,0,50,50,50,,,,,402.1052101000678,,,,,,,,,,,,,402.090489000082,402.1052101000678,402.1052101000678,402.1052101000678,406.9027869000565,,,,406.9264885999728,406.9362989999354,406.9362989999354,406.96635490003973,406.96669610007666,406.98319800011814,406.98319800011814,406.98319800011814,407.0665385001339,407.3673155999277,,,,,,,,down,4.781806299928576,None,space,0.3826122998725623,None,,,,,,,,,,,,,,P134,001,2025-03-26_13h14.26.470,posner_endo_new1,2024.2.4,60.10388353166325,2025-03-26 13h14.32.500404 +0000,
cube_l.png,0.1,-0.31,valid,51,51,0,down,7.743497499963269,None,space,0.5364374001510441,None,,,,,0,51,51,51,,,,,407.38294219993986,,,,,,,,,,,,,407.36760030011646,407.38294219993986,407.38294219993986,407.38294219993986,415.1441488999408,,,,415.16805940004997,415.17954070004635,415.17954070004635,415.2078919999767,415.2082209000364,415.2247715999838,415.2247715999838,415.2247715999838,415.30815039994195,415.77559780003503,,,,,,,,down,7.743497499963269,None,space,0.5364374001510441,None,,,,,,,,,,,,,,P134,001,2025-03-26_13h14.26.470,posner_endo_new1,2024.2.4,60.10388353166325,2025-03-26 13h14.32.500404 +0000,
cube_r.png,0.1,-0.31,invalid,52,52,0,down,5.776124400086701,None,space,0.43217180017381907,None,,,,,0,52,52,52,,,,,415.79061309993267,,,,,,,,,,,,,415.7758647000883,415.79061309993267,415.79061309993267,415.79061309993267,421.5711302999407,,,,421.5948415999301,421.60533479996957,421.60533479996957,421.6348622001242,421.63524630013853,421.6512056000065,421.6512056000065,421.6512056000065,421.7345823000651,422.08567710011266,,,,,,,,down,5.776124400086701,None,space,0.43217180017381907,None,,,,,,,,,,,,,,P134,001,2025-03-26_13h14.26.470,posner_endo_new1,2024.2.4,60.10388353166325,2025-03-26 13h14.32.500404 +0000,
cube_l.png,0.1,-0.31,valid,53,53,0,down,6.138474900042638,None,space,0.3943107998929918,None,,,,,0,53,53,53,,,,,422.1008031000383,,,,,,,,,,,,,422.0859964999836,422.1008031000383,422.1008031000383,422.1008031000383,428.2453487999737,,,,428.25354259996675,428.26389560010284,428.26389560010284,428.3116615000181,428.3122415000107,428.32809590012766,428.32809590012766,428.32809590012766,428.39469210011885,428.729714400135,,,,,,,,down,6.138474900042638,None,space,0.3943107998929918,None,,,,,,,,,,,,,,P134,001,2025-03-26_13h14.26.470,posner_endo_new1,2024.2.4,60.10388353166325,2025-03-26 13h14.32.500404 +0000,
cube_r.png,0.1,10,catch,54,54,0,down,6.870552500011399,None,None,,,,,,,0,54,54,54,,,,,428.74432080006227,,,,,,,,,,,,,428.7301881001331,428.74432080006227,428.74432080006227,428.74432080006227,435.6227136000525,,,,435.63944720011204,435.64979799999855,435.64979799999855,435.68702670000494,435.68736740015447,435.70385710010305,435.70385710010305,435.70385710010305,435.78675670013763,438.7015044,,,,437.80168460006826,438.7174754999578,438.7174754999578,438.7174754999578,down,6.870552500011399,None,None,,,,,,,,,,,,,,,,P134,001,2025-03-26_13h14.26.470,posner_endo_new1,2024.2.4,60.10388353166325,2025-03-26 13h14.32.500404 +0000,
cube_l.png,0.1,0.31,invalid,55,55,0,down,4.864924200112,None,space,0.6093802000395954,None,,,,,0,55,55,55,,,,,438.7174754999578,,,,,,,,,,,,,438.7017657000106,438.7174754999578,438.7174754999578,438.7174754999578,443.5976377001498,,,,443.6156361999456,443.6258404001128,443.6258404001128,443.66237400006503,443.66271260008216,443.6787595001515,443.6787595001515,443.6787595001515,443.76207390008494,444.2963142001536,,,,,,,,down,4.864924200112,None,space,0.6093802000395954,None,,,,,,,,,,,,,,P134,001,2025-03-26_13h14.26.470,posner_endo_new1,2024.2.4,60.10388353166325,2025-03-26 13h14.32.500404 +0000,
cube_l.png,0.1,-0.31,valid,56,56,0,down,5.615204300032929,None,space,0.5583899000193924,None,,,,,0,56,56,56,,,,,444.31174600007944,,,,,,,,,,,,,444.2966018000152,444.31174600007944,444.31174600007944,444.31174600007944,449.94191629998386,,,,449.9642130001448,449.97662300011143,449.97662300011143,450.00567089999095,450.00601779995486,450.0221850001253,450.0221850001253,450.0221850001253,450.1056028001476,450.5913532001432,,,,,,,,down,5.615204300032929,None,space,0.5583899000193924,None,,,,,,,,,,,,,,P134,001,2025-03-26_13h14.26.470,posner_endo_new1,2024.2.4,60.10388353166325,2025-03-26 13h14.32.500404 +0000,
cube_r.png,0.1,0.31,valid,57,57,0,down,6.737178299808875,None,space,0.38351799990050495,None,,,,,0,57,57,57,,,,,450.60567070008256,,,,,,,,,,,,,450.59194610011764,450.60567070008256,450.60567070008256,450.60567070008256,457.35142010007985,,,,457.37390030012466,457.38605550001375,457.38605550001375,457.4148118000012,457.41519269999117,457.4312903000973,457.4312903000973,457.4312903000973,457.5146769999992,457.83203579997644,,,,,,,,down,6.737178299808875,None,space,0.38351799990050495,None,,,,,,,,,,,,,,P134,001,2025-03-26_13h14.26.470,posner_endo_new1,2024.2.4,60.10388353166325,2025-03-26 13h14.32.500404 +0000,
cube_r.png,0.1,-0.31,invalid,58,58,0,down,8.038880300009623,None,space,0.41872430010698736,None,,,,,0,58,58,58,,,,,457.8476563000586,,,,,,,,,,,,,457.8323735999875,457.8476563000586,457.8476563000586,457.8476563000586,465.8906028000638,,,,465.9032014000695,465.9132871001493,465.9132871001493,465.9560412999708,465.956422700081,465.9726108000614,465.9726108000614,465.9726108000614,466.0558325999882,466.4067582001444,,,,,,,,down,8.038880300009623,None,space,0.41872430010698736,None,,,,,,,,,,,,,,P134,001,2025-03-26_13h14.26.470,posner_endo_new1,2024.2.4,60.10388353166325,2025-03-26 13h14.32.500404 +0000,
cube_l.png,0.1,0.31,invalid,59,59,0,down,7.354061499936506,None,space,0.4567869999445975,None,,,,,0,59,59,59,,,,,466.42207329999655,,,,,,,,,,,,,466.4070753999986,466.42207329999655,466.42207329999655,466.42207329999655,473.78253440000117,,,,473.7949996001553,473.80513240001164,473.80513240001164,473.8479637999553,473.8483525000047,473.8644540000241,473.8644540000241,473.8644540000241,473.9476920000743,474.3320897000376,,,,,,,,down,7.354061499936506,None,space,0.4567869999445975,None,,,,,,,,,,,,,,P134,001,2025-03-26_13h14.26.470,posner_endo_new1,2024.2.4,60.10388353166325,2025-03-26 13h14.32.500404 +0000,
,,,,,,,,,,,,,,,,,,,,,,,,,,,,,,,,,,,,,,,,,,,,,,,,,,,,,,,,,,,,,,,,,,,,,474.3322991000023,474.3473924000282,474.3473924000282,516.938652999932,space,42.576788200065494,None,,,,,,,P134,001,2025-03-26_13h14.26.470,posner_endo_new1,2024.2.4,60.10388353166325,2025-03-26 13h14.32.500404 +0000,
,,,,,,,,,,,,,,,,,,,,,,,,,,,,,,,,,,516.9387477999553,516.9537820001133,520.0303543999325,519.9349024000112,,,,,,,,,,,,,,,,,,,,,,,,,,,,,,,,,,,,,,,,,,,,,P134,001,2025-03-26_13h14.26.470,posner_endo_new1,2024.2.4,60.10388353166325,2025-03-26 13h14.32.500404 +0000,
cube_l.png,0.1,10,catch,0,0,0,up,14.896327499998733,None,None,,,,,,,,,,,0,0,0,0,520.0303543999325,,,,,,,,,,,,,520.0221095001325,520.0303543999325,520.0303543999325,520.0303543999325,534.93699200009,,,,534.9503019000404,534.960657000076,534.960657000076,535.0024816000368,535.0028345999308,535.018596699927,535.018596699927,535.018596699927,535.1017772001214,538.0165957999416,,,,537.1168798001017,538.0321097001433,538.0321097001433,538.0321097001433,,,,,,,,,,,,,,up,14.896327499998733,None,None,,,P134,001,2025-03-26_13h14.26.470,posner_endo_new1,2024.2.4,60.10388353166325,2025-03-26 13h14.32.500404 +0000,
cube_l.png,0.1,10,catch,1,1,0,up,3.087004200089723,None,None,,,,,,,,,,,0,1,1,1,538.0321097001433,,,,,,,,,,,,,538.016869999934,538.0321097001433,538.0321097001433,538.0321097001433,541.130153800128,,,,541.142808200093,541.1530576001387,541.1530576001387,541.1960271999706,541.1963709001429,541.21252489998,541.21252489998,541.21252489998,541.2958064000122,544.2102684001438,,,,543.3104211001191,544.2262341000605,544.2262341000605,544.2262341000605,,,,,,,,,,,,,,up,3.087004200089723,None,None,,,P134,001,2025-03-26_13h14.26.470,posner_endo_new1,2024.2.4,60.10388353166325,2025-03-26 13h14.32.500404 +0000,
cube_l.png,0.1,0.31,invalid,2,2,0,up,3.260685099987313,None,space,0.4603024001698941,None,,,,,,,,,0,2,2,2,544.2262341000605,,,,,,,,,,,,,544.2105352000799,544.2262341000605,544.2262341000605,544.2262341000605,547.4907005999703,,,,547.5026891999878,547.5131560999434,547.5131560999434,547.5559811000712,547.5563219999894,547.5725523999427,547.5725523999427,547.5725523999427,547.655728999991,548.0402528000996,,,,,,,,,,,,,,,,,,,,,up,3.260685099987313,None,space,0.4603024001698941,None,P134,001,2025-03-26_13h14.26.470,posner_endo_new1,2024.2.4,60.10388353166325,2025-03-26 13h14.32.500404 +0000,
cube_l.png,0.1,0.31,invalid,3,3,0,up,5.559400000143796,None,space,0.4342392000835389,None,,,,,,,,,0,3,3,3,548.0555743000004,,,,,,,,,,,,,548.0405421000905,548.0555743000004,548.0555743000004,548.0555743000004,553.6177534000017,,,,553.6286363000982,553.6383057001512,553.6383057001512,553.6833405001089,553.6835750001483,553.6998567001428,553.6998567001428,553.6998567001428,553.7833245999645,554.1516855999362,,,,,,,,,,,,,,,,,,,,,up,5.559400000143796,None,space,0.4342392000835389,None,P134,001,2025-03-26_13h14.26.470,posner_endo_new1,2024.2.4,60.10388353166325,2025-03-26 13h14.32.500404 +0000,
cube_l.png,0.1,-0.31,valid,4,4,0,up,6.392800699919462,None,space,0.3759787001181394,None,,,,,,,,,0,4,4,4,554.1662356001325,,,,,,,,,,,,,554.1522723000962,554.1662356001325,554.1662356001325,554.1662356001325,560.5621891000774,,,,560.5856403000653,560.5953921999317,560.5953921999317,560.6257848001551,560.6261160001159,560.6428247001022,560.6428247001022,560.6428247001022,560.7258959000465,561.028231299948,,,,,,,,,,,,,,,,,,,,,up,6.392800699919462,None,space,0.3759787001181394,None,P134,001,2025-03-26_13h14.26.470,posner_endo_new1,2024.2.4,60.10388353166325,2025-03-26 13h14.32.500404 +0000,
cube_r.png,0.1,-0.31,invalid,5,5,0,up,5.2522275999654084,None,space,0.40683269989676774,None,,,,,,,,,0,5,5,5,561.0426261001267,,,,,,,,,,,,,561.0288205000106,561.0426261001267,561.0426261001267,561.0426261001267,566.3064745001029,,,,566.3303175000474,566.3425285001285,566.3425285001285,566.3700983000454,566.3705337001011,566.3866288000718,566.3866288000718,566.3866288000718,566.4697634000331,566.8042228999548,,,,,,,,,,,,,,,,,,,,,up,5.2522275999654084,None,space,0.40683269989676774,None,P134,001,2025-03-26_13h14.26.470,posner_endo_new1,2024.2.4,60.10388353166325,2025-03-26 13h14.32.500404 +0000,
cube_r.png,0.1,0.31,valid,6,6,0,up,6.19504990009591,None,space,0.3525602000299841,None,,,,,,,,,0,6,6,6,566.8194075000938,,,,,,,,,,,,,566.804601999931,566.8194075000938,566.8194075000938,566.8194075000938,573.0308493000921,,,,573.039562900085,573.0498136000242,573.0498136000242,573.0964985999744,573.0969360000454,573.1129987000022,573.1129987000022,573.1129987000022,573.1962240000721,573.4807217000052,,,,,,,,,,,,,,,,,,,,,up,6.19504990009591,None,space,0.3525602000299841,None,P134,001,2025-03-26_13h14.26.470,posner_endo_new1,2024.2.4,60.10388353166325,2025-03-26 13h14.32.500404 +0000,
cube_r.png,0.1,-0.31,invalid,7,7,0,up,7.390937400050461,None,space,0.4065392999909818,None,,,,,,,,,0,7,7,7,573.4962520999834,,,,,,,,,,,,,573.4809719999321,573.4962520999834,573.4962520999834,573.4962520999834,580.8897214999888,,,,580.9057183000259,580.9179394999519,580.9179394999519,580.9550407000352,580.9554592000786,580.971506500151,580.971506500151,580.971506500151,581.0549091000576,581.3891817000695,,,,,,,,,,,,,,,,,,,,,up,7.390937400050461,None,space,0.4065392999909818,None,P134,001,2025-03-26_13h14.26.470,posner_endo_new1,2024.2.4,60.10388353166325,2025-03-26 13h14.32.500404 +0000,
cube_l.png,0.1,-0.31,valid,8,8,0,up,7.60194530012086,None,space,1.0605856000911444,None,,,,,,,,,0,8,8,8,581.40439349995,,,,,,,,,,,,,581.3895104001276,581.40439349995,581.40439349995,581.40439349995,589.0147291000467,,,,589.0288087001536,589.0388804001268,589.0388804001268,589.0802595000714,589.0806448999792,589.09648320009,589.09648320009,589.09648320009,589.1798938000575,590.1651318999939,,,,,,,,,,,,,,,,,,,,,up,7.60194530012086,None,space,1.0605856000911444,None,P134,001,2025-03-26_13h14.26.470,posner_endo_new1,2024.2.4,60.10388353166325,2025-03-26 13h14.32.500404 +0000,
cube_r.png,0.1,-0.31,invalid,9,9,0,up,7.234935300191864,None,space,0.5009626999963075,None,,,,,,,,,0,9,9,9,590.1794487000443,,,,,,,,,,,,,590.1657122999895,590.1794487000443,590.1794487000443,590.1794487000443,597.4243102001492,,,,597.448163199937,597.4605974999722,597.4605974999722,597.4880342001561,597.4883389000315,597.5049610000569,597.5049610000569,597.5049610000569,597.5879846001044,598.0218510001432,,,,,,,,,,,,,,,,,,,,,up,7.234935300191864,None,space,0.5009626999963075,None,P134,001,2025-03-26_13h14.26.470,posner_endo_new1,2024.2.4,60.10388353166325,2025-03-26 13h14.32.500404 +0000,
cube_l.png,0.1,0.31,invalid,10,10,0,up,7.040523299947381,None,space,0.6362010999582708,None,,,,,,,,,0,10,10,10,598.0378495999612,,,,,,,,,,,,,598.022102399962,598.0378495999612,598.0378495999612,598.0378495999612,605.0834661999252,,,,605.1074403999373,605.1174701000564,605.1174701000564,605.1468955001328,605.1472410000861,605.1633651999291,605.1633651999291,605.1633651999291,605.2473109001294,605.8158732000738,,,,,,,,,,,,,,,,,,,,,up,7.040523299947381,None,space,0.6362010999582708,None,P134,001,2025-03-26_13h14.26.470,posner_endo_new1,2024.2.4,60.10388353166325,2025-03-26 13h14.32.500404 +0000,
cube_r.png,0.1,-0.31,invalid,11,11,0,up,7.432852500118315,None,space,0.46104700001887977,None,,,,,,,,,0,11,11,11,605.8300542000216,,,,,,,,,,,,,605.8164636001457,605.8300542000216,605.8300542000216,605.8300542000216,613.2750747001264,,,,613.2967702001333,613.3068192000501,613.3068192000501,613.3385272000451,613.3388787999284,613.3553136999253,613.3553136999253,613.3553136999253,613.4388439999893,613.8224269000348,,,,,,,,,,,,,,,,,,,,,up,7.432852500118315,None,space,0.46104700001887977,None,P134,001,2025-03-26_13h14.26.470,posner_endo_new1,2024.2.4,60.10388353166325,2025-03-26 13h14.32.500404 +0000,
cube_r.png,0.1,0.31,valid,12,12,0,up,5.952906400198117,None,space,0.4418029999360442,None,,,,,,,,,0,12,12,12,613.837992399931,,,,,,,,,,,,,613.8227165001445,613.837992399931,613.837992399931,613.837992399931,619.8013567000162,,,,619.8238274001051,619.83682340011,619.83682340011,619.8651175999548,619.8654652999248,619.8816678000148,619.8816678000148,619.8816678000148,619.9653442001436,620.332937899977,,,,,,,,,,,,,,,,,,,,,up,5.952906400198117,None,space,0.4418029999360442,None,P134,001,2025-03-26_13h14.26.470,posner_endo_new1,2024.2.4,60.10388353166325,2025-03-26 13h14.32.500404 +0000,
cube_l.png,0.1,10,catch,13,13,0,up,6.8260896999854594,None,None,,,,,,,,,,,0,13,13,13,620.3483871000353,,,,,,,,,,,,,620.3332267000806,620.3483871000353,620.3483871000353,620.3483871000353,627.1775307999924,,,,627.2007063000929,627.212900799932,627.212900799932,627.2409378001466,627.2412849001121,627.2574203000404,627.2574203000404,627.2574203000404,627.3408872999717,630.256475500064,,,,629.3559735000599,630.2717110000085,630.2717110000085,630.2717110000085,,,,,,,,,,,,,,up,6.8260896999854594,None,None,,,P134,001,2025-03-26_13h14.26.470,posner_endo_new1,2024.2.4,60.10388353166325,2025-03-26 13h14.32.500404 +0000,
cube_r.png,0.1,-0.31,invalid,14,14,0,up,6.086569100152701,None,space,0.43098570010624826,None,,,,,,,,,0,14,14,14,630.2717110000085,,,,,,,,,,,,,630.2570619001053,630.2717110000085,630.2717110000085,630.2717110000085,636.3680906000081,,,,636.3908277000301,636.4028861001134,636.4028861001134,636.4316608000081,636.4320423000026,636.4482184001245,636.4482184001245,636.4482184001245,636.531375200022,636.8824275999796,,,,,,,,,,,,,,,,,,,,,up,6.086569100152701,None,space,0.43098570010624826,None,P134,001,2025-03-26_13h14.26.470,posner_endo_new1,2024.2.4,60.10388353166325,2025-03-26 13h14.32.500404 +0000,
cube_l.png,0.1,-0.31,valid,15,15,0,up,7.316919800126925,None,space,0.4537543000187725,None,,,,,,,,,0,15,15,15,636.8975907000713,,,,,,,,,,,,,636.8827982000075,636.8975907000713,636.8975907000713,636.8975907000713,644.2248670000117,,,,644.2372471999843,644.2472703000531,644.2472703000531,644.2903267999645,644.2907157000154,644.3066912000068,644.3066912000068,644.3066912000068,644.3900953000411,644.774329100037,,,,,,,,,,,,,,,,,,,,,up,7.316919800126925,None,space,0.4537543000187725,None,P134,001,2025-03-26_13h14.26.470,posner_endo_new1,2024.2.4,60.10388353166325,2025-03-26 13h14.32.500404 +0000,
cube_r.png,0.1,10,catch,16,16,0,up,7.2257906999439,None,None,,,,,,,,,,,0,16,16,16,644.7895148999523,,,,,,,,,,,,,644.7746548999567,644.7895148999523,644.7895148999523,644.7895148999523,652.0165999000892,,,,652.0248368999455,652.036665200023,652.036665200023,652.082996699959,652.0836583001073,652.0993556999601,652.0993556999601,652.0993556999601,652.1659711000975,655.0976478001103,,,,654.1805137000047,655.1128581000958,655.1128581000958,655.1128581000958,,,,,,,,,,,,,,up,7.2257906999439,None,None,,,P134,001,2025-03-26_13h14.26.470,posner_endo_new1,2024.2.4,60.10388353166325,2025-03-26 13h14.32.500404 +0000,
cube_r.png,0.1,10,catch,17,17,0,up,5.9097626998554915,None,None,,,,,,,,,,,0,17,17,17,655.1128581000958,,,,,,,,,,,,,655.0982161001302,655.1128581000958,655.1128581000958,655.1128581000958,661.02416000003,,,,661.0335262001026,661.0436377001461,661.0436377001461,661.0901472999249,661.090449300129,661.106196800014,661.106196800014,661.106196800014,661.1896494999528,664.1037429000717,,,,663.2040917000268,664.1202457000036,664.1202457000036,664.1202457000036,,,,,,,,,,,,,,up,5.9097626998554915,None,None,,,P134,001,2025-03-26_13h14.26.470,posner_endo_new1,2024.2.4,60.10388353166325,2025-03-26 13h14.32.500404 +0000,
cube_l.png,0.1,0.31,invalid,18,18,0,up,6.3590544001199305,None,space,0.5163477000314742,None,,,,,,,,,0,18,18,18,664.1202457000036,,,,,,,,,,,,,664.1039797000121,664.1202457000036,664.1202457000036,664.1202457000036,670.4811710999347,,,,670.4907750999555,670.500934000127,670.500934000127,670.5471032999922,670.5474112001248,670.5636464001145,670.5636464001145,670.5636464001145,670.6298112000804,671.0809971999843,,,,,,,,,,,,,,,,,,,,,up,6.3590544001199305,None,space,0.5163477000314742,None,P134,001,2025-03-26_13h14.26.470,posner_endo_new1,2024.2.4,60.10388353166325,2025-03-26 13h14.32.500404 +0000,
cube_l.png,0.1,10,catch,19,19,0,up,6.5506237000226974,None,None,,,,,,,,,,,0,19,19,19,671.0960417001043,,,,,,,,,,,,,671.0812611000147,671.0960417001043,671.0960417001043,671.0960417001043,677.6573602000717,,,,677.6669201999903,677.6770778000355,677.6770778000355,677.723134299973,677.7234410000965,677.7392064000014,677.7392064000014,677.7392064000014,677.8225104000885,680.7367821000516,,,,679.837021100102,680.7531659000088,680.7531659000088,680.7531659000088,,,,,,,,,,,,,,up,6.5506237000226974,None,None,,,P134,001,2025-03-26_13h14.26.470,posner_endo_new1,2024.2.4,60.10388353166325,2025-03-26 13h14.32.500404 +0000,
cube_l.png,0.1,0.31,invalid,20,20,0,up,4.373832399956882,None,space,0.57877969997935,None,,,,,,,,,0,20,20,20,680.7531659000088,,,,,,,,,,,,,680.7370158000849,680.7531659000088,680.7531659000088,680.7531659000088,685.1330826000776,,,,685.1424223000649,685.1525826000143,685.1525826000143,685.198805199936,685.1991103000473,685.2149751000106,685.2149751000106,685.2149751000106,685.298194100149,685.7989167000633,,,,,,,,,,,,,,,,,,,,,up,4.373832399956882,None,space,0.57877969997935,None,P134,001,2025-03-26_13h14.26.470,posner_endo_new1,2024.2.4,60.10388353166325,2025-03-26 13h14.32.500404 +0000,
cube_l.png,0.1,-0.31,valid,21,21,0,up,7.920022699981928,None,space,0.5934482000302523,None,,,,,,,,,0,21,21,21,685.8147035001311,,,,,,,,,,,,,685.7991667001043,685.8147035001311,685.8147035001311,685.8147035001311,693.7425033000764,,,,693.7649620000739,693.777330199955,693.777330199955,693.8063622000627,693.8067950000986,693.8228188001085,693.8228188001085,693.8228188001085,693.9060700000264,694.4235976000782,,,,,,,,,,,,,,,,,,,,,up,7.920022699981928,None,space,0.5934482000302523,None,P134,001,2025-03-26_13h14.26.470,posner_endo_new1,2024.2.4,60.10388353166325,2025-03-26 13h14.32.500404 +0000,
cube_r.png,0.1,0.31,valid,22,22,0,up,6.686963899992406,None,space,0.5094428001902997,None,,,,,,,,,0,22,22,22,694.439277100144,,,,,,,,,,,,,694.4238547999412,694.439277100144,694.439277100144,694.439277100144,701.1331118999515,,,,701.1424237999599,701.1525970001239,701.1525970001239,701.1993811000139,701.2000486000907,701.2157207001001,701.2157207001001,701.2157207001001,701.2823670001235,701.7344353001099,,,,,,,,,,,,,,,,,,,,,up,6.686963899992406,None,space,0.5094428001902997,None,P134,001,2025-03-26_13h14.26.470,posner_endo_new1,2024.2.4,60.10388353166325,2025-03-26 13h14.32.500404 +0000,
cube_r.png,0.1,-0.31,invalid,23,23,0,up,6.618177500087768,None,space,0.4306821001227945,None,,,,,,,,,0,23,23,23,701.7486463999376,,,,,,,,,,,,,701.7350669000298,701.7486463999376,701.7486463999376,701.7486463999376,708.3773711000104,,,,708.3980362000875,708.4086313999724,708.4086313999724,708.441356100142,708.4417944999877,708.4577732000034,708.4577732000034,708.4577732000034,708.541035000002,708.8923081001267,,,,,,,,,,,,,,,,,,,,,up,6.618177500087768,None,space,0.4306821001227945,None,P134,001,2025-03-26_13h14.26.470,posner_endo_new1,2024.2.4,60.10388353166325,2025-03-26 13h14.32.500404 +0000,
cube_r.png,0.1,0.31,valid,24,24,0,up,6.163147600134835,None,space,0.5146360001526773,None,,,,,,,,,0,24,24,24,708.9074788999278,,,,,,,,,,,,,708.8926862000953,708.9074788999278,708.9074788999278,708.9074788999278,715.0856606999878,,,,715.0951151000336,715.1055483999662,715.1055483999662,715.151055400027,715.1513561999891,715.1679271999747,715.1679271999747,715.1679271999747,715.2512461000588,715.6847969000228,,,,,,,,,,,,,,,,,,,,,up,6.163147600134835,None,space,0.5146360001526773,None,P134,001,2025-03-26_13h14.26.470,posner_endo_new1,2024.2.4,60.10388353166325,2025-03-26 13h14.32.500404 +0000,
cube_r.png,0.1,-0.31,invalid,25,25,0,up,6.3219819001387805,None,space,1.095974100055173,None,,,,,,,,,0,25,25,25,715.7004480999894,,,,,,,,,,,,,715.685059600044,715.7004480999894,715.7004480999894,715.7004480999894,722.0283743001055,,,,722.0379431999754,722.0480542001314,722.0480542001314,722.0939685001504,722.0942745001521,722.1109031999949,722.1109031999949,722.1109031999949,722.1771142000798,723.2105002000462,,,,,,,,,,,,,,,,,,,,,up,6.3219819001387805,None,space,1.095974100055173,None,P134,001,2025-03-26_13h14.26.470,posner_endo_new1,2024.2.4,60.10388353166325,2025-03-26 13h14.32.500404 +0000,
cube_l.png,0.1,-0.31,valid,26,26,0,up,5.620622500078753,None,space,0.4485370002221316,None,,,,,,,,,0,26,26,26,723.2263293999713,,,,,,,,,,,,,723.2107551000081,723.2263293999713,723.2263293999713,723.2263293999713,728.8550877000671,,,,728.8643793000374,728.8745093001053,728.8745093001053,728.920499100117,728.9208047001157,728.9372777999379,728.9372777999379,728.9372777999379,729.0204398999922,729.3876817999408,,,,,,,,,,,,,,,,,,,,,up,5.620622500078753,None,space,0.4485370002221316,None,P134,001,2025-03-26_13h14.26.470,posner_endo_new1,2024.2.4,60.10388353166325,2025-03-26 13h14.32.500404 +0000,
cube_r.png,0.1,0.31,valid,27,27,0,up,5.963218899909407,None,space,0.5345443999394774,None,,,,,,,,,0,27,27,27,729.4032680999953,,,,,,,,,,,,,729.3879366000183,729.4032680999953,729.4032680999953,729.4032680999953,735.381277800072,,,,735.3907513001468,735.4009452001192,735.4009452001192,735.4471372999251,735.4474430999253,735.4636737001128,735.4636737001128,735.4636737001128,735.5301059000194,736.013930000132,,,,,,,,,,,,,,,,,,,,,up,5.963218899909407,None,space,0.5345443999394774,None,P134,001,2025-03-26_13h14.26.470,posner_endo_new1,2024.2.4,60.10388353166325,2025-03-26 13h14.32.500404 +0000,
cube_r.png,0.1,10,catch,28,28,0,up,6.304467000067234,None,None,,,,,,,,,,,0,28,28,28,736.0300007001497,,,,,,,,,,,,,736.014192600036,736.0300007001497,736.0300007001497,736.0300007001497,742.3407426001504,,,,742.3499704999849,742.3601249000058,742.3601249000058,742.406596600078,742.406900400063,742.4234408999328,742.4234408999328,742.4234408999328,742.4896579000633,745.4206373000052,,,,744.5045446001459,745.4366498000454,745.4366498000454,745.4366498000454,,,,,,,,,,,,,,up,6.304467000067234,None,None,,,P134,001,2025-03-26_13h14.26.470,posner_endo_new1,2024.2.4,60.10388353166325,2025-03-26 13h14.32.500404 +0000,
cube_r.png,0.1,0.31,valid,29,29,0,up,4.162327700061724,None,space,0.7784891999326646,None,,,,,,,,,0,29,29,29,745.4366498000454,,,,,,,,,,,,,745.4208752999548,745.4366498000454,745.4366498000454,745.4366498000454,749.6004141999874,,,,749.6097556999885,749.6199298000429,749.6199298000429,749.6658238000236,749.6661257999949,749.682476399932,749.682476399932,749.682476399932,749.7658756999299,750.4659869000316,,,,,,,,,,,,,,,,,,,,,up,4.162327700061724,None,space,0.7784891999326646,None,P134,001,2025-03-26_13h14.26.470,posner_endo_new1,2024.2.4,60.10388353166325,2025-03-26 13h14.32.500404 +0000,
cube_r.png,0.1,0.31,valid,30,30,0,up,7.261229400057346,None,space,0.5279612001031637,None,,,,,,,,,0,30,30,30,750.4818752999417,,,,,,,,,,,,,750.466237799963,750.4818752999417,750.4818752999417,750.4818752999417,757.7582682999782,,,,757.7674964000471,757.7776669999585,757.7776669999585,757.8241215001326,757.8244231001008,757.8410227000713,757.8410227000713,757.8410227000713,757.9238677001558,758.3748670001514,,,,,,,,,,,,,,,,,,,,,up,7.261229400057346,None,space,0.5279612001031637,None,P134,001,2025-03-26_13h14.26.470,posner_endo_new1,2024.2.4,60.10388353166325,2025-03-26 13h14.32.500404 +0000,
cube_l.png,0.1,-0.31,valid,31,31,0,up,5.961703399894759,None,space,0.5055468999780715,None,,,,,,,,,0,31,31,31,758.3899737999309,,,,,,,,,,,,,758.3751503000967,758.3899737999309,758.3899737999309,758.3899737999309,764.3686657999642,,,,764.3826554999687,764.394270400051,764.394270400051,764.4347675000317,764.4354253001511,764.4510596001055,764.4510596001055,764.4510596001055,764.5176427001134,764.9695721999742,,,,,,,,,,,,,,,,,,,,,up,5.961703399894759,None,space,0.5055468999780715,None,P134,001,2025-03-26_13h14.26.470,posner_endo_new1,2024.2.4,60.10388353166325,2025-03-26 13h14.32.500404 +0000,
cube_r.png,0.1,0.31,valid,32,32,0,up,5.926598999882117,None,space,0.487674199976027,None,,,,,,,,,0,32,32,32,764.9839198000263,,,,,,,,,,,,,764.970211399952,764.9839198000263,764.9839198000263,764.9839198000263,770.913552199956,,,,770.936043899972,770.9482024000026,770.9482024000026,770.9773490000516,770.977734599961,770.9937040000223,770.9937040000223,770.9937040000223,771.0771354001481,771.4947292001452,,,,,,,,,,,,,,,,,,,,,up,5.926598999882117,None,space,0.487674199976027,None,P134,001,2025-03-26_13h14.26.470,posner_endo_new1,2024.2.4,60.10388353166325,2025-03-26 13h14.32.500404 +0000,
cube_r.png,0.1,-0.31,invalid,33,33,0,up,5.504494899883866,None,space,0.31100180000066757,None,,,,,,,,,0,33,33,33,771.5098975000437,,,,,,,,,,,,,771.4950606999919,771.5098975000437,771.5098975000437,771.5098975000437,777.0238785999827,,,,777.0464205001481,777.0587689999957,777.0587689999957,777.0877904000226,777.0882292999886,777.1042226001155,777.1042226001155,777.1042226001155,777.1875058999285,777.4223470001016,,,,,,,,,,,,,,,,,,,,,up,5.504494899883866,None,space,0.31100180000066757,None,P134,001,2025-03-26_13h14.26.470,posner_endo_new1,2024.2.4,60.10388353166325,2025-03-26 13h14.32.500404 +0000,
cube_r.png,0.1,10,catch,34,34,0,up,5.937051299959421,None,None,,,,,,,,,,,0,34,34,34,777.4372743000276,,,,,,,,,,,,,777.4227352000307,777.4372743000276,777.4372743000276,777.4372743000276,783.3826468000188,,,,783.3912243000232,783.4010086001363,783.4010086001363,783.4484056001529,783.4489414000418,783.4646624999586,783.4646624999586,783.4646624999586,783.5478894999251,786.462623800151,,,,785.562505699927,786.4781780000776,786.4781780000776,786.4781780000776,,,,,,,,,,,,,,up,5.937051299959421,None,None,,,P134,001,2025-03-26_13h14.26.470,posner_endo_new1,2024.2.4,60.10388353166325,2025-03-26 13h14.32.500404 +0000,
cube_r.png,0.1,0.31,valid,35,35,0,up,3.0328913000412285,None,space,0.6364211000036448,None,,,,,,,,,0,35,35,35,786.4781780000776,,,,,,,,,,,,,786.4630617999937,786.4781780000776,786.4781780000776,786.4781780000776,789.5269693001173,,,,789.5453348001465,789.5555865000933,789.5555865000933,789.5919621000066,789.5922910999507,789.608438000083,789.608438000083,789.608438000083,789.6917093000375,790.2588077001274,,,,,,,,,,,,,,,,,,,,,up,3.0328913000412285,None,space,0.6364211000036448,None,P134,001,2025-03-26_13h14.26.470,posner_endo_new1,2024.2.4,60.10388353166325,2025-03-26 13h14.32.500404 +0000,
cube_r.png,0.1,-0.31,invalid,36,36,0,up,5.932153400033712,None,space,0.48909099982120097,None,,,,,,,,,0,36,36,36,790.2744617001154,,,,,,,,,,,,,790.25908540003,790.2744617001154,790.2744617001154,790.2744617001154,796.2208585999906,,,,796.2405207999982,796.2514790999703,796.2514790999703,796.2847764000762,796.2852107000072,796.3012723999564,796.3012723999564,796.3012723999564,796.3844888999593,796.8022287001368,,,,,,,,,,,,,,,,,,,,,up,5.932153400033712,None,space,0.48909099982120097,None,P134,001,2025-03-26_13h14.26.470,posner_endo_new1,2024.2.4,60.10388353166325,2025-03-26 13h14.32.500404 +0000,
cube_l.png,0.1,0.31,invalid,37,37,0,up,5.213254599831998,None,space,0.47840850008651614,None,,,,,,,,,0,37,37,37,796.8173803000245,,,,,,,,,,,,,796.8026209999807,796.8173803000245,796.8173803000245,796.8173803000245,802.0467465000693,,,,802.0559453000315,802.0656075000297,802.0656075000297,802.112167299958,802.1123916001525,802.1287188001443,802.1287188001443,802.1287188001443,802.2120513000991,802.6125537999906,,,,,,,,,,,,,,,,,,,,,up,5.213254599831998,None,space,0.47840850008651614,None,P134,001,2025-03-26_13h14.26.470,posner_endo_new1,2024.2.4,60.10388353166325,2025-03-26 13h14.32.500404 +0000,
cube_l.png,0.1,0.31,invalid,38,38,0,up,7.20274840015918,None,space,0.5007883000653237,None,,,,,,,,,0,38,38,38,802.6282053999603,,,,,,,,,,,,,802.6127257000189,802.6282053999603,802.6282053999603,802.6282053999603,809.840257700067,,,,809.8631365001202,809.8757816001307,809.8757816001307,809.9041721001267,809.9046002000105,809.9206245001405,809.9206245001405,809.9206245001405,810.003901100019,810.438174800016,,,,,,,,,,,,,,,,,,,,,up,7.20274840015918,None,space,0.5007883000653237,None,P134,001,2025-03-26_13h14.26.470,posner_endo_new1,2024.2.4,60.10388353166325,2025-03-26 13h14.32.500404 +0000,
cube_r.png,0.1,0.31,valid,39,39,0,up,5.665276400046423,None,space,0.4018164000008255,None,,,,,,,,,0,39,39,39,810.4534531999379,,,,,,,,,,,,,810.4384286999702,810.4534531999379,810.4534531999379,810.4534531999379,816.1318678001408,,,,816.1412724000402,816.1514125000685,816.1514125000685,816.198016300099,816.1983189000748,816.2146282000467,816.2146282000467,816.2146282000467,816.2975022001192,816.6316680000164,,,,,,,,,,,,,,,,,,,,,up,5.665276400046423,None,space,0.4018164000008255,None,P134,001,2025-03-26_13h14.26.470,posner_endo_new1,2024.2.4,60.10388353166325,2025-03-26 13h14.32.500404 +0000,
cube_l.png,0.1,0.31,invalid,40,40,0,up,4.4567404999397695,None,space,0.6365198998246342,None,,,,,,,,,0,40,40,40,816.6469926999416,,,,,,,,,,,,,816.6319275000133,816.6469926999416,816.6469926999416,816.6469926999416,821.1105198001023,,,,821.1200319000054,821.1302434001118,821.1302434001118,821.1759385000914,821.1762389999349,821.1929161001462,821.1929161001462,821.1929161001462,821.2760388001334,821.8429984999821,,,,,,,,,,,,,,,,,,,,,up,4.4567404999397695,None,space,0.6365198998246342,None,P134,001,2025-03-26_13h14.26.470,posner_endo_new1,2024.2.4,60.10388353166325,2025-03-26 13h14.32.500404 +0000,
cube_l.png,0.1,10,catch,41,41,0,up,7.683894700137898,None,space,0.25266480003483593,None,,,,,,,,,0,41,41,41,821.8587140999734,,,,,,,,,,,,,821.843252300052,821.8587140999734,821.8587140999734,821.8587140999734,829.5517094000243,,,,829.5616121999919,829.5717277000658,829.5717277000658,829.6172511000186,829.617557400139,829.6338184000924,829.6338184000924,829.6338184000924,829.7171555000823,829.9015009999275,,,,,,,,,,,,,,,,,,,,,up,7.683894700137898,None,space,0.25266480003483593,None,P134,001,2025-03-26_13h14.26.470,posner_endo_new1,2024.2.4,60.10388353166325,2025-03-26 13h14.32.500404 +0000,
cube_l.png,0.1,-0.31,valid,42,42,0,up,7.729090200038627,None,space,0.40469609992578626,None,,,,,,,,,0,42,42,42,829.9172285001259,,,,,,,,,,,,,829.9017541999929,829.9172285001259,829.9172285001259,829.9172285001259,837.6602616000455,,,,837.6685449001379,837.6789218001068,837.6789218001068,837.7263502001297,837.7270035000984,837.7427266000304,837.7427266000304,837.7427266000304,837.809297400061,838.161347999936,,,,,,,,,,,,,,,,,,,,,up,7.729090200038627,None,space,0.40469609992578626,None,P134,001,2025-03-26_13h14.26.470,posner_endo_new1,2024.2.4,60.10388353166325,2025-03-26 13h14.32.500404 +0000,
cube_l.png,0.1,10,catch,43,43,0,up,6.430714899906889,None,space,0.335868300171569,None,,,,,,,,,0,43,43,43,838.175712000113,,,,,,,,,,,,,838.1619563000277,838.175712000113,838.175712000113,838.175712000113,844.6213517999277,,,,844.6444170000032,844.6566505001392,844.6566505001392,844.685096600093,844.6854723000433,844.7015591000672,844.7015591000672,844.7015591000672,844.7852547001094,845.0525167000014,,,,,,,,,,,,,,,,,,,,,up,6.430714899906889,None,space,0.335868300171569,None,P134,001,2025-03-26_13h14.26.470,posner_endo_new1,2024.2.4,60.10388353166325,2025-03-26 13h14.32.500404 +0000,
cube_l.png,0.1,0.31,invalid,44,44,0,up,19.098467000061646,None,space,0.43816629983484745,None,,,,,,,,,0,44,44,44,845.0684126000851,,,,,,,,,,,,,845.0528092000168,845.0684126000851,845.0684126000851,845.0684126000851,864.1844643999357,,,,864.2078577999491,864.2195403000806,864.2195403000806,864.248448099941,864.24884809996,864.2650828000624,864.2650828000624,864.2650828000624,864.3481608000584,864.7158711000811,,,,,,,,,,,,,,,,,,,,,up,19.098467000061646,None,space,0.43816629983484745,None,P134,001,2025-03-26_13h14.26.470,posner_endo_new1,2024.2.4,60.10388353166325,2025-03-26 13h14.32.500404 +0000,
cube_l.png,0.1,0.31,invalid,45,45,0,up,2.547361899865791,None,space,0.5019767000339925,None,,,,,,,,,0,45,45,45,864.7311498001218,,,,,,,,,,,,,864.7162033999339,864.7311498001218,864.7311498001218,864.7311498001218,867.2800825000741,,,,867.2924587000161,867.3025500001386,867.3025500001386,867.3455336999614,867.3457961999811,867.3620351001155,867.3620351001155,867.3620351001155,867.4451095000841,867.878716400126,,,,,,,,,,,,,,,,,,,,,up,2.547361899865791,None,space,0.5019767000339925,None,P134,001,2025-03-26_13h14.26.470,posner_endo_new1,2024.2.4,60.10388353166325,2025-03-26 13h14.32.500404 +0000,
cube_r.png,0.1,0.31,valid,46,46,0,up,3.039607600076124,None,space,0.47834919998422265,None,,,,,,,,,0,46,46,46,867.8950334000401,,,,,,,,,,,,,867.8789101999719,867.8950334000401,867.8950334000401,867.8950334000401,870.9426975001115,,,,870.9488361000549,870.9606542000547,870.9606542000547,871.0084812999703,871.0089732999913,871.0249389000237,871.0249389000237,871.0249389000237,871.1081463000737,871.5096960000228,,,,,,,,,,,,,,,,,,,,,up,3.039607600076124,None,space,0.47834919998422265,None,P134,001,2025-03-26_13h14.26.470,posner_endo_new1,2024.2.4,60.10388353166325,2025-03-26 13h14.32.500404 +0000,
cube_l.png,0.1,-0.31,valid,47,47,0,up,3.0585173000581563,None,space,0.41563659999519587,None,,,,,,,,,0,47,47,47,871.5244420000818,,,,,,,,,,,,,871.5101392001379,871.5244420000818,871.5244420000818,871.5244420000818,874.5893254000694,,,,874.5999960000627,874.609451700002,874.609451700002,874.6543704001233,874.6546090999618,874.6713900000323,874.6713900000323,874.6713900000323,874.7546320999973,875.0885981000029,,,,,,,,,,,,,,,,,,,,,up,3.0585173000581563,None,space,0.41563659999519587,None,P134,001,2025-03-26_13h14.26.470,posner_endo_new1,2024.2.4,60.10388353166325,2025-03-26 13h14.32.500404 +0000,
cube_r.png,0.1,-0.31,invalid,48,48,0,up,10.406472499947995,None,space,0.4879083000123501,None,,,,,,,,,0,48,48,48,875.1039368000347,,,,,,,,,,,,,875.0887925999705,875.1039368000347,875.1039368000347,875.1039368000347,885.5131967000198,,,,885.5374209000729,885.5501729999669,885.5501729999669,885.576731499983,885.5771151999943,885.5932349001523,885.5932349001523,885.5932349001523,885.6762946001254,886.0938792000525,,,,,,,,,,,,,,,,,,,,,up,10.406472499947995,None,space,0.4879083000123501,None,P134,001,2025-03-26_13h14.26.470,posner_endo_new1,2024.2.4,60.10388353166325,2025-03-26 13h14.32.500404 +0000,
cube_r.png,0.1,10,catch,49,49,0,up,2.6336904000490904,None,None,,,,,,,,,,,0,49,49,49,886.1091984999366,,,,,,,,,,,,,886.0942055999767,886.1091984999366,886.1091984999366,886.1091984999366,888.7579556000419,,,,888.7666509000119,888.7767990999855,888.7767990999855,888.8237425000407,888.8243096999358,888.8401673000772,888.8401673000772,888.8401673000772,888.9233876999933,891.8383176000789,,,,890.9379809999373,891.8537169001065,891.8537169001065,891.8537169001065,,,,,,,,,,,,,,up,2.6336904000490904,None,None,,,P134,001,2025-03-26_13h14.26.470,posner_endo_new1,2024.2.4,60.10388353166325,2025-03-26 13h14.32.500404 +0000,
cube_l.png,0.1,-0.31,valid,50,50,0,up,3.6170626000966877,None,space,0.49187129992060363,None,,,,,,,,,0,50,50,50,891.8537169001065,,,,,,,,,,,,,891.8387678000145,891.8537169001065,891.8537169001065,891.8537169001065,895.4852883999702,,,,895.5055376000237,895.5169538001064,895.5169538001064,895.5502202999778,895.5507682000753,895.5666445000097,895.5666445000097,895.5666445000097,895.6498223999515,896.0681257999968,,,,,,,,,,,,,,,,,,,,,up,3.6170626000966877,None,space,0.49187129992060363,None,P134,001,2025-03-26_13h14.26.470,posner_endo_new1,2024.2.4,60.10388353166325,2025-03-26 13h14.32.500404 +0000,
cube_l.png,0.1,-0.31,valid,51,51,0,up,2.5958475000225008,None,space,0.4022333000320941,None,,,,,,,,,0,51,51,51,896.0827707001008,,,,,,,,,,,,,896.0686170000117,896.0827707001008,896.0827707001008,896.0827707001008,898.6822939000558,,,,898.701527700061,898.7130770999938,898.7130770999938,898.746555400081,898.7468580999412,898.7630966999568,898.7630966999568,898.7630966999568,898.8467592999805,899.1807008001488,,,,,,,,,,,,,,,,,,,,,up,2.5958475000225008,None,space,0.4022333000320941,None,P134,001,2025-03-26_13h14.26.470,posner_endo_new1,2024.2.4,60.10388353166325,2025-03-26 13h14.32.500404 +0000,
cube_r.png,0.1,-0.31,invalid,52,52,0,up,3.082590200006962,None,space,0.5200189999304712,None,,,,,,,,,0,52,52,52,899.1960952000227,,,,,,,,,,,,,899.1809527999721,899.1960952000227,899.1960952000227,899.1960952000227,902.2940259999596,,,,902.3040968999267,902.3143025001045,902.3143025001045,902.3594800999854,902.3597866999917,902.3762266000267,902.3762266000267,902.3762266000267,902.4590285001323,902.9099542000331,,,,,,,,,,,,,,,,,,,,,up,3.082590200006962,None,space,0.5200189999304712,None,P134,001,2025-03-26_13h14.26.470,posner_endo_new1,2024.2.4,60.10388353166325,2025-03-26 13h14.32.500404 +0000,
cube_l.png,0.1,-0.31,valid,53,53,0,up,2.489389599999413,None,space,0.6225274000316858,None,,,,,,,,,0,53,53,53,902.9256726000458,,,,,,,,,,,,,902.9101295999717,902.9256726000458,902.9256726000458,902.9256726000458,905.4258141999599,,,,905.4502095000353,905.4622621000744,905.4622621000744,905.4896643999964,905.4900680000428,905.5060783000663,905.5060783000663,905.5060783000663,905.5894480999559,906.1400713000912,,,,,,,,,,,,,,,,,,,,,up,2.489389599999413,None,space,0.6225274000316858,None,P134,001,2025-03-26_13h14.26.470,posner_endo_new1,2024.2.4,60.10388353166325,2025-03-26 13h14.32.500404 +0000,
cube_r.png,0.1,10,catch,54,54,0,up,2.203043899964541,None,None,,,,,,,,,,,0,54,54,54,906.1554684001021,,,,,,,,,,,,,906.1404117001221,906.1554684001021,906.1554684001021,906.1554684001021,908.3712580001447,,,,908.3815316001419,908.3917620999273,908.3917620999273,908.4369922999758,908.4372932999395,908.4535298999399,908.4535298999399,908.4535298999399,908.536496900022,911.4510427000932,,,,910.5513111001346,911.4672024000902,911.4672024000902,911.4672024000902,,,,,,,,,,,,,,up,2.203043899964541,None,None,,,P134,001,2025-03-26_13h14.26.470,posner_endo_new1,2024.2.4,60.10388353166325,2025-03-26 13h14.32.500404 +0000,
cube_l.png,0.1,0.31,invalid,55,55,0,up,0.35492069995962083,None,space,0.4846496998798102,None,,,,,,,,,0,55,55,55,911.4672024000902,,,,,,,,,,,,,911.4512853999622,911.4672024000902,911.4672024000902,911.4672024000902,911.8340068999678,,,,911.8442305999342,911.8543188001495,911.8543188001495,911.9002074999735,911.9005146001,911.9162268999498,911.9162268999498,911.9162268999498,912.0000209000427,912.4171772999689,,,,,,,,,,,,,,,,,,,,,up,0.35492069995962083,None,space,0.4846496998798102,None,P134,001,2025-03-26_13h14.26.470,posner_endo_new1,2024.2.4,60.10388353166325,2025-03-26 13h14.32.500404 +0000,
cube_l.png,0.1,-0.31,valid,56,56,0,up,2.246243700152263,None,space,0.5700666999910027,None,,,,,,,,,0,56,56,56,912.4328042999841,,,,,,,,,,,,,912.4174273000099,912.4328042999841,912.4328042999841,912.4328042999841,914.681318399962,,,,914.6928227001335,914.7029143001419,914.7029143001419,914.7472234999295,914.747525600018,914.7636695001274,914.7636695001274,914.7636695001274,914.8469237000681,915.3473463000264,,,,,,,,,,,,,,,,,,,,,up,2.246243700152263,None,space,0.5700666999910027,None,P134,001,2025-03-26_13h14.26.470,posner_endo_new1,2024.2.4,60.10388353166325,2025-03-26 13h14.32.500404 +0000,
cube_r.png,0.1,0.31,valid,57,57,0,up,2.500024000182748,None,space,0.4664837000891566,None,,,,,,,,,0,57,57,57,915.3629988001194,,,,,,,,,,,,,915.3475965000689,915.3629988001194,915.3629988001194,915.3629988001194,917.8778487001546,,,,917.8879990000278,917.8981733000837,917.8981733000837,917.9435300999321,917.9438348000403,917.9602403999306,917.9602403999306,917.9602403999306,918.0437962999567,918.4277727999724,,,,,,,,,,,,,,,,,,,,,up,2.500024000182748,None,space,0.4664837000891566,None,P134,001,2025-03-26_13h14.26.470,posner_endo_new1,2024.2.4,60.10388353166325,2025-03-26 13h14.32.500404 +0000,
cube_r.png,0.1,-0.31,invalid,58,58,0,up,2.739704300183803,None,space,0.558796799974516,None,,,,,,,,,0,58,58,58,918.4429709999822,,,,,,,,,,,,,918.4280216000043,918.4429709999822,918.4429709999822,918.4429709999822,921.1914625000209,,,,921.2014049000572,921.2115983001422,921.2115983001422,921.2571912000421,921.2574911999982,921.2736858001444,921.2736858001444,921.2736858001444,921.3566273001488,921.8409059999976,,,,,,,,,,,,,,,,,,,,,up,2.739704300183803,None,space,0.558796799974516,None,P134,001,2025-03-26_13h14.26.470,posner_endo_new1,2024.2.4,60.10388353166325,2025-03-26 13h14.32.500404 +0000,
cube_l.png,0.1,0.31,invalid,59,59,0,up,5.18256750004366,None,space,0.48519979999400675,None,,,,,,,,,0,59,59,59,921.856471200008,,,,,,,,,,,,,921.8411568000447,921.856471200008,921.856471200008,921.856471200008,927.0523268000688,,,,927.0627342001535,927.0729108999949,927.0729108999949,927.1178902999964,927.1182079999708,927.1340352999978,927.1340352999978,927.1340352999978,927.2174152000807,927.6347356000915,,,,,,,,,,,,,,,,,,,,,up,5.18256750004366,None,space,0.48519979999400675,None,P134,001,2025-03-26_13h14.26.470,posner_endo_new1,2024.2.4,60.10388353166325,2025-03-26 13h14.32.500404 +0000,
