cue_img,cue_soa,target_x,trial,thisN,thisTrialN,thisRepN,key_control2.keys,key_control2.rt,key_control2.duration,key_resp.keys,key_resp.rt,key_resp.duration,practice.thisRepN,practice.thisTrialN,practice.thisN,practice.thisIndex,block1.thisRepN,block1.thisTrialN,block1.thisN,block1.thisIndex,block2.thisRepN,block2.thisTrialN,block2.thisN,block2.thisIndex,thisRow.t,notes,instructions.started,instructions_txt.started,key_control.started,instructions.stopped,key_control.keys,key_control.rt,key_control.duration,ready.started,ready_txt.started,ready_txt.stopped,ready.stopped,fix.started,fixation.started,key_control2.started,fixation_cross.started,fix.stopped,practice.key_control2.keys,practice.key_control2.rt,practice.key_control2.duration,cue.started,cube.started,fixation_cross_cue.started,cue.stopped,target.started,fixation_target.started,fixation_cross_target.started,key_resp.started,star.started,target.stopped,practice.key_resp.keys,practice.key_resp.rt,practice.key_resp.duration,block1.key_control2.keys,block1.key_control2.rt,block1.key_control2.duration,star.stopped,fixation_target.stopped,fixation_cross_target.stopped,key_resp.stopped,block1.key_resp.keys,block1.key_resp.rt,block1.key_resp.duration,break_2.started,text.started,key_control3.started,text.stopped,break_2.stopped,key_control3.keys,key_control3.rt,key_control3.duration,block2.key_control2.keys,block2.key_control2.rt,block2.key_control2.duration,block2.key_resp.keys,block2.key_resp.rt,block2.key_resp.duration,participant,session,date,expName,psychopyVersion,frameRate,expStart,
,,,,,,,,,,,,,,,,,,,,,,,,,,,0.007588299922645092,0.02997249993495643,0.02997249993495643,150.75847220001742,up,150.7053822001908,None,,,,,,,,,,,,,,,,,,,,,,,,,,,,,,,,,,,,,,,,,,,,,,,,,,P135,001,2025-03-26_15h16.14.121,posner_endo_new1,2024.2.4,60.009421536949056,2025-03-26 15h16.20.970922 +0000,
,,,,,,,,,,,,,,,,,,,,,,,,,,,,,,,,,,150.7586495000869,150.7710977999959,153.77476860000752,153.7426157000009,,,,,,,,,,,,,,,,,,,,,,,,,,,,,,,,,,,,,,,,,,,,,,P135,001,2025-03-26_15h16.14.121,posner_endo_new1,2024.2.4,60.009421536949056,2025-03-26 15h16.20.970922 +0000,
cube_r.png,0.1,-0.31,invalid,0,0,0,up,12.168366900179535,None,space,0.6631771000102162,None,0,0,0,9,,,,,,,,,153.77476860000752,,,,,,,,,,,,,153.76037320005707,153.77476860000752,153.77476860000752,153.77476860000752,165.94890909991227,up,12.168366900179535,None,165.99016129993834,166.00092200003564,166.00092200003564,166.0011269999668,166.00142370001413,166.01373789994977,166.01373789994977,166.01373789994977,166.1125705000013,166.67995949997567,space,0.6631771000102162,None,,,,,,,,,,,,,,,,,,,,,,,,,P135,001,2025-03-26_15h16.14.121,posner_endo_new1,2024.2.4,60.009421536949056,2025-03-26 15h16.20.970922 +0000,
cube_l.png,0.1,0.31,invalid,1,1,0,up,1.968216200126335,None,space,0.43847050005570054,None,0,1,1,1,,,,,,,,,166.6950851001311,,,,,,,,,,,,,166.6802006000653,166.6950851001311,166.6950851001311,166.6950851001311,168.6773663999047,up,1.968216200126335,None,168.68849060009234,168.69861089996994,168.69861089996994,168.74314079992473,168.7434457000345,168.75966820004396,168.75966820004396,168.75966820004396,168.82635549991392,169.21044980012812,space,0.43847050005570054,None,,,,,,,,,,,,,,,,,,,,,,,,,P135,001,2025-03-26_15h16.14.121,posner_endo_new1,2024.2.4,60.009421536949056,2025-03-26 15h16.20.970922 +0000,
cube_r.png,0.1,-0.31,invalid,2,2,0,up,1.9575239000841975,None,space,0.3912529000081122,None,0,2,2,6,,,,,,,,,169.22585809999146,,,,,,,,,,,,,169.21069149998948,169.22585809999146,169.22585809999146,169.22585809999146,171.1936679999344,up,1.9575239000841975,None,171.2155100000091,171.2277631999459,171.2277631999459,171.25735959992744,171.2577939000912,171.27378099993803,171.27378099993803,171.27378099993803,171.3570290999487,171.67494100006297,space,0.3912529000081122,None,,,,,,,,,,,,,,,,,,,,,,,,,P135,001,2025-03-26_15h16.14.121,posner_endo_new1,2024.2.4,60.009421536949056,2025-03-26 15h16.20.970922 +0000,
cube_r.png,0.1,-0.31,invalid,3,3,0,up,5.612643100088462,None,space,0.44029409997165203,None,0,3,3,2,,,,,,,,,171.69007600005716,,,,,,,,,,,,,171.67518749996088,171.69007600005716,171.69007600005716,171.69007600005716,177.31907250010408,up,5.612643100088462,None,177.32902820012532,177.34123850008473,177.34123850008473,177.3850316000171,177.38568460009992,177.40141339995898,177.40141339995898,177.40141339995898,177.48469930002466,177.85324560012668,space,0.44029409997165203,None,,,,,,,,,,,,,,,,,,,,,,,,,P135,001,2025-03-26_15h16.14.121,posner_endo_new1,2024.2.4,60.009421536949056,2025-03-26 15h16.20.970922 +0000,
cube_l.png,0.1,0.31,invalid,4,4,0,up,7.994803800014779,None,space,0.5556709999218583,None,0,4,4,5,,,,,,,,,177.8676853000652,,,,,,,,,,,,,177.85381260002032,177.8676853000652,177.8676853000652,177.8676853000652,185.8784761999268,up,7.994803800014779,None,185.9004544999916,185.91268140007742,185.91268140007742,185.9420694001019,185.9424016000703,185.958598600002,185.958598600002,185.958598600002,186.0423403000459,186.52628060011193,space,0.5556709999218583,None,,,,,,,,,,,,,,,,,,,,,,,,,P135,001,2025-03-26_15h16.14.121,posner_endo_new1,2024.2.4,60.009421536949056,2025-03-26 15h16.20.970922 +0000,
cube_l.png,0.1,-0.31,valid,5,5,0,up,13.769190799910575,None,space,0.4290679001715034,None,0,5,5,0,,,,,,,,,186.5414132999722,,,,,,,,,,,,,186.5265440000221,186.5414132999722,186.5414132999722,186.5414132999722,200.3137882000301,up,13.769190799910575,None,200.33653370011598,200.3468295999337,200.3468295999337,200.3773410001304,200.37767300009727,200.39412780012935,200.39412780012935,200.39412780012935,200.47727699996904,200.82810709998012,space,0.4290679001715034,None,,,,,,,,,,,,,,,,,,,,,,,,,P135,001,2025-03-26_15h16.14.121,posner_endo_new1,2024.2.4,60.009421536949056,2025-03-26 15h16.20.970922 +0000,
cube_r.png,0.1,0.31,valid,6,6,0,up,3.0026654999237508,None,space,0.39272739994339645,None,0,6,6,7,,,,,,,,,200.84381609992124,,,,,,,,,,,,,200.82837540004402,200.84381609992124,200.84381609992124,200.84381609992124,203.85995470010675,up,3.0026654999237508,None,203.8808744000271,203.89163390011527,203.89163390011527,203.92404760001227,203.92448160005733,203.94034019997343,203.94034019997343,203.94034019997343,204.02362710004672,204.34159289998934,space,0.39272739994339645,None,,,,,,,,,,,,,,,,,,,,,,,,,P135,001,2025-03-26_15h16.14.121,posner_endo_new1,2024.2.4,60.009421536949056,2025-03-26 15h16.20.970922 +0000,
cube_l.png,0.1,-0.31,valid,7,7,0,up,2.8582812999375165,None,space,0.4212680999189615,None,0,7,7,4,,,,,,,,,204.3566282999236,,,,,,,,,,,,,204.34195329993963,204.3566282999236,204.3566282999236,204.3566282999236,207.22170919994824,up,2.8582812999375165,None,207.2308531999588,207.24111489998177,207.24111489998177,207.28736170008779,207.28766179992817,207.30357789993286,207.30357789993286,207.30357789993286,207.38722350005992,207.73793420009315,space,0.4212680999189615,None,,,,,,,,,,,,,,,,,,,,,,,,,P135,001,2025-03-26_15h16.14.121,posner_endo_new1,2024.2.4,60.009421536949056,2025-03-26 15h16.20.970922 +0000,
cube_r.png,0.1,10,catch,8,8,0,up,2.4452072998974472,None,space,0.3656875998713076,None,0,8,8,3,,,,,,,,,207.7531024001073,,,,,,,,,,,,,207.73818240012042,207.7531024001073,207.7531024001073,207.7531024001073,210.20194140006788,up,2.4452072998974472,None,210.2083554000128,210.2198288999498,210.2198288999498,210.2675767999608,210.2677841000259,210.28408579993993,210.28408579993993,210.28408579993993,210.35057400004007,210.65230940002948,space,0.3656875998713076,None,,,,,,,,,,,,,,,,,,,,,,,,,P135,001,2025-03-26_15h16.14.121,posner_endo_new1,2024.2.4,60.009421536949056,2025-03-26 15h16.20.970922 +0000,
cube_l.png,0.1,-0.31,valid,9,9,0,up,4.98839129996486,None,space,0.36834709998220205,None,0,9,9,8,,,,,,,,,210.66701210010797,,,,,,,,,,,,,210.65274049993604,210.66701210010797,210.66701210010797,210.66701210010797,215.6633337000385,up,4.98839129996486,None,215.6723839000333,215.68188609997742,215.68188609997742,215.72849110001698,215.72872849996202,215.7448366000317,215.7448366000317,215.7448366000317,215.82828160002828,216.12895280006342,space,0.36834709998220205,None,,,,,,,,,,,,,,,,,,,,,,,,,P135,001,2025-03-26_15h16.14.121,posner_endo_new1,2024.2.4,60.009421536949056,2025-03-26 15h16.20.970922 +0000,
cube_r.png,0.1,0.31,valid,10,10,0,up,3.198306200094521,None,space,0.37603799998760223,None,0,10,10,10,,,,,,,,,216.14484520000406,,,,,,,,,,,,,216.1291312999092,216.14484520000406,216.14484520000406,216.14484520000406,219.3604838999454,up,3.198306200094521,None,219.38333109999076,219.39541180012748,219.39541180012748,219.42443079990335,219.4247310999781,219.440947300056,219.440947300056,219.440947300056,219.52492740005255,219.82686390005983,space,0.37603799998760223,None,,,,,,,,,,,,,,,,,,,,,,,,,P135,001,2025-03-26_15h16.14.121,posner_endo_new1,2024.2.4,60.009421536949056,2025-03-26 15h16.20.970922 +0000,
,,,,,,,,,,,,,,,,,,,,,,,,,,,,,,,,,,219.82724829996005,219.84120679995976,222.8771464000456,222.82277660002,,,,,,,,,,,,,,,,,,,,,,,,,,,,,,,,,,,,,,,,,,,,,,P135,001,2025-03-26_15h16.14.121,posner_endo_new1,2024.2.4,60.009421536949056,2025-03-26 15h16.20.970922 +0000,
cube_l.png,0.1,10,catch,0,0,0,up,9.865760099841282,None,None,,,,,,,0,0,0,0,,,,,222.8771464000456,,,,,,,,,,,,,222.86850229999982,222.8771464000456,222.8771464000456,222.8771464000456,232.74528790009208,,,,232.75487349997275,232.76510769990273,232.76510769990273,232.81121909990907,232.81152480002493,232.82778339996003,232.82778339996003,232.82778339996003,232.89395470009185,235.8250283000525,,,,up,9.865760099841282,None,234.9089172000531,235.84148830012418,235.84148830012418,235.84148830012418,None,,,,,,,,,,,,,,,,,P135,001,2025-03-26_15h16.14.121,posner_endo_new1,2024.2.4,60.009421536949056,2025-03-26 15h16.20.970922 +0000,
cube_l.png,0.1,10,catch,1,1,0,up,0.30898549989797175,None,None,,,,,,,0,1,1,1,,,,,235.84148830012418,,,,,,,,,,,,,235.82526109996252,235.84148830012418,235.84148830012418,235.84148830012418,236.15855609998107,,,,236.168031899957,236.1781742000021,236.1781742000021,236.22446079994552,236.22476170002483,236.2407269999385,236.2407269999385,236.2407269999385,236.32424520002678,239.2381822001189,,,,up,0.30898549989797175,None,238.3388738001231,239.25460390001535,239.25460390001535,239.25460390001535,None,,,,,,,,,,,,,,,,,P135,001,2025-03-26_15h16.14.121,posner_endo_new1,2024.2.4,60.009421536949056,2025-03-26 15h16.20.970922 +0000,
cube_l.png,0.1,0.31,invalid,2,2,0,up,0.31988470000214875,None,space,0.40441840002313256,None,,,,,0,2,2,2,,,,,239.25460390001535,,,,,,,,,,,,,239.2384150000289,239.25460390001535,239.25460390001535,239.25460390001535,239.58856979990378,,,,239.5980251999572,239.60810890002176,239.60810890002176,239.65428179991432,239.65458790003322,239.67084900010377,239.67084900010377,239.67084900010377,239.75398660008796,240.08807009994052,,,,up,0.31988470000214875,None,,,,,space,0.40441840002313256,None,,,,,,,,,,,,,,,P135,001,2025-03-26_15h16.14.121,posner_endo_new1,2024.2.4,60.009421536949056,2025-03-26 15h16.20.970922 +0000,
cube_l.png,0.1,0.31,invalid,3,3,0,up,3.59987340006046,None,space,0.5158885999117047,None,,,,,0,3,3,3,,,,,240.10334879998118,,,,,,,,,,,,,240.0883553000167,240.10334879998118,240.10334879998118,240.10334879998118,243.71724739996716,,,,243.72653000010177,243.7367825000547,243.7367825000547,243.78377320012078,243.78445730009116,243.8001540999394,243.8001540999394,243.8001540999394,243.8666670001112,244.31899520009756,,,,up,3.59987340006046,None,,,,,space,0.5158885999117047,None,,,,,,,,,,,,,,,P135,001,2025-03-26_15h16.14.121,posner_endo_new1,2024.2.4,60.009421536949056,2025-03-26 15h16.20.970922 +0000,
cube_l.png,0.1,-0.31,valid,4,4,0,up,2.2256693998351693,None,space,0.41894140001386404,None,,,,,0,4,4,4,,,,,244.33308649994433,,,,,,,,,,,,,244.3195917000994,244.33308649994433,244.33308649994433,244.33308649994433,246.56656510010362,,,,246.5889606999699,246.60115669993684,246.60115669993684,246.6300757001154,246.63045960012823,246.64657770004123,246.64657770004123,246.64657770004123,246.72977759991772,247.08087290008552,,,,up,2.2256693998351693,None,,,,,space,0.41894140001386404,None,,,,,,,,,,,,,,,P135,001,2025-03-26_15h16.14.121,posner_endo_new1,2024.2.4,60.009421536949056,2025-03-26 15h16.20.970922 +0000,
cube_r.png,0.1,-0.31,invalid,5,5,0,up,2.4870703001506627,None,space,0.4248147001489997,None,,,,,0,5,5,5,,,,,247.09607789991423,,,,,,,,,,,,,247.0812071999535,247.09607789991423,247.09607789991423,247.09607789991423,249.59480570000596,,,,249.6040626000613,249.61416290001944,249.61416290001944,249.66058870009147,249.66112589999102,249.6772225999739,249.6772225999739,249.6772225999739,249.76040369994007,250.11187979998067,,,,up,2.4870703001506627,None,,,,,space,0.4248147001489997,None,,,,,,,,,,,,,,,P135,001,2025-03-26_15h16.14.121,posner_endo_new1,2024.2.4,60.009421536949056,2025-03-26 15h16.20.970922 +0000,
cube_r.png,0.1,0.31,valid,6,6,0,up,2.5758273999672383,None,space,0.957486700033769,None,,,,,0,6,6,6,,,,,250.12677090009674,,,,,,,,,,,,,250.1123681999743,250.12677090009674,250.12677090009674,250.12677090009674,252.7093474001158,,,,252.72740190010518,252.73882990004495,252.73882990004495,252.7742393000517,252.77478249999695,252.79063750011846,252.79063750011846,252.79063750011846,252.87394990003668,253.758164400002,,,,up,2.5758273999672383,None,,,,,space,0.957486700033769,None,,,,,,,,,,,,,,,P135,001,2025-03-26_15h16.14.121,posner_endo_new1,2024.2.4,60.009421536949056,2025-03-26 15h16.20.970922 +0000,
cube_r.png,0.1,-0.31,invalid,7,7,0,up,2.17748950002715,None,space,0.5560735000763088,None,,,,,0,7,7,7,,,,,253.77295530005358,,,,,,,,,,,,,253.7586366001051,253.77295530005358,253.77295530005358,253.77295530005358,255.95615469990298,,,,255.97432060004212,255.98569829994813,255.98569829994813,256.02073600003496,256.02127910009585,256.0372715999838,256.0372715999838,256.0372715999838,256.1205422000494,256.6052262999583,,,,up,2.17748950002715,None,,,,,space,0.5560735000763088,None,,,,,,,,,,,,,,,P135,001,2025-03-26_15h16.14.121,posner_endo_new1,2024.2.4,60.009421536949056,2025-03-26 15h16.20.970922 +0000,
cube_l.png,0.1,-0.31,valid,8,8,0,up,1.3628075998276472,None,space,0.35614899988286197,None,,,,,0,8,8,8,,,,,256.6200957999099,,,,,,,,,,,,,256.60569839994423,256.6200957999099,256.6200957999099,256.6200957999099,257.98732460010797,,,,258.00545609998517,258.01684599998407,258.01684599998407,258.0521794001106,258.0527290001046,258.06864199996926,258.06864199996926,258.06864199996926,258.15183570003137,258.4366971999407,,,,up,1.3628075998276472,None,,,,,space,0.35614899988286197,None,,,,,,,,,,,,,,,P135,001,2025-03-26_15h16.14.121,posner_endo_new1,2024.2.4,60.009421536949056,2025-03-26 15h16.20.970922 +0000,
cube_r.png,0.1,-0.31,invalid,9,9,0,up,2.8034035998862237,None,space,0.47709820000454783,None,,,,,0,9,9,9,,,,,258.4515756999608,,,,,,,,,,,,,258.4371696000453,258.4515756999608,258.4515756999608,258.4515756999608,261.26711000013165,,,,261.28512399992906,261.2966114000883,261.2966114000883,261.3316937000491,261.3320001999382,261.3485717999283,261.3485717999283,261.3485717999283,261.43184490012936,261.8324744999409,,,,up,2.8034035998862237,None,,,,,space,0.47709820000454783,None,,,,,,,,,,,,,,,P135,001,2025-03-26_15h16.14.121,posner_endo_new1,2024.2.4,60.009421536949056,2025-03-26 15h16.20.970922 +0000,
cube_l.png,0.1,0.31,invalid,10,10,0,up,1.6793676000088453,None,space,0.3953257999382913,None,,,,,0,10,10,10,,,,,261.84770109993406,,,,,,,,,,,,,261.832731799921,261.84770109993406,261.84770109993406,261.84770109993406,263.53040049993433,,,,263.5398444000166,263.550043300027,263.550043300027,263.59619670012034,263.5964963999577,263.61293860012665,263.61293860012665,263.61293860012665,263.6791932999622,264.01433739997447,,,,up,1.6793676000088453,None,,,,,space,0.3953257999382913,None,,,,,,,,,,,,,,,P135,001,2025-03-26_15h16.14.121,posner_endo_new1,2024.2.4,60.009421536949056,2025-03-26 15h16.20.970922 +0000,
cube_r.png,0.1,-0.31,invalid,11,11,0,up,2.7534126001410186,None,space,0.5049412997905165,None,,,,,0,11,11,11,,,,,264.0291327999439,,,,,,,,,,,,,264.0148213999346,264.0291327999439,264.0291327999439,264.0291327999439,266.79478130000643,,,,266.8127155001275,266.8244692001026,266.8244692001026,266.85973530006595,266.86007699999027,266.8763552000746,266.8763552000746,266.8763552000746,266.95956770004705,267.39364530006424,,,,up,2.7534126001410186,None,,,,,space,0.5049412997905165,None,,,,,,,,,,,,,,,P135,001,2025-03-26_15h16.14.121,posner_endo_new1,2024.2.4,60.009421536949056,2025-03-26 15h16.20.970922 +0000,
cube_r.png,0.1,0.31,valid,12,12,0,up,1.7908424001652747,None,space,0.4470848999917507,None,,,,,0,12,12,12,,,,,267.4085975000635,,,,,,,,,,,,,267.3939374999609,267.4085975000635,267.4085975000635,267.4085975000635,269.20859359996393,,,,269.2197863000911,269.2300011999905,269.2300011999905,269.27410949999467,269.27445619995706,269.2901375000365,269.2901375000365,269.2901375000365,269.3734615999274,269.7411011001095,,,,up,1.7908424001652747,None,,,,,space,0.4470848999917507,None,,,,,,,,,,,,,,,P135,001,2025-03-26_15h16.14.121,posner_endo_new1,2024.2.4,60.009421536949056,2025-03-26 15h16.20.970922 +0000,
cube_l.png,0.1,10,catch,13,13,0,up,1.4019474000670016,None,None,,,,,,,0,13,13,13,,,,,269.75671739992686,,,,,,,,,,,,,269.7413920001127,269.75671739992686,269.75671739992686,269.75671739992686,271.17449610005133,,,,271.1965274999384,271.2073886001017,271.2073886001017,271.2383173999842,271.2386640999466,271.25514409993775,271.25514409993775,271.25514409993775,271.3381000999361,274.2536269999109,,,,up,1.4019474000670016,None,273.3531492999755,274.26895630010404,274.26895630010404,274.26895630010404,None,,,,,,,,,,,,,,,,,P135,001,2025-03-26_15h16.14.121,posner_endo_new1,2024.2.4,60.009421536949056,2025-03-26 15h16.20.970922 +0000,
cube_r.png,0.1,-0.31,invalid,14,14,0,up,2.402386999921873,None,space,0.4451421000994742,None,,,,,0,14,14,14,,,,,274.26895630010404,,,,,,,,,,,,,274.2541849000845,274.26895630010404,274.26895630010404,274.26895630010404,276.68537140008993,,,,276.7074645999819,276.7198596999515,276.7198596999515,276.7492988000158,276.7496970000211,276.7658808999695,276.7658808999695,276.7658808999695,276.8489703000523,277.2162180999294,,,,up,2.402386999921873,None,,,,,space,0.4451421000994742,None,,,,,,,,,,,,,,,P135,001,2025-03-26_15h16.14.121,posner_endo_new1,2024.2.4,60.009421536949056,2025-03-26 15h16.20.970922 +0000,
cube_l.png,0.1,-0.31,valid,15,15,0,up,2.7111066000070423,None,space,0.5287687000818551,None,,,,,0,15,15,15,,,,,277.2322293999605,,,,,,,,,,,,,277.21642810013145,277.2322293999605,277.2322293999605,277.2322293999605,279.94731700001284,,,,279.9549243999645,279.96544179995544,279.96544179995544,280.0129329999909,280.01343820011243,280.0293163000606,280.0293163000606,280.0293163000606,280.1125978000928,280.5639977999963,,,,up,2.7111066000070423,None,,,,,space,0.5287687000818551,None,,,,,,,,,,,,,,,P135,001,2025-03-26_15h16.14.121,posner_endo_new1,2024.2.4,60.009421536949056,2025-03-26 15h16.20.970922 +0000,
cube_r.png,0.1,10,catch,16,16,0,up,2.2917907000519335,None,None,,,,,,,0,16,16,16,,,,,280.5788283001166,,,,,,,,,,,,,280.56443049991503,280.5788283001166,280.5788283001166,280.5788283001166,282.8778526999522,,,,282.8891994000878,282.8994905001018,282.8994905001018,282.9433331999462,282.94367830012925,282.9595389999449,282.9595389999449,282.9595389999449,283.04268499999307,285.9575050000567,,,,up,2.2917907000519335,None,285.05733960005455,285.9730740999803,285.9730740999803,285.9730740999803,None,,,,,,,,,,,,,,,,,P135,001,2025-03-26_15h16.14.121,posner_endo_new1,2024.2.4,60.009421536949056,2025-03-26 15h16.20.970922 +0000,
cube_r.png,0.1,10,catch,17,17,0,up,0.9620147000532597,None,None,,,,,,,0,17,17,17,,,,,285.9730740999803,,,,,,,,,,,,,285.9577754000202,285.9730740999803,285.9730740999803,285.9730740999803,286.9398902999237,,,,286.9503194000572,286.95995500008576,286.95995500008576,287.00576939992607,287.0060046999715,287.0224025999196,287.0224025999196,287.0224025999196,287.0884511000477,290.0212815999985,,,,up,0.9620147000532597,None,289.1037558999378,290.03608440002427,290.03608440002427,290.03608440002427,None,,,,,,,,,,,,,,,,,P135,001,2025-03-26_15h16.14.121,posner_endo_new1,2024.2.4,60.009421536949056,2025-03-26 15h16.20.970922 +0000,
cube_l.png,0.1,0.31,invalid,18,18,0,up,2.3312232000753284,None,space,0.39692299999296665,None,,,,,0,18,18,18,,,,,290.03608440002427,,,,,,,,,,,,,290.0218174001202,290.03608440002427,290.03608440002427,290.03608440002427,292.369642799953,,,,292.3922725999728,292.40445380005985,292.40445380005985,292.4333212999627,292.43375269998796,292.44997130008414,292.44997130008414,292.44997130008414,292.53344390005805,292.8506485999096,,,,up,2.3312232000753284,None,,,,,space,0.39692299999296665,None,,,,,,,,,,,,,,,P135,001,2025-03-26_15h16.14.121,posner_endo_new1,2024.2.4,60.009421536949056,2025-03-26 15h16.20.970922 +0000,
cube_l.png,0.1,10,catch,19,19,0,up,1.6930202001240104,None,None,,,,,,,0,19,19,19,,,,,292.8661418999545,,,,,,,,,,,,,292.8509043001104,292.8661418999545,292.8661418999545,292.8661418999545,294.56523360009305,,,,294.57445570011623,294.5847748001106,294.5847748001106,294.63171459990554,294.63238389999606,294.64808989991434,294.64808989991434,294.64808989991434,294.7146097999066,297.64634580002166,,,,up,1.6930202001240104,None,296.7292939000763,297.66166760004126,297.66166760004126,297.66166760004126,None,,,,,,,,,,,,,,,,,P135,001,2025-03-26_15h16.14.121,posner_endo_new1,2024.2.4,60.009421536949056,2025-03-26 15h16.20.970922 +0000,
cube_l.png,0.1,0.31,invalid,20,20,0,up,1.71355350012891,None,space,0.40573330014012754,None,,,,,0,20,20,20,,,,,297.66166760004126,,,,,,,,,,,,,297.6468970000278,297.66166760004126,297.66166760004126,297.66166760004126,299.3791446001269,,,,299.400485600112,299.41099509992637,299.41099509992637,299.44281850010157,299.4432588000782,299.45929010002874,299.45929010002874,299.45929010002874,299.542562100105,299.87698920001276,,,,up,1.71355350012891,None,,,,,space,0.40573330014012754,None,,,,,,,,,,,,,,,P135,001,2025-03-26_15h16.14.121,posner_endo_new1,2024.2.4,60.009421536949056,2025-03-26 15h16.20.970922 +0000,
cube_l.png,0.1,-0.31,valid,21,21,0,up,4.395147799979895,None,space,0.6232952999416739,None,,,,,0,21,21,21,,,,,299.89210720011033,,,,,,,,,,,,,299.87724870000966,299.89210720011033,299.89210720011033,299.89210720011033,304.28919250005856,,,,304.2985602999106,304.30881590000354,304.30881590000354,304.35442700004205,304.35472710011527,304.37092210003175,304.37092210003175,304.37092210003175,304.45418670005165,305.0049934000708,,,,up,4.395147799979895,None,,,,,space,0.6232952999416739,None,,,,,,,,,,,,,,,P135,001,2025-03-26_15h16.14.121,posner_endo_new1,2024.2.4,60.009421536949056,2025-03-26 15h16.20.970922 +0000,
cube_r.png,0.1,0.31,valid,22,22,0,up,3.626745699904859,None,space,0.5107325001154095,None,,,,,0,22,22,22,,,,,305.0202784999274,,,,,,,,,,,,,305.00525150005706,305.0202784999274,305.0202784999274,305.0202784999274,308.6509845999535,,,,308.660280500073,308.6704327000771,308.6704327000771,308.7170734000392,308.71737450012006,308.7330296,308.7330296,308.7330296,308.81665010005236,309.25048859999515,,,,up,3.626745699904859,None,,,,,space,0.5107325001154095,None,,,,,,,,,,,,,,,P135,001,2025-03-26_15h16.14.121,posner_endo_new1,2024.2.4,60.009421536949056,2025-03-26 15h16.20.970922 +0000,
cube_r.png,0.1,-0.31,invalid,23,23,0,up,4.613061999902129,None,space,0.5017367999535054,None,,,,,0,23,23,23,,,,,309.26588979992084,,,,,,,,,,,,,309.25074889999814,309.26588979992084,309.26588979992084,309.26588979992084,313.8955218999181,,,,313.9047373000067,313.91469860007055,313.91469860007055,313.96127320011146,313.9615724000614,313.97792250011116,313.97792250011116,313.97792250011116,314.060950800078,314.4948521000333,,,,up,4.613061999902129,None,,,,,space,0.5017367999535054,None,,,,,,,,,,,,,,,P135,001,2025-03-26_15h16.14.121,posner_endo_new1,2024.2.4,60.009421536949056,2025-03-26 15h16.20.970922 +0000,
cube_r.png,0.1,0.31,valid,24,24,0,up,1.8094701999798417,None,space,0.6419153001625091,None,,,,,0,24,24,24,,,,,314.5105481999926,,,,,,,,,,,,,314.49510399997234,314.5105481999926,314.5105481999926,314.5105481999926,316.3265621000901,,,,316.33581710001454,316.3460568001028,316.3460568001028,316.39249780005775,316.3927960000001,316.4087934999261,316.4087934999261,316.4087934999261,316.49209240009077,317.05885130004026,,,,up,1.8094701999798417,None,,,,,space,0.6419153001625091,None,,,,,,,,,,,,,,,P135,001,2025-03-26_15h16.14.121,posner_endo_new1,2024.2.4,60.009421536949056,2025-03-26 15h16.20.970922 +0000,
cube_r.png,0.1,-0.31,invalid,25,25,0,up,2.6841191998682916,None,space,0.5427934001199901,None,,,,,0,25,25,25,,,,,317.0745802000165,,,,,,,,,,,,,317.05910570011474,317.0745802000165,317.0745802000165,317.0745802000165,319.77272380003706,,,,319.78189960005693,319.7922161000315,319.7922161000315,319.8392672999762,319.8399666999467,319.85562180005945,319.85562180005945,319.85562180005945,319.9222264001146,320.4073854999151,,,,up,2.6841191998682916,None,,,,,space,0.5427934001199901,None,,,,,,,,,,,,,,,P135,001,2025-03-26_15h16.14.121,posner_endo_new1,2024.2.4,60.009421536949056,2025-03-26 15h16.20.970922 +0000,
cube_l.png,0.1,-0.31,valid,26,26,0,up,1.3051616998855025,None,space,0.5678803001064807,None,,,,,0,26,26,26,,,,,320.4217521001119,,,,,,,,,,,,,320.4079672000371,320.4217521001119,320.4217521001119,320.4217521001119,321.7393193000462,,,,321.7614786999766,321.7737998000812,321.7737998000812,321.8032609000802,321.803645899985,321.81968059996143,321.81968059996143,321.81968059996143,321.90286549995653,322.40378940012306,,,,up,1.3051616998855025,None,,,,,space,0.5678803001064807,None,,,,,,,,,,,,,,,P135,001,2025-03-26_15h16.14.121,posner_endo_new1,2024.2.4,60.009421536949056,2025-03-26 15h16.20.970922 +0000,
cube_r.png,0.1,0.31,valid,27,27,0,up,2.4991746000014246,None,space,0.5431717000901699,None,,,,,0,27,27,27,,,,,322.41915030009113,,,,,,,,,,,,,322.40411609993316,322.41915030009113,322.41915030009113,322.41915030009113,324.934418000048,,,,324.946826600004,324.9568590999115,324.9568590999115,325.0002057000529,325.0004819999449,325.0164270000532,325.0164270000532,325.0164270000532,325.09982419991866,325.5672049000859,,,,up,2.4991746000014246,None,,,,,space,0.5431717000901699,None,,,,,,,,,,,,,,,P135,001,2025-03-26_15h16.14.121,posner_endo_new1,2024.2.4,60.009421536949056,2025-03-26 15h16.20.970922 +0000,
cube_r.png,0.1,10,catch,28,28,0,up,3.3680776997935027,None,None,,,,,,,0,28,28,28,,,,,325.582492900081,,,,,,,,,,,,,325.5675341000315,325.582492900081,325.582492900081,325.582492900081,328.9636864999775,,,,328.9760161000304,328.98606720007956,328.98606720007956,329.02907920000143,329.0294651000295,329.04552819998935,329.04552819998935,329.04552819998935,329.12882290012203,332.04329299996607,,,,up,3.3680776997935027,None,331.1434440999292,332.0593185001053,332.0593185001053,332.0593185001053,None,,,,,,,,,,,,,,,,,P135,001,2025-03-26_15h16.14.121,posner_endo_new1,2024.2.4,60.009421536949056,2025-03-26 15h16.20.970922 +0000,
cube_r.png,0.1,0.31,valid,29,29,0,up,4.603624599985778,None,space,0.3056016000919044,None,,,,,0,29,29,29,,,,,332.0593185001053,,,,,,,,,,,,,332.0435975000728,332.0593185001053,332.0593185001053,332.0593185001053,336.6724392999895,,,,336.68480519996956,336.6948323000688,336.6948323000688,336.73787899990566,336.7381520001218,336.7543267000001,336.7543267000001,336.7543267000001,336.83792329998687,337.07219390012324,,,,up,4.603624599985778,None,,,,,space,0.3056016000919044,None,,,,,,,,,,,,,,,P135,001,2025-03-26_15h16.14.121,posner_endo_new1,2024.2.4,60.009421536949056,2025-03-26 15h16.20.970922 +0000,
cube_r.png,0.1,0.31,valid,30,30,0,up,2.9917585998773575,None,space,0.526204900117591,None,,,,,0,30,30,30,,,,,337.0875723999925,,,,,,,,,,,,,337.0724174999632,337.0875723999925,337.0875723999925,337.0875723999925,340.0876110000536,,,,340.10893690004013,340.11939510004595,340.11939510004595,340.15121020004153,340.15155089995824,340.16791169997305,340.16791169997305,340.16791169997305,340.25096260011196,340.70323200011626,,,,up,2.9917585998773575,None,,,,,space,0.526204900117591,None,,,,,,,,,,,,,,,P135,001,2025-03-26_15h16.14.121,posner_endo_new1,2024.2.4,60.009421536949056,2025-03-26 15h16.20.970922 +0000,
cube_l.png,0.1,-0.31,valid,31,31,0,up,4.153545800130814,None,space,0.3872233999427408,None,,,,,0,31,31,31,,,,,340.71765389991924,,,,,,,,,,,,,340.70382259995677,340.71765389991924,340.71765389991924,340.71765389991924,344.88225869997405,,,,344.9042855000589,344.9161159999203,344.9161159999203,344.9461344999727,344.9465205001179,344.9626376000233,344.9626376000233,344.9626376000233,345.04580909991637,345.3635132999625,,,,up,4.153545800130814,None,,,,,space,0.3872233999427408,None,,,,,,,,,,,,,,,P135,001,2025-03-26_15h16.14.121,posner_endo_new1,2024.2.4,60.009421536949056,2025-03-26 15h16.20.970922 +0000,
cube_r.png,0.1,0.31,valid,32,32,0,up,1.948325099889189,None,space,0.36201600008644164,None,,,,,0,32,32,32,,,,,345.3788741999306,,,,,,,,,,,,,345.3638440000359,345.3788741999306,345.3788741999306,345.3788741999306,347.3284777000081,,,,347.3406976000406,347.35073309997097,347.35073309997097,347.39359250012785,347.3939745000098,347.41011189995334,347.41011189995334,347.41011189995334,347.49336070008576,347.77773709991015,,,,up,1.948325099889189,None,,,,,space,0.36201600008644164,None,,,,,,,,,,,,,,,P135,001,2025-03-26_15h16.14.121,posner_endo_new1,2024.2.4,60.009421536949056,2025-03-26 15h16.20.970922 +0000,
cube_r.png,0.1,-0.31,invalid,33,33,0,up,3.389691299991682,None,space,0.40358819998800755,None,,,,,0,33,33,33,,,,,347.793155600084,,,,,,,,,,,,,347.7780675000977,347.793155600084,347.793155600084,347.793155600084,351.1908635001164,,,,351.2031608999241,351.2136224000715,351.2136224000715,351.2564085999038,351.25668330001645,351.27294060005806,351.27294060005806,351.27294060005806,351.3563749000896,351.6900559000205,,,,up,3.389691299991682,None,,,,,space,0.40358819998800755,None,,,,,,,,,,,,,,,P135,001,2025-03-26_15h16.14.121,posner_endo_new1,2024.2.4,60.009421536949056,2025-03-26 15h16.20.970922 +0000,
cube_r.png,0.1,10,catch,34,34,0,up,1.9732035000342876,None,space,0.4328240999020636,None,,,,,0,34,34,34,,,,,351.7057298000436,,,,,,,,,,,,,351.69027879997157,351.7057298000436,351.7057298000436,351.7057298000436,353.6878694000188,,,,353.6958256000653,353.70716609992087,353.70716609992087,353.75382509990595,353.7541028999258,353.77026490005665,353.77026490005665,353.77026490005665,353.8368762000464,354.2041917000897,,,,up,1.9732035000342876,None,,,,,space,0.4328240999020636,None,,,,,,,,,,,,,,,P135,001,2025-03-26_15h16.14.121,posner_endo_new1,2024.2.4,60.009421536949056,2025-03-26 15h16.20.970922 +0000,
cube_r.png,0.1,0.31,valid,35,35,0,up,4.058859799988568,None,space,0.5019815999548882,None,,,,,0,35,35,35,,,,,354.2203560001217,,,,,,,,,,,,,354.20441429992206,354.2203560001217,354.2203560001217,354.2203560001217,358.28322470001876,,,,358.29122889996506,358.30228150007315,358.30228150007315,358.34968200000003,358.35037130001,358.36617049993947,358.36617049993947,358.36617049993947,358.43277029995807,358.88468499993905,,,,up,4.058859799988568,None,,,,,space,0.5019815999548882,None,,,,,,,,,,,,,,,P135,001,2025-03-26_15h16.14.121,posner_endo_new1,2024.2.4,60.009421536949056,2025-03-26 15h16.20.970922 +0000,
cube_r.png,0.1,-0.31,invalid,36,36,0,up,2.3161272001452744,None,space,0.5192978999111801,None,,,,,0,36,36,36,,,,,358.89901820011437,,,,,,,,,,,,,358.88528289995156,358.89901820011437,358.89901820011437,358.89901820011437,361.2323384999763,,,,361.254467099905,361.26584809995256,361.26584809995256,361.2960373999085,361.2964168000035,361.3125974999275,361.3125974999275,361.3125974999275,361.39577970001847,361.84676399989985,,,,up,2.3161272001452744,None,,,,,space,0.5192978999111801,None,,,,,,,,,,,,,,,P135,001,2025-03-26_15h16.14.121,posner_endo_new1,2024.2.4,60.009421536949056,2025-03-26 15h16.20.970922 +0000,
cube_l.png,0.1,0.31,invalid,37,37,0,up,1.6242805998772383,None,space,0.4130699001252651,None,,,,,0,37,37,37,,,,,361.86203459999524,,,,,,,,,,,,,361.84710239991546,361.86203459999524,361.86203459999524,361.86203459999524,363.4949910000432,,,,363.5073401001282,363.5174334999174,363.5174334999174,363.56042720004916,363.56081150006503,363.5768820999656,363.5768820999656,363.5768820999656,363.6601897999644,363.99460390000604,,,,up,1.6242805998772383,None,,,,,space,0.4130699001252651,None,,,,,,,,,,,,,,,P135,001,2025-03-26_15h16.14.121,posner_endo_new1,2024.2.4,60.009421536949056,2025-03-26 15h16.20.970922 +0000,
cube_l.png,0.1,0.31,invalid,38,38,0,up,2.46925129997544,None,space,0.40922100003808737,None,,,,,0,38,38,38,,,,,364.0098272000905,,,,,,,,,,,,,363.99493789998814,364.0098272000905,364.0098272000905,364.0098272000905,366.4918714000378,,,,366.5040907000657,366.5141278000083,366.5141278000083,366.557320300024,366.55770600005053,366.5738083999604,366.5738083999604,366.5738083999604,366.65704520000145,366.9914198999759,,,,up,2.46925129997544,None,,,,,space,0.40922100003808737,None,,,,,,,,,,,,,,,P135,001,2025-03-26_15h16.14.121,posner_endo_new1,2024.2.4,60.009421536949056,2025-03-26 15h16.20.970922 +0000,
cube_r.png,0.1,0.31,valid,39,39,0,up,5.2727053998969495,None,space,0.4515720000490546,None,,,,,0,39,39,39,,,,,367.00675960001536,,,,,,,,,,,,,366.991742500104,367.00675960001536,367.00675960001536,367.00675960001536,372.2860113000497,,,,372.2984537000302,372.3085056999698,372.3085056999698,372.3515669000335,372.3519498000387,372.3679651999846,372.3679651999846,372.3679651999846,372.4511297000572,372.8354090999346,,,,up,5.2727053998969495,None,,,,,space,0.4515720000490546,None,,,,,,,,,,,,,,,P135,001,2025-03-26_15h16.14.121,posner_endo_new1,2024.2.4,60.009421536949056,2025-03-26 15h16.20.970922 +0000,
cube_l.png,0.1,0.31,invalid,40,40,0,up,1.5003295999486,None,space,0.46266749990172684,None,,,,,0,40,40,40,,,,,372.85078340000473,,,,,,,,,,,,,372.8357389001176,372.85078340000473,372.85078340000473,372.85078340000473,374.3671985999681,,,,374.3795499999542,374.38959520007484,374.38959520007484,374.4326331000775,374.43302029999904,374.4492001000326,374.4492001000326,374.4492001000326,374.5324204999488,374.9167152000591,,,,up,1.5003295999486,None,,,,,space,0.46266749990172684,None,,,,,,,,,,,,,,,P135,001,2025-03-26_15h16.14.121,posner_endo_new1,2024.2.4,60.009421536949056,2025-03-26 15h16.20.970922 +0000,
cube_l.png,0.1,10,catch,41,41,0,up,5.379226400051266,None,None,,,,,,,0,41,41,41,,,,,374.9319122999441,,,,,,,,,,,,,374.9170413999818,374.9319122999441,374.9319122999441,374.9319122999441,380.3277378999628,,,,380.34007310005836,380.3497671999503,380.3497671999503,380.3933367000427,380.393721899949,380.4096921000164,380.4096921000164,380.4096921000164,380.4930807000492,383.40777119994164,,,,up,5.379226400051266,None,382.50766310002655,383.4232018000912,383.4232018000912,383.4232018000912,None,,,,,,,,,,,,,,,,,P135,001,2025-03-26_15h16.14.121,posner_endo_new1,2024.2.4,60.009421536949056,2025-03-26 15h16.20.970922 +0000,
cube_l.png,0.1,-0.31,valid,42,42,0,up,0.05592080019414425,None,space,0.5756067999172956,None,,,,,0,42,42,42,,,,,383.4232018000912,,,,,,,,,,,,,383.40798179991543,383.4232018000912,383.4232018000912,383.4232018000912,383.49135349993594,,,,383.49928599991836,383.5098935000133,383.5098935000133,383.5571304000914,383.55768320010975,383.57346830004826,383.57346830004826,383.57346830004826,383.65672770002857,384.15810459991917,,,,up,0.05592080019414425,None,,,,,space,0.5756067999172956,None,,,,,,,,,,,,,,,P135,001,2025-03-26_15h16.14.121,posner_endo_new1,2024.2.4,60.009421536949056,2025-03-26 15h16.20.970922 +0000,
cube_l.png,0.1,10,catch,43,43,0,up,3.6100692998152226,None,None,,,,,,,0,43,43,43,,,,,384.1729035000317,,,,,,,,,,,,,384.1585719999857,384.1729035000317,384.1729035000317,384.1729035000317,387.7868431999814,,,,387.7979276999831,387.8080817000009,387.8080817000009,387.852704500081,387.85306020011194,387.86880910000764,387.86880910000764,387.86880910000764,387.9522975999862,390.8669976000674,,,,up,3.6100692998152226,None,389.9670339000877,390.88275049999356,390.88275049999356,390.88275049999356,None,,,,,,,,,,,,,,,,,P135,001,2025-03-26_15h16.14.121,posner_endo_new1,2024.2.4,60.009421536949056,2025-03-26 15h16.20.970922 +0000,
cube_l.png,0.1,0.31,invalid,44,44,0,up,1.4681110000237823,None,space,0.5960758998990059,None,,,,,0,44,44,44,,,,,390.88275049999356,,,,,,,,,,,,,390.8672639001161,390.88275049999356,390.88275049999356,390.88275049999356,392.3655427999329,,,,392.37673379993066,392.3869427999016,392.3869427999016,392.4308961001225,392.43123689992353,392.4475764001254,392.4475764001254,392.4475764001254,392.53103439998813,393.0483432000037,,,,up,1.4681110000237823,None,,,,,space,0.5960758998990059,None,,,,,,,,,,,,,,,P135,001,2025-03-26_15h16.14.121,posner_endo_new1,2024.2.4,60.009421536949056,2025-03-26 15h16.20.970922 +0000,
cube_l.png,0.1,0.31,invalid,45,45,0,up,1.3672892998438329,None,space,0.5910975001752377,None,,,,,0,45,45,45,,,,,393.0637696001213,,,,,,,,,,,,,393.0486453000922,393.0637696001213,393.0637696001213,393.0637696001213,394.4468000999186,,,,394.4578925999813,394.4682221999392,394.4682221999392,394.51252610003576,394.51286350004375,394.5286268000491,394.5286268000491,394.5286268000491,394.61216889997013,395.12951990007423,,,,up,1.3672892998438329,None,,,,,space,0.5910975001752377,None,,,,,,,,,,,,,,,P135,001,2025-03-26_15h16.14.121,posner_endo_new1,2024.2.4,60.009421536949056,2025-03-26 15h16.20.970922 +0000,
cube_r.png,0.1,0.31,valid,46,46,0,up,2.606542899971828,None,space,0.6081406997982413,None,,,,,0,46,46,46,,,,,395.14463280001655,,,,,,,,,,,,,395.1298076999374,395.14463280001655,395.14463280001655,395.14463280001655,397.76034200005233,,,,397.7706599999219,397.7803680000361,397.7803680000361,397.82566360011697,397.82589800003916,397.84226140007377,397.84226140007377,397.84226140007377,397.9250954000745,398.4608833999373,,,,up,2.606542899971828,None,,,,,space,0.6081406997982413,None,,,,,,,,,,,,,,,P135,001,2025-03-26_15h16.14.121,posner_endo_new1,2024.2.4,60.009421536949056,2025-03-26 15h16.20.970922 +0000,
cube_l.png,0.1,-0.31,valid,47,47,0,up,1.5072653000243008,None,space,0.6234307999256998,None,,,,,0,47,47,47,,,,,398.4752150999848,,,,,,,,,,,,,398.4614961000625,398.4752150999848,398.4752150999848,398.4752150999848,399.992552800104,,,,400.0143518000841,400.0262639001012,400.0262639001012,400.0563900000416,400.0567697000224,400.07302609994076,400.07302609994076,400.07302609994076,400.15614460012875,400.70685539999977,,,,up,1.5072653000243008,None,,,,,space,0.6234307999256998,None,,,,,,,,,,,,,,,P135,001,2025-03-26_15h16.14.121,posner_endo_new1,2024.2.4,60.009421536949056,2025-03-26 15h16.20.970922 +0000,
cube_r.png,0.1,-0.31,invalid,48,48,0,up,4.18892650003545,None,space,0.5691676998976618,None,,,,,0,48,48,48,,,,,400.72236380004324,,,,,,,,,,,,,400.70718319993466,400.72236380004324,400.72236380004324,400.72236380004324,404.91931760008447,,,,404.9316229999531,404.94169000000693,404.94169000000693,404.98467159993015,404.9850584999658,405.00127099989913,405.00127099989913,405.00127099989913,405.0843915999867,405.5868746000342,,,,up,4.18892650003545,None,,,,,space,0.5691676998976618,None,,,,,,,,,,,,,,,P135,001,2025-03-26_15h16.14.121,posner_endo_new1,2024.2.4,60.009421536949056,2025-03-26 15h16.20.970922 +0000,
cube_r.png,0.1,10,catch,49,49,0,up,3.685474499827251,None,None,,,,,,,0,49,49,49,,,,,405.60127749992535,,,,,,,,,,,,,405.58746080007404,405.60127749992535,405.60127749992535,405.60127749992535,409.29981740005314,,,,409.3201369999442,409.33034009998664,409.33034009998664,409.3636427000165,409.36403020005673,409.3800454000011,409.3800454000011,409.3800454000011,409.4633023000788,412.3777425000444,,,,up,3.685474499827251,None,411.47791579994373,412.39355599996634,412.39355599996634,412.39355599996634,None,,,,,,,,,,,,,,,,,P135,001,2025-03-26_15h16.14.121,posner_endo_new1,2024.2.4,60.009421536949056,2025-03-26 15h16.20.970922 +0000,
cube_l.png,0.1,-0.31,valid,50,50,0,up,0.16490299999713898,None,space,0.47771960007958114,None,,,,,0,50,50,50,,,,,412.39355599996634,,,,,,,,,,,,,412.37804100010544,412.39355599996634,412.39355599996634,412.39355599996634,412.5615427000448,,,,412.57371019991115,412.5837743000593,412.5837743000593,412.6268686000258,412.62725110002793,412.64337390009314,412.64337390009314,412.64337390009314,412.72654770012014,413.12759390007704,,,,up,0.16490299999713898,None,,,,,space,0.47771960007958114,None,,,,,,,,,,,,,,,P135,001,2025-03-26_15h16.14.121,posner_endo_new1,2024.2.4,60.009421536949056,2025-03-26 15h16.20.970922 +0000,
cube_l.png,0.1,-0.31,valid,51,51,0,up,1.2317937000188977,None,space,0.48461579997092485,None,,,,,0,51,51,51,,,,,413.14279090007767,,,,,,,,,,,,,413.12792579992674,413.14279090007767,413.14279090007767,413.14279090007767,414.3763216000516,,,,414.388622000115,414.39865060010925,414.39865060010925,414.4416585001163,414.4420409000013,414.45813570008613,414.45813570008613,414.45813570008613,414.5420224999543,414.96044809999876,,,,up,1.2317937000188977,None,,,,,space,0.48461579997092485,None,,,,,,,,,,,,,,,P135,001,2025-03-26_15h16.14.121,posner_endo_new1,2024.2.4,60.009421536949056,2025-03-26 15h16.20.970922 +0000,
cube_r.png,0.1,-0.31,invalid,52,52,0,up,3.392289200099185,None,space,0.4956720999907702,None,,,,,0,52,52,52,,,,,414.97492639999837,,,,,,,,,,,,,414.9610288001131,414.97492639999837,414.97492639999837,414.97492639999837,418.3719097999856,,,,418.38515429990366,418.3973278000485,418.3973278000485,418.4384113000706,418.4390573001001,418.4547226000577,418.4547226000577,418.4547226000577,418.5213281000033,418.95656520011835,,,,up,3.392289200099185,None,,,,,space,0.4956720999907702,None,,,,,,,,,,,,,,,P135,001,2025-03-26_15h16.14.121,posner_endo_new1,2024.2.4,60.009421536949056,2025-03-26 15h16.20.970922 +0000,
cube_l.png,0.1,-0.31,valid,53,53,0,up,3.339806400006637,None,space,0.46038229996338487,None,,,,,0,53,53,53,,,,,418.9709306000732,,,,,,,,,,,,,418.957161600003,418.9709306000732,418.9709306000732,418.9709306000732,422.3196966999676,,,,422.3398533000145,422.350033900002,422.350033900002,422.3836529001128,422.38403640012257,422.40000530006364,422.40000530006364,422.40000530006364,422.48329810006544,422.8676269000862,,,,up,3.339806400006637,None,,,,,space,0.46038229996338487,None,,,,,,,,,,,,,,,P135,001,2025-03-26_15h16.14.121,posner_endo_new1,2024.2.4,60.009421536949056,2025-03-26 15h16.20.970922 +0000,
cube_r.png,0.1,10,catch,54,54,0,up,2.604183299932629,None,None,,,,,,,0,54,54,54,,,,,422.8829244999215,,,,,,,,,,,,,422.867959999945,422.8829244999215,422.8829244999215,422.8829244999215,425.49811609997414,,,,425.5065411000978,425.5167964999564,425.5167964999564,425.5640475000255,425.5643269000575,425.58022130001336,425.58022130001336,425.58022130001336,425.66367010003887,428.5777259999886,,,,up,2.604183299932629,None,427.678472999949,428.59388160007074,428.59388160007074,428.59388160007074,None,,,,,,,,,,,,,,,,,P135,001,2025-03-26_15h16.14.121,posner_endo_new1,2024.2.4,60.009421536949056,2025-03-26 15h16.20.970922 +0000,
cube_l.png,0.1,0.31,invalid,55,55,0,up,0.9884005999192595,None,space,0.4386446999851614,None,,,,,0,55,55,55,,,,,428.59388160007074,,,,,,,,,,,,,428.577937199967,428.59388160007074,428.59388160007074,428.59388160007074,429.59394520008937,,,,429.6023456999101,429.6126049000304,429.6126049000304,429.66020609997213,429.66087000002153,429.6765598000493,429.6765598000493,429.6765598000493,429.7431779000908,430.1285177001264,,,,up,0.9884005999192595,None,,,,,space,0.4386446999851614,None,,,,,,,,,,,,,,,P135,001,2025-03-26_15h16.14.121,posner_endo_new1,2024.2.4,60.009421536949056,2025-03-26 15h16.20.970922 +0000,
cube_l.png,0.1,-0.31,valid,56,56,0,up,2.840119000058621,None,space,0.4382573999464512,None,,,,,0,56,56,56,,,,,430.1428314000368,,,,,,,,,,,,,430.1291036999319,430.1428314000368,430.1428314000368,430.1428314000368,432.99215109995566,,,,433.01425229990855,433.02606420009397,433.02606420009397,433.0559656000696,433.0563479999546,433.0724859999027,433.0724859999027,433.0724859999027,433.1558071000036,433.52325879991986,,,,up,2.840119000058621,None,,,,,space,0.4382573999464512,None,,,,,,,,,,,,,,,P135,001,2025-03-26_15h16.14.121,posner_endo_new1,2024.2.4,60.009421536949056,2025-03-26 15h16.20.970922 +0000,
cube_r.png,0.1,0.31,valid,57,57,0,up,1.5646397999953479,None,space,0.4980327000375837,None,,,,,0,57,57,57,,,,,433.5388023001142,,,,,,,,,,,,,433.52358900010586,433.5388023001142,433.5388023001142,433.5388023001142,435.10490770009346,,,,435.11292849993333,435.1233512999024,435.1233512999024,435.1708808001131,435.17142080003396,435.18738920008764,435.18738920008764,435.18738920008764,435.27054250007495,435.68893399997614,,,,up,1.5646397999953479,None,,,,,space,0.4980327000375837,None,,,,,,,,,,,,,,,P135,001,2025-03-26_15h16.14.121,posner_endo_new1,2024.2.4,60.009421536949056,2025-03-26 15h16.20.970922 +0000,
cube_r.png,0.1,-0.31,invalid,58,58,0,up,2.143465899862349,None,space,0.45136169996112585,None,,,,,0,58,58,58,,,,,435.70350979990326,,,,,,,,,,,,,435.6894223000854,435.70350979990326,435.70350979990326,435.70350979990326,437.85308209992945,,,,437.8707020999864,437.8824169000145,437.8824169000145,437.91773220011964,437.91801130003296,437.934432100039,437.934432100039,437.934432100039,438.0178163999226,438.4013443000149,,,,up,2.143465899862349,None,,,,,space,0.45136169996112585,None,,,,,,,,,,,,,,,P135,001,2025-03-26_15h16.14.121,posner_endo_new1,2024.2.4,60.009421536949056,2025-03-26 15h16.20.970922 +0000,
cube_l.png,0.1,0.31,invalid,59,59,0,up,1.7412124001421034,None,space,0.39806700008921325,None,,,,,0,59,59,59,,,,,438.41721060010605,,,,,,,,,,,,,438.4015732000116,438.41721060010605,438.41721060010605,438.41721060010605,440.1675090000499,,,,440.1851375999395,440.19670789991505,440.19670789991505,440.2319889999926,440.2322758999653,440.24852570006624,440.24852570006624,440.24852570006624,440.33209139993414,440.64933099993505,,,,up,1.7412124001421034,None,,,,,space,0.39806700008921325,None,,,,,,,,,,,,,,,P135,001,2025-03-26_15h16.14.121,posner_endo_new1,2024.2.4,60.009421536949056,2025-03-26 15h16.20.970922 +0000,
,,,,,,,,,,,,,,,,,,,,,,,,,,,,,,,,,,,,,,,,,,,,,,,,,,,,,,,,,,,,,,,,,,,,,440.649487900082,440.66509500006214,440.66509500006214,500.67051679990254,517.0889576000627,space,76.40645739994943,None,,,,,,,P135,001,2025-03-26_15h16.14.121,posner_endo_new1,2024.2.4,60.009421536949056,2025-03-26 15h16.20.970922 +0000,
,,,,,,,,,,,,,,,,,,,,,,,,,,,,,,,,,,517.0891313001048,517.1036576000042,520.1819583999459,520.0842476999387,,,,,,,,,,,,,,,,,,,,,,,,,,,,,,,,,,,,,,,,,,,,,,P135,001,2025-03-26_15h16.14.121,posner_endo_new1,2024.2.4,60.009421536949056,2025-03-26 15h16.20.970922 +0000,
cube_l.png,0.1,10,catch,0,0,0,down,12.832661899970844,None,None,,,,,,,,,,,0,0,0,0,520.1819583999459,,,,,,,,,,,,,520.1736486000009,520.1819583999459,520.1819583999459,520.1819583999459,533.0234515001066,,,,533.046587199904,533.0587444000412,533.0587444000412,533.0870668001007,533.087509999983,533.1035921999719,533.1035921999719,533.1035921999719,533.1873115000781,536.1023625999223,,,,,,,535.2019114999566,536.1176293999888,536.1176293999888,536.1176293999888,,,,,,,,,,,,down,12.832661899970844,None,None,,,P135,001,2025-03-26_15h16.14.121,posner_endo_new1,2024.2.4,60.009421536949056,2025-03-26 15h16.20.970922 +0000,
cube_l.png,0.1,10,catch,1,1,0,down,3.585446200100705,None,None,,,,,,,,,,,0,1,1,1,536.1176293999888,,,,,,,,,,,,,536.1029328000732,536.1176293999888,536.1176293999888,536.1176293999888,539.7161441999488,,,,539.7385668000206,539.7509171999991,539.7509171999991,539.7801624001004,539.7805931000039,539.7966213999316,539.7966213999316,539.7966213999316,539.8799934000708,542.7945970001165,,,,,,,541.8944971999153,542.8101937999018,542.8101937999018,542.8101937999018,,,,,,,,,,,,down,3.585446200100705,None,None,,,P135,001,2025-03-26_15h16.14.121,posner_endo_new1,2024.2.4,60.009421536949056,2025-03-26 15h16.20.970922 +0000,
cube_l.png,0.1,0.31,invalid,2,2,0,down,0.1969419999513775,None,space,0.5426882000174373,None,,,,,,,,,0,2,2,2,542.8101937999018,,,,,,,,,,,,,542.7948332999367,542.8101937999018,542.8101937999018,542.8101937999018,543.0110116000287,,,,543.0201908000745,543.0304539999925,543.0304539999925,543.0772750000469,543.077575000003,543.0932436001021,543.0932436001021,543.0932436001021,543.160238099983,543.6443002999295,,,,,,,,,,,,,,,,,,,,,,down,0.1969419999513775,None,space,0.5426882000174373,None,P135,001,2025-03-26_15h16.14.121,posner_endo_new1,2024.2.4,60.009421536949056,2025-03-26 15h16.20.970922 +0000,
cube_l.png,0.1,0.31,invalid,3,3,0,down,2.451815800042823,None,space,0.45415550004690886,None,,,,,,,,,0,3,3,3,543.6593132000417,,,,,,,,,,,,,543.6445575999096,543.6593132000417,543.6593132000417,543.6593132000417,546.124870199943,,,,546.1341069999617,546.1443702999968,546.1443702999968,546.1906065000221,546.1909090001136,546.2069846000522,546.2069846000522,546.2069846000522,546.2903549999464,546.6744371999521,,,,,,,,,,,,,,,,,,,,,,down,2.451815800042823,None,space,0.45415550004690886,None,P135,001,2025-03-26_15h16.14.121,posner_endo_new1,2024.2.4,60.009421536949056,2025-03-26 15h16.20.970922 +0000,
cube_l.png,0.1,-0.31,valid,4,4,0,down,7.47754710004665,None,space,0.5087330001406372,None,,,,,,,,,0,4,4,4,546.690007600002,,,,,,,,,,,,,546.6746922000311,546.690007600002,546.690007600002,546.690007600002,554.1832721000537,,,,554.1909243001137,554.201932700118,554.201932700118,554.2487409000751,554.2492722000461,554.2654587000143,554.2654587000143,554.2654587000143,554.3487432999536,554.7834628000855,,,,,,,,,,,,,,,,,,,,,,down,7.47754710004665,None,space,0.5087330001406372,None,P135,001,2025-03-26_15h16.14.121,posner_endo_new1,2024.2.4,60.009421536949056,2025-03-26 15h16.20.970922 +0000,
cube_r.png,0.1,-0.31,invalid,5,5,0,down,8.953332599950954,None,space,0.4562271998729557,None,,,,,,,,,0,5,5,5,554.7982550000306,,,,,,,,,,,,,554.7839550001081,554.7982550000306,554.7982550000306,554.7982550000306,563.7577442999464,,,,563.7758166000713,563.7871558000334,563.7871558000334,563.8226173000876,563.8229201999493,563.8390703999903,563.8390703999903,563.8390703999903,563.9220116001088,564.3072075000964,,,,,,,,,,,,,,,,,,,,,,down,8.953332599950954,None,space,0.4562271998729557,None,P135,001,2025-03-26_15h16.14.121,posner_endo_new1,2024.2.4,60.009421536949056,2025-03-26 15h16.20.970922 +0000,
cube_r.png,0.1,0.31,valid,6,6,0,down,1.788643800187856,None,space,0.3734256001189351,None,,,,,,,,,0,6,6,6,564.3218374999706,,,,,,,,,,,,,564.3076979001053,564.3218374999706,564.3218374999706,564.3218374999706,566.1220009000972,,,,566.1399898000527,566.1513068000786,566.1513068000786,566.1868326999247,566.1871764000971,566.2029142000247,566.2029142000247,566.2029142000247,566.2862829000223,566.5873611001298,,,,,,,,,,,,,,,,,,,,,,down,1.788643800187856,None,space,0.3734256001189351,None,P135,001,2025-03-26_15h16.14.121,posner_endo_new1,2024.2.4,60.009421536949056,2025-03-26 15h16.20.970922 +0000,
cube_r.png,0.1,-0.31,invalid,7,7,0,down,8.804048700025305,None,space,0.4000367000699043,None,,,,,,,,,0,7,7,7,566.6027333000675,,,,,,,,,,,,,566.5876613000873,566.6027333000675,566.6027333000675,566.6027333000675,575.4118252000771,,,,575.4233252999838,575.4337073001079,575.4337073001079,575.4773862999864,575.4777357999701,575.4934352999553,575.4934352999553,575.4934352999553,575.5771238999441,575.8948856999632,,,,,,,,,,,,,,,,,,,,,,down,8.804048700025305,None,space,0.4000367000699043,None,P135,001,2025-03-26_15h16.14.121,posner_endo_new1,2024.2.4,60.009421536949056,2025-03-26 15h16.20.970922 +0000,
cube_l.png,0.1,-0.31,valid,8,8,0,down,3.1688250000588596,None,space,0.39857419999316335,None,,,,,,,,,0,8,8,8,575.909761799965,,,,,,,,,,,,,575.895182200009,575.909761799965,575.909761799965,575.909761799965,579.090700800065,,,,579.09643470007,579.1081312000751,579.1081312000751,579.1567196999677,579.1569425000343,579.1733075999655,579.1733075999655,579.1733075999655,579.2401024999563,579.5757703001145,,,,,,,,,,,,,,,,,,,,,,down,3.1688250000588596,None,space,0.39857419999316335,None,P135,001,2025-03-26_15h16.14.121,posner_endo_new1,2024.2.4,60.009421536949056,2025-03-26 15h16.20.970922 +0000,
cube_r.png,0.1,-0.31,invalid,9,9,0,down,5.464890500064939,None,space,0.5396273999940604,None,,,,,,,,,0,9,9,9,579.589930600021,,,,,,,,,,,,,579.5763807999901,579.589930600021,579.589930600021,579.589930600021,585.0698212001007,,,,585.090310400119,585.1006557999644,585.1006557999644,585.1337683999445,585.1341544000898,585.1501386999153,585.1501386999153,585.1501386999153,585.2335308000911,585.7008376000449,,,,,,,,,,,,,,,,,,,,,,down,5.464890500064939,None,space,0.5396273999940604,None,P135,001,2025-03-26_15h16.14.121,posner_endo_new1,2024.2.4,60.009421536949056,2025-03-26 15h16.20.970922 +0000,
cube_l.png,0.1,0.31,invalid,10,10,0,down,2.498955399962142,None,space,0.47938770009204745,None,,,,,,,,,0,10,10,10,585.7163315999787,,,,,,,,,,,,,585.7011784999631,585.7163315999787,585.7163315999787,585.7163315999787,588.2313016999979,,,,588.2419034000486,588.25358280004,588.25358280004,588.2971916999668,588.2976271999069,588.3136867999565,588.3136867999565,588.3136867999565,588.397145899944,588.7975669000298,,,,,,,,,,,,,,,,,,,,,,down,2.498955399962142,None,space,0.47938770009204745,None,P135,001,2025-03-26_15h16.14.121,posner_endo_new1,2024.2.4,60.009421536949056,2025-03-26 15h16.20.970922 +0000,
cube_r.png,0.1,-0.31,invalid,11,11,0,down,2.042359600076452,None,space,0.5091217001900077,None,,,,,,,,,0,11,11,11,588.8133225999773,,,,,,,,,,,,,588.7978232000023,588.8133225999773,588.8133225999773,588.8133225999773,590.8623744999059,,,,590.8715872999746,590.8818004999775,590.8818004999775,590.9277965000365,590.9280980001204,590.9443727000616,590.9443727000616,590.9443727000616,591.0277837000322,591.4616028999444,,,,,,,,,,,,,,,,,,,,,,down,2.042359600076452,None,space,0.5091217001900077,None,P135,001,2025-03-26_15h16.14.121,posner_endo_new1,2024.2.4,60.009421536949056,2025-03-26 15h16.20.970922 +0000,
cube_r.png,0.1,0.31,valid,12,12,0,down,5.977412200067192,None,space,0.39413239993155,None,,,,,,,,,0,12,12,12,591.4774925999809,,,,,,,,,,,,,591.4618609000463,591.4774925999809,591.4774925999809,591.4774925999809,597.4559045999777,,,,597.4653155000415,597.4757958999835,597.4757958999835,597.521063900087,597.5213641000446,597.537609100109,597.537609100109,597.537609100109,597.6208315999247,597.9383904000279,,,,,,,,,,,,,,,,,,,,,,down,5.977412200067192,None,space,0.39413239993155,None,P135,001,2025-03-26_15h16.14.121,posner_endo_new1,2024.2.4,60.009421536949056,2025-03-26 15h16.20.970922 +0000,
cube_l.png,0.1,10,catch,13,13,0,down,3.036589900031686,None,None,,,,,,,,,,,0,13,13,13,597.9541766000912,,,,,,,,,,,,,597.938653799938,597.9541766000912,597.9541766000912,597.9541766000912,601.0017846000846,,,,601.0110216999892,601.0213218999561,601.0213218999561,601.0674008999486,601.0677157000173,601.083941699937,601.083941699937,601.083941699937,601.1675015001092,604.0815034001134,,,,,,,603.1821405999362,604.0975339999422,604.0975339999422,604.0975339999422,,,,,,,,,,,,down,3.036589900031686,None,None,,,P135,001,2025-03-26_15h16.14.121,posner_endo_new1,2024.2.4,60.009421536949056,2025-03-26 15h16.20.970922 +0000,
cube_r.png,0.1,-0.31,invalid,14,14,0,down,0.28499959991313517,None,space,0.493652299977839,None,,,,,,,,,0,14,14,14,604.0975339999422,,,,,,,,,,,,,604.0817529000342,604.0975339999422,604.0975339999422,604.0975339999422,604.3986215000041,,,,604.408568700077,604.4209708000999,604.4209708000999,604.464656499913,604.4653034999501,604.4809904999565,604.4809904999565,604.4809904999565,604.5643327001017,604.982888800092,,,,,,,,,,,,,,,,,,,,,,down,0.28499959991313517,None,space,0.493652299977839,None,P135,001,2025-03-26_15h16.14.121,posner_endo_new1,2024.2.4,60.009421536949056,2025-03-26 15h16.20.970922 +0000,
cube_l.png,0.1,-0.31,valid,15,15,0,down,4.721992400009185,None,space,0.5827844000887126,None,,,,,,,,,0,15,15,15,604.9972043000162,,,,,,,,,,,,,604.983501000097,604.9972043000162,604.9972043000162,604.9972043000162,609.727990699932,,,,609.7492070998996,609.759114800021,609.759114800021,609.7915966999717,609.7919393999036,609.8082383000292,609.8082383000292,609.8082383000292,609.8919814999681,610.3923367001116,,,,,,,,,,,,,,,,,,,,,,down,4.721992400009185,None,space,0.5827844000887126,None,P135,001,2025-03-26_15h16.14.121,posner_endo_new1,2024.2.4,60.009421536949056,2025-03-26 15h16.20.970922 +0000,
cube_r.png,0.1,10,catch,16,16,0,down,10.814566599903628,None,None,,,,,,,,,,,0,16,16,16,610.4080401000101,,,,,,,,,,,,,610.3926379000768,610.4080401000101,610.4080401000101,610.4080401000101,621.2329242001288,,,,621.2552271001041,621.2674988999497,621.2674988999497,621.2966132999863,621.2969653999899,621.3131015000399,621.3131015000399,621.3131015000399,621.3968666000292,624.3108222000301,,,,,,,623.411584299989,624.3270038000774,624.3270038000774,624.3270038000774,,,,,,,,,,,,down,10.814566599903628,None,None,,,P135,001,2025-03-26_15h16.14.121,posner_endo_new1,2024.2.4,60.009421536949056,2025-03-26 15h16.20.970922 +0000,
cube_r.png,0.1,10,catch,17,17,0,down,1.5362110999412835,None,None,,,,,,,,,,,0,17,17,17,624.3270038000774,,,,,,,,,,,,,624.3110968000256,624.3270038000774,624.3270038000774,624.3270038000774,625.8766401000321,,,,625.8878903998993,625.8981596000958,625.8981596000958,625.9423372999299,625.942679299973,625.9586503999308,625.9586503999308,625.9586503999308,626.041693800129,628.9560716999695,,,,,,,628.0566140001174,628.9721284001134,628.9721284001134,628.9721284001134,,,,,,,,,,,,down,1.5362110999412835,None,None,,,P135,001,2025-03-26_15h16.14.121,posner_endo_new1,2024.2.4,60.009421536949056,2025-03-26 15h16.20.970922 +0000,
cube_l.png,0.1,0.31,invalid,18,18,0,down,0.194928000215441,None,space,0.5005210000090301,None,,,,,,,,,0,18,18,18,628.9721284001134,,,,,,,,,,,,,628.9563460999634,628.9721284001134,628.9721284001134,628.9721284001134,629.1733057999518,,,,629.1844613999128,629.194720099913,629.194720099913,629.2389478001278,629.2393036000431,629.2554051999468,629.2554051999468,629.2554051999468,629.3386967999395,629.772300499957,,,,,,,,,,,,,,,,,,,,,,down,0.194928000215441,None,space,0.5005210000090301,None,P135,001,2025-03-26_15h16.14.121,posner_endo_new1,2024.2.4,60.009421536949056,2025-03-26 15h16.20.970922 +0000,
cube_l.png,0.1,10,catch,19,19,0,down,5.307094000047073,None,None,,,,,,,,,,,0,19,19,19,629.7879190999083,,,,,,,,,,,,,629.7725935000926,629.7879190999083,629.7879190999083,629.7879190999083,635.102161699906,,,,635.1243851000909,635.1360690000001,635.1360690000001,635.1657219000626,635.1660539000295,635.1825415000785,635.1825415000785,635.1825415000785,635.26612689998,638.1812297001015,,,,,,,637.2807746001054,638.1964859999716,638.1964859999716,638.1964859999716,,,,,,,,,,,,down,5.307094000047073,None,None,,,P135,001,2025-03-26_15h16.14.121,posner_endo_new1,2024.2.4,60.009421536949056,2025-03-26 15h16.20.970922 +0000,
cube_l.png,0.1,0.31,invalid,20,20,0,down,1.8105555998627096,None,space,0.5495794999878854,None,,,,,,,,,0,20,20,20,638.1964859999716,,,,,,,,,,,,,638.1817767999601,638.1964859999716,638.1964859999716,638.1964859999716,640.0121559000108,,,,640.0188824001234,640.0308622999582,640.0308622999582,640.0777634999249,640.0780152000953,640.0939287999645,640.0939287999645,640.0939287999645,640.1773729000706,640.6445704000071,,,,,,,,,,,,,,,,,,,,,,down,1.8105555998627096,None,space,0.5495794999878854,None,P135,001,2025-03-26_15h16.14.121,posner_endo_new1,2024.2.4,60.009421536949056,2025-03-26 15h16.20.970922 +0000,
cube_l.png,0.1,-0.31,valid,21,21,0,down,1.7303923999425024,None,space,0.7745730001479387,None,,,,,,,,,0,21,21,21,640.6605068999343,,,,,,,,,,,,,640.6447594999336,640.6605068999343,640.6605068999343,640.6605068999343,642.3946640999056,,,,642.417038799962,642.427709300071,642.427709300071,642.4583437999245,642.4586885999888,642.4749370000791,642.4749370000791,642.4749370000791,642.5583971000742,643.2589137000032,,,,,,,,,,,,,,,,,,,,,,down,1.7303923999425024,None,space,0.7745730001479387,None,P135,001,2025-03-26_15h16.14.121,posner_endo_new1,2024.2.4,60.009421536949056,2025-03-26 15h16.20.970922 +0000,
cube_r.png,0.1,0.31,valid,22,22,0,down,1.9248758000321686,None,space,0.7229989999905229,None,,,,,,,,,0,22,22,22,643.2740517000202,,,,,,,,,,,,,643.2592076000292,643.2740517000202,643.2740517000202,643.2740517000202,645.2072099999059,,,,645.2182887000963,645.2284562001005,645.2284562001005,645.2721611999441,645.2725005999673,645.2891655999701,645.2891655999701,645.2891655999701,645.3718739000615,646.024128699908,,,,,,,,,,,,,,,,,,,,,,down,1.9248758000321686,None,space,0.7229989999905229,None,P135,001,2025-03-26_15h16.14.121,posner_endo_new1,2024.2.4,60.009421536949056,2025-03-26 15h16.20.970922 +0000,
cube_r.png,0.1,-0.31,invalid,23,23,0,down,1.5838186999317259,None,space,0.6770585998892784,None,,,,,,,,,0,23,23,23,646.0385102001019,,,,,,,,,,,,,646.0247329000849,646.0385102001019,646.0385102001019,646.0385102001019,647.6392465000972,,,,647.6612635999918,647.6732948999852,647.6732948999852,647.7029222999699,647.7032512000296,647.7193543999456,647.7193543999456,647.7193543999456,647.8028228001203,648.4051616000943,,,,,,,,,,,,,,,,,,,,,,down,1.5838186999317259,None,space,0.6770585998892784,None,P135,001,2025-03-26_15h16.14.121,posner_endo_new1,2024.2.4,60.009421536949056,2025-03-26 15h16.20.970922 +0000,
cube_r.png,0.1,0.31,valid,24,24,0,down,4.731009899871424,None,space,0.46478640008717775,None,,,,,,,,,0,24,24,24,648.4194853999652,,,,,,,,,,,,,648.4057654999197,648.4194853999652,648.4194853999652,648.4194853999652,653.167283100076,,,,653.1891048999969,653.1987479999661,653.1987479999661,653.230568200117,653.2309179999866,653.2475785000715,653.2475785000715,653.2475785000715,653.3304300000891,653.7147160999011,,,,,,,,,,,,,,,,,,,,,,down,4.731009899871424,None,space,0.46478640008717775,None,P135,001,2025-03-26_15h16.14.121,posner_endo_new1,2024.2.4,60.009421536949056,2025-03-26 15h16.20.970922 +0000,
cube_r.png,0.1,-0.31,invalid,25,25,0,down,11.277307599782944,None,space,0.5346993999555707,None,,,,,,,,,0,25,25,25,653.7303881000262,,,,,,,,,,,,,653.715011900058,653.7303881000262,653.7303881000262,653.7303881000262,665.0200026000384,,,,665.0311801999342,665.0414430999663,665.0414430999663,665.0855372999795,665.0858843999449,665.1017058999278,665.1017058999278,665.1017058999278,665.1852693001274,665.6538416999392,,,,,,,,,,,,,,,,,,,,,,down,11.277307599782944,None,space,0.5346993999555707,None,P135,001,2025-03-26_15h16.14.121,posner_endo_new1,2024.2.4,60.009421536949056,2025-03-26 15h16.20.970922 +0000,
cube_l.png,0.1,-0.31,valid,26,26,0,down,7.4023355999961495,None,space,0.641172599978745,None,,,,,,,,,0,26,26,26,665.668398699956,,,,,,,,,,,,,665.6544502000324,665.668398699956,665.668398699956,665.668398699956,673.0798957999796,,,,673.1021197999362,673.1144936999772,673.1144936999772,673.1434482000768,673.1437619999051,673.1601952000055,673.1601952000055,673.1601952000055,673.2436498999596,673.8104040001053,,,,,,,,,,,,,,,,,,,,,,down,7.4023355999961495,None,space,0.641172599978745,None,P135,001,2025-03-26_15h16.14.121,posner_endo_new1,2024.2.4,60.009421536949056,2025-03-26 15h16.20.970922 +0000,
cube_r.png,0.1,0.31,valid,27,27,0,down,5.636686400044709,None,space,0.4099636999890208,None,,,,,,,,,0,27,27,27,673.8262879000977,,,,,,,,,,,,,673.8106605000794,673.8262879000977,673.8262879000977,673.8262879000977,679.4733428999316,,,,679.4953703999054,679.5065337999258,679.5065337999258,679.537119399989,679.5375123999547,679.5536686999258,679.5536686999258,679.5536686999258,679.6367359999567,679.9712263001129,,,,,,,,,,,,,,,,,,,,,,down,5.636686400044709,None,space,0.4099636999890208,None,P135,001,2025-03-26_15h16.14.121,posner_endo_new1,2024.2.4,60.009421536949056,2025-03-26 15h16.20.970922 +0000,
cube_r.png,0.1,10,catch,28,28,0,down,1.7322526001371443,None,None,,,,,,,,,,,0,28,28,28,679.9865306001157,,,,,,,,,,,,,679.971565600019,679.9865306001157,679.9865306001157,679.9865306001157,681.735788699938,,,,681.7483016999904,681.7579870000482,681.7579870000482,681.8014422999695,681.8018330999184,681.8179445001297,681.8179445001297,681.8179445001297,681.9012668000069,684.816857600119,,,,,,,683.9163603999186,684.8320383001119,684.8320383001119,684.8320383001119,,,,,,,,,,,,down,1.7322526001371443,None,None,,,P135,001,2025-03-26_15h16.14.121,posner_endo_new1,2024.2.4,60.009421536949056,2025-03-26 15h16.20.970922 +0000,
cube_r.png,0.1,0.31,valid,29,29,0,down,1.5191416000016034,None,space,0.37402869993820786,None,,,,,,,,,0,29,29,29,684.8320383001119,,,,,,,,,,,,,684.8174177999608,684.8320383001119,684.8320383001119,684.8320383001119,686.3645713999867,,,,686.3729538999032,686.3827841000166,686.3827841000166,686.4304605999496,686.4306934999768,686.4471931001171,686.4471931001171,686.4471931001171,686.530184000032,686.8303545000963,,,,,,,,,,,,,,,,,,,,,,down,1.5191416000016034,None,space,0.37402869993820786,None,P135,001,2025-03-26_15h16.14.121,posner_endo_new1,2024.2.4,60.009421536949056,2025-03-26 15h16.20.970922 +0000,
cube_r.png,0.1,0.31,valid,30,30,0,down,1.6248265998438,None,space,0.559522100025788,None,,,,,,,,,0,30,30,30,686.8460719001014,,,,,,,,,,,,,686.8305403999984,686.8460719001014,686.8460719001014,686.8460719001014,688.4807651999872,,,,688.5007959001232,688.5109129999764,688.5109129999764,688.544491100125,688.5448906000238,688.5610190001316,688.5610190001316,688.5610190001316,688.6444016001187,689.1288709999062,,,,,,,,,,,,,,,,,,,,,,down,1.6248265998438,None,space,0.559522100025788,None,P135,001,2025-03-26_15h16.14.121,posner_endo_new1,2024.2.4,60.009421536949056,2025-03-26 15h16.20.970922 +0000,
cube_l.png,0.1,-0.31,valid,31,31,0,down,9.431063399882987,None,space,0.5234872999135405,None,,,,,,,,,0,31,31,31,689.1438492001034,,,,,,,,,,,,,689.1292507001199,689.1438492001034,689.1438492001034,689.1438492001034,698.585146700032,,,,698.5944381000008,698.6048034001142,698.6048034001142,698.6509392999578,698.6512444000691,698.6678057000972,698.6678057000972,698.6678057000972,698.7339717000723,699.2008130999748,,,,,,,,,,,,,,,,,,,,,,down,9.431063399882987,None,space,0.5234872999135405,None,P135,001,2025-03-26_15h16.14.121,posner_endo_new1,2024.2.4,60.009421536949056,2025-03-26 15h16.20.970922 +0000,
cube_r.png,0.1,0.31,valid,32,32,0,down,1.4855138000566512,None,space,0.5066835000179708,None,,,,,,,,,0,32,32,32,699.217270599911,,,,,,,,,,,,,699.2010194999166,699.217270599911,699.217270599911,699.217270599911,700.7181240001228,,,,700.738864999963,700.7487693999428,700.7487693999428,700.7818899999838,700.7822322999127,700.7989304000512,700.7989304000512,700.7989304000512,700.8817467000335,701.3158352999017,,,,,,,,,,,,,,,,,,,,,,down,1.4855138000566512,None,space,0.5066835000179708,None,P135,001,2025-03-26_15h16.14.121,posner_endo_new1,2024.2.4,60.009421536949056,2025-03-26 15h16.20.970922 +0000,
cube_r.png,0.1,-0.31,invalid,33,33,0,down,1.6600111001171172,None,space,0.2832512999884784,None,,,,,,,,,0,33,33,33,701.3313035001047,,,,,,,,,,,,,701.3161315000616,701.3313035001047,701.3313035001047,701.3313035001047,702.9976184000261,,,,703.0087625999004,703.0189741000067,703.0189741000067,703.0630850000307,703.063429000089,703.0797963000368,703.0797963000368,703.0797963000368,703.1631738001015,703.3641957000364,,,,,,,,,,,,,,,,,,,,,,down,1.6600111001171172,None,space,0.2832512999884784,None,P135,001,2025-03-26_15h16.14.121,posner_endo_new1,2024.2.4,60.009421536949056,2025-03-26 15h16.20.970922 +0000,
cube_r.png,0.1,10,catch,34,34,0,down,3.0514380999375135,None,None,,,,,,,,,,,0,34,34,34,703.3792419000529,,,,,,,,,,,,,703.3644878000487,703.3792419000529,703.3792419000529,703.3792419000529,706.4442378999665,,,,706.4554556999356,706.4657223999966,706.4657223999966,706.5098127999809,706.5101578000467,706.5262192999944,706.5262192999944,706.5262192999944,706.6093735999893,709.5239651000593,,,,,,,708.6242690000217,709.5399299999699,709.5399299999699,709.5399299999699,,,,,,,,,,,,down,3.0514380999375135,None,None,,,P135,001,2025-03-26_15h16.14.121,posner_endo_new1,2024.2.4,60.009421536949056,2025-03-26 15h16.20.970922 +0000,
cube_r.png,0.1,0.31,valid,35,35,0,down,0.09915659995749593,None,space,0.3766733000520617,None,,,,,,,,,0,35,35,35,709.5399299999699,,,,,,,,,,,,,709.5242423000745,709.5399299999699,709.5399299999699,709.5399299999699,709.6411594999954,,,,709.6511188999284,709.6608396999072,709.6608396999072,709.7060700000729,709.7063188001048,709.7231008000672,709.7231008000672,709.7231008000672,709.806514200056,710.1080042999238,,,,,,,,,,,,,,,,,,,,,,down,0.09915659995749593,None,space,0.3766733000520617,None,P135,001,2025-03-26_15h16.14.121,posner_endo_new1,2024.2.4,60.009421536949056,2025-03-26 15h16.20.970922 +0000,
cube_r.png,0.1,-0.31,invalid,36,36,0,down,4.84428899991326,None,space,0.46590809989720583,None,,,,,,,,,0,36,36,36,710.1226282999851,,,,,,,,,,,,,710.1084835000802,710.1226282999851,710.1226282999851,710.1226282999851,714.9696422999259,,,,714.9874323999975,714.9981184999924,714.9981184999924,715.0345767999534,715.0349211001303,715.0507251000963,715.0507251000963,715.0507251000963,715.1337989999447,715.5180337999482,,,,,,,,,,,,,,,,,,,,,,down,4.84428899991326,None,space,0.46590809989720583,None,P135,001,2025-03-26_15h16.14.121,posner_endo_new1,2024.2.4,60.009421536949056,2025-03-26 15h16.20.970922 +0000,
cube_l.png,0.1,0.31,invalid,37,37,0,down,1.777155099902302,None,space,0.38653640006668866,None,,,,,,,,,0,37,37,37,715.5338977999054,,,,,,,,,,,,,715.5183292999864,715.5338977999054,715.5338977999054,715.5338977999054,717.3162638999056,,,,717.3273799000308,717.3375663000625,717.3375663000625,717.3821082001086,717.3824476001319,717.3983352999203,717.3983352999203,717.3983352999203,717.4814512000885,717.7989087000024,,,,,,,,,,,,,,,,,,,,,,down,1.777155099902302,None,space,0.38653640006668866,None,P135,001,2025-03-26_15h16.14.121,posner_endo_new1,2024.2.4,60.009421536949056,2025-03-26 15h16.20.970922 +0000,
cube_l.png,0.1,0.31,invalid,38,38,0,down,4.087844799971208,None,space,0.4079605999868363,None,,,,,,,,,0,38,38,38,717.8147835000418,,,,,,,,,,,,,717.7992030999158,717.8147835000418,717.8147835000418,717.8147835000418,721.9117429000326,,,,721.921036799904,721.9310659999028,721.9310659999028,721.9772296000738,721.9774746000767,721.9939186000265,721.9939186000265,721.9939186000265,722.0768164000474,722.4108615000732,,,,,,,,,,,,,,,,,,,,,,down,4.087844799971208,None,space,0.4079605999868363,None,P135,001,2025-03-26_15h16.14.121,posner_endo_new1,2024.2.4,60.009421536949056,2025-03-26 15h16.20.970922 +0000,
cube_r.png,0.1,0.31,valid,39,39,0,down,6.363637800095603,None,space,0.37775289989076555,None,,,,,,,,,0,39,39,39,722.4267178999726,,,,,,,,,,,,,722.4110781000927,722.4267178999726,722.4267178999726,722.4267178999726,728.8062358999159,,,,728.8246877999045,728.8349701000843,728.8349701000843,728.870070300065,728.8705059001222,728.886423900025,728.886423900025,728.886423900025,728.9697553999722,729.2703337999992,,,,,,,,,,,,,,,,,,,,,,down,6.363637800095603,None,space,0.37775289989076555,None,P135,001,2025-03-26_15h16.14.121,posner_endo_new1,2024.2.4,60.009421536949056,2025-03-26 15h16.20.970922 +0000,
cube_l.png,0.1,0.31,invalid,40,40,0,down,1.344497499987483,None,space,0.49201059993356466,None,,,,,,,,,0,40,40,40,729.286068599904,,,,,,,,,,,,,729.2706047999673,729.286068599904,729.286068599904,729.286068599904,730.6357112000696,,,,730.6449176000897,730.6552287999075,730.6552287999075,730.7017199001275,730.7020201999694,730.7182263999712,730.7182263999712,730.7182263999712,730.7845274000429,731.2185682000127,,,,,,,,,,,,,,,,,,,,,,down,1.344497499987483,None,space,0.49201059993356466,None,P135,001,2025-03-26_15h16.14.121,posner_endo_new1,2024.2.4,60.009421536949056,2025-03-26 15h16.20.970922 +0000,
cube_l.png,0.1,10,catch,41,41,0,down,8.012785600032657,None,None,,,,,,,,,,,0,41,41,41,731.2341267999727,,,,,,,,,,,,,731.2188262001146,731.2341267999727,731.2341267999727,731.2341267999727,739.2600748999976,,,,739.2692581999581,739.2793169999495,739.2793169999495,739.3261293999385,739.3263391999062,739.3425044999458,739.3425044999458,739.3425044999458,739.4092938001268,742.3404139999766,,,,,,,741.4241675001103,742.3560001000296,742.3560001000296,742.3560001000296,,,,,,,,,,,,down,8.012785600032657,None,None,,,P135,001,2025-03-26_15h16.14.121,posner_endo_new1,2024.2.4,60.009421536949056,2025-03-26 15h16.20.970922 +0000,
cube_l.png,0.1,-0.31,valid,42,42,0,down,1.1151307001709938,None,space,0.7080927998758852,None,,,,,,,,,0,42,42,42,742.3560001000296,,,,,,,,,,,,,742.3407674001064,742.3560001000296,742.3560001000296,742.3560001000296,743.4730092999525,,,,743.4825633999426,743.4927354000974,743.4927354000974,743.5386133999564,743.5389151000418,743.5548316999339,743.5548316999339,743.5548316999339,743.6380702999886,744.271851599915,,,,,,,,,,,,,,,,,,,,,,down,1.1151307001709938,None,space,0.7080927998758852,None,P135,001,2025-03-26_15h16.14.121,posner_endo_new1,2024.2.4,60.009421536949056,2025-03-26 15h16.20.970922 +0000,
cube_l.png,0.1,10,catch,43,43,0,down,5.015052899951115,None,None,,,,,,,,,,,0,43,43,43,744.287763300119,,,,,,,,,,,,,744.2721071999986,744.287763300119,744.287763300119,744.287763300119,749.3170668000821,,,,749.3265982000157,749.3366781999357,749.3366781999357,749.3823186000809,749.3826218000613,749.3990817999002,749.3990817999002,749.3990817999002,749.4824947000016,752.3963516000658,,,,,,,751.4970253999345,752.4126379999798,752.4126379999798,752.4126379999798,,,,,,,,,,,,down,5.015052899951115,None,None,,,P135,001,2025-03-26_15h16.14.121,posner_endo_new1,2024.2.4,60.009421536949056,2025-03-26 15h16.20.970922 +0000,
cube_l.png,0.1,0.31,invalid,44,44,0,down,2.3225320000201464,None,space,0.5230586999095976,None,,,,,,,,,0,44,44,44,752.4126379999798,,,,,,,,,,,,,752.3965889001265,752.4126379999798,752.4126379999798,752.4126379999798,754.7442632999737,,,,754.7538423000369,754.7641288000159,754.7641288000159,754.8101437999867,754.8104481000919,754.8268740999047,754.8268740999047,754.8268740999047,754.9098300000187,755.3606678999495,,,,,,,,,,,,,,,,,,,,,,down,2.3225320000201464,None,space,0.5230586999095976,None,P135,001,2025-03-26_15h16.14.121,posner_endo_new1,2024.2.4,60.009421536949056,2025-03-26 15h16.20.970922 +0000,
cube_l.png,0.1,0.31,invalid,45,45,0,down,1.6229711999185383,None,space,0.5534884000662714,None,,,,,,,,,0,45,45,45,755.3760957000777,,,,,,,,,,,,,755.3609281999525,755.3760957000777,755.3760957000777,755.3760957000777,757.0088319999631,,,,757.0183671000414,757.0306460999418,757.0306460999418,757.0751434999984,757.0757854999974,757.0914364999626,757.0914364999626,757.0914364999626,757.1581135999877,757.6599536000285,,,,,,,,,,,,,,,,,,,,,,down,1.6229711999185383,None,space,0.5534884000662714,None,P135,001,2025-03-26_15h16.14.121,posner_endo_new1,2024.2.4,60.009421536949056,2025-03-26 15h16.20.970922 +0000,
cube_r.png,0.1,0.31,valid,46,46,0,down,11.044127200031653,None,space,0.4946324999909848,None,,,,,,,,,0,46,46,46,757.6743133999407,,,,,,,,,,,,,757.6605569000822,757.6743133999407,757.6743133999407,757.6743133999407,768.7312819999643,,,,768.7488243000116,768.7590846000239,768.7590846000239,768.7957323000301,768.7960763999727,768.8127528000623,768.8127528000623,768.8127528000623,768.8955494000111,769.3146236001048,,,,,,,,,,,,,,,,,,,,,,down,11.044127200031653,None,space,0.4946324999909848,None,P135,001,2025-03-26_15h16.14.121,posner_endo_new1,2024.2.4,60.009421536949056,2025-03-26 15h16.20.970922 +0000,
cube_l.png,0.1,-0.31,valid,47,47,0,down,1.3821245001163334,None,space,0.7297686000820249,None,,,,,,,,,0,47,47,47,769.3290442000143,,,,,,,,,,,,,769.3152185000945,769.3290442000143,769.3290442000143,769.3290442000143,770.7136238999665,,,,770.7365357999224,770.7486481999513,770.7486481999513,770.777083999943,770.7775230000261,770.79372470011,770.79372470011,770.79372470011,770.8768174999859,771.5277917999774,,,,,,,,,,,,,,,,,,,,,,down,1.3821245001163334,None,space,0.7297686000820249,None,P135,001,2025-03-26_15h16.14.121,posner_endo_new1,2024.2.4,60.009421536949056,2025-03-26 15h16.20.970922 +0000,
cube_r.png,0.1,-0.31,invalid,48,48,0,down,1.2800588998943567,None,space,0.5196579000912607,None,,,,,,,,,0,48,48,48,771.5428778000642,,,,,,,,,,,,,771.5281795000192,771.5428778000642,771.5428778000642,771.5428778000642,772.8260051000398,,,,772.8353089999873,772.8454972000327,772.8454972000327,772.8918018999975,772.8922314001247,772.9081230999436,772.9081230999436,772.9081230999436,772.9913629000075,773.4417944001034,,,,,,,,,,,,,,,,,,,,,,down,1.2800588998943567,None,space,0.5196579000912607,None,P135,001,2025-03-26_15h16.14.121,posner_endo_new1,2024.2.4,60.009421536949056,2025-03-26 15h16.20.970922 +0000,
cube_r.png,0.1,10,catch,49,49,0,down,3.469378500012681,None,None,,,,,,,,,,,0,49,49,49,773.4575839000754,,,,,,,,,,,,,773.4420491000637,773.4575839000754,773.4575839000754,773.4575839000754,776.9386060999241,,,,776.9479370999616,776.9581681999844,776.9581681999844,777.0039947000332,777.0042987999041,777.0207368999254,777.0207368999254,777.0207368999254,777.1039287999738,780.0181456999853,,,,,,,779.1184354000725,780.0340631001163,780.0340631001163,780.0340631001163,,,,,,,,,,,,down,3.469378500012681,None,None,,,P135,001,2025-03-26_15h16.14.121,posner_endo_new1,2024.2.4,60.009421536949056,2025-03-26 15h16.20.970922 +0000,
cube_l.png,0.1,-0.31,valid,50,50,0,down,1.2291397999506444,None,space,0.4683274000417441,None,,,,,,,,,0,50,50,50,780.0340631001163,,,,,,,,,,,,,780.0183812999167,780.0340631001163,780.0340631001163,780.0340631001163,781.2673406000249,,,,781.276690900093,781.2868009000085,781.2868009000085,781.3329417000059,781.3332484001294,781.3497091999743,781.3497091999743,781.3497091999743,781.4160760999657,781.833260100102,,,,,,,,,,,,,,,,,,,,,,down,1.2291397999506444,None,space,0.4683274000417441,None,P135,001,2025-03-26_15h16.14.121,posner_endo_new1,2024.2.4,60.009421536949056,2025-03-26 15h16.20.970922 +0000,
cube_l.png,0.1,-0.31,valid,51,51,0,down,1.7652819999493659,None,space,0.5009233001619577,None,,,,,,,,,0,51,51,51,781.8490599000361,,,,,,,,,,,,,781.8335142999422,781.8490599000361,781.8490599000361,781.8490599000361,783.6153625000734,,,,783.6248544000555,783.6350436999928,783.6350436999928,783.6805118001066,783.680810800055,783.6973842000589,783.6973842000589,783.6973842000589,783.7803406999446,784.2146775000729,,,,,,,,,,,,,,,,,,,,,,down,1.7652819999493659,None,space,0.5009233001619577,None,P135,001,2025-03-26_15h16.14.121,posner_endo_new1,2024.2.4,60.009421536949056,2025-03-26 15h16.20.970922 +0000,
cube_r.png,0.1,-0.31,invalid,52,52,0,down,2.5924943999852985,None,space,0.46121550002135336,None,,,,,,,,,0,52,52,52,784.2298389000352,,,,,,,,,,,,,784.2149332999252,784.2298389000352,784.2298389000352,784.2298389000352,786.8282741000876,,,,786.8375953999348,786.8492304999381,786.8492304999381,786.8945641000755,786.8952122000046,786.9109014999121,786.9109014999121,786.9109014999121,786.9775537999813,787.3798897999804,,,,,,,,,,,,,,,,,,,,,,down,2.5924943999852985,None,space,0.46121550002135336,None,P135,001,2025-03-26_15h16.14.121,posner_endo_new1,2024.2.4,60.009421536949056,2025-03-26 15h16.20.970922 +0000,
cube_l.png,0.1,-0.31,valid,53,53,0,down,5.308625599835068,None,space,0.4415744999423623,None,,,,,,,,,0,53,53,53,787.3940771000925,,,,,,,,,,,,,787.3805062999018,787.3940771000925,787.3940771000925,787.3940771000925,792.7075394000858,,,,792.7299838000908,792.7422353001311,792.7422353001311,792.7713442000095,792.7717947999481,792.787785399938,792.787785399938,792.787785399938,792.8710338000674,793.2389770001173,,,,,,,,,,,,,,,,,,,,,,down,5.308625599835068,None,space,0.4415744999423623,None,P135,001,2025-03-26_15h16.14.121,posner_endo_new1,2024.2.4,60.009421536949056,2025-03-26 15h16.20.970922 +0000,
cube_r.png,0.1,10,catch,54,54,0,down,1.6807433001231402,None,None,,,,,,,,,,,0,54,54,54,793.2539353000466,,,,,,,,,,,,,793.2393569000997,793.2539353000466,793.2539353000466,793.2539353000466,794.9367144000717,,,,794.9460225999355,794.9562623000238,794.9562623000238,795.0025526999962,795.0028621999081,795.0189559999853,795.0189559999853,795.0189559999853,795.1021334999241,798.0163108000997,,,,,,,797.1166403000243,798.0327648001257,798.0327648001257,798.0327648001257,,,,,,,,,,,,down,1.6807433001231402,None,None,,,P135,001,2025-03-26_15h16.14.121,posner_endo_new1,2024.2.4,60.009421536949056,2025-03-26 15h16.20.970922 +0000,
cube_l.png,0.1,0.31,invalid,55,55,0,down,1.1023732998874038,None,space,0.4492347000632435,None,,,,,,,,,0,55,55,55,798.0327648001257,,,,,,,,,,,,,798.0165490999352,798.0327648001257,798.0327648001257,798.0327648001257,799.1492624001112,,,,799.1586601999588,799.1687721000053,799.1687721000053,799.2150236000307,799.215330200037,799.2311400999315,799.2311400999315,799.2311400999315,799.3147011999972,799.6822728000116,,,,,,,,,,,,,,,,,,,,,,down,1.1023732998874038,None,space,0.4492347000632435,None,P135,001,2025-03-26_15h16.14.121,posner_endo_new1,2024.2.4,60.009421536949056,2025-03-26 15h16.20.970922 +0000,
cube_l.png,0.1,-0.31,valid,56,56,0,down,5.053276299964637,None,space,0.4275390999391675,None,,,,,,,,,0,56,56,56,799.6975237000734,,,,,,,,,,,,,799.682538199937,799.6975237000734,799.6975237000734,799.6975237000734,804.7602530999575,,,,804.7696636999026,804.7798339000437,804.7798339000437,804.8257379001006,804.8260375000536,804.8421942999121,804.8421942999121,804.8421942999121,804.9253825000487,805.2759342000354,,,,,,,,,,,,,,,,,,,,,,down,5.053276299964637,None,space,0.4275390999391675,None,P135,001,2025-03-26_15h16.14.121,posner_endo_new1,2024.2.4,60.009421536949056,2025-03-26 15h16.20.970922 +0000,
cube_r.png,0.1,0.31,valid,57,57,0,down,4.314993200125173,None,space,0.26755090011283755,None,,,,,,,,,0,57,57,57,805.2916538999416,,,,,,,,,,,,,805.2761890999973,805.2916538999416,805.2916538999416,805.2916538999416,809.6219277000055,,,,809.6313561000861,809.6416098000482,809.6416098000482,809.6872769000474,809.6875837000553,809.703906300012,809.703906300012,809.703906300012,809.7870467999019,809.9878871999681,,,,,,,,,,,,,,,,,,,,,,down,4.314993200125173,None,space,0.26755090011283755,None,P135,001,2025-03-26_15h16.14.121,posner_endo_new1,2024.2.4,60.009421536949056,2025-03-26 15h16.20.970922 +0000,
cube_r.png,0.1,-0.31,invalid,58,58,0,down,1.7075345001649112,None,space,0.41603640001267195,None,,,,,,,,,0,58,58,58,810.0034841001034,,,,,,,,,,,,,809.9881420000456,810.0034841001034,810.0034841001034,810.0034841001034,811.7196927999612,,,,811.7291077000555,811.739361200016,811.739361200016,811.7854939000681,811.7857924001291,811.8018211000599,811.8018211000599,811.8018211000599,811.8852015999146,812.2192734999117,,,,,,,,,,,,,,,,,,,,,,down,1.7075345001649112,None,space,0.41603640001267195,None,P135,001,2025-03-26_15h16.14.121,posner_endo_new1,2024.2.4,60.009421536949056,2025-03-26 15h16.20.970922 +0000,
cube_l.png,0.1,0.31,invalid,59,59,0,down,6.156693999888375,None,space,0.42433819989673793,None,,,,,,,,,0,59,59,59,812.2344794999808,,,,,,,,,,,,,812.2195363999344,812.2344794999808,812.2344794999808,812.2344794999808,818.3960480000824,,,,818.4054334999528,818.416007499909,818.416007499909,818.4619650999084,818.4622712999117,818.4786000000313,818.4786000000313,818.4786000000313,818.5449137999676,818.9120768001303,,,,,,,,,,,,,,,,,,,,,,down,6.156693999888375,None,space,0.42433819989673793,None,P135,001,2025-03-26_15h16.14.121,posner_endo_new1,2024.2.4,60.009421536949056,2025-03-26 15h16.20.970922 +0000,
