cue_img,cue_soa,target_x,trial,thisN,thisTrialN,thisRepN,key_control2.keys,key_control2.rt,key_control2.duration,key_resp.keys,key_resp.rt,key_resp.duration,practice.thisRepN,practice.thisTrialN,practice.thisN,practice.thisIndex,block1.thisRepN,block1.thisTrialN,block1.thisN,block1.thisIndex,block2.thisRepN,block2.thisTrialN,block2.thisN,block2.thisIndex,thisRow.t,notes,instructions.started,instructions_txt.started,key_control.started,instructions.stopped,key_control.keys,key_control.rt,key_control.duration,ready.started,ready_txt.started,ready_txt.stopped,ready.stopped,fix.started,fixation.started,key_control2.started,fixation_cross.started,fix.stopped,practice.key_control2.keys,practice.key_control2.rt,practice.key_control2.duration,cue.started,cube.started,fixation_cross_cue.started,cue.stopped,target.started,fixation_target.started,fixation_cross_target.started,key_resp.started,star.started,star.stopped,fixation_target.stopped,fixation_cross_target.stopped,key_resp.stopped,target.stopped,practice.key_resp.keys,practice.key_resp.rt,practice.key_resp.duration,block1.key_control2.keys,block1.key_control2.rt,block1.key_control2.duration,block1.key_resp.keys,block1.key_resp.rt,block1.key_resp.duration,break_2.started,text.started,key_control3.started,text.stopped,break_2.stopped,key_control3.keys,key_control3.rt,key_control3.duration,block2.key_control2.keys,block2.key_control2.rt,block2.key_control2.duration,block2.key_resp.keys,block2.key_resp.rt,block2.key_resp.duration,participant,session,date,expName,psychopyVersion,frameRate,expStart,
,,,,,,,,,,,,,,,,,,,,,,,,,,,0.0074414999689906836,0.0198490999173373,0.0198490999173373,5.089704900048673,up,5.056281199911609,None,,,,,,,,,,,,,,,,,,,,,,,,,,,,,,,,,,,,,,,,,,,,,,,,,,P136,001,2025-03-26_16h13.01.773,posner_endo_new1,2024.2.4,59.9887221460989,2025-03-26 16h13.08.981912 +0000,
,,,,,,,,,,,,,,,,,,,,,,,,,,,,,,,,,,5.0898197998758405,5.100772999925539,8.114791400032118,8.077934500062838,,,,,,,,,,,,,,,,,,,,,,,,,,,,,,,,,,,,,,,,,,,,,,P136,001,2025-03-26_16h13.01.773,posner_endo_new1,2024.2.4,59.9887221460989,2025-03-26 16h13.08.981912 +0000,
cube_r.png,0.1,10,catch,0,0,0,down,23.57015009992756,None,None,,,0,0,0,3,,,,,,,,,8.114791400032118,,,,,,,,,,,,,8.102563299937174,8.114791400032118,8.114791400032118,8.114791400032118,31.687013699905947,down,23.57015009992756,None,31.709549200022593,31.719809599919245,31.719809599919245,31.752402799902484,31.75262190005742,31.76891790004447,31.76891790004447,31.76891790004447,31.852108699968085,33.86660369997844,34.78236519987695,34.78236519987695,34.78236519987695,34.76609420008026,None,,,,,,,,,,,,,,,,,,,,,,,P136,001,2025-03-26_16h13.01.773,posner_endo_new1,2024.2.4,59.9887221460989,2025-03-26 16h13.08.981912 +0000,
cube_r.png,0.1,0.31,valid,1,1,0,down,5.390142200049013,None,space,0.3732276998925954,None,0,1,1,7,,,,,,,,,34.78236519987695,,,,,,,,,,,,,34.766301499912515,34.78236519987695,34.78236519987695,34.78236519987695,40.17779510002583,down,5.390142200049013,None,40.1864008998964,40.19667669991031,40.19667669991031,40.24352649995126,40.24380899989046,40.260167700005695,40.260167700005695,40.260167700005695,40.34334779996425,,,,,40.64403519988991,space,0.3732276998925954,None,,,,,,,,,,,,,,,,,,,,,P136,001,2025-03-26_16h13.01.773,posner_endo_new1,2024.2.4,59.9887221460989,2025-03-26 16h13.08.981912 +0000,
cube_l.png,0.1,-0.31,valid,2,2,0,down,3.7524368001613766,None,space,0.44164490001276135,None,0,2,2,4,,,,,,,,,40.659769099904224,,,,,,,,,,,,,40.64425459993072,40.659769099904224,40.659769099904224,40.659769099904224,44.42344669997692,down,3.7524368001613766,None,44.432939499849454,44.44306920003146,44.44306920003146,44.489214200060815,44.48949579987675,44.50585429999046,44.50585429999046,44.50585429999046,44.58905169996433,,,,,44.95627269987017,space,0.44164490001276135,None,,,,,,,,,,,,,,,,,,,,,P136,001,2025-03-26_16h13.01.773,posner_endo_new1,2024.2.4,59.9887221460989,2025-03-26 16h13.08.981912 +0000,
cube_l.png,0.1,-0.31,valid,3,3,0,down,5.911779999965802,None,space,0.37417609989643097,None,0,3,3,0,,,,,,,,,44.972110899863765,,,,,,,,,,,,,44.956496299942955,44.972110899863765,44.972110899863765,44.972110899863765,50.90025099995546,down,5.911779999965802,None,50.90869620000012,50.9190100999549,50.9190100999549,50.96584780002013,50.96613009995781,50.982573699904606,50.982573699904606,50.982573699904606,51.06563559989445,,,,,51.36620579985902,space,0.37417609989643097,None,,,,,,,,,,,,,,,,,,,,,P136,001,2025-03-26_16h13.01.773,posner_endo_new1,2024.2.4,59.9887221460989,2025-03-26 16h13.08.981912 +0000,
cube_l.png,0.1,0.31,invalid,4,4,0,down,4.501778099918738,None,space,0.39947539987042546,None,0,4,4,5,,,,,,,,,51.38213309994899,,,,,,,,,,,,,51.36636719992384,51.38213309994899,51.38213309994899,51.38213309994899,55.89510850002989,down,4.501778099918738,None,55.90349429985508,55.91390659986064,55.91390659986064,55.96076159994118,55.961046299897134,55.9774930998683,55.9774930998683,55.9774930998683,56.06063589989208,,,,,56.37807219987735,space,0.39947539987042546,None,,,,,,,,,,,,,,,,,,,,,P136,001,2025-03-26_16h13.01.773,posner_endo_new1,2024.2.4,59.9887221460989,2025-03-26 16h13.08.981912 +0000,
cube_r.png,0.1,-0.31,invalid,5,5,0,down,5.698184600099921,None,space,0.4115778000559658,None,0,5,5,6,,,,,,,,,56.3936178998556,,,,,,,,,,,,,56.378292199922726,56.3936178998556,56.3936178998556,56.3936178998556,62.10532599990256,down,5.698184600099921,None,62.11380199994892,62.12419390003197,62.12419390003197,62.171166599961,62.17145560006611,62.18770890007727,62.18770890007727,62.18770890007727,62.27098500006832,,,,,62.60511639993638,space,0.4115778000559658,None,,,,,,,,,,,,,,,,,,,,,P136,001,2025-03-26_16h13.01.773,posner_endo_new1,2024.2.4,59.9887221460989,2025-03-26 16h13.08.981912 +0000,
cube_r.png,0.1,-0.31,invalid,6,6,0,down,4.631255999905989,None,space,0.3676388000603765,None,0,6,6,9,,,,,,,,,62.62064910004847,,,,,,,,,,,,,62.60533949988894,62.62064910004847,62.62064910004847,62.62064910004847,67.26676999987103,down,4.631255999905989,None,67.27520169992931,67.28539670002647,67.28539670002647,67.33259020000696,67.33287549996749,67.34913380001672,67.34913380001672,67.34913380001672,67.4323603999801,,,,,67.73309260001406,space,0.3676388000603765,None,,,,,,,,,,,,,,,,,,,,,P136,001,2025-03-26_16h13.01.773,posner_endo_new1,2024.2.4,59.9887221460989,2025-03-26 16h13.08.981912 +0000,
cube_r.png,0.1,-0.31,invalid,7,7,0,down,5.959579600021243,None,space,0.41681810002774,None,0,7,7,2,,,,,,,,,67.74873779993504,,,,,,,,,,,,,67.73331939987838,67.74873779993504,67.74873779993504,67.74873779993504,73.71037249988876,down,5.959579600021243,None,73.71876429999247,73.72897409996949,73.72897409996949,73.77606089995243,73.77634330000728,73.79257069993764,73.79257069993764,73.79257069993764,73.87571829999797,,,,,74.22634360007942,space,0.41681810002774,None,,,,,,,,,,,,,,,,,,,,,P136,001,2025-03-26_16h13.01.773,posner_endo_new1,2024.2.4,59.9887221460989,2025-03-26 16h13.08.981912 +0000,
cube_l.png,0.1,-0.31,valid,8,8,0,down,5.793704600073397,None,space,0.4103228999301791,None,0,8,8,8,,,,,,,,,74.2421007999219,,,,,,,,,,,,,74.22657809988596,74.2421007999219,74.2421007999219,74.2421007999219,80.0371610999573,down,5.793704600073397,None,80.04556049988605,80.0558994000312,80.0558994000312,80.10279559995979,80.10307539999485,80.11940349987708,80.11940349987708,80.11940349987708,80.20258520008065,,,,,80.53654180001467,space,0.4103228999301791,None,,,,,,,,,,,,,,,,,,,,,P136,001,2025-03-26_16h13.01.773,posner_endo_new1,2024.2.4,59.9887221460989,2025-03-26 16h13.08.981912 +0000,
cube_l.png,0.1,0.31,invalid,9,9,0,down,6.811694300035015,None,space,0.4194383998401463,None,0,9,9,1,,,,,,,,,80.55237399996258,,,,,,,,,,,,,80.53676469996572,80.55237399996258,80.55237399996258,80.55237399996258,87.37952569988556,down,6.811694300035015,None,87.38798010000028,87.39833249989897,87.39833249989897,87.44537550001405,87.4456531999167,87.46182919992134,87.46182919992134,87.46182919992134,87.54517060006037,,,,,87.89577939989977,space,0.4194383998401463,None,,,,,,,,,,,,,,,,,,,,,P136,001,2025-03-26_16h13.01.773,posner_endo_new1,2024.2.4,59.9887221460989,2025-03-26 16h13.08.981912 +0000,
cube_r.png,0.1,0.31,valid,10,10,0,down,10.72446439997293,None,space,0.3626488000154495,None,0,10,10,10,,,,,,,,,87.91138529987074,,,,,,,,,,,,,87.89599650003947,87.91138529987074,87.91138529987074,87.91138529987074,98.65143379988149,down,10.72446439997293,None,98.65984959993511,98.67003919999115,98.67003919999115,98.7172093000263,98.71748899994418,98.7336194999516,98.7336194999516,98.7336194999516,98.81687429989688,,,,,99.10111010004766,space,0.3626488000154495,None,,,,,,,,,,,,,,,,,,,,,P136,001,2025-03-26_16h13.01.773,posner_endo_new1,2024.2.4,59.9887221460989,2025-03-26 16h13.08.981912 +0000,
,,,,,,,,,,,,,,,,,,,,,,,,,,,,,,,,,,99.10126179992221,99.11652889987454,102.1172898998484,102.09725199989043,,,,,,,,,,,,,,,,,,,,,,,,,,,,,,,,,,,,,,,,,,,,,,P136,001,2025-03-26_16h13.01.773,posner_endo_new1,2024.2.4,59.9887221460989,2025-03-26 16h13.08.981912 +0000,
cube_l.png,0.1,10,catch,0,0,0,down,3.4231141000054777,None,None,,,,,,,0,0,0,0,,,,,102.1172898998484,,,,,,,,,,,,,102.10834069992416,102.1172898998484,102.1172898998484,102.1172898998484,105.5441950999666,,,,105.55089159985073,105.56245659990236,105.56245659990236,105.61020220001228,105.61042389995418,105.62675089994445,105.62675089994445,105.62675089994445,105.6931745999027,107.70783069985919,108.64024350000545,108.64024350000545,108.64024350000545,108.62398130004294,,,,down,3.4231141000054777,None,None,,,,,,,,,,,,,,,,,P136,001,2025-03-26_16h13.01.773,posner_endo_new1,2024.2.4,59.9887221460989,2025-03-26 16h13.08.981912 +0000,
cube_l.png,0.1,10,catch,1,1,0,down,1.9153873000759631,None,None,,,,,,,0,1,1,1,,,,,108.64024350000545,,,,,,,,,,,,,108.62413949985057,108.64024350000545,108.64024350000545,108.64024350000545,110.57232260005549,,,,110.57887890003622,110.59039349993691,110.59039349993691,110.63819490000606,110.63841419992968,110.65493960003369,110.65493960003369,110.65493960003369,110.72148979990743,112.73603560007177,113.66849499987438,113.66849499987438,113.66849499987438,113.65220190002583,,,,down,1.9153873000759631,None,None,,,,,,,,,,,,,,,,,P136,001,2025-03-26_16h13.01.773,posner_endo_new1,2024.2.4,59.9887221460989,2025-03-26 16h13.08.981912 +0000,
cube_l.png,0.1,0.31,invalid,2,2,0,down,3.624226500047371,None,space,0.4356380000244826,None,,,,,0,2,2,2,,,,,113.66849499987438,,,,,,,,,,,,,113.65236249985173,113.66849499987438,113.66849499987438,113.66849499987438,117.29876999999397,,,,117.30498129990883,117.31671839999035,117.31671839999035,117.36472499999218,117.36494889995083,117.38133169990033,117.38133169990033,117.38133169990033,117.44790759985335,,,,,117.83154939999804,,,,down,3.624226500047371,None,space,0.4356380000244826,None,,,,,,,,,,,,,,,P136,001,2025-03-26_16h13.01.773,posner_endo_new1,2024.2.4,59.9887221460989,2025-03-26 16h13.08.981912 +0000,
cube_l.png,0.1,0.31,invalid,3,3,0,down,5.141078799962997,None,space,0.4914300001692027,None,,,,,0,3,3,3,,,,,117.84744819998741,,,,,,,,,,,,,117.83172690006904,117.84744819998741,117.84744819998741,117.84744819998741,122.99298830004409,,,,122.99882019986399,123.01044410001487,123.01044410001487,123.05897790007293,123.05919639999047,123.07550629996695,123.07550629996695,123.07550629996695,123.14202310005203,,,,,123.5757750000339,,,,down,5.141078799962997,None,space,0.4914300001692027,None,,,,,,,,,,,,,,,P136,001,2025-03-26_16h13.01.773,posner_endo_new1,2024.2.4,59.9887221460989,2025-03-26 16h13.08.981912 +0000,
cube_l.png,0.1,-0.31,valid,4,4,0,down,5.4846955998800695,None,space,0.3949939999729395,None,,,,,0,4,4,4,,,,,123.59168710000813,,,,,,,,,,,,,123.5759455000516,123.59168710000813,123.59168710000813,123.59168710000813,129.0867909998633,,,,129.09268669993617,129.10435059992597,129.10435059992597,129.15270769991912,129.15292560006492,129.16911299992353,129.16911299992353,129.16911299992353,129.25245879986323,,,,,129.56952370004728,,,,down,5.4846955998800695,None,space,0.3949939999729395,None,,,,,,,,,,,,,,,P136,001,2025-03-26_16h13.01.773,posner_endo_new1,2024.2.4,59.9887221460989,2025-03-26 16h13.08.981912 +0000,
cube_r.png,0.1,-0.31,invalid,5,5,0,down,14.43516379990615,None,space,0.4815830001607537,None,,,,,0,5,5,5,,,,,129.5854013999924,,,,,,,,,,,,,129.56969729997218,129.5854013999924,129.5854013999924,129.5854013999924,144.0215809000656,,,,144.02806579996832,144.03978289989755,144.03978289989755,144.0875097999815,144.0877328000497,144.10383290005848,144.10383290005848,144.10383290005848,144.1872268000152,,,,,144.58758220006712,,,,down,14.43516379990615,None,space,0.4815830001607537,None,,,,,,,,,,,,,,,P136,001,2025-03-26_16h13.01.773,posner_endo_new1,2024.2.4,59.9887221460989,2025-03-26 16h13.08.981912 +0000,
cube_r.png,0.1,0.31,valid,6,6,0,down,12.152961899992079,None,space,0.3905464999843389,None,,,,,0,6,6,6,,,,,144.60343170003034,,,,,,,,,,,,,144.5877531999722,144.60343170003034,144.60343170003034,144.60343170003034,156.75838489993475,,,,156.76445159991272,156.77594269998372,156.77594269998372,156.82419409998693,156.82442109985277,156.84055199986324,156.84055199986324,156.84055199986324,156.90745369996876,,,,,157.2413244000636,,,,down,12.152961899992079,None,space,0.3905464999843389,None,,,,,,,,,,,,,,,P136,001,2025-03-26_16h13.01.773,posner_endo_new1,2024.2.4,59.9887221460989,2025-03-26 16h13.08.981912 +0000,
cube_r.png,0.1,-0.31,invalid,7,7,0,down,5.234745499910787,None,space,0.44613850000314415,None,,,,,0,7,7,7,,,,,157.25723439990543,,,,,,,,,,,,,157.24149519996718,157.25723439990543,157.25723439990543,157.25723439990543,162.50248829997145,,,,162.5082980999723,162.5200517999474,162.5200517999474,162.56835499987938,162.56857439992018,162.58504869998433,162.58504869998433,162.58504869998433,162.6516748999711,,,,,163.035373599967,,,,down,5.234745499910787,None,space,0.44613850000314415,None,,,,,,,,,,,,,,,P136,001,2025-03-26_16h13.01.773,posner_endo_new1,2024.2.4,59.9887221460989,2025-03-26 16h13.08.981912 +0000,
cube_l.png,0.1,-0.31,valid,8,8,0,down,6.313128400128335,None,space,0.3637860999442637,None,,,,,0,8,8,8,,,,,163.0511827999726,,,,,,,,,,,,,163.0355440999847,163.0511827999726,163.0511827999726,163.0511827999726,169.37892469996586,,,,169.38485529995523,169.39657290000468,169.39657290000468,169.44479539990425,169.445014399942,169.4613290000707,169.4613290000707,169.4613290000707,169.54453129996546,,,,,169.8281799000688,,,,down,6.313128400128335,None,space,0.3637860999442637,None,,,,,,,,,,,,,,,P136,001,2025-03-26_16h13.01.773,posner_endo_new1,2024.2.4,59.9887221460989,2025-03-26 16h13.08.981912 +0000,
cube_r.png,0.1,-0.31,invalid,9,9,0,down,11.303925200132653,None,space,0.3803463999647647,None,,,,,0,9,9,9,,,,,169.84419879992492,,,,,,,,,,,,,169.82835650001653,169.84419879992492,169.84419879992492,169.84419879992492,181.15022980002686,,,,181.1559230000712,181.16755439992994,181.16755439992994,181.21608030004427,181.2163028998766,181.23272309987806,181.23272309987806,181.23272309987806,181.31577269989066,,,,,181.61619789991528,,,,down,11.303925200132653,None,space,0.3803463999647647,None,,,,,,,,,,,,,,,P136,001,2025-03-26_16h13.01.773,posner_endo_new1,2024.2.4,59.9887221460989,2025-03-26 16h13.08.981912 +0000,
cube_l.png,0.1,0.31,invalid,10,10,0,down,6.523825499927625,None,space,0.5621719001792371,None,,,,,0,10,10,10,,,,,181.63212389987893,,,,,,,,,,,,,181.61636899993755,181.63212389987893,181.63212389987893,181.63212389987893,188.15956999990158,,,,188.16540309996344,188.1767863999121,188.1767863999121,188.22564590000547,188.2258703999687,188.2421527998522,188.2421527998522,188.2421527998522,188.30875579989515,,,,,188.80885789985768,,,,down,6.523825499927625,None,space,0.5621719001792371,None,,,,,,,,,,,,,,,P136,001,2025-03-26_16h13.01.773,posner_endo_new1,2024.2.4,59.9887221460989,2025-03-26 16h13.08.981912 +0000,
cube_r.png,0.1,-0.31,invalid,11,11,0,down,6.572126899845898,None,space,0.37557379994541407,None,,,,,0,11,11,11,,,,,188.82494509988464,,,,,,,,,,,,,188.8090353999287,188.82494509988464,188.82494509988464,188.82494509988464,195.402411499992,,,,195.4082466000691,195.4197166999802,195.4197166999802,195.46820820006542,195.468427099986,195.4846641998738,195.4846641998738,195.4846641998738,195.5679528999608,,,,,195.86827869992703,,,,down,6.572126899845898,None,space,0.37557379994541407,None,,,,,,,,,,,,,,,P136,001,2025-03-26_16h13.01.773,posner_endo_new1,2024.2.4,59.9887221460989,2025-03-26 16h13.08.981912 +0000,
cube_r.png,0.1,0.31,valid,12,12,0,down,5.367539299884811,None,space,0.44602059992030263,None,,,,,0,12,12,12,,,,,195.88442780007608,,,,,,,,,,,,,195.86845399998128,195.88442780007608,195.88442780007608,195.88442780007608,201.26269429991953,,,,201.26856349990703,201.28010990004987,201.28010990004987,201.3288674999494,201.32908970001154,201.34540079999715,201.34540079999715,201.34540079999715,201.41188899986446,,,,,201.7956687998958,,,,down,5.367539299884811,None,space,0.44602059992030263,None,,,,,,,,,,,,,,,P136,001,2025-03-26_16h13.01.773,posner_endo_new1,2024.2.4,59.9887221460989,2025-03-26 16h13.08.981912 +0000,
cube_l.png,0.1,10,catch,13,13,0,down,4.968797900015488,None,None,,,,,,,0,13,13,13,,,,,201.81150449998677,,,,,,,,,,,,,201.79584160004742,201.81150449998677,201.81150449998677,201.81150449998677,206.79039469989948,,,,206.79622050002217,206.80795360007323,206.80795360007323,206.85640050005168,206.8566213999875,206.87287599989213,206.87287599989213,206.87287599989213,206.93962089996785,208.95416700001806,209.88652399997227,209.88652399997227,209.88652399997227,209.8703785999678,,,,down,4.968797900015488,None,None,,,,,,,,,,,,,,,,,P136,001,2025-03-26_16h13.01.773,posner_endo_new1,2024.2.4,59.9887221460989,2025-03-26 16h13.08.981912 +0000,
cube_r.png,0.1,-0.31,invalid,14,14,0,down,8.341409699991345,None,space,0.48280019988305867,None,,,,,0,14,14,14,,,,,209.88652399997227,,,,,,,,,,,,,209.87056419998407,209.88652399997227,209.88652399997227,209.88652399997227,218.22886599996127,,,,218.23472859989852,218.24636129988357,218.24636129988357,218.29472019989043,218.2949387000408,218.31134999985807,218.31134999985807,218.31134999985807,218.39463560003787,,,,,218.79495889996178,,,,down,8.341409699991345,None,space,0.48280019988305867,None,,,,,,,,,,,,,,,P136,001,2025-03-26_16h13.01.773,posner_endo_new1,2024.2.4,59.9887221460989,2025-03-26 16h13.08.981912 +0000,
cube_l.png,0.1,-0.31,valid,15,15,0,down,5.826355200028047,None,space,0.4542785999365151,None,,,,,0,15,15,15,,,,,218.8108127999585,,,,,,,,,,,,,218.79513929993846,218.8108127999585,218.8108127999585,218.8108127999585,224.6390358998906,,,,224.6448516000528,224.65649620001204,224.65649620001204,224.70496180001646,224.7051864999812,224.7214617000427,224.7214617000427,224.7214617000427,224.8048324000556,,,,,225.18836769997142,,,,down,5.826355200028047,None,space,0.4542785999365151,None,,,,,,,,,,,,,,,P136,001,2025-03-26_16h13.01.773,posner_endo_new1,2024.2.4,59.9887221460989,2025-03-26 16h13.08.981912 +0000,
cube_r.png,0.1,10,catch,16,16,0,down,6.207533600041643,None,None,,,,,,,0,16,16,16,,,,,225.20424559991807,,,,,,,,,,,,,225.18853739998303,225.20424559991807,225.20424559991807,225.20424559991807,231.41551279998384,,,,231.42126469989307,231.43266429984942,231.43266429984942,231.4812773000449,231.4814959000796,231.49774529994465,231.49774529994465,231.49774529994465,231.58089690003544,233.59578530001454,234.51142310001887,234.51142310001887,234.51142310001887,234.4946679000277,,,,down,6.207533600041643,None,None,,,,,,,,,,,,,,,,,P136,001,2025-03-26_16h13.01.773,posner_endo_new1,2024.2.4,59.9887221460989,2025-03-26 16h13.08.981912 +0000,
cube_r.png,0.1,10,catch,17,17,0,down,9.164496199926361,None,None,,,,,,,0,17,17,17,,,,,234.51142310001887,,,,,,,,,,,,,234.49483239999972,234.51142310001887,234.51142310001887,234.51142310001887,243.68608879996464,,,,243.69184349989519,243.70338690001518,243.70338690001518,243.751986999996,243.75220680003986,243.76852339995094,243.76852339995094,243.76852339995094,243.83514590002596,245.84986589988694,246.7822342000436,246.7822342000436,246.7822342000436,246.7661294999998,,,,down,9.164496199926361,None,None,,,,,,,,,,,,,,,,,P136,001,2025-03-26_16h13.01.773,posner_endo_new1,2024.2.4,59.9887221460989,2025-03-26 16h13.08.981912 +0000,
cube_l.png,0.1,0.31,invalid,18,18,0,down,2.9737102000508457,None,space,0.4573549998458475,None,,,,,0,18,18,18,,,,,246.7822342000436,,,,,,,,,,,,,246.76629030006006,246.7822342000436,246.7822342000436,246.7822342000436,249.7629491998814,,,,249.7687146998942,249.7803151998669,249.7803151998669,249.82924559991807,249.82946759997867,249.84576869988814,249.84576869988814,249.84576869988814,249.9124336000532,,,,,250.31268929992802,,,,down,2.9737102000508457,None,space,0.4573549998458475,None,,,,,,,,,,,,,,,P136,001,2025-03-26_16h13.01.773,posner_endo_new1,2024.2.4,59.9887221460989,2025-03-26 16h13.08.981912 +0000,
cube_l.png,0.1,10,catch,19,19,0,down,6.316038299817592,None,None,,,,,,,0,19,19,19,,,,,250.32863790006377,,,,,,,,,,,,,250.31285710004158,250.32863790006377,250.32863790006377,250.32863790006377,256.656129400013,,,,256.6619933000766,256.6737019000575,256.6737019000575,256.72216579993255,256.7223914999049,256.7387715000659,256.7387715000659,256.7387715000659,256.80507149989717,258.8198849000037,259.75238869991153,259.75238869991153,259.75238869991153,259.73610109998845,,,,down,6.316038299817592,None,None,,,,,,,,,,,,,,,,,P136,001,2025-03-26_16h13.01.773,posner_endo_new1,2024.2.4,59.9887221460989,2025-03-26 16h13.08.981912 +0000,
cube_l.png,0.1,0.31,invalid,20,20,0,down,2.539501099847257,None,space,0.4391524998936802,None,,,,,0,20,20,20,,,,,259.75238869991153,,,,,,,,,,,,,259.73625859990716,259.75238869991153,259.75238869991153,259.75238869991153,262.3004872999154,,,,262.3062239000574,262.317714799894,262.317714799894,262.3662731999066,262.3664915000554,262.3829596999567,262.3829596999567,262.3829596999567,262.46622049994767,,,,,262.83323209988885,,,,down,2.539501099847257,None,space,0.4391524998936802,None,,,,,,,,,,,,,,,P136,001,2025-03-26_16h13.01.773,posner_endo_new1,2024.2.4,59.9887221460989,2025-03-26 16h13.08.981912 +0000,
cube_l.png,0.1,-0.31,valid,21,21,0,down,7.171362400054932,None,space,0.43864169996231794,None,,,,,0,21,21,21,,,,,262.84910129988566,,,,,,,,,,,,,262.83341139997356,262.84910129988566,262.84910129988566,262.84910129988566,270.0261403999757,,,,270.03212479990907,270.04380149999633,270.04380149999633,270.0917445998639,270.0919651000295,270.10840080003254,270.10840080003254,270.10840080003254,270.1917401999235,,,,,270.5586959000211,,,,down,7.171362400054932,None,space,0.43864169996231794,None,,,,,,,,,,,,,,,P136,001,2025-03-26_16h13.01.773,posner_endo_new1,2024.2.4,59.9887221460989,2025-03-26 16h13.08.981912 +0000,
cube_r.png,0.1,0.31,valid,22,22,0,down,8.101807600120082,None,space,0.3811070998199284,None,,,,,0,22,22,22,,,,,270.5746057999786,,,,,,,,,,,,,270.5588654000312,270.5746057999786,270.5746057999786,270.5746057999786,278.68347260006703,,,,278.68926379992627,278.7009099998977,278.7009099998977,278.74954820005223,278.7497721000109,278.7661794000305,278.7661794000305,278.7661794000305,278.8327436000109,,,,,279.1498628000263,,,,down,8.101807600120082,None,space,0.3811070998199284,None,,,,,,,,,,,,,,,P136,001,2025-03-26_16h13.01.773,posner_endo_new1,2024.2.4,59.9887221460989,2025-03-26 16h13.08.981912 +0000,
cube_r.png,0.1,-0.31,invalid,23,23,0,down,5.887663200031966,None,space,0.39849120005965233,None,,,,,0,23,23,23,,,,,279.16575649986044,,,,,,,,,,,,,279.1500335999299,279.16575649986044,279.16575649986044,279.16575649986044,285.0604166998528,,,,285.06613929988816,285.0777404999826,285.0777404999826,285.1265390000772,285.12676050001755,285.14288539998233,285.14288539998233,285.14288539998233,285.20958269992843,,,,,285.5433807000518,,,,down,5.887663200031966,None,space,0.39849120005965233,None,,,,,,,,,,,,,,,P136,001,2025-03-26_16h13.01.773,posner_endo_new1,2024.2.4,59.9887221460989,2025-03-26 16h13.08.981912 +0000,
cube_r.png,0.1,0.31,valid,24,24,0,down,6.460981599986553,None,space,0.3539795000106096,None,,,,,0,24,24,24,,,,,285.55929120001383,,,,,,,,,,,,,285.5435506000649,285.55929120001383,285.55929120001383,285.55929120001383,292.0365362998564,,,,292.04231739998795,292.0537270999048,292.0537270999048,292.10255689988844,292.102782699978,292.1191749998834,292.1191749998834,292.1191749998834,292.1856712999288,,,,,292.48623050004244,,,,down,6.460981599986553,None,space,0.3539795000106096,None,,,,,,,,,,,,,,,P136,001,2025-03-26_16h13.01.773,posner_endo_new1,2024.2.4,59.9887221460989,2025-03-26 16h13.08.981912 +0000,
cube_r.png,0.1,-0.31,invalid,25,25,0,down,3.237997200107202,None,space,0.31622450007125735,None,,,,,0,25,25,25,,,,,292.5020059000235,,,,,,,,,,,,,292.4864026000723,292.5020059000235,292.5020059000235,292.5020059000235,295.74942569993436,,,,295.7551887000445,295.7667098999955,295.7667098999955,295.8153125999961,295.8155336000491,295.831949000014,295.831949000014,295.831949000014,295.8986841000151,,,,,296.1493985999841,,,,down,3.237997200107202,None,space,0.31622450007125735,None,,,,,,,,,,,,,,,P136,001,2025-03-26_16h13.01.773,posner_endo_new1,2024.2.4,59.9887221460989,2025-03-26 16h13.08.981912 +0000,
cube_l.png,0.1,-0.31,valid,26,26,0,down,6.910858999937773,None,space,0.41415730002336204,None,,,,,0,26,26,26,,,,,296.1650753999129,,,,,,,,,,,,,296.1495678999927,296.1650753999129,296.1650753999129,296.1650753999129,303.0920768000651,,,,303.0979236999992,303.1096419999376,303.1096419999376,303.1580787000712,303.15829689987004,303.17448799987324,303.17448799987324,303.17448799987324,303.25770079996437,,,,,303.591448900057,,,,down,6.910858999937773,None,space,0.41415730002336204,None,,,,,,,,,,,,,,,P136,001,2025-03-26_16h13.01.773,posner_endo_new1,2024.2.4,59.9887221460989,2025-03-26 16h13.08.981912 +0000,
cube_r.png,0.1,0.31,valid,27,27,0,down,6.172788999974728,None,space,0.37486310000531375,None,,,,,0,27,27,27,,,,,303.60750250006095,,,,,,,,,,,,,303.5916231998708,303.60750250006095,303.60750250006095,303.60750250006095,309.7852622999344,,,,309.79093499993905,309.80266849999316,309.80266849999316,309.85113599989563,309.85135379992425,309.86762769985944,309.86762769985944,309.86762769985944,309.95086949993856,,,,,310.25125059997663,,,,down,6.172788999974728,None,space,0.37486310000531375,None,,,,,,,,,,,,,,,P136,001,2025-03-26_16h13.01.773,posner_endo_new1,2024.2.4,59.9887221460989,2025-03-26 16h13.08.981912 +0000,
cube_r.png,0.1,10,catch,28,28,0,down,6.353849699953571,None,None,,,,,,,0,28,28,28,,,,,310.26726019987836,,,,,,,,,,,,,310.25142339989543,310.26726019987836,310.26726019987836,310.26726019987836,316.62793740001507,,,,316.6337983000558,316.645384500036,316.645384500036,316.69407379999757,316.69429269991815,316.7107160000596,316.7107160000596,316.7107160000596,316.7772697999608,318.7916915998794,319.7242781999521,319.7242781999521,319.7242781999521,319.7082831999287,,,,down,6.353849699953571,None,None,,,,,,,,,,,,,,,,,P136,001,2025-03-26_16h13.01.773,posner_endo_new1,2024.2.4,59.9887221460989,2025-03-26 16h13.08.981912 +0000,
cube_r.png,0.1,0.31,valid,29,29,0,down,2.5917019001208246,None,space,0.3764788000844419,None,,,,,0,29,29,29,,,,,319.7242781999521,,,,,,,,,,,,,319.70844039996155,319.7242781999521,319.7242781999521,319.7242781999521,322.32228700001724,,,,322.32800689991564,322.33956369990483,322.33956369990483,322.3882839998696,322.3885047000367,322.40498959994875,322.40498959994875,322.40498959994875,322.47138469992206,,,,,322.7884126000572,,,,down,2.5917019001208246,None,space,0.3764788000844419,None,,,,,,,,,,,,,,,P136,001,2025-03-26_16h13.01.773,posner_endo_new1,2024.2.4,59.9887221460989,2025-03-26 16h13.08.981912 +0000,
cube_r.png,0.1,0.31,valid,30,30,0,down,4.567649099975824,None,space,0.40535730007104576,None,,,,,0,30,30,30,,,,,322.8045032999944,,,,,,,,,,,,,322.7885827999562,322.8045032999944,322.8045032999944,322.8045032999944,327.3838829998858,,,,327.38956689997576,327.4015219998546,327.4015219998546,327.44961569993757,327.4498341998551,327.46632610005327,327.46632610005327,327.46632610005327,327.54965019994415,,,,,327.8832318999339,,,,down,4.567649099975824,None,space,0.40535730007104576,None,,,,,,,,,,,,,,,P136,001,2025-03-26_16h13.01.773,posner_endo_new1,2024.2.4,59.9887221460989,2025-03-26 16h13.08.981912 +0000,
cube_l.png,0.1,-0.31,valid,31,31,0,down,11.19303710013628,None,space,0.4094698999542743,None,,,,,0,31,31,31,,,,,327.8992021000013,,,,,,,,,,,,,327.8834011000581,327.8992021000013,327.8992021000013,327.8992021000013,339.10507149994373,,,,339.1108466000296,339.122431299882,339.122431299882,339.17093979986385,339.1711597999092,339.18774099997245,339.18774099997245,339.18774099997245,339.2541124999989,,,,,339.60452890000306,,,,down,11.19303710013628,None,space,0.4094698999542743,None,,,,,,,,,,,,,,,P136,001,2025-03-26_16h13.01.773,posner_endo_new1,2024.2.4,59.9887221460989,2025-03-26 16h13.08.981912 +0000,
cube_r.png,0.1,0.31,valid,32,32,0,down,6.047287699999288,None,space,0.4168622000142932,None,,,,,0,32,32,32,,,,,339.62040899996646,,,,,,,,,,,,,339.6046982000116,339.62040899996646,339.62040899996646,339.62040899996646,345.68173990002833,,,,345.68752530007623,345.69912669993937,345.69912669993937,345.7476760998834,345.7478982999455,345.7643154999241,345.7643154999241,345.7643154999241,345.84748039999977,,,,,346.1980274999514,,,,down,6.047287699999288,None,space,0.4168622000142932,None,,,,,,,,,,,,,,,P136,001,2025-03-26_16h13.01.773,posner_endo_new1,2024.2.4,59.9887221460989,2025-03-26 16h13.08.981912 +0000,
cube_r.png,0.1,-0.31,invalid,33,33,0,down,3.8061365999747068,None,space,0.6041367999278009,None,,,,,0,33,33,33,,,,,346.21374839986674,,,,,,,,,,,,,346.1981969999615,346.21374839986674,346.21374839986674,346.21374839986674,350.0271691000089,,,,350.03288810001686,350.0445528998971,350.0445528998971,350.0932285999879,350.0934464999009,350.10980509989895,350.10980509989895,350.10980509989895,350.1765045998618,,,,,350.7265341000166,,,,down,3.8061365999747068,None,space,0.6041367999278009,None,,,,,,,,,,,,,,,P136,001,2025-03-26_16h13.01.773,posner_endo_new1,2024.2.4,59.9887221460989,2025-03-26 16h13.08.981912 +0000,
cube_r.png,0.1,10,catch,34,34,0,down,6.34220840013586,None,None,,,,,,,0,34,34,34,,,,,350.74244219996035,,,,,,,,,,,,,350.7267046999186,350.74244219996035,350.74244219996035,350.74244219996035,357.08678709995,,,,357.0926341000013,357.104291500058,357.104291500058,357.1526933000423,357.15292829996906,357.1691220998764,357.1691220998764,357.1691220998764,357.2525573000312,359.26698029995896,360.1827050000429,360.1827050000429,360.1827050000429,360.1665801999625,,,,down,6.34220840013586,None,None,,,,,,,,,,,,,,,,,P136,001,2025-03-26_16h13.01.773,posner_endo_new1,2024.2.4,59.9887221460989,2025-03-26 16h13.08.981912 +0000,
cube_r.png,0.1,0.31,valid,35,35,0,down,2.133909000083804,None,space,0.5023449999280274,None,,,,,0,35,35,35,,,,,360.1827050000429,,,,,,,,,,,,,360.16674089990556,360.1827050000429,360.1827050000429,360.1827050000429,362.33140549995005,,,,362.3371067000553,362.3487730999477,362.3487730999477,362.3973747000564,362.3975942998659,362.414024699945,362.414024699945,362.414024699945,362.4804253000766,,,,,362.93067879998125,,,,down,2.133909000083804,None,space,0.5023449999280274,None,,,,,,,,,,,,,,,P136,001,2025-03-26_16h13.01.773,posner_endo_new1,2024.2.4,59.9887221460989,2025-03-26 16h13.08.981912 +0000,
cube_r.png,0.1,-0.31,invalid,36,36,0,down,6.225455300183967,None,space,0.4180111999157816,None,,,,,0,36,36,36,,,,,362.94658009987324,,,,,,,,,,,,,362.93085239990614,362.94658009987324,362.94658009987324,362.94658009987324,369.1745196999982,,,,369.1803508999292,369.1919068999123,369.1919068999123,369.240254299948,369.2404791000299,369.2567763000261,369.2567763000261,369.2567763000261,369.3400286999531,,,,,369.69045890006237,,,,down,6.225455300183967,None,space,0.4180111999157816,None,,,,,,,,,,,,,,,P136,001,2025-03-26_16h13.01.773,posner_endo_new1,2024.2.4,59.9887221460989,2025-03-26 16h13.08.981912 +0000,
cube_l.png,0.1,0.31,invalid,37,37,0,down,17.057306200033054,None,space,0.3929409000556916,None,,,,,0,37,37,37,,,,,369.7062967000529,,,,,,,,,,,,,369.69063639990054,369.7062967000529,369.7062967000529,369.7062967000529,386.77269789995626,,,,386.77850959985517,386.79021340003237,386.79021340003237,386.83899710001424,386.8392151000444,386.85548979998566,386.85548979998566,386.85548979998566,386.92222459986806,,,,,387.2558905000333,,,,down,17.057306200033054,None,space,0.3929409000556916,None,,,,,,,,,,,,,,,P136,001,2025-03-26_16h13.01.773,posner_endo_new1,2024.2.4,59.9887221460989,2025-03-26 16h13.08.981912 +0000,
cube_l.png,0.1,0.31,invalid,38,38,0,down,7.453320699976757,None,space,0.3851028000935912,None,,,,,0,38,38,38,,,,,387.2717516999692,,,,,,,,,,,,,387.2560596000403,387.2717516999692,387.2717516999692,387.2717516999692,394.7315571999643,,,,394.73724539997056,394.7488738000393,394.7488738000393,394.79753770004027,394.7977561999578,394.8140413998626,394.8140413998626,394.8140413998626,394.8804639999289,,,,,395.2143059000373,,,,down,7.453320699976757,None,space,0.3851028000935912,None,,,,,,,,,,,,,,,P136,001,2025-03-26_16h13.01.773,posner_endo_new1,2024.2.4,59.9887221460989,2025-03-26 16h13.08.981912 +0000,
cube_r.png,0.1,0.31,valid,39,39,0,down,13.26192109985277,None,space,0.4095597001723945,None,,,,,0,39,39,39,,,,,395.230354399886,,,,,,,,,,,,,395.2144754000474,395.230354399886,395.230354399886,395.230354399886,408.5008936000522,,,,408.5066523998976,408.5183373000473,408.5183373000473,408.56676679989323,408.5669859999325,408.58323940006085,408.58323940006085,408.58323940006085,408.66661600000225,,,,,409.00000549992546,,,,down,13.26192109985277,None,space,0.4095597001723945,None,,,,,,,,,,,,,,,P136,001,2025-03-26_16h13.01.773,posner_endo_new1,2024.2.4,59.9887221460989,2025-03-26 16h13.08.981912 +0000,
cube_l.png,0.1,0.31,invalid,40,40,0,down,6.212364499922842,None,space,0.413161400007084,None,,,,,0,40,40,40,,,,,409.0160896999296,,,,,,,,,,,,,409.0001753999386,409.0160896999296,409.0160896999296,409.0160896999296,415.24439410003833,,,,415.25538760004565,415.2656823999714,415.2656823999714,415.30989239993505,415.31022939994,415.3263582000509,415.3263582000509,415.3263582000509,415.40966999996454,,,,,415.7439438998699,,,,down,6.212364499922842,None,space,0.413161400007084,None,,,,,,,,,,,,,,,P136,001,2025-03-26_16h13.01.773,posner_endo_new1,2024.2.4,59.9887221460989,2025-03-26 16h13.08.981912 +0000,
cube_l.png,0.1,10,catch,41,41,0,down,8.6526514000725,None,None,,,,,,,0,41,41,41,,,,,415.75933809997514,,,,,,,,,,,,,415.7442272999324,415.75933809997514,415.75933809997514,415.75933809997514,424.4183288998902,,,,424.4292794999201,424.4396251998842,424.4396251998842,424.4837738999631,424.4841123998631,424.5002989000641,424.5002989000641,424.5002989000641,424.5835990998894,426.5981832998805,427.5139327000361,427.5139327000361,427.5139327000361,427.4979014999699,,,,down,8.6526514000725,None,None,,,,,,,,,,,,,,,,,P136,001,2025-03-26_16h13.01.773,posner_endo_new1,2024.2.4,59.9887221460989,2025-03-26 16h13.08.981912 +0000,
cube_l.png,0.1,-0.31,valid,42,42,0,down,3.6986128999851644,None,space,0.39460929995402694,None,,,,,0,42,42,42,,,,,427.5139327000361,,,,,,,,,,,,,427.4981750000734,427.5139327000361,427.5139327000361,427.5139327000361,431.227878900012,,,,431.2389875999652,431.2492932998575,431.2492932998575,431.2935806000605,431.29392119986005,431.30996789992787,431.30996789992787,431.30996789992787,431.3933303998783,,,,,431.7108535000589,,,,down,3.6986128999851644,None,space,0.39460929995402694,None,,,,,,,,,,,,,,,P136,001,2025-03-26_16h13.01.773,posner_endo_new1,2024.2.4,59.9887221460989,2025-03-26 16h13.08.981912 +0000,
cube_l.png,0.1,10,catch,43,43,0,down,5.605797899886966,None,None,,,,,,,0,43,43,43,,,,,431.72623590007424,,,,,,,,,,,,,431.7111372000072,431.72623590007424,431.72623590007424,431.72623590007424,437.3380384000484,,,,437.34465819993056,437.35629959986545,437.35629959986545,437.4040842000395,437.4043201999739,437.42041280004196,437.42041280004196,437.42041280004196,437.503675899934,439.5182940000668,440.43413150007837,440.43413150007837,440.43413150007837,440.41778999986127,,,,down,5.605797899886966,None,None,,,,,,,,,,,,,,,,,P136,001,2025-03-26_16h13.01.773,posner_endo_new1,2024.2.4,59.9887221460989,2025-03-26 16h13.08.981912 +0000,
cube_l.png,0.1,0.31,invalid,44,44,0,down,3.794493699911982,None,space,0.43215079978108406,None,,,,,0,44,44,44,,,,,440.43413150007837,,,,,,,,,,,,,440.41796160000376,440.43413150007837,440.43413150007837,440.43413150007837,444.2309634999838,,,,444.23763590003364,444.249572499888,444.249572499888,444.2968697999604,444.29708779999055,444.31330320006236,444.31330320006236,444.31330320006236,444.3966437999625,,,,,444.74712359998375,,,,down,3.794493699911982,None,space,0.43215079978108406,None,,,,,,,,,,,,,,,P136,001,2025-03-26_16h13.01.773,posner_endo_new1,2024.2.4,59.9887221460989,2025-03-26 16h13.08.981912 +0000,
cube_l.png,0.1,0.31,invalid,45,45,0,down,4.993465800071135,None,space,0.4101958000101149,None,,,,,0,45,45,45,,,,,444.762952900026,,,,,,,,,,,,,444.7472918999847,444.762952900026,444.762952900026,444.762952900026,449.75853129988536,,,,449.76422919984907,449.77585179987364,449.77585179987364,449.8241401000414,449.8243630998768,449.8410082999617,449.8410082999617,449.8410082999617,449.9076270998921,,,,,450.2579749999568,,,,down,4.993465800071135,None,space,0.4101958000101149,None,,,,,,,,,,,,,,,P136,001,2025-03-26_16h13.01.773,posner_endo_new1,2024.2.4,59.9887221460989,2025-03-26 16h13.08.981912 +0000,
cube_r.png,0.1,0.31,valid,46,46,0,down,9.938408999936655,None,space,0.4396524999756366,None,,,,,0,46,46,46,,,,,450.27386419987306,,,,,,,,,,,,,450.2581438999623,450.27386419987306,450.27386419987306,450.27386419987306,460.2146628999617,,,,460.2203337000683,460.2319866998587,460.2319866998587,460.2804713000078,460.280691599939,460.29708179994486,460.29708179994486,460.29708179994486,460.3804233998526,,,,,460.7474352000281,,,,down,9.938408999936655,None,space,0.4396524999756366,None,,,,,,,,,,,,,,,P136,001,2025-03-26_16h13.01.773,posner_endo_new1,2024.2.4,59.9887221460989,2025-03-26 16h13.08.981912 +0000,
cube_l.png,0.1,-0.31,valid,47,47,0,down,6.520957299973816,None,space,0.4216695998329669,None,,,,,0,47,47,47,,,,,460.7631932999939,,,,,,,,,,,,,460.74760219990276,460.7631932999939,460.7631932999939,460.7631932999939,467.290524299955,,,,467.29624839988537,467.30798559985124,467.30798559985124,467.35660469997674,467.3568287000526,467.3731227000244,467.3731227000244,467.3731227000244,467.43959369999357,,,,,467.80658430000767,,,,down,6.520957299973816,None,space,0.4216695998329669,None,,,,,,,,,,,,,,,P136,001,2025-03-26_16h13.01.773,posner_endo_new1,2024.2.4,59.9887221460989,2025-03-26 16h13.08.981912 +0000,
cube_r.png,0.1,-0.31,invalid,48,48,0,down,6.965711800148711,None,space,0.4813919998705387,None,,,,,0,48,48,48,,,,,467.8225785999093,,,,,,,,,,,,,467.80675200000405,467.8225785999093,467.8225785999093,467.8225785999093,474.7993341998663,,,,474.80501389992423,474.81655739992857,474.81655739992857,474.8655681000091,474.8657877999358,474.8821880999021,474.8821880999021,474.8821880999021,474.9486555000767,,,,,475.3657676000148,,,,down,6.965711800148711,None,space,0.4813919998705387,None,,,,,,,,,,,,,,,P136,001,2025-03-26_16h13.01.773,posner_endo_new1,2024.2.4,59.9887221460989,2025-03-26 16h13.08.981912 +0000,
cube_r.png,0.1,10,catch,49,49,0,down,3.414704900002107,None,None,,,,,,,0,49,49,49,,,,,475.38158420007676,,,,,,,,,,,,,475.3659343998879,475.38158420007676,475.38158420007676,475.38158420007676,478.8122918999288,,,,478.81798260007054,478.8296099000145,478.8296099000145,478.87819359987043,478.87841330002993,478.8945792999584,478.8945792999584,478.8945792999584,478.9780218999367,480.99245589994825,481.90833149990067,481.90833149990067,481.90833149990067,481.8920523999259,,,,down,3.414704900002107,None,None,,,,,,,,,,,,,,,,,P136,001,2025-03-26_16h13.01.773,posner_endo_new1,2024.2.4,59.9887221460989,2025-03-26 16h13.08.981912 +0000,
cube_l.png,0.1,-0.31,valid,50,50,0,down,8.823650399921462,None,space,0.4326268997974694,None,,,,,0,50,50,50,,,,,481.90833149990067,,,,,,,,,,,,,481.8922095000744,481.90833149990067,481.90833149990067,481.90833149990067,490.73346749995835,,,,490.73914940003306,490.75088599999435,490.75088599999435,490.7992602000013,490.7994800999295,490.81587160006166,490.81587160006166,490.81587160006166,490.8989796999376,,,,,491.2495464000385,,,,down,8.823650399921462,None,space,0.4326268997974694,None,,,,,,,,,,,,,,,P136,001,2025-03-26_16h13.01.773,posner_endo_new1,2024.2.4,59.9887221460989,2025-03-26 16h13.08.981912 +0000,
cube_l.png,0.1,-0.31,valid,51,51,0,down,5.267022900050506,None,space,0.3606472001411021,None,,,,,0,51,51,51,,,,,491.26530579989776,,,,,,,,,,,,,491.24972089985386,491.26530579989776,491.26530579989776,491.26530579989776,496.54405319993384,,,,496.5498078998644,496.5613851000089,496.5613851000089,496.60987909999676,496.61009799991734,496.62650200002827,496.62650200002827,496.62650200002827,496.69315769989043,,,,,496.99363679997623,,,,down,5.267022900050506,None,space,0.3606472001411021,None,,,,,,,,,,,,,,,P136,001,2025-03-26_16h13.01.773,posner_endo_new1,2024.2.4,59.9887221460989,2025-03-26 16h13.08.981912 +0000,
cube_r.png,0.1,-0.31,invalid,52,52,0,down,7.762651799945161,None,space,0.38124279980547726,None,,,,,0,52,52,52,,,,,497.0094220000319,,,,,,,,,,,,,496.9938054999802,497.0094220000319,497.0094220000319,497.0094220000319,504.78548209997825,,,,504.7912556999363,504.8028102000244,504.8028102000244,504.85161720006727,504.85183770000003,504.8680781000294,504.8680781000294,504.8680781000294,504.9346582000144,,,,,505.2519366000779,,,,down,7.762651799945161,None,space,0.38124279980547726,None,,,,,,,,,,,,,,,P136,001,2025-03-26_16h13.01.773,posner_endo_new1,2024.2.4,59.9887221460989,2025-03-26 16h13.08.981912 +0000,
cube_l.png,0.1,-0.31,valid,53,53,0,down,4.56866730004549,None,space,0.4127680999226868,None,,,,,0,53,53,53,,,,,505.26757390005514,,,,,,,,,,,,,505.2521031999495,505.26757390005514,505.26757390005514,505.26757390005514,509.847086600028,,,,509.852859799983,509.8644958999939,509.8644958999939,509.9129053000361,509.91313200001605,509.92958520003594,509.92958520003594,509.92958520003594,509.9961353999097,,,,,510.34643050003797,,,,down,4.56866730004549,None,space,0.4127680999226868,None,,,,,,,,,,,,,,,P136,001,2025-03-26_16h13.01.773,posner_endo_new1,2024.2.4,59.9887221460989,2025-03-26 16h13.08.981912 +0000,
cube_r.png,0.1,10,catch,54,54,0,down,6.977619499899447,None,None,,,,,,,0,54,54,54,,,,,510.36250029993244,,,,,,,,,,,,,510.34660569997504,510.36250029993244,510.36250029993244,510.36250029993244,517.3559351998847,,,,517.3617743998766,517.3734005000442,517.3734005000442,517.422082999954,517.4223090999294,517.4384226000402,517.4384226000402,517.4384226000402,517.5051881999243,519.5196704999544,520.452070799889,520.452070799889,520.452070799889,520.4360134999733,,,,down,6.977619499899447,None,None,,,,,,,,,,,,,,,,,P136,001,2025-03-26_16h13.01.773,posner_endo_new1,2024.2.4,59.9887221460989,2025-03-26 16h13.08.981912 +0000,
cube_l.png,0.1,0.31,invalid,55,55,0,down,2.7919870000332594,None,space,0.5259924000129104,None,,,,,0,55,55,55,,,,,520.452070799889,,,,,,,,,,,,,520.4361807999667,520.452070799889,520.452070799889,520.452070799889,523.2501590999309,,,,523.2559839999303,523.2677015999798,523.2677015999798,523.3159451999236,523.31616450008,523.3325511000585,523.3325511000585,523.3325511000585,523.4157096999697,,,,,523.8660407999996,,,,down,2.7919870000332594,None,space,0.5259924000129104,None,,,,,,,,,,,,,,,P136,001,2025-03-26_16h13.01.773,posner_endo_new1,2024.2.4,59.9887221460989,2025-03-26 16h13.08.981912 +0000,
cube_l.png,0.1,-0.31,valid,56,56,0,down,6.554476799909025,None,space,0.3632775000296533,None,,,,,0,56,56,56,,,,,523.8819810000714,,,,,,,,,,,,,523.8662085998803,523.8819810000714,523.8819810000714,523.8819810000714,530.4427145000082,,,,530.4484651000239,530.4600434999447,530.4600434999447,530.5085241999477,530.5087474000175,530.525326800067,530.525326800067,530.525326800067,530.6083351999987,,,,,530.8922389999498,,,,down,6.554476799909025,None,space,0.3632775000296533,None,,,,,,,,,,,,,,,P136,001,2025-03-26_16h13.01.773,posner_endo_new1,2024.2.4,59.9887221460989,2025-03-26 16h13.08.981912 +0000,
cube_r.png,0.1,0.31,valid,57,57,0,down,6.848461300134659,None,space,0.3695435000117868,None,,,,,0,57,57,57,,,,,530.908053399995,,,,,,,,,,,,,530.8924074000679,530.908053399995,530.908053399995,530.908053399995,537.7684025999624,,,,537.7742625998799,537.7860445000697,537.7860445000697,537.834491699934,537.8347177999094,537.850912099937,537.850912099937,537.850912099937,537.9175420999527,,,,,538.2347015999258,,,,down,6.848461300134659,None,space,0.3695435000117868,None,,,,,,,,,,,,,,,P136,001,2025-03-26_16h13.01.773,posner_endo_new1,2024.2.4,59.9887221460989,2025-03-26 16h13.08.981912 +0000,
cube_r.png,0.1,-0.31,invalid,58,58,0,down,16.769760199822485,None,space,0.435910000000149,None,,,,,0,58,58,58,,,,,538.2506057000719,,,,,,,,,,,,,538.2348706999328,538.2506057000719,538.2506057000719,538.2506057000719,555.0339844999835,,,,555.0396493000444,555.0514410999604,555.0514410999604,555.1002225999255,555.1004562999588,555.1166596999392,555.1166596999392,555.1166596999392,555.1833627000451,,,,,555.5668313000351,,,,down,16.769760199822485,None,space,0.435910000000149,None,,,,,,,,,,,,,,,P136,001,2025-03-26_16h13.01.773,posner_endo_new1,2024.2.4,59.9887221460989,2025-03-26 16h13.08.981912 +0000,
cube_l.png,0.1,0.31,invalid,59,59,0,down,5.693263200111687,None,space,0.46385519998148084,None,,,,,0,59,59,59,,,,,555.5828521999065,,,,,,,,,,,,,555.5669996000361,555.5828521999065,555.5828521999065,555.5828521999065,561.2778765000403,,,,561.2836086999159,561.2951863999479,561.2951863999479,561.3437649998814,561.3439932998735,561.3602605999913,561.3602605999913,561.3602605999913,561.4436067999341,,,,,561.8271826999262,,,,down,5.693263200111687,None,space,0.46385519998148084,None,,,,,,,,,,,,,,,P136,001,2025-03-26_16h13.01.773,posner_endo_new1,2024.2.4,59.9887221460989,2025-03-26 16h13.08.981912 +0000,
,,,,,,,,,,,,,,,,,,,,,,,,,,,,,,,,,,,,,,,,,,,,,,,,,,,,,,,,,,,,,,,,,,,,,561.8272921000607,561.843147699954,561.843147699954,621.8482909000013,626.4287227999885,space,64.57807959988713,None,,,,,,,P136,001,2025-03-26_16h13.01.773,posner_endo_new1,2024.2.4,59.9887221460989,2025-03-26 16h13.08.981912 +0000,
,,,,,,,,,,,,,,,,,,,,,,,,,,,,,,,,,,626.4288588999771,626.4434090999421,629.514060900081,629.4245418999344,,,,,,,,,,,,,,,,,,,,,,,,,,,,,,,,,,,,,,,,,,,,,,P136,001,2025-03-26_16h13.01.773,posner_endo_new1,2024.2.4,59.9887221460989,2025-03-26 16h13.08.981912 +0000,
cube_l.png,0.1,10,catch,0,0,0,up,5.466343600070104,None,None,,,,,,,,,,,0,0,0,0,629.514060900081,,,,,,,,,,,,,629.5058550999966,629.514060900081,629.514060900081,629.514060900081,634.9857918999624,,,,634.9929883999284,635.0046363999136,635.0046363999136,635.0515188998543,635.0517722999211,635.0678936999757,635.0678936999757,635.0678936999757,635.1513487999327,637.165920099942,638.0817609999795,638.0817609999795,638.0817609999795,638.0654569000471,,,,,,,,,,,,,,,,,,up,5.466343600070104,None,None,,,P136,001,2025-03-26_16h13.01.773,posner_endo_new1,2024.2.4,59.9887221460989,2025-03-26 16h13.08.981912 +0000,
cube_l.png,0.1,10,catch,1,1,0,up,2.5546800000593066,None,None,,,,,,,,,,,0,1,1,1,638.0817609999795,,,,,,,,,,,,,638.0656419999432,638.0817609999795,638.0817609999795,638.0817609999795,640.6464809000026,,,,640.6535320999101,640.6651613998692,640.6651613998692,640.7123340000398,640.71255499986,640.7289766999893,640.7289766999893,640.7289766999893,640.7957570999861,642.8102442000527,643.7426167000085,643.7426167000085,643.7426167000085,643.7263865000568,,,,,,,,,,,,,,,,,,up,2.5546800000593066,None,None,,,P136,001,2025-03-26_16h13.01.773,posner_endo_new1,2024.2.4,59.9887221460989,2025-03-26 16h13.08.981912 +0000,
cube_l.png,0.1,0.31,invalid,2,2,0,up,3.165456300135702,None,space,0.4328630999661982,None,,,,,,,,,0,2,2,2,643.7426167000085,,,,,,,,,,,,,643.7265488000121,643.7426167000085,643.7426167000085,643.7426167000085,646.9233889998868,,,,646.9291878999211,646.9407128000166,646.9407128000166,646.9893288000021,646.9895496999379,647.0058319999371,647.0058319999371,647.0058319999371,647.0724818999879,,,,,647.4397362000309,,,,,,,,,,,,,,,,,,up,3.165456300135702,None,space,0.4328630999661982,None,P136,001,2025-03-26_16h13.01.773,posner_endo_new1,2024.2.4,59.9887221460989,2025-03-26 16h13.08.981912 +0000,
cube_l.png,0.1,0.31,invalid,3,3,0,up,5.260750599903986,None,space,0.4402360001113266,None,,,,,,,,,0,3,3,3,647.4555804000702,,,,,,,,,,,,,647.4399103999604,647.4555804000702,647.4555804000702,647.4555804000702,652.7179467999376,,,,652.7236539998557,652.7353817999829,652.7353817999829,652.7834965998773,652.7837181999348,652.8000999998767,652.8000999998767,652.8000999998767,652.8831821999047,,,,,653.2501115999185,,,,,,,,,,,,,,,,,,up,5.260750599903986,None,space,0.4402360001113266,None,P136,001,2025-03-26_16h13.01.773,posner_endo_new1,2024.2.4,59.9887221460989,2025-03-26 16h13.08.981912 +0000,
cube_l.png,0.1,-0.31,valid,4,4,0,up,5.089829600183293,None,space,0.5857504999730736,None,,,,,,,,,0,4,4,4,653.266282599885,,,,,,,,,,,,,653.2502859998494,653.266282599885,653.266282599885,653.266282599885,658.3617877999786,,,,658.367625700077,658.3791938999202,658.3791938999202,658.4276839999948,658.4279044999275,658.444184999913,658.444184999913,658.444184999913,658.510884599993,,,,,659.0442659999244,,,,,,,,,,,,,,,,,,up,5.089829600183293,None,space,0.5857504999730736,None,P136,001,2025-03-26_16h13.01.773,posner_endo_new1,2024.2.4,59.9887221460989,2025-03-26 16h13.08.981912 +0000,
cube_r.png,0.1,-0.31,invalid,5,5,0,up,5.880055299960077,None,space,0.3779780000913888,None,,,,,,,,,0,5,5,5,659.060239699902,,,,,,,,,,,,,659.0444395998493,659.060239699902,659.060239699902,659.060239699902,664.9549912000075,,,,664.9607474999502,664.97245380003,664.97245380003,665.0210164999589,665.0212356999982,665.0374191000592,665.0374191000592,665.0374191000592,665.1038963999599,,,,,665.4212148999795,,,,,,,,,,,,,,,,,,up,5.880055299960077,None,space,0.3779780000913888,None,P136,001,2025-03-26_16h13.01.773,posner_endo_new1,2024.2.4,59.9887221460989,2025-03-26 16h13.08.981912 +0000,
cube_r.png,0.1,0.31,valid,6,6,0,up,5.895414700033143,None,space,0.3559532999061048,None,,,,,,,,,0,6,6,6,665.4370160999242,,,,,,,,,,,,,665.4213878998999,665.4370160999242,665.4370160999242,665.4370160999242,671.3483619000763,,,,671.3541508999187,671.3658237999771,671.3658237999771,671.4144923000131,671.41471549985,671.430979100056,671.430979100056,671.430979100056,671.4976718998514,,,,,671.7980090999044,,,,,,,,,,,,,,,,,,up,5.895414700033143,None,space,0.3559532999061048,None,P136,001,2025-03-26_16h13.01.773,posner_endo_new1,2024.2.4,59.9887221460989,2025-03-26 16h13.08.981912 +0000,
cube_r.png,0.1,-0.31,invalid,7,7,0,up,4.214089000131935,None,space,0.34890359989367425,None,,,,,,,,,0,7,7,7,671.8140743998811,,,,,,,,,,,,,671.7981902998872,671.8140743998811,671.8140743998811,671.8140743998811,676.0436390999239,,,,676.0493145000655,676.061116399942,676.061116399942,676.1095648999326,676.1097870999947,676.1262665998656,676.1262665998656,676.1262665998656,676.192693799967,,,,,676.4766857998911,,,,,,,,,,,,,,,,,,up,4.214089000131935,None,space,0.34890359989367425,None,P136,001,2025-03-26_16h13.01.773,posner_endo_new1,2024.2.4,59.9887221460989,2025-03-26 16h13.08.981912 +0000,
cube_l.png,0.1,-0.31,valid,8,8,0,up,5.391403499990702,None,space,0.36511039990000427,None,,,,,,,,,0,8,8,8,676.4922764999792,,,,,,,,,,,,,676.476857499918,676.4922764999792,676.4922764999792,676.4922764999792,681.887745999964,,,,681.8935318998992,681.9055657999124,681.9055657999124,681.9535389000084,681.9537593999412,681.9700601000804,681.9700601000804,681.9700601000804,682.0366766999941,,,,,682.3373503999319,,,,,,,,,,,,,,,,,,up,5.391403499990702,None,space,0.36511039990000427,None,P136,001,2025-03-26_16h13.01.773,posner_endo_new1,2024.2.4,59.9887221460989,2025-03-26 16h13.08.981912 +0000,
cube_r.png,0.1,-0.31,invalid,9,9,0,up,5.227145800134167,None,space,0.3689281998667866,None,,,,,,,,,0,9,9,9,682.3531746999361,,,,,,,,,,,,,682.3375245998614,682.3531746999361,682.3531746999361,682.3531746999361,687.5819309998769,,,,687.587625999935,687.5992145000491,687.5992145000491,687.6479181998875,687.6481409000698,687.664363999851,687.664363999851,687.664363999851,687.7477486999705,,,,,688.0480251999106,,,,,,,,,,,,,,,,,,up,5.227145800134167,None,space,0.3689281998667866,None,P136,001,2025-03-26_16h13.01.773,posner_endo_new1,2024.2.4,59.9887221460989,2025-03-26 16h13.08.981912 +0000,
cube_l.png,0.1,0.31,invalid,10,10,0,up,6.524420999921858,None,space,0.3623946001753211,None,,,,,,,,,0,10,10,10,688.0639915000647,,,,,,,,,,,,,688.0482029998675,688.0639915000647,688.0639915000647,688.0639915000647,694.5912899000105,,,,694.5969966000412,694.6086065999698,694.6086065999698,694.6574049999472,694.6576306000352,694.6738569000736,694.6738569000736,694.6738569000736,694.7404171000235,,,,,695.0409059999511,,,,,,,,,,,,,,,,,,up,6.524420999921858,None,space,0.3623946001753211,None,P136,001,2025-03-26_16h13.01.773,posner_endo_new1,2024.2.4,59.9887221460989,2025-03-26 16h13.08.981912 +0000,
cube_r.png,0.1,-0.31,invalid,11,11,0,up,5.803439600160345,None,space,0.4244659999385476,None,,,,,,,,,0,11,11,11,695.056746999966,,,,,,,,,,,,,695.0410778999794,695.056746999966,695.056746999966,695.056746999966,700.8679481998552,,,,700.8736847999971,700.8852981999516,700.8852981999516,700.9341082999017,700.9343300999608,700.9507418998983,700.9507418998983,700.9507418998983,701.017424199963,,,,,701.3843336000573,,,,,,,,,,,,,,,,,,up,5.803439600160345,None,space,0.4244659999385476,None,P136,001,2025-03-26_16h13.01.773,posner_endo_new1,2024.2.4,59.9887221460989,2025-03-26 16h13.08.981912 +0000,
cube_r.png,0.1,0.31,valid,12,12,0,up,6.099778299918398,None,space,0.37994969985447824,None,,,,,,,,,0,12,12,12,701.4002968000714,,,,,,,,,,,,,701.3845126999076,701.4002968000714,701.4002968000714,701.4002968000714,707.5113852000795,,,,707.5172011000104,707.5292772999965,707.5292772999965,707.5772954998538,707.5775192999281,707.593915999867,707.593915999867,707.593915999867,707.6605310998857,,,,,707.9776411000639,,,,,,,,,,,,,,,,,,up,6.099778299918398,None,space,0.37994969985447824,None,P136,001,2025-03-26_16h13.01.773,posner_endo_new1,2024.2.4,59.9887221460989,2025-03-26 16h13.08.981912 +0000,
cube_l.png,0.1,10,catch,13,13,0,up,6.40251459996216,None,None,,,,,,,,,,,0,13,13,13,707.9935864999425,,,,,,,,,,,,,707.9778207999188,707.9935864999425,707.9935864999425,707.9935864999425,714.404263000004,,,,714.4100569998845,714.4215889999177,714.4215889999177,714.4702689000405,714.4704902998637,714.4869293000083,714.4869293000083,714.4869293000083,714.5536205000244,716.5679846999701,717.5005455999635,717.5005455999635,717.5005455999635,717.4842209999915,,,,,,,,,,,,,,,,,,up,6.40251459996216,None,None,,,P136,001,2025-03-26_16h13.01.773,posner_endo_new1,2024.2.4,59.9887221460989,2025-03-26 16h13.08.981912 +0000,
cube_r.png,0.1,-0.31,invalid,14,14,0,up,2.655936000170186,None,space,0.3665336000267416,None,,,,,,,,,0,14,14,14,717.5005455999635,,,,,,,,,,,,,717.484389499994,717.5005455999635,717.5005455999635,717.5005455999635,720.1650872000027,,,,720.1707547998521,720.1823817000259,720.1823817000259,720.2311704000458,720.2313923998736,720.247776400065,720.247776400065,720.247776400065,720.3142967999447,,,,,720.6314197999891,,,,,,,,,,,,,,,,,,up,2.655936000170186,None,space,0.3665336000267416,None,P136,001,2025-03-26_16h13.01.773,posner_endo_new1,2024.2.4,59.9887221460989,2025-03-26 16h13.08.981912 +0000,
cube_l.png,0.1,-0.31,valid,15,15,0,up,5.756778899813071,None,space,0.3727462000679225,None,,,,,,,,,0,15,15,15,720.6472088000737,,,,,,,,,,,,,720.631597599946,720.6472088000737,720.6472088000737,720.6472088000737,726.4087330999319,,,,726.4144347999245,726.4260297999717,726.4260297999717,726.4747079999652,726.4749342000578,726.4912791999523,726.4912791999523,726.4912791999523,726.5578266999219,,,,,726.8748423000798,,,,,,,,,,,,,,,,,,up,5.756778899813071,None,space,0.3727462000679225,None,P136,001,2025-03-26_16h13.01.773,posner_endo_new1,2024.2.4,59.9887221460989,2025-03-26 16h13.08.981912 +0000,
cube_r.png,0.1,10,catch,16,16,0,up,6.593279900029302,None,None,,,,,,,,,,,0,16,16,16,726.8907359000295,,,,,,,,,,,,,726.8750177999027,726.8907359000295,726.8907359000295,726.8907359000295,733.4849944999442,,,,733.4908215999603,733.5023068999872,733.5023068999872,733.5508769999724,733.5511010999326,733.5673308998812,733.5673308998812,733.5673308998812,733.6507566999644,735.665192199871,736.5809599999338,736.5809599999338,736.5809599999338,736.5648550998885,,,,,,,,,,,,,,,,,,up,6.593279900029302,None,None,,,P136,001,2025-03-26_16h13.01.773,posner_endo_new1,2024.2.4,59.9887221460989,2025-03-26 16h13.08.981912 +0000,
cube_r.png,0.1,10,catch,17,17,0,up,3.3834674002137035,None,None,,,,,,,,,,,0,17,17,17,736.5809599999338,,,,,,,,,,,,,736.5650176000781,736.5809599999338,736.5809599999338,736.5809599999338,739.9781956998631,,,,739.9840663999785,739.9957075000275,739.9957075000275,740.0440845999401,740.044304399984,740.0607781999279,740.0607781999279,740.0607781999279,740.1272414999548,742.1420110999607,743.0743193998933,743.0743193998933,743.0743193998933,743.0582689000294,,,,,,,,,,,,,,,,,,up,3.3834674002137035,None,None,,,P136,001,2025-03-26_16h13.01.773,posner_endo_new1,2024.2.4,59.9887221460989,2025-03-26 16h13.08.981912 +0000,
cube_l.png,0.1,0.31,invalid,18,18,0,up,4.377703600097448,None,space,0.5131816999055445,None,,,,,,,,,0,18,18,18,743.0743193998933,,,,,,,,,,,,,743.0584338000044,743.0743193998933,743.0743193998933,743.0743193998933,747.4539028999861,,,,747.4595842000563,747.4711609000806,747.4711609000806,747.5198863998521,747.5201077999081,747.53641709988,747.53641709988,747.53641709988,747.6197055999655,,,,,748.0532112999354,,,,,,,,,,,,,,,,,,up,4.377703600097448,None,space,0.5131816999055445,None,P136,001,2025-03-26_16h13.01.773,posner_endo_new1,2024.2.4,59.9887221460989,2025-03-26 16h13.08.981912 +0000,
cube_l.png,0.1,10,catch,19,19,0,up,11.247028599958867,None,None,,,,,,,,,,,0,19,19,19,748.069015200017,,,,,,,,,,,,,748.0533884000033,748.069015200017,748.069015200017,748.069015200017,759.3249778999016,,,,759.3307926999405,759.342278999975,759.342278999975,759.3911158998962,759.3913404999766,759.4074919999111,759.4074919999111,759.4074919999111,759.4742771000601,761.4888631000649,762.4211029999424,762.4211029999424,762.4211029999424,762.405156499939,,,,,,,,,,,,,,,,,,up,11.247028599958867,None,None,,,P136,001,2025-03-26_16h13.01.773,posner_endo_new1,2024.2.4,59.9887221460989,2025-03-26 16h13.08.981912 +0000,
cube_l.png,0.1,0.31,invalid,20,20,0,up,8.014614700106904,None,space,0.46730130002833903,None,,,,,,,,,0,20,20,20,762.4211029999424,,,,,,,,,,,,,762.4053193998989,762.4211029999424,762.4211029999424,762.4211029999424,770.4468705998734,,,,770.452589499997,770.4642932999413,770.4642932999413,770.5129339999985,770.5131582999602,770.5296582998708,770.5296582998708,770.5296582998708,770.5961933999788,,,,,771.0130660999566,,,,,,,,,,,,,,,,,,up,8.014614700106904,None,space,0.46730130002833903,None,P136,001,2025-03-26_16h13.01.773,posner_endo_new1,2024.2.4,59.9887221460989,2025-03-26 16h13.08.981912 +0000,
cube_l.png,0.1,-0.31,valid,21,21,0,up,5.854713800130412,None,space,0.4215406998991966,None,,,,,,,,,0,21,21,21,771.0291277000215,,,,,,,,,,,,,771.0132438999135,771.0291277000215,771.0291277000215,771.0291277000215,776.8916992000304,,,,776.90922209993,776.9196188000496,776.9196188000496,776.9564461000264,776.9567773998715,776.9729837998748,776.9729837998748,776.9729837998748,777.0561271999031,,,,,777.4071513998788,,,,,,,,,,,,,,,,,,up,5.854713800130412,None,space,0.4215406998991966,None,P136,001,2025-03-26_16h13.01.773,posner_endo_new1,2024.2.4,59.9887221460989,2025-03-26 16h13.08.981912 +0000,
cube_r.png,0.1,0.31,valid,22,22,0,up,6.558929600054398,None,space,0.4578974999021739,None,,,,,,,,,0,22,22,22,777.4223730000667,,,,,,,,,,,,,777.4074359999504,777.4223730000667,777.4223730000667,777.4223730000667,783.9836998998653,,,,783.9928210000508,784.0025837998837,784.0025837998837,784.049123399891,784.0493566999212,784.065687000053,784.065687000053,784.065687000053,784.1490543999244,,,,,784.5327786998823,,,,,,,,,,,,,,,,,,up,6.558929600054398,None,space,0.4578974999021739,None,P136,001,2025-03-26_16h13.01.773,posner_endo_new1,2024.2.4,59.9887221460989,2025-03-26 16h13.08.981912 +0000,
cube_r.png,0.1,-0.31,invalid,23,23,0,up,10.255770899821073,None,space,0.3289259001612663,None,,,,,,,,,0,23,23,23,784.5486687000375,,,,,,,,,,,,,784.5329656000249,784.5486687000375,784.5486687000375,784.5486687000375,794.8054895000532,,,,794.8121694000438,794.8238116998691,794.8238116998691,794.8713658999186,794.871600799961,794.8878669000696,794.8878669000696,794.8878669000696,794.9545118999667,,,,,795.2218911999371,,,,,,,,,,,,,,,,,,up,10.255770899821073,None,space,0.3289259001612663,None,P136,001,2025-03-26_16h13.01.773,posner_endo_new1,2024.2.4,59.9887221460989,2025-03-26 16h13.08.981912 +0000,
cube_r.png,0.1,0.31,valid,24,24,0,up,7.382335999980569,None,space,0.35765579994767904,None,,,,,,,,,0,24,24,24,795.237675299868,,,,,,,,,,,,,795.2220775000751,795.237675299868,795.237675299868,795.237675299868,802.6307973999064,,,,802.6374293998815,802.649190899916,802.649190899916,802.6968109998852,802.69704800006,802.7133458000608,802.7133458000608,802.7133458000608,802.77978969994,,,,,803.0803864998743,,,,,,,,,,,,,,,,,,up,7.382335999980569,None,space,0.35765579994767904,None,P136,001,2025-03-26_16h13.01.773,posner_endo_new1,2024.2.4,59.9887221460989,2025-03-26 16h13.08.981912 +0000,
cube_r.png,0.1,-0.31,invalid,25,25,0,up,4.6523116999305785,None,space,0.43449730006977916,None,,,,,,,,,0,25,25,25,803.0962072999682,,,,,,,,,,,,,803.0805796000641,803.0962072999682,803.0962072999682,803.0962072999682,807.7589004000183,,,,807.7646568999626,807.7761861998588,807.7761861998588,807.8248397998977,807.8250613999553,807.8414060000796,807.8414060000796,807.8414060000796,807.9245861000381,,,,,808.2916166998912,,,,,,,,,,,,,,,,,,up,4.6523116999305785,None,space,0.43449730006977916,None,P136,001,2025-03-26_16h13.01.773,posner_endo_new1,2024.2.4,59.9887221460989,2025-03-26 16h13.08.981912 +0000,
cube_l.png,0.1,-0.31,valid,26,26,0,up,6.8486361999530345,None,space,0.38965449994429946,None,,,,,,,,,0,26,26,26,808.3074447000399,,,,,,,,,,,,,808.2917945999652,808.3074447000399,808.3074447000399,808.3074447000399,815.1679320000112,,,,815.1737909000367,815.1853022000287,815.1853022000287,815.233892200049,815.2341124999803,815.2503841000143,815.2503841000143,815.2503841000143,815.3170473999344,,,,,815.6507432998624,,,,,,,,,,,,,,,,,,up,6.8486361999530345,None,space,0.38965449994429946,None,P136,001,2025-03-26_16h13.01.773,posner_endo_new1,2024.2.4,59.9887221460989,2025-03-26 16h13.08.981912 +0000,
cube_r.png,0.1,0.31,valid,27,27,0,up,6.952881500124931,None,space,0.4029453000985086,None,,,,,,,,,0,27,27,27,815.6667537998874,,,,,,,,,,,,,815.6509183999151,815.6667537998874,815.6667537998874,815.6667537998874,822.6269201000687,,,,822.6327207998838,822.6443576999009,822.6443576999009,822.6929802000523,822.6932024999987,822.7095395999495,822.7095395999495,822.7095395999495,822.7760606000666,,,,,823.1263659000397,,,,,,,,,,,,,,,,,,up,6.952881500124931,None,space,0.4029453000985086,None,P136,001,2025-03-26_16h13.01.773,posner_endo_new1,2024.2.4,59.9887221460989,2025-03-26 16h13.08.981912 +0000,
cube_r.png,0.1,10,catch,28,28,0,up,6.598129300167784,None,None,,,,,,,,,,,0,28,28,28,823.1423015000764,,,,,,,,,,,,,823.1265447000042,823.1423015000764,823.1423015000764,823.1423015000764,829.7529724000487,,,,829.7587877998594,829.7704515999649,829.7704515999649,829.8189515999984,829.8191732999403,829.8355447999202,829.8355447999202,829.8355447999202,829.9026500000618,831.9166753999889,832.8490831998643,832.8490831998643,832.8490831998643,832.8328315999825,,,,,,,,,,,,,,,,,,up,6.598129300167784,None,None,,,P136,001,2025-03-26_16h13.01.773,posner_endo_new1,2024.2.4,59.9887221460989,2025-03-26 16h13.08.981912 +0000,
cube_r.png,0.1,0.31,valid,29,29,0,up,4.050657999934629,None,space,0.44109410000965,None,,,,,,,,,0,29,29,29,832.8490831998643,,,,,,,,,,,,,832.8329938999377,832.8490831998643,832.8490831998643,832.8490831998643,836.9122325999197,,,,836.9180385998916,836.9297124000732,836.9297124000732,836.9782839000691,836.9785088000353,836.9949924999382,836.9949924999382,836.9949924999382,837.0780714000575,,,,,837.4452005000785,,,,,,,,,,,,,,,,,,up,4.050657999934629,None,space,0.44109410000965,None,P136,001,2025-03-26_16h13.01.773,posner_endo_new1,2024.2.4,59.9887221460989,2025-03-26 16h13.08.981912 +0000,
cube_r.png,0.1,0.31,valid,30,30,0,up,7.119355999864638,None,space,0.40421589999459684,None,,,,,,,,,0,30,30,30,837.4611152999569,,,,,,,,,,,,,837.4453745000064,837.4611152999569,837.4611152999569,837.4611152999569,844.5877264998853,,,,844.5935406000353,844.6052115000784,844.6052115000784,844.6538245999254,844.6540498998947,844.670297899982,844.670297899982,844.670297899982,844.7368627998512,,,,,845.087405399885,,,,,,,,,,,,,,,,,,up,7.119355999864638,None,space,0.40421589999459684,None,P136,001,2025-03-26_16h13.01.773,posner_endo_new1,2024.2.4,59.9887221460989,2025-03-26 16h13.08.981912 +0000,
cube_l.png,0.1,-0.31,valid,31,31,0,up,11.33281430019997,None,space,0.37449900014325976,None,,,,,,,,,0,31,31,31,845.1032543000765,,,,,,,,,,,,,845.0875832999591,845.1032543000765,845.1032543000765,845.1032543000765,856.4424425000325,,,,856.4482648998965,856.4599661000539,856.4599661000539,856.5082133999094,856.508436499862,856.5248771000188,856.5248771000188,856.5248771000188,856.6080835000612,,,,,856.9086535000242,,,,,,,,,,,,,,,,,,up,11.33281430019997,None,space,0.37449900014325976,None,P136,001,2025-03-26_16h13.01.773,posner_endo_new1,2024.2.4,59.9887221460989,2025-03-26 16h13.08.981912 +0000,
cube_r.png,0.1,0.31,valid,32,32,0,up,5.983167099999264,None,space,0.4094030999112874,None,,,,,,,,,0,32,32,32,856.9244836999569,,,,,,,,,,,,,856.9088399999309,856.9244836999569,856.9244836999569,856.9244836999569,862.9190129998606,,,,862.924914599862,862.9365872000344,862.9365872000344,862.9849264000077,862.9851468000561,863.001644999953,863.001644999953,863.001644999953,863.0681849999819,,,,,863.4184371998999,,,,,,,,,,,,,,,,,,up,5.983167099999264,None,space,0.4094030999112874,None,P136,001,2025-03-26_16h13.01.773,posner_endo_new1,2024.2.4,59.9887221460989,2025-03-26 16h13.08.981912 +0000,
cube_r.png,0.1,-0.31,invalid,33,33,0,up,5.657663800055161,None,space,0.3876420999877155,None,,,,,,,,,0,33,33,33,863.4344452999067,,,,,,,,,,,,,863.4186124999542,863.4344452999067,863.4344452999067,863.4344452999067,869.0960998998489,,,,869.101911299862,869.1135408999398,869.1135408999398,869.1620606998913,869.1622983000707,869.1786720999517,869.1786720999517,869.1786720999517,869.245149999857,,,,,869.5788839000743,,,,,,,,,,,,,,,,,,up,5.657663800055161,None,space,0.3876420999877155,None,P136,001,2025-03-26_16h13.01.773,posner_endo_new1,2024.2.4,59.9887221460989,2025-03-26 16h13.08.981912 +0000,
cube_r.png,0.1,10,catch,34,34,0,up,5.904942700173706,None,None,,,,,,,,,,,0,34,34,34,869.5947721998673,,,,,,,,,,,,,869.5790639000479,869.5947721998673,869.5947721998673,869.5947721998673,875.5060701998882,,,,875.5118378999177,875.523466899991,875.523466899991,875.5720706998836,875.5722908999305,875.5887559999246,875.5887559999246,875.5887559999246,875.6552210000809,877.6697153998539,878.6021282998845,878.6021282998845,878.6021282998845,878.5863095000386,,,,,,,,,,,,,,,,,,up,5.904942700173706,None,None,,,P136,001,2025-03-26_16h13.01.773,posner_endo_new1,2024.2.4,59.9887221460989,2025-03-26 16h13.08.981912 +0000,
cube_r.png,0.1,0.31,valid,35,35,0,up,2.977671399945393,None,space,0.40546809998340905,None,,,,,,,,,0,35,35,35,878.6021282998845,,,,,,,,,,,,,878.586546599865,878.6021282998845,878.6021282998845,878.6021282998845,881.5833989998791,,,,881.5891469998751,881.6006411998533,881.6006411998533,881.6492779999971,881.6495052999817,881.665662100073,881.665662100073,881.665662100073,881.7326336998958,,,,,882.082814599853,,,,,,,,,,,,,,,,,,up,2.977671399945393,None,space,0.40546809998340905,None,P136,001,2025-03-26_16h13.01.773,posner_endo_new1,2024.2.4,59.9887221460989,2025-03-26 16h13.08.981912 +0000,
cube_r.png,0.1,-0.31,invalid,36,36,0,up,5.825555300107226,None,space,0.3913122999947518,None,,,,,,,,,0,36,36,36,882.0988159000408,,,,,,,,,,,,,882.0829866998829,882.0988159000408,882.0988159000408,882.0988159000408,887.9269896000624,,,,887.9327507000417,887.9442884000018,887.9442884000018,887.9927975998726,887.993021100061,888.0092519999016,888.0092519999016,888.0092519999016,888.0926123000681,,,,,888.4096862999722,,,,,,,,,,,,,,,,,,up,5.825555300107226,None,space,0.3913122999947518,None,P136,001,2025-03-26_16h13.01.773,posner_endo_new1,2024.2.4,59.9887221460989,2025-03-26 16h13.08.981912 +0000,
cube_l.png,0.1,0.31,invalid,37,37,0,up,6.2341434000991285,None,space,0.37848979979753494,None,,,,,,,,,0,37,37,37,888.4255637000315,,,,,,,,,,,,,888.4098676000722,888.4255637000315,888.4255637000315,888.4255637000315,894.6698266000021,,,,894.6758524999022,894.6875328000169,894.6875328000169,894.7358003000263,894.7360207000747,894.7524532000534,894.7524532000534,894.7524532000534,894.8190025999211,,,,,895.1359862999525,,,,,,,,,,,,,,,,,,up,6.2341434000991285,None,space,0.37848979979753494,None,P136,001,2025-03-26_16h13.01.773,posner_endo_new1,2024.2.4,59.9887221460989,2025-03-26 16h13.08.981912 +0000,
cube_l.png,0.1,0.31,invalid,38,38,0,up,7.212051599984989,None,space,0.3689604999963194,None,,,,,,,,,0,38,38,38,895.1520126999822,,,,,,,,,,,,,895.1361601999961,895.1520126999822,895.1520126999822,895.1520126999822,902.3786667999811,,,,902.3843964000698,902.3959844999481,902.3959844999481,902.4445769998711,902.4447983999271,902.4611710999161,902.4611710999161,902.4611710999161,902.5278390999883,,,,,902.844870199915,,,,,,,,,,,,,,,,,,up,7.212051599984989,None,space,0.3689604999963194,None,P136,001,2025-03-26_16h13.01.773,posner_endo_new1,2024.2.4,59.9887221460989,2025-03-26 16h13.08.981912 +0000,
cube_r.png,0.1,0.31,valid,39,39,0,up,5.471295699942857,None,space,0.36375639983452857,None,,,,,,,,,0,39,39,39,902.8608639000449,,,,,,,,,,,,,902.8450448000804,902.8608639000449,902.8608639000449,902.8608639000449,908.3393542999402,,,,908.3451711998787,908.3568450999446,908.3568450999446,908.4056340998504,908.4058530998882,908.421943299938,908.421943299938,908.421943299938,908.5049445999321,,,,,908.7887534999754,,,,,,,,,,,,,,,,,,up,5.471295699942857,None,space,0.36375639983452857,None,P136,001,2025-03-26_16h13.01.773,posner_endo_new1,2024.2.4,59.9887221460989,2025-03-26 16h13.08.981912 +0000,
cube_l.png,0.1,0.31,invalid,40,40,0,up,4.894833100028336,None,space,0.4353534998372197,None,,,,,,,,,0,40,40,40,908.8047770999838,,,,,,,,,,,,,908.7889324999414,908.8047770999838,908.8047770999838,908.8047770999838,913.7004424999468,,,,913.7062325999141,913.7180200000294,913.7180200000294,913.7663736999966,913.7665973999538,913.78305489989,913.78305489989,913.78305489989,913.8496354999952,,,,,914.2330849999562,,,,,,,,,,,,,,,,,,up,4.894833100028336,None,space,0.4353534998372197,None,P136,001,2025-03-26_16h13.01.773,posner_endo_new1,2024.2.4,59.9887221460989,2025-03-26 16h13.08.981912 +0000,
cube_l.png,0.1,10,catch,41,41,0,up,5.395098200067878,None,None,,,,,,,,,,,0,41,41,41,914.2491017000284,,,,,,,,,,,,,914.2332593998872,914.2491017000284,914.2491017000284,914.2491017000284,919.6611083999742,,,,919.6669354999904,919.6784200000111,919.6784200000111,919.7269110998604,919.7271411998663,919.7435532000381,919.7435532000381,919.7435532000381,919.8266991998535,921.8413114000577,922.7572004999965,922.7572004999965,922.7572004999965,922.7408110999968,,,,,,,,,,,,,,,,,,up,5.395098200067878,None,None,,,P136,001,2025-03-26_16h13.01.773,posner_endo_new1,2024.2.4,59.9887221460989,2025-03-26 16h13.08.981912 +0000,
cube_l.png,0.1,-0.31,valid,42,42,0,up,3.4628290999680758,None,space,0.36650920007377863,None,,,,,,,,,0,42,42,42,922.7572004999965,,,,,,,,,,,,,922.7409759999719,922.7572004999965,922.7572004999965,922.7572004999965,926.2210400998592,,,,926.2268030999694,926.2382374999579,926.2382374999579,926.2869553999044,926.2871806998737,926.3035047999583,926.3035047999583,926.3035047999583,926.3867818000726,,,,,926.6707257998642,,,,,,,,,,,,,,,,,,up,3.4628290999680758,None,space,0.36650920007377863,None,P136,001,2025-03-26_16h13.01.773,posner_endo_new1,2024.2.4,59.9887221460989,2025-03-26 16h13.08.981912 +0000,
cube_l.png,0.1,10,catch,43,43,0,up,7.301079299999401,None,None,,,,,,,,,,,0,43,43,43,926.6865050999913,,,,,,,,,,,,,926.6708988999017,926.6865050999913,926.6865050999913,926.6865050999913,933.9963058999274,,,,934.0021130999085,934.0135369000491,934.0135369000491,934.0623361999169,934.0625595999882,934.0789190998767,934.0789190998767,934.0789190998767,934.1454493999481,936.1599890000653,937.0925370000768,937.0925370000768,937.0925370000768,937.0762757000048,,,,,,,,,,,,,,,,,,up,7.301079299999401,None,None,,,P136,001,2025-03-26_16h13.01.773,posner_endo_new1,2024.2.4,59.9887221460989,2025-03-26 16h13.08.981912 +0000,
cube_l.png,0.1,0.31,invalid,44,44,0,up,2.6072078000288457,None,space,0.42419389984570444,None,,,,,,,,,0,44,44,44,937.0925370000768,,,,,,,,,,,,,937.0764391999692,937.0925370000768,937.0925370000768,937.0925370000768,939.7070724999066,,,,939.7127964999527,939.7244724000338,939.7244724000338,939.7731424998492,939.7733630000148,939.7897393999156,939.7897393999156,939.7897393999156,939.8562423000112,,,,,940.2232172000222,,,,,,,,,,,,,,,,,,up,2.6072078000288457,None,space,0.42419389984570444,None,P136,001,2025-03-26_16h13.01.773,posner_endo_new1,2024.2.4,59.9887221460989,2025-03-26 16h13.08.981912 +0000,
cube_l.png,0.1,0.31,invalid,45,45,0,up,5.028855999931693,None,space,0.3551147000398487,None,,,,,,,,,0,45,45,45,940.2392456999514,,,,,,,,,,,,,940.2233911999501,940.2392456999514,940.2392456999514,940.2392456999514,945.2848415998742,,,,945.2906357999891,945.3019671000075,945.3019671000075,945.3507538000122,945.3509738999419,945.3673310000449,945.3673310000449,945.3673310000449,945.4338855000678,,,,,945.7344800999854,,,,,,,,,,,,,,,,,,up,5.028855999931693,None,space,0.3551147000398487,None,P136,001,2025-03-26_16h13.01.773,posner_endo_new1,2024.2.4,59.9887221460989,2025-03-26 16h13.08.981912 +0000,
cube_r.png,0.1,0.31,valid,46,46,0,up,6.798218699870631,None,space,0.6869150998536497,None,,,,,,,,,0,46,46,46,945.7502941999119,,,,,,,,,,,,,945.7346623998601,945.7502941999119,945.7502941999119,945.7502941999119,952.5605996998493,,,,952.5664711999707,952.5781908999197,952.5781908999197,952.6267039000522,952.6269298999105,952.6430835998617,952.6430835998617,952.6430835998617,952.7098447999451,,,,,953.3432052000426,,,,,,,,,,,,,,,,,,up,6.798218699870631,None,space,0.6869150998536497,None,P136,001,2025-03-26_16h13.01.773,posner_endo_new1,2024.2.4,59.9887221460989,2025-03-26 16h13.08.981912 +0000,
cube_l.png,0.1,-0.31,valid,47,47,0,up,5.692680699983612,None,space,0.37741680000908673,None,,,,,,,,,0,47,47,47,953.3591491999105,,,,,,,,,,,,,953.3433790998533,953.3591491999105,953.3591491999105,953.3591491999105,959.054002800025,,,,959.0597943998873,959.0716065999586,959.0716065999586,959.1199842998758,959.1202076999471,959.1364350998774,959.1364350998774,959.1364350998774,959.2031135999132,,,,,959.5200540998485,,,,,,,,,,,,,,,,,,up,5.692680699983612,None,space,0.37741680000908673,None,P136,001,2025-03-26_16h13.01.773,posner_endo_new1,2024.2.4,59.9887221460989,2025-03-26 16h13.08.981912 +0000,
cube_r.png,0.1,-0.31,invalid,48,48,0,up,5.700403199996799,None,space,0.3033208998385817,None,,,,,,,,,0,48,48,48,959.5360600000713,,,,,,,,,,,,,959.5202341999393,959.5360600000713,959.5360600000713,959.5360600000713,965.2476311000064,,,,965.2535192000214,965.2652231999673,965.2652231999673,965.3138220000546,965.3140483000316,965.3301150000188,965.3301150000188,965.3301150000188,965.3968433998525,,,,,965.6473389000166,,,,,,,,,,,,,,,,,,up,5.700403199996799,None,space,0.3033208998385817,None,P136,001,2025-03-26_16h13.01.773,posner_endo_new1,2024.2.4,59.9887221460989,2025-03-26 16h13.08.981912 +0000,
cube_r.png,0.1,10,catch,49,49,0,up,5.132484599947929,None,None,,,,,,,,,,,0,49,49,49,965.663275500061,,,,,,,,,,,,,965.6475112999324,965.663275500061,965.663275500061,965.663275500061,970.8089137000497,,,,970.8147199000232,970.8263896000572,970.8263896000572,970.8746023999993,970.8748238000553,970.891210099915,970.891210099915,970.891210099915,970.9743733999785,972.989087499911,973.9049005999696,973.9049005999696,973.9049005999696,973.8886495998595,,,,,,,,,,,,,,,,,,up,5.132484599947929,None,None,,,P136,001,2025-03-26_16h13.01.773,posner_endo_new1,2024.2.4,59.9887221460989,2025-03-26 16h13.08.981912 +0000,
cube_l.png,0.1,-0.31,valid,50,50,0,up,4.882752599893138,None,space,0.38337890012189746,None,,,,,,,,,0,50,50,50,973.9049005999696,,,,,,,,,,,,,973.8888168998528,973.9049005999696,973.9049005999696,973.9049005999696,978.8004262999166,,,,978.8062561000697,978.8179476999212,978.8179476999212,978.8664050998632,978.8666268999223,978.8830613000318,978.8830613000318,978.8830613000318,978.9495661999099,,,,,979.2832486999687,,,,,,,,,,,,,,,,,,up,4.882752599893138,None,space,0.38337890012189746,None,P136,001,2025-03-26_16h13.01.773,posner_endo_new1,2024.2.4,59.9887221460989,2025-03-26 16h13.08.981912 +0000,
cube_l.png,0.1,-0.31,valid,51,51,0,up,5.448501900071278,None,space,0.3876614000182599,None,,,,,,,,,0,51,51,51,979.2992765998933,,,,,,,,,,,,,979.2834387000185,979.2992765998933,979.2992765998933,979.2992765998933,984.7610392998904,,,,984.7670537000522,984.778742800001,984.778742800001,984.8270826998632,984.8273076999467,984.8434152000118,984.8434152000118,984.8434152000118,984.9102554998826,,,,,985.2438686999958,,,,,,,,,,,,,,,,,,up,5.448501900071278,None,space,0.3876614000182599,None,P136,001,2025-03-26_16h13.01.773,posner_endo_new1,2024.2.4,59.9887221460989,2025-03-26 16h13.08.981912 +0000,
cube_r.png,0.1,-0.31,invalid,52,52,0,up,5.265643999911845,None,space,0.37045919988304377,None,,,,,,,,,0,52,52,52,985.2598794000223,,,,,,,,,,,,,985.2440414000303,985.2598794000223,985.2598794000223,985.2598794000223,990.5384553000331,,,,990.5443640998565,990.5559995998628,990.5559995998628,990.6043352999259,990.6045579998754,990.6209537999239,990.6209537999239,990.6209537999239,990.6877039000392,,,,,991.0046544000506,,,,,,,,,,,,,,,,,,up,5.265643999911845,None,space,0.37045919988304377,None,P136,001,2025-03-26_16h13.01.773,posner_endo_new1,2024.2.4,59.9887221460989,2025-03-26 16h13.08.981912 +0000,
cube_l.png,0.1,-0.31,valid,53,53,0,up,5.655684900004417,None,space,0.36076650000177324,None,,,,,,,,,0,53,53,53,991.0207048999146,,,,,,,,,,,,,991.0048318998888,991.0207048999146,991.0207048999146,991.0207048999146,996.6824560998939,,,,996.6882255999371,996.6998729999177,996.6998729999177,996.7482270000037,996.748452699976,996.7645727999043,996.7645727999043,996.7645727999043,996.848008699948,,,,,997.1319655000698,,,,,,,,,,,,,,,,,,up,5.655684900004417,None,space,0.36076650000177324,None,P136,001,2025-03-26_16h13.01.773,posner_endo_new1,2024.2.4,59.9887221460989,2025-03-26 16h13.08.981912 +0000,
cube_r.png,0.1,10,catch,54,54,0,up,6.072245700052008,None,None,,,,,,,,,,,0,54,54,54,997.1476145000197,,,,,,,,,,,,,997.1321365998592,997.1476145000197,997.1476145000197,997.1476145000197,1003.2255790000781,,,,1003.2318177998532,1003.2434771999251,1003.2434771999251,1003.2914032000117,1003.2916246999521,1003.3080438999459,1003.3080438999459,1003.3080438999459,1003.3912702000234,1005.4063156999182,1006.3215179999825,1006.3215179999825,1006.3215179999825,1006.3055087998509,,,,,,,,,,,,,,,,,,up,6.072245700052008,None,None,,,P136,001,2025-03-26_16h13.01.773,posner_endo_new1,2024.2.4,59.9887221460989,2025-03-26 16h13.08.981912 +0000,
cube_l.png,0.1,0.31,invalid,55,55,0,up,2.6981129001360387,None,space,0.4674435998313129,None,,,,,,,,,0,55,55,55,1006.3215179999825,,,,,,,,,,,,,1006.3056691999082,1006.3215179999825,1006.3215179999825,1006.3215179999825,1009.036367499968,,,,1009.0422064999584,1009.0536459998693,1009.0536459998693,1009.1022409000434,1009.1024635999929,1009.1186859998852,1009.1186859998852,1009.1186859998852,1009.201881099958,,,,,1009.602377000032,,,,,,,,,,,,,,,,,,up,2.6981129001360387,None,space,0.4674435998313129,None,P136,001,2025-03-26_16h13.01.773,posner_endo_new1,2024.2.4,59.9887221460989,2025-03-26 16h13.08.981912 +0000,
cube_l.png,0.1,-0.31,valid,56,56,0,up,4.257708800025284,None,space,0.3917111000046134,None,,,,,,,,,0,56,56,56,1009.6182452999055,,,,,,,,,,,,,1009.6025507000741,1009.6182452999055,1009.6182452999055,1009.6182452999055,1013.8812046998646,,,,1013.886916300049,1013.8985655000433,1013.8985655000433,1013.9473451999947,1013.9475650000386,1013.96366759995,1013.96366759995,1013.96366759995,1014.0303384999279,,,,,1014.3641703000758,,,,,,,,,,,,,,,,,,up,4.257708800025284,None,space,0.3917111000046134,None,P136,001,2025-03-26_16h13.01.773,posner_endo_new1,2024.2.4,59.9887221460989,2025-03-26 16h13.08.981912 +0000,
cube_r.png,0.1,0.31,valid,57,57,0,up,6.280165400123224,None,space,0.4238388000521809,None,,,,,,,,,0,57,57,57,1014.3798601999879,,,,,,,,,,,,,1014.3643421998713,1014.3798601999879,1014.3798601999879,1014.3798601999879,1020.6742571999785,,,,1020.6803152000066,1020.691996099893,1020.691996099893,1020.7401884999126,1020.7404086000752,1020.7567854998633,1020.7567854998633,1020.7567854998633,1020.823381899856,,,,,1021.1903252999764,,,,,,,,,,,,,,,,,,up,6.280165400123224,None,space,0.4238388000521809,None,P136,001,2025-03-26_16h13.01.773,posner_endo_new1,2024.2.4,59.9887221460989,2025-03-26 16h13.08.981912 +0000,
cube_r.png,0.1,-0.31,invalid,58,58,0,up,5.205565199954435,None,space,0.3655840998981148,None,,,,,,,,,0,58,58,58,1021.2063279000577,,,,,,,,,,,,,1021.1904984998982,1021.2063279000577,1021.2063279000577,1021.2063279000577,1026.4183608000167,,,,1026.4241786000784,1026.4357912999112,1026.4357912999112,1026.484465799993,1026.4846915998496,1026.5010354998522,1026.5010354998522,1026.5010354998522,1026.567358299857,,,,,1026.8682418998796,,,,,,,,,,,,,,,,,,up,5.205565199954435,None,space,0.3655840998981148,None,P136,001,2025-03-26_16h13.01.773,posner_endo_new1,2024.2.4,59.9887221460989,2025-03-26 16h13.08.981912 +0000,
cube_l.png,0.1,0.31,invalid,59,59,0,up,6.255997099913657,None,space,0.391273400047794,None,,,,,,,,,0,59,59,59,1026.8837611998897,,,,,,,,,,,,,1026.8684153000358,1026.8837611998897,1026.8837611998897,1026.8837611998897,1033.1449070998933,,,,1033.1507683000527,1033.1626871000044,1033.1626871000044,1033.2107325999532,1033.2109598000534,1033.2274770999793,1033.2274770999793,1033.2274770999793,1033.3105979000684,,,,,1033.6276282998733,,,,,,,,,,,,,,,,,,up,6.255997099913657,None,space,0.391273400047794,None,P136,001,2025-03-26_16h13.01.773,posner_endo_new1,2024.2.4,59.9887221460989,2025-03-26 16h13.08.981912 +0000,
