cue_img,cue_soa,target_x,trial,thisN,thisTrialN,thisRepN,key_control2.keys,key_control2.rt,key_control2.duration,key_resp.keys,key_resp.rt,key_resp.duration,practice.thisRepN,practice.thisTrialN,practice.thisN,practice.thisIndex,block1.thisRepN,block1.thisTrialN,block1.thisN,block1.thisIndex,block2.thisRepN,block2.thisTrialN,block2.thisN,block2.thisIndex,thisRow.t,notes,instructions.started,instructions_txt.started,key_control.started,instructions.stopped,key_control.keys,key_control.rt,key_control.duration,ready.started,ready_txt.started,ready_txt.stopped,ready.stopped,fix.started,fixation.started,key_control2.started,fixation_cross.started,fix.stopped,practice.key_control2.keys,practice.key_control2.rt,practice.key_control2.duration,cue.started,cube.started,fixation_cross_cue.started,cue.stopped,target.started,fixation_target.started,fixation_cross_target.started,key_resp.started,star.started,star.stopped,fixation_target.stopped,fixation_cross_target.stopped,key_resp.stopped,target.stopped,practice.key_resp.keys,practice.key_resp.rt,practice.key_resp.duration,block1.key_control2.keys,block1.key_control2.rt,block1.key_control2.duration,block1.key_resp.keys,block1.key_resp.rt,block1.key_resp.duration,break_2.started,text.started,key_control3.started,text.stopped,break_2.stopped,key_control3.keys,key_control3.rt,key_control3.duration,block2.key_control2.keys,block2.key_control2.rt,block2.key_control2.duration,block2.key_resp.keys,block2.key_resp.rt,block2.key_resp.duration,participant,session,date,expName,psychopyVersion,frameRate,expStart,
,,,,,,,,,,,,,,,,,,,,,,,,,,,0.007461200002580881,0.019795000087469816,0.019795000087469816,280.7552151000127,up,280.7281502999831,None,,,,,,,,,,,,,,,,,,,,,,,,,,,,,,,,,,,,,,,,,,,,,,,,,,P137,001,2025-03-26_17h07.10.920,posner_endo_new1,2024.2.4,60.090412036838885,2025-03-26 17h07.27.061831 +0000,
,,,,,,,,,,,,,,,,,,,,,,,,,,,,,,,,,,280.7552839999553,280.76709960005246,283.7658041000832,283.74693810008466,,,,,,,,,,,,,,,,,,,,,,,,,,,,,,,,,,,,,,,,,,,,,,P137,001,2025-03-26_17h07.10.920,posner_endo_new1,2024.2.4,60.090412036838885,2025-03-26 17h07.27.061831 +0000,
cube_r.png,0.1,10,catch,0,0,0,up,22.90977089991793,None,None,,,0,0,0,3,,,,,,,,,283.7658041000832,,,,,,,,,,,,,283.7543681000825,283.7658041000832,283.7658041000832,283.7658041000832,306.6904746000655,up,22.90977089991793,None,306.7012986000627,306.711358099943,306.711358099943,306.7563449998852,306.75657179998234,306.77289839996956,306.77289839996956,306.77289839996956,306.8394943999592,308.8541508000344,309.78662719996646,309.78662719996646,309.78662719996646,309.7702180999331,None,,,,,,,,,,,,,,,,,,,,,,,P137,001,2025-03-26_17h07.10.920,posner_endo_new1,2024.2.4,60.090412036838885,2025-03-26 17h07.27.061831 +0000,
cube_l.png,0.1,0.31,invalid,1,1,0,up,1.6405325001105666,None,space,0.5549290000926703,None,0,1,1,5,,,,,,,,,309.78662719996646,,,,,,,,,,,,,309.7703702999279,309.78662719996646,309.78662719996646,309.78662719996646,311.43513139989227,up,1.6405325001105666,None,311.44221769995056,311.4540277000051,311.4540277000051,311.5011698999442,311.5013967999257,311.5180385999847,311.5180385999847,311.5180385999847,311.584696700098,,,,,312.08471899991855,space,0.5549290000926703,None,,,,,,,,,,,,,,,,,,,,,P137,001,2025-03-26_17h07.10.920,posner_endo_new1,2024.2.4,60.090412036838885,2025-03-26 17h07.27.061831 +0000,
cube_l.png,0.1,-0.31,valid,2,2,0,up,3.7989407998975366,None,space,0.4990584999322891,None,0,2,2,4,,,,,,,,,312.1007187999785,,,,,,,,,,,,,312.0848805999849,312.1007187999785,312.1007187999785,312.1007187999785,315.9143878000323,up,3.7989407998975366,None,315.9204547998961,315.93217739998363,315.93217739998363,315.9801481999457,315.98037209990434,315.99685889994726,315.99685889994726,315.99685889994726,316.0635120999068,,,,,316.4969810999464,space,0.4990584999322891,None,,,,,,,,,,,,,,,,,,,,,P137,001,2025-03-26_17h07.10.920,posner_endo_new1,2024.2.4,60.090412036838885,2025-03-26 17h07.27.061831 +0000,
cube_l.png,0.1,0.31,invalid,3,3,0,up,4.194443799788132,None,space,0.308408800046891,None,0,3,3,1,,,,,,,,,316.512992199976,,,,,,,,,,,,,316.4971427000128,316.512992199976,316.512992199976,316.512992199976,320.709727199981,up,4.194443799788132,None,320.7192776000593,320.72938170004636,320.72938170004636,320.775390899973,320.77569529996254,320.79196580010466,320.79196580010466,320.79196580010466,320.8752478000242,,,,,321.10934769990854,space,0.308408800046891,None,,,,,,,,,,,,,,,,,,,,,P137,001,2025-03-26_17h07.10.920,posner_endo_new1,2024.2.4,60.090412036838885,2025-03-26 17h07.27.061831 +0000,
cube_r.png,0.1,0.31,valid,4,4,0,up,3.934430999914184,None,space,0.29110009991563857,None,0,4,4,10,,,,,,,,,321.12504750001244,,,,,,,,,,,,,321.10958339995705,321.12504750001244,321.12504750001244,321.12504750001244,325.0719526000321,up,3.934430999914184,None,325.08266779989935,325.09281460009515,325.09281460009515,325.1376181000378,325.1379501000047,325.15416499995627,325.15416499995627,325.15416499995627,325.23736259993166,,,,,325.4549159000162,space,0.29110009991563857,None,,,,,,,,,,,,,,,,,,,,,P137,001,2025-03-26_17h07.10.920,posner_endo_new1,2024.2.4,60.090412036838885,2025-03-26 17h07.27.061831 +0000,
cube_l.png,0.1,-0.31,valid,5,5,0,up,4.252816699910909,None,space,0.33405609987676144,None,0,5,5,0,,,,,,,,,325.4705833999906,,,,,,,,,,,,,325.45518020004965,325.4705833999906,325.4705833999906,325.4705833999906,329.7338360999711,up,4.252816699910909,None,329.74457819992676,329.75474769994617,329.75474769994617,329.79957780009136,329.7999160999898,329.81608529994264,329.81608529994264,329.81608529994264,329.89929280010983,,,,,330.1668692000676,space,0.33405609987676144,None,,,,,,,,,,,,,,,,,,,,,P137,001,2025-03-26_17h07.10.920,posner_endo_new1,2024.2.4,60.090412036838885,2025-03-26 17h07.27.061831 +0000,
cube_r.png,0.1,-0.31,invalid,6,6,0,up,4.124850499909371,None,space,0.27768340008333325,None,0,6,6,2,,,,,,,,,330.18236340000294,,,,,,,,,,,,,330.16713159997016,330.18236340000294,330.18236340000294,330.18236340000294,334.31241449993104,up,4.124850499909371,None,334.31831320002675,334.3301683999598,334.3301683999598,334.3781520999037,334.3783738000784,334.39468139992096,334.39468139992096,334.39468139992096,334.4780262000859,,,,,334.6785474999342,space,0.27768340008333325,None,,,,,,,,,,,,,,,,,,,,,P137,001,2025-03-26_17h07.10.920,posner_endo_new1,2024.2.4,60.090412036838885,2025-03-26 17h07.27.061831 +0000,
cube_r.png,0.1,0.31,valid,7,7,0,up,4.949617699952796,None,space,0.44675079989247024,None,0,7,7,7,,,,,,,,,334.6938513999339,,,,,,,,,,,,,334.678708499996,334.6938513999339,334.6938513999339,334.6938513999339,339.65666690003127,up,4.949617699952796,None,339.66316169989295,339.67489710007794,339.67489710007794,339.7226559999399,339.72287610010244,339.7393092000857,339.7393092000857,339.7393092000857,339.8059924999252,,,,,340.18954079994,space,0.44675079989247024,None,,,,,,,,,,,,,,,,,,,,,P137,001,2025-03-26_17h07.10.920,posner_endo_new1,2024.2.4,60.090412036838885,2025-03-26 17h07.27.061831 +0000,
cube_l.png,0.1,-0.31,valid,8,8,0,up,4.814631700050086,None,space,0.33877369994297624,None,0,8,8,8,,,,,,,,,340.2054308000952,,,,,,,,,,,,,340.18971120007336,340.2054308000952,340.2054308000952,340.2054308000952,345.0345161999576,up,4.814631700050086,None,345.04047350003384,345.052200099919,345.052200099919,345.1006247999612,345.1008472000249,345.1171806000639,345.1171806000639,345.1171806000639,345.1835141000338,,,,,345.4674432000611,space,0.33877369994297624,None,,,,,,,,,,,,,,,,,,,,,P137,001,2025-03-26_17h07.10.920,posner_endo_new1,2024.2.4,60.090412036838885,2025-03-26 17h07.27.061831 +0000,
cube_r.png,0.1,-0.31,invalid,9,9,0,up,4.279704599874094,None,space,0.29890319984406233,None,0,9,9,6,,,,,,,,,345.4833595000673,,,,,,,,,,,,,345.46760599990375,345.4833595000673,345.4833595000673,345.4833595000673,349.77965139993466,up,4.279704599874094,None,349.7856525001116,349.7971461999696,349.7971461999696,349.84563879994676,349.84586209990084,349.86219340004027,349.86219340004027,349.86219340004027,349.92893630010076,,,,,350.16274320008233,space,0.29890319984406233,None,,,,,,,,,,,,,,,,,,,,,P137,001,2025-03-26_17h07.10.920,posner_endo_new1,2024.2.4,60.090412036838885,2025-03-26 17h07.27.061831 +0000,
cube_r.png,0.1,-0.31,invalid,10,10,0,up,4.225052800029516,None,space,0.4061716999858618,None,0,10,10,9,,,,,,,,,350.1785085001029,,,,,,,,,,,,,350.1629039000254,350.1785085001029,350.1785085001029,350.1785085001029,354.40839420002885,up,4.225052800029516,None,354.4144470000174,354.42632550001144,354.42632550001144,354.47414739988744,354.4743695000652,354.4907754000742,354.4907754000742,354.4907754000742,354.5740336999297,,,,,354.9076928999275,space,0.4061716999858618,None,,,,,,,,,,,,,,,,,,,,,P137,001,2025-03-26_17h07.10.920,posner_endo_new1,2024.2.4,60.090412036838885,2025-03-26 17h07.27.061831 +0000,
,,,,,,,,,,,,,,,,,,,,,,,,,,,,,,,,,,354.90780989988707,354.9235763999168,357.9243598000612,357.9042722999584,,,,,,,,,,,,,,,,,,,,,,,,,,,,,,,,,,,,,,,,,,,,,,P137,001,2025-03-26_17h07.10.920,posner_endo_new1,2024.2.4,60.090412036838885,2025-03-26 17h07.27.061831 +0000,
cube_l.png,0.1,10,catch,0,0,0,up,11.606624100124463,None,None,,,,,,,0,0,0,0,,,,,357.9243598000612,,,,,,,,,,,,,357.91561449994333,357.9243598000612,357.9243598000612,357.9243598000612,369.54288859991357,,,,369.55180320004,369.5617643999867,369.5617643999867,369.6088930000551,369.60915619996376,369.62526499992236,369.62526499992236,369.62526499992236,369.70856130006723,371.72304710000753,372.6389196999371,372.6389196999371,372.6389196999371,372.6230230999645,,,,up,11.606624100124463,None,None,,,,,,,,,,,,,,,,,P137,001,2025-03-26_17h07.10.920,posner_endo_new1,2024.2.4,60.090412036838885,2025-03-26 17h07.27.061831 +0000,
cube_l.png,0.1,10,catch,1,1,0,up,3.0370052000507712,None,None,,,,,,,0,1,1,1,,,,,372.6389196999371,,,,,,,,,,,,,372.62321049999446,372.6389196999371,372.6389196999371,372.6389196999371,375.68662380008027,,,,375.6943628001027,375.7054987999145,375.7054987999145,375.75247279996984,375.7527330000885,375.76906719990075,375.76906719990075,375.76906719990075,375.8523313999176,377.8667917998973,378.7825895000715,378.7825895000715,378.7825895000715,378.76644350006245,,,,up,3.0370052000507712,None,None,,,,,,,,,,,,,,,,,P137,001,2025-03-26_17h07.10.920,posner_endo_new1,2024.2.4,60.090412036838885,2025-03-26 17h07.27.061831 +0000,
cube_l.png,0.1,0.31,invalid,2,2,0,up,2.3492394001223147,None,space,0.4628739000763744,None,,,,,0,2,2,2,,,,,378.7825895000715,,,,,,,,,,,,,378.7666398000438,378.7825895000715,378.7825895000715,378.7825895000715,381.1476968000643,,,,381.15536449989304,381.16668300004676,381.16668300004676,381.21353810001165,381.21376319997944,381.2301107000094,381.2301107000094,381.2301107000094,381.31317620002665,,,,,381.69720840011723,,,,up,2.3492394001223147,None,space,0.4628739000763744,None,,,,,,,,,,,,,,,P137,001,2025-03-26_17h07.10.920,posner_endo_new1,2024.2.4,60.090412036838885,2025-03-26 17h07.27.061831 +0000,
cube_l.png,0.1,0.31,invalid,3,3,0,up,5.3382071000523865,None,space,0.2862392000388354,None,,,,,0,3,3,3,,,,,381.71295180008747,,,,,,,,,,,,,381.6973836000543,381.71295180008747,381.71295180008747,381.71295180008747,387.0580513998866,,,,387.0639549999032,387.07570239994675,387.07570239994675,387.1241703000851,387.12439549993724,387.14080010005273,387.14080010005273,387.14080010005273,387.2073445999995,,,,,387.44110909989104,,,,up,5.3382071000523865,None,space,0.2862392000388354,None,,,,,,,,,,,,,,,P137,001,2025-03-26_17h07.10.920,posner_endo_new1,2024.2.4,60.090412036838885,2025-03-26 17h07.27.061831 +0000,
cube_l.png,0.1,-0.31,valid,4,4,0,up,4.530069899978116,None,space,0.271029100054875,None,,,,,0,4,4,4,,,,,387.45708109997213,,,,,,,,,,,,,387.44128059991635,387.45708109997213,387.45708109997213,387.45708109997213,392.0029166000895,,,,392.00907339993864,392.0208459000569,392.0208459000569,392.0690144998953,392.0692364999559,392.0857281999197,392.0857281999197,392.0857281999197,392.1523728000466,,,,,392.3693220000714,,,,up,4.530069899978116,None,space,0.271029100054875,None,,,,,,,,,,,,,,,P137,001,2025-03-26_17h07.10.920,posner_endo_new1,2024.2.4,60.090412036838885,2025-03-26 17h07.27.061831 +0000,
cube_r.png,0.1,-0.31,invalid,5,5,0,up,4.777864699950442,None,space,0.2685967998113483,None,,,,,0,5,5,5,,,,,392.38543120003305,,,,,,,,,,,,,392.3694937999826,392.38543120003305,392.38543120003305,392.38543120003305,397.1647350001149,,,,397.1709845000878,397.18277400010265,397.18277400010265,397.2304920000024,397.2307146000676,397.24708970007487,397.24708970007487,397.24708970007487,397.330164300045,,,,,397.5309061999433,,,,up,4.777864699950442,None,space,0.2685967998113483,None,,,,,,,,,,,,,,,P137,001,2025-03-26_17h07.10.920,posner_endo_new1,2024.2.4,60.090412036838885,2025-03-26 17h07.27.061831 +0000,
cube_r.png,0.1,0.31,valid,6,6,0,up,4.184774699853733,None,space,0.23415699996985495,None,,,,,0,6,6,6,,,,,397.5467290999368,,,,,,,,,,,,,397.53107749996707,397.5467290999368,397.5467290999368,397.5467290999368,401.74324139999226,,,,401.7494200000074,401.76110360003076,401.76110360003076,401.809234400047,401.80946370004676,401.8260532000568,401.8260532000568,401.8260532000568,401.9088413999416,,,,,402.0762507999316,,,,up,4.184774699853733,None,space,0.23415699996985495,None,,,,,,,,,,,,,,,P137,001,2025-03-26_17h07.10.920,posner_endo_new1,2024.2.4,60.090412036838885,2025-03-26 17h07.27.061831 +0000,
cube_r.png,0.1,-0.31,invalid,7,7,0,up,4.008006399963051,None,space,0.32642779988236725,None,,,,,0,7,7,7,,,,,402.0920172999613,,,,,,,,,,,,,402.0764214999508,402.0920172999613,402.0920172999613,402.0920172999613,406.10536559997126,,,,406.1112379000988,406.12302529998124,406.12302529998124,406.1714075000491,406.17163089988753,406.18779270001687,406.18779270001687,406.18779270001687,406.27114510000683,,,,,406.52144520008005,,,,up,4.008006399963051,None,space,0.32642779988236725,None,,,,,,,,,,,,,,,P137,001,2025-03-26_17h07.10.920,posner_endo_new1,2024.2.4,60.090412036838885,2025-03-26 17h07.27.061831 +0000,
cube_l.png,0.1,-0.31,valid,8,8,0,up,4.769623700063676,None,space,0.28594069997780025,None,,,,,0,8,8,8,,,,,406.5375149999745,,,,,,,,,,,,,406.5216163001023,406.5375149999745,406.5375149999745,406.5375149999745,411.3166966000572,,,,411.3230053000152,411.33461189991795,411.33461189991795,411.3827663001139,411.38299040007405,411.3992906000931,411.3992906000931,411.3992906000931,411.46581589989364,,,,,411.6994384001009,,,,up,4.769623700063676,None,space,0.28594069997780025,None,,,,,,,,,,,,,,,P137,001,2025-03-26_17h07.10.920,posner_endo_new1,2024.2.4,60.090412036838885,2025-03-26 17h07.27.061831 +0000,
cube_r.png,0.1,-0.31,invalid,9,9,0,up,5.12028510007076,None,space,0.2119638998992741,None,,,,,0,9,9,9,,,,,411.7155309000518,,,,,,,,,,,,,411.69961889996193,411.7155309000518,411.7155309000518,411.7155309000518,416.84462049999274,,,,416.854090299923,416.86421960010193,416.86421960010193,416.91051879990846,416.9108267999254,416.92681320011616,416.92681320011616,416.92681320011616,417.0101604000665,,,,,417.144570000004,,,,up,5.12028510007076,None,space,0.2119638998992741,None,,,,,,,,,,,,,,,P137,001,2025-03-26_17h07.10.920,posner_endo_new1,2024.2.4,60.090412036838885,2025-03-26 17h07.27.061831 +0000,
cube_l.png,0.1,0.31,invalid,10,10,0,up,4.826984800165519,None,space,0.28821170004084706,None,,,,,0,10,10,10,,,,,417.16005049995147,,,,,,,,,,,,,417.1448218000587,417.16005049995147,417.16005049995147,417.16005049995147,421.9895329999272,,,,421.9990232998971,422.00926900003105,422.00926900003105,422.0551273000892,422.05543170007877,422.07167199999094,422.07167199999094,422.07167199999094,422.1549104999285,,,,,422.3723699999973,,,,up,4.826984800165519,None,space,0.28821170004084706,None,,,,,,,,,,,,,,,P137,001,2025-03-26_17h07.10.920,posner_endo_new1,2024.2.4,60.090412036838885,2025-03-26 17h07.27.061831 +0000,
cube_r.png,0.1,-0.31,invalid,11,11,0,up,4.455914800055325,None,space,0.24229730013757944,None,,,,,0,11,11,11,,,,,422.38790259999223,,,,,,,,,,,,,422.3726262000855,422.38790259999223,422.38790259999223,422.38790259999223,426.85111739998683,,,,426.860639099963,426.87078049988486,426.87078049988486,426.9167993001174,426.91710339998826,426.9333486999385,426.9333486999385,426.9333486999385,427.0165832999628,,,,,427.18424579990096,,,,up,4.455914800055325,None,space,0.24229730013757944,None,,,,,,,,,,,,,,,P137,001,2025-03-26_17h07.10.920,posner_endo_new1,2024.2.4,60.090412036838885,2025-03-26 17h07.27.061831 +0000,
cube_r.png,0.1,0.31,valid,12,12,0,up,4.420196200022474,None,space,0.2701711000408977,None,,,,,0,12,12,12,,,,,427.19964549993165,,,,,,,,,,,,,427.18449450004846,427.19964549993165,427.19964549993165,427.19964549993165,431.62965149991214,,,,431.63907949998975,431.64924820000306,431.64924820000306,431.69532610010356,431.6956279000733,431.7116227999795,431.7116227999795,431.7116227999795,431.7951195000205,,,,,431.9958250001073,,,,up,4.420196200022474,None,space,0.2701711000408977,None,,,,,,,,,,,,,,,P137,001,2025-03-26_17h07.10.920,posner_endo_new1,2024.2.4,60.090412036838885,2025-03-26 17h07.27.061831 +0000,
cube_l.png,0.1,10,catch,13,13,0,up,4.392269799951464,None,None,,,,,,,0,13,13,13,,,,,432.011492599966,,,,,,,,,,,,,431.99607499991544,432.011492599966,432.011492599966,432.011492599966,436.4080978001002,,,,436.41716829990037,436.42700910009444,436.42700910009444,436.47363050002605,436.4738501999527,436.49021969991736,436.49021969991736,436.49021969991736,436.57346279988997,438.58799510006793,439.5038850000128,439.5038850000128,439.5038850000128,439.4876963000279,,,,up,4.392269799951464,None,None,,,,,,,,,,,,,,,,,P137,001,2025-03-26_17h07.10.920,posner_endo_new1,2024.2.4,60.090412036838885,2025-03-26 17h07.27.061831 +0000,
cube_r.png,0.1,-0.31,invalid,14,14,0,up,1.7960035998839885,None,space,0.24119409988634288,None,,,,,0,14,14,14,,,,,439.5038850000128,,,,,,,,,,,,,439.4878577000927,439.5038850000128,439.5038850000128,439.5038850000128,441.30264879995957,,,,441.30895219999366,441.3209468999412,441.3209468999412,441.3687001999933,441.3692513999995,441.38508599996567,441.38508599996567,441.38508599996567,441.4517439000774,,,,,441.6369080999866,,,,up,1.7960035998839885,None,space,0.24119409988634288,None,,,,,,,,,,,,,,,P137,001,2025-03-26_17h07.10.920,posner_endo_new1,2024.2.4,60.090412036838885,2025-03-26 17h07.27.061831 +0000,
cube_l.png,0.1,-0.31,valid,15,15,0,up,4.815861799987033,None,space,0.3590314998291433,None,,,,,0,15,15,15,,,,,441.651467599906,,,,,,,,,,,,,441.63738740002736,441.651467599906,441.651467599906,441.651467599906,446.4819328999147,,,,446.50013959989883,446.51145890005864,446.51145890005864,446.54673149995506,446.54727900004946,446.5631613000296,446.5631613000296,446.5631613000296,446.6464263999369,,,,,446.93139469996095,,,,up,4.815861799987033,None,space,0.3590314998291433,None,,,,,,,,,,,,,,,P137,001,2025-03-26_17h07.10.920,posner_endo_new1,2024.2.4,60.090412036838885,2025-03-26 17h07.27.061831 +0000,
cube_r.png,0.1,10,catch,16,16,0,up,4.681499700061977,None,None,,,,,,,0,16,16,16,,,,,446.94610919989645,,,,,,,,,,,,,446.9318667999469,446.94610919989645,446.94610919989645,446.94610919989645,451.6425771000795,,,,451.65363000007346,451.6640041999053,451.6640041999053,451.70822979998775,451.70857989997603,451.72467239992693,451.72467239992693,451.72467239992693,451.80784819996916,453.8227905998938,454.7381398999132,454.7381398999132,454.7381398999132,454.722009900026,,,,up,4.681499700061977,None,None,,,,,,,,,,,,,,,,,P137,001,2025-03-26_17h07.10.920,posner_endo_new1,2024.2.4,60.090412036838885,2025-03-26 17h07.27.061831 +0000,
cube_r.png,0.1,10,catch,17,17,0,up,1.953872200101614,None,None,,,,,,,0,17,17,17,,,,,454.7381398999132,,,,,,,,,,,,,454.7221695999615,454.7381398999132,454.7381398999132,454.7381398999132,456.7035521999933,,,,456.7093575000763,456.7209648001008,456.7209648001008,456.76962499995716,456.7698470999021,456.786073199939,456.786073199939,456.786073199939,456.86916009988636,458.88391710002907,459.799670800101,459.799670800101,459.799670800101,459.7834286999423,,,,up,1.953872200101614,None,None,,,,,,,,,,,,,,,,,P137,001,2025-03-26_17h07.10.920,posner_endo_new1,2024.2.4,60.090412036838885,2025-03-26 17h07.27.061831 +0000,
cube_l.png,0.1,0.31,invalid,18,18,0,up,2.3241584000643343,None,space,0.36811650008894503,None,,,,,0,18,18,18,,,,,459.799670800101,,,,,,,,,,,,,459.7835895998869,459.799670800101,459.799670800101,459.799670800101,462.131453699898,,,,462.1372799000237,462.14896199991927,462.14896199991927,462.1972294000443,462.19745280011557,462.21395780006424,462.21395780006424,462.21395780006424,462.2805490999017,,,,,462.59750159992836,,,,up,2.3241584000643343,None,space,0.36811650008894503,None,,,,,,,,,,,,,,,P137,001,2025-03-26_17h07.10.920,posner_endo_new1,2024.2.4,60.090412036838885,2025-03-26 17h07.27.061831 +0000,
cube_l.png,0.1,10,catch,19,19,0,up,4.638564100023359,None,None,,,,,,,0,19,19,19,,,,,462.61339469999075,,,,,,,,,,,,,462.5976694000419,462.61339469999075,462.61339469999075,462.61339469999075,467.2594711999409,,,,467.26529600005597,467.27705039992,467.27705039992,467.32521190005355,467.32543980004266,467.34195100003853,467.34195100003853,467.34195100003853,467.42524349992163,469.43980429996736,470.3555793000851,470.3555793000851,470.3555793000851,470.3393592000939,,,,up,4.638564100023359,None,None,,,,,,,,,,,,,,,,,P137,001,2025-03-26_17h07.10.920,posner_endo_new1,2024.2.4,60.090412036838885,2025-03-26 17h07.27.061831 +0000,
cube_l.png,0.1,0.31,invalid,20,20,0,up,1.4643329000100493,None,space,0.35121829994022846,None,,,,,0,20,20,20,,,,,470.3555793000851,,,,,,,,,,,,,470.33951659989543,470.3555793000851,470.3555793000851,470.3555793000851,471.82153349998407,,,,471.8272685999982,471.8389204000123,471.8389204000123,471.88743319991045,471.88765679998323,471.90390580007806,471.90390580007806,471.90390580007806,471.9706300001126,,,,,472.2709743999876,,,,up,1.4643329000100493,None,space,0.35121829994022846,None,,,,,,,,,,,,,,,P137,001,2025-03-26_17h07.10.920,posner_endo_new1,2024.2.4,60.090412036838885,2025-03-26 17h07.27.061831 +0000,
cube_l.png,0.1,-0.31,valid,21,21,0,up,4.541079000104219,None,space,0.3683791998773813,None,,,,,0,21,21,21,,,,,472.28692350001074,,,,,,,,,,,,,472.2711501000449,472.28692350001074,472.28692350001074,472.28692350001074,476.8329255001154,,,,476.83874429995194,476.85034399991855,476.85034399991855,476.89905390003696,476.8992840000428,476.9153952000197,476.9153952000197,476.9153952000197,476.9821935000364,,,,,477.2993002999574,,,,up,4.541079000104219,None,space,0.3683791998773813,None,,,,,,,,,,,,,,,P137,001,2025-03-26_17h07.10.920,posner_endo_new1,2024.2.4,60.090412036838885,2025-03-26 17h07.27.061831 +0000,
cube_r.png,0.1,0.31,valid,22,22,0,up,5.559894500067458,None,space,0.3331309000495821,None,,,,,0,22,22,22,,,,,477.31515990011394,,,,,,,,,,,,,477.29946939996444,477.31515990011394,477.31515990011394,477.31515990011394,482.87681089993566,,,,482.88253089995123,482.89409819990396,482.89409819990396,482.9428169000894,482.9430416999385,482.95927120000124,482.95927120000124,482.95927120000124,483.02590040001087,,,,,483.29318940010853,,,,up,5.559894500067458,None,space,0.3331309000495821,None,,,,,,,,,,,,,,,P137,001,2025-03-26_17h07.10.920,posner_endo_new1,2024.2.4,60.090412036838885,2025-03-26 17h07.27.061831 +0000,
cube_r.png,0.1,-0.31,invalid,23,23,0,up,4.310752700082958,None,space,0.35356159997172654,None,,,,,0,23,23,23,,,,,483.3088209000416,,,,,,,,,,,,,483.29336080001667,483.3088209000416,483.3088209000416,483.3088209000416,487.6219613000285,,,,487.6277677998878,487.63953929999843,487.63953929999843,487.68792630010284,487.68815080006607,487.70451910002157,487.70451910002157,487.70451910002157,487.7710072998889,,,,,488.0714745998848,,,,up,4.310752700082958,None,space,0.35356159997172654,None,,,,,,,,,,,,,,,P137,001,2025-03-26_17h07.10.920,posner_endo_new1,2024.2.4,60.090412036838885,2025-03-26 17h07.27.061831 +0000,
cube_r.png,0.1,0.31,valid,24,24,0,up,4.835570000112057,None,space,0.26662519993260503,None,,,,,0,24,24,24,,,,,488.0873503999319,,,,,,,,,,,,,488.07164369989187,488.0873503999319,488.0873503999319,488.0873503999319,492.93299110000953,,,,492.93891849997453,492.95060069998726,492.95060069998726,492.9992184001021,492.99944030004553,493.0157282000873,493.0157282000873,493.0157282000873,493.0822974999901,,,,,493.2830811000895,,,,up,4.835570000112057,None,space,0.26662519993260503,None,,,,,,,,,,,,,,,P137,001,2025-03-26_17h07.10.920,posner_endo_new1,2024.2.4,60.090412036838885,2025-03-26 17h07.27.061831 +0000,
cube_r.png,0.1,-0.31,invalid,25,25,0,up,4.896476999856532,None,space,0.3244777999352664,None,,,,,0,25,25,25,,,,,493.2987969000824,,,,,,,,,,,,,493.2832504999824,493.2987969000824,493.2987969000824,493.2987969000824,498.211125300033,,,,498.21688760002144,498.2286167999264,498.2286167999264,498.27704970003106,498.27727219997905,498.29354070010595,498.29354070010595,498.29354070010595,498.3602007001173,,,,,498.6272599999793,,,,up,4.896476999856532,None,space,0.3244777999352664,None,,,,,,,,,,,,,,,P137,001,2025-03-26_17h07.10.920,posner_endo_new1,2024.2.4,60.090412036838885,2025-03-26 17h07.27.061831 +0000,
cube_l.png,0.1,-0.31,valid,26,26,0,up,4.247592699946836,None,space,0.48234089999459684,None,,,,,0,26,26,26,,,,,498.6434033000842,,,,,,,,,,,,,498.62743009999394,498.6434033000842,498.6434033000842,498.6434033000842,502.9062115000561,,,,502.91195280011743,502.9237251000013,502.9237251000013,502.9723020000383,502.97252580011263,502.98886790010147,502.98886790010147,502.98886790010147,503.0552403999027,,,,,503.47259559994563,,,,up,4.247592699946836,None,space,0.48234089999459684,None,,,,,,,,,,,,,,,P137,001,2025-03-26_17h07.10.920,posner_endo_new1,2024.2.4,60.090412036838885,2025-03-26 17h07.27.061831 +0000,
cube_r.png,0.1,0.31,valid,27,27,0,up,4.555554800201207,None,space,0.2850337000563741,None,,,,,0,27,27,27,,,,,503.488290600013,,,,,,,,,,,,,503.47276349994354,503.488290600013,503.488290600013,503.488290600013,508.05095029994845,,,,508.05671690008603,508.068306399975,508.068306399975,508.11701039993204,508.1172404999379,508.1335583999753,508.1335583999753,508.1335583999753,508.2001078000758,,,,,508.43399600009434,,,,up,4.555554800201207,None,space,0.2850337000563741,None,,,,,,,,,,,,,,,P137,001,2025-03-26_17h07.10.920,posner_endo_new1,2024.2.4,60.090412036838885,2025-03-26 17h07.27.061831 +0000,
cube_r.png,0.1,10,catch,28,28,0,up,4.537457200000063,None,None,,,,,,,0,28,28,28,,,,,508.44980700011365,,,,,,,,,,,,,508.43416820000857,508.44980700011365,508.44980700011365,508.44980700011365,512.9959350000136,,,,513.0017550999764,513.0134161000606,513.0134161000606,513.0619648001157,513.0621907000896,513.0784917001147,513.0784917001147,513.0784917001147,513.1451371000148,515.1595296000596,516.0921424999833,516.0921424999833,516.0921424999833,516.0759556998964,,,,up,4.537457200000063,None,None,,,,,,,,,,,,,,,,,P137,001,2025-03-26_17h07.10.920,posner_endo_new1,2024.2.4,60.090412036838885,2025-03-26 17h07.27.061831 +0000,
cube_r.png,0.1,0.31,valid,29,29,0,up,2.9911380000412464,None,space,0.3110166999977082,None,,,,,0,29,29,29,,,,,516.0921424999833,,,,,,,,,,,,,516.0761140999384,516.0921424999833,516.0921424999833,516.0921424999833,519.0898231999017,,,,519.0957011999562,519.1074802998919,519.1074802998919,519.1556726000272,519.1558936999645,519.1722621000372,519.1722621000372,519.1722621000372,519.238855100004,,,,,519.4894075999036,,,,up,2.9911380000412464,None,space,0.3110166999977082,None,,,,,,,,,,,,,,,P137,001,2025-03-26_17h07.10.920,posner_endo_new1,2024.2.4,60.090412036838885,2025-03-26 17h07.27.061831 +0000,
cube_r.png,0.1,0.31,valid,30,30,0,up,4.986013000132516,None,space,0.22179279988631606,None,,,,,0,30,30,30,,,,,519.5052018000279,,,,,,,,,,,,,519.4895760999061,519.5052018000279,519.5052018000279,519.5052018000279,524.5009031998925,,,,524.5067149999086,524.5183466000017,524.5183466000017,524.5669082000386,524.5671298000962,524.5834325999022,524.5834325999022,524.5834325999022,524.6499942000955,,,,,524.8172534999903,,,,up,4.986013000132516,None,space,0.22179279988631606,None,,,,,,,,,,,,,,,P137,001,2025-03-26_17h07.10.920,posner_endo_new1,2024.2.4,60.090412036838885,2025-03-26 17h07.27.061831 +0000,
cube_l.png,0.1,-0.31,valid,31,31,0,up,5.242641699966043,None,space,0.36382660013623536,None,,,,,0,31,31,31,,,,,524.8329863001127,,,,,,,,,,,,,524.8174250999,524.8329863001127,524.8329863001127,524.8329863001127,530.0784597999882,,,,530.0842458000407,530.0960305999033,530.0960305999033,530.1444025998935,530.1446225999389,530.1610719999298,530.1610719999298,530.1610719999298,530.2276957998984,,,,,530.5279679999221,,,,up,5.242641699966043,None,space,0.36382660013623536,None,,,,,,,,,,,,,,,P137,001,2025-03-26_17h07.10.920,posner_endo_new1,2024.2.4,60.090412036838885,2025-03-26 17h07.27.061831 +0000,
cube_r.png,0.1,0.31,valid,32,32,0,up,4.667405900079757,None,space,0.17308059986680746,None,,,,,0,32,32,32,,,,,530.5439867998939,,,,,,,,,,,,,530.5281372000463,530.5439867998939,530.5439867998939,530.5439867998939,535.2231960999779,,,,535.2289638000075,535.2406377999578,535.2406377999578,535.2892634000164,535.2894856999628,535.3058029999956,535.3058029999956,535.3058029999956,535.3723804000765,,,,,535.4896050000098,,,,up,4.667405900079757,None,space,0.17308059986680746,None,,,,,,,,,,,,,,,P137,001,2025-03-26_17h07.10.920,posner_endo_new1,2024.2.4,60.090412036838885,2025-03-26 17h07.27.061831 +0000,
cube_r.png,0.1,-0.31,invalid,33,33,0,up,3.9472219001036137,None,space,0.25146730011329055,None,,,,,0,33,33,33,,,,,535.5055722000543,,,,,,,,,,,,,535.4897745999042,535.5055722000543,535.5055722000543,535.5055722000543,539.4689782001078,,,,539.4746097000316,539.486341400072,539.486341400072,539.5349310000893,539.5351629999932,539.5513889000285,539.5513889000285,539.5513889000285,539.6179569999222,,,,,539.8184913001023,,,,up,3.9472219001036137,None,space,0.25146730011329055,None,,,,,,,,,,,,,,,P137,001,2025-03-26_17h07.10.920,posner_endo_new1,2024.2.4,60.090412036838885,2025-03-26 17h07.27.061831 +0000,
cube_r.png,0.1,10,catch,34,34,0,up,4.200820000143722,None,space,0.2383864999283105,None,,,,,0,34,34,34,,,,,539.8344421999063,,,,,,,,,,,,,539.8186598999891,539.8344421999063,539.8344421999063,539.8344421999063,544.0473760999739,,,,544.0531395000871,544.0646583999041,544.0646583999041,544.1136080999859,544.1138426999096,544.1298678000458,544.1298678000458,544.1298678000458,544.1965983998962,,,,,544.380521700019,,,,up,4.200820000143722,None,space,0.2383864999283105,None,,,,,,,,,,,,,,,P137,001,2025-03-26_17h07.10.920,posner_endo_new1,2024.2.4,60.090412036838885,2025-03-26 17h07.27.061831 +0000,
cube_r.png,0.1,0.31,valid,35,35,0,up,4.727071299916133,None,space,0.372153100091964,None,,,,,0,35,35,35,,,,,544.396441699937,,,,,,,,,,,,,544.3806916999165,544.396441699937,544.396441699937,544.396441699937,549.12630299991,,,,549.1373123000376,549.1475806001108,549.1475806001108,549.1917713000439,549.1921163999941,549.2081311000511,549.2081311000511,549.2081311000511,549.2915924999397,,,,,549.5922445999458,,,,up,4.727071299916133,None,space,0.372153100091964,None,,,,,,,,,,,,,,,P137,001,2025-03-26_17h07.10.920,posner_endo_new1,2024.2.4,60.090412036838885,2025-03-26 17h07.27.061831 +0000,
cube_r.png,0.1,-0.31,invalid,36,36,0,up,4.107891599880531,None,space,0.318970900028944,None,,,,,0,36,36,36,,,,,549.6077948999591,,,,,,,,,,,,,549.5925276998896,549.6077948999591,549.6077948999591,549.6077948999591,553.7213661000133,,,,553.7324242000468,553.742771799909,553.742771799909,553.7869897000492,553.7873283000663,553.8035424000118,553.8035424000118,553.8035424000118,553.8867575998884,,,,,554.1376684000716,,,,up,4.107891599880531,None,space,0.318970900028944,None,,,,,,,,,,,,,,,P137,001,2025-03-26_17h07.10.920,posner_endo_new1,2024.2.4,60.090412036838885,2025-03-26 17h07.27.061831 +0000,
cube_l.png,0.1,0.31,invalid,37,37,0,up,4.130390800070018,None,space,0.3358390999492258,None,,,,,0,37,37,37,,,,,554.1531779998913,,,,,,,,,,,,,554.1379684000276,554.1531779998913,554.1531779998913,554.1531779998913,558.3000362000894,,,,558.3090033000335,558.3186635000166,558.3186635000166,558.365456199972,558.3656931000296,558.3821894000284,558.3821894000284,558.3821894000284,558.4653604999185,,,,,558.7324977000244,,,,up,4.130390800070018,None,space,0.3358390999492258,None,,,,,,,,,,,,,,,P137,001,2025-03-26_17h07.10.920,posner_endo_new1,2024.2.4,60.090412036838885,2025-03-26 17h07.27.061831 +0000,
cube_l.png,0.1,0.31,invalid,38,38,0,up,4.5746220999863,None,space,0.4023198999930173,None,,,,,0,38,38,38,,,,,558.748414099915,,,,,,,,,,,,,558.7326811999083,558.748414099915,558.748414099915,558.748414099915,563.3277614999097,,,,563.334417700069,563.3462106999941,563.3462106999941,563.3938472000882,563.3940820998978,563.4103512000293,563.4103512000293,563.4103512000293,563.4769005998969,,,,,563.8273599001113,,,,up,4.5746220999863,None,space,0.4023198999930173,None,,,,,,,,,,,,,,,P137,001,2025-03-26_17h07.10.920,posner_endo_new1,2024.2.4,60.090412036838885,2025-03-26 17h07.27.061831 +0000,
cube_r.png,0.1,0.31,valid,39,39,0,up,4.408370300196111,None,space,0.3357846001163125,None,,,,,0,39,39,39,,,,,563.8431065001059,,,,,,,,,,,,,563.8275425999891,563.8431065001059,563.8431065001059,563.8431065001059,568.2561284000985,,,,568.2627493999898,568.2746107999701,568.2746107999701,568.3223349000327,568.3225597001147,568.3386158000212,568.3386158000212,568.3386158000212,568.4219192001037,,,,,568.6889237998985,,,,up,4.408370300196111,None,space,0.3357846001163125,None,,,,,,,,,,,,,,,P137,001,2025-03-26_17h07.10.920,posner_endo_new1,2024.2.4,60.090412036838885,2025-03-26 17h07.27.061831 +0000,
cube_l.png,0.1,0.31,invalid,40,40,0,up,4.635022799950093,None,space,0.3238817001692951,None,,,,,0,40,40,40,,,,,568.7047707999591,,,,,,,,,,,,,568.6890930000227,568.7047707999591,568.7047707999591,568.7047707999591,573.3508150000125,,,,573.3566048999783,573.3679994000122,573.3679994000122,573.4165966999717,573.4170377000701,573.43303439999,573.43303439999,573.43303439999,573.5162468000781,,,,,573.7674447000027,,,,up,4.635022799950093,None,space,0.3238817001692951,None,,,,,,,,,,,,,,,P137,001,2025-03-26_17h07.10.920,posner_endo_new1,2024.2.4,60.090412036838885,2025-03-26 17h07.27.061831 +0000,
cube_l.png,0.1,10,catch,41,41,0,up,4.460422500036657,None,space,0.2934491999913007,None,,,,,0,41,41,41,,,,,573.7826688999776,,,,,,,,,,,,,573.7678153000306,573.7826688999776,573.7826688999776,573.7826688999776,578.2460580000188,,,,578.2552803999279,578.2655601000879,578.2655601000879,578.311968700029,578.31227330002,578.3282792998943,578.3282792998943,578.3282792998943,578.4116726000793,,,,,578.6288226000033,,,,up,4.460422500036657,None,space,0.2934491999913007,None,,,,,,,,,,,,,,,P137,001,2025-03-26_17h07.10.920,posner_endo_new1,2024.2.4,60.090412036838885,2025-03-26 17h07.27.061831 +0000,
cube_l.png,0.1,-0.31,valid,42,42,0,up,4.127173400018364,None,space,0.4233834999613464,None,,,,,0,42,42,42,,,,,578.6446915999986,,,,,,,,,,,,,578.6290686998982,578.6446915999986,578.6446915999986,578.6446915999986,582.7748902000021,,,,582.7841274000239,582.794434200041,582.794434200041,582.8406046000309,582.8409219000023,582.8571309000254,582.8571309000254,582.8571309000254,582.9403707000893,,,,,583.2910776000936,,,,up,4.127173400018364,None,space,0.4233834999613464,None,,,,,,,,,,,,,,,P137,001,2025-03-26_17h07.10.920,posner_endo_new1,2024.2.4,60.090412036838885,2025-03-26 17h07.27.061831 +0000,
cube_l.png,0.1,10,catch,43,43,0,up,3.5695257000625134,None,None,,,,,,,0,43,43,43,,,,,583.3065452000592,,,,,,,,,,,,,583.2913248001132,583.3065452000592,583.3065452000592,583.3065452000592,586.8873610999435,,,,586.896334100049,586.906100400025,586.906100400025,586.9529973000754,586.9532186998986,586.9694652999751,586.9694652999751,586.9694652999751,587.0527534999419,589.0673420999665,589.9830968999304,589.9830968999304,589.9830968999304,589.9669701000676,,,,up,3.5695257000625134,None,None,,,,,,,,,,,,,,,,,P137,001,2025-03-26_17h07.10.920,posner_endo_new1,2024.2.4,60.090412036838885,2025-03-26 17h07.27.061831 +0000,
cube_l.png,0.1,0.31,invalid,44,44,0,up,0.9561825001146644,None,space,0.40882900008000433,None,,,,,0,44,44,44,,,,,589.9830968999304,,,,,,,,,,,,,589.9671277001034,589.9830968999304,589.9830968999304,589.9830968999304,590.9495496999007,,,,590.9557586000301,590.9674911999609,590.9674911999609,591.0155156000983,591.0157359999139,591.0320244999602,591.0320244999602,591.0320244999602,591.0987311000936,,,,,591.4491049000062,,,,up,0.9561825001146644,None,space,0.40882900008000433,None,,,,,,,,,,,,,,,P137,001,2025-03-26_17h07.10.920,posner_endo_new1,2024.2.4,60.090412036838885,2025-03-26 17h07.27.061831 +0000,
cube_l.png,0.1,0.31,invalid,45,45,0,up,3.890602400060743,None,space,0.43998069991357625,None,,,,,0,45,45,45,,,,,591.4649608000182,,,,,,,,,,,,,591.4492724998854,591.4649608000182,591.4649608000182,591.4649608000182,595.3616663001012,,,,595.3674540000502,595.3789520999417,595.3789520999417,595.4277011000086,595.427926100092,595.4441450999584,595.4441450999584,595.4441450999584,595.510854500113,,,,,595.8945492999628,,,,up,3.890602400060743,None,space,0.43998069991357625,None,,,,,,,,,,,,,,,P137,001,2025-03-26_17h07.10.920,posner_endo_new1,2024.2.4,60.090412036838885,2025-03-26 17h07.27.061831 +0000,
cube_r.png,0.1,0.31,valid,46,46,0,up,3.5009035000111908,None,space,0.40957810007967055,None,,,,,0,46,46,46,,,,,595.9103953999002,,,,,,,,,,,,,595.8947153000627,595.9103953999002,595.9103953999002,595.9103953999002,599.4241482999641,,,,599.4299300001003,599.4417952999938,599.4417952999938,599.4900829000399,599.4903039999772,599.5067888998892,599.5067888998892,599.5067888998892,599.5732181998901,,,,,599.9237418000121,,,,up,3.5009035000111908,None,space,0.40957810007967055,None,,,,,,,,,,,,,,,P137,001,2025-03-26_17h07.10.920,posner_endo_new1,2024.2.4,60.090412036838885,2025-03-26 17h07.27.061831 +0000,
cube_l.png,0.1,-0.31,valid,47,47,0,up,4.375328599940985,None,space,0.3534299999009818,None,,,,,0,47,47,47,,,,,599.9396677000914,,,,,,,,,,,,,599.9239095000084,599.9396677000914,599.9396677000914,599.9396677000914,604.3190482999198,,,,604.3249516000506,604.3368152000476,604.3368152000476,604.3851632999722,604.3853843999095,604.4015071999747,604.4015071999747,604.4015071999747,604.4849372000899,,,,,604.7686022000853,,,,up,4.375328599940985,None,space,0.3534299999009818,None,,,,,,,,,,,,,,,P137,001,2025-03-26_17h07.10.920,posner_endo_new1,2024.2.4,60.090412036838885,2025-03-26 17h07.27.061831 +0000,
cube_r.png,0.1,-0.31,invalid,48,48,0,up,4.6031879999209195,None,space,0.2683694001752883,None,,,,,0,48,48,48,,,,,604.784673999995,,,,,,,,,,,,,604.7687683000695,604.784673999995,604.784673999995,604.784673999995,609.3972736001015,,,,609.4030891000293,609.4147636999842,609.4147636999842,609.4634036999196,609.4636240000837,609.4797896998934,609.4797896998934,609.4797896998934,609.5464411000721,,,,,609.7634652999695,,,,up,4.6031879999209195,None,space,0.2683694001752883,None,,,,,,,,,,,,,,,P137,001,2025-03-26_17h07.10.920,posner_endo_new1,2024.2.4,60.090412036838885,2025-03-26 17h07.27.061831 +0000,
cube_r.png,0.1,10,catch,49,49,0,up,4.800466200103983,None,None,,,,,,,0,49,49,49,,,,,609.7794971000403,,,,,,,,,,,,,609.7636317999568,609.7794971000403,609.7794971000403,609.7794971000403,614.5919554999564,,,,614.5977107000072,614.609365100041,614.609365100041,614.6580048999749,614.6582299999427,614.674512000056,614.674512000056,614.674512000056,614.7412215999793,616.7556978999637,617.6880274999421,617.6880274999421,617.6880274999421,617.671905899886,,,,up,4.800466200103983,None,None,,,,,,,,,,,,,,,,,P137,001,2025-03-26_17h07.10.920,posner_endo_new1,2024.2.4,60.090412036838885,2025-03-26 17h07.27.061831 +0000,
cube_l.png,0.1,-0.31,valid,50,50,0,up,1.5877594000194222,None,space,0.4369971000123769,None,,,,,0,50,50,50,,,,,617.6880274999421,,,,,,,,,,,,,617.6720644000452,617.6880274999421,617.6880274999421,617.6880274999421,619.2871795999818,,,,619.2929672000464,619.3046407999936,619.3046407999936,619.353154100012,619.3533777000848,619.369614199968,619.369614199968,619.369614199968,619.4363480000757,,,,,619.8200332000852,,,,up,1.5877594000194222,None,space,0.4369971000123769,None,,,,,,,,,,,,,,,P137,001,2025-03-26_17h07.10.920,posner_endo_new1,2024.2.4,60.090412036838885,2025-03-26 17h07.27.061831 +0000,
cube_l.png,0.1,-0.31,valid,51,51,0,up,4.319193599978462,None,space,0.34091560007072985,None,,,,,0,51,51,51,,,,,619.8360671999399,,,,,,,,,,,,,619.8202019000892,619.8360671999399,619.8360671999399,619.8360671999399,624.1658960001078,,,,624.1750670999754,624.1852231998928,624.1852231998928,624.2316988001112,624.2320018999744,624.2480677999556,624.2480677999556,624.2480677999556,624.3312353999354,,,,,624.5988177999388,,,,up,4.319193599978462,None,space,0.34091560007072985,None,,,,,,,,,,,,,,,P137,001,2025-03-26_17h07.10.920,posner_endo_new1,2024.2.4,60.090412036838885,2025-03-26 17h07.27.061831 +0000,
cube_r.png,0.1,-0.31,invalid,52,52,0,up,4.541158299893141,None,space,0.3718216000124812,None,,,,,0,52,52,52,,,,,624.6143642999232,,,,,,,,,,,,,624.599070899887,624.6143642999232,624.6143642999232,624.6143642999232,629.1607941000257,,,,629.1687288999092,629.1793321999721,629.1793321999721,629.226412900025,629.2267136999872,629.2428663000464,629.2428663000464,629.2428663000464,629.3263671998866,,,,,629.6269992000889,,,,up,4.541158299893141,None,space,0.3718216000124812,None,,,,,,,,,,,,,,,P137,001,2025-03-26_17h07.10.920,posner_endo_new1,2024.2.4,60.090412036838885,2025-03-26 17h07.27.061831 +0000,
cube_l.png,0.1,-0.31,valid,53,53,0,up,3.992954600136727,None,space,0.3494720999151468,None,,,,,0,53,53,53,,,,,629.64254790009,,,,,,,,,,,,,629.6272446000949,629.64254790009,629.64254790009,629.64254790009,633.6397788000759,,,,633.6490448000841,633.6593466000631,633.6593466000631,633.7051733001135,633.7054771000985,633.7217784000095,633.7217784000095,633.7217784000095,633.8050369999837,,,,,634.0725742001086,,,,up,3.992954600136727,None,space,0.3494720999151468,None,,,,,,,,,,,,,,,P137,001,2025-03-26_17h07.10.920,posner_endo_new1,2024.2.4,60.090412036838885,2025-03-26 17h07.27.061831 +0000,
cube_r.png,0.1,10,catch,54,54,0,up,4.50697570014745,None,None,,,,,,,0,54,54,54,,,,,634.087967599975,,,,,,,,,,,,,634.0728267999366,634.087967599975,634.087967599975,634.087967599975,638.6009992000181,,,,638.6100655999035,638.6202692000661,638.6202692000661,638.6668203999288,638.6671261000447,638.6832765999716,638.6832765999716,638.6832765999716,638.7665560001042,640.7811926999129,641.6969119000714,641.6969119000714,641.6969119000714,641.680926800007,,,,up,4.50697570014745,None,None,,,,,,,,,,,,,,,,,P137,001,2025-03-26_17h07.10.920,posner_endo_new1,2024.2.4,60.090412036838885,2025-03-26 17h07.27.061831 +0000,
cube_l.png,0.1,0.31,invalid,55,55,0,up,1.4427261999808252,None,space,0.4472100001294166,None,,,,,0,55,55,55,,,,,641.6969119000714,,,,,,,,,,,,,641.6811593000311,641.6969119000714,641.6969119000714,641.6969119000714,643.1473699999042,,,,643.1656223000027,643.1771358000115,643.1771358000115,643.2121798000298,643.2125216999557,643.228723499924,643.228723499924,643.228723499924,643.3119679000229,,,,,643.6794922000263,,,,up,1.4427261999808252,None,space,0.4472100001294166,None,,,,,,,,,,,,,,,P137,001,2025-03-26_17h07.10.920,posner_endo_new1,2024.2.4,60.090412036838885,2025-03-26 17h07.27.061831 +0000,
cube_l.png,0.1,-0.31,valid,56,56,0,up,3.836078899912536,None,space,0.41071999981068075,None,,,,,0,56,56,56,,,,,643.6948661999777,,,,,,,,,,,,,643.6797736999579,643.6948661999777,643.6948661999777,643.6948661999777,647.542181200115,,,,647.5532279000618,647.5634667000268,647.5634667000268,647.6076819999143,647.6080275001004,647.6241534999572,647.6241534999572,647.6241534999572,647.7073556000832,,,,,648.0417673001066,,,,up,3.836078899912536,None,space,0.41071999981068075,None,,,,,,,,,,,,,,,P137,001,2025-03-26_17h07.10.920,posner_endo_new1,2024.2.4,60.090412036838885,2025-03-26 17h07.27.061831 +0000,
cube_r.png,0.1,0.31,valid,57,57,0,up,3.7306872999761254,None,space,0.36399940005503595,None,,,,,0,57,57,57,,,,,648.0570443000179,,,,,,,,,,,,,648.0420520999469,648.0570443000179,648.0570443000179,648.0570443000179,651.8044592998922,,,,651.8155018999241,651.825861300109,651.825861300109,651.8699940000661,651.8703379000071,651.8865459000226,651.8865459000226,651.8865459000226,651.9698141999543,,,,,652.2539659000468,,,,up,3.7306872999761254,None,space,0.36399940005503595,None,,,,,,,,,,,,,,,P137,001,2025-03-26_17h07.10.920,posner_endo_new1,2024.2.4,60.090412036838885,2025-03-26 17h07.27.061831 +0000,
cube_r.png,0.1,-0.31,invalid,58,58,0,up,3.590008100029081,None,space,0.30516650015488267,None,,,,,0,58,58,58,,,,,652.2694391999394,,,,,,,,,,,,,652.2542681000195,652.2694391999394,652.2694391999394,652.2694391999394,655.8668706000317,,,,655.8778735999949,655.8881673000287,655.8881673000287,655.9324902000371,655.9328330999706,655.9490177999251,655.9490177999251,655.9490177999251,656.0322799999267,,,,,656.2665635999292,,,,up,3.590008100029081,None,space,0.30516650015488267,None,,,,,,,,,,,,,,,P137,001,2025-03-26_17h07.10.920,posner_endo_new1,2024.2.4,60.090412036838885,2025-03-26 17h07.27.061831 +0000,
cube_l.png,0.1,0.31,invalid,59,59,0,up,3.96205239999108,None,space,0.21805920009501278,None,,,,,0,59,59,59,,,,,656.2818817999214,,,,,,,,,,,,,656.2668447000906,656.2818817999214,656.2818817999214,656.2818817999214,660.2459575000685,,,,660.2569649000652,660.2673204999883,660.2673204999883,660.3113857998978,660.3117255000398,660.3277658000588,660.3277658000588,660.3277658000588,660.4111921000294,,,,,660.5622129000258,,,,up,3.96205239999108,None,space,0.21805920009501278,None,,,,,,,,,,,,,,,P137,001,2025-03-26_17h07.10.920,posner_endo_new1,2024.2.4,60.090412036838885,2025-03-26 17h07.27.061831 +0000,
,,,,,,,,,,,,,,,,,,,,,,,,,,,,,,,,,,,,,,,,,,,,,,,,,,,,,,,,,,,,,,,,,,,,,660.5623959000222,660.5775291000027,660.5775291000027,720.5827697999775,725.0624961000867,space,64.47339869989082,None,,,,,,,P137,001,2025-03-26_17h07.10.920,posner_endo_new1,2024.2.4,60.090412036838885,2025-03-26 17h07.27.061831 +0000,
,,,,,,,,,,,,,,,,,,,,,,,,,,,,,,,,,,725.0625519999303,725.0781998001039,728.1464174999855,728.0589689998887,,,,,,,,,,,,,,,,,,,,,,,,,,,,,,,,,,,,,,,,,,,,,,P137,001,2025-03-26_17h07.10.920,posner_endo_new1,2024.2.4,60.090412036838885,2025-03-26 17h07.27.061831 +0000,
cube_l.png,0.1,10,catch,0,0,0,down,9.585303700063378,None,None,,,,,,,,,,,0,0,0,0,728.1464174999855,,,,,,,,,,,,,728.138125800062,728.1464174999855,728.1464174999855,728.1464174999855,737.7328280999791,,,,737.7387506000232,737.7506822999567,737.7506822999567,737.7986377000343,737.7988638998941,737.815094599966,737.815094599966,737.815094599966,737.8984244000167,739.9128986001015,740.8288696999662,740.8288696999662,740.8288696999662,740.8126294999383,,,,,,,,,,,,,,,,,,down,9.585303700063378,None,None,,,P137,001,2025-03-26_17h07.10.920,posner_endo_new1,2024.2.4,60.090412036838885,2025-03-26 17h07.27.061831 +0000,
cube_l.png,0.1,10,catch,1,1,0,down,6.071670200210065,None,None,,,,,,,,,,,0,1,1,1,740.8288696999662,,,,,,,,,,,,,740.8127905000001,740.8288696999662,740.8288696999662,740.8288696999662,746.9065425998997,,,,746.912275099894,746.9238485000096,746.9238485000096,746.9726456000935,746.9728739000857,746.9891480999067,746.9891480999067,746.9891480999067,747.0557502999436,749.0703815999441,750.0026521000545,750.0026521000545,750.0026521000545,749.9864119999111,,,,,,,,,,,,,,,,,,down,6.071670200210065,None,None,,,P137,001,2025-03-26_17h07.10.920,posner_endo_new1,2024.2.4,60.090412036838885,2025-03-26 17h07.27.061831 +0000,
cube_l.png,0.1,0.31,invalid,2,2,0,down,0.1283229999244213,None,space,0.41909389989450574,None,,,,,,,,,0,2,2,2,750.0026521000545,,,,,,,,,,,,,749.98657310009,750.0026521000545,750.0026521000545,750.0026521000545,750.1366489001084,,,,750.142412400106,750.1541156999301,750.1541156999301,750.2024795000907,750.2027032000478,750.2190970999654,750.2190970999654,750.2190970999654,750.2855662999209,,,,,750.6527575000655,,,,,,,,,,,,,,,,,,down,0.1283229999244213,None,space,0.41909389989450574,None,P137,001,2025-03-26_17h07.10.920,posner_endo_new1,2024.2.4,60.090412036838885,2025-03-26 17h07.27.061831 +0000,
cube_l.png,0.1,0.31,invalid,3,3,0,down,4.127238600049168,None,space,0.3949791002087295,None,,,,,,,,,0,3,3,3,750.6686998000368,,,,,,,,,,,,,750.6529312001076,750.6686998000368,750.6686998000368,750.6686998000368,754.7988374999259,,,,754.8070720001124,754.8174431999214,754.8174431999214,754.8643167000264,754.8645399999805,754.8811141001061,754.8811141001061,754.8811141001061,754.9644385001156,,,,,755.2813313999213,,,,,,,,,,,,,,,,,,down,4.127238600049168,None,space,0.3949791002087295,None,P137,001,2025-03-26_17h07.10.920,posner_endo_new1,2024.2.4,60.090412036838885,2025-03-26 17h07.27.061831 +0000,
cube_l.png,0.1,-0.31,valid,4,4,0,down,3.6339270998723805,None,space,0.35560939996503294,None,,,,,,,,,0,4,4,4,755.2972492999397,,,,,,,,,,,,,755.2815054999664,755.2972492999397,755.2972492999397,755.2972492999397,758.9441972000059,,,,758.9502930999734,758.9619793000165,758.9619793000165,759.0102617999073,759.0104845000897,759.0268421999644,759.0268421999644,759.0268421999644,759.0934133001138,,,,,759.3938140999526,,,,,,,,,,,,,,,,,,down,3.6339270998723805,None,space,0.35560939996503294,None,P137,001,2025-03-26_17h07.10.920,posner_endo_new1,2024.2.4,60.090412036838885,2025-03-26 17h07.27.061831 +0000,
cube_r.png,0.1,-0.31,invalid,5,5,0,down,3.481744399992749,None,space,0.40706680016592145,None,,,,,,,,,0,5,5,5,759.4097655001096,,,,,,,,,,,,,759.3939865999855,759.4097655001096,759.4097655001096,759.4097655001096,762.90682750009,,,,762.9129600999877,762.924783000024,762.924783000024,762.9729404998943,762.9731652999762,762.9894679000136,762.9894679000136,762.9894679000136,763.0560103000607,,,,,763.4064344998915,,,,,,,,,,,,,,,,,,down,3.481744399992749,None,space,0.40706680016592145,None,P137,001,2025-03-26_17h07.10.920,posner_endo_new1,2024.2.4,60.090412036838885,2025-03-26 17h07.27.061831 +0000,
cube_r.png,0.1,0.31,valid,6,6,0,down,2.748773500090465,None,space,0.3475130000151694,None,,,,,,,,,0,6,6,6,763.4221828998998,,,,,,,,,,,,,763.406607599929,763.4221828998998,763.4221828998998,763.4221828998998,766.1868722999934,,,,766.1926859999076,766.2042978000827,766.2042978000827,766.2529271999374,766.2531493999995,766.2694351999089,766.2694351999089,766.2694351999089,766.3359829999972,,,,,766.6196808998939,,,,,,,,,,,,,,,,,,down,2.748773500090465,None,space,0.3475130000151694,None,P137,001,2025-03-26_17h07.10.920,posner_endo_new1,2024.2.4,60.090412036838885,2025-03-26 17h07.27.061831 +0000,
cube_r.png,0.1,-0.31,invalid,7,7,0,down,3.231300599873066,None,space,0.31449280004017055,None,,,,,,,,,0,7,7,7,766.635711299954,,,,,,,,,,,,,766.6198611001018,766.635711299954,766.635711299954,766.635711299954,769.8829667998943,,,,769.8887853000779,769.9003475001082,769.9003475001082,769.9490914999042,769.949318200117,769.9655142999254,769.9655142999254,769.9655142999254,770.0320999000687,,,,,770.2827556000557,,,,,,,,,,,,,,,,,,down,3.231300599873066,None,space,0.31449280004017055,None,P137,001,2025-03-26_17h07.10.920,posner_endo_new1,2024.2.4,60.090412036838885,2025-03-26 17h07.27.061831 +0000,
cube_l.png,0.1,-0.31,valid,8,8,0,down,3.393105400027707,None,space,0.27214130014181137,None,,,,,,,,,0,8,8,8,770.2986413999461,,,,,,,,,,,,,770.2829271999653,770.2986413999461,770.2986413999461,770.2986413999461,773.6958232999314,,,,773.7016135000158,773.7132866000757,773.7132866000757,773.7618271000683,773.7620502000209,773.7783675000537,773.7783675000537,773.7783675000537,773.8449657999445,,,,,774.0622926999349,,,,,,,,,,,,,,,,,,down,3.393105400027707,None,space,0.27214130014181137,None,P137,001,2025-03-26_17h07.10.920,posner_endo_new1,2024.2.4,60.090412036838885,2025-03-26 17h07.27.061831 +0000,
cube_r.png,0.1,-0.31,invalid,9,9,0,down,3.6292654999997467,None,space,0.4020383998285979,None,,,,,,,,,0,9,9,9,774.0780756000895,,,,,,,,,,,,,774.0624637999572,774.0780756000895,774.0780756000895,774.0780756000895,777.7085996000096,,,,777.7144031000789,777.7261697000358,777.7261697000358,777.7744030000176,777.7746256000828,777.7909832999576,777.7909832999576,777.7909832999576,777.8741983000655,,,,,778.2079264998902,,,,,,,,,,,,,,,,,,down,3.6292654999997467,None,space,0.4020383998285979,None,P137,001,2025-03-26_17h07.10.920,posner_endo_new1,2024.2.4,60.090412036838885,2025-03-26 17h07.27.061831 +0000,
cube_l.png,0.1,0.31,invalid,10,10,0,down,2.8040364999324083,None,space,0.39331689989194274,None,,,,,,,,,0,10,10,10,778.223842700012,,,,,,,,,,,,,778.2081049000844,778.223842700012,778.223842700012,778.223842700012,781.0382608000655,,,,781.044140700018,781.0559376999736,781.0559376999736,781.1043362000491,781.104557499988,781.1208897000179,781.1208897000179,781.1208897000179,781.1873918999918,,,,,781.521060799947,,,,,,,,,,,,,,,,,,down,2.8040364999324083,None,space,0.39331689989194274,None,P137,001,2025-03-26_17h07.10.920,posner_endo_new1,2024.2.4,60.090412036838885,2025-03-26 17h07.27.061831 +0000,
cube_r.png,0.1,-0.31,invalid,11,11,0,down,3.7224132001865655,None,space,0.34261459996923804,None,,,,,,,,,0,11,11,11,781.5369579000399,,,,,,,,,,,,,781.5212324000895,781.5369579000399,781.5369579000399,781.5369579000399,785.2673752000555,,,,785.2732726000249,785.2849320999812,785.2849320999812,785.3333600999322,785.333589799935,785.3500459999777,785.3500459999777,785.3500459999777,785.4164698999375,,,,,785.7003160999157,,,,,,,,,,,,,,,,,,down,3.7224132001865655,None,space,0.34261459996923804,None,P137,001,2025-03-26_17h07.10.920,posner_endo_new1,2024.2.4,60.090412036838885,2025-03-26 17h07.27.061831 +0000,
cube_r.png,0.1,0.31,valid,12,12,0,down,3.2795887000393122,None,space,0.3362732999958098,None,,,,,,,,,0,12,12,12,785.7160779999103,,,,,,,,,,,,,785.7004881000612,785.7160779999103,785.7160779999103,785.7160779999103,788.9968626000918,,,,789.0026567000896,789.0143671999685,789.0143671999685,789.0627582001034,789.0629853000864,789.0794726999011,789.0794726999011,789.0794726999011,789.1460382000078,,,,,789.4297052999027,,,,,,,,,,,,,,,,,,down,3.2795887000393122,None,space,0.3362732999958098,None,P137,001,2025-03-26_17h07.10.920,posner_endo_new1,2024.2.4,60.090412036838885,2025-03-26 17h07.27.061831 +0000,
cube_l.png,0.1,10,catch,13,13,0,down,3.4857613001950085,None,None,,,,,,,,,,,0,13,13,13,789.4456376000308,,,,,,,,,,,,,789.4298833999783,789.4456376000308,789.4456376000308,789.4456376000308,792.9426704000216,,,,792.9484639000148,792.9601149000227,792.9601149000227,793.0089871000964,793.0092136000749,793.0253832999151,793.0253832999151,793.0253832999151,793.0919699999504,795.1064943000674,796.0388227000367,796.0388227000367,796.0388227000367,796.0227793999948,,,,,,,,,,,,,,,,,,down,3.4857613001950085,None,None,,,P137,001,2025-03-26_17h07.10.920,posner_endo_new1,2024.2.4,60.090412036838885,2025-03-26 17h07.27.061831 +0000,
cube_r.png,0.1,-0.31,invalid,14,14,0,down,0.5162983001209795,None,space,0.40620129997842014,None,,,,,,,,,0,14,14,14,796.0388227000367,,,,,,,,,,,,,796.0229452999774,796.0388227000367,796.0388227000367,796.0388227000367,796.5558915999718,,,,796.5617442999501,796.5734623998869,796.5734623998869,796.6218465000857,796.6220720999409,796.6383825000376,796.6383825000376,796.6383825000376,796.7215402000584,,,,,797.0553798000328,,,,,,,,,,,,,,,,,,down,0.5162983001209795,None,space,0.40620129997842014,None,P137,001,2025-03-26_17h07.10.920,posner_endo_new1,2024.2.4,60.090412036838885,2025-03-26 17h07.27.061831 +0000,
cube_l.png,0.1,-0.31,valid,15,15,0,down,3.0203253000508994,None,space,0.3668786999769509,None,,,,,,,,,0,15,15,15,797.0712319999002,,,,,,,,,,,,,797.0555535999592,797.0712319999002,797.0712319999002,797.0712319999002,800.1022652999964,,,,800.1080849000718,800.1198899000883,800.1198899000883,800.1682400999125,800.1684616000857,800.1848170000594,800.1848170000594,800.1848170000594,800.2512064999901,,,,,800.5682745999657,,,,,,,,,,,,,,,,,,down,3.0203253000508994,None,space,0.3668786999769509,None,P137,001,2025-03-26_17h07.10.920,posner_endo_new1,2024.2.4,60.090412036838885,2025-03-26 17h07.27.061831 +0000,
cube_r.png,0.1,10,catch,16,16,0,down,3.4349973001517355,None,space,0.27316419989801943,None,,,,,,,,,0,16,16,16,800.5841554000508,,,,,,,,,,,,,800.5684535000473,800.5841554000508,800.5841554000508,800.5841554000508,804.0312592999544,,,,804.0370519000571,804.0487033999525,804.0487033999525,804.0973887001164,804.0976108000614,804.1138965999708,804.1138965999708,804.1138965999708,804.1805044000503,,,,,804.3978609000333,,,,,,,,,,,,,,,,,,down,3.4349973001517355,None,space,0.27316419989801943,None,P137,001,2025-03-26_17h07.10.920,posner_endo_new1,2024.2.4,60.090412036838885,2025-03-26 17h07.27.061831 +0000,
cube_r.png,0.1,10,catch,17,17,0,down,3.2134654000401497,None,None,,,,,,,,,,,0,17,17,17,804.4136385999154,,,,,,,,,,,,,804.3980338000692,804.4136385999154,804.4136385999154,804.4136385999154,807.6279309999663,,,,807.6336854998954,807.6453599999659,807.6453599999659,807.6937631999608,807.6939866999164,807.7103728998918,807.7103728998918,807.7103728998918,807.7935091000982,809.8082292999607,810.7238356999587,810.7238356999587,810.7238356999587,810.7077055999544,,,,,,,,,,,,,,,,,,down,3.2134654000401497,None,None,,,P137,001,2025-03-26_17h07.10.920,posner_endo_new1,2024.2.4,60.090412036838885,2025-03-26 17h07.27.061831 +0000,
cube_l.png,0.1,0.31,invalid,18,18,0,down,0.2153266000095755,None,space,0.36090089986100793,None,,,,,,,,,0,18,18,18,810.7238356999587,,,,,,,,,,,,,810.707866899902,810.7238356999587,810.7238356999587,810.7238356999587,810.9412517000455,,,,810.9469856000505,810.958782899892,810.958782899892,811.0070923999883,811.0073146000504,811.0237332000397,811.0237332000397,811.0237332000397,811.0899759999011,,,,,811.3906545999926,,,,,,,,,,,,,,,,,,down,0.2153266000095755,None,space,0.36090089986100793,None,P137,001,2025-03-26_17h07.10.920,posner_endo_new1,2024.2.4,60.090412036838885,2025-03-26 17h07.27.061831 +0000,
cube_l.png,0.1,10,catch,19,19,0,down,3.069271699991077,None,None,,,,,,,,,,,0,19,19,19,811.406535099959,,,,,,,,,,,,,811.3908335000742,811.406535099959,811.406535099959,811.406535099959,814.4875461000483,,,,814.4932987999637,814.5049630000722,814.5049630000722,814.5533203999512,814.553544000024,814.5698875000235,814.5698875000235,814.5698875000235,814.6364825998899,816.6511915998999,817.5835428000428,817.5835428000428,817.5835428000428,817.5675127999857,,,,,,,,,,,,,,,,,,down,3.069271699991077,None,None,,,P137,001,2025-03-26_17h07.10.920,posner_endo_new1,2024.2.4,60.090412036838885,2025-03-26 17h07.27.061831 +0000,
cube_l.png,0.1,0.31,invalid,20,20,0,down,2.7801741999574006,None,space,0.3630530000664294,None,,,,,,,,,0,20,20,20,817.5835428000428,,,,,,,,,,,,,817.5676722000353,817.5835428000428,817.5835428000428,817.5835428000428,820.364776799921,,,,820.3705134999473,820.3822121999692,820.3822121999692,820.430759199895,820.4309906999115,820.4472376999911,820.4472376999911,820.4472376999911,820.5139438000042,,,,,820.8144259999972,,,,,,,,,,,,,,,,,,down,2.7801741999574006,None,space,0.3630530000664294,None,P137,001,2025-03-26_17h07.10.920,posner_endo_new1,2024.2.4,60.090412036838885,2025-03-26 17h07.27.061831 +0000,
cube_l.png,0.1,-0.31,valid,21,21,0,down,2.7571908000390977,None,space,0.47478009993210435,None,,,,,,,,,0,21,21,21,820.8302766000852,,,,,,,,,,,,,820.8145965000149,820.8302766000852,820.8302766000852,820.8302766000852,823.5947209999431,,,,823.6004455001093,823.6123033999465,823.6123033999465,823.6607365999371,823.6609606998973,823.6774355000816,823.6774355000816,823.6774355000816,823.7439486000221,,,,,824.160889599938,,,,,,,,,,,,,,,,,,down,2.7571908000390977,None,space,0.47478009993210435,None,P137,001,2025-03-26_17h07.10.920,posner_endo_new1,2024.2.4,60.090412036838885,2025-03-26 17h07.27.061831 +0000,
cube_r.png,0.1,0.31,valid,22,22,0,down,2.82706439984031,None,space,0.3587837000377476,None,,,,,,,,,0,22,22,22,824.1768541999627,,,,,,,,,,,,,824.1610709000379,824.1768541999627,824.1768541999627,824.1768541999627,827.0079584000632,,,,827.0137434999924,827.0249954001047,827.0249954001047,827.0740100999828,827.0742353000678,827.090503100073,827.090503100073,827.090503100073,827.1570570000913,,,,,827.457417699974,,,,,,,,,,,,,,,,,,down,2.82706439984031,None,space,0.3587837000377476,None,P137,001,2025-03-26_17h07.10.920,posner_endo_new1,2024.2.4,60.090412036838885,2025-03-26 17h07.27.061831 +0000,
cube_r.png,0.1,-0.31,invalid,23,23,0,down,2.5776063001248986,None,space,0.28533250000327826,None,,,,,,,,,0,23,23,23,827.4734547000844,,,,,,,,,,,,,827.4575976999477,827.4734547000844,827.4734547000844,827.4734547000844,830.0548107998911,,,,830.0605880001094,830.0724263999145,830.0724263999145,830.1207818998955,830.121011500014,830.1372396000661,830.1372396000661,830.1372396000661,830.2205678001046,,,,,830.4377226000652,,,,,,,,,,,,,,,,,,down,2.5776063001248986,None,space,0.28533250000327826,None,P137,001,2025-03-26_17h07.10.920,posner_endo_new1,2024.2.4,60.090412036838885,2025-03-26 17h07.27.061831 +0000,
cube_r.png,0.1,0.31,valid,24,24,0,down,2.861589799867943,None,space,0.3123335000127554,None,,,,,,,,,0,24,24,24,830.4538155999035,,,,,,,,,,,,,830.4378945000935,830.4538155999035,830.4538155999035,830.4538155999035,833.3181022999343,,,,833.3240042999387,833.335628699977,833.335628699977,833.3839098000899,833.3841357999481,833.4006560998969,833.4006560998969,833.4006560998969,833.4673460000195,,,,,833.7177850001026,,,,,,,,,,,,,,,,,,down,2.861589799867943,None,space,0.3123335000127554,None,P137,001,2025-03-26_17h07.10.920,posner_endo_new1,2024.2.4,60.090412036838885,2025-03-26 17h07.27.061831 +0000,
cube_r.png,0.1,-0.31,invalid,25,25,0,down,2.621545100118965,None,space,0.3342696998734027,None,,,,,,,,,0,25,25,25,833.7336154000368,,,,,,,,,,,,,833.7179666000884,833.7336154000368,833.7336154000368,833.7336154000368,836.3650473000016,,,,836.3708311000373,836.3824579000939,836.3824579000939,836.431188599905,836.4314147999976,836.4476073998958,836.4476073998958,836.4476073998958,836.5141684000846,,,,,836.7980188999791,,,,,,,,,,,,,,,,,,down,2.621545100118965,None,space,0.3342696998734027,None,P137,001,2025-03-26_17h07.10.920,posner_endo_new1,2024.2.4,60.090412036838885,2025-03-26 17h07.27.061831 +0000,
cube_l.png,0.1,-0.31,valid,26,26,0,down,2.853142000036314,None,space,0.38854130008257926,None,,,,,,,,,0,26,26,26,836.8138470000122,,,,,,,,,,,,,836.7981928000227,836.8138470000122,836.8138470000122,836.8138470000122,839.6783642000519,,,,839.6841951999813,839.6959881999064,839.6959881999064,839.7443146000151,839.7445392999798,839.7608634999488,839.7608634999488,839.7608634999488,839.8275214000605,,,,,840.1610355000012,,,,,,,,,,,,,,,,,,down,2.853142000036314,None,space,0.38854130008257926,None,P137,001,2025-03-26_17h07.10.920,posner_endo_new1,2024.2.4,60.090412036838885,2025-03-26 17h07.27.061831 +0000,
cube_r.png,0.1,0.31,valid,27,27,0,down,3.490779099985957,None,space,0.3889587998855859,None,,,,,,,,,0,27,27,27,840.1770057999529,,,,,,,,,,,,,840.1612072999123,840.1770057999529,840.1770057999529,840.1770057999529,843.6742088999599,,,,843.6799735000823,843.6916267999914,843.6916267999914,843.74019209994,843.7404181999154,843.7567203000654,843.7567203000654,843.7567203000654,843.8400183001067,,,,,844.1568809999153,,,,,,,,,,,,,,,,,,down,3.490779099985957,None,space,0.3889587998855859,None,P137,001,2025-03-26_17h07.10.920,posner_endo_new1,2024.2.4,60.090412036838885,2025-03-26 17h07.27.061831 +0000,
cube_r.png,0.1,10,catch,28,28,0,down,3.3501892001368105,None,None,,,,,,,,,,,0,28,28,28,844.1729880999774,,,,,,,,,,,,,844.1570536000654,844.1729880999774,844.1729880999774,844.1729880999774,847.5369388998952,,,,847.5426602000371,847.5543174999766,847.5543174999766,847.6028464999981,847.60306819994,847.6195584000088,847.6195584000088,847.6195584000088,847.6860342000145,849.7006534000393,850.6331084999256,850.6331084999256,850.6331084999256,850.616956199985,,,,,,,,,,,,,,,,,,down,3.3501892001368105,None,None,,,P137,001,2025-03-26_17h07.10.920,posner_endo_new1,2024.2.4,60.090412036838885,2025-03-26 17h07.27.061831 +0000,
cube_r.png,0.1,0.31,valid,29,29,0,down,3.234530800022185,None,space,0.36232650000602007,None,,,,,,,,,0,29,29,29,850.6331084999256,,,,,,,,,,,,,850.6171154999174,850.6331084999256,850.6331084999256,850.6331084999256,853.8803956999909,,,,853.8863264000975,853.8978210000787,853.8978210000787,853.9465244999155,853.946755599929,853.9630368999206,853.9630368999206,853.9630368999206,854.0297711999156,,,,,854.3302064999007,,,,,,,,,,,,,,,,,,down,3.234530800022185,None,space,0.36232650000602007,None,P137,001,2025-03-26_17h07.10.920,posner_endo_new1,2024.2.4,60.090412036838885,2025-03-26 17h07.27.061831 +0000,
cube_r.png,0.1,0.31,valid,30,30,0,down,2.2258015000261366,None,space,0.5641071000136435,None,,,,,,,,,0,30,30,30,854.3458140001167,,,,,,,,,,,,,854.3303807999473,854.3458140001167,854.3458140001167,854.3458140001167,856.5776444999501,,,,856.5834866999649,856.5952574000694,856.5952574000694,856.6437019999139,856.64393260004,856.6601925001014,856.6601925001014,856.6601925001014,856.726817500079,,,,,857.2270712000318,,,,,,,,,,,,,,,,,,down,2.2258015000261366,None,space,0.5641071000136435,None,P137,001,2025-03-26_17h07.10.920,posner_endo_new1,2024.2.4,60.090412036838885,2025-03-26 17h07.27.061831 +0000,
cube_l.png,0.1,-0.31,valid,31,31,0,down,2.5132851998787373,None,space,0.3785748998634517,None,,,,,,,,,0,31,31,31,857.2430471999105,,,,,,,,,,,,,857.2272518998943,857.2430471999105,857.2430471999105,857.2430471999105,859.7578076999635,,,,859.7635351999197,859.7752396999858,859.7752396999858,859.8238069999497,859.8240320999175,859.8403431000188,859.8403431000188,859.8403431000188,859.9068901999854,,,,,860.2238757000305,,,,,,,,,,,,,,,,,,down,2.5132851998787373,None,space,0.3785748998634517,None,P137,001,2025-03-26_17h07.10.920,posner_endo_new1,2024.2.4,60.090412036838885,2025-03-26 17h07.27.061831 +0000,
cube_r.png,0.1,0.31,valid,32,32,0,down,2.6679561000782996,None,space,0.33526579989120364,None,,,,,,,,,0,32,32,32,860.2398731000721,,,,,,,,,,,,,860.2240655000787,860.2398731000721,860.2398731000721,860.2398731000721,862.9211685999762,,,,862.9269181001,862.9384647998959,862.9384647998959,862.9871121998876,862.9873359999619,863.0036808000877,863.0036808000877,863.0036808000877,863.0702184999827,,,,,863.3542031000834,,,,,,,,,,,,,,,,,,down,2.6679561000782996,None,space,0.33526579989120364,None,P137,001,2025-03-26_17h07.10.920,posner_endo_new1,2024.2.4,60.090412036838885,2025-03-26 17h07.27.061831 +0000,
cube_r.png,0.1,-0.31,invalid,33,33,0,down,3.097414700081572,None,space,0.276148300152272,None,,,,,,,,,0,33,33,33,863.369855399942,,,,,,,,,,,,,863.3543765998911,863.369855399942,863.369855399942,863.369855399942,866.4842195999809,,,,866.4899538001046,866.5014070998877,866.5014070998877,866.5502879000269,866.5505099999718,866.5667524000164,866.5667524000164,866.5667524000164,866.6500506999437,,,,,866.8504484998994,,,,,,,,,,,,,,,,,,down,3.097414700081572,None,space,0.276148300152272,None,P137,001,2025-03-26_17h07.10.920,posner_endo_new1,2024.2.4,60.090412036838885,2025-03-26 17h07.27.061831 +0000,
cube_r.png,0.1,10,catch,34,34,0,down,3.0328794000670314,None,None,,,,,,,,,,,0,34,34,34,866.8664146000519,,,,,,,,,,,,,866.8506241000723,866.8664146000519,866.8664146000519,866.8664146000519,869.9140393999405,,,,869.9198334999382,869.9314516999293,869.9314516999293,869.9799836999737,869.980205199914,869.9966082999017,869.9966082999017,869.9966082999017,870.0631226999685,872.077639499912,873.0097175999545,873.0097175999545,873.0097175999545,872.9940438000485,,,,,,,,,,,,,,,,,,down,3.0328794000670314,None,None,,,P137,001,2025-03-26_17h07.10.920,posner_endo_new1,2024.2.4,60.090412036838885,2025-03-26 17h07.27.061831 +0000,
cube_r.png,0.1,0.31,valid,35,35,0,down,0.22581310011446476,None,space,0.4060135001782328,None,,,,,,,,,0,35,35,35,873.0097175999545,,,,,,,,,,,,,872.994203899987,873.0097175999545,873.0097175999545,873.0097175999545,873.2442288000602,,,,873.253448399948,873.2635916001163,873.2635916001163,873.3100703000091,873.3103744999971,873.3264037000481,873.3264037000481,873.3264037000481,873.4098251999822,,,,,873.7437090000603,,,,,,,,,,,,,,,,,,down,0.22581310011446476,None,space,0.4060135001782328,None,P137,001,2025-03-26_17h07.10.920,posner_endo_new1,2024.2.4,60.090412036838885,2025-03-26 17h07.27.061831 +0000,
cube_r.png,0.1,-0.31,invalid,36,36,0,down,2.811788400169462,None,space,0.5654009999707341,None,,,,,,,,,0,36,36,36,873.7593505999539,,,,,,,,,,,,,873.7439705999568,873.7593505999539,873.7593505999539,873.7593505999539,876.5742116998881,,,,876.5834820999298,876.593714900082,876.593714900082,876.6399538000114,876.64027419989,876.6564352998976,876.6564352998976,876.6564352998976,876.7397278000135,,,,,877.2237372000236,,,,,,,,,,,,,,,,,,down,2.811788400169462,None,space,0.5654009999707341,None,P137,001,2025-03-26_17h07.10.920,posner_endo_new1,2024.2.4,60.090412036838885,2025-03-26 17h07.27.061831 +0000,
cube_l.png,0.1,0.31,invalid,37,37,0,down,3.7960562999360263,None,space,0.34832910005934536,None,,,,,,,,,0,37,37,37,877.2392096999101,,,,,,,,,,,,,877.223994199885,877.2392096999101,877.2392096999101,877.2392096999101,881.0380555999,,,,881.0601154998876,881.0723896001,881.0723896001,881.1015961999074,881.1019814999308,881.1187181998976,881.1187181998976,881.1187181998976,881.2019998999313,,,,,881.4709439999424,,,,,,,,,,,,,,,,,,down,3.7960562999360263,None,space,0.34832910005934536,None,P137,001,2025-03-26_17h07.10.920,posner_endo_new1,2024.2.4,60.090412036838885,2025-03-26 17h07.27.061831 +0000,
cube_l.png,0.1,0.31,invalid,38,38,0,down,7.32611700007692,None,space,0.45407560002058744,None,,,,,,,,,0,38,38,38,881.4850480998866,,,,,,,,,,,,,881.4715315999929,881.4850480998866,881.4850480998866,881.4850480998866,888.8136338999029,,,,888.8357665000949,888.8479518000968,888.8479518000968,888.8769286999013,888.8773139999248,888.8934323000722,888.8934323000722,888.8934323000722,888.9766796000767,,,,,889.3609186001122,,,,,,,,,,,,,,,,,,down,7.32611700007692,None,space,0.45407560002058744,None,P137,001,2025-03-26_17h07.10.920,posner_endo_new1,2024.2.4,60.090412036838885,2025-03-26 17h07.27.061831 +0000,
cube_r.png,0.1,0.31,valid,39,39,0,down,3.5866544998716563,None,space,0.38681959989480674,None,,,,,,,,,0,39,39,39,889.3762473999523,,,,,,,,,,,,,889.3612464000471,889.3762473999523,889.3762473999523,889.3762473999523,892.9738986000884,,,,892.9862931000534,892.9963374000508,892.9963374000508,893.039379300084,893.0397701999173,893.0558197998907,893.0558197998907,893.0558197998907,893.139091799967,,,,,893.4567054000217,,,,,,,,,,,,,,,,,,down,3.5866544998716563,None,space,0.38681959989480674,None,P137,001,2025-03-26_17h07.10.920,posner_endo_new1,2024.2.4,60.090412036838885,2025-03-26 17h07.27.061831 +0000,
cube_l.png,0.1,0.31,invalid,40,40,0,down,4.0268325000070035,None,space,0.3252648999914527,None,,,,,,,,,0,40,40,40,893.4720978001133,,,,,,,,,,,,,893.457034900086,893.4720978001133,893.4720978001133,893.4720978001133,897.5026960000396,,,,897.5102512999438,897.5214410999324,897.5214410999324,897.5684803999029,897.5687420000322,897.5849766000174,897.5849766000174,897.5849766000174,897.6680966999847,,,,,897.9187475999352,,,,,,,,,,,,,,,,,,down,4.0268325000070035,None,space,0.3252648999914527,None,P137,001,2025-03-26_17h07.10.920,posner_endo_new1,2024.2.4,60.090412036838885,2025-03-26 17h07.27.061831 +0000,
cube_l.png,0.1,10,catch,41,41,0,down,4.284796700114384,None,None,,,,,,,,,,,0,41,41,41,897.934581700014,,,,,,,,,,,,,897.9189561998937,897.934581700014,897.934581700014,897.934581700014,902.2319696000777,,,,902.2496893000789,902.2616024001036,902.2616024001036,902.2970181999262,902.2973275999539,902.3135655000806,902.3135655000806,902.3135655000806,902.396746299928,904.4112805000041,905.3272031999659,905.3272031999659,905.3272031999659,905.310969500104,,,,,,,,,,,,,,,,,,down,4.284796700114384,None,None,,,P137,001,2025-03-26_17h07.10.920,posner_endo_new1,2024.2.4,60.090412036838885,2025-03-26 17h07.27.061831 +0000,
cube_l.png,0.1,-0.31,valid,42,42,0,down,1.0118369997944683,None,space,0.45885420008562505,None,,,,,,,,,0,42,42,42,905.3272031999659,,,,,,,,,,,,,905.3112079000566,905.3272031999659,905.3272031999659,905.3272031999659,906.3439235999249,,,,906.3532666999381,906.3633127999492,906.3633127999492,906.4095217001159,906.4098271999974,906.4259669999592,906.4259669999592,906.4259669999592,906.5092851999216,,,,,906.893133699894,,,,,,,,,,,,,,,,,,down,1.0118369997944683,None,space,0.45885420008562505,None,P137,001,2025-03-26_17h07.10.920,posner_endo_new1,2024.2.4,60.090412036838885,2025-03-26 17h07.27.061831 +0000,
cube_l.png,0.1,10,catch,43,43,0,down,3.7421798000577837,None,None,,,,,,,,,,,0,43,43,43,906.908814900089,,,,,,,,,,,,,906.8933896999806,906.908814900089,906.908814900089,906.908814900089,910.6560806001071,,,,910.6653672999237,910.6755911998916,910.6755911998916,910.7217248999514,910.722034699982,910.7382877999917,910.7382877999917,910.7382877999917,910.8216619999148,912.8360264000949,913.7518408000469,913.7518408000469,913.7518408000469,913.7358411001042,,,,,,,,,,,,,,,,,,down,3.7421798000577837,None,None,,,P137,001,2025-03-26_17h07.10.920,posner_endo_new1,2024.2.4,60.090412036838885,2025-03-26 17h07.27.061831 +0000,
cube_l.png,0.1,0.31,invalid,44,44,0,down,1.7320554999168962,None,space,0.4271616998594254,None,,,,,,,,,0,44,44,44,913.7518408000469,,,,,,,,,,,,,913.7360805000644,913.7518408000469,913.7518408000469,913.7518408000469,915.5010881000198,,,,915.5104286000133,915.5204910999164,915.5204910999164,915.5667812000029,915.5670845999848,915.5833242998924,915.5833242998924,915.5833242998924,915.666370500112,,,,,916.0173015000764,,,,,,,,,,,,,,,,,,down,1.7320554999168962,None,space,0.4271616998594254,None,P137,001,2025-03-26_17h07.10.920,posner_endo_new1,2024.2.4,60.090412036838885,2025-03-26 17h07.27.061831 +0000,
cube_l.png,0.1,0.31,invalid,45,45,0,down,4.1065456999931484,None,space,0.37580939987674356,None,,,,,,,,,0,45,45,45,916.032886199886,,,,,,,,,,,,,916.0175560000353,916.032886199886,916.032886199886,916.032886199886,920.1463931000326,,,,920.155594300013,920.1657889001071,920.1657889001071,920.2119569000788,920.2122589000501,920.2284268001094,920.2284268001094,920.2284268001094,920.3117970000021,,,,,920.6125739000272,,,,,,,,,,,,,,,,,,down,4.1065456999931484,None,space,0.37580939987674356,None,P137,001,2025-03-26_17h07.10.920,posner_endo_new1,2024.2.4,60.090412036838885,2025-03-26 17h07.27.061831 +0000,
cube_r.png,0.1,0.31,valid,46,46,0,down,3.383862900082022,None,space,0.3778822000604123,None,,,,,,,,,0,46,46,46,920.6281043998897,,,,,,,,,,,,,920.6128267999738,920.6281043998897,920.6281043998897,920.6281043998897,924.0257149999961,,,,924.0350440999027,924.0452684001066,924.0452684001066,924.0913726000581,924.0916764000431,924.1078610999975,924.1078610999975,924.1078610999975,924.1908613000996,,,,,924.491911200108,,,,,,,,,,,,,,,,,,down,3.383862900082022,None,space,0.3778822000604123,None,P137,001,2025-03-26_17h07.10.920,posner_endo_new1,2024.2.4,60.090412036838885,2025-03-26 17h07.27.061831 +0000,
cube_l.png,0.1,-0.31,valid,47,47,0,down,3.4955033999867737,None,space,0.3673669998534024,None,,,,,,,,,0,47,47,47,924.5074760001153,,,,,,,,,,,,,924.492164599942,924.5074760001153,924.5074760001153,924.5074760001153,928.0051094999071,,,,928.0143023999408,928.0243760000449,928.0243760000449,928.0706442999654,928.070952600101,928.087292799959,928.087292799959,928.087292799959,928.1703339000233,,,,,928.4711231999099,,,,,,,,,,,,,,,,,,down,3.4955033999867737,None,space,0.3673669998534024,None,P137,001,2025-03-26_17h07.10.920,posner_endo_new1,2024.2.4,60.090412036838885,2025-03-26 17h07.27.061831 +0000,
cube_r.png,0.1,-0.31,invalid,48,48,0,down,2.8847447000443935,None,space,0.39414769993163645,None,,,,,,,,,0,48,48,48,928.4866947000846,,,,,,,,,,,,,928.4713838000316,928.4866947000846,928.4866947000846,928.4866947000846,931.3848307000007,,,,931.394074199954,931.4043791000731,931.4043791000731,931.4504658998922,931.4507681000978,931.4669842999429,931.4669842999429,931.4669842999429,931.5502265999094,,,,,931.8677238998935,,,,,,,,,,,,,,,,,,down,2.8847447000443935,None,space,0.39414769993163645,None,P137,001,2025-03-26_17h07.10.920,posner_endo_new1,2024.2.4,60.090412036838885,2025-03-26 17h07.27.061831 +0000,
cube_r.png,0.1,10,catch,49,49,0,down,3.4571762999985367,None,None,,,,,,,,,,,0,49,49,49,931.8831660998985,,,,,,,,,,,,,931.8679720000364,931.8831660998985,931.8831660998985,931.8831660998985,935.3468937000725,,,,935.3526373999193,935.3642430000473,935.3642430000473,935.4130778999534,935.4133083999623,935.4295814998914,935.4295814998914,935.4295814998914,935.4963008998893,937.510846399935,938.4432556000538,938.4432556000538,938.4432556000538,938.4269214000087,,,,,,,,,,,,,,,,,,down,3.4571762999985367,None,None,,,P137,001,2025-03-26_17h07.10.920,posner_endo_new1,2024.2.4,60.090412036838885,2025-03-26 17h07.27.061831 +0000,
cube_l.png,0.1,-0.31,valid,50,50,0,down,1.1206696999724954,None,space,0.4370792000554502,None,,,,,,,,,0,50,50,50,938.4432556000538,,,,,,,,,,,,,938.4270838999655,938.4432556000538,938.4432556000538,938.4432556000538,939.5763012999669,,,,939.5855441999156,939.5959507001098,939.5959507001098,939.6420416000765,939.6423488999717,939.6586563000455,939.6586563000455,939.6586563000455,939.7418563999236,,,,,940.1085969998967,,,,,,,,,,,,,,,,,,down,1.1206696999724954,None,space,0.4370792000554502,None,P137,001,2025-03-26_17h07.10.920,posner_endo_new1,2024.2.4,60.090412036838885,2025-03-26 17h07.27.061831 +0000,
cube_l.png,0.1,-0.31,valid,51,51,0,down,3.2700360999442637,None,space,0.34024849999696016,None,,,,,,,,,0,51,51,51,940.1250829000492,,,,,,,,,,,,,940.1087738999631,940.1250829000492,940.1250829000492,940.1250829000492,943.4055300999898,,,,943.4113038000651,943.4230345999822,943.4230345999822,943.4715396000538,943.4717697000597,943.4879316999577,943.4879316999577,943.4879316999577,943.5545590999536,,,,,943.838322600117,,,,,,,,,,,,,,,,,,down,3.2700360999442637,None,space,0.34024849999696016,None,P137,001,2025-03-26_17h07.10.920,posner_endo_new1,2024.2.4,60.090412036838885,2025-03-26 17h07.27.061831 +0000,
cube_r.png,0.1,-0.31,invalid,52,52,0,down,3.6928733999375254,None,space,0.2613162000197917,None,,,,,,,,,0,52,52,52,943.8542553000152,,,,,,,,,,,,,943.8384960999247,943.8542553000152,943.8542553000152,943.8542553000152,947.5508652999997,,,,947.5567675000057,947.5683983000927,947.5683983000927,947.6172853000462,947.6175083001144,947.6337987999432,947.6337987999432,947.6337987999432,947.7002338999882,,,,,947.9009036000352,,,,,,,,,,,,,,,,,,down,3.6928733999375254,None,space,0.2613162000197917,None,P137,001,2025-03-26_17h07.10.920,posner_endo_new1,2024.2.4,60.090412036838885,2025-03-26 17h07.27.061831 +0000,
cube_l.png,0.1,-0.31,valid,53,53,0,down,3.646162300137803,None,space,0.32446100004017353,None,,,,,,,,,0,53,53,53,947.9168495999184,,,,,,,,,,,,,947.9010793000925,947.9168495999184,947.9168495999184,947.9168495999184,951.5639508001041,,,,951.5697735999711,951.5816693999805,951.5816693999805,951.6298545000609,951.6300913000014,951.6463432000019,951.6463432000019,951.6463432000019,951.7296571999323,,,,,951.9800873999484,,,,,,,,,,,,,,,,,,down,3.646162300137803,None,space,0.32446100004017353,None,P137,001,2025-03-26_17h07.10.920,posner_endo_new1,2024.2.4,60.090412036838885,2025-03-26 17h07.27.061831 +0000,
cube_r.png,0.1,10,catch,54,54,0,down,2.663429800188169,None,None,,,,,,,,,,,0,54,54,54,951.996044700034,,,,,,,,,,,,,951.9802739999723,951.996044700034,951.996044700034,951.996044700034,954.6606030999683,,,,954.6664706999436,954.6782714000437,954.6782714000437,954.7266291999258,954.7268538000062,954.7431582000572,954.7431582000572,954.7431582000572,954.8096902999096,956.824593000114,957.7567751999013,957.7567751999013,957.7567751999013,957.7406148000155,,,,,,,,,,,,,,,,,,down,2.663429800188169,None,None,,,P137,001,2025-03-26_17h07.10.920,posner_endo_new1,2024.2.4,60.090412036838885,2025-03-26 17h07.27.061831 +0000,
cube_l.png,0.1,0.31,invalid,55,55,0,down,2.302658900152892,None,space,0.31207200000062585,None,,,,,,,,,0,55,55,55,957.7567751999013,,,,,,,,,,,,,957.7407754000742,957.7567751999013,957.7567751999013,957.7567751999013,960.0717595000751,,,,960.0775222999509,960.0891541999299,960.0891541999299,960.137896399945,960.1381200999022,960.1541746000294,960.1541746000294,960.1541746000294,960.2375789000653,,,,,960.4715030000079,,,,,,,,,,,,,,,,,,down,2.302658900152892,None,space,0.31207200000062585,None,P137,001,2025-03-26_17h07.10.920,posner_endo_new1,2024.2.4,60.090412036838885,2025-03-26 17h07.27.061831 +0000,
cube_l.png,0.1,-0.31,valid,56,56,0,down,3.003821700112894,None,space,0.47836320009082556,None,,,,,,,,,0,56,56,56,960.4873351999559,,,,,,,,,,,,,960.4716741999146,960.4873351999559,960.4873351999559,960.4873351999559,963.501636599889,,,,963.5074525999371,963.5192030998878,963.5192030998878,963.5675373000558,963.5677640999202,963.5841024001129,963.5841024001129,963.5841024001129,963.6507751001045,,,,,964.0678181999829,,,,,,,,,,,,,,,,,,down,3.003821700112894,None,space,0.47836320009082556,None,P137,001,2025-03-26_17h07.10.920,posner_endo_new1,2024.2.4,60.090412036838885,2025-03-26 17h07.27.061831 +0000,
cube_r.png,0.1,0.31,valid,57,57,0,down,3.3034900000784546,None,space,0.1693787002004683,None,,,,,,,,,0,57,57,57,964.0836269999854,,,,,,,,,,,,,964.0679913000204,964.0836269999854,964.0836269999854,964.0836269999854,967.3975174999796,,,,967.4033313998953,967.4151790000033,967.4151790000033,967.4637184999883,967.4639399999287,967.4800946998876,967.4800946998876,967.4800946998876,967.5467511001043,,,,,967.6640826000366,,,,,,,,,,,,,,,,,,down,3.3034900000784546,None,space,0.1693787002004683,None,P137,001,2025-03-26_17h07.10.920,posner_endo_new1,2024.2.4,60.090412036838885,2025-03-26 17h07.27.061831 +0000,
cube_r.png,0.1,-0.31,invalid,58,58,0,down,3.355198700213805,None,space,0.32730770017951727,None,,,,,,,,,0,58,58,58,967.6800079001114,,,,,,,,,,,,,967.6642543000635,967.6800079001114,967.6800079001114,967.6800079001114,971.0439623000566,,,,971.0497703999281,971.0616371000651,971.0616371000651,971.109831900103,971.110054000048,971.126403799979,971.126403799979,971.126403799979,971.2096444999333,,,,,971.4600450000726,,,,,,,,,,,,,,,,,,down,3.355198700213805,None,space,0.32730770017951727,None,P137,001,2025-03-26_17h07.10.920,posner_endo_new1,2024.2.4,60.090412036838885,2025-03-26 17h07.27.061831 +0000,
cube_l.png,0.1,0.31,invalid,59,59,0,down,3.678923500003293,None,space,0.3404322999995202,None,,,,,,,,,0,59,59,59,971.4760362999514,,,,,,,,,,,,,971.4602165999822,971.4760362999514,971.4760362999514,971.4760362999514,975.1565052000806,,,,975.1623221999034,975.1740594001021,975.1740594001021,975.2224510000087,975.2226790999994,975.2388899000362,975.2388899000362,975.2388899000362,975.3224055001047,,,,,975.5891897999682,,,,,,,,,,,,,,,,,,down,3.678923500003293,None,space,0.3404322999995202,None,P137,001,2025-03-26_17h07.10.920,posner_endo_new1,2024.2.4,60.090412036838885,2025-03-26 17h07.27.061831 +0000,
