cue_img,cue_soa,target_x,trial,thisN,thisTrialN,thisRepN,key_control2.keys,key_control2.rt,key_control2.duration,key_resp.keys,key_resp.rt,key_resp.duration,practice.thisRepN,practice.thisTrialN,practice.thisN,practice.thisIndex,block1.thisRepN,block1.thisTrialN,block1.thisN,block1.thisIndex,block2.thisRepN,block2.thisTrialN,block2.thisN,block2.thisIndex,thisRow.t,notes,instructions.started,instructions_txt.started,key_control.started,instructions.stopped,key_control.keys,key_control.rt,key_control.duration,ready.started,ready_txt.started,ready_txt.stopped,ready.stopped,fix.started,fixation.started,key_control2.started,fixation_cross.started,fix.stopped,practice.key_control2.keys,practice.key_control2.rt,practice.key_control2.duration,cue.started,cube.started,fixation_cross_cue.started,cue.stopped,target.started,fixation_target.started,fixation_cross_target.started,key_resp.started,star.started,target.stopped,practice.key_resp.keys,practice.key_resp.rt,practice.key_resp.duration,star.stopped,fixation_target.stopped,fixation_cross_target.stopped,key_resp.stopped,block1.key_control2.keys,block1.key_control2.rt,block1.key_control2.duration,block1.key_resp.keys,block1.key_resp.rt,block1.key_resp.duration,break_2.started,text.started,key_control3.started,text.stopped,break_2.stopped,key_control3.keys,key_control3.rt,key_control3.duration,block2.key_control2.keys,block2.key_control2.rt,block2.key_control2.duration,block2.key_resp.keys,block2.key_resp.rt,block2.key_resp.duration,participant,session,date,expName,psychopyVersion,frameRate,expStart,
,,,,,,,,,,,,,,,,,,,,,,,,,,,0.007443800000146439,0.03147660000013275,0.03147660000013275,327.4394940000002,up,327.38873950000016,None,,,,,,,,,,,,,,,,,,,,,,,,,,,,,,,,,,,,,,,,,,,,,,,,,,P138,001,2025-04-08_08h54.17.362,posner_endo_new1,2024.2.4,59.97979880355758,2025-04-08 08h54.22.793003 +0100,
,,,,,,,,,,,,,,,,,,,,,,,,,,,,,,,,,,327.4395499000002,327.4504530000004,330.46562340000037,330.42966780000006,,,,,,,,,,,,,,,,,,,,,,,,,,,,,,,,,,,,,,,,,,,,,,P138,001,2025-04-08_08h54.17.362,posner_endo_new1,2024.2.4,59.97979880355758,2025-04-08 08h54.22.793003 +0100,
cube_r.png,0.1,0.31,valid,0,0,0,down,8.106395600000724,None,space,0.6042161000004853,None,0,0,0,10,,,,,,,,,330.46562340000037,,,,,,,,,,,,,330.45314099999996,330.46562340000037,330.46562340000037,330.46562340000037,338.5881846000002,down,8.106395600000724,None,338.60769040000014,338.6184075000001,338.6184075000001,338.6538326,338.65407290000076,338.67052200000035,338.67052200000035,338.67052200000035,338.7535555000004,339.2869060000003,space,0.6042161000004853,None,,,,,,,,,,,,,,,,,,,,,,,,,P138,001,2025-04-08_08h54.17.362,posner_endo_new1,2024.2.4,59.97979880355758,2025-04-08 08h54.22.793003 +0100,
cube_r.png,0.1,-0.31,invalid,1,1,0,down,2.045183299999735,None,space,0.6041233999994802,None,0,1,1,6,,,,,,,,,339.3031461999999,,,,,,,,,,,,,339.28707940000004,339.3031461999999,339.3031461999999,339.3031461999999,341.35196300000007,down,2.045183299999735,None,341.3593243000005,341.3707338000004,341.3707338000004,341.4176473000007,341.4178870000005,341.4341389000001,341.4341389000001,341.4341389000001,341.5174594,342.05086010000014,space,0.6041233999994802,None,,,,,,,,,,,,,,,,,,,,,,,,,P138,001,2025-04-08_08h54.17.362,posner_endo_new1,2024.2.4,59.97979880355758,2025-04-08 08h54.22.793003 +0100,
cube_r.png,0.1,-0.31,invalid,2,2,0,down,1.552565400000276,None,space,0.5071632999997746,None,0,2,2,9,,,,,,,,,342.06703910000033,,,,,,,,,,,,,342.05103099999997,342.06703910000033,342.06703910000033,342.06703910000033,343.63265690000026,down,1.552565400000276,None,343.6398614,343.6514569000001,343.6514569000001,343.6987392000001,343.6989768000003,343.7152345000004,343.7152345000004,343.7152345000004,343.78179890000047,344.2322238000006,space,0.5071632999997746,None,,,,,,,,,,,,,,,,,,,,,,,,,P138,001,2025-04-08_08h54.17.362,posner_endo_new1,2024.2.4,59.97979880355758,2025-04-08 08h54.22.793003 +0100,
cube_r.png,0.1,-0.31,invalid,3,3,0,down,4.412005899999713,None,space,0.4740223999997397,None,0,3,3,2,,,,,,,,,344.2480722,,,,,,,,,,,,,344.2323939000007,344.2480722,344.2480722,344.2480722,348.66097919999993,down,4.412005899999713,None,348.6683733,348.67970610000066,348.67970610000066,348.7268703,348.72710820000066,348.7433467999999,348.7433467999999,348.7433467999999,348.82624550000037,349.22694350000074,space,0.4740223999997397,None,,,,,,,,,,,,,,,,,,,,,,,,,P138,001,2025-04-08_08h54.17.362,posner_endo_new1,2024.2.4,59.97979880355758,2025-04-08 08h54.22.793003 +0100,
cube_l.png,0.1,0.31,invalid,4,4,0,down,5.633963199999926,None,space,0.514999799999714,None,0,4,4,5,,,,,,,,,349.2424338000001,,,,,,,,,,,,,349.2271214000002,349.2424338000001,349.2424338000001,349.2424338000001,354.8878413000002,down,5.633963199999926,None,354.89961889999995,354.90929360000064,354.90929360000064,354.95388980000007,354.95412600000054,354.9703487000006,354.9703487000006,354.9703487000006,355.03688950000014,355.4873045000004,space,0.514999799999714,None,,,,,,,,,,,,,,,,,,,,,,,,,P138,001,2025-04-08_08h54.17.362,posner_endo_new1,2024.2.4,59.97979880355758,2025-04-08 08h54.22.793003 +0100,
cube_l.png,0.1,0.31,invalid,5,5,0,down,1.9811069000006682,None,space,0.6536803999997574,None,0,5,5,1,,,,,,,,,355.50330360000044,,,,,,,,,,,,,355.48747430000003,355.50330360000044,355.50330360000044,355.50330360000044,357.4853122000004,down,1.9811069000006682,None,357.4920725000002,357.5037175000007,357.5037175000007,357.55115060000026,357.55139990000043,357.5676553000003,357.5676553000003,357.5676553000003,357.6509074000005,358.23449400000027,space,0.6536803999997574,None,,,,,,,,,,,,,,,,,,,,,,,,,P138,001,2025-04-08_08h54.17.362,posner_endo_new1,2024.2.4,59.97979880355758,2025-04-08 08h54.22.793003 +0100,
cube_l.png,0.1,-0.31,valid,6,6,0,down,10.1611469999998,None,space,0.38980870000068535,None,0,6,6,8,,,,,,,,,358.2503870999999,,,,,,,,,,,,,358.23466390000067,358.2503870999999,358.2503870999999,358.2503870999999,368.42394140000033,down,10.1611469999998,None,368.4308649000004,368.44238980000046,368.44238980000046,368.4898813,368.4901189000002,368.5064146000004,368.5064146000004,368.5064146000004,368.5728822000001,368.9069115000002,space,0.38980870000068535,None,,,,,,,,,,,,,,,,,,,,,,,,,P138,001,2025-04-08_08h54.17.362,posner_endo_new1,2024.2.4,59.97979880355758,2025-04-08 08h54.22.793003 +0100,
cube_l.png,0.1,-0.31,valid,7,7,0,down,5.074015700000018,None,space,0.36479330000020127,None,0,7,7,4,,,,,,,,,368.9225369000005,,,,,,,,,,,,,368.9070821000005,368.9225369000005,368.9225369000005,368.9225369000005,374.0016174000002,down,5.074015700000018,None,374.0093643,374.02040639999996,374.02040639999996,374.0675234,374.0677617000001,374.0840330000001,374.0840330000001,374.0840330000001,374.1506999000003,374.4510872000001,space,0.36479330000020127,None,,,,,,,,,,,,,,,,,,,,,,,,,P138,001,2025-04-08_08h54.17.362,posner_endo_new1,2024.2.4,59.97979880355758,2025-04-08 08h54.22.793003 +0100,
cube_r.png,0.1,0.31,valid,8,8,0,down,6.296871700000338,None,space,0.4962617000001046,None,0,8,8,7,,,,,,,,,374.46688260000064,,,,,,,,,,,,,374.4512594000007,374.46688260000064,374.46688260000064,374.46688260000064,380.7780622,down,6.296871700000338,None,380.78465290000076,380.7963322000005,380.7963322000005,380.84415440000066,380.84439139999995,380.86047510000026,380.86047510000026,380.86047510000026,380.9272365000006,381.3608342000007,space,0.4962617000001046,None,,,,,,,,,,,,,,,,,,,,,,,,,P138,001,2025-04-08_08h54.17.362,posner_endo_new1,2024.2.4,59.97979880355758,2025-04-08 08h54.22.793003 +0100,
cube_r.png,0.1,10,catch,9,9,0,down,11.30068459999984,None,None,,,0,9,9,3,,,,,,,,,381.37681860000066,,,,,,,,,,,,,381.36100540000007,381.37681860000066,381.37681860000066,381.37681860000066,392.6825727000005,down,11.30068459999984,None,392.6898406,392.70169010000063,392.70169010000063,392.7479753000007,392.74821150000025,392.76500170000054,392.76500170000054,392.76500170000054,392.8481977000001,395.76233950000005,None,,,394.8628337,395.7785100000001,395.7785100000001,395.7785100000001,,,,,,,,,,,,,,,,,,,,,P138,001,2025-04-08_08h54.17.362,posner_endo_new1,2024.2.4,59.97979880355758,2025-04-08 08h54.22.793003 +0100,
cube_l.png,0.1,-0.31,valid,10,10,0,down,0.23395980000077543,None,space,0.4757072000002154,None,0,10,10,0,,,,,,,,,395.7785100000001,,,,,,,,,,,,,395.7625029999999,395.7785100000001,395.7785100000001,395.7785100000001,396.0295450000003,down,0.23395980000077543,None,396.0361197000002,396.04780800000026,396.04780800000026,396.0948785999999,396.0951186000002,396.1116012000002,396.1116012000002,396.1116012000002,396.1948775999999,396.59519380000074,space,0.4757072000002154,None,,,,,,,,,,,,,,,,,,,,,,,,,P138,001,2025-04-08_08h54.17.362,posner_endo_new1,2024.2.4,59.97979880355758,2025-04-08 08h54.22.793003 +0100,
,,,,,,,,,,,,,,,,,,,,,,,,,,,,,,,,,,396.5953079000001,396.61085679999997,399.6114864000001,399.5916108000001,,,,,,,,,,,,,,,,,,,,,,,,,,,,,,,,,,,,,,,,,,,,,,P138,001,2025-04-08_08h54.17.362,posner_endo_new1,2024.2.4,59.97979880355758,2025-04-08 08h54.22.793003 +0100,
cube_l.png,0.1,10,catch,0,0,0,down,14.160985299999993,None,None,,,,,,,0,0,0,0,,,,,399.6114864000001,,,,,,,,,,,,,399.6027903000004,399.6114864000001,399.6114864000001,399.6114864000001,413.7776223999999,,,,413.7842476000005,413.79594140000063,413.79594140000063,413.8432569000006,413.8434977000006,413.8599764999999,413.8599764999999,413.8599764999999,413.9432138000002,416.85755300000073,,,,415.9575097000006,416.8732863000005,416.8732863000005,416.8732863000005,down,14.160985299999993,None,None,,,,,,,,,,,,,,,,,P138,001,2025-04-08_08h54.17.362,posner_endo_new1,2024.2.4,59.97979880355758,2025-04-08 08h54.22.793003 +0100,
cube_l.png,0.1,10,catch,1,1,0,down,2.186387300000206,None,None,,,,,,,0,1,1,1,,,,,416.8732863000005,,,,,,,,,,,,,416.85772690000067,416.8732863000005,416.8732863000005,416.8732863000005,419.07197760000054,,,,419.0788126000007,419.0903805000007,419.0903805000007,419.1379999999999,419.1382390000008,419.15460540000004,419.15460540000004,419.15460540000004,419.22096110000075,422.1519001000006,,,,421.2359027000002,422.1682415000005,422.1682415000005,422.1682415000005,down,2.186387300000206,None,None,,,,,,,,,,,,,,,,,P138,001,2025-04-08_08h54.17.362,posner_endo_new1,2024.2.4,59.97979880355758,2025-04-08 08h54.22.793003 +0100,
cube_l.png,0.1,0.31,invalid,2,2,0,down,7.195457400000123,None,space,0.43800240000018675,None,,,,,0,2,2,2,,,,,422.1682415000005,,,,,,,,,,,,,422.1520711000003,422.1682415000005,422.1682415000005,422.1682415000005,429.37830570000006,,,,429.3848461000007,429.3965050000006,429.3965050000006,429.4440622000002,429.44429910000053,429.4606966000001,429.4606966000001,429.4606966000001,429.5438769000002,429.91095380000024,,,,,,,,down,7.195457400000123,None,space,0.43800240000018675,None,,,,,,,,,,,,,,,P138,001,2025-04-08_08h54.17.362,posner_endo_new1,2024.2.4,59.97979880355758,2025-04-08 08h54.22.793003 +0100,
cube_l.png,0.1,0.31,invalid,3,3,0,down,2.693669299999783,None,space,0.4379876000002696,None,,,,,0,3,3,3,,,,,429.9265604000002,,,,,,,,,,,,,429.91114110000035,429.9265604000002,429.9265604000002,429.9265604000002,432.6250338,,,,432.6313291000006,432.6429598000004,432.6429598000004,432.6908263000005,432.6910628000005,432.7073319000001,432.7073319000001,432.7073319000001,432.79051250000066,433.15787400000045,,,,,,,,down,2.693669299999783,None,space,0.4379876000002696,None,,,,,,,,,,,,,,,P138,001,2025-04-08_08h54.17.362,posner_endo_new1,2024.2.4,59.97979880355758,2025-04-08 08h54.22.793003 +0100,
cube_l.png,0.1,-0.31,valid,4,4,0,down,2.790885700000217,None,space,0.5537988000005498,None,,,,,0,4,4,4,,,,,433.1734120000001,,,,,,,,,,,,,433.1580539000006,433.1734120000001,433.1734120000001,433.1734120000001,435.97144170000047,,,,435.97765660000005,435.9893482000007,435.9893482000007,436.0373038000007,436.0375414,436.0539925000003,436.0539925000003,436.0539925000003,436.1204049000007,436.6207899000001,,,,,,,,down,2.790885700000217,None,space,0.5537988000005498,None,,,,,,,,,,,,,,,P138,001,2025-04-08_08h54.17.362,posner_endo_new1,2024.2.4,59.97979880355758,2025-04-08 08h54.22.793003 +0100,
cube_r.png,0.1,-0.31,invalid,5,5,0,down,4.431232299999465,None,space,0.5261830999997983,None,,,,,0,5,5,5,,,,,436.6366615000006,,,,,,,,,,,,,436.6209742000001,436.6366615000006,436.6366615000006,436.6366615000006,441.08272230000057,,,,441.0890029000002,441.10041920000003,441.10041920000003,441.1487358000004,441.14897550000023,441.1653905000003,441.1653905000003,441.1653905000003,441.23185170000033,441.6990534000006,,,,,,,,down,4.431232299999465,None,space,0.5261830999997983,None,,,,,,,,,,,,,,,P138,001,2025-04-08_08h54.17.362,posner_endo_new1,2024.2.4,59.97979880355758,2025-04-08 08h54.22.793003 +0100,
cube_r.png,0.1,0.31,valid,6,6,0,down,2.353069400000095,None,space,0.43655949999993027,None,,,,,0,6,6,6,,,,,441.71491289999994,,,,,,,,,,,,,441.6992323000004,441.71491289999994,441.71491289999994,441.71491289999994,444.0796368000001,,,,444.0859207000003,444.0973111000003,444.0973111000003,444.14573700000074,444.1459863,444.16230260000066,444.16230260000066,444.16230260000066,444.22879040000043,444.61266650000016,,,,,,,,down,2.353069400000095,None,space,0.43655949999993027,None,,,,,,,,,,,,,,,P138,001,2025-04-08_08h54.17.362,posner_endo_new1,2024.2.4,59.97979880355758,2025-04-08 08h54.22.793003 +0100,
cube_r.png,0.1,-0.31,invalid,7,7,0,down,1.9680608999997276,None,space,0.4228989000002912,None,,,,,0,7,7,7,,,,,444.6283602000003,,,,,,,,,,,,,444.612846,444.6283602000003,444.6283602000003,444.6283602000003,446.61026240000047,,,,446.6163236000002,446.62810310000077,446.62810310000077,446.6765008000002,446.6767411999999,446.69311950000065,446.69311950000065,446.69311950000065,446.7595968000005,447.1267333000005,,,,,,,,down,1.9680608999997276,None,space,0.4228989000002912,None,,,,,,,,,,,,,,,P138,001,2025-04-08_08h54.17.362,posner_endo_new1,2024.2.4,59.97979880355758,2025-04-08 08h54.22.793003 +0100,
cube_l.png,0.1,-0.31,valid,8,8,0,down,1.837361100000635,None,space,0.4343979000004765,None,,,,,0,8,8,8,,,,,447.14250300000003,,,,,,,,,,,,,447.12691130000076,447.14250300000003,447.14250300000003,447.14250300000003,448.9913994000008,,,,448.9975419000002,449.0090801000006,449.0090801000006,449.0569822000007,449.0572226000004,449.0738248000007,449.0738248000007,449.0738248000007,449.1405021999999,449.5242459000001,,,,,,,,down,1.837361100000635,None,space,0.4343979000004765,None,,,,,,,,,,,,,,,P138,001,2025-04-08_08h54.17.362,posner_endo_new1,2024.2.4,59.97979880355758,2025-04-08 08h54.22.793003 +0100,
cube_r.png,0.1,-0.31,invalid,9,9,0,down,2.5514798000003793,None,space,0.4540735999999015,None,,,,,0,9,9,9,,,,,449.5402331000005,,,,,,,,,,,,,449.5244330000005,449.5402331000005,449.5402331000005,449.5402331000005,452.1048503000002,,,,452.11101920000056,452.12258420000035,452.12258420000035,452.1707028999999,452.17094180000004,452.1873783000001,452.1873783000001,452.1873783000001,452.2537170000005,452.6540143000002,,,,,,,,down,2.5514798000003793,None,space,0.4540735999999015,None,,,,,,,,,,,,,,,P138,001,2025-04-08_08h54.17.362,posner_endo_new1,2024.2.4,59.97979880355758,2025-04-08 08h54.22.793003 +0100,
cube_l.png,0.1,0.31,invalid,10,10,0,down,1.8138419000006252,None,space,0.46408990000054473,None,,,,,0,10,10,10,,,,,452.6701327999999,,,,,,,,,,,,,452.65419250000014,452.6701327999999,452.6701327999999,452.6701327999999,454.4857784000005,,,,454.4919512000006,454.5035461000007,454.5035461000007,454.5518542,454.5520946000006,454.56803450000007,454.56803450000007,454.56803450000007,454.6347863000001,455.03526300000067,,,,,,,,down,1.8138419000006252,None,space,0.46408990000054473,None,,,,,,,,,,,,,,,P138,001,2025-04-08_08h54.17.362,posner_endo_new1,2024.2.4,59.97979880355758,2025-04-08 08h54.22.793003 +0100,
cube_r.png,0.1,-0.31,invalid,11,11,0,down,2.2085054999997737,None,space,0.4440008999999918,None,,,,,0,11,11,11,,,,,455.05114550000053,,,,,,,,,,,,,455.03544910000073,455.05114550000053,455.05114550000053,455.05114550000053,457.26654490000055,,,,457.2794750000003,457.2896969000003,457.2896969000003,457.3319168000007,457.33231849999993,457.3483745000003,457.3483745000003,457.3483745000003,457.4316183000001,457.7993974000001,,,,,,,,down,2.2085054999997737,None,space,0.4440008999999918,None,,,,,,,,,,,,,,,P138,001,2025-04-08_08h54.17.362,posner_endo_new1,2024.2.4,59.97979880355758,2025-04-08 08h54.22.793003 +0100,
cube_r.png,0.1,0.31,valid,12,12,0,down,2.005062299999736,None,space,0.4271674999999959,None,,,,,0,12,12,12,,,,,457.8145672999999,,,,,,,,,,,,,457.79973380000047,457.8145672999999,457.8145672999999,457.8145672999999,459.83058280000023,,,,459.8432124000001,459.8534759000004,459.8534759000004,459.8959478000006,459.8963517000002,459.9124189000004,459.9124189000004,459.9124189000004,459.9956522000002,460.3468705000005,,,,,,,,down,2.005062299999736,None,space,0.4271674999999959,None,,,,,,,,,,,,,,,P138,001,2025-04-08_08h54.17.362,posner_endo_new1,2024.2.4,59.97979880355758,2025-04-08 08h54.22.793003 +0100,
cube_l.png,0.1,10,catch,13,13,0,down,1.9216569000000163,None,None,,,,,,,0,13,13,13,,,,,460.36195210000005,,,,,,,,,,,,,460.3472006000002,460.36195210000005,460.36195210000005,460.36195210000005,462.2947757000002,,,,462.30760760000067,462.3177843000003,462.3177843000003,462.3601071000003,462.36050969999997,462.3765534000004,462.3765534000004,462.3765534000004,462.4598111000005,465.3743263000006,,,,464.47440390000065,465.3901398000007,465.3901398000007,465.3901398000007,down,1.9216569000000163,None,None,,,,,,,,,,,,,,,,,P138,001,2025-04-08_08h54.17.362,posner_endo_new1,2024.2.4,59.97979880355758,2025-04-08 08h54.22.793003 +0100,
cube_r.png,0.1,-0.31,invalid,14,14,0,down,2.749619499999426,None,space,0.4693609000005381,None,,,,,0,14,14,14,,,,,465.3901398000007,,,,,,,,,,,,,465.3746484000003,465.3901398000007,465.3901398000007,465.3901398000007,468.15536969999994,,,,468.16818800000055,468.17837600000075,468.17837600000075,468.2207613999999,468.2211649000001,468.23721770000066,468.23721770000066,468.23721770000066,468.3204645000005,468.72148410000045,,,,,,,,down,2.749619499999426,None,space,0.4693609000005381,None,,,,,,,,,,,,,,,P138,001,2025-04-08_08h54.17.362,posner_endo_new1,2024.2.4,59.97979880355758,2025-04-08 08h54.22.793003 +0100,
cube_l.png,0.1,-0.31,valid,15,15,0,down,7.026585000000523,None,space,0.41807499999958964,None,,,,,0,15,15,15,,,,,468.7371627000002,,,,,,,,,,,,,468.72172020000016,468.7371627000002,468.7371627000002,468.7371627000002,475.7808066000007,,,,475.78941440000017,475.79953060000025,475.79953060000025,475.8466918000004,475.84698840000055,475.86316110000007,475.86316110000007,475.86316110000007,475.92947820000063,476.2971653000004,,,,,,,,down,7.026585000000523,None,space,0.41807499999958964,None,,,,,,,,,,,,,,,P138,001,2025-04-08_08h54.17.362,posner_endo_new1,2024.2.4,59.97979880355758,2025-04-08 08h54.22.793003 +0100,
cube_r.png,0.1,10,catch,16,16,0,down,2.8441665000000285,None,None,,,,,,,0,16,16,16,,,,,476.3123991000002,,,,,,,,,,,,,476.2973982000003,476.3123991000002,476.3123991000002,476.3123991000002,479.16096319999997,,,,479.16950650000035,479.1797423000007,479.1797423000007,479.2264361000007,479.2267273000007,479.2430567000001,479.2430567000001,479.2430567000001,479.3263242000003,482.24058870000044,,,,481.3409431,482.2565828000006,482.2565828000006,482.2565828000006,down,2.8441665000000285,None,None,,,,,,,,,,,,,,,,,P138,001,2025-04-08_08h54.17.362,posner_endo_new1,2024.2.4,59.97979880355758,2025-04-08 08h54.22.793003 +0100,
cube_r.png,0.1,10,catch,17,17,0,down,4.195141799999874,None,None,,,,,,,0,17,17,17,,,,,482.2565828000006,,,,,,,,,,,,,482.2408126,482.2565828000006,482.2565828000006,482.2565828000006,486.4535512000002,,,,486.46233870000015,486.4723720000002,486.4723720000002,486.5189418,486.5192325000007,486.5355072000002,486.5355072000002,486.5355072000002,486.6188271000001,489.5333033000006,,,,488.6332927000003,489.5492197000003,489.5492197000003,489.5492197000003,down,4.195141799999874,None,None,,,,,,,,,,,,,,,,,P138,001,2025-04-08_08h54.17.362,posner_endo_new1,2024.2.4,59.97979880355758,2025-04-08 08h54.22.793003 +0100,
cube_l.png,0.1,0.31,invalid,18,18,0,down,0.07905449999998382,None,space,0.45466769999984535,None,,,,,0,18,18,18,,,,,489.5492197000003,,,,,,,,,,,,,489.53351830000065,489.5492197000003,489.5492197000003,489.5492197000003,489.6333089,,,,489.6418334,489.6520994000002,489.6520994000002,489.69906470000024,489.69935650000025,489.7155700000003,489.7155700000003,489.7155700000003,489.7989266000004,490.1828594000008,,,,,,,,down,0.07905449999998382,None,space,0.45466769999984535,None,,,,,,,,,,,,,,,P138,001,2025-04-08_08h54.17.362,posner_endo_new1,2024.2.4,59.97979880355758,2025-04-08 08h54.22.793003 +0100,
cube_l.png,0.1,10,catch,19,19,0,down,1.3578284000004714,None,None,,,,,,,0,19,19,19,,,,,490.19836120000036,,,,,,,,,,,,,490.18309170000066,490.19836120000036,490.19836120000036,490.19836120000036,491.5648643000004,,,,491.5733803000003,491.58354730000065,491.58354730000065,491.63045480000073,491.6307440999999,491.6469022000001,491.6469022000001,491.6469022000001,491.73012590000053,494.6445764,,,,493.7447548,494.66062950000014,494.66062950000014,494.66062950000014,down,1.3578284000004714,None,None,,,,,,,,,,,,,,,,,P138,001,2025-04-08_08h54.17.362,posner_endo_new1,2024.2.4,59.97979880355758,2025-04-08 08h54.22.793003 +0100,
cube_l.png,0.1,0.31,invalid,20,20,0,down,0.1347920999996859,None,space,0.41285729999981413,None,,,,,0,20,20,20,,,,,494.66062950000014,,,,,,,,,,,,,494.6448063000007,494.66062950000014,494.66062950000014,494.66062950000014,494.8112435000003,,,,494.82005780000054,494.8301824,494.8301824,494.87716120000005,494.8774572000002,494.8937108,494.8937108,494.8937108,494.96027720000075,495.3107964000001,,,,,,,,down,0.1347920999996859,None,space,0.41285729999981413,None,,,,,,,,,,,,,,,P138,001,2025-04-08_08h54.17.362,posner_endo_new1,2024.2.4,59.97979880355758,2025-04-08 08h54.22.793003 +0100,
cube_l.png,0.1,-0.31,valid,21,21,0,down,1.8696067999999286,None,space,0.44554709999920306,None,,,,,0,21,21,21,,,,,495.32647540000016,,,,,,,,,,,,,495.31103450000046,495.32647540000016,495.32647540000016,495.32647540000016,497.2088811000003,,,,497.2173657000003,497.2274726000005,497.2274726000005,497.2747749,497.2750698,497.2912578000005,497.2912578000005,497.2912578000005,497.37459650000073,497.7415891999999,,,,,,,,down,1.8696067999999286,None,space,0.44554709999920306,None,,,,,,,,,,,,,,,P138,001,2025-04-08_08h54.17.362,posner_endo_new1,2024.2.4,59.97979880355758,2025-04-08 08h54.22.793003 +0100,
cube_r.png,0.1,0.31,valid,22,22,0,down,1.7667560999998386,None,space,0.3992680000001201,None,,,,,0,22,22,22,,,,,497.75737000000026,,,,,,,,,,,,,497.7418279000003,497.75737000000026,497.75737000000026,497.75737000000026,499.5398740999999,,,,499.5483453000006,499.5586054000005,499.5586054000005,499.6055223000003,499.6058079000004,499.6221050000004,499.6221050000004,499.6221050000004,499.7054441,500.02295980000054,,,,,,,,down,1.7667560999998386,None,space,0.3992680000001201,None,,,,,,,,,,,,,,,P138,001,2025-04-08_08h54.17.362,posner_endo_new1,2024.2.4,59.97979880355758,2025-04-08 08h54.22.793003 +0100,
cube_r.png,0.1,-0.31,invalid,23,23,0,down,1.862105899999733,None,space,0.3611068999998679,None,,,,,0,23,23,23,,,,,500.03832970000076,,,,,,,,,,,,,500.02319870000065,500.03832970000076,500.03832970000076,500.03832970000076,501.90379960000064,,,,501.91231060000064,501.9227101000006,501.9227101000006,501.96981720000076,501.9701064000001,501.98637230000077,501.98637230000077,501.98637230000077,502.05300850000003,502.3536844,,,,,,,,down,1.862105899999733,None,space,0.3611068999998679,None,,,,,,,,,,,,,,,P138,001,2025-04-08_08h54.17.362,posner_endo_new1,2024.2.4,59.97979880355758,2025-04-08 08h54.22.793003 +0100,
cube_r.png,0.1,0.31,valid,24,24,0,down,2.299425400000473,None,space,0.4263676000000487,None,,,,,0,24,24,24,,,,,502.36937620000026,,,,,,,,,,,,,502.35391830000026,502.36937620000026,502.36937620000026,502.36937620000026,504.6845837000001,,,,504.69308420000016,504.7031815,504.7031815,504.75029880000056,504.7505893000007,504.7666718999999,504.7666718999999,504.7666718999999,504.85011269999995,505.20075220000035,,,,,,,,down,2.299425400000473,None,space,0.4263676000000487,None,,,,,,,,,,,,,,,P138,001,2025-04-08_08h54.17.362,posner_endo_new1,2024.2.4,59.97979880355758,2025-04-08 08h54.22.793003 +0100,
cube_r.png,0.1,-0.31,invalid,25,25,0,down,2.322977799999535,None,space,0.3507603999996718,None,,,,,0,25,25,25,,,,,505.21638320000056,,,,,,,,,,,,,505.2009867000006,505.21638320000056,505.21638320000056,505.21638320000056,507.5481845000004,,,,507.5566794000006,507.5668822000007,507.5668822000007,507.6141619,507.6144553000004,507.63055729999996,507.63055729999996,507.63055729999996,507.69715410000026,507.9981284000005,,,,,,,,down,2.322977799999535,None,space,0.3507603999996718,None,,,,,,,,,,,,,,,P138,001,2025-04-08_08h54.17.362,posner_endo_new1,2024.2.4,59.97979880355758,2025-04-08 08h54.22.793003 +0100,
cube_l.png,0.1,-0.31,valid,26,26,0,down,2.2621119999994335,None,space,0.34227000000009866,None,,,,,0,26,26,26,,,,,508.0134101000003,,,,,,,,,,,,,507.9983622,508.0134101000003,508.0134101000003,508.0134101000003,510.2788442000001,,,,510.28725790000044,510.2975470000001,510.2975470000001,510.34458090000044,510.3448728000003,510.36113449999993,510.36113449999993,510.36113449999993,510.4442753000003,510.7118186000007,,,,,,,,down,2.2621119999994335,None,space,0.34227000000009866,None,,,,,,,,,,,,,,,P138,001,2025-04-08_08h54.17.362,posner_endo_new1,2024.2.4,59.97979880355758,2025-04-08 08h54.22.793003 +0100,
cube_r.png,0.1,0.31,valid,27,27,0,down,2.7481613999998444,None,space,0.3569333000004917,None,,,,,0,27,27,27,,,,,510.7273638000006,,,,,,,,,,,,,510.7120491000005,510.7273638000006,510.7273638000006,510.7273638000006,513.4923238000001,,,,513.5008328000004,513.5109130000001,513.5109130000001,513.5579197000006,513.5582119999999,513.5744670000004,513.5744670000004,513.5744670000004,513.6576917000002,513.9417379000006,,,,,,,,down,2.7481613999998444,None,space,0.3569333000004917,None,,,,,,,,,,,,,,,P138,001,2025-04-08_08h54.17.362,posner_endo_new1,2024.2.4,59.97979880355758,2025-04-08 08h54.22.793003 +0100,
cube_r.png,0.1,10,catch,28,28,0,down,7.054951500000243,None,None,,,,,,,0,28,28,28,,,,,513.9574016000006,,,,,,,,,,,,,513.9419717999999,513.9574016000006,513.9574016000006,513.9574016000006,521.0179840000001,,,,521.0265501000003,521.0368454,521.0368454,521.0835307000007,521.0838186000001,521.1000873000003,521.1000873000003,521.1000873000003,521.1832524000001,524.0978604000002,,,,523.1980437000002,524.1138999000004,524.1138999000004,524.1138999000004,down,7.054951500000243,None,None,,,,,,,,,,,,,,,,,P138,001,2025-04-08_08h54.17.362,posner_endo_new1,2024.2.4,59.97979880355758,2025-04-08 08h54.22.793003 +0100,
cube_r.png,0.1,0.31,valid,29,29,0,down,4.466340500000115,None,space,0.3956890999997995,None,,,,,0,29,29,29,,,,,524.1138999000004,,,,,,,,,,,,,524.0980740000005,524.1138999000004,524.1138999000004,524.1138999000004,528.5936329000006,,,,528.6022288000004,528.6125265000001,528.6125265000001,528.6592168000006,528.6595265000005,528.6756724000006,528.6756724000006,528.6756724000006,528.7590416000003,529.0764365000005,,,,,,,,down,4.466340500000115,None,space,0.3956890999997995,None,,,,,,,,,,,,,,,P138,001,2025-04-08_08h54.17.362,posner_endo_new1,2024.2.4,59.97979880355758,2025-04-08 08h54.22.793003 +0100,
cube_r.png,0.1,0.31,valid,30,30,0,down,2.095907600000828,None,space,0.4678455999992366,None,,,,,0,30,30,30,,,,,529.0920146000008,,,,,,,,,,,,,529.0766653000001,529.0920146000008,529.0920146000008,529.0920146000008,531.1908575000007,,,,531.1993440000006,531.2095952,531.2095952,531.2565818000003,531.2568857000006,531.2730773000003,531.2730773000003,531.2730773000003,531.3563404000006,531.7569656000005,,,,,,,,down,2.095907600000828,None,space,0.4678455999992366,None,,,,,,,,,,,,,,,P138,001,2025-04-08_08h54.17.362,posner_endo_new1,2024.2.4,59.97979880355758,2025-04-08 08h54.22.793003 +0100,
cube_l.png,0.1,-0.31,valid,31,31,0,down,1.7756720999996105,None,space,0.40617329999986396,None,,,,,0,31,31,31,,,,,531.7725193000006,,,,,,,,,,,,,531.7571982,531.7725193000006,531.7725193000006,531.7725193000006,533.5549776000007,,,,533.5636168000001,533.5737399,533.5737399,533.6206466000003,533.6209359000004,533.6372224000006,533.6372224000006,533.6372224000006,533.7204905000008,534.0544766000003,,,,,,,,down,1.7756720999996105,None,space,0.40617329999986396,None,,,,,,,,,,,,,,,P138,001,2025-04-08_08h54.17.362,posner_endo_new1,2024.2.4,59.97979880355758,2025-04-08 08h54.22.793003 +0100,
cube_r.png,0.1,0.31,valid,32,32,0,down,1.9574065000006158,None,space,0.5836302999996406,None,,,,,0,32,32,32,,,,,534.0702385000004,,,,,,,,,,,,,534.0547092000006,534.0702385000004,534.0702385000004,534.0702385000004,536.0360096000004,,,,536.0448839999999,536.0550748000005,536.0550748000005,536.1016265000007,536.1019223000003,536.1180515000005,536.1180515000005,536.1180515000005,536.2014116,536.7185283000008,,,,,,,,down,1.9574065000006158,None,space,0.5836302999996406,None,,,,,,,,,,,,,,,P138,001,2025-04-08_08h54.17.362,posner_endo_new1,2024.2.4,59.97979880355758,2025-04-08 08h54.22.793003 +0100,
cube_r.png,0.1,-0.31,invalid,33,33,0,down,8.086788500000694,None,space,0.38398099999994884,None,,,,,0,33,33,33,,,,,536.7340418000003,,,,,,,,,,,,,536.7187664000003,536.7340418000003,536.7340418000003,536.7340418000003,544.8270442000003,,,,544.8401927000004,544.8504866000003,544.8504866000003,544.8921923000007,544.8925945000001,544.9086600999999,544.9086600999999,544.9086600999999,544.9919030000001,545.3097418000007,,,,,,,,down,8.086788500000694,None,space,0.38398099999994884,None,,,,,,,,,,,,,,,P138,001,2025-04-08_08h54.17.362,posner_endo_new1,2024.2.4,59.97979880355758,2025-04-08 08h54.22.793003 +0100,
cube_r.png,0.1,10,catch,34,34,0,down,4.606537800000297,None,None,,,,,,,0,34,34,34,,,,,545.3248969000006,,,,,,,,,,,,,545.3100752,545.3248969000006,545.3248969000006,545.3248969000006,549.9382540000006,,,,549.9513818000005,549.9617505000006,549.9617505000006,550.0038810000005,550.004164,550.0203939000003,550.0203939000003,550.0203939000003,550.1037677000004,553.0180317000004,,,,552.1184624000007,553.0339802000008,553.0339802000008,553.0339802000008,down,4.606537800000297,None,None,,,,,,,,,,,,,,,,,P138,001,2025-04-08_08h54.17.362,posner_endo_new1,2024.2.4,59.97979880355758,2025-04-08 08h54.22.793003 +0100,
cube_r.png,0.1,0.31,valid,35,35,0,down,2.753532699999596,None,space,0.4019121000001178,None,,,,,0,35,35,35,,,,,553.0339802000008,,,,,,,,,,,,,553.0182340000001,553.0339802000008,553.0339802000008,553.0339802000008,555.7987615000002,,,,555.8069402000001,555.8174319,555.8174319,555.8646448,555.8649194,555.8811252000005,555.8811252000005,555.8811252000005,555.9643989000006,556.2983055000004,,,,,,,,down,2.753532699999596,None,space,0.4019121000001178,None,,,,,,,,,,,,,,,P138,001,2025-04-08_08h54.17.362,posner_endo_new1,2024.2.4,59.97979880355758,2025-04-08 08h54.22.793003 +0100,
cube_r.png,0.1,-0.31,invalid,36,36,0,down,1.282209299999522,None,space,0.45812610000029963,None,,,,,0,36,36,36,,,,,556.3139481000007,,,,,,,,,,,,,556.2985185000007,556.3139481000007,556.3139481000007,556.3139481000007,557.5973158000006,,,,557.6055187000002,557.6156334000007,557.6156334000007,557.6627472,557.6630287000007,557.6793302000005,557.6793302000005,557.6793302000005,557.7625402000003,558.1464366,,,,,,,,down,1.282209299999522,None,space,0.45812610000029963,None,,,,,,,,,,,,,,,P138,001,2025-04-08_08h54.17.362,posner_endo_new1,2024.2.4,59.97979880355758,2025-04-08 08h54.22.793003 +0100,
cube_l.png,0.1,0.31,invalid,37,37,0,down,1.7461479000003237,None,space,0.49036660000001575,None,,,,,0,37,37,37,,,,,558.1621525999999,,,,,,,,,,,,,558.1466610000007,558.1621525999999,558.1621525999999,558.1621525999999,559.9112012000005,,,,559.9193944000008,559.9299099,559.9299099,559.9770486000007,559.9773291000001,559.9934772000006,559.9934772000006,559.9934772000006,560.0769345000008,560.4940957000008,,,,,,,,down,1.7461479000003237,None,space,0.49036660000001575,None,,,,,,,,,,,,,,,P138,001,2025-04-08_08h54.17.362,posner_endo_new1,2024.2.4,59.97979880355758,2025-04-08 08h54.22.793003 +0100,
cube_l.png,0.1,0.31,invalid,38,38,0,down,2.5986394000001383,None,space,0.4272408999995605,None,,,,,0,38,38,38,,,,,560.5096196000004,,,,,,,,,,,,,560.4943123000003,560.5096196000004,560.5096196000004,560.5096196000004,563.1246122000002,,,,563.1327831000008,563.1433469000003,563.1433469000003,563.1904367000006,563.1907119000007,563.2069136,563.2069136,563.2069136,563.2736682000004,563.6409583000004,,,,,,,,down,2.5986394000001383,None,space,0.4272408999995605,None,,,,,,,,,,,,,,,P138,001,2025-04-08_08h54.17.362,posner_endo_new1,2024.2.4,59.97979880355758,2025-04-08 08h54.22.793003 +0100,
cube_r.png,0.1,0.31,valid,39,39,0,down,2.403795799999898,None,space,0.3464853999994375,None,,,,,0,39,39,39,,,,,563.6564299000001,,,,,,,,,,,,,563.6411774000007,563.6564299000001,563.6564299000001,563.6564299000001,566.0716302999999,,,,566.0798585000002,566.0902575,566.0902575,566.1372965,566.1375703000003,566.1539837,566.1539837,566.1539837,566.2370258999999,566.5042712000004,,,,,,,,down,2.403795799999898,None,space,0.3464853999994375,None,,,,,,,,,,,,,,,P138,001,2025-04-08_08h54.17.362,posner_endo_new1,2024.2.4,59.97979880355758,2025-04-08 08h54.22.793003 +0100,
cube_l.png,0.1,0.31,invalid,40,40,0,down,1.907328599999346,None,space,0.40050930000052176,None,,,,,0,40,40,40,,,,,566.5204016000007,,,,,,,,,,,,,566.5044891000007,566.5204016000007,566.5204016000007,566.5204016000007,568.4359731000004,,,,568.4443652,568.4545302000006,568.4545302000006,568.5017198000005,568.5020001000003,568.5179330000001,568.5179330000001,568.5179330000001,568.6014117000004,568.9353884000002,,,,,,,,down,1.907328599999346,None,space,0.40050930000052176,None,,,,,,,,,,,,,,,P138,001,2025-04-08_08h54.17.362,posner_endo_new1,2024.2.4,59.97979880355758,2025-04-08 08h54.22.793003 +0100,
cube_l.png,0.1,10,catch,41,41,0,down,1.7484006000004229,None,None,,,,,,,0,41,41,41,,,,,568.9511236000008,,,,,,,,,,,,,568.9356058000003,568.9511236000008,568.9511236000008,568.9511236000008,570.7004479000007,,,,570.7087249000006,570.7188655,570.7188655,570.7659991,570.7662734000005,570.7825953000001,570.7825953000001,570.7825953000001,570.8657590000003,573.7800684000003,,,,572.8803734000003,573.7961703000001,573.7961703000001,573.7961703000001,down,1.7484006000004229,None,None,,,,,,,,,,,,,,,,,P138,001,2025-04-08_08h54.17.362,posner_endo_new1,2024.2.4,59.97979880355758,2025-04-08 08h54.22.793003 +0100,
cube_l.png,0.1,-0.31,valid,42,42,0,down,1.735600400000294,None,space,0.4177501000003758,None,,,,,0,42,42,42,,,,,573.7961703000001,,,,,,,,,,,,,573.7802752000007,573.7961703000001,573.7961703000001,573.7961703000001,575.5454137000006,,,,575.5537884000005,575.5640502000006,575.5640502000006,575.6110017999999,575.6112730000004,575.6275500000002,575.6275500000002,575.6275500000002,575.7109752000006,576.0614737000005,,,,,,,,down,1.735600400000294,None,space,0.4177501000003758,None,,,,,,,,,,,,,,,P138,001,2025-04-08_08h54.17.362,posner_endo_new1,2024.2.4,59.97979880355758,2025-04-08 08h54.22.793003 +0100,
cube_l.png,0.1,10,catch,43,43,0,down,2.8944000000001324,None,None,,,,,,,0,43,43,43,,,,,576.0770499,,,,,,,,,,,,,576.0616899000006,576.0770499,576.0770499,576.0770499,578.9751987,,,,578.9835311000006,578.9937232000002,578.9937232000002,579.0410413,579.0413166000008,579.0575125000005,579.0575125000005,579.0575125000005,579.1408168000007,582.0550205,,,,581.1551743,582.0710472000001,582.0710472000001,582.0710472000001,down,2.8944000000001324,None,None,,,,,,,,,,,,,,,,,P138,001,2025-04-08_08h54.17.362,posner_endo_new1,2024.2.4,59.97979880355758,2025-04-08 08h54.22.793003 +0100,
cube_l.png,0.1,0.31,invalid,44,44,0,down,6.164641700000175,None,space,0.3824893000000884,None,,,,,0,44,44,44,,,,,582.0710472000001,,,,,,,,,,,,,582.0552225000001,582.0710472000001,582.0710472000001,582.0710472000001,588.2487584,,,,588.2571741000002,588.2675325,588.2675325,588.3146616000004,588.3149372000007,588.3312072000008,588.3312072000008,588.3312072000008,588.3978028000001,588.7154139000004,,,,,,,,down,6.164641700000175,None,space,0.3824893000000884,None,,,,,,,,,,,,,,,P138,001,2025-04-08_08h54.17.362,posner_endo_new1,2024.2.4,59.97979880355758,2025-04-08 08h54.22.793003 +0100,
cube_l.png,0.1,0.31,invalid,45,45,0,down,5.953851100000065,None,space,0.5410279999996419,None,,,,,0,45,45,45,,,,,588.7304610000001,,,,,,,,,,,,,588.7156330000007,588.7304610000001,588.7304610000001,588.7304610000001,594.6923428,,,,594.7006066000004,594.7108764000004,594.7108764000004,594.7580839000002,594.7583621000003,594.7745654,594.7745654,594.7745654,594.8578648000002,595.3249548000003,,,,,,,,down,5.953851100000065,None,space,0.5410279999996419,None,,,,,,,,,,,,,,,P138,001,2025-04-08_08h54.17.362,posner_endo_new1,2024.2.4,59.97979880355758,2025-04-08 08h54.22.793003 +0100,
cube_r.png,0.1,0.31,valid,46,46,0,down,2.6707667000000583,None,space,0.42193809999935183,None,,,,,0,46,46,46,,,,,595.3405980000007,,,,,,,,,,,,,595.3251678000006,595.3405980000007,595.3405980000007,595.3405980000007,598.0221953,,,,598.0303739999999,598.0407819000002,598.0407819000002,598.0880826000002,598.0883610000001,598.1045834000006,598.1045834000006,598.1045834000006,598.1878171000008,598.5384564000005,,,,,,,,down,2.6707667000000583,None,space,0.42193809999935183,None,,,,,,,,,,,,,,,P138,001,2025-04-08_08h54.17.362,posner_endo_new1,2024.2.4,59.97979880355758,2025-04-08 08h54.22.793003 +0100,
cube_l.png,0.1,-0.31,valid,47,47,0,down,3.217732299999625,None,space,0.4276571000000331,None,,,,,0,47,47,47,,,,,598.5542261999999,,,,,,,,,,,,,598.5386687,598.5542261999999,598.5542261999999,598.5542261999999,601.7848808000008,,,,601.793009,601.8036206000006,601.8036206000006,601.8507797000002,601.8510673999999,601.8672352000003,601.8672352000003,601.8672352000003,601.9506528000002,602.3011971000005,,,,,,,,down,3.217732299999625,None,space,0.4276571000000331,None,,,,,,,,,,,,,,,P138,001,2025-04-08_08h54.17.362,posner_endo_new1,2024.2.4,59.97979880355758,2025-04-08 08h54.22.793003 +0100,
cube_r.png,0.1,-0.31,invalid,48,48,0,down,7.38328889999957,None,space,0.48452389999965817,None,,,,,0,48,48,48,,,,,602.3168549000002,,,,,,,,,,,,,602.3014097000005,602.3168549000002,602.3168549000002,602.3168549000002,609.7112338000006,,,,609.7308406000002,609.7425344000003,609.7425344000003,609.7756899000005,609.7760598000004,609.7921744000005,609.7921744000005,609.7921744000005,609.8758026000005,610.2931361000001,,,,,,,,down,7.38328889999957,None,space,0.48452389999965817,None,,,,,,,,,,,,,,,P138,001,2025-04-08_08h54.17.362,posner_endo_new1,2024.2.4,59.97979880355758,2025-04-08 08h54.22.793003 +0100,
cube_r.png,0.1,10,catch,49,49,0,down,4.1829084999999395,None,None,,,,,,,0,49,49,49,,,,,610.3085660000006,,,,,,,,,,,,,610.2934245000006,610.3085660000006,610.3085660000006,610.3085660000006,614.5055843,,,,614.5175247000006,614.5280455000002,614.5280455000002,614.5710998000004,614.5714647000004,614.5874948000001,614.5874948000001,614.5874948000001,614.6708531000004,617.5852047000008,,,,616.6854489000007,617.6011119000004,617.6011119000004,617.6011119000004,down,4.1829084999999395,None,None,,,,,,,,,,,,,,,,,P138,001,2025-04-08_08h54.17.362,posner_endo_new1,2024.2.4,59.97979880355758,2025-04-08 08h54.22.793003 +0100,
cube_l.png,0.1,-0.31,valid,50,50,0,down,2.363339100000303,None,space,0.42854390000047715,None,,,,,0,50,50,50,,,,,617.6011119000004,,,,,,,,,,,,,617.5854782000006,617.6011119000004,617.6011119000004,617.6011119000004,619.9668267000006,,,,619.9787928000005,619.9890605,619.9890605,620.0321832,620.0325466000004,620.0485827000002,620.0485827000002,620.0485827000002,620.1318807000007,620.4828267000003,,,,,,,,down,2.363339100000303,None,space,0.42854390000047715,None,,,,,,,,,,,,,,,P138,001,2025-04-08_08h54.17.362,posner_endo_new1,2024.2.4,59.97979880355758,2025-04-08 08h54.22.793003 +0100,
cube_l.png,0.1,-0.31,valid,51,51,0,down,1.5532180000000153,None,space,0.4386461000003692,None,,,,,0,51,51,51,,,,,620.4981302000006,,,,,,,,,,,,,620.4831272000001,620.4981302000006,620.4981302000006,620.4981302000006,622.0644998000007,,,,622.0767168000002,622.0869285000008,622.0869285000008,622.1300281000003,622.1303969,622.1464882,622.1464882,622.1464882,622.2296820000001,622.5973422000006,,,,,,,,down,1.5532180000000153,None,space,0.4386461000003692,None,,,,,,,,,,,,,,,P138,001,2025-04-08_08h54.17.362,posner_endo_new1,2024.2.4,59.97979880355758,2025-04-08 08h54.22.793003 +0100,
cube_r.png,0.1,-0.31,invalid,52,52,0,down,2.8319117999999435,None,space,0.427278699999988,None,,,,,0,52,52,52,,,,,622.6125726,,,,,,,,,,,,,622.5976364000007,622.6125726,622.6125726,622.6125726,625.4609,,,,625.4731066000004,625.4830862000008,625.4830862000008,625.5265233,625.5268888999999,625.5429552000005,625.5429552000005,625.5429552000005,625.6262593000001,625.9771978000008,,,,,,,,down,2.8319117999999435,None,space,0.427278699999988,None,,,,,,,,,,,,,,,P138,001,2025-04-08_08h54.17.362,posner_endo_new1,2024.2.4,59.97979880355758,2025-04-08 08h54.22.793003 +0100,
cube_l.png,0.1,-0.31,valid,53,53,0,down,2.8911839000002146,None,space,0.46670739999990474,None,,,,,0,53,53,53,,,,,625.9924587000005,,,,,,,,,,,,,625.9774922000006,625.9924587000005,625.9924587000005,625.9924587000005,628.8910197000005,,,,628.9028656999999,628.9131254000004,628.9131254000004,628.9563598000004,628.9566224,628.9728350000005,628.9728350000005,628.9728350000005,629.0561367,629.4565941999999,,,,,,,,down,2.8911839000002146,None,space,0.46670739999990474,None,,,,,,,,,,,,,,,P138,001,2025-04-08_08h54.17.362,posner_endo_new1,2024.2.4,59.97979880355758,2025-04-08 08h54.22.793003 +0100,
cube_r.png,0.1,10,catch,54,54,0,down,2.1793156000003364,None,None,,,,,,,0,54,54,54,,,,,629.4722781,,,,,,,,,,,,,629.4568067,629.4722781,629.4722781,629.4722781,631.6543498999999,,,,631.662217,631.6729748000007,631.6729748000007,631.7201326000004,631.7203892000007,631.7367496000006,631.7367496000006,631.7367496000006,631.8029661,634.7338854,,,,633.8179004000003,634.7503391,634.7503391,634.7503391,down,2.1793156000003364,None,None,,,,,,,,,,,,,,,,,P138,001,2025-04-08_08h54.17.362,posner_endo_new1,2024.2.4,59.97979880355758,2025-04-08 08h54.22.793003 +0100,
cube_l.png,0.1,0.31,invalid,55,55,0,down,11.685220299999855,None,space,0.6864406000004237,None,,,,,0,55,55,55,,,,,634.7503391,,,,,,,,,,,,,634.7340770999999,634.7503391,634.7503391,634.7503391,646.4396919999999,,,,646.4516910000002,646.4619493,646.4619493,646.5046811000002,646.5049397000003,646.5215918000004,646.5215918000004,646.5215918000004,646.6048789000006,647.2219201000007,,,,,,,,down,11.685220299999855,None,space,0.6864406000004237,None,,,,,,,,,,,,,,,P138,001,2025-04-08_08h54.17.362,posner_endo_new1,2024.2.4,59.97979880355758,2025-04-08 08h54.22.793003 +0100,
cube_l.png,0.1,-0.31,valid,56,56,0,down,5.510954600000332,None,space,0.6458229999998366,None,,,,,0,56,56,56,,,,,647.2374018999999,,,,,,,,,,,,,647.2221334000005,647.2374018999999,647.2374018999999,647.2374018999999,652.7495003000004,,,,652.7572347000005,652.7681851000007,652.7681851000007,652.8152905000006,652.8155584000006,652.831854,652.831854,652.831854,652.9150095000005,653.482164,,,,,,,,down,5.510954600000332,None,space,0.6458229999998366,None,,,,,,,,,,,,,,,P138,001,2025-04-08_08h54.17.362,posner_endo_new1,2024.2.4,59.97979880355758,2025-04-08 08h54.22.793003 +0100,
cube_r.png,0.1,0.31,valid,57,57,0,down,3.4176117000006343,None,space,0.475977299999613,None,,,,,0,57,57,57,,,,,653.4978129000001,,,,,,,,,,,,,653.4823707000005,653.4978129000001,653.4978129000001,653.4978129000001,656.9283786000005,,,,656.9359817000004,656.9471250000006,656.9471250000006,656.9941791000001,656.9944388000004,657.0107789000003,657.0107789000003,657.0107789000003,657.0775109000006,657.4943425000001,,,,,,,,down,3.4176117000006343,None,space,0.475977299999613,None,,,,,,,,,,,,,,,P138,001,2025-04-08_08h54.17.362,posner_endo_new1,2024.2.4,59.97979880355758,2025-04-08 08h54.22.793003 +0100,
cube_r.png,0.1,-0.31,invalid,58,58,0,down,2.6689855000004172,None,space,0.6137066000001141,None,,,,,0,58,58,58,,,,,657.5103613000001,,,,,,,,,,,,,657.4945446000002,657.5103613000001,657.5103613000001,657.5103613000001,660.1917731000003,,,,660.1993994000004,660.2105080000001,660.2105080000001,660.2575987,660.2578601000005,660.2739174000008,660.2739174000008,660.2739174000008,660.3406868000002,660.8908792000002,,,,,,,,down,2.6689855000004172,None,space,0.6137066000001141,None,,,,,,,,,,,,,,,P138,001,2025-04-08_08h54.17.362,posner_endo_new1,2024.2.4,59.97979880355758,2025-04-08 08h54.22.793003 +0100,
cube_l.png,0.1,0.31,invalid,59,59,0,down,3.361951300000328,None,space,0.7201623000000836,None,,,,,0,59,59,59,,,,,660.9070214000003,,,,,,,,,,,,,660.8910774000005,660.9070214000003,660.9070214000003,660.9070214000003,664.2710308000005,,,,664.2785609000002,664.2895729000002,664.2895729000002,664.3368487000007,664.3371133999999,664.3534476000004,664.3534476000004,664.3534476000004,664.4363404000005,665.0867591000006,,,,,,,,down,3.361951300000328,None,space,0.7201623000000836,None,,,,,,,,,,,,,,,P138,001,2025-04-08_08h54.17.362,posner_endo_new1,2024.2.4,59.97979880355758,2025-04-08 08h54.22.793003 +0100,
,,,,,,,,,,,,,,,,,,,,,,,,,,,,,,,,,,,,,,,,,,,,,,,,,,,,,,,,,,,,,,,,,,,,,665.0868908000002,665.1026263000003,665.1026263000003,725.1076149999999,728.6884682,space,63.57277830000021,None,,,,,,,P138,001,2025-04-08_08h54.17.362,posner_endo_new1,2024.2.4,59.97979880355758,2025-04-08 08h54.22.793003 +0100,
,,,,,,,,,,,,,,,,,,,,,,,,,,,,,,,,,,728.6885533000004,728.7038683000001,731.7846714000007,731.6847850000004,,,,,,,,,,,,,,,,,,,,,,,,,,,,,,,,,,,,,,,,,,,,,,P138,001,2025-04-08_08h54.17.362,posner_endo_new1,2024.2.4,59.97979880355758,2025-04-08 08h54.22.793003 +0100,
cube_l.png,0.1,10,catch,0,0,0,up,10.987510699999802,None,None,,,,,,,,,,,0,0,0,0,731.7846714000007,,,,,,,,,,,,,731.7763731000005,731.7846714000007,731.7846714000007,731.7846714000007,742.7740638000005,,,,742.7810546999999,742.7926163000002,742.7926163000002,742.8397240000004,742.8399737,742.8562304000006,742.8562304000006,742.8562304000006,742.9394060000004,745.8533727000004,,,,744.9539408999999,745.8694664000004,745.8694664000004,745.8694664000004,,,,,,,,,,,,,,,up,10.987510699999802,None,None,,,P138,001,2025-04-08_08h54.17.362,posner_endo_new1,2024.2.4,59.97979880355758,2025-04-08 08h54.22.793003 +0100,
cube_l.png,0.1,10,catch,1,1,0,up,18.79013219999979,None,None,,,,,,,,,,,0,1,1,1,745.8694664000004,,,,,,,,,,,,,745.8535455000001,745.8694664000004,745.8694664000004,745.8694664000004,764.6679122000005,,,,764.6743147000007,764.6858624000006,764.6858624000006,764.7338096000003,764.7340484000006,764.7504193000004,764.7504193000004,764.7504193000004,764.8169997000005,767.7477358000006,,,,766.8316935000003,767.7636785000004,767.7636785000004,767.7636785000004,,,,,,,,,,,,,,,up,18.79013219999979,None,None,,,P138,001,2025-04-08_08h54.17.362,posner_endo_new1,2024.2.4,59.97979880355758,2025-04-08 08h54.22.793003 +0100,
cube_l.png,0.1,0.31,invalid,2,2,0,up,0.42404480000004696,None,space,0.4608849000005648,None,,,,,,,,,0,2,2,2,767.7636785000004,,,,,,,,,,,,,767.7479066000005,767.7636785000004,767.7636785000004,767.7636785000004,768.1976584000004,,,,768.2037797000003,768.2152947000004,768.2152947000004,768.2636794,768.2639183000001,768.2801972000007,768.2801972000007,768.2801972000007,768.3468387000003,768.7470267000008,,,,,,,,,,,,,,,,,,,,,,up,0.42404480000004696,None,space,0.4608849000005648,None,P138,001,2025-04-08_08h54.17.362,posner_endo_new1,2024.2.4,59.97979880355758,2025-04-08 08h54.22.793003 +0100,
cube_l.png,0.1,0.31,invalid,3,3,0,up,3.9686068999999407,None,space,0.47090969999953813,None,,,,,,,,,0,3,3,3,768.7630715000005,,,,,,,,,,,,,768.7472138000003,768.7630715000005,768.7630715000005,768.7630715000005,772.7429873000001,,,,772.7492745,772.7606883000008,772.7606883000008,772.8088746000003,772.8091115000007,772.825664,772.825664,772.825664,772.8920937000003,773.3091770000001,,,,,,,,,,,,,,,,,,,,,,up,3.9686068999999407,None,space,0.47090969999953813,None,P138,001,2025-04-08_08h54.17.362,posner_endo_new1,2024.2.4,59.97979880355758,2025-04-08 08h54.22.793003 +0100,
cube_l.png,0.1,-0.31,valid,4,4,0,up,2.390900100000181,None,space,0.3910333999992872,None,,,,,,,,,0,4,4,4,773.3249768000005,,,,,,,,,,,,,773.3093613000001,773.3249768000005,773.3249768000005,773.3249768000005,775.7234501000003,,,,775.7295598999999,775.7408958000005,775.7408958000005,775.7889180000002,775.7891557000003,775.8057878,775.8057878,775.8057878,775.8720438,776.2060652,,,,,,,,,,,,,,,,,,,,,,up,2.390900100000181,None,space,0.3910333999992872,None,P138,001,2025-04-08_08h54.17.362,posner_endo_new1,2024.2.4,59.97979880355758,2025-04-08 08h54.22.793003 +0100,
cube_r.png,0.1,-0.31,invalid,5,5,0,up,2.6857561999995596,None,space,0.549989000000096,None,,,,,,,,,0,5,5,5,776.2220799000006,,,,,,,,,,,,,776.2062459000008,776.2220799000006,776.2220799000006,776.2220799000006,778.9196952000002,,,,778.9258513000004,778.9376507000006,778.9376507000006,778.9859409000001,778.9861792000002,779.0023925000005,779.0023925000005,779.0023925000005,779.0692483000003,779.5691917000004,,,,,,,,,,,,,,,,,,,,,,up,2.6857561999995596,None,space,0.549989000000096,None,P138,001,2025-04-08_08h54.17.362,posner_endo_new1,2024.2.4,59.97979880355758,2025-04-08 08h54.22.793003 +0100,
cube_r.png,0.1,0.31,valid,6,6,0,up,2.9377231999997093,None,space,0.5237803999998505,None,,,,,,,,,0,6,6,6,779.5853450000004,,,,,,,,,,,,,779.5693749000002,779.5853450000004,779.5853450000004,779.5853450000004,782.5331434,,,,782.5394126000001,782.5509344000002,782.5509344000002,782.5991073000005,782.5993430000008,782.6154294000007,782.6154294000007,782.6154294000007,782.6985935000002,783.1488995,,,,,,,,,,,,,,,,,,,,,,up,2.9377231999997093,None,space,0.5237803999998505,None,P138,001,2025-04-08_08h54.17.362,posner_endo_new1,2024.2.4,59.97979880355758,2025-04-08 08h54.22.793003 +0100,
cube_r.png,0.1,-0.31,invalid,7,7,0,up,2.8300351999996565,None,space,0.41638700000021345,None,,,,,,,,,0,7,7,7,783.1651240000001,,,,,,,,,,,,,783.1490887,783.1651240000001,783.1651240000001,783.1651240000001,785.9962109000007,,,,786.0025693000007,786.0141293000006,786.0141293000006,786.0619011000008,786.0621409000005,786.0787312000002,786.0787312000002,786.0787312000002,786.1619326,786.4959502000002,,,,,,,,,,,,,,,,,,,,,,up,2.8300351999996565,None,space,0.41638700000021345,None,P138,001,2025-04-08_08h54.17.362,posner_endo_new1,2024.2.4,59.97979880355758,2025-04-08 08h54.22.793003 +0100,
cube_l.png,0.1,-0.31,valid,8,8,0,up,3.5000881999994817,None,space,0.39279400000032183,None,,,,,,,,,0,8,8,8,786.5110891000004,,,,,,,,,,,,,786.4961357000002,786.5110891000004,786.5110891000004,786.5110891000004,790.0255354999999,,,,790.0318002000004,790.0434051000002,790.0434051000002,790.0912392,790.0914777000007,790.1076370000001,790.1076370000001,790.1076370000001,790.1909701000004,790.5082145000006,,,,,,,,,,,,,,,,,,,,,,up,3.5000881999994817,None,space,0.39279400000032183,None,P138,001,2025-04-08_08h54.17.362,posner_endo_new1,2024.2.4,59.97979880355758,2025-04-08 08h54.22.793003 +0100,
cube_r.png,0.1,-0.31,invalid,9,9,0,up,3.7034181000008175,None,space,0.3943602999997893,None,,,,,,,,,0,9,9,9,790.5240283000003,,,,,,,,,,,,,790.5083984000003,790.5240283000003,790.5240283000003,790.5240283000003,794.2375168000008,,,,794.2437582000002,794.2553883999999,794.2553883999999,794.3038467000006,794.3040839000005,794.3201486000007,794.3201486000007,794.3201486000007,794.3867252,794.7204468,,,,,,,,,,,,,,,,,,,,,,up,3.7034181000008175,None,space,0.3943602999997893,None,P138,001,2025-04-08_08h54.17.362,posner_endo_new1,2024.2.4,59.97979880355758,2025-04-08 08h54.22.793003 +0100,
cube_l.png,0.1,0.31,invalid,10,10,0,up,3.5551352000002225,None,space,0.3848637000000963,None,,,,,,,,,0,10,10,10,794.7365004000003,,,,,,,,,,,,,794.7206378999999,794.7365004000003,794.7365004000003,794.7365004000003,798.3002041,,,,798.3063781999999,798.3177648000001,798.3177648000001,798.3662177000006,798.3664574000004,798.3826975000002,798.3826975000002,798.3826975000002,798.4659783000006,798.7828104,,,,,,,,,,,,,,,,,,,,,,up,3.5551352000002225,None,space,0.3848637000000963,None,P138,001,2025-04-08_08h54.17.362,posner_endo_new1,2024.2.4,59.97979880355758,2025-04-08 08h54.22.793003 +0100,
cube_r.png,0.1,-0.31,invalid,11,11,0,up,3.7641327999999703,None,space,0.4213042999999743,None,,,,,,,,,0,11,11,11,798.7988315000002,,,,,,,,,,,,,798.7829939000003,798.7988315000002,798.7988315000002,798.7988315000002,802.5787861000008,,,,802.5850182000004,802.5967541,802.5967541,802.6450427,802.645278,802.6614697000005,802.6614697000005,802.6614697000005,802.7281816000004,803.0953053000003,,,,,,,,,,,,,,,,,,,,,,up,3.7641327999999703,None,space,0.4213042999999743,None,P138,001,2025-04-08_08h54.17.362,posner_endo_new1,2024.2.4,59.97979880355758,2025-04-08 08h54.22.793003 +0100,
cube_r.png,0.1,0.31,valid,12,12,0,up,3.9082083000002967,None,space,0.40119680000043445,None,,,,,,,,,0,12,12,12,803.1110505000006,,,,,,,,,,,,,803.0954877000004,803.1110505000006,803.1110505000006,803.1110505000006,807.0247839000003,,,,807.0314499000006,807.0432497000002,807.0432497000002,807.0904456000007,807.0906847000006,807.1070237000004,807.1070237000004,807.1070237000004,807.1903178000002,807.5239894000006,,,,,,,,,,,,,,,,,,,,,,up,3.9082083000002967,None,space,0.40119680000043445,None,P138,001,2025-04-08_08h54.17.362,posner_endo_new1,2024.2.4,59.97979880355758,2025-04-08 08h54.22.793003 +0100,
cube_l.png,0.1,10,catch,13,13,0,up,3.0409155999996074,None,None,,,,,,,,,,,0,13,13,13,807.5401011000004,,,,,,,,,,,,,807.5241783000001,807.5401011000004,807.5401011000004,807.5401011000004,810.5877045000007,,,,810.5945387000002,810.606331,810.606331,810.6535358000001,810.6537778000002,810.6701394000002,810.6701394000002,810.6701394000002,810.7531078000002,813.6671791000008,,,,812.7679092000008,813.6836000000003,813.6836000000003,813.6836000000003,,,,,,,,,,,,,,,up,3.0409155999996074,None,None,,,P138,001,2025-04-08_08h54.17.362,posner_endo_new1,2024.2.4,59.97979880355758,2025-04-08 08h54.22.793003 +0100,
cube_r.png,0.1,-0.31,invalid,14,14,0,up,0.14336619999994582,None,space,0.4334617000004073,None,,,,,,,,,0,14,14,14,813.6836000000003,,,,,,,,,,,,,813.6673663000001,813.6836000000003,813.6836000000003,813.6836000000003,813.8341829999999,,,,813.8403661000002,813.8519310000001,813.8519310000001,813.9003153000003,813.9005537000003,813.9164193000006,813.9164193000006,813.9164193000006,813.9832429000007,814.3507851000004,,,,,,,,,,,,,,,,,,,,,,up,0.14336619999994582,None,space,0.4334617000004073,None,P138,001,2025-04-08_08h54.17.362,posner_endo_new1,2024.2.4,59.97979880355758,2025-04-08 08h54.22.793003 +0100,
cube_l.png,0.1,-0.31,valid,15,15,0,up,7.357119999999668,None,space,0.5586814999996932,None,,,,,,,,,0,15,15,15,814.3658631000008,,,,,,,,,,,,,814.3509699000006,814.3658631000008,814.3658631000008,814.3658631000008,821.7261246000007,,,,821.7325438000007,821.7440346000003,821.7440346000003,821.7918878999999,821.7921226000008,821.8087436000005,821.8087436000005,821.8087436000005,821.8752910000003,822.3759030000001,,,,,,,,,,,,,,,,,,,,,,up,7.357119999999668,None,space,0.5586814999996932,None,P138,001,2025-04-08_08h54.17.362,posner_endo_new1,2024.2.4,59.97979880355758,2025-04-08 08h54.22.793003 +0100,
cube_r.png,0.1,10,catch,16,16,0,up,4.0282389000003604,None,None,,,,,,,,,,,0,16,16,16,822.3914953000003,,,,,,,,,,,,,822.3760882000006,822.3914953000003,822.3914953000003,822.3914953000003,826.4215453000006,,,,826.4279726000004,826.4396851000001,826.4396851000001,826.4873020000005,826.4875396000007,826.5037563000005,826.5037563000005,826.5037563000005,826.5869908000004,829.5011963000006,,,,828.6017267000007,829.5174044000005,829.5174044000005,829.5174044000005,,,,,,,,,,,,,,,up,4.0282389000003604,None,None,,,P138,001,2025-04-08_08h54.17.362,posner_endo_new1,2024.2.4,59.97979880355758,2025-04-08 08h54.22.793003 +0100,
cube_r.png,0.1,10,catch,17,17,0,up,1.5186174999998912,None,None,,,,,,,,,,,0,17,17,17,829.5174044000005,,,,,,,,,,,,,829.50137,829.5174044000005,829.5174044000005,829.5174044000005,831.0499016000003,,,,831.0561385999999,831.0675266000007,831.0675266000007,831.1158393000005,831.1160742000002,831.1323364,831.1323364,831.1323364,831.2157428999999,834.1299240000008,,,,833.2302466000001,834.1460505000005,834.1460505000005,834.1460505000005,,,,,,,,,,,,,,,up,1.5186174999998912,None,None,,,P138,001,2025-04-08_08h54.17.362,posner_endo_new1,2024.2.4,59.97979880355758,2025-04-08 08h54.22.793003 +0100,
cube_l.png,0.1,0.31,invalid,18,18,0,up,0.5935865999999805,None,space,0.5077397000004567,None,,,,,,,,,0,18,18,18,834.1460505000005,,,,,,,,,,,,,834.1300959,834.1460505000005,834.1460505000005,834.1460505000005,834.7462562999999,,,,834.7523506000007,834.7639462000006,834.7639462000006,834.8120902000001,834.8123294000006,834.8285888,834.8285888,834.8285888,834.9117501000001,835.3454677,,,,,,,,,,,,,,,,,,,,,,up,0.5935865999999805,None,space,0.5077397000004567,None,P138,001,2025-04-08_08h54.17.362,posner_endo_new1,2024.2.4,59.97979880355758,2025-04-08 08h54.22.793003 +0100,
cube_l.png,0.1,10,catch,19,19,0,up,8.082444200000282,None,None,,,,,,,,,,,0,19,19,19,835.3614002000004,,,,,,,,,,,,,835.3456544999999,835.3614002000004,835.3614002000004,835.3614002000004,843.4539249,,,,843.4601027000008,843.4716961000004,843.4716961000004,843.5197545999999,843.5199900000007,843.5364018,843.5364018,843.5364018,843.6195491000008,846.5338959000001,,,,845.6342629000001,846.5499496000002,846.5499496000002,846.5499496000002,,,,,,,,,,,,,,,up,8.082444200000282,None,None,,,P138,001,2025-04-08_08h54.17.362,posner_endo_new1,2024.2.4,59.97979880355758,2025-04-08 08h54.22.793003 +0100,
cube_l.png,0.1,0.31,invalid,20,20,0,up,1.3499735000004875,None,space,0.44796580000001995,None,,,,,,,,,0,20,20,20,846.5499496000002,,,,,,,,,,,,,846.5340670000005,846.5499496000002,846.5499496000002,846.5499496000002,847.9162221000006,,,,847.9223794,847.9339174000006,847.9339174000006,847.9819347000002,847.9821704000005,847.9984130000003,847.9984130000003,847.9984130000003,848.0816669000005,848.4490450000003,,,,,,,,,,,,,,,,,,,,,,up,1.3499735000004875,None,space,0.44796580000001995,None,P138,001,2025-04-08_08h54.17.362,posner_endo_new1,2024.2.4,59.97979880355758,2025-04-08 08h54.22.793003 +0100,
cube_l.png,0.1,-0.31,valid,21,21,0,up,4.0346765999993295,None,space,1.1471673999994891,None,,,,,,,,,0,21,21,21,848.4643432000003,,,,,,,,,,,,,848.4492291000006,848.4643432000003,848.4643432000003,848.4643432000003,852.5111274999999,,,,852.5175978000007,852.5295661,852.5295661,852.5773182000003,852.5775537,852.5938990000004,852.5938990000004,852.5938990000004,852.6604283000006,853.7435484000007,,,,,,,,,,,,,,,,,,,,,,up,4.0346765999993295,None,space,1.1471673999994891,None,P138,001,2025-04-08_08h54.17.362,posner_endo_new1,2024.2.4,59.97979880355758,2025-04-08 08h54.22.793003 +0100,
cube_r.png,0.1,0.31,valid,22,22,0,up,5.3484865000000354,None,space,0.4704469999996945,None,,,,,,,,,0,22,22,22,853.7591431000001,,,,,,,,,,,,,853.7437325000001,853.7591431000001,853.7591431000001,853.7591431000001,859.1210858000004,,,,859.1274175000008,859.1388929000004,859.1388929000004,859.1871282000002,859.1873658000004,859.2036023999999,859.2036023999999,859.2036023999999,859.2701404,859.6869054000008,,,,,,,,,,,,,,,,,,,,,,up,5.3484865000000354,None,space,0.4704469999996945,None,P138,001,2025-04-08_08h54.17.362,posner_endo_new1,2024.2.4,59.97979880355758,2025-04-08 08h54.22.793003 +0100,
cube_r.png,0.1,-0.31,invalid,23,23,0,up,12.524855699999534,None,space,0.5061800000003132,None,,,,,,,,,0,23,23,23,859.7031512000003,,,,,,,,,,,,,859.6870885000008,859.7031512000003,859.7031512000003,859.7031512000003,872.2429697000007,,,,872.2662406,872.2788515000002,872.2788515000002,872.3068942,872.3072505,872.3234640999999,872.3234640999999,872.3234640999999,872.4066963000005,872.8409025000001,,,,,,,,,,,,,,,,,,,,,,up,12.524855699999534,None,space,0.5061800000003132,None,P138,001,2025-04-08_08h54.17.362,posner_endo_new1,2024.2.4,59.97979880355758,2025-04-08 08h54.22.793003 +0100,
cube_r.png,0.1,0.31,valid,24,24,0,up,5.347762300000795,None,space,0.5008244999999079,None,,,,,,,,,0,24,24,24,872.8562148999999,,,,,,,,,,,,,872.8412017999999,872.8562148999999,872.8562148999999,872.8562148999999,878.2185641000005,,,,878.2303126000006,878.2405019000007,878.2405019000007,878.2841760000001,878.2845350000007,878.3006207000008,878.3006207000008,878.3006207000008,878.3839604000004,878.8180101000007,,,,,,,,,,,,,,,,,,,,,,up,5.347762300000795,None,space,0.5008244999999079,None,P138,001,2025-04-08_08h54.17.362,posner_endo_new1,2024.2.4,59.97979880355758,2025-04-08 08h54.22.793003 +0100,
cube_r.png,0.1,-0.31,invalid,25,25,0,up,5.91392790000009,None,space,0.45705200000065815,None,,,,,,,,,0,25,25,25,878.8333955000007,,,,,,,,,,,,,878.8183151000003,878.8333955000007,878.8333955000007,878.8333955000007,884.7619259000003,,,,884.773569,884.7838190000002,884.7838190000002,884.8273261000004,884.8276823000006,884.8439009000003,884.8439009000003,884.8439009000003,884.9271542000006,885.3113681000004,,,,,,,,,,,,,,,,,,,,,,up,5.91392790000009,None,space,0.45705200000065815,None,P138,001,2025-04-08_08h54.17.362,posner_endo_new1,2024.2.4,59.97979880355758,2025-04-08 08h54.22.793003 +0100,
cube_l.png,0.1,-0.31,valid,26,26,0,up,7.53243829999974,None,space,0.6883167000005415,None,,,,,,,,,0,26,26,26,885.3266917000001,,,,,,,,,,,,,885.3116706999999,885.3266917000001,885.3266917000001,885.3266917000001,892.8702902000005,,,,892.8820920000007,892.8924774000006,892.8924774000006,892.9357442,892.9361085999999,892.9523451000005,892.9523451000005,892.9523451000005,893.0357032000002,893.6528623000004,,,,,,,,,,,,,,,,,,,,,,up,7.53243829999974,None,space,0.6883167000005415,None,P138,001,2025-04-08_08h54.17.362,posner_endo_new1,2024.2.4,59.97979880355758,2025-04-08 08h54.22.793003 +0100,
cube_r.png,0.1,0.31,valid,27,27,0,up,4.702839900000072,None,space,0.36150830000042333,None,,,,,,,,,0,27,27,27,893.6683332000002,,,,,,,,,,,,,893.6531668000007,893.6683332000002,893.6683332000002,893.6683332000002,898.3812803000001,,,,898.3932139000008,898.4034943000006,898.4034943000006,898.4464789000003,898.4467389000001,898.4636175000005,898.4636175000005,898.4636175000005,898.5466286999999,898.8302419000001,,,,,,,,,,,,,,,,,,,,,,up,4.702839900000072,None,space,0.36150830000042333,None,P138,001,2025-04-08_08h54.17.362,posner_endo_new1,2024.2.4,59.97979880355758,2025-04-08 08h54.22.793003 +0100,
cube_r.png,0.1,10,catch,28,28,0,up,3.469457799999873,None,None,,,,,,,,,,,0,28,28,28,898.8464335000008,,,,,,,,,,,,,898.8304492000007,898.8464335000008,898.8464335000008,898.8464335000008,902.3271212,,,,902.3346187000006,902.3455868000001,902.3455868000001,902.3927437000002,902.3930016000004,902.4092653000007,902.4092653000007,902.4092653000007,902.4925785000005,905.4070509000003,,,,904.5071172000007,905.4226650999999,905.4226650999999,905.4226650999999,,,,,,,,,,,,,,,up,3.469457799999873,None,None,,,P138,001,2025-04-08_08h54.17.362,posner_endo_new1,2024.2.4,59.97979880355758,2025-04-08 08h54.22.793003 +0100,
cube_r.png,0.1,0.31,valid,29,29,0,up,1.1888171000000511,None,space,0.4734049999997296,None,,,,,,,,,0,29,29,29,905.4226650999999,,,,,,,,,,,,,905.4072500000002,905.4226650999999,905.4226650999999,905.4226650999999,906.6225979000001,,,,906.6301987000006,906.6412765000005,906.6412765000005,906.688494,906.6887673000001,906.7045897000007,906.7045897000007,906.7045897000007,906.7882968000004,907.1886926000006,,,,,,,,,,,,,,,,,,,,,,up,1.1888171000000511,None,space,0.4734049999997296,None,P138,001,2025-04-08_08h54.17.362,posner_endo_new1,2024.2.4,59.97979880355758,2025-04-08 08h54.22.793003 +0100,
cube_r.png,0.1,0.31,valid,30,30,0,up,4.822974300000169,None,space,0.4547599999996237,None,,,,,,,,,0,30,30,30,907.2043739999999,,,,,,,,,,,,,907.1889023000003,907.2043739999999,907.2043739999999,907.2043739999999,912.0357935000002,,,,912.0588525000003,912.0692542000006,912.0692542000006,912.0994945000002,912.0998370000007,912.1160231000003,912.1160231000003,912.1160231000003,912.1992348000003,912.5834984000003,,,,,,,,,,,,,,,,,,,,,,up,4.822974300000169,None,space,0.4547599999996237,None,P138,001,2025-04-08_08h54.17.362,posner_endo_new1,2024.2.4,59.97979880355758,2025-04-08 08h54.22.793003 +0100,
cube_l.png,0.1,-0.31,valid,31,31,0,up,3.988768799999889,None,space,0.36641319999944244,None,,,,,,,,,0,31,31,31,912.5989214000001,,,,,,,,,,,,,912.5837936000007,912.5989214000001,912.5989214000001,912.5989214000001,916.5960647000002,,,,916.6071432000008,916.6173337,916.6173337,916.6615228000001,916.6618742999999,916.6780149000006,916.6780149000006,916.6780149000006,916.7612822000001,917.0459525000006,,,,,,,,,,,,,,,,,,,,,,up,3.988768799999889,None,space,0.36641319999944244,None,P138,001,2025-04-08_08h54.17.362,posner_endo_new1,2024.2.4,59.97979880355758,2025-04-08 08h54.22.793003 +0100,
cube_r.png,0.1,0.31,valid,32,32,0,up,4.566720699999678,None,space,0.4295268000005308,None,,,,,,,,,0,32,32,32,917.0609164000007,,,,,,,,,,,,,917.0462733000004,917.0609164000007,917.0609164000007,917.0609164000007,921.6407647000005,,,,921.6517853000005,921.6622348000001,921.6622348000001,921.7063651000008,921.7067105000006,921.7228989000005,921.7228989000005,921.7228989000005,921.8060346000002,922.1570241,,,,,,,,,,,,,,,,,,,,,,up,4.566720699999678,None,space,0.4295268000005308,None,P138,001,2025-04-08_08h54.17.362,posner_endo_new1,2024.2.4,59.97979880355758,2025-04-08 08h54.22.793003 +0100,
cube_r.png,0.1,-0.31,invalid,33,33,0,up,7.50333910000063,None,space,0.42814739999994345,None,,,,,,,,,0,33,33,33,922.1723553000002,,,,,,,,,,,,,922.1573181000003,922.1723553000002,922.1723553000002,922.1723553000002,929.6826377000007,,,,929.6939342000005,929.7042484000003,929.7042484000003,929.7481899000004,929.7485296000004,929.7645400000001,929.7645400000001,929.7645400000001,929.8478787000004,930.1988385000004,,,,,,,,,,,,,,,,,,,,,,up,7.50333910000063,None,space,0.42814739999994345,None,P138,001,2025-04-08_08h54.17.362,posner_endo_new1,2024.2.4,59.97979880355758,2025-04-08 08h54.22.793003 +0100,
cube_r.png,0.1,10,catch,34,34,0,up,8.26168400000006,None,None,,,,,,,,,,,0,34,34,34,930.2141007,,,,,,,,,,,,,930.1991217000004,930.2141007,930.2141007,930.2141007,938.4902227000002,,,,938.5015956000007,938.5116932999999,938.5116932999999,938.5557643000002,938.5561051000004,938.5722159000006,938.5722159000006,938.5722159000006,938.6555666000004,941.5699519,,,,940.6700258000001,941.5858109000001,941.5858109000001,941.5858109000001,,,,,,,,,,,,,,,up,8.26168400000006,None,None,,,P138,001,2025-04-08_08h54.17.362,posner_endo_new1,2024.2.4,59.97979880355758,2025-04-08 08h54.22.793003 +0100,
cube_r.png,0.1,0.31,valid,35,35,0,up,1.5138947999994343,None,space,0.5322089000001142,None,,,,,,,,,0,35,35,35,941.5858109000001,,,,,,,,,,,,,941.5702192000008,941.5858109000001,941.5858109000001,941.5858109000001,943.1022910000002,,,,943.1124171000001,943.1220196000004,943.1220196000004,943.1677564000001,943.1680186000003,943.1842460000007,943.1842460000007,943.1842460000007,943.2674922000006,943.7181592000006,,,,,,,,,,,,,,,,,,,,,,up,1.5138947999994343,None,space,0.5322089000001142,None,P138,001,2025-04-08_08h54.17.362,posner_endo_new1,2024.2.4,59.97979880355758,2025-04-08 08h54.22.793003 +0100,
cube_r.png,0.1,-0.31,invalid,36,36,0,up,6.694682600000306,None,space,0.5476524999994581,None,,,,,,,,,0,36,36,36,943.7338211000006,,,,,,,,,,,,,943.718355,943.7338211000006,943.7338211000006,943.7338211000006,950.4443758000007,,,,950.4513555000003,950.4634153000006,950.4634153000006,950.5100208000003,950.5102709000003,950.5266139000005,950.5266139000005,950.5266139000005,950.6098503000003,951.0770438,,,,,,,,,,,,,,,,,,,,,,up,6.694682600000306,None,space,0.5476524999994581,None,P138,001,2025-04-08_08h54.17.362,posner_endo_new1,2024.2.4,59.97979880355758,2025-04-08 08h54.22.793003 +0100,
cube_l.png,0.1,0.31,invalid,37,37,0,up,2.854728999999679,None,space,0.48437919999923906,None,,,,,,,,,0,37,37,37,951.0928149000001,,,,,,,,,,,,,951.0772377000003,951.0928149000001,951.0928149000001,951.0928149000001,953.9573793,,,,953.9642268000007,953.9758388,953.9758388,954.0232260000002,954.0234622000007,954.0398867000004,954.0398867000004,954.0398867000004,954.1230826999999,954.5400991000006,,,,,,,,,,,,,,,,,,,,,,up,2.854728999999679,None,space,0.48437919999923906,None,P138,001,2025-04-08_08h54.17.362,posner_endo_new1,2024.2.4,59.97979880355758,2025-04-08 08h54.22.793003 +0100,
cube_l.png,0.1,0.31,invalid,38,38,0,up,4.7834490000004735,None,space,0.4287721999999121,None,,,,,,,,,0,38,38,38,954.5559555,,,,,,,,,,,,,954.5402837000001,954.5559555,954.5559555,954.5559555,959.3516597000007,,,,959.3579106000007,959.3697216,959.3697216,959.4174137,959.4176528000007,959.4343265000007,959.4343265000007,959.4343265000007,959.5007679,959.8680585000002,,,,,,,,,,,,,,,,,,,,,,up,4.7834490000004735,None,space,0.4287721999999121,None,P138,001,2025-04-08_08h54.17.362,posner_endo_new1,2024.2.4,59.97979880355758,2025-04-08 08h54.22.793003 +0100,
cube_r.png,0.1,0.31,valid,39,39,0,up,4.9917905000002065,None,space,0.36786120000033407,None,,,,,,,,,0,39,39,39,959.8837569000007,,,,,,,,,,,,,959.8682425000006,959.8837569000007,959.8837569000007,959.8837569000007,964.8797432000001,,,,964.8859520000005,964.8974767,964.8974767,964.9455641000004,964.9458016000008,964.9619751,964.9619751,964.9619751,965.0454258,965.3457961000004,,,,,,,,,,,,,,,,,,,,,,up,4.9917905000002065,None,space,0.36786120000033407,None,P138,001,2025-04-08_08h54.17.362,posner_endo_new1,2024.2.4,59.97979880355758,2025-04-08 08h54.22.793003 +0100,
cube_l.png,0.1,0.31,invalid,40,40,0,up,4.481676999999763,None,space,0.4568248000005042,None,,,,,,,,,0,40,40,40,965.3615734000005,,,,,,,,,,,,,965.3459813,965.3615734000005,965.3615734000005,965.3615734000005,969.8576312000005,,,,969.8639684,969.8753777000002,969.8753777000002,969.9232123000002,969.9234484000008,969.9401663000008,969.9401663000008,969.9401663000008,970.0068804000002,970.4071682000003,,,,,,,,,,,,,,,,,,,,,,up,4.481676999999763,None,space,0.4568248000005042,None,P138,001,2025-04-08_08h54.17.362,posner_endo_new1,2024.2.4,59.97979880355758,2025-04-08 08h54.22.793003 +0100,
cube_l.png,0.1,10,catch,41,41,0,up,3.948145100000147,None,None,,,,,,,,,,,0,41,41,41,970.4231269000002,,,,,,,,,,,,,970.4073512000004,970.4231269000002,970.4231269000002,970.4231269000002,974.3864584000003,,,,974.3926575000005,974.4042264,974.4042264,974.4523099000007,974.4525586,974.4688487000003,974.4688487000003,974.4688487000003,974.5520643,977.4663449,,,,976.5667274000007,977.4824788000005,977.4824788000005,977.4824788000005,,,,,,,,,,,,,,,up,3.948145100000147,None,None,,,P138,001,2025-04-08_08h54.17.362,posner_endo_new1,2024.2.4,59.97979880355758,2025-04-08 08h54.22.793003 +0100,
cube_l.png,0.1,-0.31,valid,42,42,0,up,1.50467800000024,None,space,0.45351299999947514,None,,,,,,,,,0,42,42,42,977.4824788000005,,,,,,,,,,,,,977.4665215000005,977.4824788000005,977.4824788000005,977.4824788000005,978.9979375000003,,,,979.0041446000005,979.0156031000006,979.0156031000006,979.0643086,979.0645439,979.0806651000003,979.0806651000003,979.0806651000003,979.1476204999999,979.5476918000004,,,,,,,,,,,,,,,,,,,,,,up,1.50467800000024,None,space,0.45351299999947514,None,P138,001,2025-04-08_08h54.17.362,posner_endo_new1,2024.2.4,59.97979880355758,2025-04-08 08h54.22.793003 +0100,
cube_l.png,0.1,10,catch,43,43,0,up,6.855336499999794,None,None,,,,,,,,,,,0,43,43,43,979.5637457000003,,,,,,,,,,,,,979.5478729000006,979.5637457000003,979.5637457000003,979.5637457000003,986.4242505000002,,,,986.4307581000003,986.4425898,986.4425898,986.4900983000007,986.4903375000004,986.5065232000006,986.5065232000006,986.5065232000006,986.5898107000003,989.5040518000005,,,,988.6044188000005,989.5202179000007,989.5202179000007,989.5202179000007,,,,,,,,,,,,,,,up,6.855336499999794,None,None,,,P138,001,2025-04-08_08h54.17.362,posner_endo_new1,2024.2.4,59.97979880355758,2025-04-08 08h54.22.793003 +0100,
cube_l.png,0.1,0.31,invalid,44,44,0,up,17.9468281999998,None,space,0.41127310000047146,None,,,,,,,,,0,44,44,44,989.5202179000007,,,,,,,,,,,,,989.5042243000007,989.5202179000007,989.5202179000007,989.5202179000007,1007.4714211,,,,1007.4929400999999,1007.5032764000007,1007.5032764000007,1007.5349382000004,1007.5353527000007,1007.5513150000006,1007.5513150000006,1007.5513150000006,1007.6345189000003,1007.9690694000001,,,,,,,,,,,,,,,,,,,,,,up,17.9468281999998,None,space,0.41127310000047146,None,P138,001,2025-04-08_08h54.17.362,posner_endo_new1,2024.2.4,59.97979880355758,2025-04-08 08h54.22.793003 +0100,
cube_l.png,0.1,0.31,invalid,45,45,0,up,1.7788855999997395,None,space,0.5299085000006016,None,,,,,,,,,0,45,45,45,1007.9841516000006,,,,,,,,,,,,,1007.9694101000005,1007.9841516000006,1007.9841516000006,1007.9841516000006,1009.7671223000007,,,,1009.7798424000002,1009.7900276,1009.7900276,1009.8324544000006,1009.8328576000004,1009.8489229000006,1009.8489229000006,1009.8489229000006,1009.9321648000005,1010.3832871000004,,,,,,,,,,,,,,,,,,,,,,up,1.7788855999997395,None,space,0.5299085000006016,None,P138,001,2025-04-08_08h54.17.362,posner_endo_new1,2024.2.4,59.97979880355758,2025-04-08 08h54.22.793003 +0100,
cube_r.png,0.1,0.31,valid,46,46,0,up,0.9409703999999692,None,space,0.437431899999865,None,,,,,,,,,0,46,46,46,1010.3983651000008,,,,,,,,,,,,,1010.3836253,1010.3983651000008,1010.3983651000008,1010.3983651000008,1011.3487952000005,,,,1011.3615863000005,1011.3717829000007,1011.3717829000007,1011.4141560000007,1011.4145615000007,1011.4306391,1011.4306391,1011.4306391,1011.5138790999999,1011.8815896000006,,,,,,,,,,,,,,,,,,,,,,up,0.9409703999999692,None,space,0.437431899999865,None,P138,001,2025-04-08_08h54.17.362,posner_endo_new1,2024.2.4,59.97979880355758,2025-04-08 08h54.22.793003 +0100,
cube_l.png,0.1,-0.31,valid,47,47,0,up,3.162897900000644,None,space,0.4166341000000102,None,,,,,,,,,0,47,47,47,1011.8968186000002,,,,,,,,,,,,,1011.8819304000008,1011.8968186000002,1011.8968186000002,1011.8968186000002,1015.0615190000008,,,,1015.0695556000001,1015.0802416000006,1015.0802416000006,1015.1274460000004,1015.1277248000006,1015.1439845000004,1015.1439845000004,1015.1439845000004,1015.2270507000003,1015.5775199,,,,,,,,,,,,,,,,,,,,,,up,3.162897900000644,None,space,0.4166341000000102,None,P138,001,2025-04-08_08h54.17.362,posner_endo_new1,2024.2.4,59.97979880355758,2025-04-08 08h54.22.793003 +0100,
cube_r.png,0.1,-0.31,invalid,48,48,0,up,13.089690699999665,None,space,0.5026373000000603,None,,,,,,,,,0,48,48,48,1015.5936270000002,,,,,,,,,,,,,1015.5777539999999,1015.5936270000002,1015.5936270000002,1015.5936270000002,1028.6975668000005,,,,1028.7056587000006,1028.7162020000005,1028.7162020000005,1028.7633595000007,1028.7636353000007,1028.7799503000006,1028.7799503000006,1028.7799503000006,1028.8631433,1029.2970694000005,,,,,,,,,,,,,,,,,,,,,,up,13.089690699999665,None,space,0.5026373000000603,None,P138,001,2025-04-08_08h54.17.362,posner_endo_new1,2024.2.4,59.97979880355758,2025-04-08 08h54.22.793003 +0100,
cube_r.png,0.1,10,catch,49,49,0,up,3.1868116000005102,None,None,,,,,,,,,,,0,49,49,49,1029.3126763,,,,,,,,,,,,,1029.2972889000002,1029.3126763,1029.3126763,1029.3126763,1032.5103228000007,,,,1032.5183016,1032.5287771000003,1032.5287771000003,1032.5762405000005,1032.5765204,1032.5923947,1032.5923947,1032.5923947,1032.6759345,1035.5901028000007,,,,1034.6906040000003,1035.6063617,1035.6063617,1035.6063617,,,,,,,,,,,,,,,up,3.1868116000005102,None,None,,,P138,001,2025-04-08_08h54.17.362,posner_endo_new1,2024.2.4,59.97979880355758,2025-04-08 08h54.22.793003 +0100,
cube_l.png,0.1,-0.31,valid,50,50,0,up,0.749172499999986,None,space,0.44592850000026374,None,,,,,,,,,0,50,50,50,1035.6063617,,,,,,,,,,,,,1035.5903069000005,1035.6063617,1035.6063617,1035.6063617,1036.3564800000004,,,,1036.36452,1036.3751296,1036.3751296,1036.4221495000002,1036.4224217,1036.4386536000002,1036.4386536000002,1036.4386536000002,1036.5219221000007,1036.8892054000007,,,,,,,,,,,,,,,,,,,,,,up,0.749172499999986,None,space,0.44592850000026374,None,P138,001,2025-04-08_08h54.17.362,posner_endo_new1,2024.2.4,59.97979880355758,2025-04-08 08h54.22.793003 +0100,
cube_l.png,0.1,-0.31,valid,51,51,0,up,3.8022541000000274,None,space,0.4290092999999615,None,,,,,,,,,0,51,51,51,1036.9048308000001,,,,,,,,,,,,,1036.8894272000007,1036.9048308000001,1036.9048308000001,1036.9048308000001,1040.7186456,,,,1040.7266336000002,1040.7371228000002,1040.7371228000002,1040.7843360000006,1040.7846117,1040.8008765000004,1040.8008765000004,1040.8008765000004,1040.8842732000003,1041.2348481,,,,,,,,,,,,,,,,,,,,,,up,3.8022541000000274,None,space,0.4290092999999615,None,P138,001,2025-04-08_08h54.17.362,posner_endo_new1,2024.2.4,59.97979880355758,2025-04-08 08h54.22.793003 +0100,
cube_r.png,0.1,-0.31,invalid,52,52,0,up,2.8642196000000695,None,space,0.5166404999999941,None,,,,,,,,,0,52,52,52,1041.2504291000005,,,,,,,,,,,,,1041.2350848000005,1041.2504291000005,1041.2504291000005,1041.2504291000005,1044.1316582,,,,1044.1396408,1044.1503364,1044.1503364,1044.1976641,1044.1979461,1044.2138907000008,1044.2138907000008,1044.2138907000008,1044.2973267000007,1044.7314786000006,,,,,,,,,,,,,,,,,,,,,,up,2.8642196000000695,None,space,0.5166404999999941,None,P138,001,2025-04-08_08h54.17.362,posner_endo_new1,2024.2.4,59.97979880355758,2025-04-08 08h54.22.793003 +0100,
cube_l.png,0.1,-0.31,valid,53,53,0,up,2.8418274000005113,None,space,0.4823276999995869,None,,,,,,,,,0,53,53,53,1044.7467601000008,,,,,,,,,,,,,1044.7317071000007,1044.7467601000008,1044.7467601000008,1044.7467601000008,1047.594806,,,,1047.6028506000002,1047.6135574,1047.6135574,1047.660672,1047.6609462000006,1047.6772215,1047.6772215,1047.6772215,1047.7437655000003,1048.1612562,,,,,,,,,,,,,,,,,,,,,,up,2.8418274000005113,None,space,0.4823276999995869,None,P138,001,2025-04-08_08h54.17.362,posner_endo_new1,2024.2.4,59.97979880355758,2025-04-08 08h54.22.793003 +0100,
cube_r.png,0.1,10,catch,54,54,0,up,4.898517499999798,None,None,,,,,,,,,,,0,54,54,54,1048.1765959000004,,,,,,,,,,,,,1048.1614789000005,1048.1765959000004,1048.1765959000004,1048.1765959000004,1053.0892838,,,,1053.0972855,1053.1078847000008,1053.1078847000008,1053.1549770000001,1053.1552516000002,1053.1715320000003,1053.1715320000003,1053.1715320000003,1053.2548153000007,1056.1690083000003,,,,1055.2694141000002,1056.1851013000005,1056.1851013000005,1056.1851013000005,,,,,,,,,,,,,,,up,4.898517499999798,None,None,,,P138,001,2025-04-08_08h54.17.362,posner_endo_new1,2024.2.4,59.97979880355758,2025-04-08 08h54.22.793003 +0100,
cube_l.png,0.1,0.31,invalid,55,55,0,up,1.6985193999998955,None,space,0.5498555999993187,None,,,,,,,,,0,55,55,55,1056.1851013000005,,,,,,,,,,,,,1056.1692178000003,1056.1851013000005,1056.1851013000005,1056.1851013000005,1057.8845503000002,,,,1057.8926993000005,1057.9030531000008,1057.9030531000008,1057.9501412,1057.9504161000004,1057.9665715,1057.9665715,1057.9665715,1058.0499330000002,1058.5173593,,,,,,,,,,,,,,,,,,,,,,up,1.6985193999998955,None,space,0.5498555999993187,None,P138,001,2025-04-08_08h54.17.362,posner_endo_new1,2024.2.4,59.97979880355758,2025-04-08 08h54.22.793003 +0100,
cube_l.png,0.1,-0.31,valid,56,56,0,up,4.902155299999322,None,space,0.566893600000185,None,,,,,,,,,0,56,56,56,1058.5328053000003,,,,,,,,,,,,,1058.5175868000006,1058.5328053000003,1058.5328053000003,1058.5328053000003,1063.4453089000008,,,,1063.4533137000008,1063.4637872000003,1063.4637872000003,1063.5110751000002,1063.5113462,1063.5278344000008,1063.5278344000008,1063.5278344000008,1063.6108598,1064.1113274,,,,,,,,,,,,,,,,,,,,,,up,4.902155299999322,None,space,0.566893600000185,None,P138,001,2025-04-08_08h54.17.362,posner_endo_new1,2024.2.4,59.97979880355758,2025-04-08 08h54.22.793003 +0100,
cube_r.png,0.1,0.31,valid,57,57,0,up,4.923845500000425,None,space,0.4401753000001918,None,,,,,,,,,0,57,57,57,1064.1270421,,,,,,,,,,,,,1064.1115469000006,1064.1270421,1064.1270421,1064.1270421,1069.0563062,,,,1069.0643427000005,1069.0748436000003,1069.0748436000003,1069.1219583000002,1069.1222326000006,1069.1385653000007,1069.1385653000007,1069.1385653000007,1069.2217214000002,1069.5890197000008,,,,,,,,,,,,,,,,,,,,,,up,4.923845500000425,None,space,0.4401753000001918,None,P138,001,2025-04-08_08h54.17.362,posner_endo_new1,2024.2.4,59.97979880355758,2025-04-08 08h54.22.793003 +0100,
cube_r.png,0.1,-0.31,invalid,58,58,0,up,11.390629200000149,None,space,0.4320119000003615,None,,,,,,,,,0,58,58,58,1069.6049158000005,,,,,,,,,,,,,1069.5892385000006,1069.6049158000005,1069.6049158000005,1069.6049158000005,1081.0107629000004,,,,1081.0188245,1081.0296677000006,1081.0296677000006,1081.0764692000002,1081.0767578000005,1081.0929498000005,1081.0929498000005,1081.0929498000005,1081.1762142000007,1081.5269775000006,,,,,,,,,,,,,,,,,,,,,,up,11.390629200000149,None,space,0.4320119000003615,None,P138,001,2025-04-08_08h54.17.362,posner_endo_new1,2024.2.4,59.97979880355758,2025-04-08 08h54.22.793003 +0100,
cube_l.png,0.1,0.31,invalid,59,59,0,up,3.7326138999997056,None,space,0.43373739999969985,None,,,,,,,,,0,59,59,59,1081.5425130000003,,,,,,,,,,,,,1081.5272110000005,1081.5425130000003,1081.5425130000003,1081.5425130000003,1085.2897418000002,,,,1085.2976734000003,1085.3082136000003,1085.3082136000003,1085.3553215000002,1085.3555936000002,1085.3719612000004,1085.3719612000004,1085.3719612000004,1085.4551147000002,1085.8225177000004,,,,,,,,,,,,,,,,,,,,,,up,3.7326138999997056,None,space,0.43373739999969985,None,P138,001,2025-04-08_08h54.17.362,posner_endo_new1,2024.2.4,59.97979880355758,2025-04-08 08h54.22.793003 +0100,
