cue_img,cue_soa,target_x,trial,thisN,thisTrialN,thisRepN,key_control2.keys,key_control2.rt,key_control2.duration,key_resp.keys,key_resp.rt,key_resp.duration,practice.thisRepN,practice.thisTrialN,practice.thisN,practice.thisIndex,block1.thisRepN,block1.thisTrialN,block1.thisN,block1.thisIndex,block2.thisRepN,block2.thisTrialN,block2.thisN,block2.thisIndex,thisRow.t,notes,instructions.started,instructions_txt.started,key_control.started,instructions.stopped,key_control.keys,key_control.rt,key_control.duration,ready.started,ready_txt.started,ready_txt.stopped,ready.stopped,fix.started,fixation.started,key_control2.started,fixation_cross.started,fix.stopped,practice.key_control2.keys,practice.key_control2.rt,practice.key_control2.duration,cue.started,cube.started,fixation_cross_cue.started,cue.stopped,target.started,fixation_target.started,fixation_cross_target.started,key_resp.started,star.started,target.stopped,practice.key_resp.keys,practice.key_resp.rt,practice.key_resp.duration,star.stopped,fixation_target.stopped,fixation_cross_target.stopped,key_resp.stopped,block1.key_control2.keys,block1.key_control2.rt,block1.key_control2.duration,block1.key_resp.keys,block1.key_resp.rt,block1.key_resp.duration,break_2.started,text.started,key_control3.started,text.stopped,break_2.stopped,key_control3.keys,key_control3.rt,key_control3.duration,block2.key_control2.keys,block2.key_control2.rt,block2.key_control2.duration,block2.key_resp.keys,block2.key_resp.rt,block2.key_resp.duration,participant,session,date,expName,psychopyVersion,frameRate,expStart,
,,,,,,,,,,,,,,,,,,,,,,,,,,,0.0074409999997442355,0.023537299999588868,0.023537299999588868,1932.4978714000008,up,1932.4689288999998,None,,,,,,,,,,,,,,,,,,,,,,,,,,,,,,,,,,,,,,,,,,,,,,,,,,P139,001,2025-04-08_09h30.33.380,posner_endo_new1,2024.2.4,60.07254360378146,2025-04-08 09h30.39.954903 +0100,
,,,,,,,,,,,,,,,,,,,,,,,,,,,,,,,,,,1932.4979249000007,1932.5105628000001,1935.5106059000009,1935.4911706999992,,,,,,,,,,,,,,,,,,,,,,,,,,,,,,,,,,,,,,,,,,,,,,P139,001,2025-04-08_09h30.33.380,posner_endo_new1,2024.2.4,60.07254360378146,2025-04-08 09h30.39.954903 +0100,
cube_l.png,0.1,-0.31,valid,0,0,0,up,59.32585420000032,None,space,0.49568730000100913,None,0,0,0,4,,,,,,,,,1935.5106059000009,,,,,,,,,,,,,1935.4986406999997,1935.5106059000009,1935.5106059000009,1935.5106059000009,1994.8477586999998,up,59.32585420000032,None,1994.8715472999993,1994.8833011000006,1994.8833011000006,1994.9128744999998,1994.9131321999994,1994.9294408999995,1994.9294408999995,1994.9294408999995,1995.0132646000002,1995.4303579999996,space,0.49568730000100913,None,,,,,,,,,,,,,,,,,,,,,,,,,P139,001,2025-04-08_09h30.33.380,posner_endo_new1,2024.2.4,60.07254360378146,2025-04-08 09h30.39.954903 +0100,
cube_r.png,0.1,-0.31,invalid,1,1,0,up,4.815179900000658,None,space,0.574082900000576,None,0,1,1,2,,,,,,,,,1995.4460932000002,,,,,,,,,,,,,1995.4305416999996,1995.4460932000002,1995.4460932000002,1995.4460932000002,2000.2754492000004,up,4.815179900000658,None,2000.2813234999994,2000.2929485000004,2000.2929485000004,2000.3414364,2000.3416739999993,2000.3578345999995,2000.3578345999995,2000.3578345999995,2000.440937200001,2000.9410224999992,space,0.574082900000576,None,,,,,,,,,,,,,,,,,,,,,,,,,P139,001,2025-04-08_09h30.33.380,posner_endo_new1,2024.2.4,60.07254360378146,2025-04-08 09h30.39.954903 +0100,
cube_l.png,0.1,0.31,invalid,2,2,0,up,5.64728230000037,None,space,0.6389662000001408,None,0,2,2,1,,,,,,,,,2000.9572792,,,,,,,,,,,,,2000.9411825999996,2000.9572792,2000.9572792,2000.9572792,2006.6187412,up,5.64728230000037,None,2006.6246264000001,2006.6360685,2006.6360685,2006.6844032000008,2006.6848095000005,2006.7008568,2006.7008568,2006.7008568,2006.7841193000004,2007.3518208999994,space,0.6389662000001408,None,,,,,,,,,,,,,,,,,,,,,,,,,P139,001,2025-04-08_09h30.33.380,posner_endo_new1,2024.2.4,60.07254360378146,2025-04-08 09h30.39.954903 +0100,
cube_r.png,0.1,0.31,valid,3,3,0,up,5.741661899999599,None,space,0.5450721999986854,None,0,3,3,7,,,,,,,,,2007.3668662,,,,,,,,,,,,,2007.3521376000008,2007.3668662,2007.3668662,2007.3668662,2013.1125247,up,5.741661899999599,None,2013.1248851,2013.1350041000005,2013.1350041000005,2013.1777516999991,2013.178151,2013.1942073999999,2013.1942073999999,2013.1942073999999,2013.2774530000006,2013.7452257999994,space,0.5450721999986854,None,,,,,,,,,,,,,,,,,,,,,,,,,P139,001,2025-04-08_09h30.33.380,posner_endo_new1,2024.2.4,60.07254360378146,2025-04-08 09h30.39.954903 +0100,
cube_r.png,0.1,0.31,valid,4,4,0,up,5.93969560000005,None,space,0.4559194999983447,None,0,4,4,10,,,,,,,,,2013.7602986000002,,,,,,,,,,,,,2013.7455372000004,2013.7602986000002,2013.7602986000002,2013.7602986000002,2019.7057504000004,up,5.93969560000005,None,2019.7139117000006,2019.7243999999992,2019.7243999999992,2019.7713380000005,2019.7716249000005,2019.7878614,2019.7878614,2019.7878614,2019.8710143000008,2020.2551062000002,space,0.4559194999983447,None,,,,,,,,,,,,,,,,,,,,,,,,,P139,001,2025-04-08_09h30.33.380,posner_endo_new1,2024.2.4,60.07254360378146,2025-04-08 09h30.39.954903 +0100,
cube_l.png,0.1,-0.31,valid,5,5,0,up,9.22121100000004,None,space,0.41227279999839084,None,0,5,5,0,,,,,,,,,2020.2707360999993,,,,,,,,,,,,,2020.2553291000004,2020.2707360999993,2020.2707360999993,2020.2707360999993,2029.4956648999996,up,9.22121100000004,None,2029.5039228000005,2029.5143291000004,2029.5143291000004,2029.5613212000007,2029.5616124000007,2029.5778346999996,2029.5778346999996,2029.5778346999996,2029.6611508999995,2029.9949035999998,space,0.41227279999839084,None,,,,,,,,,,,,,,,,,,,,,,,,,P139,001,2025-04-08_09h30.33.380,posner_endo_new1,2024.2.4,60.07254360378146,2025-04-08 09h30.39.954903 +0100,
cube_r.png,0.1,10,catch,6,6,0,up,4.841964999999618,None,None,,,0,6,6,3,,,,,,,,,2030.0107334999993,,,,,,,,,,,,,2029.9951287000004,2030.0107334999993,2030.0107334999993,2030.0107334999993,2034.8569817000007,up,4.841964999999618,None,2034.8651596,2034.8754277999997,2034.8754277999997,2034.9224658999992,2034.9227561999996,2034.9390223999999,2034.9390223999999,2034.9390223999999,2035.0222680999996,2037.9364368000006,None,,,2037.0369542999997,2037.9525092999993,2037.9525092999993,2037.9525092999993,,,,,,,,,,,,,,,,,,,,,P139,001,2025-04-08_09h30.33.380,posner_endo_new1,2024.2.4,60.07254360378146,2025-04-08 09h30.39.954903 +0100,
cube_r.png,0.1,-0.31,invalid,7,7,0,up,4.180066099999749,None,space,0.46909079999932146,None,0,7,7,6,,,,,,,,,2037.9525092999993,,,,,,,,,,,,,2037.9366658,2037.9525092999993,2037.9525092999993,2037.9525092999993,2042.1492813000004,up,4.180066099999749,None,2042.1575754999994,2042.1678924000007,2042.1678924000007,2042.2149836000008,2042.2152733000003,2042.2314260000003,2042.2314260000003,2042.2314260000003,2042.3147977999997,2042.7152822000007,space,0.46909079999932146,None,,,,,,,,,,,,,,,,,,,,,,,,,P139,001,2025-04-08_09h30.33.380,posner_endo_new1,2024.2.4,60.07254360378146,2025-04-08 09h30.39.954903 +0100,
cube_r.png,0.1,-0.31,invalid,8,8,0,up,4.865064199999324,None,space,0.43934900000022026,None,0,8,8,9,,,,,,,,,2042.7310966999994,,,,,,,,,,,,,2042.7155177000004,2042.7310966999994,2042.7310966999994,2042.7310966999994,2047.6104212999999,up,4.865064199999324,None,2047.6186770999993,2047.6289978999994,2047.6289978999994,2047.6760199,2047.6763111,2047.6927039999991,2047.6927039999991,2047.6927039999991,2047.7758981999996,2048.1430151999994,space,0.43934900000022026,None,,,,,,,,,,,,,,,,,,,,,,,,,P139,001,2025-04-08_09h30.33.380,posner_endo_new1,2024.2.4,60.07254360378146,2025-04-08 09h30.39.954903 +0100,
cube_l.png,0.1,-0.31,valid,9,9,0,up,5.765738399999464,None,space,0.4756033000012394,None,0,9,9,8,,,,,,,,,2048.1587173000007,,,,,,,,,,,,,2048.1432356999994,2048.1587173000007,2048.1587173000007,2048.1587173000007,2053.937145,up,5.765738399999464,None,2053.9453350000003,2053.9558601999997,2053.9558601999997,2054.0029928999993,2054.0032797999993,2054.0193149999996,2054.0193149999996,2054.0193149999996,2054.1027508000006,2054.5032353000006,space,0.4756033000012394,None,,,,,,,,,,,,,,,,,,,,,,,,,P139,001,2025-04-08_09h30.33.380,posner_endo_new1,2024.2.4,60.07254360378146,2025-04-08 09h30.39.954903 +0100,
cube_l.png,0.1,0.31,invalid,10,10,0,up,6.669306499999948,None,space,0.5207444000006944,None,0,10,10,5,,,,,,,,,2054.5189052999995,,,,,,,,,,,,,2054.503453699999,2054.5189052999995,2054.5189052999995,2054.5189052999995,2061.196635099999,up,6.669306499999948,None,2061.2048171000006,2061.2150856000007,2061.2150856000007,2061.262187800001,2061.2624775999993,2061.2787002000005,2061.2787002000005,2061.2787002000005,2061.3619175000003,2061.8123648,space,0.5207444000006944,None,,,,,,,,,,,,,,,,,,,,,,,,,P139,001,2025-04-08_09h30.33.380,posner_endo_new1,2024.2.4,60.07254360378146,2025-04-08 09h30.39.954903 +0100,
,,,,,,,,,,,,,,,,,,,,,,,,,,,,,,,,,,2061.8125170999992,2061.8280620999994,2064.833971100001,2064.8087082,,,,,,,,,,,,,,,,,,,,,,,,,,,,,,,,,,,,,,,,,,,,,,P139,001,2025-04-08_09h30.33.380,posner_endo_new1,2024.2.4,60.07254360378146,2025-04-08 09h30.39.954903 +0100,
cube_l.png,0.1,10,catch,0,0,0,up,10.97848569999951,None,None,,,,,,,0,0,0,0,,,,,2064.833971100001,,,,,,,,,,,,,2064.8249182,2064.833971100001,2064.833971100001,2064.833971100001,2075.815067899999,,,,2075.8255819000005,2075.8352133999997,2075.8352133999997,2075.8806643000007,2075.8809096999994,2075.8969581,2075.8969581,2075.8969581,2075.9801841000008,2078.8944369,,,,2077.9949013999994,2078.9106883999993,2078.9106883999993,2078.9106883999993,up,10.97848569999951,None,None,,,,,,,,,,,,,,,,,P139,001,2025-04-08_09h30.33.380,posner_endo_new1,2024.2.4,60.07254360378146,2025-04-08 09h30.39.954903 +0100,
cube_l.png,0.1,10,catch,1,1,0,up,4.213236599998709,None,None,,,,,,,0,1,1,1,,,,,2078.9106883999993,,,,,,,,,,,,,2078.8946051000003,2078.9106883999993,2078.9106883999993,2078.9106883999993,2083.1404574000007,,,,2083.1467527000004,2083.1583104,2083.1583104,2083.2061916000002,2083.2064295,2083.222947,2083.222947,2083.222947,2083.3060635,2086.2203303999995,,,,2085.3209098999996,2086.2363633999994,2086.2363633999994,2086.2363633999994,up,4.213236599998709,None,None,,,,,,,,,,,,,,,,,P139,001,2025-04-08_09h30.33.380,posner_endo_new1,2024.2.4,60.07254360378146,2025-04-08 09h30.39.954903 +0100,
cube_l.png,0.1,0.31,invalid,2,2,0,up,3.6972684000011213,None,space,0.49691209999946295,None,,,,,0,2,2,2,,,,,2086.2363633999994,,,,,,,,,,,,,2086.2204968999995,2086.2363633999994,2086.2363633999994,2086.2363633999994,2089.9498839999997,,,,2089.9615063,2089.9737965000004,2089.9737965000004,2090.016471499999,2090.0171840000003,2090.0328054,2090.0328054,2090.0328054,2090.0994069999997,2090.5349910999994,,,,,,,,up,3.6972684000011213,None,space,0.49691209999946295,None,,,,,,,,,,,,,,,P139,001,2025-04-08_09h30.33.380,posner_endo_new1,2024.2.4,60.07254360378146,2025-04-08 09h30.39.954903 +0100,
cube_l.png,0.1,0.31,invalid,3,3,0,up,28.926591900000858,None,space,0.5298101999997016,None,,,,,0,3,3,3,,,,,2090.549273299999,,,,,,,,,,,,,2090.535619800001,2090.549273299999,2090.549273299999,2090.549273299999,2119.486902299999,,,,2119.496491600001,2119.5068028999995,2119.5068028999995,2119.552485099999,2119.5528053,2119.5689650000004,2119.5689650000004,2119.5689650000004,2119.6522805999994,2120.1030066000003,,,,,,,,up,28.926591900000858,None,space,0.5298101999997016,None,,,,,,,,,,,,,,,P139,001,2025-04-08_09h30.33.380,posner_endo_new1,2024.2.4,60.07254360378146,2025-04-08 09h30.39.954903 +0100,
cube_l.png,0.1,-0.31,valid,4,4,0,up,6.029519100000471,None,space,0.46845850000136124,None,,,,,0,4,4,4,,,,,2120.118451800001,,,,,,,,,,,,,2120.1032625000007,2120.118451800001,2120.118451800001,2120.118451800001,2126.1633423000003,,,,2126.1727568000006,2126.1830630999993,2126.1830630999993,2126.2290233000003,2126.2293372000004,2126.2455487999996,2126.2455487999996,2126.2455487999996,2126.3286776000004,2126.729472000001,,,,,,,,up,6.029519100000471,None,space,0.46845850000136124,None,,,,,,,,,,,,,,,P139,001,2025-04-08_09h30.33.380,posner_endo_new1,2024.2.4,60.07254360378146,2025-04-08 09h30.39.954903 +0100,
cube_r.png,0.1,-0.31,invalid,5,5,0,up,5.260531100000662,None,space,0.4777888000007806,None,,,,,0,5,5,5,,,,,2126.744867900001,,,,,,,,,,,,,2126.7297407000005,2126.744867900001,2126.744867900001,2126.744867900001,2132.0075115,,,,2132.0159298,2132.025847499999,2132.025847499999,2132.0729334999996,2132.0731966999992,2132.0896319999993,2132.0896319999993,2132.0896319999993,2132.1727988000002,2132.5730755000004,,,,,,,,up,5.260531100000662,None,space,0.4777888000007806,None,,,,,,,,,,,,,,,P139,001,2025-04-08_09h30.33.380,posner_endo_new1,2024.2.4,60.07254360378146,2025-04-08 09h30.39.954903 +0100,
cube_r.png,0.1,0.31,valid,6,6,0,up,4.751544000000649,None,space,0.41451600000073086,None,,,,,0,6,6,6,,,,,2132.588828,,,,,,,,,,,,,2132.5732528999997,2132.588828,2132.588828,2132.588828,2137.3515964,,,,2137.3579434999992,2137.3699837000004,2137.3699837000004,2137.4174772000006,2137.4177235000006,2137.4338874000005,2137.4338874000005,2137.4338874000005,2137.5005132000006,2137.8511877,,,,,,,,up,4.751544000000649,None,space,0.41451600000073086,None,,,,,,,,,,,,,,,P139,001,2025-04-08_09h30.33.380,posner_endo_new1,2024.2.4,60.07254360378146,2025-04-08 09h30.39.954903 +0100,
cube_r.png,0.1,-0.31,invalid,7,7,0,up,4.937220100000559,None,space,0.4478459000001749,None,,,,,0,7,7,7,,,,,2137.8668961000003,,,,,,,,,,,,,2137.8513676000002,2137.8668961000003,2137.8668961000003,2137.8668961000003,2142.8128161999994,,,,2142.8191798999997,2142.8307222999993,2142.8307222999993,2142.8786081,2142.8788588999996,2142.8951082000003,2142.8951082000003,2142.8951082000003,2142.9782433,2143.3455111000003,,,,,,,,up,4.937220100000559,None,space,0.4478459000001749,None,,,,,,,,,,,,,,,P139,001,2025-04-08_09h30.33.380,posner_endo_new1,2024.2.4,60.07254360378146,2025-04-08 09h30.39.954903 +0100,
cube_l.png,0.1,-0.31,valid,8,8,0,up,4.587041400000089,None,space,0.44144950000008976,None,,,,,0,8,8,8,,,,,2143.3614751999994,,,,,,,,,,,,,2143.3456945,2143.3614751999994,2143.3614751999994,2143.3614751999994,2147.9573495000004,,,,2147.963315499999,2147.974833800001,2147.974833800001,2148.0231650999995,2148.0234065000004,2148.0397553000003,2148.0397553000003,2148.0397553000003,2148.1230570000007,2148.4899263000007,,,,,,,,up,4.587041400000089,None,space,0.44144950000008976,None,,,,,,,,,,,,,,,P139,001,2025-04-08_09h30.33.380,posner_endo_new1,2024.2.4,60.07254360378146,2025-04-08 09h30.39.954903 +0100,
cube_r.png,0.1,-0.31,invalid,9,9,0,up,4.73803930000031,None,space,0.47022909999941476,None,,,,,0,9,9,9,,,,,2148.505955299999,,,,,,,,,,,,,2148.490110500001,2148.505955299999,2148.505955299999,2148.505955299999,2153.2518655000003,,,,2153.2578410000006,2153.2695428000006,2153.2695428000006,2153.3176808000007,2153.3179228999998,2153.3342126000007,2153.3342126000007,2153.3342126000007,2153.4008551000006,2153.8180469,,,,,,,,up,4.73803930000031,None,space,0.47022909999941476,None,,,,,,,,,,,,,,,P139,001,2025-04-08_09h30.33.380,posner_endo_new1,2024.2.4,60.07254360378146,2025-04-08 09h30.39.954903 +0100,
cube_l.png,0.1,0.31,invalid,10,10,0,up,5.394725600001038,None,space,0.5278864000010799,None,,,,,0,10,10,10,,,,,2153.8337233,,,,,,,,,,,,,2153.8182245999997,2153.8337233,2153.8337233,2153.8337233,2159.2292696000004,,,,2159.2351669,2159.2466822999995,2159.2466822999995,2159.2950161999997,2159.2955377,2159.3114454999995,2159.3114454999995,2159.3114454999995,2159.394705999999,2159.8462848,,,,,,,,up,5.394725600001038,None,space,0.5278864000010799,None,,,,,,,,,,,,,,,P139,001,2025-04-08_09h30.33.380,posner_endo_new1,2024.2.4,60.07254360378146,2025-04-08 09h30.39.954903 +0100,
cube_r.png,0.1,-0.31,invalid,11,11,0,up,5.735532499998953,None,space,0.39618530000007013,None,,,,,0,11,11,11,,,,,2159.8608870999997,,,,,,,,,,,,,2159.8467426999996,2159.8608870999997,2159.8608870999997,2159.8608870999997,2165.6064427,,,,2165.6165488000006,2165.6262540000007,2165.6262540000007,2165.6718877999992,2165.6721374999997,2165.6883447,2165.6883447,2165.6883447,2165.7715590000007,2166.0887936,,,,,,,,up,5.735532499998953,None,space,0.39618530000007013,None,,,,,,,,,,,,,,,P139,001,2025-04-08_09h30.33.380,posner_endo_new1,2024.2.4,60.07254360378146,2025-04-08 09h30.39.954903 +0100,
cube_r.png,0.1,0.31,valid,12,12,0,up,5.9717287000003125,None,space,0.4096574999985023,None,,,,,0,12,12,12,,,,,2166.1044827999995,,,,,,,,,,,,,2166.0889841000007,2166.1044827999995,2166.1044827999995,2166.1044827999995,2172.0826739000004,,,,2172.0895232000003,2172.1010659999993,2172.1010659999993,2172.1484729000003,2172.1487235000004,2172.1652145999997,2172.1652145999997,2172.1652145999997,2172.2481609999995,2172.5820795,,,,,,,,up,5.9717287000003125,None,space,0.4096574999985023,None,,,,,,,,,,,,,,,P139,001,2025-04-08_09h30.33.380,posner_endo_new1,2024.2.4,60.07254360378146,2025-04-08 09h30.39.954903 +0100,
cube_l.png,0.1,10,catch,13,13,0,up,7.95048830000087,None,None,,,,,,,0,13,13,13,,,,,2172.5979614000007,,,,,,,,,,,,,2172.5822695000006,2172.5979614000007,2172.5979614000007,2172.5979614000007,2180.5571929,,,,2180.5640177999994,2180.5760453000003,2180.5760453000003,2180.623096200001,2180.6233463999997,2180.6396024999995,2180.6396024999995,2180.6396024999995,2180.7061895999996,2183.6370881000003,,,,2182.720874299999,2183.6531768000004,2183.6531768000004,2183.6531768000004,up,7.95048830000087,None,None,,,,,,,,,,,,,,,,,P139,001,2025-04-08_09h30.33.380,posner_endo_new1,2024.2.4,60.07254360378146,2025-04-08 09h30.39.954903 +0100,
cube_r.png,0.1,-0.31,invalid,14,14,0,up,3.070359400000598,None,space,0.4576571999987209,None,,,,,0,14,14,14,,,,,2183.6531768000004,,,,,,,,,,,,,2183.6372673999995,2183.6531768000004,2183.6531768000004,2183.6531768000004,2186.7343117,,,,2186.7411004999994,2186.7528870999995,2186.7528870999995,2186.8000438,2186.8002939,2186.8166650000003,2186.8166650000003,2186.8166650000003,2186.8998568000006,2187.2835818000003,,,,,,,,up,3.070359400000598,None,space,0.4576571999987209,None,,,,,,,,,,,,,,,P139,001,2025-04-08_09h30.33.380,posner_endo_new1,2024.2.4,60.07254360378146,2025-04-08 09h30.39.954903 +0100,
cube_l.png,0.1,-0.31,valid,15,15,0,up,7.392301200001384,None,space,0.4473237000001973,None,,,,,0,15,15,15,,,,,2187.2993671000004,,,,,,,,,,,,,2187.2837758999995,2187.2993671000004,2187.2993671000004,2187.2993671000004,2194.6928924999993,,,,2194.6997023999993,2194.711357,2194.711357,2194.758708200001,2194.7589611999992,2194.7751893999994,2194.7751893999994,2194.7751893999994,2194.8586441999996,2195.225531599999,,,,,,,,up,7.392301200001384,None,space,0.4473237000001973,None,,,,,,,,,,,,,,,P139,001,2025-04-08_09h30.33.380,posner_endo_new1,2024.2.4,60.07254360378146,2025-04-08 09h30.39.954903 +0100,
cube_r.png,0.1,10,catch,16,16,0,up,6.211051899999802,None,None,,,,,,,0,16,16,16,,,,,2195.2414295,,,,,,,,,,,,,2195.2257271,2195.2414295,2195.2414295,2195.2414295,2201.4692324000007,,,,2201.4760597000004,2201.4874340000006,2201.4874340000006,2201.5350510999997,2201.5353051,2201.5517161999996,2201.5517161999996,2201.5517161999996,2201.6348209000007,2204.5492357000003,,,,2203.649453599999,2204.5651897000007,2204.5651897000007,2204.5651897000007,up,6.211051899999802,None,None,,,,,,,,,,,,,,,,,P139,001,2025-04-08_09h30.33.380,posner_endo_new1,2024.2.4,60.07254360378146,2025-04-08 09h30.39.954903 +0100,
cube_r.png,0.1,10,catch,17,17,0,up,2.3826430999997683,None,None,,,,,,,0,17,17,17,,,,,2204.5651897000007,,,,,,,,,,,,,2204.5494180000005,2204.5651897000007,2204.5651897000007,2204.5651897000007,2206.9635147999998,,,,2206.9703826999994,2206.9818926000007,2206.9818926000007,2207.0292474,2207.029694500001,2207.0457320999994,2207.0457320999994,2207.0457320999994,2207.1289459,2210.0436391000003,,,,2209.1439498,2210.0596041999997,2210.0596041999997,2210.0596041999997,up,2.3826430999997683,None,None,,,,,,,,,,,,,,,,,P139,001,2025-04-08_09h30.33.380,posner_endo_new1,2024.2.4,60.07254360378146,2025-04-08 09h30.39.954903 +0100,
cube_l.png,0.1,0.31,invalid,18,18,0,up,4.528301100001045,None,space,0.5441769999997632,None,,,,,0,18,18,18,,,,,2210.0596041999997,,,,,,,,,,,,,2210.0438823999993,2210.0596041999997,2210.0596041999997,2210.0596041999997,2214.589513499999,,,,2214.599101,2214.6095152,2214.6095152,2214.654933,2214.6552489999995,2214.6715461000003,2214.6715461000003,2214.6715461000003,2214.7547111999993,2215.2220956,,,,,,,,up,4.528301100001045,None,space,0.5441769999997632,None,,,,,,,,,,,,,,,P139,001,2025-04-08_09h30.33.380,posner_endo_new1,2024.2.4,60.07254360378146,2025-04-08 09h30.39.954903 +0100,
cube_l.png,0.1,10,catch,19,19,0,up,6.862446900000577,None,None,,,,,,,0,19,19,19,,,,,2215.2375463000008,,,,,,,,,,,,,2215.2223510000003,2215.2375463000008,2215.2375463000008,2215.2375463000008,2222.1149666,,,,2222.1243508999996,2222.1347179000004,2222.1347179000004,2222.1805788,2222.1808992000006,2222.1971527000005,2222.1971527000005,2222.1971527000005,2222.2803614000004,2225.194647099999,,,,2224.294908600001,2225.2107732000004,2225.2107732000004,2225.2107732000004,up,6.862446900000577,None,None,,,,,,,,,,,,,,,,,P139,001,2025-04-08_09h30.33.380,posner_endo_new1,2024.2.4,60.07254360378146,2025-04-08 09h30.39.954903 +0100,
cube_l.png,0.1,0.31,invalid,20,20,0,up,3.641649499999403,None,space,0.5070543000001635,None,,,,,0,20,20,20,,,,,2225.2107732000004,,,,,,,,,,,,,2225.194885000001,2225.2107732000004,2225.2107732000004,2225.2107732000004,2228.8581687000005,,,,2228.8676431999993,2228.8779445,2228.8779445,2228.923775200001,2228.9240912000005,2228.9401405999997,2228.9401405999997,2228.9401405999997,2229.023557300001,2229.4575614999994,,,,,,,,up,3.641649499999403,None,space,0.5070543000001635,None,,,,,,,,,,,,,,,P139,001,2025-04-08_09h30.33.380,posner_endo_new1,2024.2.4,60.07254360378146,2025-04-08 09h30.39.954903 +0100,
cube_l.png,0.1,-0.31,valid,21,21,0,up,7.979159399999844,None,space,0.45083229999909236,None,,,,,0,21,21,21,,,,,2229.4730225999992,,,,,,,,,,,,,2229.4578244999993,2229.4730225999992,2229.4730225999992,2229.4730225999992,2237.4659045999997,,,,2237.4753502000003,2237.4856406,2237.4856406,2237.5315821000004,2237.5318982999997,2237.547966,2237.547966,2237.547966,2237.6313045000006,2238.015432100001,,,,,,,,up,7.979159399999844,None,space,0.45083229999909236,None,,,,,,,,,,,,,,,P139,001,2025-04-08_09h30.33.380,posner_endo_new1,2024.2.4,60.07254360378146,2025-04-08 09h30.39.954903 +0100,
cube_r.png,0.1,0.31,valid,22,22,0,up,7.957470299999841,None,space,0.4264031000002433,None,,,,,0,22,22,22,,,,,2238.030895,,,,,,,,,,,,,2238.0156876,2238.030895,2238.030895,2238.030895,2245.9906945000002,,,,2246.0001453999994,2246.0105884999994,2246.0105884999994,2246.0561954999994,2246.0565162000003,2246.0727110000007,2246.0727110000007,2246.0727110000007,2246.1559025000006,2246.5067636000003,,,,,,,,up,7.957470299999841,None,space,0.4264031000002433,None,,,,,,,,,,,,,,,P139,001,2025-04-08_09h30.33.380,posner_endo_new1,2024.2.4,60.07254360378146,2025-04-08 09h30.39.954903 +0100,
cube_r.png,0.1,-0.31,invalid,23,23,0,up,6.882181799999671,None,space,0.45203140000012354,None,,,,,0,23,23,23,,,,,2246.5221968999995,,,,,,,,,,,,,2246.5070202999996,2246.5221968999995,2246.5221968999995,2246.5221968999995,2253.4162183000008,,,,2253.4249686000003,2253.4347115,2253.4347115,2253.4818362999995,2253.4820767,2253.4982598000006,2253.4982598000006,2253.4982598000006,2253.581612600001,2253.9652459999998,,,,,,,,up,6.882181799999671,None,space,0.45203140000012354,None,,,,,,,,,,,,,,,P139,001,2025-04-08_09h30.33.380,posner_endo_new1,2024.2.4,60.07254360378146,2025-04-08 09h30.39.954903 +0100,
cube_r.png,0.1,0.31,valid,24,24,0,up,5.598612100000537,None,space,0.4279095000001689,None,,,,,0,24,24,24,,,,,2253.9811444999996,,,,,,,,,,,,,2253.9654284999997,2253.9811444999996,2253.9811444999996,2253.9811444999996,2259.5930829999998,,,,2259.5994188000004,2259.6104904999993,2259.6104904999993,2259.6586365000003,2259.6591037,2259.6751036000005,2259.6751036000005,2259.6751036000005,2259.7583324999996,2260.1093313,,,,,,,,up,5.598612100000537,None,space,0.4279095000001689,None,,,,,,,,,,,,,,,P139,001,2025-04-08_09h30.33.380,posner_endo_new1,2024.2.4,60.07254360378146,2025-04-08 09h30.39.954903 +0100,
cube_r.png,0.1,-0.31,invalid,25,25,0,up,5.46278109999912,None,space,0.4265892999992502,None,,,,,0,25,25,25,,,,,2260.1249518999994,,,,,,,,,,,,,2260.1095891000004,2260.1249518999994,2260.1249518999994,2260.1249518999994,2265.6037687000007,,,,2265.6131994000007,2265.6238797000005,2265.6238797000005,2265.6693840000007,2265.6697076,2265.6859272,2265.6859272,2265.6859272,2265.7690531000007,2266.1192628999997,,,,,,,,up,5.46278109999912,None,space,0.4265892999992502,None,,,,,,,,,,,,,,,P139,001,2025-04-08_09h30.33.380,posner_endo_new1,2024.2.4,60.07254360378146,2025-04-08 09h30.39.954903 +0100,
cube_l.png,0.1,-0.31,valid,26,26,0,up,6.700203999998848,None,space,0.40397179999854416,None,,,,,0,26,26,26,,,,,2266.1354694,,,,,,,,,,,,,2266.119443400001,2266.1354694,2266.1354694,2266.1354694,2272.8463121999994,,,,2272.8557409000005,2272.8662507999998,2272.8662507999998,2272.9120335999996,2272.9123505999996,2272.928500600001,2272.928500600001,2272.928500600001,2273.0116199000004,2273.345812400001,,,,,,,,up,6.700203999998848,None,space,0.40397179999854416,None,,,,,,,,,,,,,,,P139,001,2025-04-08_09h30.33.380,posner_endo_new1,2024.2.4,60.07254360378146,2025-04-08 09h30.39.954903 +0100,
cube_r.png,0.1,0.31,valid,27,27,0,up,14.851153499999782,None,space,0.4331268000005366,None,,,,,0,27,27,27,,,,,2273.361326800001,,,,,,,,,,,,,2273.3460718999995,2273.361326800001,2273.361326800001,2273.361326800001,2288.2141647999997,,,,2288.2237212,2288.2340452000008,2288.2340452000008,2288.2794988999995,2288.2798165999993,2288.2961111999994,2288.2961111999994,2288.2961111999994,2288.3792051,2288.7303598,,,,,,,,up,14.851153499999782,None,space,0.4331268000005366,None,,,,,,,,,,,,,,,P139,001,2025-04-08_09h30.33.380,posner_endo_new1,2024.2.4,60.07254360378146,2025-04-08 09h30.39.954903 +0100,
cube_r.png,0.1,10,catch,28,28,0,up,7.9542001000008895,None,None,,,,,,,0,28,28,28,,,,,2288.745627099999,,,,,,,,,,,,,2288.7306219,2288.745627099999,2288.745627099999,2288.745627099999,2296.7052845,,,,2296.7146931999996,2296.7249544999995,2296.7249544999995,2296.7708249000007,2296.7711406,2296.7872826000003,2296.7872826000003,2296.7872826000003,2296.8705520999993,2299.7850161999995,,,,2298.885270500001,2299.8009681000003,2299.8009681000003,2299.8009681000003,up,7.9542001000008895,None,None,,,,,,,,,,,,,,,,,P139,001,2025-04-08_09h30.33.380,posner_endo_new1,2024.2.4,60.07254360378146,2025-04-08 09h30.39.954903 +0100,
cube_r.png,0.1,0.31,valid,29,29,0,up,4.570828999998412,None,space,0.44970869999997376,None,,,,,0,29,29,29,,,,,2299.8009681000003,,,,,,,,,,,,,2299.7852552999993,2299.8009681000003,2299.8009681000003,2299.8009681000003,2304.380697299999,,,,2304.3901607000007,2304.4004282000005,2304.4004282000005,2304.4463562,2304.446672,2304.4628563000006,2304.4628563000006,2304.4628563000006,2304.546141500001,2304.9136875999993,,,,,,,,up,4.570828999998412,None,space,0.44970869999997376,None,,,,,,,,,,,,,,,P139,001,2025-04-08_09h30.33.380,posner_endo_new1,2024.2.4,60.07254360378146,2025-04-08 09h30.39.954903 +0100,
cube_r.png,0.1,0.31,valid,30,30,0,up,7.099159000001237,None,space,0.3904741999995167,None,,,,,0,30,30,30,,,,,2304.9290887000006,,,,,,,,,,,,,2304.913945099999,2304.9290887000006,2304.9290887000006,2304.9290887000006,2312.0395977999997,,,,2312.0490367,2312.0592462000004,2312.0592462000004,2312.1051608,2312.1054888,2312.1216406999993,2312.1216406999993,2312.1216406999993,2312.2048271999993,2312.522340899999,,,,,,,,up,7.099159000001237,None,space,0.3904741999995167,None,,,,,,,,,,,,,,,P139,001,2025-04-08_09h30.33.380,posner_endo_new1,2024.2.4,60.07254360378146,2025-04-08 09h30.39.954903 +0100,
cube_l.png,0.1,-0.31,valid,31,31,0,up,6.641934699999183,None,space,0.5301816999999573,None,,,,,0,31,31,31,,,,,2312.5379396000008,,,,,,,,,,,,,2312.5225981999993,2312.5379396000008,2312.5379396000008,2312.5379396000008,2319.1823237999997,,,,2319.1917768999992,2319.2020489999995,2319.2020489999995,2319.2477660000004,2319.2480823999995,2319.2643850999993,2319.2643850999993,2319.2643850999993,2319.347545299999,2319.7983831,,,,,,,,up,6.641934699999183,None,space,0.5301816999999573,None,,,,,,,,,,,,,,,P139,001,2025-04-08_09h30.33.380,posner_endo_new1,2024.2.4,60.07254360378146,2025-04-08 09h30.39.954903 +0100,
cube_r.png,0.1,0.31,valid,32,32,0,up,8.557725099999516,None,space,0.3933840000008786,None,,,,,0,32,32,32,,,,,2319.8137919,,,,,,,,,,,,,2319.7986459999993,2319.8137919,2319.8137919,2319.8137919,2328.372981300001,,,,2328.3824428999997,2328.3927774999993,2328.3927774999993,2328.4384377999995,2328.4387516000006,2328.4549853000008,2328.4549853000008,2328.4549853000008,2328.538204799999,2328.855513300001,,,,,,,,up,8.557725099999516,None,space,0.3933840000008786,None,,,,,,,,,,,,,,,P139,001,2025-04-08_09h30.33.380,posner_endo_new1,2024.2.4,60.07254360378146,2025-04-08 09h30.39.954903 +0100,
cube_r.png,0.1,-0.31,invalid,33,33,0,up,7.39690630000041,None,space,0.4924000999999407,None,,,,,0,33,33,33,,,,,2328.871167699999,,,,,,,,,,,,,2328.8557720999997,2328.871167699999,2328.871167699999,2328.871167699999,2336.281367400001,,,,2336.290792399999,2336.3010367000006,2336.3010367000006,2336.3469869,2336.347309999999,2336.3636195,2336.3636195,2336.3636195,2336.4467191999993,2336.8642084000003,,,,,,,,up,7.39690630000041,None,space,0.4924000999999407,None,,,,,,,,,,,,,,,P139,001,2025-04-08_09h30.33.380,posner_endo_new1,2024.2.4,60.07254360378146,2025-04-08 09h30.39.954903 +0100,
cube_r.png,0.1,10,catch,34,34,0,up,7.5325047000005725,None,None,,,,,,,0,34,34,34,,,,,2336.8796072999994,,,,,,,,,,,,,2336.8644635,2336.8796072999994,2336.8796072999994,2336.8796072999994,2344.4229852000008,,,,2344.432357400001,2344.4427101,2344.4427101,2344.4886303999992,2344.4889583000004,2344.5049667999992,2344.5049667999992,2344.5049667999992,2344.5883737999993,2347.5026940999996,,,,2346.6029992000003,2347.5188027000004,2347.5188027000004,2347.5188027000004,up,7.5325047000005725,None,None,,,,,,,,,,,,,,,,,P139,001,2025-04-08_09h30.33.380,posner_endo_new1,2024.2.4,60.07254360378146,2025-04-08 09h30.39.954903 +0100,
cube_r.png,0.1,0.31,valid,35,35,0,up,2.9893745000008494,None,space,0.46599720000085654,None,,,,,0,35,35,35,,,,,2347.5188027000004,,,,,,,,,,,,,2347.5029342,2347.5188027000004,2347.5188027000004,2347.5188027000004,2350.5169184000006,,,,2350.5264043000006,2350.5367511000004,2350.5367511000004,2350.5824794,2350.5827934999998,2350.5988426999993,2350.5988426999993,2350.5988426999993,2350.6820795000003,2351.0662861,,,,,,,,up,2.9893745000008494,None,space,0.46599720000085654,None,,,,,,,,,,,,,,,P139,001,2025-04-08_09h30.33.380,posner_endo_new1,2024.2.4,60.07254360378146,2025-04-08 09h30.39.954903 +0100,
cube_r.png,0.1,-0.31,invalid,36,36,0,up,6.321696499999234,None,space,0.44129330000032496,None,,,,,0,36,36,36,,,,,2351.0816833999997,,,,,,,,,,,,,2351.0665444000006,2351.0816833999997,2351.0816833999997,2351.0816833999997,2357.409731399999,,,,2357.4192318000005,2357.4293909000007,2357.4293909000007,2357.4753502999993,2357.4756823000007,2357.4919219000003,2357.4919219000003,2357.4919219000003,2357.5750231,2357.9425807000007,,,,,,,,up,6.321696499999234,None,space,0.44129330000032496,None,,,,,,,,,,,,,,,P139,001,2025-04-08_09h30.33.380,posner_endo_new1,2024.2.4,60.07254360378146,2025-04-08 09h30.39.954903 +0100,
cube_l.png,0.1,0.31,invalid,37,37,0,up,6.71000709999862,None,space,0.490870100000393,None,,,,,0,37,37,37,,,,,2357.9579992,,,,,,,,,,,,,2357.9428456999995,2357.9579992,2357.9579992,2357.9579992,2364.6691200000005,,,,2364.6787831,2364.6890712999993,2364.6890712999993,2364.7345668,2364.734882999999,2364.7509639,2364.7509639,2364.7509639,2364.8343564000006,2365.2517487999994,,,,,,,,up,6.71000709999862,None,space,0.490870100000393,None,,,,,,,,,,,,,,,P139,001,2025-04-08_09h30.33.380,posner_endo_new1,2024.2.4,60.07254360378146,2025-04-08 09h30.39.954903 +0100,
cube_l.png,0.1,0.31,invalid,38,38,0,up,5.345952300000135,None,space,0.481552000001102,None,,,,,0,38,38,38,,,,,2365.2672631000005,,,,,,,,,,,,,2365.2520129000004,2365.2672631000005,2365.2672631000005,2365.2672631000005,2370.6295737,,,,2370.6389715999994,2370.649265599999,2370.649265599999,2370.6952010000005,2370.6955209999996,2370.7116788000003,2370.7116788000003,2370.7116788000003,2370.7948598000003,2371.195743800001,,,,,,,,up,5.345952300000135,None,space,0.481552000001102,None,,,,,,,,,,,,,,,P139,001,2025-04-08_09h30.33.380,posner_endo_new1,2024.2.4,60.07254360378146,2025-04-08 09h30.39.954903 +0100,
cube_r.png,0.1,0.31,valid,39,39,0,up,7.28076560000045,None,space,0.44387710000046354,None,,,,,0,39,39,39,,,,,2371.2110646,,,,,,,,,,,,,2371.196013999999,2371.2110646,2371.2110646,2371.2110646,2378.5048002000003,,,,2378.514201600001,2378.5245354,2378.5245354,2378.5702844000007,2378.5706044,2378.5868420999996,2378.5868420999996,2378.5868420999996,2378.6701869000008,2379.0377508,,,,,,,,up,7.28076560000045,None,space,0.44387710000046354,None,,,,,,,,,,,,,,,P139,001,2025-04-08_09h30.33.380,posner_endo_new1,2024.2.4,60.07254360378146,2025-04-08 09h30.39.954903 +0100,
cube_l.png,0.1,0.31,invalid,40,40,0,up,6.854391099999702,None,space,0.46538130000044475,None,,,,,0,40,40,40,,,,,2379.0530192999995,,,,,,,,,,,,,2379.0380067000006,2379.0530192999995,2379.0530192999995,2379.0530192999995,2385.9138473000003,,,,2385.923231500001,2385.9334137000005,2385.9334137000005,2385.9794390000006,2385.9797578,2385.9959180999995,2385.9959180999995,2385.9959180999995,2386.0791898000007,2386.4633742999995,,,,,,,,up,6.854391099999702,None,space,0.46538130000044475,None,,,,,,,,,,,,,,,P139,001,2025-04-08_09h30.33.380,posner_endo_new1,2024.2.4,60.07254360378146,2025-04-08 09h30.39.954903 +0100,
cube_l.png,0.1,10,catch,41,41,0,up,6.7970523000003595,None,None,,,,,,,0,41,41,41,,,,,2386.4788915999998,,,,,,,,,,,,,2386.4636295,2386.4788915999998,2386.4788915999998,2386.4788915999998,2393.2896402999995,,,,2393.2990279999995,2393.3091919,2393.3091919,2393.3553054000004,2393.3556224999993,2393.3717197000005,2393.3717197000005,2393.3717197000005,2393.4550732000007,2396.369632600001,,,,2395.469635199999,2396.385356500001,2396.385356500001,2396.385356500001,up,6.7970523000003595,None,None,,,,,,,,,,,,,,,,,P139,001,2025-04-08_09h30.33.380,posner_endo_new1,2024.2.4,60.07254360378146,2025-04-08 09h30.39.954903 +0100,
cube_l.png,0.1,-0.31,valid,42,42,0,up,4.37801810000019,None,space,0.4188374000004842,None,,,,,0,42,42,42,,,,,2396.385356500001,,,,,,,,,,,,,2396.3698791999996,2396.385356500001,2396.385356500001,2396.385356500001,2400.7653355,,,,2400.7747626,2400.785059,2400.785059,2400.8309848999997,2400.8313104999997,2400.8473381000003,2400.8473381000003,2400.8473381000003,2400.930697399999,2401.2814961999993,,,,,,,,up,4.37801810000019,None,space,0.4188374000004842,None,,,,,,,,,,,,,,,P139,001,2025-04-08_09h30.33.380,posner_endo_new1,2024.2.4,60.07254360378146,2025-04-08 09h30.39.954903 +0100,
cube_l.png,0.1,10,catch,43,43,0,up,7.050420999999915,None,None,,,,,,,0,43,43,43,,,,,2401.296920999999,,,,,,,,,,,,,2401.2817508999997,2401.296920999999,2401.296920999999,2401.296920999999,2408.3574305,,,,2408.3668340000004,2408.3771503999997,2408.3771503999997,2408.4231235000007,2408.4234464,2408.4396233999996,2408.4396233999996,2408.4396233999996,2408.5229156999994,2411.4371802000005,,,,2410.537519900001,2411.453258400001,2411.453258400001,2411.453258400001,up,7.050420999999915,None,None,,,,,,,,,,,,,,,,,P139,001,2025-04-08_09h30.33.380,posner_endo_new1,2024.2.4,60.07254360378146,2025-04-08 09h30.39.954903 +0100,
cube_l.png,0.1,0.31,invalid,44,44,0,up,5.830983300000298,None,space,0.4727242999997543,None,,,,,0,44,44,44,,,,,2411.453258400001,,,,,,,,,,,,,2411.4374186999994,2411.453258400001,2411.453258400001,2411.453258400001,2417.2981755,,,,2417.307624700001,2417.3179492,2417.3179492,2417.3640219999997,2417.3643470000006,2417.380500200001,2417.380500200001,2417.380500200001,2417.4637714,2417.8642770999995,,,,,,,,up,5.830983300000298,None,space,0.4727242999997543,None,,,,,,,,,,,,,,,P139,001,2025-04-08_09h30.33.380,posner_endo_new1,2024.2.4,60.07254360378146,2025-04-08 09h30.39.954903 +0100,
cube_l.png,0.1,0.31,invalid,45,45,0,up,7.323586900000009,None,space,0.5061869000001025,None,,,,,0,45,45,45,,,,,2417.8799075000006,,,,,,,,,,,,,2417.8645364000004,2417.8799075000006,2417.8799075000006,2417.8799075000006,2425.2068665999996,,,,2425.2163727000006,2425.2267300000003,2425.2267300000003,2425.2725028000004,2425.2728262,2425.2890454000008,2425.2890454000008,2425.2890454000008,2425.3722904000006,2425.8062449999998,,,,,,,,up,7.323586900000009,None,space,0.5061869000001025,None,,,,,,,,,,,,,,,P139,001,2025-04-08_09h30.33.380,posner_endo_new1,2024.2.4,60.07254360378146,2025-04-08 09h30.39.954903 +0100,
cube_r.png,0.1,0.31,valid,46,46,0,up,7.278111300000091,None,space,0.39162949999990815,None,,,,,0,46,46,46,,,,,2425.8218634999994,,,,,,,,,,,,,2425.8065026999993,2425.8218634999994,2425.8218634999994,2425.8218634999994,2433.1155610000005,,,,2433.124768400001,2433.1346563999996,2433.1346563999996,2433.1808798,2433.1811156000003,2433.1974785,2433.1974785,2433.1974785,2433.2811005000003,2433.5979202,,,,,,,,up,7.278111300000091,None,space,0.39162949999990815,None,,,,,,,,,,,,,,,P139,001,2025-04-08_09h30.33.380,posner_endo_new1,2024.2.4,60.07254360378146,2025-04-08 09h30.39.954903 +0100,
cube_l.png,0.1,-0.31,valid,47,47,0,up,7.894163599999956,None,space,0.40498119999938353,None,,,,,0,47,47,47,,,,,2433.6137106999995,,,,,,,,,,,,,2433.598098799999,2433.6137106999995,2433.6137106999995,2433.6137106999995,2441.5230833000005,,,,2441.5290891000004,2441.5407658999993,2441.5407658999993,2441.5888889,2441.5893495,2441.605345600001,2441.605345600001,2441.605345600001,2441.6885942999997,2442.0230673999995,,,,,,,,up,7.894163599999956,None,space,0.40498119999938353,None,,,,,,,,,,,,,,,P139,001,2025-04-08_09h30.33.380,posner_endo_new1,2024.2.4,60.07254360378146,2025-04-08 09h30.39.954903 +0100,
cube_r.png,0.1,-0.31,invalid,48,48,0,up,10.540686600001209,None,space,0.4563275000000431,None,,,,,0,48,48,48,,,,,2442.0385745000003,,,,,,,,,,,,,2442.0233269,2442.0385745000003,2442.0385745000003,2442.0385745000003,2452.5956208000007,,,,2452.6050620000005,2452.6152647,2452.6152647,2452.6611746,2452.6614957,2452.6776984000007,2452.6776984000007,2452.6776984000007,2452.7609004000005,2453.1449297,,,,,,,,up,10.540686600001209,None,space,0.4563275000000431,None,,,,,,,,,,,,,,,P139,001,2025-04-08_09h30.33.380,posner_endo_new1,2024.2.4,60.07254360378146,2025-04-08 09h30.39.954903 +0100,
cube_r.png,0.1,10,catch,49,49,0,up,8.507209900000817,None,None,,,,,,,0,49,49,49,,,,,2453.160501799999,,,,,,,,,,,,,2453.1451909000007,2453.160501799999,2453.160501799999,2453.160501799999,2461.6696666999997,,,,2461.6791078999995,2461.689673499999,2461.689673499999,2461.7352339999998,2461.7355566999995,2461.751532800001,2461.751532800001,2461.751532800001,2461.834901800001,2464.7493035999996,,,,2463.849629800001,2464.7652541999996,2464.7652541999996,2464.7652541999996,up,8.507209900000817,None,None,,,,,,,,,,,,,,,,,P139,001,2025-04-08_09h30.33.380,posner_endo_new1,2024.2.4,60.07254360378146,2025-04-08 09h30.39.954903 +0100,
cube_l.png,0.1,-0.31,valid,50,50,0,up,3.3262939999985974,None,space,0.45611379999900237,None,,,,,0,50,50,50,,,,,2464.7652541999996,,,,,,,,,,,,,2464.749540999999,2464.7652541999996,2464.7652541999996,2464.7652541999996,2468.0963701,,,,2468.1052253,2468.1151788999996,2468.1151788999996,2468.1618827,2468.1621228000004,2468.1782726,2468.1782726,2468.1782726,2468.2617202,2468.645273,,,,,,,,up,3.3262939999985974,None,space,0.45611379999900237,None,,,,,,,,,,,,,,,P139,001,2025-04-08_09h30.33.380,posner_endo_new1,2024.2.4,60.07254360378146,2025-04-08 09h30.39.954903 +0100,
cube_l.png,0.1,-0.31,valid,51,51,0,up,7.014337599999635,None,space,0.40442829999847163,None,,,,,0,51,51,51,,,,,2468.661450400001,,,,,,,,,,,,,2468.6454525999998,2468.661450400001,2468.661450400001,2468.661450400001,2475.6879606,,,,2475.6942858,2475.7058273000002,2475.7058273000002,2475.754075500001,2475.7543167999993,2475.7704945999994,2475.7704945999994,2475.7704945999994,2475.8371616999993,2476.1875454,,,,,,,,up,7.014337599999635,None,space,0.40442829999847163,None,,,,,,,,,,,,,,,P139,001,2025-04-08_09h30.33.380,posner_endo_new1,2024.2.4,60.07254360378146,2025-04-08 09h30.39.954903 +0100,
cube_r.png,0.1,-0.31,invalid,52,52,0,up,8.840039900000193,None,space,0.4588634000010643,None,,,,,0,52,52,52,,,,,2476.2034635,,,,,,,,,,,,,2476.1877239999994,2476.2034635,2476.2034635,2476.2034635,2485.0452657999995,,,,2485.0515969000007,2485.0631806,2485.0631806,2485.1110695000007,2485.1113066,2485.1277346999996,2485.1277346999996,2485.1277346999996,2485.211019799999,2485.5946518,,,,,,,,up,8.840039900000193,None,space,0.4588634000010643,None,,,,,,,,,,,,,,,P139,001,2025-04-08_09h30.33.380,posner_endo_new1,2024.2.4,60.07254360378146,2025-04-08 09h30.39.954903 +0100,
cube_l.png,0.1,-0.31,valid,53,53,0,up,8.457329400000162,None,space,0.3487349999995786,None,,,,,0,53,53,53,,,,,2485.610530600001,,,,,,,,,,,,,2485.5948312,2485.610530600001,2485.610530600001,2485.610530600001,2494.069522399999,,,,2494.0758568,2494.087322199999,2494.087322199999,2494.1353550000003,2494.1355955,2494.1518715,2494.1518715,2494.1518715,2494.2349804999994,2494.5023679000005,,,,,,,,up,8.457329400000162,None,space,0.3487349999995786,None,,,,,,,,,,,,,,,P139,001,2025-04-08_09h30.33.380,posner_endo_new1,2024.2.4,60.07254360378146,2025-04-08 09h30.39.954903 +0100,
cube_r.png,0.1,10,catch,54,54,0,up,6.733506800001123,None,None,,,,,,,0,54,54,54,,,,,2494.5180987999993,,,,,,,,,,,,,2494.5025537,2494.5180987999993,2494.5180987999993,2494.5180987999993,2501.262074099999,,,,2501.2683909999996,2501.2799238000007,2501.2799238000007,2501.3280517000003,2501.3282928999997,2501.3442919999998,2501.3442919999998,2501.3442919999998,2501.4108861999994,2504.3419063,,,,2503.4255765,2504.3579950000003,2504.3579950000003,2504.3579950000003,up,6.733506800001123,None,None,,,,,,,,,,,,,,,,,P139,001,2025-04-08_09h30.33.380,posner_endo_new1,2024.2.4,60.07254360378146,2025-04-08 09h30.39.954903 +0100,
cube_l.png,0.1,0.31,invalid,55,55,0,up,3.774168300000383,None,space,0.3410652000002301,None,,,,,0,55,55,55,,,,,2504.3579950000003,,,,,,,,,,,,,2504.3420795,2504.3579950000003,2504.3579950000003,2504.3579950000003,2508.138270900001,,,,2508.1445721,2508.1561194000005,2508.1561194000005,2508.204091400001,2508.2043269000005,2508.2207290999995,2508.2207290999995,2508.2207290999995,2508.3039625,2508.571018299999,,,,,,,,up,3.774168300000383,None,space,0.3410652000002301,None,,,,,,,,,,,,,,,P139,001,2025-04-08_09h30.33.380,posner_endo_new1,2024.2.4,60.07254360378146,2025-04-08 09h30.39.954903 +0100,
cube_l.png,0.1,-0.31,valid,56,56,0,up,9.936847700000726,None,space,0.37641789999906905,None,,,,,0,56,56,56,,,,,2508.5870056000003,,,,,,,,,,,,,2508.571195300001,2508.5870056000003,2508.5870056000003,2508.5870056000003,2518.5276952000004,,,,2518.5339879000003,2518.5455511,2518.5455511,2518.5935095999994,2518.5937648,2518.6100473000006,2518.6100473000006,2518.6100473000006,2518.6932718999997,2518.9935884000006,,,,,,,,up,9.936847700000726,None,space,0.37641789999906905,None,,,,,,,,,,,,,,,P139,001,2025-04-08_09h30.33.380,posner_endo_new1,2024.2.4,60.07254360378146,2025-04-08 09h30.39.954903 +0100,
cube_r.png,0.1,0.31,valid,57,57,0,up,8.506636099999014,None,space,0.40483879999919736,None,,,,,0,57,57,57,,,,,2519.0094929999996,,,,,,,,,,,,,2518.9937668000002,2519.0094929999996,2519.0094929999996,2519.0094929999996,2527.5184843999996,,,,2527.524828899999,2527.5363641999993,2527.5363641999993,2527.584363,2527.5846003000006,2527.6007358000006,2527.6007358000006,2527.6007358000006,2527.6840881000007,2528.018010399999,,,,,,,,up,8.506636099999014,None,space,0.40483879999919736,None,,,,,,,,,,,,,,,P139,001,2025-04-08_09h30.33.380,posner_endo_new1,2024.2.4,60.07254360378146,2025-04-08 09h30.39.954903 +0100,
cube_r.png,0.1,-0.31,invalid,58,58,0,up,5.601804899999479,None,space,0.3954777999988437,None,,,,,0,58,58,58,,,,,2528.0336903000007,,,,,,,,,,,,,2528.018192899999,2528.0336903000007,2528.0336903000007,2528.0336903000007,2533.6453237999995,,,,2533.6516732,2533.6633375,2533.6633375,2533.7112992,2533.7115357000002,2533.7280155999997,2533.7280155999997,2533.7280155999997,2533.7943926999997,2534.128382000001,,,,,,,,up,5.601804899999479,None,space,0.3954777999988437,None,,,,,,,,,,,,,,,P139,001,2025-04-08_09h30.33.380,posner_endo_new1,2024.2.4,60.07254360378146,2025-04-08 09h30.39.954903 +0100,
cube_l.png,0.1,0.31,invalid,59,59,0,up,7.858838400001332,None,space,0.4661153999986709,None,,,,,0,59,59,59,,,,,2534.1441947000003,,,,,,,,,,,,,2534.1285663,2534.1441947000003,2534.1441947000003,2534.1441947000003,2542.003837800001,,,,2542.0101875,2542.0217408000008,2542.0217408000008,2542.0693143999997,2542.0695576,2542.0858866,2542.0858866,2542.0858866,2542.1694105000006,2542.5531467,,,,,,,,up,7.858838400001332,None,space,0.4661153999986709,None,,,,,,,,,,,,,,,P139,001,2025-04-08_09h30.33.380,posner_endo_new1,2024.2.4,60.07254360378146,2025-04-08 09h30.39.954903 +0100,
,,,,,,,,,,,,,,,,,,,,,,,,,,,,,,,,,,,,,,,,,,,,,,,,,,,,,,,,,,,,,,,,,,,,,2542.5532681999994,2542.5687651999997,2542.5687651999997,2602.5739372999997,2606.4048108999996,space,63.83447929999966,None,,,,,,,P139,001,2025-04-08_09h30.33.380,posner_endo_new1,2024.2.4,60.07254360378146,2025-04-08 09h30.39.954903 +0100,
,,,,,,,,,,,,,,,,,,,,,,,,,,,,,,,,,,2606.4048963000005,2606.4200036,2609.4968731999998,2609.4011171,,,,,,,,,,,,,,,,,,,,,,,,,,,,,,,,,,,,,,,,,,,,,,P139,001,2025-04-08_09h30.33.380,posner_endo_new1,2024.2.4,60.07254360378146,2025-04-08 09h30.39.954903 +0100,
cube_l.png,0.1,10,catch,0,0,0,down,11.314509899999393,None,None,,,,,,,,,,,0,0,0,0,2609.4968731999998,,,,,,,,,,,,,2609.4886704,2609.4968731999998,2609.4968731999998,2609.4968731999998,2620.8229396000006,,,,2620.8290228000005,2620.8405003000007,2620.8405003000007,2620.888588,2620.8888308000005,2620.9052909,2620.9052909,2620.9052909,2620.9885722,2623.902769099999,,,,2623.0029921999994,2623.9188194,2623.9188194,2623.9188194,,,,,,,,,,,,,,,down,11.314509899999393,None,None,,,P139,001,2025-04-08_09h30.33.380,posner_endo_new1,2024.2.4,60.07254360378146,2025-04-08 09h30.39.954903 +0100,
cube_l.png,0.1,10,catch,1,1,0,down,2.9640909999998257,None,None,,,,,,,,,,,0,1,1,1,2623.9188194,,,,,,,,,,,,,2623.9029439999995,2623.9188194,2623.9188194,2623.9188194,2626.899865199999,,,,2626.9058446,2626.9171332999995,2626.9171332999995,2626.9658223999995,2626.966061700001,2626.982214400001,2626.982214400001,2626.982214400001,2627.048904200001,2629.9798637999993,,,,2629.0634869999994,2629.9958208000007,2629.9958208000007,2629.9958208000007,,,,,,,,,,,,,,,down,2.9640909999998257,None,None,,,P139,001,2025-04-08_09h30.33.380,posner_endo_new1,2024.2.4,60.07254360378146,2025-04-08 09h30.39.954903 +0100,
cube_l.png,0.1,0.31,invalid,2,2,0,down,6.471683100000519,None,space,0.4848632000012003,None,,,,,,,,,0,2,2,2,2629.9958208000007,,,,,,,,,,,,,2629.9800369000004,2629.9958208000007,2629.9958208000007,2629.9958208000007,2636.4734406000007,,,,2636.4793902,2636.4911864999995,2636.4911864999995,2636.5392429000003,2636.5394832,2636.5559754999995,2636.5559754999995,2636.5559754999995,2636.6389227,2637.0561997999994,,,,,,,,,,,,,,,,,,,,,,down,6.471683100000519,None,space,0.4848632000012003,None,P139,001,2025-04-08_09h30.33.380,posner_endo_new1,2024.2.4,60.07254360378146,2025-04-08 09h30.39.954903 +0100,
cube_l.png,0.1,0.31,invalid,3,3,0,down,8.251728000001094,None,space,0.42199149999942165,None,,,,,,,,,0,3,3,3,2637.0720416000004,,,,,,,,,,,,,2637.0563834000004,2637.0720416000004,2637.0720416000004,2637.0720416000004,2645.3307320000004,,,,2645.3368394999998,2645.3483075999993,2645.3483075999993,2645.3969932,2645.397231499999,2645.4135248000002,2645.4135248000002,2645.4135248000002,2645.4802019,2645.8472636000006,,,,,,,,,,,,,,,,,,,,,,down,8.251728000001094,None,space,0.42199149999942165,None,P139,001,2025-04-08_09h30.33.380,posner_endo_new1,2024.2.4,60.07254360378146,2025-04-08 09h30.39.954903 +0100,
cube_l.png,0.1,-0.31,valid,4,4,0,down,6.812138500001311,None,space,0.40753899999981513,None,,,,,,,,,0,4,4,4,2645.862972000001,,,,,,,,,,,,,2645.8474468999993,2645.862972000001,2645.862972000001,2645.862972000001,2652.6905129999996,,,,2652.7003707999993,2652.7106798999994,2652.7106798999994,2652.7559930999996,2652.7563121999992,2652.7726889000005,2652.7726889000005,2652.7726889000005,2652.8558309,2653.189988100001,,,,,,,,,,,,,,,,,,,,,,down,6.812138500001311,None,space,0.40753899999981513,None,P139,001,2025-04-08_09h30.33.380,posner_endo_new1,2024.2.4,60.07254360378146,2025-04-08 09h30.39.954903 +0100,
cube_r.png,0.1,-0.31,invalid,5,5,0,down,5.310363300000972,None,space,0.44977019999896584,None,,,,,,,,,0,5,5,5,2653.2054707999996,,,,,,,,,,,,,2653.190253500001,2653.2054707999996,2653.2054707999996,2653.2054707999996,2658.5179661,,,,2658.5275304999996,2658.5378978999997,2658.5378978999997,2658.5835097,2658.583833999999,2658.6000198,2658.6000198,2658.6000198,2658.6832966,2659.0509230000007,,,,,,,,,,,,,,,,,,,,,,down,5.310363300000972,None,space,0.44977019999896584,None,P139,001,2025-04-08_09h30.33.380,posner_endo_new1,2024.2.4,60.07254360378146,2025-04-08 09h30.39.954903 +0100,
cube_r.png,0.1,0.31,valid,6,6,0,down,7.009105600000112,None,space,0.43686840000009397,None,,,,,,,,,0,6,6,6,2659.0661058000005,,,,,,,,,,,,,2659.0511865000008,2659.0661058000005,2659.0661058000005,2659.0661058000005,2666.0763134999997,,,,2666.0822783999993,2666.0940100999997,2666.0940100999997,2666.1424776000003,2666.1427189000005,2666.1587980999993,2666.1587980999993,2666.1587980999993,2666.2254042999994,2666.6093660000006,,,,,,,,,,,,,,,,,,,,,,down,7.009105600000112,None,space,0.43686840000009397,None,P139,001,2025-04-08_09h30.33.380,posner_endo_new1,2024.2.4,60.07254360378146,2025-04-08 09h30.39.954903 +0100,
cube_r.png,0.1,-0.31,invalid,7,7,0,down,5.026260900000125,None,space,0.3810327999999572,None,,,,,,,,,0,7,7,7,2666.6249528000008,,,,,,,,,,,,,2666.6095523000004,2666.6249528000008,2666.6249528000008,2666.6249528000008,2671.6539095000007,,,,2671.6599177999997,2671.6716013000005,2671.6716013000005,2671.7200567,2671.7202982,2671.7366483999995,2671.7366483999995,2671.7366483999995,2671.8031553,2672.120257299999,,,,,,,,,,,,,,,,,,,,,,down,5.026260900000125,None,space,0.3810327999999572,None,P139,001,2025-04-08_09h30.33.380,posner_endo_new1,2024.2.4,60.07254360378146,2025-04-08 09h30.39.954903 +0100,
cube_l.png,0.1,-0.31,valid,8,8,0,down,4.059133299999303,None,space,0.3638721000006626,None,,,,,,,,,0,8,8,8,2672.136047,,,,,,,,,,,,,2672.1204405999997,2672.136047,2672.136047,2672.136047,2676.1995121,,,,2676.2054589,2676.2170910000004,2676.2170910000004,2676.265169099999,2676.265405599999,2676.2819289,2676.2819289,2676.2819289,2676.3655856999994,2676.6489344,,,,,,,,,,,,,,,,,,,,,,down,4.059133299999303,None,space,0.3638721000006626,None,P139,001,2025-04-08_09h30.33.380,posner_endo_new1,2024.2.4,60.07254360378146,2025-04-08 09h30.39.954903 +0100,
cube_r.png,0.1,-0.31,invalid,9,9,0,down,6.2749657000003936,None,space,0.3616466000003129,None,,,,,,,,,0,9,9,9,2676.664775200001,,,,,,,,,,,,,2676.649127999999,2676.664775200001,2676.664775200001,2676.664775200001,2682.9425668999993,,,,2682.948521099999,2682.9602400999993,2682.9602400999993,2683.0084984000005,2683.0087359999998,2683.0248708,2683.0248708,2683.0248708,2683.1082812999994,2683.3921671000007,,,,,,,,,,,,,,,,,,,,,,down,6.2749657000003936,None,space,0.3616466000003129,None,P139,001,2025-04-08_09h30.33.380,posner_endo_new1,2024.2.4,60.07254360378146,2025-04-08 09h30.39.954903 +0100,
cube_l.png,0.1,0.31,invalid,10,10,0,down,6.299302900000839,None,space,0.35578159999931813,None,,,,,,,,,0,10,10,10,2683.4077419000005,,,,,,,,,,,,,2683.3923562,2683.4077419000005,2683.4077419000005,2683.4077419000005,2689.7193659999994,,,,2689.7333452000003,2689.7438141000002,2689.7438141000002,2689.7847853000003,2689.7850894999992,2689.8012688,2689.8012688,2689.8012688,2689.8846092999993,2690.1689380000007,,,,,,,,,,,,,,,,,,,,,,down,6.299302900000839,None,space,0.35578159999931813,None,P139,001,2025-04-08_09h30.33.380,posner_endo_new1,2024.2.4,60.07254360378146,2025-04-08 09h30.39.954903 +0100,
cube_r.png,0.1,-0.31,invalid,11,11,0,down,5.275843699999314,None,space,0.37866759999997157,None,,,,,,,,,0,11,11,11,2690.1839741000003,,,,,,,,,,,,,2690.1693245000006,2690.1839741000003,2690.1839741000003,2690.1839741000003,2695.4627526999993,,,,2695.4688485000006,2695.4799812,2695.4799812,2695.5286925,2695.5291438000004,2695.5451419,2695.5451419,2695.5451419,2695.6283948,2695.9299740999995,,,,,,,,,,,,,,,,,,,,,,down,5.275843699999314,None,space,0.37866759999997157,None,P139,001,2025-04-08_09h30.33.380,posner_endo_new1,2024.2.4,60.07254360378146,2025-04-08 09h30.39.954903 +0100,
cube_r.png,0.1,0.31,valid,12,12,0,down,5.682957499999247,None,space,0.3490679000005912,None,,,,,,,,,0,12,12,12,2695.9447419000007,,,,,,,,,,,,,2695.9303536000007,2695.9447419000007,2695.9447419000007,2695.9447419000007,2701.6407916000007,,,,2701.6505992,2701.6607929,2701.6607929,2701.7060813999997,2701.7064088000006,2701.7224791999997,2701.7224791999997,2701.7224791999997,2701.8055544,2702.0733708999996,,,,,,,,,,,,,,,,,,,,,,down,5.682957499999247,None,space,0.3490679000005912,None,P139,001,2025-04-08_09h30.33.380,posner_endo_new1,2024.2.4,60.07254360378146,2025-04-08 09h30.39.954903 +0100,
cube_l.png,0.1,10,catch,13,13,0,down,5.7465940000001865,None,None,,,,,,,,,,,0,13,13,13,2702.0888175,,,,,,,,,,,,,2702.0736674,2702.0888175,2702.0888175,2702.0888175,2707.8507265000007,,,,2707.8602658,2707.8707931999998,2707.8707931999998,2707.9162885000005,2707.9166072999997,2707.9327261,2707.9327261,2707.9327261,2708.015969599999,2710.9303634000007,,,,2710.0305501000003,2710.946197699999,2710.946197699999,2710.946197699999,,,,,,,,,,,,,,,down,5.7465940000001865,None,None,,,P139,001,2025-04-08_09h30.33.380,posner_endo_new1,2024.2.4,60.07254360378146,2025-04-08 09h30.39.954903 +0100,
cube_r.png,0.1,-0.31,invalid,14,14,0,down,5.841557399999147,None,space,0.501840999999331,None,,,,,,,,,0,14,14,14,2710.946197699999,,,,,,,,,,,,,2710.930623,2710.946197699999,2710.946197699999,2710.946197699999,2716.7915147999993,,,,2716.801011899999,2716.811358499999,2716.811358499999,2716.8570751000007,2716.8573944,2716.8736597999996,2716.8736597999996,2716.8736597999996,2716.956800600001,2717.3908637000004,,,,,,,,,,,,,,,,,,,,,,down,5.841557399999147,None,space,0.501840999999331,None,P139,001,2025-04-08_09h30.33.380,posner_endo_new1,2024.2.4,60.07254360378146,2025-04-08 09h30.39.954903 +0100,
cube_l.png,0.1,-0.31,valid,15,15,0,down,9.701153800000611,None,space,0.37596970000049623,None,,,,,,,,,0,15,15,15,2717.4063595999996,,,,,,,,,,,,,2717.3911253000006,2717.4063595999996,2717.4063595999996,2717.4063595999996,2727.1143426,,,,2727.1238333,2727.134094700001,2727.134094700001,2727.1798782999995,2727.1801937,2727.1962280000007,2727.1962280000007,2727.1962280000007,2727.279643600001,2727.5803832,,,,,,,,,,,,,,,,,,,,,,down,9.701153800000611,None,space,0.37596970000049623,None,P139,001,2025-04-08_09h30.33.380,posner_endo_new1,2024.2.4,60.07254360378146,2025-04-08 09h30.39.954903 +0100,
cube_r.png,0.1,10,catch,16,16,0,down,5.471454399999857,None,None,,,,,,,,,,,0,16,16,16,2727.5959485999992,,,,,,,,,,,,,2727.5806527000004,2727.5959485999992,2727.5959485999992,2727.5959485999992,2733.0747582000004,,,,2733.0842044,2733.094415899999,2733.094415899999,2733.1403554999997,2733.140674099999,2733.156964399999,2733.156964399999,2733.156964399999,2733.2401613,2736.1544563999996,,,,2735.254775199999,2736.1703407999994,2736.1703407999994,2736.1703407999994,,,,,,,,,,,,,,,down,5.471454399999857,None,None,,,P139,001,2025-04-08_09h30.33.380,posner_endo_new1,2024.2.4,60.07254360378146,2025-04-08 09h30.39.954903 +0100,
cube_r.png,0.1,10,catch,17,17,0,down,7.673099999999977,None,None,,,,,,,,,,,0,17,17,17,2736.1703407999994,,,,,,,,,,,,,2736.154702,2736.1703407999994,2736.1703407999994,2736.1703407999994,2743.847127700001,,,,2743.8566298000005,2743.866890200001,2743.866890200001,2743.9128053999993,2743.9131254999993,2743.9292124000003,2743.9292124000003,2743.9292124000003,2744.0123136,2746.9269095,,,,2746.0271639000002,2746.9427822,2746.9427822,2746.9427822,,,,,,,,,,,,,,,down,7.673099999999977,None,None,,,P139,001,2025-04-08_09h30.33.380,posner_endo_new1,2024.2.4,60.07254360378146,2025-04-08 09h30.39.954903 +0100,
cube_l.png,0.1,0.31,invalid,18,18,0,down,4.812958599999547,None,space,0.48620540000047185,None,,,,,,,,,0,18,18,18,2746.9427822,,,,,,,,,,,,,2746.9271573999995,2746.9427822,2746.9427822,2746.9427822,2751.7723232999997,,,,2751.7818000999996,2751.7917935999994,2751.7917935999994,2751.8377820000005,2751.8381011,2751.8544168999997,2751.8544168999997,2751.8544168999997,2751.9376018000003,2752.3550419000003,,,,,,,,,,,,,,,,,,,,,,down,4.812958599999547,None,space,0.48620540000047185,None,P139,001,2025-04-08_09h30.33.380,posner_endo_new1,2024.2.4,60.07254360378146,2025-04-08 09h30.39.954903 +0100,
cube_l.png,0.1,10,catch,19,19,0,down,6.104835599999205,None,None,,,,,,,,,,,0,19,19,19,2752.3704583,,,,,,,,,,,,,2752.3553133000005,2752.3704583,2752.3704583,2752.3704583,2758.482062700001,,,,2758.4915605000006,2758.5018817,2758.5018817,2758.547778,2758.5481008999996,2758.564117,2758.564117,2758.564117,2758.6474724,2761.5617466999993,,,,2760.6620998,2761.577774900001,2761.577774900001,2761.577774900001,,,,,,,,,,,,,,,down,6.104835599999205,None,None,,,P139,001,2025-04-08_09h30.33.380,posner_endo_new1,2024.2.4,60.07254360378146,2025-04-08 09h30.39.954903 +0100,
cube_l.png,0.1,0.31,invalid,20,20,0,down,4.065727599998354,None,space,0.4811700000009296,None,,,,,,,,,0,20,20,20,2761.577774900001,,,,,,,,,,,,,2761.5619960000004,2761.577774900001,2761.577774900001,2761.577774900001,2765.6581662999997,,,,2765.6676635999993,2765.6780653999995,2765.6780653999995,2765.7235825999996,2765.7239013,2765.7402285000007,2765.7402285000007,2765.7402285000007,2765.823322,2766.2243431999996,,,,,,,,,,,,,,,,,,,,,,down,4.065727599998354,None,space,0.4811700000009296,None,P139,001,2025-04-08_09h30.33.380,posner_endo_new1,2024.2.4,60.07254360378146,2025-04-08 09h30.39.954903 +0100,
cube_l.png,0.1,-0.31,valid,21,21,0,down,15.156258999999409,None,space,0.3729961999997613,None,,,,,,,,,0,21,21,21,2766.2396654999993,,,,,,,,,,,,,2766.2246054999996,2766.2396654999993,2766.2396654999993,2766.2396654999993,2781.4086320000006,,,,2781.4181162000004,2781.4285211000006,2781.4285211000006,2781.4740877999993,2781.4744059000004,2781.4907399999993,2781.4907399999993,2781.4907399999993,2781.573834500001,2781.8746957999992,,,,,,,,,,,,,,,,,,,,,,down,15.156258999999409,None,space,0.3729961999997613,None,P139,001,2025-04-08_09h30.33.380,posner_endo_new1,2024.2.4,60.07254360378146,2025-04-08 09h30.39.954903 +0100,
cube_r.png,0.1,0.31,valid,22,22,0,down,6.672914799999489,None,space,0.46087400000033085,None,,,,,,,,,0,22,22,22,2781.8903425000008,,,,,,,,,,,,,2781.8749651,2781.8903425000008,2781.8903425000008,2781.8903425000008,2788.5680919999995,,,,2788.5777063999994,2788.5880073999997,2788.5880073999997,2788.6335762,2788.633899799999,2788.6499962,2788.6499962,2788.6499962,2788.7333565999998,2789.117354600001,,,,,,,,,,,,,,,,,,,,,,down,6.672914799999489,None,space,0.46087400000033085,None,P139,001,2025-04-08_09h30.33.380,posner_endo_new1,2024.2.4,60.07254360378146,2025-04-08 09h30.39.954903 +0100,
cube_r.png,0.1,-0.31,invalid,23,23,0,down,10.470563900000343,None,space,0.41434210000079474,None,,,,,,,,,0,23,23,23,2789.1327469000007,,,,,,,,,,,,,2789.1176156,2789.1327469000007,2789.1327469000007,2789.1327469000007,2799.606613,,,,2799.6160997999996,2799.626411200001,2799.626411200001,2799.672181600001,2799.6725248000002,2799.6888022000003,2799.6888022000003,2799.6888022000003,2799.7719141,2800.1062241,,,,,,,,,,,,,,,,,,,,,,down,10.470563900000343,None,space,0.41434210000079474,None,P139,001,2025-04-08_09h30.33.380,posner_endo_new1,2024.2.4,60.07254360378146,2025-04-08 09h30.39.954903 +0100,
cube_r.png,0.1,0.31,valid,24,24,0,down,11.36917589999939,None,space,0.7237999000008131,None,,,,,,,,,0,24,24,24,2800.1217257000008,,,,,,,,,,,,,2800.1064869,2800.1217257000008,2800.1217257000008,2800.1217257000008,2811.4940193,,,,2811.500037399999,2811.5115415,2811.5115415,2811.5598049,2811.5602646999996,2811.5762407,2811.5762407,2811.5762407,2811.6594969,2812.3105164999997,,,,,,,,,,,,,,,,,,,,,,down,11.36917589999939,None,space,0.7237999000008131,None,P139,001,2025-04-08_09h30.33.380,posner_endo_new1,2024.2.4,60.07254360378146,2025-04-08 09h30.39.954903 +0100,
cube_r.png,0.1,-0.31,invalid,25,25,0,down,13.109348399999362,None,space,0.42473340000105964,None,,,,,,,,,0,25,25,25,2812.3254899000003,,,,,,,,,,,,,2812.3109119,2812.3254899000003,2812.3254899000003,2812.3254899000003,2825.4467387000004,,,,2825.4562189000007,2825.4664668000005,2825.4664668000005,2825.5123378000008,2825.5126576000002,2825.5290322,2825.5290322,2825.5290322,2825.6121853000004,2825.9628586,,,,,,,,,,,,,,,,,,,,,,down,13.109348399999362,None,space,0.42473340000105964,None,P139,001,2025-04-08_09h30.33.380,posner_endo_new1,2024.2.4,60.07254360378146,2025-04-08 09h30.39.954903 +0100,
cube_l.png,0.1,-0.31,valid,26,26,0,down,10.95270040000105,None,space,0.3936964000004082,None,,,,,,,,,0,26,26,26,2825.9784180000006,,,,,,,,,,,,,2825.963118400001,2825.9784180000006,2825.9784180000006,2825.9784180000006,2836.9351783,,,,2836.9446169000003,2836.9548911,2836.9548911,2837.0005913999994,2837.000907899999,2837.0172237999996,2837.0172237999996,2837.0172237999996,2837.100431499999,2837.4178859999993,,,,,,,,,,,,,,,,,,,,,,down,10.95270040000105,None,space,0.3936964000004082,None,P139,001,2025-04-08_09h30.33.380,posner_endo_new1,2024.2.4,60.07254360378146,2025-04-08 09h30.39.954903 +0100,
cube_r.png,0.1,0.31,valid,27,27,0,down,9.03339330000017,None,space,0.3582929000003787,None,,,,,,,,,0,27,27,27,2837.4334923000006,,,,,,,,,,,,,2837.4181541,2837.4334923000006,2837.4334923000006,2837.4334923000006,2846.4751208,,,,2846.484505799999,2846.4949075999994,2846.4949075999994,2846.5408540999997,2846.5411712999994,2846.5574182,2846.5574182,2846.5574182,2846.6406088999993,2846.9247603000003,,,,,,,,,,,,,,,,,,,,,,down,9.03339330000017,None,space,0.3582929000003787,None,P139,001,2025-04-08_09h30.33.380,posner_endo_new1,2024.2.4,60.07254360378146,2025-04-08 09h30.39.954903 +0100,
cube_r.png,0.1,10,catch,28,28,0,down,2.1671330999997735,None,None,,,,,,,,,,,0,28,28,28,2846.9403609,,,,,,,,,,,,,2846.9250293000005,2846.9403609,2846.9403609,2846.9403609,2849.1224777999996,,,,2849.1319225999996,2849.1422705000004,2849.1422705000004,2849.1881458000007,2849.1884711000002,2849.2046938000003,2849.2046938000003,2849.2046938000003,2849.2879207999995,2852.2023049,,,,2851.3025192999994,2852.2181973000006,2852.2181973000006,2852.2181973000006,,,,,,,,,,,,,,,down,2.1671330999997735,None,None,,,P139,001,2025-04-08_09h30.33.380,posner_endo_new1,2024.2.4,60.07254360378146,2025-04-08 09h30.39.954903 +0100,
cube_r.png,0.1,0.31,valid,29,29,0,down,16.576984600000287,None,space,0.43400260000089474,None,,,,,,,,,0,29,29,29,2852.2181973000006,,,,,,,,,,,,,2852.2025503999994,2852.2181973000006,2852.2181973000006,2852.2181973000006,2868.801920600001,,,,2868.8083379,2868.819905799999,2868.819905799999,2868.8684847000004,2868.8687310000005,2868.8843615999995,2868.8843615999995,2868.8843615999995,2868.9676297999995,2869.3347539999995,,,,,,,,,,,,,,,,,,,,,,down,16.576984600000287,None,space,0.43400260000089474,None,P139,001,2025-04-08_09h30.33.380,posner_endo_new1,2024.2.4,60.07254360378146,2025-04-08 09h30.39.954903 +0100,
cube_r.png,0.1,0.31,valid,30,30,0,down,7.476367900000696,None,space,0.35970369999995455,None,,,,,,,,,0,30,30,30,2869.3505724999995,,,,,,,,,,,,,2869.3349366,2869.3505724999995,2869.3505724999995,2869.3505724999995,2876.8438676000005,,,,2876.8535873,2876.8635875,2876.8635875,2876.9097306999993,2876.9100564,2876.9262586000004,2876.9262586000004,2876.9262586000004,2877.0095968000005,2877.2939019000005,,,,,,,,,,,,,,,,,,,,,,down,7.476367900000696,None,space,0.35970369999995455,None,P139,001,2025-04-08_09h30.33.380,posner_endo_new1,2024.2.4,60.07254360378146,2025-04-08 09h30.39.954903 +0100,
cube_l.png,0.1,-0.31,valid,31,31,0,down,4.797638999998526,None,space,0.45129070000075444,None,,,,,,,,,0,31,31,31,2877.3092383999992,,,,,,,,,,,,,2877.2941804,2877.3092383999992,2877.3092383999992,2877.3092383999992,2882.1219922,,,,2882.1314033,2882.1417678,2882.1417678,2882.187717999999,2882.1880419999998,2882.2043016000007,2882.2043016000007,2882.2043016000007,2882.2874374000003,2882.6714938000005,,,,,,,,,,,,,,,,,,,,,,down,4.797638999998526,None,space,0.45129070000075444,None,P139,001,2025-04-08_09h30.33.380,posner_endo_new1,2024.2.4,60.07254360378146,2025-04-08 09h30.39.954903 +0100,
cube_r.png,0.1,0.31,valid,32,32,0,down,10.339925300000687,None,space,0.4244245999998384,None,,,,,,,,,0,32,32,32,2882.6870474000007,,,,,,,,,,,,,2882.6717795000004,2882.6870474000007,2882.6870474000007,2882.6870474000007,2893.044180000001,,,,2893.0537093000003,2893.0637485000007,2893.0637485000007,2893.1099237,2893.1102432000007,2893.1263705,2893.1263705,2893.1263705,2893.2095993000003,2893.5602249000003,,,,,,,,,,,,,,,,,,,,,,down,10.339925300000687,None,space,0.4244245999998384,None,P139,001,2025-04-08_09h30.33.380,posner_endo_new1,2024.2.4,60.07254360378146,2025-04-08 09h30.39.954903 +0100,
cube_r.png,0.1,-0.31,invalid,33,33,0,down,14.011300399999527,None,space,0.3489497999999003,None,,,,,,,,,0,33,33,33,2893.5758005999996,,,,,,,,,,,,,2893.5604886,2893.5758005999996,2893.5758005999996,2893.5758005999996,2907.5959086000003,,,,2907.6049660999997,2907.6147674000003,2907.6147674000003,2907.661456399999,2907.6616995999993,2907.6780467999997,2907.6780467999997,2907.6780467999997,2907.7612038999996,2908.028763800001,,,,,,,,,,,,,,,,,,,,,,down,14.011300399999527,None,space,0.3489497999999003,None,P139,001,2025-04-08_09h30.33.380,posner_endo_new1,2024.2.4,60.07254360378146,2025-04-08 09h30.39.954903 +0100,
cube_r.png,0.1,10,catch,34,34,0,down,3.2869982000011078,None,None,,,,,,,,,,,0,34,34,34,2908.0444989999996,,,,,,,,,,,,,2908.0289539999994,2908.0444989999996,2908.0444989999996,2908.0444989999996,2911.3416727999993,,,,2911.3479649,2911.3594861,2911.3594861,2911.407619899999,2911.4078601,2911.4239414999993,2911.4239414999993,2911.4239414999993,2911.4907194999996,2914.421580800001,,,,2913.5053479,2914.4377074000004,2914.4377074000004,2914.4377074000004,,,,,,,,,,,,,,,down,3.2869982000011078,None,None,,,P139,001,2025-04-08_09h30.33.380,posner_endo_new1,2024.2.4,60.07254360378146,2025-04-08 09h30.39.954903 +0100,
cube_r.png,0.1,0.31,valid,35,35,0,down,7.732955100000254,None,space,0.41094390000034764,None,,,,,,,,,0,35,35,35,2914.4377074000004,,,,,,,,,,,,,2914.421752099999,2914.4377074000004,2914.4377074000004,2914.4377074000004,2922.1803836,,,,2922.1868151,2922.1983997000007,2922.1983997000007,2922.2466489,2922.246896299999,2922.2631347000006,2922.2631347000006,2922.2631347000006,2922.3298300999995,2922.6802219,,,,,,,,,,,,,,,,,,,,,,down,7.732955100000254,None,space,0.41094390000034764,None,P139,001,2025-04-08_09h30.33.380,posner_endo_new1,2024.2.4,60.07254360378146,2025-04-08 09h30.39.954903 +0100,
cube_r.png,0.1,-0.31,invalid,36,36,0,down,8.587298700000247,None,space,0.4211596000004647,None,,,,,,,,,0,36,36,36,2922.6961082,,,,,,,,,,,,,2922.6804054000004,2922.6961082,2922.6961082,2922.6961082,2931.2883748000004,,,,2931.300712,2931.3108709999997,2931.3108709999997,2931.353597200001,2931.353997,2931.3700814999993,2931.3700814999993,2931.3700814999993,2931.4532954000006,2931.8044403000004,,,,,,,,,,,,,,,,,,,,,,down,8.587298700000247,None,space,0.4211596000004647,None,P139,001,2025-04-08_09h30.33.380,posner_endo_new1,2024.2.4,60.07254360378146,2025-04-08 09h30.39.954903 +0100,
cube_l.png,0.1,0.31,invalid,37,37,0,down,10.81532259999949,None,space,0.3826048000009905,None,,,,,,,,,0,37,37,37,2931.819607900001,,,,,,,,,,,,,2931.8047910999994,2931.819607900001,2931.819607900001,2931.819607900001,2942.6432934999993,,,,2942.6556339,2942.6657861000003,2942.6657861000003,2942.7089364999993,2942.7092128000004,2942.725552,2942.725552,2942.725552,2942.808666000001,2943.1094152000005,,,,,,,,,,,,,,,,,,,,,,down,10.81532259999949,None,space,0.3826048000009905,None,P139,001,2025-04-08_09h30.33.380,posner_endo_new1,2024.2.4,60.07254360378146,2025-04-08 09h30.39.954903 +0100,
cube_l.png,0.1,0.31,invalid,38,38,0,down,18.22218840000096,None,space,0.375903100000869,None,,,,,,,,,0,38,38,38,2943.124948999999,,,,,,,,,,,,,2943.1096385,2943.124948999999,2943.124948999999,2943.124948999999,2961.357371100001,,,,2961.369751,2961.3798800000004,2961.3798800000004,2961.422780499999,2961.4232140000004,2961.4392396000003,2961.4392396000003,2961.4392396000003,2961.5225002999996,2961.8236386999997,,,,,,,,,,,,,,,,,,,,,,down,18.22218840000096,None,space,0.375903100000869,None,P139,001,2025-04-08_09h30.33.380,posner_endo_new1,2024.2.4,60.07254360378146,2025-04-08 09h30.39.954903 +0100,
cube_r.png,0.1,0.31,valid,39,39,0,down,6.299820599999293,None,space,0.37280310000096506,None,,,,,,,,,0,39,39,39,2961.8388393999994,,,,,,,,,,,,,2961.8239802000007,2961.8388393999994,2961.8388393999994,2961.8388393999994,2968.1504385999997,,,,2968.1628249999994,2968.1729632000006,2968.1729632000006,2968.2162205999994,2968.2165086999994,2968.232647500001,2968.232647500001,2968.232647500001,2968.3159840999997,2968.6167585000003,,,,,,,,,,,,,,,,,,,,,,down,6.299820599999293,None,space,0.37280310000096506,None,P139,001,2025-04-08_09h30.33.380,posner_endo_new1,2024.2.4,60.07254360378146,2025-04-08 09h30.39.954903 +0100,
cube_l.png,0.1,0.31,invalid,40,40,0,down,14.60309640000014,None,space,0.4209284000007756,None,,,,,,,,,0,40,40,40,2968.6322982,,,,,,,,,,,,,2968.6169979999995,2968.6322982,2968.6322982,2968.6322982,2983.2515280000007,,,,2983.259197199999,2983.2701478,2983.2701478,2983.3173497000007,2983.3176249000007,2983.3338193,2983.3338193,2983.3338193,2983.4171296999994,2983.7676460000002,,,,,,,,,,,,,,,,,,,,,,down,14.60309640000014,None,space,0.4209284000007756,None,P139,001,2025-04-08_09h30.33.380,posner_endo_new1,2024.2.4,60.07254360378146,2025-04-08 09h30.39.954903 +0100,
cube_l.png,0.1,10,catch,41,41,0,down,6.47602310000002,None,None,,,,,,,,,,,0,41,41,41,2983.783391499999,,,,,,,,,,,,,2983.7678701000004,2983.783391499999,2983.783391499999,2983.783391499999,2990.2612214,,,,2990.2688732999995,2990.279692,2990.279692,2990.3268454999998,2990.3271306999995,2990.3433766,2990.3433766,2990.3433766,2990.4265806000003,2993.340808499999,,,,2992.4411156999995,2993.3569921,2993.3569921,2993.3569921,,,,,,,,,,,,,,,down,6.47602310000002,None,None,,,P139,001,2025-04-08_09h30.33.380,posner_endo_new1,2024.2.4,60.07254360378146,2025-04-08 09h30.39.954903 +0100,
cube_l.png,0.1,-0.31,valid,42,42,0,down,2.309978499999488,None,space,0.4185465999998996,None,,,,,,,,,0,42,42,42,2993.3569921,,,,,,,,,,,,,2993.341015600001,2993.3569921,2993.3569921,2993.3569921,2995.6722247,,,,2995.6798806000006,2995.6907818,2995.6907818,2995.7379715000006,2995.738247699999,2995.7545087,2995.7545087,2995.7545087,2995.8377194999994,2996.188337899999,,,,,,,,,,,,,,,,,,,,,,down,2.309978499999488,None,space,0.4185465999998996,None,P139,001,2025-04-08_09h30.33.380,posner_endo_new1,2024.2.4,60.07254360378146,2025-04-08 09h30.39.954903 +0100,
cube_l.png,0.1,10,catch,43,43,0,down,5.702978400000575,None,None,,,,,,,,,,,0,43,43,43,2996.2040149999993,,,,,,,,,,,,,2996.188559099999,2996.2040149999993,2996.2040149999993,2996.2040149999993,3001.9157264999994,,,,3001.9233979,3001.934618200001,3001.934618200001,3001.9815424999997,3001.9817851999996,3001.9980976000006,3001.9980976000006,3001.9980976000006,3002.0812286,3004.9955905000006,,,,3004.0958243000005,3005.0114663000004,3005.0114663000004,3005.0114663000004,,,,,,,,,,,,,,,down,5.702978400000575,None,None,,,P139,001,2025-04-08_09h30.33.380,posner_endo_new1,2024.2.4,60.07254360378146,2025-04-08 09h30.39.954903 +0100,
cube_l.png,0.1,0.31,invalid,44,44,0,down,5.3592148000007,None,space,0.39200589999927615,None,,,,,,,,,0,44,44,44,3005.0114663000004,,,,,,,,,,,,,3004.9957618000008,3005.0114663000004,3005.0114663000004,3005.0114663000004,3010.3733725,,,,3010.3793103999997,3010.3907968000003,3010.3907968000003,3010.4395074000004,3010.4397470999993,3010.4560595000003,3010.4560595000003,3010.4560595000003,3010.5227385,3010.8565682000008,,,,,,,,,,,,,,,,,,,,,,down,5.3592148000007,None,space,0.39200589999927615,None,P139,001,2025-04-08_09h30.33.380,posner_endo_new1,2024.2.4,60.07254360378146,2025-04-08 09h30.39.954903 +0100,
cube_l.png,0.1,0.31,invalid,45,45,0,down,12.99469019999924,None,space,0.4117108000009466,None,,,,,,,,,0,45,45,45,3010.871922800001,,,,,,,,,,,,,3010.856750499999,3010.871922800001,3010.871922800001,3010.871922800001,3023.8763132999993,,,,3023.8823159999993,3023.8938031,3023.8938031,3023.9423879000005,3023.9426253,3023.9588387000003,3023.9588387000003,3023.9588387000003,3024.0255976999997,3024.3761541999993,,,,,,,,,,,,,,,,,,,,,,down,12.99469019999924,None,space,0.4117108000009466,None,P139,001,2025-04-08_09h30.33.380,posner_endo_new1,2024.2.4,60.07254360378146,2025-04-08 09h30.39.954903 +0100,
cube_r.png,0.1,0.31,valid,46,46,0,down,6.595448599999145,None,space,0.3494159000001673,None,,,,,,,,,0,46,46,46,3024.3919124000004,,,,,,,,,,,,,3024.3763381999997,3024.3919124000004,3024.3919124000004,3024.3919124000004,3031.002551400001,,,,3031.0086334000007,3031.020058599999,3031.020058599999,3031.0684192999997,3031.0686587,3031.0849094999994,3031.0849094999994,3031.0849094999994,3031.1515359000005,3031.4354220999994,,,,,,,,,,,,,,,,,,,,,,down,6.595448599999145,None,space,0.3494159000001673,None,P139,001,2025-04-08_09h30.33.380,posner_endo_new1,2024.2.4,60.07254360378146,2025-04-08 09h30.39.954903 +0100,
cube_l.png,0.1,-0.31,valid,47,47,0,down,21.39931489999981,None,space,0.35855699999956414,None,,,,,,,,,0,47,47,47,3031.451082400001,,,,,,,,,,,,,3031.4356064999993,3031.451082400001,3031.451082400001,3031.451082400001,3052.8634454000003,,,,3052.8694754000007,3052.881171000001,3052.881171000001,3052.9295316999996,3052.9297707000005,3052.9459172000006,3052.9459172000006,3052.9459172000006,3053.0123719000003,3053.3131436000003,,,,,,,,,,,,,,,,,,,,,,down,21.39931489999981,None,space,0.35855699999956414,None,P139,001,2025-04-08_09h30.33.380,posner_endo_new1,2024.2.4,60.07254360378146,2025-04-08 09h30.39.954903 +0100,
cube_r.png,0.1,-0.31,invalid,48,48,0,down,7.3934262999991915,None,space,0.5650144000010187,None,,,,,,,,,0,48,48,48,3053.3289341,,,,,,,,,,,,,3053.3133374999998,3053.3289341,3053.3289341,3053.3289341,3060.739157600001,,,,3060.7486069000006,3060.7586026999998,3060.7586026999998,3060.8046773000005,3060.8049935,3060.8211322000006,3060.8211322000006,3060.8211322000006,3060.9044553000003,3061.388484700001,,,,,,,,,,,,,,,,,,,,,,down,7.3934262999991915,None,space,0.5650144000010187,None,P139,001,2025-04-08_09h30.33.380,posner_endo_new1,2024.2.4,60.07254360378146,2025-04-08 09h30.39.954903 +0100,
cube_r.png,0.1,10,catch,49,49,0,down,12.663209099999222,None,None,,,,,,,,,,,0,49,49,49,3061.4039429000004,,,,,,,,,,,,,3061.3887455999993,3061.4039429000004,3061.4039429000004,3061.4039429000004,3074.075299100001,,,,3074.0847501999997,3074.0949560999998,3074.0949560999998,3074.1411045000004,3074.1414265999992,3074.157602200001,3074.157602200001,3074.157602200001,3074.2407256000006,3077.155070999999,,,,3076.2553664000006,3077.1710731999992,3077.1710731999992,3077.1710731999992,,,,,,,,,,,,,,,down,12.663209099999222,None,None,,,P139,001,2025-04-08_09h30.33.380,posner_endo_new1,2024.2.4,60.07254360378146,2025-04-08 09h30.39.954903 +0100,
cube_l.png,0.1,-0.31,valid,50,50,0,down,4.183574900000167,None,space,0.4313318000004074,None,,,,,,,,,0,50,50,50,3077.1710731999992,,,,,,,,,,,,,3077.155316300001,3077.1710731999992,3077.1710731999992,3077.1710731999992,3081.3680148000003,,,,3081.3774957999995,3081.3878401,3081.3878401,3081.4335818,3081.4339007,3081.4501347999994,3081.4501347999994,3081.4501347999994,3081.5332725000007,3081.8839547000007,,,,,,,,,,,,,,,,,,,,,,down,4.183574900000167,None,space,0.4313318000004074,None,P139,001,2025-04-08_09h30.33.380,posner_endo_new1,2024.2.4,60.07254360378146,2025-04-08 09h30.39.954903 +0100,
cube_l.png,0.1,-0.31,valid,51,51,0,down,15.447575700000016,None,space,0.37534169999889855,None,,,,,,,,,0,51,51,51,3081.8996346999993,,,,,,,,,,,,,3081.8842193,3081.8996346999993,3081.8996346999993,3081.8996346999993,3097.3516,,,,3097.3610967000004,3097.3713559999997,3097.3713559999997,3097.4172118000006,3097.4175348999997,3097.4336746999998,3097.4336746999998,3097.4336746999998,3097.5169265000004,3097.8176745,,,,,,,,,,,,,,,,,,,,,,down,15.447575700000016,None,space,0.37534169999889855,None,P139,001,2025-04-08_09h30.33.380,posner_endo_new1,2024.2.4,60.07254360378146,2025-04-08 09h30.39.954903 +0100,
cube_r.png,0.1,-0.31,invalid,52,52,0,down,6.329455100001724,None,space,0.70738860000165,None,,,,,,,,,0,52,52,52,3097.8332732,,,,,,,,,,,,,3097.817939299999,3097.8332732,3097.8332732,3097.8332732,3104.1777991,,,,3104.1872301000003,3104.1974525999995,3104.1974525999995,3104.243505300001,3104.2438428999994,3104.2600253,3104.2600253,3104.2600253,3104.3432200000007,3104.977095,,,,,,,,,,,,,,,,,,,,,,down,6.329455100001724,None,space,0.70738860000165,None,P139,001,2025-04-08_09h30.33.380,posner_endo_new1,2024.2.4,60.07254360378146,2025-04-08 09h30.39.954903 +0100,
cube_l.png,0.1,-0.31,valid,53,53,0,down,7.586230599999908,None,space,0.41831120000097144,None,,,,,,,,,0,53,53,53,3104.992668000001,,,,,,,,,,,,,3104.9773637,3104.992668000001,3104.992668000001,3104.992668000001,3112.5858898000006,,,,3112.5951224,3112.604912500001,3112.604912500001,3112.6515096000003,3112.651748,3112.6679822999995,3112.6679822999995,3112.6679822999995,3112.7513197999997,3113.1017549999997,,,,,,,,,,,,,,,,,,,,,,down,7.586230599999908,None,space,0.41831120000097144,None,P139,001,2025-04-08_09h30.33.380,posner_endo_new1,2024.2.4,60.07254360378146,2025-04-08 09h30.39.954903 +0100,
cube_r.png,0.1,10,catch,54,54,0,down,8.61367539999992,None,space,0.33154579999973066,None,,,,,,,,,0,54,54,54,3113.1176562,,,,,,,,,,,,,3113.1019352000003,3113.1176562,3113.1176562,3113.1176562,3121.7429508999994,,,,3121.7489203000005,3121.7604642000006,3121.7604642000006,3121.8088465,3121.8090881000007,3121.8252267000007,3121.8252267000007,3121.8252267000007,3121.891942800001,3122.159445200001,,,,,,,,,,,,,,,,,,,,,,down,8.61367539999992,None,space,0.33154579999973066,None,P139,001,2025-04-08_09h30.33.380,posner_endo_new1,2024.2.4,60.07254360378146,2025-04-08 09h30.39.954903 +0100,
cube_l.png,0.1,0.31,invalid,55,55,0,down,3.028379800000039,None,space,0.5057250000008935,None,,,,,,,,,0,55,55,55,3122.1748480000006,,,,,,,,,,,,,3122.1596250000002,3122.1748480000006,3122.1748480000006,3122.1748480000006,3125.2060027000007,,,,3125.211817900001,3125.2233299,3125.2233299,3125.2718518,3125.2720910000007,3125.2883874,3125.2883874,3125.2883874,3125.3716053999997,3125.8052050999995,,,,,,,,,,,,,,,,,,,,,,down,3.028379800000039,None,space,0.5057250000008935,None,P139,001,2025-04-08_09h30.33.380,posner_endo_new1,2024.2.4,60.07254360378146,2025-04-08 09h30.39.954903 +0100,
cube_l.png,0.1,-0.31,valid,56,56,0,down,7.774039099998845,None,space,0.5594619999992574,None,,,,,,,,,0,56,56,56,3125.8211561000007,,,,,,,,,,,,,3125.805388999999,3125.8211561000007,3125.8211561000007,3125.8211561000007,3133.5973925,,,,3133.6032773999996,3133.6147848,3133.6147848,3133.6633327,3133.6635757000004,3133.6798739999995,3133.6798739999995,3133.6798739999995,3133.7631468,3134.2467435,,,,,,,,,,,,,,,,,,,,,,down,7.774039099998845,None,space,0.5594619999992574,None,P139,001,2025-04-08_09h30.33.380,posner_endo_new1,2024.2.4,60.07254360378146,2025-04-08 09h30.39.954903 +0100,
cube_r.png,0.1,0.31,valid,57,57,0,down,7.724294999999984,None,space,0.43438330000026326,None,,,,,,,,,0,57,57,57,3134.2624756000005,,,,,,,,,,,,,3134.2469256000004,3134.2624756000005,3134.2624756000005,3134.2624756000005,3141.9887892999996,,,,3141.9961903999993,3142.0076212999993,3142.0076212999993,3142.054795,3142.055350299999,3142.0712277000002,3142.0712277000002,3142.0712277000002,3142.1377754999994,3142.522784500001,,,,,,,,,,,,,,,,,,,,,,down,7.724294999999984,None,space,0.43438330000026326,None,P139,001,2025-04-08_09h30.33.380,posner_endo_new1,2024.2.4,60.07254360378146,2025-04-08 09h30.39.954903 +0100,
cube_r.png,0.1,-0.31,invalid,58,58,0,down,10.209744600000704,None,space,0.46123939999961294,None,,,,,,,,,0,58,58,58,3142.5374085999993,,,,,,,,,,,,,3142.5232717,3142.5374085999993,3142.5374085999993,3142.5374085999993,3152.7622362,,,,3152.780385599999,3152.7918542000007,3152.7918542000007,3152.8270379000005,3152.8274132999995,3152.8436151999995,3152.8436151999995,3152.8436151999995,3152.9268696,3153.3109182000007,,,,,,,,,,,,,,,,,,,,,,down,10.209744600000704,None,space,0.46123939999961294,None,P139,001,2025-04-08_09h30.33.380,posner_endo_new1,2024.2.4,60.07254360378146,2025-04-08 09h30.39.954903 +0100,
cube_l.png,0.1,0.31,invalid,59,59,0,down,11.589747199999692,None,space,0.536833399999523,None,,,,,,,,,0,59,59,59,3153.3262992,,,,,,,,,,,,,3153.3112151999994,3153.3262992,3153.3262992,3153.3262992,3164.9321120999994,,,,3164.9393277,3164.9507957999995,3164.9507957999995,3164.997776,3164.9980405999995,3165.0142378,3165.0142378,3165.0142378,3165.097783200001,3165.5646693,,,,,,,,,,,,,,,,,,,,,,down,11.589747199999692,None,space,0.536833399999523,None,P139,001,2025-04-08_09h30.33.380,posner_endo_new1,2024.2.4,60.07254360378146,2025-04-08 09h30.39.954903 +0100,
