cue_img,cue_soa,target_x,trial,thisN,thisTrialN,thisRepN,key_control2.keys,key_control2.rt,key_control2.duration,key_resp.keys,key_resp.rt,key_resp.duration,practice.thisRepN,practice.thisTrialN,practice.thisN,practice.thisIndex,block1.thisRepN,block1.thisTrialN,block1.thisN,block1.thisIndex,block2.thisRepN,block2.thisTrialN,block2.thisN,block2.thisIndex,thisRow.t,notes,instructions.started,instructions_txt.started,key_control.started,instructions.stopped,key_control.keys,key_control.rt,key_control.duration,ready.started,ready_txt.started,ready_txt.stopped,ready.stopped,fix.started,fixation.started,key_control2.started,fixation_cross.started,fix.stopped,practice.key_control2.keys,practice.key_control2.rt,practice.key_control2.duration,cue.started,cube.started,fixation_cross_cue.started,cue.stopped,target.started,fixation_target.started,fixation_cross_target.started,key_resp.started,star.started,target.stopped,practice.key_resp.keys,practice.key_resp.rt,practice.key_resp.duration,star.stopped,fixation_target.stopped,fixation_cross_target.stopped,key_resp.stopped,block1.key_control2.keys,block1.key_control2.rt,block1.key_control2.duration,block1.key_resp.keys,block1.key_resp.rt,block1.key_resp.duration,break_2.started,text.started,key_control3.started,text.stopped,break_2.stopped,key_control3.keys,key_control3.rt,key_control3.duration,block2.key_control2.keys,block2.key_control2.rt,block2.key_control2.duration,block2.key_resp.keys,block2.key_resp.rt,block2.key_resp.duration,participant,session,date,expName,psychopyVersion,frameRate,expStart,
,,,,,,,,,,,,,,,,,,,,,,,,,,,0.007415599997329991,0.022737499999493593,0.022737499999493593,28.416725699997187,up,28.377942600000097,None,,,,,,,,,,,,,,,,,,,,,,,,,,,,,,,,,,,,,,,,,,,,,,,,,,P140,001,2025-04-08_13h26.25.789,posner_endo_new1,2024.2.4,60.00146403682932,2025-04-08 13h26.33.469984 +0100,
,,,,,,,,,,,,,,,,,,,,,,,,,,,,,,,,,,28.416804699998465,28.428513899998507,31.42763019999984,31.40841129999899,,,,,,,,,,,,,,,,,,,,,,,,,,,,,,,,,,,,,,,,,,,,,,P140,001,2025-04-08_13h26.25.789,posner_endo_new1,2024.2.4,60.00146403682932,2025-04-08 13h26.33.469984 +0100,
cube_r.png,0.1,-0.31,invalid,0,0,0,up,16.49266179999904,None,space,0.428908699999738,None,0,0,0,6,,,,,,,,,31.42763019999984,,,,,,,,,,,,,31.41555629999857,31.42763019999984,31.42763019999984,31.42763019999984,47.92559699999765,up,16.49266179999904,None,47.94116269999722,47.95424549999734,47.95424549999734,47.991076799997245,47.99130889999651,48.007680299997446,48.007680299997446,48.007680299997446,48.09076059999643,48.44137889999911,space,0.428908699999738,None,,,,,,,,,,,,,,,,,,,,,,,,,P140,001,2025-04-08_13h26.25.789,posner_endo_new1,2024.2.4,60.00146403682932,2025-04-08 13h26.33.469984 +0100,
cube_r.png,0.1,0.31,valid,1,1,0,up,5.79992140000104,None,space,0.421536499998183,None,0,1,1,7,,,,,,,,,48.457131899998785,,,,,,,,,,,,,48.44155449999744,48.457131899998785,48.457131899998785,48.457131899998785,54.26893479999853,up,5.79992140000104,None,54.279576399996586,54.28975069999797,54.28975069999797,54.33470779999698,54.33503429999837,54.35132839999642,54.35132839999642,54.35132839999642,54.43432129999928,54.78499269999884,space,0.421536499998183,None,,,,,,,,,,,,,,,,,,,,,,,,,P140,001,2025-04-08_13h26.25.789,posner_endo_new1,2024.2.4,60.00146403682932,2025-04-08 13h26.33.469984 +0100,
cube_l.png,0.1,-0.31,valid,2,2,0,up,6.463685000002442,None,space,0.4276341000004322,None,0,2,2,8,,,,,,,,,54.80056799999875,,,,,,,,,,,,,54.78523629999836,54.80056799999875,54.80056799999875,54.80056799999875,61.27834329999678,up,6.463685000002442,None,61.28881289999845,61.29912539999714,61.29912539999714,61.344004399998084,61.344330799998716,61.360482899999624,61.360482899999624,61.360482899999624,61.443850499999826,61.79481409999789,space,0.4276341000004322,None,,,,,,,,,,,,,,,,,,,,,,,,,P140,001,2025-04-08_13h26.25.789,posner_endo_new1,2024.2.4,60.00146403682932,2025-04-08 13h26.33.469984 +0100,
cube_r.png,0.1,10,catch,3,3,0,up,7.430220800000825,None,None,,,0,3,3,3,,,,,,,,,61.80998699999691,,,,,,,,,,,,,61.795062499997584,61.80998699999691,61.80998699999691,61.80998699999691,69.2535078999972,up,7.430220800000825,None,69.26439189999655,69.27435379999952,69.27435379999952,69.31917699999758,69.3194943999988,69.33575479999854,69.33575479999854,69.33575479999854,69.4189673999972,72.33336599999893,None,,,71.43344819999766,72.34916829999929,72.34916829999929,72.34916829999929,,,,,,,,,,,,,,,,,,,,,P140,001,2025-04-08_13h26.25.789,posner_endo_new1,2024.2.4,60.00146403682932,2025-04-08 13h26.33.469984 +0100,
cube_l.png,0.1,-0.31,valid,4,4,0,up,10.011505499998748,None,space,0.5506796999979997,None,0,4,4,4,,,,,,,,,72.34916829999929,,,,,,,,,,,,,72.33359449999989,72.34916829999929,72.34916829999929,72.34916829999929,82.37361019999662,up,10.011505499998748,None,82.38348139999653,82.39363109999977,82.39363109999977,82.43916029999673,82.43947599999956,82.45566489999692,82.45566489999692,82.45566489999692,82.53887029999896,83.0228412999968,space,0.5506796999979997,None,,,,,,,,,,,,,,,,,,,,,,,,,P140,001,2025-04-08_13h26.25.789,posner_endo_new1,2024.2.4,60.00146403682932,2025-04-08 13h26.33.469984 +0100,
cube_r.png,0.1,0.31,valid,5,5,0,up,7.577793500000553,None,space,0.4390060000005178,None,0,5,5,10,,,,,,,,,83.03831039999932,,,,,,,,,,,,,83.02309399999649,83.03831039999932,83.03831039999932,83.03831039999932,90.63166329999876,up,7.577793500000553,None,90.64140239999688,90.65163579999717,90.65163579999717,90.69732839999779,90.69764729999952,90.7136619999983,90.7136619999983,90.7136619999983,90.79716559999724,91.16444109999793,space,0.4390060000005178,None,,,,,,,,,,,,,,,,,,,,,,,,,P140,001,2025-04-08_13h26.25.789,posner_endo_new1,2024.2.4,60.00146403682932,2025-04-08 13h26.33.469984 +0100,
cube_r.png,0.1,-0.31,invalid,6,6,0,up,10.908594399999856,None,space,0.433065400000487,None,0,6,6,9,,,,,,,,,91.17998519999674,,,,,,,,,,,,,91.16468989999703,91.17998519999674,91.17998519999674,91.17998519999674,102.10328519999894,up,10.908594399999856,None,102.11331139999675,102.1233859999993,102.1233859999993,102.1689344999977,102.16924879999715,102.18521959999998,102.18521959999998,102.18521959999998,102.26859539999714,102.61953449999783,space,0.433065400000487,None,,,,,,,,,,,,,,,,,,,,,,,,,P140,001,2025-04-08_13h26.25.789,posner_endo_new1,2024.2.4,60.00146403682932,2025-04-08 13h26.33.469984 +0100,
cube_l.png,0.1,0.31,invalid,7,7,0,up,7.733335900000384,None,space,0.4193414000001212,None,0,7,7,5,,,,,,,,,102.63497319999806,,,,,,,,,,,,,102.61978069999896,102.63497319999806,102.63497319999806,102.63497319999806,110.37817429999996,up,7.733335900000384,None,110.38719309999942,110.39700269999958,110.39700269999958,110.4436751999965,110.44392069999958,110.46027949999916,110.46027949999916,110.46027949999916,110.5434282999995,110.89401539999744,space,0.4193414000001212,None,,,,,,,,,,,,,,,,,,,,,,,,,P140,001,2025-04-08_13h26.25.789,posner_endo_new1,2024.2.4,60.00146403682932,2025-04-08 13h26.33.469984 +0100,
cube_r.png,0.1,-0.31,invalid,8,8,0,up,19.611201799998526,None,space,0.49126799999794457,None,0,8,8,2,,,,,,,,,110.90980089999721,,,,,,,,,,,,,110.89418279999882,110.90980089999721,110.90980089999721,110.90980089999721,130.52385559999675,up,19.611201799998526,None,130.53064679999807,130.54241979999642,130.54241979999642,130.58974599999783,130.5899853999981,130.60617159999674,130.60617159999674,130.60617159999674,130.67301419999785,131.10634749999736,space,0.49126799999794457,None,,,,,,,,,,,,,,,,,,,,,,,,,P140,001,2025-04-08_13h26.25.789,posner_endo_new1,2024.2.4,60.00146403682932,2025-04-08 13h26.33.469984 +0100,
cube_l.png,0.1,0.31,invalid,9,9,0,up,8.093561199999385,None,space,0.4329604000013205,None,0,9,9,1,,,,,,,,,131.1225979999981,,,,,,,,,,,,,131.10652059999848,131.1225979999981,131.1225979999981,131.1225979999981,139.23155479999696,up,8.093561199999385,None,139.2380314999973,139.24958519999927,139.24958519999927,139.29737479999676,139.2976155999968,139.31408190000002,139.31408190000002,139.31408190000002,139.38058719999754,139.74783639999805,space,0.4329604000013205,None,,,,,,,,,,,,,,,,,,,,,,,,,P140,001,2025-04-08_13h26.25.789,posner_endo_new1,2024.2.4,60.00146403682932,2025-04-08 13h26.33.469984 +0100,
cube_l.png,0.1,-0.31,valid,10,10,0,up,8.133182400000806,None,space,0.4602751000020362,None,0,10,10,0,,,,,,,,,139.76350119999915,,,,,,,,,,,,,139.74801089999892,139.76350119999915,139.76350119999915,139.76350119999915,147.9060049999971,up,8.133182400000806,None,147.9122411999997,147.9237104999993,147.9237104999993,147.97206799999913,147.9723157999979,147.98843799999668,147.98843799999668,147.98843799999668,148.07189399999697,148.45547089999673,space,0.4602751000020362,None,,,,,,,,,,,,,,,,,,,,,,,,,P140,001,2025-04-08_13h26.25.789,posner_endo_new1,2024.2.4,60.00146403682932,2025-04-08 13h26.33.469984 +0100,
,,,,,,,,,,,,,,,,,,,,,,,,,,,,,,,,,,148.45558579999852,148.4713767999965,151.47220579999703,151.45199939999657,,,,,,,,,,,,,,,,,,,,,,,,,,,,,,,,,,,,,,,,,,,,,,P140,001,2025-04-08_13h26.25.789,posner_endo_new1,2024.2.4,60.00146403682932,2025-04-08 13h26.33.469984 +0100,
cube_l.png,0.1,10,catch,0,0,0,up,5.153129199999967,None,None,,,,,,,0,0,0,0,,,,,151.47220579999703,,,,,,,,,,,,,151.46326529999715,151.47220579999703,151.47220579999703,151.47220579999703,156.63045999999667,,,,156.63684499999727,156.6483847999989,156.6483847999989,156.69631939999817,156.69656079999913,156.71293939999669,156.71293939999669,156.71293939999669,156.79606309999872,159.71029089999865,,,,158.8105938999979,159.7264088999982,159.7264088999982,159.7264088999982,up,5.153129199999967,None,None,,,,,,,,,,,,,,,,,P140,001,2025-04-08_13h26.25.789,posner_endo_new1,2024.2.4,60.00146403682932,2025-04-08 13h26.33.469984 +0100,
cube_l.png,0.1,10,catch,1,1,0,up,7.449795399999857,None,None,,,,,,,0,1,1,1,,,,,159.7264088999982,,,,,,,,,,,,,159.7104619999991,159.7264088999982,159.7264088999982,159.7264088999982,167.18601509999644,,,,167.19207079999978,167.20349029999852,167.20349029999852,167.25212419999662,167.25236389999918,167.26877369999784,167.26877369999784,167.26877369999784,167.33523559999958,170.26633789999687,,,,169.35027689999697,170.28250259999913,170.28250259999913,170.28250259999913,up,7.449795399999857,None,None,,,,,,,,,,,,,,,,,P140,001,2025-04-08_13h26.25.789,posner_endo_new1,2024.2.4,60.00146403682932,2025-04-08 13h26.33.469984 +0100,
cube_l.png,0.1,0.31,invalid,2,2,0,up,7.4053965999992215,None,space,0.49873680000018794,None,,,,,0,2,2,2,,,,,170.28250259999913,,,,,,,,,,,,,170.26650629999858,170.28250259999913,170.28250259999913,170.28250259999913,177.69224149999718,,,,177.69854759999726,177.71009609999965,177.71009609999965,177.75801259999935,177.75825659999828,177.77449499999784,177.77449499999784,177.77449499999784,177.8576835999993,178.27501979999943,,,,,,,,up,7.4053965999992215,None,space,0.49873680000018794,None,,,,,,,,,,,,,,,P140,001,2025-04-08_13h26.25.789,posner_endo_new1,2024.2.4,60.00146403682932,2025-04-08 13h26.33.469984 +0100,
cube_l.png,0.1,0.31,invalid,3,3,0,up,6.981059099998674,None,space,0.5198086999989755,None,,,,,0,3,3,3,,,,,178.290771699998,,,,,,,,,,,,,178.27521139999953,178.290771699998,178.290771699998,178.290771699998,185.2846206999966,,,,185.2906863999997,185.3022054999965,185.3022054999965,185.3506645999987,185.35090499999933,185.36682219999784,185.36682219999784,185.36682219999784,185.45021559999805,185.90055709999797,,,,,,,,up,6.981059099998674,None,space,0.5198086999989755,None,,,,,,,,,,,,,,,P140,001,2025-04-08_13h26.25.789,posner_endo_new1,2024.2.4,60.00146403682932,2025-04-08 13h26.33.469984 +0100,
cube_l.png,0.1,-0.31,valid,4,4,0,up,10.347795199999382,None,space,0.3632833000010578,None,,,,,0,4,4,4,,,,,185.9164204999979,,,,,,,,,,,,,185.90074169999934,185.9164204999979,185.9164204999979,185.9164204999979,196.27300039999682,,,,196.27946749999683,196.2911865999995,196.2911865999995,196.33903449999707,196.33927779999794,196.3553718999974,196.3553718999974,196.3553718999974,196.42220519999682,196.72272729999895,,,,,,,,up,10.347795199999382,None,space,0.3632833000010578,None,,,,,,,,,,,,,,,P140,001,2025-04-08_13h26.25.789,posner_endo_new1,2024.2.4,60.00146403682932,2025-04-08 13h26.33.469984 +0100,
cube_r.png,0.1,-0.31,invalid,5,5,0,up,7.678004500001407,None,space,0.41480520000186516,None,,,,,0,5,5,5,,,,,196.73859529999754,,,,,,,,,,,,,196.7229137999966,196.73859529999754,196.73859529999754,196.73859529999754,204.43129559999943,,,,204.43733079999947,204.44891839999764,204.44891839999764,204.49723619999713,204.49747729999945,204.5138483999981,204.5138483999981,204.5138483999981,204.58048829999825,204.93089739999778,,,,,,,,up,7.678004500001407,None,space,0.41480520000186516,None,,,,,,,,,,,,,,,P140,001,2025-04-08_13h26.25.789,posner_endo_new1,2024.2.4,60.00146403682932,2025-04-08 13h26.33.469984 +0100,
cube_r.png,0.1,0.31,valid,6,6,0,up,7.965421399996558,None,space,0.44639769999776036,None,,,,,0,6,6,6,,,,,204.9467964999967,,,,,,,,,,,,,204.93107539999983,204.9467964999967,204.9467964999967,204.9467964999967,212.92280179999943,,,,212.9290406,212.94062139999733,212.94062139999733,212.98860499999864,212.98884120000002,213.00514849999672,213.00514849999672,213.00514849999672,213.08835569999792,213.4554924999975,,,,,,,,up,7.965421399996558,None,space,0.44639769999776036,None,,,,,,,,,,,,,,,P140,001,2025-04-08_13h26.25.789,posner_endo_new1,2024.2.4,60.00146403682932,2025-04-08 13h26.33.469984 +0100,
cube_r.png,0.1,-0.31,invalid,7,7,0,up,9.417020100001537,None,space,0.5065804999976535,None,,,,,0,7,7,7,,,,,213.47143249999863,,,,,,,,,,,,,213.45567089999895,213.47143249999863,213.47143249999863,213.47143249999863,222.89579599999706,,,,222.9019060999999,222.9133348999967,222.9133348999967,222.96177109999917,222.96201479999945,222.97821029999977,222.97821029999977,222.97821029999977,223.06171019999965,223.49517429999833,,,,,,,,up,9.417020100001537,None,space,0.5065804999976535,None,,,,,,,,,,,,,,,P140,001,2025-04-08_13h26.25.789,posner_endo_new1,2024.2.4,60.00146403682932,2025-04-08 13h26.33.469984 +0100,
cube_l.png,0.1,-0.31,valid,8,8,0,up,9.392848199997388,None,space,0.4942477000004146,None,,,,,0,8,8,8,,,,,223.51107019999836,,,,,,,,,,,,,223.49535859999742,223.51107019999836,223.51107019999836,223.51107019999836,232.91898319999746,,,,232.9252575999999,232.936914599999,232.936914599999,232.9846043999969,232.98484349999853,233.0015504999974,233.0015504999974,233.0015504999974,233.06796009999744,233.50166759999775,,,,,,,,up,9.392848199997388,None,space,0.4942477000004146,None,,,,,,,,,,,,,,,P140,001,2025-04-08_13h26.25.789,posner_endo_new1,2024.2.4,60.00146403682932,2025-04-08 13h26.33.469984 +0100,
cube_r.png,0.1,-0.31,invalid,9,9,0,up,8.978563299999223,None,space,0.3880572999987635,None,,,,,0,9,9,9,,,,,233.51732499999707,,,,,,,,,,,,,233.50185139999667,233.51732499999707,233.51732499999707,233.51732499999707,242.5090876999966,,,,242.51530249999996,242.52693339999678,242.52693339999678,242.57498719999785,242.57522489999974,242.59161139999924,242.59161139999924,242.59161139999924,242.65809819999777,242.9920115999994,,,,,,,,up,8.978563299999223,None,space,0.3880572999987635,None,,,,,,,,,,,,,,,P140,001,2025-04-08_13h26.25.789,posner_endo_new1,2024.2.4,60.00146403682932,2025-04-08 13h26.33.469984 +0100,
cube_l.png,0.1,0.31,invalid,10,10,0,up,9.512158600002294,None,space,0.4650378999976965,None,,,,,0,10,10,10,,,,,243.00783199999933,,,,,,,,,,,,,242.99219149999772,243.00783199999933,243.00783199999933,243.00783199999933,252.53199229999882,,,,252.5381938999999,252.54997379999986,252.54997379999986,252.5980942999995,252.5983312999997,252.6145325999969,252.6145325999969,252.6145325999969,252.68110179999712,253.08186639999985,,,,,,,,up,9.512158600002294,None,space,0.4650378999976965,None,,,,,,,,,,,,,,,P140,001,2025-04-08_13h26.25.789,posner_endo_new1,2024.2.4,60.00146403682932,2025-04-08 13h26.33.469984 +0100,
cube_r.png,0.1,-0.31,invalid,11,11,0,up,10.526221300002362,None,space,0.38956360000156565,None,,,,,0,11,11,11,,,,,253.09754039999825,,,,,,,,,,,,,253.08205309999903,253.09754039999825,253.09754039999825,253.09754039999825,263.6373821999987,,,,263.64380329999767,263.6554585999984,263.6554585999984,263.70343079999657,263.7036711999972,263.719929699997,263.719929699997,263.719929699997,263.78630639999756,264.12038069999835,,,,,,,,up,10.526221300002362,None,space,0.38956360000156565,None,,,,,,,,,,,,,,,P140,001,2025-04-08_13h26.25.789,posner_endo_new1,2024.2.4,60.00146403682932,2025-04-08 13h26.33.469984 +0100,
cube_r.png,0.1,0.31,valid,12,12,0,up,9.855961199999001,None,space,0.41506870000011986,None,,,,,0,12,12,12,,,,,264.1361361999989,,,,,,,,,,,,,264.12056499999744,264.1361361999989,264.1361361999989,264.1361361999989,273.9939858999969,,,,274.00358979999874,274.01379889999953,274.01379889999953,274.05952629999956,274.0598429999991,274.07574569999997,274.07574569999997,274.07574569999997,274.15916859999925,274.49338219999845,,,,,,,,up,9.855961199999001,None,space,0.41506870000011986,None,,,,,,,,,,,,,,,P140,001,2025-04-08_13h26.25.789,posner_endo_new1,2024.2.4,60.00146403682932,2025-04-08 13h26.33.469984 +0100,
cube_l.png,0.1,10,catch,13,13,0,up,9.947149499999796,None,None,,,,,,,0,13,13,13,,,,,274.50880889999826,,,,,,,,,,,,,274.4936362999979,274.50880889999826,274.50880889999826,274.50880889999826,284.4663358999969,,,,284.4758726999971,284.4862119999998,284.4862119999998,284.5319915,284.5323056999987,284.54856199999995,284.54856199999995,284.54856199999995,284.63162779999766,287.5461123999994,,,,286.64640249999866,287.5621637999975,287.5621637999975,287.5621637999975,up,9.947149499999796,None,None,,,,,,,,,,,,,,,,,P140,001,2025-04-08_13h26.25.789,posner_endo_new1,2024.2.4,60.00146403682932,2025-04-08 13h26.33.469984 +0100,
cube_r.png,0.1,-0.31,invalid,14,14,0,up,5.702092799998354,None,space,0.9160856000016793,None,,,,,0,14,14,14,,,,,287.5621637999975,,,,,,,,,,,,,287.54636089999985,287.5621637999975,287.5621637999975,287.5621637999975,293.27412619999814,,,,293.28362579999884,293.29389529999753,293.29389529999753,293.3397181,293.3400362999964,293.3560136999986,293.3560136999986,293.3560136999986,293.4394001999972,294.2731877999977,,,,,,,,up,5.702092799998354,None,space,0.9160856000016793,None,,,,,,,,,,,,,,,P140,001,2025-04-08_13h26.25.789,posner_endo_new1,2024.2.4,60.00146403682932,2025-04-08 13h26.33.469984 +0100,
cube_l.png,0.1,-0.31,valid,15,15,0,up,8.855415800000628,None,space,0.42530290000286186,None,,,,,0,15,15,15,,,,,294.2885712999996,,,,,,,,,,,,,294.2734500999977,294.2885712999996,294.2885712999996,294.2885712999996,303.147269699999,,,,303.15673689999676,303.16714779999893,303.16714779999893,303.2127631999974,303.21308449999924,303.2294492999972,303.2294492999972,303.2294492999972,303.3126753999968,303.66344949999984,,,,,,,,up,8.855415800000628,None,space,0.42530290000286186,None,,,,,,,,,,,,,,,P140,001,2025-04-08_13h26.25.789,posner_endo_new1,2024.2.4,60.00146403682932,2025-04-08 13h26.33.469984 +0100,
cube_r.png,0.1,10,catch,16,16,0,up,8.72088679999797,None,None,,,,,,,0,16,16,16,,,,,303.6790880999979,,,,,,,,,,,,,303.6637189999965,303.6790880999979,303.6790880999979,303.6790880999979,312.4044224999998,,,,312.41401079999923,312.42432109999936,312.42432109999936,312.4698712999998,312.4701864999988,312.48653739999645,312.48653739999645,312.48653739999645,312.5696398,315.4842080999988,,,,314.58450769999763,315.50010739999925,315.50010739999925,315.50010739999925,up,8.72088679999797,None,None,,,,,,,,,,,,,,,,,P140,001,2025-04-08_13h26.25.789,posner_endo_new1,2024.2.4,60.00146403682932,2025-04-08 13h26.33.469984 +0100,
cube_r.png,0.1,10,catch,17,17,0,up,7.203568299999461,None,None,,,,,,,0,17,17,17,,,,,315.50010739999925,,,,,,,,,,,,,315.48445469999933,315.50010739999925,315.50010739999925,315.50010739999925,322.7103270999978,,,,322.71999389999837,322.7304798999976,322.7304798999976,322.7762745999971,322.7765984999969,322.7927958,322.7927958,322.7927958,322.87596279999707,325.7902534999994,,,,324.890321699997,325.80635789999724,325.80635789999724,325.80635789999724,up,7.203568299999461,None,None,,,,,,,,,,,,,,,,,P140,001,2025-04-08_13h26.25.789,posner_endo_new1,2024.2.4,60.00146403682932,2025-04-08 13h26.33.469984 +0100,
cube_l.png,0.1,0.31,invalid,18,18,0,up,5.449822400001722,None,space,0.4976408000002266,None,,,,,0,18,18,18,,,,,325.80635789999724,,,,,,,,,,,,,325.79049589999704,325.80635789999724,325.80635789999724,325.80635789999724,331.26841889999923,,,,331.2776372999979,331.2874754999975,331.2874754999975,331.33405479999783,331.3342928999991,331.3509465999996,331.3509465999996,331.3509465999996,331.43398629999865,331.8510564999997,,,,,,,,up,5.449822400001722,None,space,0.4976408000002266,None,,,,,,,,,,,,,,,P140,001,2025-04-08_13h26.25.789,posner_endo_new1,2024.2.4,60.00146403682932,2025-04-08 13h26.33.469984 +0100,
cube_l.png,0.1,10,catch,19,19,0,up,6.333577299999888,None,None,,,,,,,0,19,19,19,,,,,331.8667226999969,,,,,,,,,,,,,331.851232099998,331.8667226999969,331.8667226999969,331.8667226999969,338.21091279999746,,,,338.21731459999864,338.22889059999943,338.22889059999943,338.2769350999988,338.2771714999981,338.2935320999968,338.2935320999968,338.2935320999968,338.3602233999991,341.29137009999977,,,,340.37476409999726,341.30687999999645,341.30687999999645,341.30687999999645,up,6.333577299999888,None,None,,,,,,,,,,,,,,,,,P140,001,2025-04-08_13h26.25.789,posner_endo_new1,2024.2.4,60.00146403682932,2025-04-08 13h26.33.469984 +0100,
cube_l.png,0.1,0.31,invalid,20,20,0,up,7.125640599999315,None,space,0.451875700000528,None,,,,,0,20,20,20,,,,,341.30687999999645,,,,,,,,,,,,,341.29178839999804,341.30687999999645,341.30687999999645,341.30687999999645,348.43452649999745,,,,348.44574159999684,348.4560845999986,348.4560845999986,348.4999014999994,348.50025679999817,348.5163270999983,348.5163270999983,348.5163270999983,348.5995428999995,348.98378639999646,,,,,,,,up,7.125640599999315,None,space,0.451875700000528,None,,,,,,,,,,,,,,,P140,001,2025-04-08_13h26.25.789,posner_endo_new1,2024.2.4,60.00146403682932,2025-04-08 13h26.33.469984 +0100,
cube_l.png,0.1,-0.31,valid,21,21,0,up,9.144940199999837,None,space,0.49024590000044554,None,,,,,0,21,21,21,,,,,348.99922289999813,,,,,,,,,,,,,348.9840938999987,348.99922289999813,348.99922289999813,348.99922289999813,358.1572466999969,,,,358.1645620999989,358.1759999999995,358.1759999999995,358.2231355999975,358.2233994999988,358.23954599999706,358.23954599999706,358.23954599999706,358.3229362999991,358.73998629999915,,,,,,,,up,9.144940199999837,None,space,0.49024590000044554,None,,,,,,,,,,,,,,,P140,001,2025-04-08_13h26.25.789,posner_endo_new1,2024.2.4,60.00146403682932,2025-04-08 13h26.33.469984 +0100,
cube_r.png,0.1,0.31,valid,22,22,0,up,9.148508900001616,None,space,0.35513500000161,None,,,,,0,22,22,22,,,,,358.7557192999993,,,,,,,,,,,,,358.7401897999989,358.7557192999993,358.7557192999993,358.7557192999993,367.91393379999863,,,,367.9211830999993,367.9328612999998,367.9328612999998,367.97972409999784,367.97998639999787,367.996220099998,367.996220099998,367.996220099998,368.0795349,368.3632845999964,,,,,,,,up,9.148508900001616,None,space,0.35513500000161,None,,,,,,,,,,,,,,,P140,001,2025-04-08_13h26.25.789,posner_endo_new1,2024.2.4,60.00146403682932,2025-04-08 13h26.33.469984 +0100,
cube_r.png,0.1,-0.31,invalid,23,23,0,up,9.981135499998345,None,space,0.34427229999710107,None,,,,,0,23,23,23,,,,,368.3792541999974,,,,,,,,,,,,,368.3635015999971,368.3792541999974,368.3792541999974,368.3792541999974,378.3698513999989,,,,378.37721109999984,378.3886817999992,378.3886817999992,378.4358097999975,378.43607079999856,378.45230749999973,378.45230749999973,378.45230749999973,378.53554319999967,378.8029734999982,,,,,,,,up,9.981135499998345,None,space,0.34427229999710107,None,,,,,,,,,,,,,,,P140,001,2025-04-08_13h26.25.789,posner_endo_new1,2024.2.4,60.00146403682932,2025-04-08 13h26.33.469984 +0100,
cube_r.png,0.1,0.31,valid,24,24,0,up,9.493926099999953,None,space,0.4052516000010655,None,,,,,0,24,24,24,,,,,378.8183732999969,,,,,,,,,,,,,378.8031822999983,378.8183732999969,378.8183732999969,378.8183732999969,388.32619959999647,,,,388.33344809999835,388.3450172999983,388.3450172999983,388.39217989999815,388.39244899999903,388.40867159999834,388.40867159999834,388.40867159999834,388.47523819999697,388.8256987999994,,,,,,,,up,9.493926099999953,None,space,0.4052516000010655,None,,,,,,,,,,,,,,,P140,001,2025-04-08_13h26.25.789,posner_endo_new1,2024.2.4,60.00146403682932,2025-04-08 13h26.33.469984 +0100,
cube_r.png,0.1,-0.31,invalid,25,25,0,up,12.742553500000213,None,space,0.3975881999976991,None,,,,,0,25,25,25,,,,,388.84166119999645,,,,,,,,,,,,,388.82590589999745,388.84166119999645,388.84166119999645,388.84166119999645,401.5959335999978,,,,401.60321179999664,401.6148989999965,401.6148989999965,401.6619377999996,401.66219799999817,401.67825749999975,401.67825749999975,401.67825749999975,401.7450362999989,402.0790001999994,,,,,,,,up,12.742553500000213,None,space,0.3975881999976991,None,,,,,,,,,,,,,,,P140,001,2025-04-08_13h26.25.789,posner_endo_new1,2024.2.4,60.00146403682932,2025-04-08 13h26.33.469984 +0100,
cube_l.png,0.1,-0.31,valid,26,26,0,up,11.68909419999909,None,space,0.3970405000000028,None,,,,,0,26,26,26,,,,,402.0946784999978,,,,,,,,,,,,,402.07920909999666,402.0946784999978,402.0946784999978,402.0946784999978,413.8001213999996,,,,413.80625789999976,413.8177668999997,413.8177668999997,413.8661875999969,413.86642949999805,413.8827336999966,413.8827336999966,413.8827336999966,413.9493704999986,414.2829008999979,,,,,,,,up,11.68909419999909,None,space,0.3970405000000028,None,,,,,,,,,,,,,,,P140,001,2025-04-08_13h26.25.789,posner_endo_new1,2024.2.4,60.00146403682932,2025-04-08 13h26.33.469984 +0100,
cube_r.png,0.1,0.31,valid,27,27,0,up,9.709211200002756,None,space,0.4749030999992101,None,,,,,0,27,27,27,,,,,414.29883899999913,,,,,,,,,,,,,414.28308169999946,414.29883899999913,414.29883899999913,414.29883899999913,424.0235102999977,,,,424.03482959999747,424.0452837999983,424.0452837999983,424.0890686999992,424.0893302999975,424.10552449999886,424.10552449999886,424.10552449999886,424.188748499997,424.5891952999991,,,,,,,,up,9.709211200002756,None,space,0.4749030999992101,None,,,,,,,,,,,,,,,P140,001,2025-04-08_13h26.25.789,posner_endo_new1,2024.2.4,60.00146403682932,2025-04-08 13h26.33.469984 +0100,
cube_r.png,0.1,10,catch,28,28,0,up,9.84306099999958,None,None,,,,,,,0,28,28,28,,,,,424.60492389999854,,,,,,,,,,,,,424.589401199999,424.60492389999854,424.60492389999854,424.60492389999854,434.46236699999645,,,,434.4683539999969,434.47992899999736,434.47992899999736,434.52841889999763,434.5286638999969,434.5448191999967,434.5448191999967,434.5448191999967,434.61124279999785,437.542211699998,,,,436.6260897999964,437.5583267999973,437.5583267999973,437.5583267999973,up,9.84306099999958,None,None,,,,,,,,,,,,,,,,,P140,001,2025-04-08_13h26.25.789,posner_endo_new1,2024.2.4,60.00146403682932,2025-04-08 13h26.33.469984 +0100,
cube_r.png,0.1,0.31,valid,29,29,0,up,9.241580000001704,None,space,0.4468531999991683,None,,,,,0,29,29,29,,,,,437.5583267999973,,,,,,,,,,,,,437.5423884999982,437.5583267999973,437.5583267999973,437.5583267999973,446.81646459999683,,,,446.8228366999974,446.8340212999974,446.8340212999974,446.8822358999969,446.88247219999903,446.89880189999894,446.89880189999894,446.89880189999894,446.98207009999896,447.3493413999968,,,,,,,,up,9.241580000001704,None,space,0.4468531999991683,None,,,,,,,,,,,,,,,P140,001,2025-04-08_13h26.25.789,posner_endo_new1,2024.2.4,60.00146403682932,2025-04-08 13h26.33.469984 +0100,
cube_r.png,0.1,0.31,valid,30,30,0,up,9.266470099999424,None,space,0.77430269999968,None,,,,,0,30,30,30,,,,,447.36500539999906,,,,,,,,,,,,,447.3495178999983,447.36500539999906,447.36500539999906,447.36500539999906,456.63970229999904,,,,456.64600759999666,456.6583129999999,456.6583129999999,456.7055810999991,456.7061489999978,456.7219475999991,456.7219475999991,456.7219475999991,456.8052121999972,457.50627539999914,,,,,,,,up,9.266470099999424,None,space,0.77430269999968,None,,,,,,,,,,,,,,,P140,001,2025-04-08_13h26.25.789,posner_endo_new1,2024.2.4,60.00146403682932,2025-04-08 13h26.33.469984 +0100,
cube_l.png,0.1,-0.31,valid,31,31,0,up,11.49442149999959,None,space,0.5355983000008564,None,,,,,0,31,31,31,,,,,457.5211586999976,,,,,,,,,,,,,457.50671339999826,457.5211586999976,457.5211586999976,457.5211586999976,469.0275249999977,,,,469.03805779999675,469.04758389999915,469.04758389999915,469.0927441999993,469.0929909999977,469.1094544999978,469.1094544999978,469.1094544999978,469.19273299999986,469.6596985999968,,,,,,,,up,11.49442149999959,None,space,0.5355983000008564,None,,,,,,,,,,,,,,,P140,001,2025-04-08_13h26.25.789,posner_endo_new1,2024.2.4,60.00146403682932,2025-04-08 13h26.33.469984 +0100,
cube_r.png,0.1,0.31,valid,32,32,0,up,9.08455899999899,None,space,0.4323448000031931,None,,,,,0,32,32,32,,,,,469.67549009999857,,,,,,,,,,,,,469.6598916999974,469.67549009999857,469.67549009999857,469.67549009999857,478.7669367999988,,,,478.77362169999833,478.7853240999975,478.7853240999975,478.83279799999946,478.8330414999982,478.8493845999983,478.8493845999983,478.8493845999983,478.91613629999847,479.28333399999974,,,,,,,,up,9.08455899999899,None,space,0.4323448000031931,None,,,,,,,,,,,,,,,P140,001,2025-04-08_13h26.25.789,posner_endo_new1,2024.2.4,60.00146403682932,2025-04-08 13h26.33.469984 +0100,
cube_r.png,0.1,-0.31,invalid,33,33,0,up,11.005642800002533,None,space,0.40657459999783896,None,,,,,0,33,33,33,,,,,479.29876819999845,,,,,,,,,,,,,479.28352989999985,479.29876819999845,479.29876819999845,479.29876819999845,490.30536629999915,,,,490.31226499999684,490.3239427999979,490.3239427999979,490.3711091999976,490.3713448999988,490.38778679999814,490.38778679999814,490.38778679999814,490.4707976999998,490.80475859999933,,,,,,,,up,11.005642800002533,None,space,0.40657459999783896,None,,,,,,,,,,,,,,,P140,001,2025-04-08_13h26.25.789,posner_endo_new1,2024.2.4,60.00146403682932,2025-04-08 13h26.33.469984 +0100,
cube_r.png,0.1,10,catch,34,34,0,up,8.779326100000617,None,None,,,,,,,0,34,34,34,,,,,490.82050459999664,,,,,,,,,,,,,490.8049377999996,490.82050459999664,490.82050459999664,490.82050459999664,499.61233249999714,,,,499.61832909999794,499.6298078999971,499.6298078999971,499.6780977999988,499.67833739999696,499.6947193999986,499.6947193999986,499.6947193999986,499.77813009999954,502.69232329999795,,,,501.79257159999906,502.7083129999992,502.7083129999992,502.7083129999992,up,8.779326100000617,None,None,,,,,,,,,,,,,,,,,P140,001,2025-04-08_13h26.25.789,posner_endo_new1,2024.2.4,60.00146403682932,2025-04-08 13h26.33.469984 +0100,
cube_r.png,0.1,0.31,valid,35,35,0,up,18.668172400000913,None,space,0.5536503999974229,None,,,,,0,35,35,35,,,,,502.7083129999992,,,,,,,,,,,,,502.6925021999996,502.7083129999992,502.7083129999992,502.7083129999992,521.3899777999977,,,,521.3960046999964,521.4075108999969,521.4075108999969,521.4559058999985,521.4561461999983,521.472629099997,521.472629099997,521.472629099997,521.5389431999974,522.0393410999968,,,,,,,,up,18.668172400000913,None,space,0.5536503999974229,None,,,,,,,,,,,,,,,P140,001,2025-04-08_13h26.25.789,posner_endo_new1,2024.2.4,60.00146403682932,2025-04-08 13h26.33.469984 +0100,
cube_r.png,0.1,-0.31,invalid,36,36,0,up,5.4085569999988365,None,space,0.5610879999985627,None,,,,,0,36,36,36,,,,,522.0552399999979,,,,,,,,,,,,,522.0395223999985,522.0552399999979,522.0552399999979,522.0552399999979,527.4671185999978,,,,527.4731195999993,527.4842239999998,527.4842239999998,527.5330022999988,527.5335320999984,527.5494348999964,527.5494348999964,527.5494348999964,527.6326644999972,528.1173423,,,,,,,,up,5.4085569999988365,None,space,0.5610879999985627,None,,,,,,,,,,,,,,,P140,001,2025-04-08_13h26.25.789,posner_endo_new1,2024.2.4,60.00146403682932,2025-04-08 13h26.33.469984 +0100,
cube_l.png,0.1,0.31,invalid,37,37,0,up,7.043978300000163,None,space,0.4309112000009918,None,,,,,0,37,37,37,,,,,528.1321634999986,,,,,,,,,,,,,528.1177988999989,528.1321634999986,528.1321634999986,528.1321634999986,535.1929144999995,,,,535.2041572999988,535.2140957999982,535.2140957999982,535.2584861999967,535.2588411999968,535.2750277999985,535.2750277999985,535.2750277999985,535.3581842999993,535.7090702999994,,,,,,,,up,7.043978300000163,None,space,0.4309112000009918,None,,,,,,,,,,,,,,,P140,001,2025-04-08_13h26.25.789,posner_endo_new1,2024.2.4,60.00146403682932,2025-04-08 13h26.33.469984 +0100,
cube_l.png,0.1,0.31,invalid,38,38,0,up,5.867907199997717,None,space,0.48707509999803733,None,,,,,0,38,38,38,,,,,535.7244913999966,,,,,,,,,,,,,535.7093668999987,535.7244913999966,535.7244913999966,535.7244913999966,541.6030197999971,,,,541.6142633999989,541.6247142999964,541.6247142999964,541.6686717999983,541.6690510999979,541.6850403999997,541.6850403999997,541.6850403999997,541.7684167999978,542.185917499999,,,,,,,,up,5.867907199997717,None,space,0.48707509999803733,None,,,,,,,,,,,,,,,P140,001,2025-04-08_13h26.25.789,posner_endo_new1,2024.2.4,60.00146403682932,2025-04-08 13h26.33.469984 +0100,
cube_r.png,0.1,0.31,valid,39,39,0,up,8.36628859999837,None,space,0.37312219999876106,None,,,,,0,39,39,39,,,,,542.2012133999997,,,,,,,,,,,,,542.1862202999982,542.2012133999997,542.2012133999997,542.2012133999997,550.5774021999969,,,,550.5886309999987,550.5990004999985,550.5990004999985,550.6429878999988,550.643253299997,550.6591247999968,550.6591247999968,550.6591247999968,550.7423328999976,551.0433223,,,,,,,,up,8.36628859999837,None,space,0.37312219999876106,None,,,,,,,,,,,,,,,P140,001,2025-04-08_13h26.25.789,posner_endo_new1,2024.2.4,60.00146403682932,2025-04-08 13h26.33.469984 +0100,
cube_l.png,0.1,0.31,invalid,40,40,0,up,8.94155249999676,None,space,0.4171544000018912,None,,,,,0,40,40,40,,,,,551.0587979999982,,,,,,,,,,,,,551.0436135999989,551.0587979999982,551.0587979999982,551.0587979999982,560.0171496999974,,,,560.0244414999979,560.0357973999999,560.0357973999999,560.0829548999973,560.0831943999983,560.0995949999997,560.0995949999997,560.0995949999997,560.1827333999972,560.5331423999996,,,,,,,,up,8.94155249999676,None,space,0.4171544000018912,None,,,,,,,,,,,,,,,P140,001,2025-04-08_13h26.25.789,posner_endo_new1,2024.2.4,60.00146403682932,2025-04-08 13h26.33.469984 +0100,
cube_l.png,0.1,10,catch,41,41,0,up,9.138892599999963,None,None,,,,,,,0,41,41,41,,,,,560.5492545999987,,,,,,,,,,,,,560.5333190999991,560.5492545999987,560.5492545999987,560.5492545999987,569.6906576999972,,,,569.696660499998,569.7080949999981,569.7080949999981,569.7565222999983,569.7567695999969,569.7727255999998,569.7727255999998,569.7727255999998,569.8564597999975,572.770442099998,,,,571.8707606999997,572.7865365999969,572.7865365999969,572.7865365999969,up,9.138892599999963,None,None,,,,,,,,,,,,,,,,,P140,001,2025-04-08_13h26.25.789,posner_endo_new1,2024.2.4,60.00146403682932,2025-04-08 13h26.33.469984 +0100,
cube_l.png,0.1,-0.31,valid,42,42,0,up,6.245232099998248,None,space,0.40234809999674326,None,,,,,0,42,42,42,,,,,572.7865365999969,,,,,,,,,,,,,572.7706088999985,572.7865365999969,572.7865365999969,572.7865365999969,579.0475928999986,,,,579.0535204999978,579.0649215999983,579.0649215999983,579.1135567999991,579.1137979999985,579.129984799998,579.129984799998,579.129984799998,579.196641399998,579.5471346999984,,,,,,,,up,6.245232099998248,None,space,0.40234809999674326,None,,,,,,,,,,,,,,,P140,001,2025-04-08_13h26.25.789,posner_endo_new1,2024.2.4,60.00146403682932,2025-04-08 13h26.33.469984 +0100,
cube_l.png,0.1,10,catch,43,43,0,up,10.725161399997887,None,None,,,,,,,0,43,43,43,,,,,579.5630053999994,,,,,,,,,,,,,579.5473100999989,579.5630053999994,579.5630053999994,579.5630053999994,590.3028388999992,,,,590.3088345999968,590.3202560999998,590.3202560999998,590.3685266999964,590.3687667999984,590.3853548999978,590.3853548999978,590.3853548999978,590.4684021999965,593.3823626999983,,,,592.4831253999982,593.3987643999972,593.3987643999972,593.3987643999972,up,10.725161399997887,None,None,,,,,,,,,,,,,,,,,P140,001,2025-04-08_13h26.25.789,posner_endo_new1,2024.2.4,60.00146403682932,2025-04-08 13h26.33.469984 +0100,
cube_l.png,0.1,0.31,invalid,44,44,0,up,5.832771399997,None,space,0.4742115000008198,None,,,,,0,44,44,44,,,,,593.3987643999972,,,,,,,,,,,,,593.3825287999971,593.3987643999972,593.3987643999972,593.3987643999972,599.243504799997,,,,599.2495325999989,599.2607686999982,599.2607686999982,599.3095166999992,599.3097554999986,599.3259906999992,599.3259906999992,599.3259906999992,599.3925009999984,599.8096764999973,,,,,,,,up,5.832771399997,None,space,0.4742115000008198,None,,,,,,,,,,,,,,,P140,001,2025-04-08_13h26.25.789,posner_endo_new1,2024.2.4,60.00146403682932,2025-04-08 13h26.33.469984 +0100,
cube_l.png,0.1,0.31,invalid,45,45,0,up,9.438692300002003,None,space,0.5454866999971273,None,,,,,0,45,45,45,,,,,599.8254844999974,,,,,,,,,,,,,599.8098546999972,599.8254844999974,599.8254844999974,599.8254844999974,609.2668224999979,,,,609.2727454999986,609.2841591999968,609.2841591999968,609.3324809999976,609.3327229999995,609.3490631999994,609.3490631999994,609.3490631999994,609.4321827999993,609.8995711999996,,,,,,,,up,9.438692300002003,None,space,0.5454866999971273,None,,,,,,,,,,,,,,,P140,001,2025-04-08_13h26.25.789,posner_endo_new1,2024.2.4,60.00146403682932,2025-04-08 13h26.33.469984 +0100,
cube_r.png,0.1,0.31,valid,46,46,0,up,11.372554700003093,None,space,0.47840569999971194,None,,,,,0,46,46,46,,,,,609.9151823999964,,,,,,,,,,,,,609.8997528999971,609.9151823999964,609.9151823999964,609.9151823999964,621.3044488999985,,,,621.3104327999972,621.3218472999979,621.3218472999979,621.3703184999977,621.370558999999,621.3866993999982,621.3866993999982,621.3866993999982,621.469978699999,621.8703937999999,,,,,,,,up,11.372554700003093,None,space,0.47840569999971194,None,,,,,,,,,,,,,,,P140,001,2025-04-08_13h26.25.789,posner_endo_new1,2024.2.4,60.00146403682932,2025-04-08 13h26.33.469984 +0100,
cube_l.png,0.1,-0.31,valid,47,47,0,up,7.522133599999506,None,space,0.3875707000006514,None,,,,,0,47,47,47,,,,,621.8862692999974,,,,,,,,,,,,,621.8705689999988,621.8862692999974,621.8862692999974,621.8862692999974,629.4126780999977,,,,629.4187047999985,629.4301919999998,629.4301919999998,629.4785734999969,629.4788162999976,629.4951544999967,629.4951544999967,629.4951544999967,629.5616017999964,629.8955055999977,,,,,,,,up,7.522133599999506,None,space,0.3875707000006514,None,,,,,,,,,,,,,,,P140,001,2025-04-08_13h26.25.789,posner_endo_new1,2024.2.4,60.00146403682932,2025-04-08 13h26.33.469984 +0100,
cube_r.png,0.1,-0.31,invalid,48,48,0,up,8.488173300000199,None,space,0.6825687000018661,None,,,,,0,48,48,48,,,,,629.9113602999969,,,,,,,,,,,,,629.8956887999993,629.9113602999969,629.9113602999969,629.9113602999969,638.4035567999999,,,,638.4095204999976,638.4211250999979,638.4211250999979,638.4695981999976,638.469834399999,638.4858687999986,638.4858687999986,638.4858687999986,638.5691718999988,639.1694284999976,,,,,,,,up,8.488173300000199,None,space,0.6825687000018661,None,,,,,,,,,,,,,,,P140,001,2025-04-08_13h26.25.789,posner_endo_new1,2024.2.4,60.00146403682932,2025-04-08 13h26.33.469984 +0100,
cube_r.png,0.1,10,catch,49,49,0,up,9.159144900000683,None,None,,,,,,,0,49,49,49,,,,,639.1852257999999,,,,,,,,,,,,,639.1696066999975,639.1852257999999,639.1852257999999,639.1852257999999,648.3598958999974,,,,648.3659360999991,648.3773239999973,648.3773239999973,648.4258532999993,648.426092499998,648.4423124999994,648.4423124999994,648.4423124999994,648.5089497999979,651.4397793999997,,,,650.5234439999986,651.4558216999976,651.4558216999976,651.4558216999976,up,9.159144900000683,None,None,,,,,,,,,,,,,,,,,P140,001,2025-04-08_13h26.25.789,posner_endo_new1,2024.2.4,60.00146403682932,2025-04-08 13h26.33.469984 +0100,
cube_l.png,0.1,-0.31,valid,50,50,0,up,7.607976200000849,None,space,0.43366940000123577,None,,,,,0,50,50,50,,,,,651.4558216999976,,,,,,,,,,,,,651.4399439999979,651.4558216999976,651.4558216999976,651.4558216999976,659.0659241999965,,,,659.0721260999999,659.083753699997,659.083753699997,659.1315934999984,659.1318304999986,659.1480213999967,659.1480213999967,659.1480213999967,659.2311831999978,659.5983045999965,,,,,,,,up,7.607976200000849,None,space,0.43366940000123577,None,,,,,,,,,,,,,,,P140,001,2025-04-08_13h26.25.789,posner_endo_new1,2024.2.4,60.00146403682932,2025-04-08 13h26.33.469984 +0100,
cube_l.png,0.1,-0.31,valid,51,51,0,up,11.457197499999893,None,space,0.4079517999998643,None,,,,,0,51,51,51,,,,,659.6142892999997,,,,,,,,,,,,,659.5984886999977,659.6142892999997,659.6142892999997,659.6142892999997,671.0866991999974,,,,671.0926281999964,671.1041976999986,671.1041976999986,671.1524561999977,671.1526937999988,671.1689928999986,671.1689928999986,671.1689928999986,671.2523822999974,671.5861461999993,,,,,,,,up,11.457197499999893,None,space,0.4079517999998643,None,,,,,,,,,,,,,,,P140,001,2025-04-08_13h26.25.789,posner_endo_new1,2024.2.4,60.00146403682932,2025-04-08 13h26.33.469984 +0100,
cube_r.png,0.1,-0.31,invalid,52,52,0,up,10.89346349999687,None,space,0.47464509999917937,None,,,,,0,52,52,52,,,,,671.6019774999986,,,,,,,,,,,,,671.5863221,671.6019774999986,671.6019774999986,671.6019774999986,682.508391299998,,,,682.5143590999978,682.5259690999992,682.5259690999992,682.5741767999971,682.574413899998,682.5907051999966,682.5907051999966,682.5907051999966,682.6738941999974,683.0741524999976,,,,,,,,up,10.89346349999687,None,space,0.47464509999917937,None,,,,,,,,,,,,,,,P140,001,2025-04-08_13h26.25.789,posner_endo_new1,2024.2.4,60.00146403682932,2025-04-08 13h26.33.469984 +0100,
cube_l.png,0.1,-0.31,valid,53,53,0,up,18.245093800000177,None,space,0.43348039999909815,None,,,,,0,53,53,53,,,,,683.0903071999965,,,,,,,,,,,,,683.0743316999979,683.0903071999965,683.0903071999965,683.0903071999965,701.3388288999995,,,,701.3448262999991,701.3564164999989,701.3564164999989,701.4048949999997,701.4051327999987,701.4213483999993,701.4213483999993,701.4213483999993,701.4879376999997,701.8556198999977,,,,,,,,up,18.245093800000177,None,space,0.43348039999909815,None,,,,,,,,,,,,,,,P140,001,2025-04-08_13h26.25.789,posner_endo_new1,2024.2.4,60.00146403682932,2025-04-08 13h26.33.469984 +0100,
cube_r.png,0.1,10,catch,54,54,0,up,11.992239600000175,None,None,,,,,,,0,54,54,54,,,,,701.8710356999982,,,,,,,,,,,,,701.8558030999993,701.8710356999982,701.8710356999982,701.8710356999982,713.8763190999998,,,,713.8886873999982,713.8988537999976,713.8988537999976,713.9416602999991,713.9420575999975,713.9581161999995,713.9581161999995,713.9581161999995,714.0413715999966,716.9561014999999,,,,716.0562419999987,716.9718834999985,716.9718834999985,716.9718834999985,up,11.992239600000175,None,None,,,,,,,,,,,,,,,,,P140,001,2025-04-08_13h26.25.789,posner_endo_new1,2024.2.4,60.00146403682932,2025-04-08 13h26.33.469984 +0100,
cube_l.png,0.1,0.31,invalid,55,55,0,up,5.72360110000227,None,space,0.4654286000004504,None,,,,,0,55,55,55,,,,,716.9718834999985,,,,,,,,,,,,,716.9563186999985,716.9718834999985,716.9718834999985,716.9718834999985,722.7005081999996,,,,722.7087801999987,722.7189869999966,722.7189869999966,722.7662552999973,722.7665475999966,722.782864599998,722.782864599998,722.782864599998,722.8660511999988,723.2501685999996,,,,,,,,up,5.72360110000227,None,space,0.4654286000004504,None,,,,,,,,,,,,,,,P140,001,2025-04-08_13h26.25.789,posner_endo_new1,2024.2.4,60.00146403682932,2025-04-08 13h26.33.469984 +0100,
cube_l.png,0.1,-0.31,valid,56,56,0,up,8.366535099998146,None,space,0.5742941999997129,None,,,,,0,56,56,56,,,,,723.265631899998,,,,,,,,,,,,,723.2504009999975,723.265631899998,723.265631899998,723.265631899998,731.641464999997,,,,731.6497849999978,731.6598885999992,731.6598885999992,731.7071024999968,731.7076154999995,731.7234882999983,731.7234882999983,731.7234882999983,731.8067777999968,732.3076536999979,,,,,,,,up,8.366535099998146,None,space,0.5742941999997129,None,,,,,,,,,,,,,,,P140,001,2025-04-08_13h26.25.789,posner_endo_new1,2024.2.4,60.00146403682932,2025-04-08 13h26.33.469984 +0100,
cube_r.png,0.1,0.31,valid,57,57,0,up,9.572189700000308,None,space,0.3652944000023126,None,,,,,0,57,57,57,,,,,732.3230945999967,,,,,,,,,,,,,732.3079528999988,732.3230945999967,732.3230945999967,732.3230945999967,741.8978472999988,,,,741.9090282999969,741.9194837999967,741.9194837999967,741.9634111999985,741.9637681999993,741.9798104999973,741.9798104999973,741.9798104999973,742.0631079999985,742.3476067999982,,,,,,,,up,9.572189700000308,None,space,0.3652944000023126,None,,,,,,,,,,,,,,,P140,001,2025-04-08_13h26.25.789,posner_endo_new1,2024.2.4,60.00146403682932,2025-04-08 13h26.33.469984 +0100,
cube_r.png,0.1,-0.31,invalid,58,58,0,up,10.37305109999943,None,space,0.41381080000064685,None,,,,,0,58,58,58,,,,,742.3627123999977,,,,,,,,,,,,,742.3478971999975,742.3627123999977,742.3627123999977,742.3627123999977,752.7366360999986,,,,752.7438972999989,752.7550641999987,752.7550641999987,752.801867299997,752.8021274999992,752.8186156999982,752.8186156999982,752.8186156999982,752.901892599999,753.235681099999,,,,,,,,up,10.37305109999943,None,space,0.41381080000064685,None,,,,,,,,,,,,,,,P140,001,2025-04-08_13h26.25.789,posner_endo_new1,2024.2.4,60.00146403682932,2025-04-08 13h26.33.469984 +0100,
cube_l.png,0.1,0.31,invalid,59,59,0,up,13.14801129999978,None,space,0.481000399999175,None,,,,,0,59,59,59,,,,,753.2514151999967,,,,,,,,,,,,,753.2358765999998,753.2514151999967,753.2514151999967,753.2514151999967,766.405562699998,,,,766.4127837999986,766.4243967999973,766.4243967999973,766.4715037999995,766.4717681999973,766.4880013999973,766.4880013999973,766.4880013999973,766.5712370999972,766.9717518999969,,,,,,,,up,13.14801129999978,None,space,0.481000399999175,None,,,,,,,,,,,,,,,P140,001,2025-04-08_13h26.25.789,posner_endo_new1,2024.2.4,60.00146403682932,2025-04-08 13h26.33.469984 +0100,
,,,,,,,,,,,,,,,,,,,,,,,,,,,,,,,,,,,,,,,,,,,,,,,,,,,,,,,,,,,,,,,,,,,,,766.9718827999968,766.9874934999971,766.9874934999971,826.9926585999965,831.2057159999968,space,64.21229529999982,None,,,,,,,P140,001,2025-04-08_13h26.25.789,posner_endo_new1,2024.2.4,60.00146403682932,2025-04-08 13h26.33.469984 +0100,
,,,,,,,,,,,,,,,,,,,,,,,,,,,,,,,,,,831.2057803999996,831.2216994999981,834.2901447999975,834.2023942999986,,,,,,,,,,,,,,,,,,,,,,,,,,,,,,,,,,,,,,,,,,,,,,P140,001,2025-04-08_13h26.25.789,posner_endo_new1,2024.2.4,60.00146403682932,2025-04-08 13h26.33.469984 +0100,
cube_l.png,0.1,10,catch,0,0,0,down,23.892985500002396,None,None,,,,,,,,,,,0,0,0,0,834.2901447999975,,,,,,,,,,,,,834.282018599999,834.2901447999975,834.2901447999975,834.2901447999975,858.1948869999978,,,,858.202462899997,858.213573099998,858.213573099998,858.2607054,858.2609782,858.2771323999987,858.2771323999987,858.2771323999987,858.3606353999967,861.2746082999984,,,,860.3750317999984,861.2908370999976,861.2908370999976,861.2908370999976,,,,,,,,,,,,,,,down,23.892985500002396,None,None,,,P140,001,2025-04-08_13h26.25.789,posner_endo_new1,2024.2.4,60.00146403682932,2025-04-08 13h26.33.469984 +0100,
cube_l.png,0.1,10,catch,1,1,0,down,4.557044199998927,None,None,,,,,,,,,,,0,1,1,1,861.2908370999976,,,,,,,,,,,,,861.2748006999973,861.2908370999976,861.2908370999976,861.2908370999976,865.8536339999991,,,,865.8608382999992,865.8725135999994,865.8725135999994,865.9196371999969,865.9199035999991,865.9361325999998,865.9361325999998,865.9361325999998,866.0026736999971,868.9335474999971,,,,868.017323,868.9495974999991,868.9495974999991,868.9495974999991,,,,,,,,,,,,,,,down,4.557044199998927,None,None,,,P140,001,2025-04-08_13h26.25.789,posner_endo_new1,2024.2.4,60.00146403682932,2025-04-08 13h26.33.469984 +0100,
cube_l.png,0.1,0.31,invalid,2,2,0,down,1.5535997000006319,None,space,0.5041010999993887,None,,,,,,,,,0,2,2,2,868.9495974999991,,,,,,,,,,,,,868.9337393999995,868.9495974999991,868.9495974999991,868.9495974999991,870.5156149999966,,,,870.5228167999994,870.5346904999969,870.5346904999969,870.5816133999979,870.5818741999974,870.5981205999997,870.5981205999997,870.5981205999997,870.6811802999982,871.1149456999992,,,,,,,,,,,,,,,,,,,,,,down,1.5535997000006319,None,space,0.5041010999993887,None,P140,001,2025-04-08_13h26.25.789,posner_endo_new1,2024.2.4,60.00146403682932,2025-04-08 13h26.33.469984 +0100,
cube_l.png,0.1,0.31,invalid,3,3,0,down,5.964648900000611,None,space,0.4321617999994487,None,,,,,,,,,0,3,3,3,871.1306785999986,,,,,,,,,,,,,871.1151580999976,871.1306785999986,871.1306785999986,871.1306785999986,877.1087877999998,,,,877.1160046999976,877.1276779999971,877.1276779999971,877.174643899998,877.1749063999996,877.1910630999992,877.1910630999992,877.1910630999992,877.2579660999982,877.6250813999977,,,,,,,,,,,,,,,,,,,,,,down,5.964648900000611,None,space,0.4321617999994487,None,P140,001,2025-04-08_13h26.25.789,posner_endo_new1,2024.2.4,60.00146403682932,2025-04-08 13h26.33.469984 +0100,
cube_l.png,0.1,-0.31,valid,4,4,0,down,11.679114200000186,None,space,0.40624599999864586,None,,,,,,,,,0,4,4,4,877.6407137999995,,,,,,,,,,,,,877.6252912999989,877.6407137999995,877.6407137999995,877.6407137999995,889.3295399999988,,,,889.3368162999977,889.3485181999968,889.3485181999968,889.3954660999989,889.3957275999965,889.4118316999993,889.4118316999993,889.4118316999993,889.495261,889.8290011999998,,,,,,,,,,,,,,,,,,,,,,down,11.679114200000186,None,space,0.40624599999864586,None,P140,001,2025-04-08_13h26.25.789,posner_endo_new1,2024.2.4,60.00146403682932,2025-04-08 13h26.33.469984 +0100,
cube_r.png,0.1,-0.31,invalid,5,5,0,down,4.058778700000403,None,space,0.4687811000003421,None,,,,,,,,,0,5,5,5,889.8448772999982,,,,,,,,,,,,,889.8292119999969,889.8448772999982,889.8448772999982,889.8448772999982,893.9083270999981,,,,893.915524,893.9272416999993,893.9272416999993,893.9741356999984,893.9743971999997,893.9905124999968,893.9905124999968,893.9905124999968,894.0739776999981,894.4744452999985,,,,,,,,,,,,,,,,,,,,,,down,4.058778700000403,None,space,0.4687811000003421,None,P140,001,2025-04-08_13h26.25.789,posner_endo_new1,2024.2.4,60.00146403682932,2025-04-08 13h26.33.469984 +0100,
cube_r.png,0.1,0.31,valid,6,6,0,down,2.5745348000018566,None,space,0.470205800000258,None,,,,,,,,,0,6,6,6,894.4901113999986,,,,,,,,,,,,,894.4746513999999,894.4901113999986,894.4901113999986,894.4901113999986,897.0715309999978,,,,897.078731499998,897.0903390999993,897.0903390999993,897.1375879999978,897.1378579999982,897.1540578999993,897.1540578999993,897.1540578999993,897.2206378999981,897.6378488999981,,,,,,,,,,,,,,,,,,,,,,down,2.5745348000018566,None,space,0.470205800000258,None,P140,001,2025-04-08_13h26.25.789,posner_endo_new1,2024.2.4,60.00146403682932,2025-04-08 13h26.33.469984 +0100,
cube_r.png,0.1,-0.31,invalid,7,7,0,down,4.762478100001317,None,space,0.6259965999997803,None,,,,,,,,,0,7,7,7,897.653498599997,,,,,,,,,,,,,897.6380581999983,897.653498599997,897.653498599997,897.653498599997,902.4328932999997,,,,902.4400192999965,902.4514976999999,902.4514976999999,902.4986962999974,902.498956899999,902.514907599998,902.514907599998,902.514907599998,902.5985565999981,903.1488727999968,,,,,,,,,,,,,,,,,,,,,,down,4.762478100001317,None,space,0.6259965999997803,None,P140,001,2025-04-08_13h26.25.789,posner_endo_new1,2024.2.4,60.00146403682932,2025-04-08 13h26.33.469984 +0100,
cube_l.png,0.1,-0.31,valid,8,8,0,down,3.68236590000015,None,space,0.43272580000120797,None,,,,,,,,,0,8,8,8,903.1645920999981,,,,,,,,,,,,,903.1490852999996,903.1645920999981,903.1645920999981,903.1645920999981,906.8616219999967,,,,906.8687995,906.8805875999969,906.8805875999969,906.9276037999989,906.9278652999965,906.943903299998,906.943903299998,906.943903299998,907.0273358999984,907.3779572999993,,,,,,,,,,,,,,,,,,,,,,down,3.68236590000015,None,space,0.43272580000120797,None,P140,001,2025-04-08_13h26.25.789,posner_endo_new1,2024.2.4,60.00146403682932,2025-04-08 13h26.33.469984 +0100,
cube_r.png,0.1,-0.31,invalid,9,9,0,down,3.598471299999801,None,space,0.5208658000010473,None,,,,,,,,,0,9,9,9,907.3934522999989,,,,,,,,,,,,,907.3781642999966,907.3934522999989,907.3934522999989,907.3934522999989,911.0074694999967,,,,911.0146427999971,911.0264100999993,911.0264100999993,911.0732975999999,911.0738183999965,911.0897221999985,911.0897221999985,911.0897221999985,911.1729925999971,911.624308399998,,,,,,,,,,,,,,,,,,,,,,down,3.598471299999801,None,space,0.5208658000010473,None,P140,001,2025-04-08_13h26.25.789,posner_endo_new1,2024.2.4,60.00146403682932,2025-04-08 13h26.33.469984 +0100,
cube_l.png,0.1,0.31,invalid,10,10,0,down,2.81595279999965,None,space,0.4075076999979501,None,,,,,,,,,0,10,10,10,911.6391812999973,,,,,,,,,,,,,911.6247635999971,911.6391812999973,911.6391812999973,911.6391812999973,914.471090199997,,,,914.4799676999974,914.489804599998,914.489804599998,914.5364682,914.5367196999978,914.5529751999966,914.5529751999966,914.5529751999966,914.6362792,914.9702281999998,,,,,,,,,,,,,,,,,,,,,,down,2.81595279999965,None,space,0.4075076999979501,None,P140,001,2025-04-08_13h26.25.789,posner_endo_new1,2024.2.4,60.00146403682932,2025-04-08 13h26.33.469984 +0100,
cube_r.png,0.1,-0.31,invalid,11,11,0,down,2.469061600000714,None,space,0.51305720000164,None,,,,,,,,,0,11,11,11,914.9858867999974,,,,,,,,,,,,,914.9704225999994,914.9858867999974,914.9858867999974,914.9858867999974,917.4675505999985,,,,917.4742646999985,917.4859337999987,917.4859337999987,917.5333827999966,917.5336254999966,917.5497523999984,917.5497523999984,917.5497523999984,917.6331961999967,918.0670242999986,,,,,,,,,,,,,,,,,,,,,,down,2.469061600000714,None,space,0.51305720000164,None,P140,001,2025-04-08_13h26.25.789,posner_endo_new1,2024.2.4,60.00146403682932,2025-04-08 13h26.33.469984 +0100,
cube_r.png,0.1,0.31,valid,12,12,0,down,2.500957299998845,None,space,0.38811340000029304,None,,,,,,,,,0,12,12,12,918.0827504999979,,,,,,,,,,,,,918.0672048999986,918.0827504999979,918.0827504999979,918.0827504999979,920.5975341999983,,,,920.604316099998,920.6160199999977,920.6160199999977,920.663598799998,920.6638516999992,920.6800651999984,920.6800651999984,920.6800651999984,920.7466271999983,921.0803499999965,,,,,,,,,,,,,,,,,,,,,,down,2.500957299998845,None,space,0.38811340000029304,None,P140,001,2025-04-08_13h26.25.789,posner_endo_new1,2024.2.4,60.00146403682932,2025-04-08 13h26.33.469984 +0100,
cube_l.png,0.1,10,catch,13,13,0,down,2.4870353000005707,None,None,,,,,,,,,,,0,13,13,13,921.096313799997,,,,,,,,,,,,,921.0805504999989,921.096313799997,921.096313799997,921.096313799997,923.5946275999995,,,,923.6014864999997,923.6131440999998,923.6131440999998,923.6603103999987,923.6605630999984,923.6768108999968,923.6768108999968,923.6768108999968,923.7602442999996,926.6744846999973,,,,925.774795399997,926.6903360999968,926.6903360999968,926.6903360999968,,,,,,,,,,,,,,,down,2.4870353000005707,None,None,,,P140,001,2025-04-08_13h26.25.789,posner_endo_new1,2024.2.4,60.00146403682932,2025-04-08 13h26.33.469984 +0100,
cube_r.png,0.1,-0.31,invalid,14,14,0,down,3.3009476000006543,None,space,0.8359950000012759,None,,,,,,,,,0,14,14,14,926.6903360999968,,,,,,,,,,,,,926.6746706999984,926.6903360999968,926.6903360999968,926.6903360999968,930.004739699998,,,,930.0115431999984,930.0232007999984,930.0232007999984,930.0704939999996,930.0707502999976,930.086872099997,930.086872099997,930.086872099997,930.1701156999989,930.9371584999972,,,,,,,,,,,,,,,,,,,,,,down,3.3009476000006543,None,space,0.8359950000012759,None,P140,001,2025-04-08_13h26.25.789,posner_endo_new1,2024.2.4,60.00146403682932,2025-04-08 13h26.33.469984 +0100,
cube_l.png,0.1,-0.31,valid,15,15,0,down,2.262959100000444,None,space,0.4493608000011591,None,,,,,,,,,0,15,15,15,930.9529011999985,,,,,,,,,,,,,930.937353199999,930.9529011999985,930.9529011999985,930.9529011999985,933.2180928999987,,,,933.2248488999976,933.2369106999977,933.2369106999977,933.2840528999986,933.2846260999977,933.300424699999,933.300424699999,933.300424699999,933.383654899997,933.7520712999976,,,,,,,,,,,,,,,,,,,,,,down,2.262959100000444,None,space,0.4493608000011591,None,P140,001,2025-04-08_13h26.25.789,posner_endo_new1,2024.2.4,60.00146403682932,2025-04-08 13h26.33.469984 +0100,
cube_r.png,0.1,10,catch,16,16,0,down,2.0803871999996773,None,None,,,,,,,,,,,0,16,16,16,933.7665948999966,,,,,,,,,,,,,933.7525545999997,933.7665948999966,933.7665948999966,933.7665948999966,935.8499502999985,,,,935.8670014999989,935.8773801999996,935.8773801999996,935.9146258999972,935.9149861999977,935.9310742999987,935.9310742999987,935.9310742999987,936.0142921999977,938.9291596999974,,,,938.0289111999991,938.9446485999979,938.9446485999979,938.9446485999979,,,,,,,,,,,,,,,down,2.0803871999996773,None,None,,,P140,001,2025-04-08_13h26.25.789,posner_endo_new1,2024.2.4,60.00146403682932,2025-04-08 13h26.33.469984 +0100,
cube_r.png,0.1,10,catch,17,17,0,down,0.5983107000029122,None,None,,,,,,,,,,,0,17,17,17,938.9446485999979,,,,,,,,,,,,,938.9296069999982,938.9446485999979,938.9446485999979,938.9446485999979,939.5461972999983,,,,939.5639445999986,939.575355099998,939.575355099998,939.6108512999999,939.6114075999976,939.6273030999982,939.6273030999982,939.6273030999982,939.7105611999978,942.6253805999986,,,,941.7251075999993,942.6408477999976,942.6408477999976,942.6408477999976,,,,,,,,,,,,,,,down,0.5983107000029122,None,None,,,P140,001,2025-04-08_13h26.25.789,posner_endo_new1,2024.2.4,60.00146403682932,2025-04-08 13h26.33.469984 +0100,
cube_l.png,0.1,0.31,invalid,18,18,0,down,1.430184900000313,None,space,0.48153020000245306,None,,,,,,,,,0,18,18,18,942.6408477999976,,,,,,,,,,,,,942.6258368999988,942.6408477999976,942.6408477999976,942.6408477999976,944.0748349999994,,,,944.0925284999976,944.1038859,944.1038859,944.1395805999964,944.1401450999983,944.155967499999,944.155967499999,944.155967499999,944.2392267999967,944.6409658999983,,,,,,,,,,,,,,,,,,,,,,down,1.430184900000313,None,space,0.48153020000245306,None,P140,001,2025-04-08_13h26.25.789,posner_endo_new1,2024.2.4,60.00146403682932,2025-04-08 13h26.33.469984 +0100,
cube_l.png,0.1,10,catch,19,19,0,down,2.455624700000044,None,None,,,,,,,,,,,0,19,19,19,944.6555172999979,,,,,,,,,,,,,944.6414668999969,944.6555172999979,944.6555172999979,944.6555172999979,947.1215585999998,,,,947.1393656999971,947.1509522999986,947.1509522999986,947.1862971999981,947.1866154999989,947.2028611999995,947.2028611999995,947.2028611999995,947.285994599999,950.2005975999964,,,,949.3006799999966,950.2164527999994,950.2164527999994,950.2164527999994,,,,,,,,,,,,,,,down,2.455624700000044,None,None,,,P140,001,2025-04-08_13h26.25.789,posner_endo_new1,2024.2.4,60.00146403682932,2025-04-08 13h26.33.469984 +0100,
cube_l.png,0.1,0.31,invalid,20,20,0,down,0.1437688000005437,None,space,0.4604185999996844,None,,,,,,,,,0,20,20,20,950.2164527999994,,,,,,,,,,,,,950.2008442999977,950.2164527999994,950.2164527999994,950.2164527999994,950.3673350999998,,,,950.3767257999971,950.3870451999974,950.3870451999974,950.4329999999973,950.4333194999999,950.4495620999987,950.4495620999987,950.4495620999987,950.5327838999983,950.9168439999994,,,,,,,,,,,,,,,,,,,,,,down,0.1437688000005437,None,space,0.4604185999996844,None,P140,001,2025-04-08_13h26.25.789,posner_endo_new1,2024.2.4,60.00146403682932,2025-04-08 13h26.33.469984 +0100,
cube_l.png,0.1,-0.31,valid,21,21,0,down,2.931235400003061,None,space,0.5574392999988049,None,,,,,,,,,0,21,21,21,950.9323513999989,,,,,,,,,,,,,950.9171108999981,950.9323513999989,950.9323513999989,950.9323513999989,953.8811451999973,,,,953.8976690999989,953.9076822999996,953.9076822999996,953.9461424999972,953.9465062999989,953.9626862999976,953.9626862999976,953.9626862999976,954.0458114999965,954.5299863999971,,,,,,,,,,,,,,,,,,,,,,down,2.931235400003061,None,space,0.5574392999988049,None,P140,001,2025-04-08_13h26.25.789,posner_endo_new1,2024.2.4,60.00146403682932,2025-04-08 13h26.33.469984 +0100,
cube_r.png,0.1,0.31,valid,22,22,0,down,2.374597599999106,None,space,0.8570006999980251,None,,,,,,,,,0,22,22,22,954.5454334999995,,,,,,,,,,,,,954.5303209999984,954.5454334999995,954.5454334999995,954.5454334999995,956.9275346999966,,,,956.9386362999976,956.9490535999976,956.9490535999976,956.9930097999968,956.9933641999996,957.0095599999986,957.0095599999986,957.0095599999986,957.0926703999976,957.8765867999973,,,,,,,,,,,,,,,,,,,,,,down,2.374597599999106,None,space,0.8570006999980251,None,P140,001,2025-04-08_13h26.25.789,posner_endo_new1,2024.2.4,60.00146403682932,2025-04-08 13h26.33.469984 +0100,
cube_r.png,0.1,-0.31,invalid,23,23,0,down,2.035622200000944,None,space,0.4132858999983,None,,,,,,,,,0,23,23,23,957.8919817999995,,,,,,,,,,,,,957.8768874999987,957.8919817999995,957.8919817999995,957.8919817999995,959.9409768999976,,,,959.9520509999966,959.9624454999976,959.9624454999976,960.0064182999995,960.0066835999969,960.0229646999978,960.0229646999978,960.0229646999978,960.1062972,960.4401876999982,,,,,,,,,,,,,,,,,,,,,,down,2.035622200000944,None,space,0.4132858999983,None,P140,001,2025-04-08_13h26.25.789,posner_endo_new1,2024.2.4,60.00146403682932,2025-04-08 13h26.33.469984 +0100,
cube_r.png,0.1,0.31,valid,24,24,0,down,2.335438400001294,None,space,0.4391962000008789,None,,,,,,,,,0,24,24,24,960.4558783999964,,,,,,,,,,,,,960.4403950999986,960.4558783999964,960.4558783999964,960.4558783999964,962.8042235999965,,,,962.8114112999974,962.8230017999995,962.8230017999995,962.8701995999982,962.8704683999968,962.8867615999989,962.8867615999989,962.8867615999989,962.9534246999974,963.3372243999984,,,,,,,,,,,,,,,,,,,,,,down,2.335438400001294,None,space,0.4391962000008789,None,P140,001,2025-04-08_13h26.25.789,posner_endo_new1,2024.2.4,60.00146403682932,2025-04-08 13h26.33.469984 +0100,
cube_r.png,0.1,-0.31,invalid,25,25,0,down,2.3503133000012895,None,space,0.33741290000034496,None,,,,,,,,,0,25,25,25,963.3529524999976,,,,,,,,,,,,,963.3374394999992,963.3529524999976,963.3529524999976,963.3529524999976,965.7181124999988,,,,965.7253687999983,965.7366826999969,965.7366826999969,965.783908999998,965.784173,965.8003663999989,965.8003663999989,965.8003663999989,965.8670313999974,966.1509970999978,,,,,,,,,,,,,,,,,,,,,,down,2.3503133000012895,None,space,0.33741290000034496,None,P140,001,2025-04-08_13h26.25.789,posner_endo_new1,2024.2.4,60.00146403682932,2025-04-08 13h26.33.469984 +0100,
cube_l.png,0.1,-0.31,valid,26,26,0,down,2.457182300000568,None,space,0.3965271999986726,None,,,,,,,,,0,26,26,26,966.1666148999975,,,,,,,,,,,,,966.1512047999968,966.1666148999975,966.1666148999975,966.1666148999975,968.6315660999971,,,,968.6387151999988,968.6503036999966,968.6503036999966,968.6975542,968.6978185999978,968.7140473,968.7140473,968.7140473,968.7973781999972,969.114641199998,,,,,,,,,,,,,,,,,,,,,,down,2.457182300000568,None,space,0.3965271999986726,None,P140,001,2025-04-08_13h26.25.789,posner_endo_new1,2024.2.4,60.00146403682932,2025-04-08 13h26.33.469984 +0100,
cube_r.png,0.1,0.31,valid,27,27,0,down,9.789063599997462,None,space,0.7463338999987172,None,,,,,,,,,0,27,27,27,969.1304142999979,,,,,,,,,,,,,969.1148460999975,969.1304142999979,969.1304142999979,969.1304142999979,978.9213004999983,,,,978.9285672999977,978.9515259,978.9515259,978.9871264999965,978.9873903999978,979.0034321999992,979.0034321999992,979.0034321999992,979.0866619999979,979.7538867999974,,,,,,,,,,,,,,,,,,,,,,down,9.789063599997462,None,space,0.7463338999987172,None,P140,001,2025-04-08_13h26.25.789,posner_endo_new1,2024.2.4,60.00146403682932,2025-04-08 13h26.33.469984 +0100,
cube_r.png,0.1,10,catch,28,28,0,down,5.381680500002403,None,None,,,,,,,,,,,0,28,28,28,979.7694566999999,,,,,,,,,,,,,979.754101999999,979.7694566999999,979.7694566999999,979.7694566999999,985.1647193999997,,,,985.1719392999985,985.1835372999994,985.1835372999994,985.2305794999993,985.2308426999989,985.2471970999977,985.2471970999977,985.2471970999977,985.3303207999998,988.2444725999994,,,,987.3449991999987,988.2608378999976,988.2608378999976,988.2608378999976,,,,,,,,,,,,,,,down,5.381680500002403,None,None,,,P140,001,2025-04-08_13h26.25.789,posner_endo_new1,2024.2.4,60.00146403682932,2025-04-08 13h26.33.469984 +0100,
cube_r.png,0.1,0.31,valid,29,29,0,down,5.987456999999267,None,space,0.43686019999950076,None,,,,,,,,,0,29,29,29,988.2608378999976,,,,,,,,,,,,,988.2446703999994,988.2608378999976,988.2608378999976,988.2608378999976,994.2554902999982,,,,994.2627208999984,994.2745125999973,994.2745125999973,994.3213504999985,994.3216177999966,994.3378815999968,994.3378815999968,994.3378815999968,994.404320499998,994.788244299998,,,,,,,,,,,,,,,,,,,,,,down,5.987456999999267,None,space,0.43686019999950076,None,P140,001,2025-04-08_13h26.25.789,posner_endo_new1,2024.2.4,60.00146403682932,2025-04-08 13h26.33.469984 +0100,
cube_r.png,0.1,0.31,valid,30,30,0,down,8.938855599997623,None,space,0.45450440000058734,None,,,,,,,,,0,30,30,30,994.8039818999969,,,,,,,,,,,,,994.7884549999981,994.8039818999969,994.8039818999969,994.8039818999969,1003.7458266999965,,,,1003.7530465999989,1003.7641067999975,1003.7641067999975,1003.8114264999967,1003.8118852999978,1003.8278609999979,1003.8278609999979,1003.8278609999979,1003.9112738999975,1004.2954660999967,,,,,,,,,,,,,,,,,,,,,,down,8.938855599997623,None,space,0.45450440000058734,None,P140,001,2025-04-08_13h26.25.789,posner_endo_new1,2024.2.4,60.00146403682932,2025-04-08 13h26.33.469984 +0100,
cube_l.png,0.1,-0.31,valid,31,31,0,down,7.23244650000197,None,space,0.3774464000016451,None,,,,,,,,,0,31,31,31,1004.311010999998,,,,,,,,,,,,,1004.2957364999966,1004.311010999998,1004.311010999998,1004.311010999998,1011.5545822999993,,,,1011.5639429999974,1011.5743039999979,1011.5743039999979,1011.6202229999981,1011.6205459999983,1011.636787899999,1011.636787899999,1011.636787899999,1011.7200619999967,1012.020803899999,,,,,,,,,,,,,,,,,,,,,,down,7.23244650000197,None,space,0.3774464000016451,None,P140,001,2025-04-08_13h26.25.789,posner_endo_new1,2024.2.4,60.00146403682932,2025-04-08 13h26.33.469984 +0100,
cube_r.png,0.1,0.31,valid,32,32,0,down,4.202883199999633,None,space,0.40749420000065584,None,,,,,,,,,0,32,32,32,1012.0363571999987,,,,,,,,,,,,,1012.0210933999988,1012.0363571999987,1012.0363571999987,1012.0363571999987,1016.2495681999972,,,,1016.2557048999988,1016.267304099998,1016.267304099998,1016.3155393999987,1016.3157785999974,1016.3320752999971,1016.3320752999971,1016.3320752999971,1016.415262399998,1016.7491040999994,,,,,,,,,,,,,,,,,,,,,,down,4.202883199999633,None,space,0.40749420000065584,None,P140,001,2025-04-08_13h26.25.789,posner_endo_new1,2024.2.4,60.00146403682932,2025-04-08 13h26.33.469984 +0100,
cube_r.png,0.1,-0.31,invalid,33,33,0,down,5.098649999999907,None,space,0.4648388999994495,None,,,,,,,,,0,33,33,33,1016.7648385999964,,,,,,,,,,,,,1016.7492880999998,1016.7648385999964,1016.7648385999964,1016.7648385999964,1021.8771550999991,,,,1021.8833334999981,1021.8948191999989,1021.8948191999989,1021.9430623999979,1021.9432996999967,1021.9595278999986,1021.9595278999986,1021.9595278999986,1022.0263650999987,1022.4267193999985,,,,,,,,,,,,,,,,,,,,,,down,5.098649999999907,None,space,0.4648388999994495,None,P140,001,2025-04-08_13h26.25.789,posner_endo_new1,2024.2.4,60.00146403682932,2025-04-08 13h26.33.469984 +0100,
cube_r.png,0.1,10,catch,34,34,0,down,12.308829499997955,None,space,0.7611349000035261,None,,,,,,,,,0,34,34,34,1022.4425483999985,,,,,,,,,,,,,1022.4269082999999,1022.4425483999985,1022.4425483999985,1022.4425483999985,1034.7639758999976,,,,1034.7699823999974,1034.7815273999986,1034.7815273999986,1034.8298450999973,1034.8300896999972,1034.8464819999972,1034.8464819999972,1034.8464819999972,1034.9295102999968,1035.6131196999995,,,,,,,,,,,,,,,,,,,,,,down,12.308829499997955,None,space,0.7611349000035261,None,P140,001,2025-04-08_13h26.25.789,posner_endo_new1,2024.2.4,60.00146403682932,2025-04-08 13h26.33.469984 +0100,
cube_r.png,0.1,0.31,valid,35,35,0,down,2.7942476000025636,None,space,1.264840700001514,None,,,,,,,,,0,35,35,35,1035.628893699999,,,,,,,,,,,,,1035.6133010999984,1035.628893699999,1035.628893699999,1035.628893699999,1038.4269449999993,,,,1038.4331175999978,1038.4447844999995,1038.4447844999995,1038.4927289999978,1038.4929736999984,1038.5092370999992,1038.5092370999992,1038.5092370999992,1038.5759459999972,1039.7756596,,,,,,,,,,,,,,,,,,,,,,down,2.7942476000025636,None,space,1.264840700001514,None,P140,001,2025-04-08_13h26.25.789,posner_endo_new1,2024.2.4,60.00146403682932,2025-04-08 13h26.33.469984 +0100,
cube_r.png,0.1,-0.31,invalid,36,36,0,down,2.591500900001847,None,space,0.6174647000007099,None,,,,,,,,,0,36,36,36,1039.7913479999988,,,,,,,,,,,,,1039.7758428999987,1039.7913479999988,1039.7913479999988,1039.7913479999988,1042.3895120999987,,,,1042.3956131999985,1042.4071573999972,1042.4071573999972,1042.4553903999986,1042.4556462999972,1042.4718944999986,1042.4718944999986,1042.4718944999986,1042.5384849999973,1043.1054809999987,,,,,,,,,,,,,,,,,,,,,,down,2.591500900001847,None,space,0.6174647000007099,None,P140,001,2025-04-08_13h26.25.789,posner_endo_new1,2024.2.4,60.00146403682932,2025-04-08 13h26.33.469984 +0100,
cube_l.png,0.1,0.31,invalid,37,37,0,down,2.5746183000010205,None,space,0.6615364000026602,None,,,,,,,,,0,37,37,37,1043.1213546,,,,,,,,,,,,,1043.1056705999981,1043.1213546,1043.1213546,1043.1213546,1045.7037206999994,,,,1045.7202068999977,1045.7315489999964,1045.7315489999964,1045.7686024999966,1045.768905599998,1045.7851778999975,1045.7851778999975,1045.7851778999975,1045.868385499998,1046.452361399999,,,,,,,,,,,,,,,,,,,,,,down,2.5746183000010205,None,space,0.6615364000026602,None,P140,001,2025-04-08_13h26.25.789,posner_endo_new1,2024.2.4,60.00146403682932,2025-04-08 13h26.33.469984 +0100,
cube_l.png,0.1,0.31,invalid,38,38,0,down,9.79553510000187,None,space,0.4252228000004834,None,,,,,,,,,0,38,38,38,1046.467705799998,,,,,,,,,,,,,1046.452604799997,1046.467705799998,1046.467705799998,1046.467705799998,1056.2757164999966,,,,1056.2870553999965,1056.2974063999973,1056.2974063999973,1056.3411656999997,1056.3415227999976,1056.3577262,1056.3577262,1056.3577262,1056.4409233999977,1056.7917541999996,,,,,,,,,,,,,,,,,,,,,,down,9.79553510000187,None,space,0.4252228000004834,None,P140,001,2025-04-08_13h26.25.789,posner_endo_new1,2024.2.4,60.00146403682932,2025-04-08 13h26.33.469984 +0100,
cube_r.png,0.1,0.31,valid,39,39,0,down,5.448108100001264,None,space,0.7944483999999647,None,,,,,,,,,0,39,39,39,1056.8072422999976,,,,,,,,,,,,,1056.7920558999976,1056.8072422999976,1056.8072422999976,1056.8072422999976,1062.2691191999984,,,,1062.2764247999985,1062.2878979999987,1062.2878979999987,1062.334987299997,1062.335250799999,1062.351642499998,1062.351642499998,1062.351642499998,1062.4346726999975,1063.1517214999985,,,,,,,,,,,,,,,,,,,,,,down,5.448108100001264,None,space,0.7944483999999647,None,P140,001,2025-04-08_13h26.25.789,posner_endo_new1,2024.2.4,60.00146403682932,2025-04-08 13h26.33.469984 +0100,
cube_l.png,0.1,0.31,invalid,40,40,0,down,9.840020200001163,None,space,0.5125593000011577,None,,,,,,,,,0,40,40,40,1063.1673656999992,,,,,,,,,,,,,1063.1519356999997,1063.1673656999992,1063.1673656999992,1063.1673656999992,1073.0082755999974,,,,1073.0156031999977,1073.026879099998,1073.026879099998,1073.0739688999965,1073.0742307999972,1073.0903167999968,1073.0903167999968,1073.0903167999968,1073.1736072999993,1073.6075103999974,,,,,,,,,,,,,,,,,,,,,,down,9.840020200001163,None,space,0.5125593000011577,None,P140,001,2025-04-08_13h26.25.789,posner_endo_new1,2024.2.4,60.00146403682932,2025-04-08 13h26.33.469984 +0100,
cube_l.png,0.1,10,catch,41,41,0,down,15.023714500002825,None,None,,,,,,,,,,,0,41,41,41,1073.6233822999966,,,,,,,,,,,,,1073.6077172999976,1073.6233822999966,1073.6233822999966,1073.6233822999966,1088.6587341999984,,,,1088.666045599999,1088.6775579999994,1088.6775579999994,1088.7246663999977,1088.7249340999988,1088.7410661999966,1088.7410661999966,1088.7410661999966,1088.8243760999976,1091.7385336999978,,,,1090.8390225999974,1091.7546101999978,1091.7546101999978,1091.7546101999978,,,,,,,,,,,,,,,down,15.023714500002825,None,None,,,P140,001,2025-04-08_13h26.25.789,posner_endo_new1,2024.2.4,60.00146403682932,2025-04-08 13h26.33.469984 +0100,
cube_l.png,0.1,-0.31,valid,42,42,0,down,11.316502499998023,None,space,0.4206458000007842,None,,,,,,,,,0,42,42,42,1091.7546101999978,,,,,,,,,,,,,1091.738702999999,1091.7546101999978,1091.7546101999978,1091.7546101999978,1103.0775921999993,,,,1103.083966899998,1103.0951109999987,1103.0951109999987,1103.1431962999995,1103.143704299997,1103.1595875999992,1103.1595875999992,1103.1595875999992,1103.2428659999969,1103.5945267999996,,,,,,,,,,,,,,,,,,,,,,down,11.316502499998023,None,space,0.4206458000007842,None,P140,001,2025-04-08_13h26.25.789,posner_endo_new1,2024.2.4,60.00146403682932,2025-04-08 13h26.33.469984 +0100,
cube_l.png,0.1,10,catch,43,43,0,down,2.0703097999976308,None,None,,,,,,,,,,,0,43,43,43,1103.609096199998,,,,,,,,,,,,,1103.594983699997,1103.609096199998,1103.609096199998,1103.609096199998,1105.6921250999985,,,,1105.708977899998,1105.7200928999991,1105.7200928999991,1105.7572711999965,1105.7575896999988,1105.7736678999972,1105.7736678999972,1105.7736678999972,1105.8570120999975,1108.7713594999987,,,,1107.871569699997,1108.7873007999988,1108.7873007999988,1108.7873007999988,,,,,,,,,,,,,,,down,2.0703097999976308,None,None,,,P140,001,2025-04-08_13h26.25.789,posner_endo_new1,2024.2.4,60.00146403682932,2025-04-08 13h26.33.469984 +0100,
cube_l.png,0.1,0.31,invalid,44,44,0,down,3.7957516999995278,None,space,0.5381392000017513,None,,,,,,,,,0,44,44,44,1108.7873007999988,,,,,,,,,,,,,1108.7716288999982,1108.7873007999988,1108.7873007999988,1108.7873007999988,1112.5847248999999,,,,1112.5957958,1112.606063299998,1112.606063299998,1112.650114199998,1112.6503796999968,1112.666605899998,1112.666605899998,1112.666605899998,1112.7498944,1113.2166943999982,,,,,,,,,,,,,,,,,,,,,,down,3.7957516999995278,None,space,0.5381392000017513,None,P140,001,2025-04-08_13h26.25.789,posner_endo_new1,2024.2.4,60.00146403682932,2025-04-08 13h26.33.469984 +0100,
cube_l.png,0.1,0.31,invalid,45,45,0,down,1.9021382999999332,None,space,0.50997020000068,None,,,,,,,,,0,45,45,45,1113.2326603999973,,,,,,,,,,,,,1113.2169003999988,1113.2326603999973,1113.2326603999973,1113.2326603999973,1115.1483402999984,,,,1115.1556670999998,1115.1670510999975,1115.1670510999975,1115.2141364999989,1115.2143965999967,1115.230748099999,1115.230748099999,1115.230748099999,1115.3139033999978,1115.7475134999986,,,,,,,,,,,,,,,,,,,,,,down,1.9021382999999332,None,space,0.50997020000068,None,P140,001,2025-04-08_13h26.25.789,posner_endo_new1,2024.2.4,60.00146403682932,2025-04-08 13h26.33.469984 +0100,
cube_r.png,0.1,0.31,valid,46,46,0,down,2.1242131999970297,None,space,0.4473717000000761,None,,,,,,,,,0,46,46,46,1115.7634353999965,,,,,,,,,,,,,1115.7477256999991,1115.7634353999965,1115.7634353999965,1115.7634353999965,1117.8954448999975,,,,1117.9026461999965,1117.9143962999988,1117.9143962999988,1117.9612882999972,1117.961551299999,1117.9776956999995,1117.9776956999995,1117.9776956999995,1118.060919399999,1118.4281856999987,,,,,,,,,,,,,,,,,,,,,,down,2.1242131999970297,None,space,0.4473717000000761,None,P140,001,2025-04-08_13h26.25.789,posner_endo_new1,2024.2.4,60.00146403682932,2025-04-08 13h26.33.469984 +0100,
cube_l.png,0.1,-0.31,valid,47,47,0,down,2.595389799997065,None,space,0.5810090999984823,None,,,,,,,,,0,47,47,47,1118.4439698999995,,,,,,,,,,,,,1118.4283911999992,1118.4439698999995,1118.4439698999995,1118.4439698999995,1121.0422800999986,,,,1121.0495047999975,1121.0609022999997,1121.0609022999997,1121.1082082999965,1121.1084820999968,1121.124395699997,1121.124395699997,1121.124395699997,1121.207681099997,1121.7082114999976,,,,,,,,,,,,,,,,,,,,,,down,2.595389799997065,None,space,0.5810090999984823,None,P140,001,2025-04-08_13h26.25.789,posner_endo_new1,2024.2.4,60.00146403682932,2025-04-08 13h26.33.469984 +0100,
cube_r.png,0.1,-0.31,invalid,48,48,0,down,2.6186874999984866,None,space,0.5365439999986847,None,,,,,,,,,0,48,48,48,1121.7240195999984,,,,,,,,,,,,,1121.7084267999999,1121.7240195999984,1121.7240195999984,1121.7240195999984,1124.355612899999,,,,1124.3628721999994,1124.374260499997,1124.374260499997,1124.4213137999977,1124.4215750999974,1124.4378423999988,1124.4378423999988,1124.4378423999988,1124.521070699997,1124.9880335999987,,,,,,,,,,,,,,,,,,,,,,down,2.6186874999984866,None,space,0.5365439999986847,None,P140,001,2025-04-08_13h26.25.789,posner_endo_new1,2024.2.4,60.00146403682932,2025-04-08 13h26.33.469984 +0100,
cube_r.png,0.1,10,catch,49,49,0,down,2.323330100000021,None,None,,,,,,,,,,,0,49,49,49,1125.0039834999989,,,,,,,,,,,,,1124.9882439999965,1125.0039834999989,1125.0039834999989,1125.0039834999989,1127.335983699999,,,,1127.343323099998,1127.3549606999986,1127.3549606999986,1127.401739599998,1127.4020009999986,1127.4181987999982,1127.4181987999982,1127.4181987999982,1127.501249099998,1130.415601599998,,,,1129.5160480999984,1130.4316951999972,1130.4316951999972,1130.4316951999972,,,,,,,,,,,,,,,down,2.323330100000021,None,None,,,P140,001,2025-04-08_13h26.25.789,posner_endo_new1,2024.2.4,60.00146403682932,2025-04-08 13h26.33.469984 +0100,
cube_l.png,0.1,-0.31,valid,50,50,0,down,3.487122600003204,None,space,0.4563820000003034,None,,,,,,,,,0,50,50,50,1130.4316951999972,,,,,,,,,,,,,1130.4157902999978,1130.4316951999972,1130.4316951999972,1130.4316951999972,1133.9290900999986,,,,1133.9364451999973,1133.9476884999967,1133.9476884999967,1133.9948147999967,1133.9950783999993,1134.0116374999998,1134.0116374999998,1134.0116374999998,1134.0945918999969,1134.4785235999989,,,,,,,,,,,,,,,,,,,,,,down,3.487122600003204,None,space,0.4563820000003034,None,P140,001,2025-04-08_13h26.25.789,posner_endo_new1,2024.2.4,60.00146403682932,2025-04-08 13h26.33.469984 +0100,
cube_l.png,0.1,-0.31,valid,51,51,0,down,1.8571121000022686,None,space,0.6777634000027319,None,,,,,,,,,0,51,51,51,1134.4942357,,,,,,,,,,,,,1134.4787319999996,1134.4942357,1134.4942357,1134.4942357,1136.3599231999979,,,,1136.3671753999988,1136.378576799998,1136.378576799998,1136.4255342999968,1136.4257969999999,1136.442261799999,1136.442261799999,1136.442261799999,1136.5088262999998,1137.1259728999976,,,,,,,,,,,,,,,,,,,,,,down,1.8571121000022686,None,space,0.6777634000027319,None,P140,001,2025-04-08_13h26.25.789,posner_endo_new1,2024.2.4,60.00146403682932,2025-04-08 13h26.33.469984 +0100,
cube_r.png,0.1,-0.31,invalid,52,52,0,down,1.8096242999999959,None,space,0.5838039000009303,None,,,,,,,,,0,52,52,52,1137.141607499998,,,,,,,,,,,,,1137.1261816999977,1137.141607499998,1137.141607499998,1137.141607499998,1138.9570355999967,,,,1138.964281499997,1138.9757642999975,1138.9757642999975,1139.0231330999995,1139.0233666999993,1139.0396662999992,1139.0396662999992,1139.0396662999992,1139.106072399998,1139.639757099998,,,,,,,,,,,,,,,,,,,,,,down,1.8096242999999959,None,space,0.5838039000009303,None,P140,001,2025-04-08_13h26.25.789,posner_endo_new1,2024.2.4,60.00146403682932,2025-04-08 13h26.33.469984 +0100,
cube_l.png,0.1,-0.31,valid,53,53,0,down,1.8313368000017363,None,space,0.7542159000004176,None,,,,,,,,,0,53,53,53,1139.6556902999982,,,,,,,,,,,,,1139.6399437999971,1139.6556902999982,1139.6556902999982,1139.6556902999982,1141.4880325999984,,,,1141.494038599998,1141.5057307999996,1141.5057307999996,1141.5539532999974,1141.5541938999995,1141.570405999999,1141.570405999999,1141.570405999999,1141.6536194999971,1142.3371021999992,,,,,,,,,,,,,,,,,,,,,,down,1.8313368000017363,None,space,0.7542159000004176,None,P140,001,2025-04-08_13h26.25.789,posner_endo_new1,2024.2.4,60.00146403682932,2025-04-08 13h26.33.469984 +0100,
cube_r.png,0.1,10,catch,54,54,0,down,9.70225809999829,None,None,,,,,,,,,,,0,54,54,54,1142.3530756,,,,,,,,,,,,,1142.3372801999976,1142.3530756,1142.3530756,1142.3530756,1152.0602716999965,,,,1152.0664408999983,1152.0780836999984,1152.0780836999984,1152.1263530999968,1152.126588799998,1152.1429828999972,1152.1429828999972,1152.1429828999972,1152.2094201,1155.1403641999968,,,,1154.223974499997,1155.156349099998,1155.156349099998,1155.156349099998,,,,,,,,,,,,,,,down,9.70225809999829,None,None,,,P140,001,2025-04-08_13h26.25.789,posner_endo_new1,2024.2.4,60.00146403682932,2025-04-08 13h26.33.469984 +0100,
cube_l.png,0.1,0.31,invalid,55,55,0,down,2.026683800002502,None,space,0.39050159999897005,None,,,,,,,,,0,55,55,55,1155.156349099998,,,,,,,,,,,,,1155.1405332999966,1155.156349099998,1155.156349099998,1155.156349099998,1157.1884760999965,,,,1157.1945892999975,1157.2061443999992,1157.2061443999992,1157.254463399997,1157.254704199997,1157.271003599999,1157.271003599999,1157.271003599999,1157.3375592999982,1157.671326599997,,,,,,,,,,,,,,,,,,,,,,down,2.026683800002502,None,space,0.39050159999897005,None,P140,001,2025-04-08_13h26.25.789,posner_endo_new1,2024.2.4,60.00146403682932,2025-04-08 13h26.33.469984 +0100,
cube_l.png,0.1,-0.31,valid,56,56,0,down,7.68784119999691,None,space,0.5110825999981898,None,,,,,,,,,0,56,56,56,1157.6871703999968,,,,,,,,,,,,,1157.6715075999964,1157.6871703999968,1157.6871703999968,1157.6871703999968,1165.380005199997,,,,1165.3860627999966,1165.3975655999966,1165.3975655999966,1165.4459942999965,1165.4462346999971,1165.462584099998,1165.462584099998,1165.462584099998,1165.5292037,1165.9795844999971,,,,,,,,,,,,,,,,,,,,,,down,7.68784119999691,None,space,0.5110825999981898,None,P140,001,2025-04-08_13h26.25.789,posner_endo_new1,2024.2.4,60.00146403682932,2025-04-08 13h26.33.469984 +0100,
cube_r.png,0.1,0.31,valid,57,57,0,down,5.2919742000012775,None,space,0.49217480000152136,None,,,,,,,,,0,57,57,57,1165.9953122999977,,,,,,,,,,,,,1165.9797716999965,1165.9953122999977,1165.9953122999977,1165.9953122999977,1171.2909475999986,,,,1171.2969860999983,1171.3085388,1171.3085388,1171.3565863999975,1171.3568330999988,1171.3732593999994,1171.3732593999994,1171.3732593999994,1171.4563984999986,1171.8737279999987,,,,,,,,,,,,,,,,,,,,,,down,5.2919742000012775,None,space,0.49217480000152136,None,P140,001,2025-04-08_13h26.25.789,posner_endo_new1,2024.2.4,60.00146403682932,2025-04-08 13h26.33.469984 +0100,
cube_r.png,0.1,-0.31,invalid,58,58,0,down,11.150254200001655,None,space,0.47987490000014077,None,,,,,,,,,0,58,58,58,1171.8893647999976,,,,,,,,,,,,,1171.8739118999983,1171.8893647999976,1171.8893647999976,1171.8893647999976,1183.0454415999993,,,,1183.0515196999986,1183.0633500999975,1183.0633500999975,1183.1112240999973,1183.1114732999995,1183.1276179999986,1183.1276179999986,1183.1276179999986,1183.2111071,1183.6116648999996,,,,,,,,,,,,,,,,,,,,,,down,11.150254200001655,None,space,0.47987490000014077,None,P140,001,2025-04-08_13h26.25.789,posner_endo_new1,2024.2.4,60.00146403682932,2025-04-08 13h26.33.469984 +0100,
cube_l.png,0.1,0.31,invalid,59,59,0,down,17.027183800000785,None,space,0.5458531000003859,None,,,,,,,,,0,59,59,59,1183.6274083999997,,,,,,,,,,,,,1183.6118461999977,1183.6274083999997,1183.6274083999997,1183.6274083999997,1200.6607089999998,,,,1200.6667389999966,1200.6783974999998,1200.6783974999998,1200.7266337999972,1200.7268750999974,1200.743033499999,1200.743033499999,1200.743033499999,1200.8262970999967,1201.2934536999965,,,,,,,,,,,,,,,,,,,,,,down,17.027183800000785,None,space,0.5458531000003859,None,P140,001,2025-04-08_13h26.25.789,posner_endo_new1,2024.2.4,60.00146403682932,2025-04-08 13h26.33.469984 +0100,
