cue_img,cue_soa,target_x,trial,thisN,thisTrialN,thisRepN,key_control2.keys,key_control2.rt,key_control2.duration,key_resp.keys,key_resp.rt,key_resp.duration,practice.thisRepN,practice.thisTrialN,practice.thisN,practice.thisIndex,block1.thisRepN,block1.thisTrialN,block1.thisN,block1.thisIndex,block2.thisRepN,block2.thisTrialN,block2.thisN,block2.thisIndex,thisRow.t,notes,instructions.started,instructions_txt.started,key_control.started,instructions.stopped,key_control.keys,key_control.rt,key_control.duration,ready.started,ready_txt.started,ready_txt.stopped,ready.stopped,fix.started,fixation.started,key_control2.started,fixation_cross.started,fix.stopped,practice.key_control2.keys,practice.key_control2.rt,practice.key_control2.duration,cue.started,cube.started,fixation_cross_cue.started,cue.stopped,target.started,fixation_target.started,fixation_cross_target.started,key_resp.started,star.started,target.stopped,practice.key_resp.keys,practice.key_resp.rt,practice.key_resp.duration,star.stopped,fixation_target.stopped,fixation_cross_target.stopped,key_resp.stopped,block1.key_control2.keys,block1.key_control2.rt,block1.key_control2.duration,block1.key_resp.keys,block1.key_resp.rt,block1.key_resp.duration,break_2.started,text.started,key_control3.started,text.stopped,break_2.stopped,key_control3.keys,key_control3.rt,key_control3.duration,block2.key_control2.keys,block2.key_control2.rt,block2.key_control2.duration,block2.key_resp.keys,block2.key_resp.rt,block2.key_resp.duration,participant,session,date,expName,psychopyVersion,frameRate,expStart,
,,,,,,,,,,,,,,,,,,,,,,,,,,,0.007517100000313803,0.02291640000021289,0.02291640000021289,35.89313029999994,up,35.85742250000021,None,,,,,,,,,,,,,,,,,,,,,,,,,,,,,,,,,,,,,,,,,,,,,,,,,,P141,001,2025-04-09_09h33.54.682,posner_endo_new1,2024.2.4,60.228519047017066,2025-04-09 09h34.03.267512 +0100,
,,,,,,,,,,,,,,,,,,,,,,,,,,,,,,,,,,35.89321360000031,35.905016499999874,38.929550800000015,38.8851466000001,,,,,,,,,,,,,,,,,,,,,,,,,,,,,,,,,,,,,,,,,,,,,,P141,001,2025-04-09_09h33.54.682,posner_endo_new1,2024.2.4,60.228519047017066,2025-04-09 09h34.03.267512 +0100,
cube_l.png,0.1,0.31,invalid,0,0,0,up,15.351519600000302,None,space,0.6659575999997287,None,0,0,0,5,,,,,,,,,38.929550800000015,,,,,,,,,,,,,38.913006100000075,38.929550800000015,38.929550800000015,38.929550800000015,54.28768620000028,up,15.351519600000302,None,54.32088270000031,54.332845400000224,54.332845400000224,54.351365500000156,54.35163300000022,54.368097900000066,54.368097900000066,54.368097900000066,54.451172099999894,55.03495810000004,space,0.6659575999997287,None,,,,,,,,,,,,,,,,,,,,,,,,,P141,001,2025-04-09_09h33.54.682,posner_endo_new1,2024.2.4,60.228519047017066,2025-04-09 09h34.03.267512 +0100,
cube_r.png,0.1,10,catch,1,1,0,up,5.550114600000143,None,None,,,0,1,1,3,,,,,,,,,55.05065210000021,,,,,,,,,,,,,55.03516239999999,55.05065210000021,55.05065210000021,55.05065210000021,60.61246579999988,up,5.550114600000143,None,60.62518110000019,60.634972800000014,60.634972800000014,60.67820900000015,60.678484200000185,60.694686600000296,60.694686600000296,60.694686600000296,60.76151600000003,63.69229350000023,None,,,62.77599680000003,63.70837780000011,63.70837780000011,63.70837780000011,,,,,,,,,,,,,,,,,,,,,P141,001,2025-04-09_09h33.54.682,posner_endo_new1,2024.2.4,60.228519047017066,2025-04-09 09h34.03.267512 +0100,
cube_r.png,0.1,-0.31,invalid,2,2,0,up,5.612254699999994,None,space,0.4265190999999504,None,0,2,2,2,,,,,,,,,63.70837780000011,,,,,,,,,,,,,63.69248030000017,63.70837780000011,63.70837780000011,63.70837780000011,69.33681969999998,up,5.612254699999994,None,69.3457042,69.3551580000003,69.3551580000003,69.40270110000029,69.40297689999989,69.4192063999999,69.4192063999999,69.4192063999999,69.50250379999989,69.8529982,space,0.4265190999999504,None,,,,,,,,,,,,,,,,,,,,,,,,,P141,001,2025-04-09_09h33.54.682,posner_endo_new1,2024.2.4,60.228519047017066,2025-04-09 09h34.03.267512 +0100,
cube_r.png,0.1,0.31,valid,3,3,0,up,9.109275799999978,None,space,0.35474489999978687,None,0,3,3,7,,,,,,,,,69.86865820000003,,,,,,,,,,,,,69.8531968000002,69.86865820000003,69.86865820000003,69.86865820000003,78.99369710000019,up,9.109275799999978,None,79.00232800000003,79.01223410000011,79.01223410000011,79.0595687,79.05984620000027,79.07609739999998,79.07609739999998,79.07609739999998,79.15937299999996,79.44324580000011,space,0.35474489999978687,None,,,,,,,,,,,,,,,,,,,,,,,,,P141,001,2025-04-09_09h33.54.682,posner_endo_new1,2024.2.4,60.228519047017066,2025-04-09 09h34.03.267512 +0100,
cube_l.png,0.1,-0.31,valid,4,4,0,up,8.10997019999968,None,space,0.33866970000008223,None,0,4,4,8,,,,,,,,,79.45906370000012,,,,,,,,,,,,,79.4434452999999,79.45906370000012,79.45906370000012,79.45906370000012,87.58488979999993,up,8.10997019999968,None,87.59318370000028,87.60363670000015,87.60363670000015,87.65077509999992,87.6510530999999,87.66718859999992,87.66718859999992,87.66718859999992,87.75047919999997,88.0176704999999,space,0.33866970000008223,None,,,,,,,,,,,,,,,,,,,,,,,,,P141,001,2025-04-09_09h33.54.682,posner_endo_new1,2024.2.4,60.228519047017066,2025-04-09 09h34.03.267512 +0100,
cube_r.png,0.1,-0.31,invalid,5,5,0,up,9.622440499999811,None,space,0.43291469999985566,None,0,5,5,9,,,,,,,,,88.03359159999991,,,,,,,,,,,,,88.01787240000021,88.03359159999991,88.03359159999991,88.03359159999991,97.6578955,up,9.622440499999811,None,97.66597230000025,97.6767060000002,97.6767060000002,97.72381670000004,97.72409450000032,97.74029830000018,97.74029830000018,97.74029830000018,97.80693479999991,98.17426530000012,space,0.43291469999985566,None,,,,,,,,,,,,,,,,,,,,,,,,,P141,001,2025-04-09_09h33.54.682,posner_endo_new1,2024.2.4,60.228519047017066,2025-04-09 09h34.03.267512 +0100,
cube_r.png,0.1,-0.31,invalid,6,6,0,up,10.098842899999909,None,space,0.39735849999988204,None,0,6,6,6,,,,,,,,,98.18988760000002,,,,,,,,,,,,,98.17446390000032,98.18988760000002,98.18988760000002,98.18988760000002,108.29719280000018,up,10.098842899999909,None,108.30549960000008,108.31592769999997,108.31592769999997,108.36291810000012,108.3631889000003,108.37946890000012,108.37946890000012,108.37946890000012,108.46272470000031,108.77981720000025,space,0.39735849999988204,None,,,,,,,,,,,,,,,,,,,,,,,,,P141,001,2025-04-09_09h33.54.682,posner_endo_new1,2024.2.4,60.228519047017066,2025-04-09 09h34.03.267512 +0100,
cube_l.png,0.1,-0.31,valid,7,7,0,up,11.508948800000326,None,space,0.4179845999997269,None,0,7,7,0,,,,,,,,,108.79569320000019,,,,,,,,,,,,,108.78001780000022,108.79569320000019,108.79569320000019,108.79569320000019,120.31801290000021,up,11.508948800000326,None,120.32600039999988,120.33705069999996,120.33705069999996,120.38390479999998,120.38426550000031,120.40035059999991,120.40035059999991,120.40035059999991,120.48361670000031,120.83448290000024,space,0.4179845999997269,None,,,,,,,,,,,,,,,,,,,,,,,,,P141,001,2025-04-09_09h33.54.682,posner_endo_new1,2024.2.4,60.228519047017066,2025-04-09 09h34.03.267512 +0100,
cube_l.png,0.1,-0.31,valid,8,8,0,up,7.006552099999681,None,space,0.4306179999998676,None,0,8,8,4,,,,,,,,,120.8499552000003,,,,,,,,,,,,,120.83475739999994,120.8499552000003,120.8499552000003,120.8499552000003,127.86072280000008,up,7.006552099999681,None,127.87284529999988,127.88308400000005,127.88308400000005,127.92616150000003,127.92652709999993,127.94258600000012,127.94258600000012,127.94258600000012,128.02595930000007,128.37693799999988,space,0.4306179999998676,None,,,,,,,,,,,,,,,,,,,,,,,,,P141,001,2025-04-09_09h33.54.682,posner_endo_new1,2024.2.4,60.228519047017066,2025-04-09 09h34.03.267512 +0100,
cube_r.png,0.1,0.31,valid,9,9,0,up,8.896331000000373,None,space,0.3662337999999181,None,0,9,9,10,,,,,,,,,128.39228360000016,,,,,,,,,,,,,128.37721499999998,128.39228360000016,128.39228360000016,128.39228360000016,137.30104280000023,up,8.896331000000373,None,137.3134639,137.32361309999987,137.32361309999987,137.36658380000017,137.36694820000002,137.38310490000003,137.38310490000003,137.38310490000003,137.46631530000013,137.75079520000008,space,0.3662337999999181,None,,,,,,,,,,,,,,,,,,,,,,,,,P141,001,2025-04-09_09h33.54.682,posner_endo_new1,2024.2.4,60.228519047017066,2025-04-09 09h34.03.267512 +0100,
cube_l.png,0.1,0.31,invalid,10,10,0,up,8.515201899999738,None,space,0.4254078999997546,None,0,10,10,1,,,,,,,,,137.76595870000028,,,,,,,,,,,,,137.75107000000025,137.76595870000028,137.76595870000028,137.76595870000028,146.29327710000007,up,8.515201899999738,None,146.31823200000008,146.32875599999988,146.32875599999988,146.35708999999997,146.3574953000002,146.3735612999999,146.3735612999999,146.3735612999999,146.45681280000008,146.80791360000012,space,0.4254078999997546,None,,,,,,,,,,,,,,,,,,,,,,,,,P141,001,2025-04-09_09h33.54.682,posner_endo_new1,2024.2.4,60.228519047017066,2025-04-09 09h34.03.267512 +0100,
,,,,,,,,,,,,,,,,,,,,,,,,,,,,,,,,,,146.80811530000028,146.82308020000028,149.8376089000003,149.80417949999992,,,,,,,,,,,,,,,,,,,,,,,,,,,,,,,,,,,,,,,,,,,,,,P141,001,2025-04-09_09h33.54.682,posner_endo_new1,2024.2.4,60.228519047017066,2025-04-09 09h34.03.267512 +0100,
cube_l.png,0.1,10,catch,0,0,0,up,7.618766300000061,None,None,,,,,,,0,0,0,0,,,,,149.8376089000003,,,,,,,,,,,,,149.82866160000003,149.8376089000003,149.8376089000003,149.8376089000003,157.4635698000002,,,,157.47721039999988,157.4873335000002,157.4873335000002,157.52901800000018,157.5294401000001,157.54548990000012,157.54548990000012,157.54548990000012,157.6287384000002,160.54324029999998,,,,159.64335269999992,160.55908649999992,160.55908649999992,160.55908649999992,up,7.618766300000061,None,None,,,,,,,,,,,,,,,,,P141,001,2025-04-09_09h33.54.682,posner_endo_new1,2024.2.4,60.228519047017066,2025-04-09 09h34.03.267512 +0100,
cube_l.png,0.1,10,catch,1,1,0,up,8.545428400000219,None,None,,,,,,,0,1,1,1,,,,,160.55908649999992,,,,,,,,,,,,,160.54354289999992,160.55908649999992,160.55908649999992,160.55908649999992,169.11834380000028,,,,169.1277344,169.13780350000025,169.13780350000025,169.18410270000004,169.18439399999988,169.20086429999992,169.20086429999992,169.20086429999992,169.2839197000003,172.19824860000017,,,,171.29847770000015,172.21432400000003,172.21432400000003,172.21432400000003,up,8.545428400000219,None,None,,,,,,,,,,,,,,,,,P141,001,2025-04-09_09h33.54.682,posner_endo_new1,2024.2.4,60.228519047017066,2025-04-09 09h34.03.267512 +0100,
cube_l.png,0.1,0.31,invalid,2,2,0,up,7.634588800000074,None,space,0.4770730000000185,None,,,,,0,2,2,2,,,,,172.21432400000003,,,,,,,,,,,,,172.1984708,172.21432400000003,172.21432400000003,172.21432400000003,179.85741719999987,,,,179.86605809999992,179.87609550000025,179.87609550000025,179.92321020000009,179.9235090000002,179.93963500000018,179.93963500000018,179.93963500000018,180.02286600000025,180.42339330000004,,,,,,,,up,7.634588800000074,None,space,0.4770730000000185,None,,,,,,,,,,,,,,,P141,001,2025-04-09_09h33.54.682,posner_endo_new1,2024.2.4,60.228519047017066,2025-04-09 09h34.03.267512 +0100,
cube_l.png,0.1,0.31,invalid,3,3,0,up,20.55323449999969,None,space,0.3441649999999754,None,,,,,0,3,3,3,,,,,180.4391181000001,,,,,,,,,,,,,180.42363130000012,180.4391181000001,180.4391181000001,180.4391181000001,201.0023110000002,,,,201.01112319999993,201.02128990000028,201.02128990000028,201.0683339000002,201.0686283,201.0847063000001,201.0847063000001,201.0847063000001,201.15185370000017,201.43556230000013,,,,,,,,up,20.55323449999969,None,space,0.3441649999999754,None,,,,,,,,,,,,,,,P141,001,2025-04-09_09h33.54.682,posner_endo_new1,2024.2.4,60.228519047017066,2025-04-09 09h34.03.267512 +0100,
cube_l.png,0.1,-0.31,valid,4,4,0,up,8.389945299999908,None,space,0.643773499999952,None,,,,,0,4,4,4,,,,,201.45110599999998,,,,,,,,,,,,,201.43578810000008,201.45110599999998,201.45110599999998,201.45110599999998,209.84349629999997,,,,209.85214510000014,209.8622448000001,209.8622448000001,209.90911240000014,209.90940279999995,209.9258130000003,209.9258130000003,209.9258130000003,210.0089568000003,210.57600039999988,,,,,,,,up,8.389945299999908,None,space,0.643773499999952,None,,,,,,,,,,,,,,,P141,001,2025-04-09_09h33.54.682,posner_endo_new1,2024.2.4,60.228519047017066,2025-04-09 09h34.03.267512 +0100,
cube_r.png,0.1,-0.31,invalid,5,5,0,up,11.665240600000288,None,space,0.5090736000001925,None,,,,,0,5,5,5,,,,,210.59148510000023,,,,,,,,,,,,,210.57623270000022,210.59148510000023,210.59148510000023,210.59148510000023,222.26420510000025,,,,222.2726831,222.28285779999987,222.28285779999987,222.32976260000032,222.33005170000024,222.34650680000004,222.34650680000004,222.34650680000004,222.4297472000003,222.8635406000003,,,,,,,,up,11.665240600000288,None,space,0.5090736000001925,None,,,,,,,,,,,,,,,P141,001,2025-04-09_09h33.54.682,posner_endo_new1,2024.2.4,60.228519047017066,2025-04-09 09h34.03.267512 +0100,
cube_r.png,0.1,0.31,valid,6,6,0,up,11.826437400000032,None,space,0.43456030000015744,None,,,,,0,6,6,6,,,,,222.87931830000025,,,,,,,,,,,,,222.86376530000007,222.87931830000025,222.87931830000025,222.87931830000025,234.71803499999987,,,,234.72671059999993,234.73685620000015,234.73685620000015,234.78379760000007,234.7840897000001,234.80042439999988,234.80042439999988,234.80042439999988,234.88355880000017,235.2507542000003,,,,,,,,up,11.826437400000032,None,space,0.43456030000015744,None,,,,,,,,,,,,,,,P141,001,2025-04-09_09h33.54.682,posner_endo_new1,2024.2.4,60.228519047017066,2025-04-09 09h34.03.267512 +0100,
cube_r.png,0.1,-0.31,invalid,7,7,0,up,11.310488300000088,None,space,0.3893116999997801,None,,,,,0,7,7,7,,,,,235.26667769999995,,,,,,,,,,,,,235.2509855000003,235.26667769999995,235.26667769999995,235.26667769999995,246.58911239999998,,,,246.5981480999999,246.60824270000012,246.60824270000012,246.65502930000002,246.65532600000006,246.67165729999988,246.67165729999988,246.67165729999988,246.73832110000012,247.07224600000018,,,,,,,,up,11.310488300000088,None,space,0.3893116999997801,None,,,,,,,,,,,,,,,P141,001,2025-04-09_09h33.54.682,posner_endo_new1,2024.2.4,60.228519047017066,2025-04-09 09h34.03.267512 +0100,
cube_l.png,0.1,-0.31,valid,8,8,0,up,11.513218999999935,None,space,0.4856339999996635,None,,,,,0,8,8,8,,,,,247.08755400000018,,,,,,,,,,,,,247.07247800000005,247.08755400000018,247.08755400000018,247.08755400000018,258.61033540000017,,,,258.61883510000007,258.6290626,258.6290626,258.6762183999999,258.67651160000014,258.6925792000002,258.6925792000002,258.6925792000002,258.77584320000005,259.19303130000026,,,,,,,,up,11.513218999999935,None,space,0.4856339999996635,None,,,,,,,,,,,,,,,P141,001,2025-04-09_09h33.54.682,posner_endo_new1,2024.2.4,60.228519047017066,2025-04-09 09h34.03.267512 +0100,
cube_r.png,0.1,-0.31,invalid,9,9,0,up,14.416019600000254,None,space,0.4980358000002525,None,,,,,0,9,9,9,,,,,259.20888990000003,,,,,,,,,,,,,259.19326200000023,259.20888990000003,259.20888990000003,259.20888990000003,273.6283791999999,,,,273.63677929999994,273.6471554,273.6471554,273.69405860000006,273.6943460000002,273.7106990000002,273.7106990000002,273.7106990000002,273.79393600000003,274.2111095,,,,,,,,up,14.416019600000254,None,space,0.4980358000002525,None,,,,,,,,,,,,,,,P141,001,2025-04-09_09h33.54.682,posner_endo_new1,2024.2.4,60.228519047017066,2025-04-09 09h34.03.267512 +0100,
cube_l.png,0.1,0.31,invalid,10,10,0,up,8.222634999999627,None,space,0.45199609999963286,None,,,,,0,10,10,10,,,,,274.2265889,,,,,,,,,,,,,274.2113325999999,274.2265889,274.2265889,274.2265889,282.4527511000001,,,,282.4610710000002,282.47143080000023,282.47143080000023,282.5184572000003,282.51874640000005,282.5350655000002,282.5350655000002,282.5350655000002,282.6181725000001,283.00201960000004,,,,,,,,up,8.222634999999627,None,space,0.45199609999963286,None,,,,,,,,,,,,,,,P141,001,2025-04-09_09h33.54.682,posner_endo_new1,2024.2.4,60.228519047017066,2025-04-09 09h34.03.267512 +0100,
cube_r.png,0.1,-0.31,invalid,11,11,0,up,9.97530770000003,None,space,0.4514750999996977,None,,,,,0,11,11,11,,,,,283.0179241000001,,,,,,,,,,,,,283.0022508000002,283.0179241000001,283.0179241000001,283.0179241000001,293.0085183000001,,,,293.01674189999994,293.0271287999999,293.0271287999999,293.0741874,293.0744752999999,293.0908668000002,293.0908668000002,293.0908668000002,293.1740393,293.5580316999999,,,,,,,,up,9.97530770000003,None,space,0.4514750999996977,None,,,,,,,,,,,,,,,P141,001,2025-04-09_09h33.54.682,posner_endo_new1,2024.2.4,60.228519047017066,2025-04-09 09h34.03.267512 +0100,
cube_r.png,0.1,0.31,valid,12,12,0,up,8.947901799999727,None,space,0.5479765000000043,None,,,,,0,12,12,12,,,,,293.5736350000002,,,,,,,,,,,,,293.5582572000003,293.5736350000002,293.5736350000002,293.5736350000002,302.53330760000017,,,,302.5515771999999,302.56317420000005,302.56317420000005,302.5978119000001,302.598172,302.6142391000003,302.6142391000003,302.6142391000003,302.69753579999997,303.1649735000001,,,,,,,,up,8.947901799999727,None,space,0.5479765000000043,None,,,,,,,,,,,,,,,P141,001,2025-04-09_09h33.54.682,posner_endo_new1,2024.2.4,60.228519047017066,2025-04-09 09h34.03.267512 +0100,
cube_l.png,0.1,10,catch,13,13,0,up,8.892543899999964,None,None,,,,,,,0,13,13,13,,,,,303.1804124,,,,,,,,,,,,,303.1652677000002,303.1804124,303.1804124,303.1804124,312.0891342,,,,312.1003794000003,312.1101993000002,312.1101993000002,312.1547757000003,312.1551437000003,312.17123300000003,312.17123300000003,312.17123300000003,312.2545172,315.1689567000003,,,,314.26906850000023,315.1848936000001,315.1848936000001,315.1848936000001,up,8.892543899999964,None,None,,,,,,,,,,,,,,,,,P141,001,2025-04-09_09h33.54.682,posner_endo_new1,2024.2.4,60.228519047017066,2025-04-09 09h34.03.267512 +0100,
cube_r.png,0.1,-0.31,invalid,14,14,0,up,8.008148500000061,None,space,0.47113020000006145,None,,,,,0,14,14,14,,,,,315.1848936000001,,,,,,,,,,,,,315.1692333000001,315.1848936000001,315.1848936000001,315.1848936000001,323.1946614000003,,,,323.20354399999997,323.2132974000001,323.2132974000001,323.26008850000017,323.2603254999999,323.2762637999999,323.2762637999999,323.2762637999999,323.3596849999999,323.7603417999999,,,,,,,,up,8.008148500000061,None,space,0.47113020000006145,None,,,,,,,,,,,,,,,P141,001,2025-04-09_09h33.54.682,posner_endo_new1,2024.2.4,60.228519047017066,2025-04-09 09h34.03.267512 +0100,
cube_l.png,0.1,-0.31,valid,15,15,0,up,13.152769799999987,None,space,0.44892939999999726,None,,,,,0,15,15,15,,,,,323.776116,,,,,,,,,,,,,323.7605149000001,323.776116,323.776116,323.776116,336.9302759000002,,,,336.9362698,336.9480501000003,336.9480501000003,336.9958936000003,336.9961278999999,337.01244480000014,337.01244480000014,337.01244480000014,337.0958507,337.4631965000003,,,,,,,,up,13.152769799999987,None,space,0.44892939999999726,None,,,,,,,,,,,,,,,P141,001,2025-04-09_09h33.54.682,posner_endo_new1,2024.2.4,60.228519047017066,2025-04-09 09h34.03.267512 +0100,
cube_r.png,0.1,10,catch,16,16,0,up,21.617873400000008,None,None,,,,,,,0,16,16,16,,,,,337.47882000000027,,,,,,,,,,,,,337.46338190000006,337.47882000000027,337.47882000000027,337.47882000000027,359.1077429000002,,,,359.1201670999999,359.1302335999999,359.1302335999999,359.1731248000001,359.17352740000024,359.1895835,359.1895835,359.1895835,359.2728496,362.18731750000006,,,,361.2874614000002,362.2031833000001,362.2031833000001,362.2031833000001,up,21.617873400000008,None,None,,,,,,,,,,,,,,,,,P141,001,2025-04-09_09h33.54.682,posner_endo_new1,2024.2.4,60.228519047017066,2025-04-09 09h34.03.267512 +0100,
cube_r.png,0.1,10,catch,17,17,0,up,6.901719400000275,None,None,,,,,,,0,17,17,17,,,,,362.2031833000001,,,,,,,,,,,,,362.1876307000002,362.2031833000001,362.2031833000001,362.2031833000001,369.11414270000023,,,,369.1266860999999,369.1367848,369.1367848,369.1795757,369.1799925999999,369.19604800000025,369.19604800000025,369.19604800000025,369.27929829999994,372.1937845000002,,,,371.2939059999999,372.2096292000001,372.2096292000001,372.2096292000001,up,6.901719400000275,None,None,,,,,,,,,,,,,,,,,P141,001,2025-04-09_09h33.54.682,posner_endo_new1,2024.2.4,60.228519047017066,2025-04-09 09h34.03.267512 +0100,
cube_l.png,0.1,0.31,invalid,18,18,0,up,7.191448300000047,None,space,0.4463796000000002,None,,,,,0,18,18,18,,,,,372.2096292000001,,,,,,,,,,,,,372.19408780000003,372.2096292000001,372.2096292000001,372.2096292000001,379.40364910000017,,,,379.4161005000001,379.42620110000007,379.42620110000007,379.46906530000024,379.46947420000015,379.4855591999999,379.4855591999999,379.4855591999999,379.5687882000002,379.9364461,,,,,,,,up,7.191448300000047,None,space,0.4463796000000002,None,,,,,,,,,,,,,,,P141,001,2025-04-09_09h33.54.682,posner_endo_new1,2024.2.4,60.228519047017066,2025-04-09 09h34.03.267512 +0100,
cube_l.png,0.1,10,catch,19,19,0,up,12.87369519999993,None,None,,,,,,,0,19,19,19,,,,,379.9517286,,,,,,,,,,,,,379.9367735999999,379.9517286,379.9517286,379.9517286,392.84000160000005,,,,392.8481469000003,392.8586494000001,392.8586494000001,392.9056144000001,392.90591380000023,392.9222344,392.9222344,392.9222344,393.00545520000014,395.9199450000001,,,,395.0201092000002,395.9355760000003,395.9355760000003,395.9355760000003,up,12.87369519999993,None,None,,,,,,,,,,,,,,,,,P141,001,2025-04-09_09h33.54.682,posner_endo_new1,2024.2.4,60.228519047017066,2025-04-09 09h34.03.267512 +0100,
cube_l.png,0.1,0.31,invalid,20,20,0,up,9.929183700000067,None,space,0.8727122999998755,None,,,,,0,20,20,20,,,,,395.9355760000003,,,,,,,,,,,,,395.9201624000002,395.9355760000003,395.9355760000003,395.9355760000003,405.8765768000003,,,,405.8847891999999,405.89523499999996,405.89523499999996,405.9425080000001,405.94280290000006,405.95895999999993,405.95895999999993,405.95895999999993,406.0255363000001,406.8423157000002,,,,,,,,up,9.929183700000067,None,space,0.8727122999998755,None,,,,,,,,,,,,,,,P141,001,2025-04-09_09h33.54.682,posner_endo_new1,2024.2.4,60.228519047017066,2025-04-09 09h34.03.267512 +0100,
cube_l.png,0.1,-0.31,valid,21,21,0,up,12.727171800000178,None,space,0.4809933000001365,None,,,,,0,21,21,21,,,,,406.85799700000007,,,,,,,,,,,,,406.8425494000003,406.85799700000007,406.85799700000007,406.85799700000007,419.5959742,,,,419.60589900000014,419.6160571999999,419.6160571999999,419.6617322000002,419.6620519000003,419.6782298000003,419.6782298000003,419.6782298000003,419.7613673999999,420.1622064000003,,,,,,,,up,12.727171800000178,None,space,0.4809933000001365,None,,,,,,,,,,,,,,,P141,001,2025-04-09_09h33.54.682,posner_endo_new1,2024.2.4,60.228519047017066,2025-04-09 09h34.03.267512 +0100,
cube_r.png,0.1,0.31,valid,22,22,0,up,10.999922500000139,None,space,0.5178794999997081,None,,,,,0,22,22,22,,,,,420.1776646000003,,,,,,,,,,,,,420.16245879999997,420.1776646000003,420.1776646000003,420.1776646000003,431.1842620000002,,,,431.19589769999993,431.2060553000001,431.2060553000001,431.24975110000014,431.2501112,431.26637329999994,431.26637329999994,431.26637329999994,431.3494995000001,431.80038319999994,,,,,,,,up,10.999922500000139,None,space,0.5178794999997081,None,,,,,,,,,,,,,,,P141,001,2025-04-09_09h33.54.682,posner_endo_new1,2024.2.4,60.228519047017066,2025-04-09 09h34.03.267512 +0100,
cube_r.png,0.1,-0.31,invalid,23,23,0,up,10.537967199999912,None,space,0.5450756000000183,None,,,,,0,23,23,23,,,,,431.8157325000002,,,,,,,,,,,,,431.8006908000002,431.8157325000002,431.8157325000002,431.8157325000002,442.3561672000001,,,,442.3677313000003,442.3779241000002,442.3779241000002,442.42170680000027,442.42206699999997,442.4382621,442.4382621,442.4382621,442.52189150000004,442.98885150000024,,,,,,,,up,10.537967199999912,None,space,0.5450756000000183,None,,,,,,,,,,,,,,,P141,001,2025-04-09_09h33.54.682,posner_endo_new1,2024.2.4,60.228519047017066,2025-04-09 09h34.03.267512 +0100,
cube_r.png,0.1,0.31,valid,24,24,0,up,6.2529349000001275,None,space,0.44405570000026273,None,,,,,0,24,24,24,,,,,443.00425780000023,,,,,,,,,,,,,442.98913859999993,443.00425780000023,443.00425780000023,443.00425780000023,449.2674538000001,,,,449.2899027000003,449.29994179999994,449.29994179999994,449.3311168,449.3314802,449.3477528000003,449.3477528000003,449.3477528000003,449.43106080000007,449.7986622000003,,,,,,,,up,6.2529349000001275,None,space,0.44405570000026273,None,,,,,,,,,,,,,,,P141,001,2025-04-09_09h33.54.682,posner_endo_new1,2024.2.4,60.228519047017066,2025-04-09 09h34.03.267512 +0100,
cube_r.png,0.1,-0.31,invalid,25,25,0,up,19.88347849999991,None,space,0.551112699999976,None,,,,,0,25,25,25,,,,,449.81406430000015,,,,,,,,,,,,,449.7989848000002,449.81406430000015,449.81406430000015,449.81406430000015,469.7115722000003,,,,469.7220984999999,469.7316718000002,469.7316718000002,469.7771289000002,469.77737560000014,469.7937277000001,469.7937277000001,469.7937277000001,469.8769901999999,470.3623244999999,,,,,,,,up,19.88347849999991,None,space,0.551112699999976,None,,,,,,,,,,,,,,,P141,001,2025-04-09_09h33.54.682,posner_endo_new1,2024.2.4,60.228519047017066,2025-04-09 09h34.03.267512 +0100,
cube_l.png,0.1,-0.31,valid,26,26,0,up,9.776496099999804,None,space,0.43407269999988785,None,,,,,0,26,26,26,,,,,470.37665590000006,,,,,,,,,,,,,470.3629298999999,470.37665590000006,470.37665590000006,470.37665590000006,480.1674720000001,,,,480.1770965999999,480.18716040000027,480.18716040000027,480.2331933999999,480.2335143999999,480.24976560000005,480.24976560000005,480.24976560000005,480.3329023000001,480.7003324000002,,,,,,,,up,9.776496099999804,None,space,0.43407269999988785,None,,,,,,,,,,,,,,,P141,001,2025-04-09_09h33.54.682,posner_endo_new1,2024.2.4,60.228519047017066,2025-04-09 09h34.03.267512 +0100,
cube_r.png,0.1,0.31,valid,27,27,0,up,9.045363499999894,None,space,0.6015277000001333,None,,,,,0,27,27,27,,,,,480.7158317000003,,,,,,,,,,,,,480.7005875,480.7158317000003,480.7158317000003,480.7158317000003,489.77413990000014,,,,489.7838706000002,489.793987,489.793987,489.83998710000014,489.8403148000002,489.8565865999999,489.8565865999999,489.8565865999999,489.92315959999996,490.4736951,,,,,,,,up,9.045363499999894,None,space,0.6015277000001333,None,,,,,,,,,,,,,,,P141,001,2025-04-09_09h33.54.682,posner_endo_new1,2024.2.4,60.228519047017066,2025-04-09 09h34.03.267512 +0100,
cube_r.png,0.1,10,catch,28,28,0,up,8.359837400000288,None,None,,,,,,,0,28,28,28,,,,,490.4892761000001,,,,,,,,,,,,,490.47395300000017,490.4892761000001,490.4892761000001,490.4892761000001,498.86506899999995,,,,498.8747191000002,498.8849829999999,498.8849829999999,498.93076010000004,498.93108200000006,498.94728729999997,498.94728729999997,498.94728729999997,499.0305037000003,501.9448861000001,,,,501.045165,501.9607977999999,501.9607977999999,501.9607977999999,up,8.359837400000288,None,None,,,,,,,,,,,,,,,,,P141,001,2025-04-09_09h33.54.682,posner_endo_new1,2024.2.4,60.228519047017066,2025-04-09 09h34.03.267512 +0100,
cube_r.png,0.1,0.31,valid,29,29,0,up,8.86460840000018,None,space,0.3871414999998706,None,,,,,0,29,29,29,,,,,501.9607977999999,,,,,,,,,,,,,501.94513589999997,501.9607977999999,501.9607977999999,501.9607977999999,510.83578579999994,,,,510.8418002000003,510.85358859999997,510.85358859999997,510.90171770000006,510.9019515,510.91848130000017,510.91848130000017,510.91848130000017,510.9849629,511.3188033000001,,,,,,,,up,8.86460840000018,None,space,0.3871414999998706,None,,,,,,,,,,,,,,,P141,001,2025-04-09_09h33.54.682,posner_endo_new1,2024.2.4,60.228519047017066,2025-04-09 09h34.03.267512 +0100,
cube_r.png,0.1,0.31,valid,30,30,0,up,12.394511699999839,None,space,0.453645300000062,None,,,,,0,30,30,30,,,,,511.3346789000002,,,,,,,,,,,,,511.3189803,511.3346789000002,511.3346789000002,511.3346789000002,523.7392797000002,,,,523.7453411000001,523.7571522000003,523.7571522000003,523.8053542000002,523.8055911000001,523.8220719000001,523.8220719000001,523.8220719000001,523.8884957999999,524.2888831999999,,,,,,,,up,12.394511699999839,None,space,0.453645300000062,None,,,,,,,,,,,,,,,P141,001,2025-04-09_09h33.54.682,posner_endo_new1,2024.2.4,60.228519047017066,2025-04-09 09h34.03.267512 +0100,
cube_l.png,0.1,-0.31,valid,31,31,0,up,11.968741200000295,None,space,0.41865669999970123,None,,,,,0,31,31,31,,,,,524.3049697000001,,,,,,,,,,,,,524.2890548,524.3049697000001,524.3049697000001,524.3049697000001,536.2785085,,,,536.3010420999999,536.3134727000001,536.3134727000001,536.3422261999999,536.3426423000001,536.3587067000003,536.3587067000003,536.3587067000003,536.4419475,536.7930110000002,,,,,,,,up,11.968741200000295,None,space,0.41865669999970123,None,,,,,,,,,,,,,,,P141,001,2025-04-09_09h33.54.682,posner_endo_new1,2024.2.4,60.228519047017066,2025-04-09 09h34.03.267512 +0100,
cube_r.png,0.1,0.31,valid,32,32,0,up,9.017200900000262,None,space,0.40364050000016505,None,,,,,0,32,32,32,,,,,536.8082302000003,,,,,,,,,,,,,536.7933466,536.8082302000003,536.8082302000003,536.8082302000003,545.8337891000001,,,,545.8462007000003,545.8562835000002,545.8562835000002,545.8995907000003,545.8998633000001,545.9160443000001,545.9160443000001,545.9160443000001,545.9993063000002,546.3332648999999,,,,,,,,up,9.017200900000262,None,space,0.40364050000016505,None,,,,,,,,,,,,,,,P141,001,2025-04-09_09h33.54.682,posner_endo_new1,2024.2.4,60.228519047017066,2025-04-09 09h34.03.267512 +0100,
cube_r.png,0.1,-0.31,invalid,33,33,0,up,10.82020330000023,None,space,0.36091190000024653,None,,,,,0,33,33,33,,,,,546.3488996000001,,,,,,,,,,,,,546.3334754000002,546.3488996000001,546.3488996000001,546.3488996000001,557.1720949999999,,,,557.1797116000002,557.1907685000001,557.1907685000001,557.2379390000001,557.2382153000003,557.2546536,557.2546536,557.2546536,557.3377080999999,557.6215221000002,,,,,,,,up,10.82020330000023,None,space,0.36091190000024653,None,,,,,,,,,,,,,,,P141,001,2025-04-09_09h33.54.682,posner_endo_new1,2024.2.4,60.228519047017066,2025-04-09 09h34.03.267512 +0100,
cube_r.png,0.1,10,catch,34,34,0,up,10.716410300000007,None,None,,,,,,,0,34,34,34,,,,,557.6374390999999,,,,,,,,,,,,,557.6217310000002,557.6374390999999,557.6374390999999,557.6374390999999,568.3606276,,,,568.3682199,568.3793803000003,568.3793803000003,568.4264318999999,568.4267046,568.4429628000003,568.4429628000003,568.4429628000003,568.5260234000002,571.4405120000001,,,,570.5409377999999,571.4565603000001,571.4565603000001,571.4565603000001,up,10.716410300000007,None,None,,,,,,,,,,,,,,,,,P141,001,2025-04-09_09h33.54.682,posner_endo_new1,2024.2.4,60.228519047017066,2025-04-09 09h34.03.267512 +0100,
cube_r.png,0.1,0.31,valid,35,35,0,up,19.249137899999823,None,space,0.5569258000000445,None,,,,,0,35,35,35,,,,,571.4565603000001,,,,,,,,,,,,,571.4407046000001,571.4565603000001,571.4565603000001,571.4565603000001,590.7218819,,,,590.7386610000003,590.7484497,590.7484497,590.7869752000001,590.7873279,590.8035404000002,590.8035404000002,590.8035404000002,590.886743,591.3706150000003,,,,,,,,up,19.249137899999823,None,space,0.5569258000000445,None,,,,,,,,,,,,,,,P141,001,2025-04-09_09h33.54.682,posner_endo_new1,2024.2.4,60.228519047017066,2025-04-09 09h34.03.267512 +0100,
cube_r.png,0.1,-0.31,invalid,36,36,0,up,9.975330199999917,None,space,0.5210568999996212,None,,,,,0,36,36,36,,,,,591.3861384000002,,,,,,,,,,,,,591.3708938,591.3861384000002,591.3861384000002,591.3861384000002,601.3771479000002,,,,601.3883254000002,601.3985496999999,601.3985496999999,601.4426747000002,601.4430448000003,601.4591559999999,601.4591559999999,601.4591559999999,601.5424461000002,601.9931784999999,,,,,,,,up,9.975330199999917,None,space,0.5210568999996212,None,,,,,,,,,,,,,,,P141,001,2025-04-09_09h33.54.682,posner_endo_new1,2024.2.4,60.228519047017066,2025-04-09 09h34.03.267512 +0100,
cube_l.png,0.1,0.31,invalid,37,37,0,up,9.297370299999784,None,space,0.6535123999997268,None,,,,,0,37,37,37,,,,,602.0086606,,,,,,,,,,,,,601.9934834999999,602.0086606,602.0086606,602.0086606,611.3170235000002,,,,611.3283059,611.3384314,611.3384314,611.3826286000003,611.3829954000003,611.3991203,611.3991203,611.3991203,611.4822950000002,612.0661568,,,,,,,,up,9.297370299999784,None,space,0.6535123999997268,None,,,,,,,,,,,,,,,P141,001,2025-04-09_09h33.54.682,posner_endo_new1,2024.2.4,60.228519047017066,2025-04-09 09h34.03.267512 +0100,
cube_l.png,0.1,0.31,invalid,38,38,0,up,8.800188300000173,None,space,0.41590550000000803,None,,,,,0,38,38,38,,,,,612.0815802000002,,,,,,,,,,,,,612.0664456,612.0815802000002,612.0815802000002,612.0815802000002,620.8905511000003,,,,620.9017679000003,620.9119335,620.9119335,620.9561136000002,620.9564733000002,620.9726623000001,620.9726623000001,620.9726623000001,621.0559434000002,621.3901966000003,,,,,,,,up,8.800188300000173,None,space,0.41590550000000803,None,,,,,,,,,,,,,,,P141,001,2025-04-09_09h33.54.682,posner_endo_new1,2024.2.4,60.228519047017066,2025-04-09 09h34.03.267512 +0100,
cube_r.png,0.1,0.31,valid,39,39,0,up,14.059724599999754,None,space,0.41111129999990226,None,,,,,0,39,39,39,,,,,621.4054654000001,,,,,,,,,,,,,621.3904922000002,621.4054654000001,621.4054654000001,621.4054654000001,635.4756524,,,,635.4867947000002,635.4969869000001,635.4969869000001,635.5412578999999,635.5416213000003,635.5577953000002,635.5577953000002,635.5577953000002,635.6410136,635.9751569,,,,,,,,up,14.059724599999754,None,space,0.41111129999990226,None,,,,,,,,,,,,,,,P141,001,2025-04-09_09h33.54.682,posner_endo_new1,2024.2.4,60.228519047017066,2025-04-09 09h34.03.267512 +0100,
cube_l.png,0.1,0.31,invalid,40,40,0,up,11.843042699999842,None,space,0.42701209999995626,None,,,,,0,40,40,40,,,,,635.9906536000003,,,,,,,,,,,,,635.9754447,635.9906536000003,635.9906536000003,635.9906536000003,647.8464038000002,,,,647.8577116000001,647.8678551000003,647.8678551000003,647.9118215000003,647.9121823,647.9284966,647.9284966,647.9284966,648.0114954999999,648.3626247000002,,,,,,,,up,11.843042699999842,None,space,0.42701209999995626,None,,,,,,,,,,,,,,,P141,001,2025-04-09_09h33.54.682,posner_endo_new1,2024.2.4,60.228519047017066,2025-04-09 09h34.03.267512 +0100,
cube_l.png,0.1,10,catch,41,41,0,up,11.976407999999992,None,None,,,,,,,0,41,41,41,,,,,648.3779474000003,,,,,,,,,,,,,648.3629119000002,648.3779474000003,648.3779474000003,648.3779474000003,660.3669657999999,,,,660.3782955000001,660.3884772000001,660.3884772000001,660.432456,660.4328303000002,660.4489868999999,660.4489868999999,660.4489868999999,660.5322084,663.4465885,,,,662.5468209999999,663.4625816000002,663.4625816000002,663.4625816000002,up,11.976407999999992,None,None,,,,,,,,,,,,,,,,,P141,001,2025-04-09_09h33.54.682,posner_endo_new1,2024.2.4,60.228519047017066,2025-04-09 09h34.03.267512 +0100,
cube_l.png,0.1,-0.31,valid,42,42,0,up,9.275345800000196,None,space,0.5324910999997883,None,,,,,0,42,42,42,,,,,663.4625816000002,,,,,,,,,,,,,663.4468678000003,663.4625816000002,663.4625816000002,663.4625816000002,672.7541905000003,,,,672.7627401,672.7727300000001,672.7727300000001,672.8197696000002,672.8200196000003,672.8364372000001,672.8364372000001,672.8364372000001,672.9196179,673.3700526000002,,,,,,,,up,9.275345800000196,None,space,0.5324910999997883,None,,,,,,,,,,,,,,,P141,001,2025-04-09_09h33.54.682,posner_endo_new1,2024.2.4,60.228519047017066,2025-04-09 09h34.03.267512 +0100,
cube_l.png,0.1,10,catch,43,43,0,up,12.391663700000208,None,None,,,,,,,0,43,43,43,,,,,673.3858456000003,,,,,,,,,,,,,673.3702370000001,673.3858456000003,673.3858456000003,673.3858456000003,685.7906797999999,,,,685.7973531000002,685.8089469000001,685.8089469000001,685.8566573000003,685.8568909,685.8727739000001,685.8727739000001,685.8727739000001,685.9397921,688.8702592,,,,687.9542065,688.8868163000002,688.8868163000002,688.8868163000002,up,12.391663700000208,None,None,,,,,,,,,,,,,,,,,P141,001,2025-04-09_09h33.54.682,posner_endo_new1,2024.2.4,60.228519047017066,2025-04-09 09h34.03.267512 +0100,
cube_l.png,0.1,0.31,invalid,44,44,0,up,7.41848760000039,None,space,0.4316438000000744,None,,,,,0,44,44,44,,,,,688.8868163000002,,,,,,,,,,,,,688.8704184000003,688.8868163000002,688.8868163000002,688.8868163000002,696.3128300000003,,,,696.318659,696.3304072000001,696.3304072000001,696.3791523,696.3793837000003,696.3959383000001,696.3959383000001,696.3959383000001,696.4621381000002,696.8293103999999,,,,,,,,up,7.41848760000039,None,space,0.4316438000000744,None,,,,,,,,,,,,,,,P141,001,2025-04-09_09h33.54.682,posner_endo_new1,2024.2.4,60.228519047017066,2025-04-09 09h34.03.267512 +0100,
cube_l.png,0.1,0.31,invalid,45,45,0,up,9.917632900000172,None,space,0.38648250000005646,None,,,,,0,45,45,45,,,,,696.8452341000002,,,,,,,,,,,,,696.8294836,696.8452341000002,696.8452341000002,696.8452341000002,706.7693555999999,,,,706.7752118000003,706.7869521000002,706.7869521000002,706.8353165000003,706.8355475000003,706.8516521000001,706.8516521000001,706.8516521000001,706.9345939,707.2520640000002,,,,,,,,up,9.917632900000172,None,space,0.38648250000005646,None,,,,,,,,,,,,,,,P141,001,2025-04-09_09h33.54.682,posner_endo_new1,2024.2.4,60.228519047017066,2025-04-09 09h34.03.267512 +0100,
cube_r.png,0.1,0.31,valid,46,46,0,up,11.565770800000337,None,space,0.480656899999758,None,,,,,0,46,46,46,,,,,707.2677911999999,,,,,,,,,,,,,707.2522411,707.2677911999999,707.2677911999999,707.2677911999999,718.8404577000001,,,,718.848927,718.8591031000001,718.8591031000001,718.9063411000002,718.9069248999999,718.9226217,718.9226217,718.9226217,719.0058893,719.4076727000001,,,,,,,,up,11.565770800000337,None,space,0.480656899999758,None,,,,,,,,,,,,,,,P141,001,2025-04-09_09h33.54.682,posner_endo_new1,2024.2.4,60.228519047017066,2025-04-09 09h34.03.267512 +0100,
cube_l.png,0.1,-0.31,valid,47,47,0,up,11.651657899999918,None,space,0.48656819999996515,None,,,,,0,47,47,47,,,,,719.4221290999999,,,,,,,,,,,,,719.4081590000001,719.4221290999999,719.4221290999999,719.4221290999999,731.0779412000002,,,,731.0891037000001,731.0992197,731.0992197,731.1435750999999,731.143951,731.1600342000002,731.1600342000002,731.1600342000002,731.2433801000002,731.6607392000001,,,,,,,,up,11.651657899999918,None,space,0.48656819999996515,None,,,,,,,,,,,,,,,P141,001,2025-04-09_09h33.54.682,posner_endo_new1,2024.2.4,60.228519047017066,2025-04-09 09h34.03.267512 +0100,
cube_r.png,0.1,-0.31,invalid,48,48,0,up,11.085658599999988,None,space,0.467508799999905,None,,,,,0,48,48,48,,,,,731.6763587,,,,,,,,,,,,,731.6610294000002,731.6763587,731.6763587,731.6763587,742.7662468000003,,,,742.7773778999999,742.7876412,742.7876412,742.8316642,742.8320322,742.8482254,742.8482254,742.8482254,742.9314439,743.3322473000003,,,,,,,,up,11.085658599999988,None,space,0.467508799999905,None,,,,,,,,,,,,,,,P141,001,2025-04-09_09h33.54.682,posner_endo_new1,2024.2.4,60.228519047017066,2025-04-09 09h34.03.267512 +0100,
cube_r.png,0.1,10,catch,49,49,0,up,10.918107599999985,None,None,,,,,,,0,49,49,49,,,,,743.3477145000002,,,,,,,,,,,,,743.3325336000003,743.3477145000002,743.3477145000002,743.3477145000002,754.2710498000001,,,,754.2823099000002,754.2925559,754.2925559,754.3366383000002,754.3370036000001,754.3530860999999,754.3530860999999,754.3530860999999,754.4363237000002,757.3507254000001,,,,756.4508986000001,757.3667303000002,757.3667303000002,757.3667303000002,up,10.918107599999985,None,None,,,,,,,,,,,,,,,,,P141,001,2025-04-09_09h33.54.682,posner_endo_new1,2024.2.4,60.228519047017066,2025-04-09 09h34.03.267512 +0100,
cube_l.png,0.1,-0.31,valid,50,50,0,up,8.020227300000442,None,space,0.48573579999992944,None,,,,,0,50,50,50,,,,,757.3667303000002,,,,,,,,,,,,,757.3509904000002,757.3667303000002,757.3667303000002,757.3667303000002,765.3931321,,,,765.4023702,765.4121405999999,765.4121405999999,765.4585296999999,765.4587885000001,765.4751347000001,765.4751347000001,765.4751347000001,765.5583793000001,765.9754545000001,,,,,,,,up,8.020227300000442,None,space,0.48573579999992944,None,,,,,,,,,,,,,,,P141,001,2025-04-09_09h33.54.682,posner_endo_new1,2024.2.4,60.228519047017066,2025-04-09 09h34.03.267512 +0100,
cube_l.png,0.1,-0.31,valid,51,51,0,up,10.187006699999984,None,space,0.358624299999974,None,,,,,0,51,51,51,,,,,765.9912222000003,,,,,,,,,,,,,765.9756486000001,765.9912222000003,765.9912222000003,765.9912222000003,776.1817375,,,,776.1888480000002,776.2005714000002,776.2005714000002,776.2475340999999,776.2477972000002,776.2641017999999,776.2641017999999,776.2641017999999,776.3307866,776.6312818000001,,,,,,,,up,10.187006699999984,None,space,0.358624299999974,None,,,,,,,,,,,,,,,P141,001,2025-04-09_09h33.54.682,posner_endo_new1,2024.2.4,60.228519047017066,2025-04-09 09h34.03.267512 +0100,
cube_r.png,0.1,-0.31,invalid,52,52,0,up,6.58707349999986,None,space,0.3843925000001036,None,,,,,0,52,52,52,,,,,776.6471987,,,,,,,,,,,,,776.6314760999999,776.6471987,776.6471987,776.6471987,783.2411676000002,,,,783.2482405000001,783.2600236000003,783.2600236000003,783.3071276000001,783.3073887,783.3237306999999,783.3237306999999,783.3237306999999,783.4068301000002,783.7239284000002,,,,,,,,up,6.58707349999986,None,space,0.3843925000001036,None,,,,,,,,,,,,,,,P141,001,2025-04-09_09h33.54.682,posner_endo_new1,2024.2.4,60.228519047017066,2025-04-09 09h34.03.267512 +0100,
cube_l.png,0.1,-0.31,valid,53,53,0,up,8.3345718999999,None,space,0.5460905999998431,None,,,,,0,53,53,53,,,,,783.7398394000002,,,,,,,,,,,,,783.724123,783.7398394000002,783.7398394000002,783.7398394000002,792.0820670000003,,,,792.0892164000002,792.1010221000001,792.1010221000001,792.1481171,792.1483839000002,792.1646588000003,792.1646588000003,792.1646588000003,792.2478841000002,792.7149597000002,,,,,,,,up,8.3345718999999,None,space,0.5460905999998431,None,,,,,,,,,,,,,,,P141,001,2025-04-09_09h33.54.682,posner_endo_new1,2024.2.4,60.228519047017066,2025-04-09 09h34.03.267512 +0100,
cube_r.png,0.1,10,catch,54,54,0,up,11.727732500000002,None,None,,,,,,,0,54,54,54,,,,,792.7306080000003,,,,,,,,,,,,,792.7151590000003,792.7306080000003,792.7306080000003,792.7306080000003,804.4694373000002,,,,804.4765417000003,804.488288,804.488288,804.5349683,804.5352276000003,804.5519142000003,804.5519142000003,804.5519142000003,804.6184933,807.5494339000002,,,,806.6330333999999,807.5654629999999,807.5654629999999,807.5654629999999,up,11.727732500000002,None,None,,,,,,,,,,,,,,,,,P141,001,2025-04-09_09h33.54.682,posner_endo_new1,2024.2.4,60.228519047017066,2025-04-09 09h34.03.267512 +0100,
cube_l.png,0.1,0.31,invalid,55,55,0,up,11.366060800000014,None,space,0.5246226999997816,None,,,,,0,55,55,55,,,,,807.5654629999999,,,,,,,,,,,,,807.5496152000001,807.5654629999999,807.5654629999999,807.5654629999999,818.9381951,,,,818.9454449,818.9568912,818.9568912,819.0039182,819.0041756999999,819.0201313000002,819.0201313000002,819.0201313000002,819.103611,819.5541167000001,,,,,,,,up,11.366060800000014,None,space,0.5246226999997816,None,,,,,,,,,,,,,,,P141,001,2025-04-09_09h33.54.682,posner_endo_new1,2024.2.4,60.228519047017066,2025-04-09 09h34.03.267512 +0100,
cube_l.png,0.1,-0.31,valid,56,56,0,up,9.400252300000375,None,space,0.9184917000002315,None,,,,,0,56,56,56,,,,,819.5697832000001,,,,,,,,,,,,,819.5543123000002,819.5697832000001,819.5697832000001,819.5697832000001,828.9777416000002,,,,828.9849713000003,828.9965114000001,828.9965114000001,829.0437513000002,829.0440124000002,829.0602242,829.0602242,829.0602242,829.1265097999999,829.9934394000002,,,,,,,,up,9.400252300000375,None,space,0.9184917000002315,None,,,,,,,,,,,,,,,P141,001,2025-04-09_09h33.54.682,posner_endo_new1,2024.2.4,60.228519047017066,2025-04-09 09h34.03.267512 +0100,
cube_r.png,0.1,0.31,valid,57,57,0,up,10.001334099999895,None,space,0.4493492999999944,None,,,,,0,57,57,57,,,,,830.0092692000003,,,,,,,,,,,,,829.9936317000002,830.0092692000003,830.0092692000003,830.0092692000003,840.0184835,,,,840.0402268000003,840.0505246000002,840.0505246000002,840.0823187000001,840.0826890000003,840.0989208999999,840.0989208999999,840.0989208999999,840.1820707000002,840.5500329000001,,,,,,,,up,10.001334099999895,None,space,0.4493492999999944,None,,,,,,,,,,,,,,,P141,001,2025-04-09_09h33.54.682,posner_endo_new1,2024.2.4,60.228519047017066,2025-04-09 09h34.03.267512 +0100,
cube_r.png,0.1,-0.31,invalid,58,58,0,up,20.97337010000001,None,space,0.6594785000002048,None,,,,,0,58,58,58,,,,,840.5651097,,,,,,,,,,,,,840.5503323000003,840.5651097,840.5651097,840.5651097,861.5464913999999,,,,861.5688732000003,861.5810942000003,861.5810942000003,861.6101014999999,861.6105264000003,861.6265745000001,861.6265745000001,861.6265745000001,861.7098162000002,862.2939055000002,,,,,,,,up,20.97337010000001,None,space,0.6594785000002048,None,,,,,,,,,,,,,,,P141,001,2025-04-09_09h33.54.682,posner_endo_new1,2024.2.4,60.228519047017066,2025-04-09 09h34.03.267512 +0100,
cube_l.png,0.1,0.31,invalid,59,59,0,up,6.245337900000322,None,space,0.5285473000003549,None,,,,,0,59,59,59,,,,,862.3092036000003,,,,,,,,,,,,,862.2942335000002,862.3092036000003,862.3092036000003,862.3092036000003,868.5709317000001,,,,868.5832740999999,868.5930011999999,868.5930011999999,868.6362692000002,868.6366955000003,868.6527402000002,868.6527402000002,868.6527402000002,868.7360016000002,869.1868905000001,,,,,,,,up,6.245337900000322,None,space,0.5285473000003549,None,,,,,,,,,,,,,,,P141,001,2025-04-09_09h33.54.682,posner_endo_new1,2024.2.4,60.228519047017066,2025-04-09 09h34.03.267512 +0100,
,,,,,,,,,,,,,,,,,,,,,,,,,,,,,,,,,,,,,,,,,,,,,,,,,,,,,,,,,,,,,,,,,,,,,869.1870999000002,869.2021502000002,869.2021502000002,929.2075313,956.2328347000002,space,87.02454109999962,None,,,,,,,P141,001,2025-04-09_09h33.54.682,posner_endo_new1,2024.2.4,60.228519047017066,2025-04-09 09h34.03.267512 +0100,
,,,,,,,,,,,,,,,,,,,,,,,,,,,,,,,,,,956.2330013000001,956.2471869000001,959.3264712,959.2278233000002,,,,,,,,,,,,,,,,,,,,,,,,,,,,,,,,,,,,,,,,,,,,,,P141,001,2025-04-09_09h33.54.682,posner_endo_new1,2024.2.4,60.228519047017066,2025-04-09 09h34.03.267512 +0100,
cube_l.png,0.1,10,catch,0,0,0,down,5.179896099999951,None,space,0.3480848999997761,None,,,,,,,,,0,0,0,0,959.3264712,,,,,,,,,,,,,959.3180795000003,959.3264712,959.3264712,959.3264712,964.5223212999999,,,,964.5283262000003,964.5398894,964.5398894,964.5881730000001,964.5884100000003,964.6051355,964.6051355,964.6051355,964.6719075999999,964.9555275000002,,,,,,,,,,,,,,,,,,,,,,down,5.179896099999951,None,space,0.3480848999997761,None,P141,001,2025-04-09_09h33.54.682,posner_endo_new1,2024.2.4,60.228519047017066,2025-04-09 09h34.03.267512 +0100,
cube_l.png,0.1,10,catch,1,1,0,down,6.382819500000096,None,None,,,,,,,,,,,0,1,1,1,964.9715233000002,,,,,,,,,,,,,964.9557014000002,964.9715233000002,964.9715233000002,964.9715233000002,971.3657483000002,,,,971.3716192000002,971.3833069000002,971.3833069000002,971.4314862000001,971.4317218000001,971.4479267000002,971.4479267000002,971.4479267000002,971.5312791000001,974.4455876000002,,,,973.5461141000001,974.4617355,974.4617355,974.4617355,,,,,,,,,,,,,,,down,6.382819500000096,None,None,,,P141,001,2025-04-09_09h33.54.682,posner_endo_new1,2024.2.4,60.228519047017066,2025-04-09 09h34.03.267512 +0100,
cube_l.png,0.1,0.31,invalid,2,2,0,down,1.3722453000000314,None,space,0.41936699999996563,None,,,,,,,,,0,2,2,2,974.4617355,,,,,,,,,,,,,974.4457520000001,974.4617355,974.4617355,974.4617355,975.8443867000001,,,,975.8501338000001,975.8616469000003,975.8616469000003,975.9103717000003,975.9106056999999,975.9271210000002,975.9271210000002,975.9271210000002,976.0101594000002,976.3605370999999,,,,,,,,,,,,,,,,,,,,,,down,1.3722453000000314,None,space,0.41936699999996563,None,P141,001,2025-04-09_09h33.54.682,posner_endo_new1,2024.2.4,60.228519047017066,2025-04-09 09h34.03.267512 +0100,
cube_l.png,0.1,0.31,invalid,3,3,0,down,4.121487200000047,None,space,0.36130629999979647,None,,,,,,,,,0,3,3,3,976.3765172000003,,,,,,,,,,,,,976.3607172000002,976.3765172000003,976.3765172000003,976.3765172000003,980.5062619999999,,,,980.5120482000002,980.5238844999999,980.5238844999999,980.5722132999999,980.5724476,980.5887402000003,980.5887402000003,980.5887402000003,980.6557773,980.9557345000003,,,,,,,,,,,,,,,,,,,,,,down,4.121487200000047,None,space,0.36130629999979647,None,P141,001,2025-04-09_09h33.54.682,posner_endo_new1,2024.2.4,60.228519047017066,2025-04-09 09h34.03.267512 +0100,
cube_l.png,0.1,-0.31,valid,4,4,0,down,4.902791900000011,None,space,0.5122870000000148,None,,,,,,,,,0,4,4,4,980.9719103000002,,,,,,,,,,,,,980.9559109000002,980.9719103000002,980.9719103000002,980.9719103000002,985.8842342000003,,,,985.8899900000001,985.9017414,985.9017414,985.9500186999999,985.9502521,985.9663673,985.9663673,985.9663673,986.0500701000001,986.4835112999999,,,,,,,,,,,,,,,,,,,,,,down,4.902791900000011,None,space,0.5122870000000148,None,P141,001,2025-04-09_09h33.54.682,posner_endo_new1,2024.2.4,60.228519047017066,2025-04-09 09h34.03.267512 +0100,
cube_r.png,0.1,-0.31,invalid,5,5,0,down,4.718676500000129,None,space,0.4664005999998153,None,,,,,,,,,0,5,5,5,986.4996125000002,,,,,,,,,,,,,986.4836937,986.4996125000002,986.4996125000002,986.4996125000002,991.2286794000001,,,,991.2345104000001,991.2462835000001,991.2462835000001,991.2944944999999,991.2947302000002,991.3111624000003,991.3111624000003,991.3111624000003,991.3779454,991.7784074000001,,,,,,,,,,,,,,,,,,,,,,down,4.718676500000129,None,space,0.4664005999998153,None,P141,001,2025-04-09_09h33.54.682,posner_endo_new1,2024.2.4,60.228519047017066,2025-04-09 09h34.03.267512 +0100,
cube_r.png,0.1,0.31,valid,6,6,0,down,4.800442800000383,None,space,0.526153499999964,None,,,,,,,,,0,6,6,6,991.7940134999999,,,,,,,,,,,,,991.7785858000002,991.7940134999999,991.7940134999999,991.7940134999999,996.6064403,,,,996.6122645999999,996.6238208,996.6238208,996.6721566000001,996.6723892,996.6891697000001,996.6891697000001,996.6891697000001,996.7557483999999,997.2226029000003,,,,,,,,,,,,,,,,,,,,,,down,4.800442800000383,None,space,0.526153499999964,None,P141,001,2025-04-09_09h33.54.682,posner_endo_new1,2024.2.4,60.228519047017066,2025-04-09 09h34.03.267512 +0100,
cube_r.png,0.1,-0.31,invalid,7,7,0,down,4.740235000000212,None,space,0.3860337000000982,None,,,,,,,,,0,7,7,7,997.23864,,,,,,,,,,,,,997.2227806999999,997.23864,997.23864,997.23864,1001.9845363,,,,1001.9903388000002,1002.0019689999999,1002.0019689999999,1002.0505428000001,1002.0507772999999,1002.0670054000002,1002.0670054000002,1002.0670054000002,1002.1333757000002,1002.4673508000001,,,,,,,,,,,,,,,,,,,,,,down,4.740235000000212,None,space,0.3860337000000982,None,P141,001,2025-04-09_09h33.54.682,posner_endo_new1,2024.2.4,60.228519047017066,2025-04-09 09h34.03.267512 +0100,
cube_l.png,0.1,-0.31,valid,8,8,0,down,4.415828800000327,None,space,0.3737234999998691,None,,,,,,,,,0,8,8,8,1002.4827242000001,,,,,,,,,,,,,1002.4675272,1002.4827242000001,1002.4827242000001,1002.4827242000001,1006.9128424,,,,1006.9185715000003,1006.9303037,1006.9303037,1006.9782147000001,1006.9784491,1006.9954183,1006.9954183,1006.9954183,1007.0785939000002,1007.3789070000003,,,,,,,,,,,,,,,,,,,,,,down,4.415828800000327,None,space,0.3737234999998691,None,P141,001,2025-04-09_09h33.54.682,posner_endo_new1,2024.2.4,60.228519047017066,2025-04-09 09h34.03.267512 +0100,
cube_r.png,0.1,-0.31,invalid,9,9,0,down,3.7521215000001575,None,space,0.3697485999996388,None,,,,,,,,,0,9,9,9,1007.3948565000001,,,,,,,,,,,,,1007.3790821000002,1007.3948565000001,1007.3948565000001,1007.3948565000001,1011.1584556000003,,,,1011.1642124,1011.1759796000001,1011.1759796000001,1011.2244934,1011.2247278,1011.2410603000003,1011.2410603000003,1011.2410603000003,1011.3073881,1011.6246243999999,,,,,,,,,,,,,,,,,,,,,,down,3.7521215000001575,None,space,0.3697485999996388,None,P141,001,2025-04-09_09h33.54.682,posner_endo_new1,2024.2.4,60.228519047017066,2025-04-09 09h34.03.267512 +0100,
cube_l.png,0.1,0.31,invalid,10,10,0,down,3.96184889999995,None,space,0.37763630000017656,None,,,,,,,,,0,10,10,10,1011.6404524,,,,,,,,,,,,,1011.6247989000003,1011.6404524,1011.6404524,1011.6404524,1015.6039522000001,,,,1015.6097159000001,1015.6212989,1015.6212989,1015.6697853999999,1015.6700193000001,1015.6864269000002,1015.6864269000002,1015.6864269000002,1015.7695002999999,1016.0696229,,,,,,,,,,,,,,,,,,,,,,down,3.96184889999995,None,space,0.37763630000017656,None,P141,001,2025-04-09_09h33.54.682,posner_endo_new1,2024.2.4,60.228519047017066,2025-04-09 09h34.03.267512 +0100,
cube_r.png,0.1,-0.31,invalid,11,11,0,down,4.2764022000001205,None,space,0.6249560000001111,None,,,,,,,,,0,11,11,11,1016.0860511999999,,,,,,,,,,,,,1016.0697975000003,1016.0860511999999,1016.0860511999999,1016.0860511999999,1020.3670465,,,,1020.3854452999999,1020.3968150000001,1020.3968150000001,1020.4316509,1020.4319730000002,1020.4482082,1020.4482082,1020.4482082,1020.5314349999999,1021.0819422,,,,,,,,,,,,,,,,,,,,,,down,4.2764022000001205,None,space,0.6249560000001111,None,P141,001,2025-04-09_09h33.54.682,posner_endo_new1,2024.2.4,60.228519047017066,2025-04-09 09h34.03.267512 +0100,
cube_r.png,0.1,0.31,valid,12,12,0,down,9.640899900000022,None,space,0.3536228999996638,None,,,,,,,,,0,12,12,12,1021.0975870000002,,,,,,,,,,,,,1021.0822014999999,1021.0975870000002,1021.0975870000002,1021.0975870000002,1030.7554565,,,,1030.764929,1030.7750751000003,1030.7750751000003,1030.8211254000003,1030.8214529000002,1030.8375813000002,1030.8375813000002,1030.8375813000002,1030.9208598,1031.2048827000003,,,,,,,,,,,,,,,,,,,,,,down,9.640899900000022,None,space,0.3536228999996638,None,P141,001,2025-04-09_09h33.54.682,posner_endo_new1,2024.2.4,60.228519047017066,2025-04-09 09h34.03.267512 +0100,
cube_l.png,0.1,10,catch,13,13,0,down,4.3264101999998275,None,None,,,,,,,,,,,0,13,13,13,1031.2204511,,,,,,,,,,,,,1031.2051430000001,1031.2204511,1031.2204511,1031.2204511,1035.5505390000003,,,,1035.5599935,1035.5700114,1035.5700114,1035.6161871,1035.6165153000002,1035.6326334,1035.6326334,1035.6326334,1035.7159268999999,1038.6302474,,,,1037.7305376,1038.6462968,1038.6462968,1038.6462968,,,,,,,,,,,,,,,down,4.3264101999998275,None,None,,,P141,001,2025-04-09_09h33.54.682,posner_endo_new1,2024.2.4,60.228519047017066,2025-04-09 09h34.03.267512 +0100,
cube_r.png,0.1,-0.31,invalid,14,14,0,down,1.8843054999997548,None,space,0.7029703000002883,None,,,,,,,,,0,14,14,14,1038.6462968,,,,,,,,,,,,,1038.6304964,1038.6462968,1038.6462968,1038.6462968,1040.5453348,,,,1040.5549612,1040.5649871,1040.5649871,1040.6109891,1040.6113102,1040.6274496,1040.6274496,1040.6274496,1040.7107111999999,1041.3445381000001,,,,,,,,,,,,,,,,,,,,,,down,1.8843054999997548,None,space,0.7029703000002883,None,P141,001,2025-04-09_09h33.54.682,posner_endo_new1,2024.2.4,60.228519047017066,2025-04-09 09h34.03.267512 +0100,
cube_l.png,0.1,-0.31,valid,15,15,0,down,5.138811199999964,None,space,0.40563060000022233,None,,,,,,,,,0,15,15,15,1041.3601332000003,,,,,,,,,,,,,1041.3447949000001,1041.3601332000003,1041.3601332000003,1041.3601332000003,1046.5060055,,,,1046.5154594,1046.5256471000002,1046.5256471000002,1046.5716136,1046.5719382000002,1046.5880251000003,1046.5880251000003,1046.5880251000003,1046.6713478000001,1047.0054147,,,,,,,,,,,,,,,,,,,,,,down,5.138811199999964,None,space,0.40563060000022233,None,P141,001,2025-04-09_09h33.54.682,posner_endo_new1,2024.2.4,60.228519047017066,2025-04-09 09h34.03.267512 +0100,
cube_r.png,0.1,10,catch,16,16,0,down,5.566082300000289,None,None,,,,,,,,,,,0,16,16,16,1047.0209982000001,,,,,,,,,,,,,1047.0056800000002,1047.0209982000001,1047.0209982000001,1047.0209982000001,1052.5996691999999,,,,1052.6090968000003,1052.6192919,1052.6192919,1052.6652987000002,1052.6656205,1052.6818542,1052.6818542,1052.6818542,1052.765089,1055.6794707,,,,1054.7797291000002,1055.6954483,1055.6954483,1055.6954483,,,,,,,,,,,,,,,down,5.566082300000289,None,None,,,P141,001,2025-04-09_09h33.54.682,posner_endo_new1,2024.2.4,60.228519047017066,2025-04-09 09h34.03.267512 +0100,
cube_r.png,0.1,10,catch,17,17,0,down,3.915635000000293,None,None,,,,,,,,,,,0,17,17,17,1055.6954483,,,,,,,,,,,,,1055.6797103,1055.6954483,1055.6954483,1055.6954483,1059.625857,,,,1059.6353071000003,1059.6453075,1059.6453075,1059.6916175000001,1059.6919404999999,1059.707943,1059.707943,1059.707943,1059.7911794000001,1062.7056286000002,,,,1061.8058689,1062.7216320000002,1062.7216320000002,1062.7216320000002,,,,,,,,,,,,,,,down,3.915635000000293,None,None,,,P141,001,2025-04-09_09h33.54.682,posner_endo_new1,2024.2.4,60.228519047017066,2025-04-09 09h34.03.267512 +0100,
cube_l.png,0.1,0.31,invalid,18,18,0,down,2.281257000000096,None,space,0.4639850000003207,None,,,,,,,,,0,18,18,18,1062.7216320000002,,,,,,,,,,,,,1062.7058694000002,1062.7216320000002,1062.7216320000002,1062.7216320000002,1065.0039235,,,,1065.0134258000003,1065.0235336,1065.0235336,1065.0694078000001,1065.0697383000002,1065.0858788,1065.0858788,1065.0858788,1065.1690461000003,1065.5532561,,,,,,,,,,,,,,,,,,,,,,down,2.281257000000096,None,space,0.4639850000003207,None,P141,001,2025-04-09_09h33.54.682,posner_endo_new1,2024.2.4,60.228519047017066,2025-04-09 09h34.03.267512 +0100,
cube_l.png,0.1,10,catch,19,19,0,down,5.713872100000117,None,None,,,,,,,,,,,0,19,19,19,1065.5687031000002,,,,,,,,,,,,,1065.5535193,1065.5687031000002,1065.5687031000002,1065.5687031000002,1071.2972506,,,,1071.3066524,1071.3167728000003,1071.3167728000003,1071.362858,1071.3631764000002,1071.3794729,1071.3794729,1071.3794729,1071.4627373000003,1074.3771561000003,,,,1073.4772763,1074.3931155,1074.3931155,1074.3931155,,,,,,,,,,,,,,,down,5.713872100000117,None,None,,,P141,001,2025-04-09_09h33.54.682,posner_endo_new1,2024.2.4,60.228519047017066,2025-04-09 09h34.03.267512 +0100,
cube_l.png,0.1,0.31,invalid,20,20,0,down,1.570181699999921,None,space,0.5299708000002283,None,,,,,,,,,0,20,20,20,1074.3931155,,,,,,,,,,,,,1074.3773953,1074.3931155,1074.3931155,1074.3931155,1075.9757464,,,,1075.9850959999999,1075.9955250000003,1075.9955250000003,1076.0415613,1076.0418835,1076.0581063,1076.0581063,1076.0581063,1076.1412215999999,1076.5919692000002,,,,,,,,,,,,,,,,,,,,,,down,1.570181699999921,None,space,0.5299708000002283,None,P141,001,2025-04-09_09h33.54.682,posner_endo_new1,2024.2.4,60.228519047017066,2025-04-09 09h34.03.267512 +0100,
cube_l.png,0.1,-0.31,valid,21,21,0,down,5.026746900000035,None,space,0.42206880000003366,None,,,,,,,,,0,21,21,21,1076.6074521,,,,,,,,,,,,,1076.5922331000002,1076.6074521,1076.6074521,1076.6074521,1081.6367736000002,,,,1081.6462182999999,1081.6567494,1081.6567494,1081.7024144000002,1081.7027327,1081.7189117000003,1081.7189117000003,1081.7189117000003,1081.8021666,1082.1530997,,,,,,,,,,,,,,,,,,,,,,down,5.026746900000035,None,space,0.42206880000003366,None,P141,001,2025-04-09_09h33.54.682,posner_endo_new1,2024.2.4,60.228519047017066,2025-04-09 09h34.03.267512 +0100,
cube_r.png,0.1,0.31,valid,22,22,0,down,4.066325299999789,None,space,0.43166189999965354,None,,,,,,,,,0,22,22,22,1082.1684569,,,,,,,,,,,,,1082.1533791000002,1082.1684569,1082.1684569,1082.1684569,1086.2484218,,,,1086.2544028000002,1086.2659686000002,1086.2659686000002,1086.3140231000002,1086.3144395,1086.3304668,1086.3304668,1086.3304668,1086.4137167,1086.7647152,,,,,,,,,,,,,,,,,,,,,,down,4.066325299999789,None,space,0.43166189999965354,None,P141,001,2025-04-09_09h33.54.682,posner_endo_new1,2024.2.4,60.228519047017066,2025-04-09 09h34.03.267512 +0100,
cube_r.png,0.1,-0.31,invalid,23,23,0,down,6.654738100000031,None,space,0.47291930000028515,None,,,,,,,,,0,23,23,23,1086.7800148000001,,,,,,,,,,,,,1086.765053,1086.7800148000001,1086.7800148000001,1086.7800148000001,1093.4411943,,,,1093.4521462000002,1093.4616672000002,1093.4616672000002,1093.506992,1093.5072528,1093.5235579,1093.5235579,1093.5235579,1093.6068144,1094.0071529000002,,,,,,,,,,,,,,,,,,,,,,down,6.654738100000031,None,space,0.47291930000028515,None,P141,001,2025-04-09_09h33.54.682,posner_endo_new1,2024.2.4,60.228519047017066,2025-04-09 09h34.03.267512 +0100,
cube_r.png,0.1,0.31,valid,24,24,0,down,6.33992840000019,None,space,0.5862575000001016,None,,,,,,,,,0,24,24,24,1094.0230073000002,,,,,,,,,,,,,1094.0073538000001,1094.0230073000002,1094.0230073000002,1094.0230073000002,1100.3674598000002,,,,1100.3747839000002,1100.3978662,1100.3978662,1100.4333685000001,1100.4336374,1100.4496164000002,1100.4496164000002,1100.4496164000002,1100.5331083,1101.0502669000002,,,,,,,,,,,,,,,,,,,,,,down,6.33992840000019,None,space,0.5862575000001016,None,P141,001,2025-04-09_09h33.54.682,posner_endo_new1,2024.2.4,60.228519047017066,2025-04-09 09h34.03.267512 +0100,
cube_r.png,0.1,-0.31,invalid,25,25,0,down,5.4806422999999995,None,space,0.45758340000020326,None,,,,,,,,,0,25,25,25,1101.0658625,,,,,,,,,,,,,1101.0504707,1101.0658625,1101.0658625,1101.0658625,1106.5609718,,,,1106.5682746000002,1106.5800907000003,1106.5800907000003,1106.6269103,1106.6271716,1106.6435287,1106.6435287,1106.6435287,1106.7266468000003,1107.1103668,,,,,,,,,,,,,,,,,,,,,,down,5.4806422999999995,None,space,0.45758340000020326,None,P141,001,2025-04-09_09h33.54.682,posner_endo_new1,2024.2.4,60.228519047017066,2025-04-09 09h34.03.267512 +0100,
cube_l.png,0.1,-0.31,valid,26,26,0,down,6.205302700000175,None,space,0.5466694000001553,None,,,,,,,,,0,26,26,26,1107.1262088000003,,,,,,,,,,,,,1107.1105674,1107.1262088000003,1107.1262088000003,1107.1262088000003,1113.3374739,,,,1113.3448495000002,1113.3563030999999,1113.3563030999999,1113.4034071,1113.4036672000002,1113.4198065,1113.4198065,1113.4198065,1113.5031144,1113.9702591999999,,,,,,,,,,,,,,,,,,,,,,down,6.205302700000175,None,space,0.5466694000001553,None,P141,001,2025-04-09_09h33.54.682,posner_endo_new1,2024.2.4,60.228519047017066,2025-04-09 09h34.03.267512 +0100,
cube_r.png,0.1,0.31,valid,27,27,0,down,3.657638700000007,None,space,0.5107791999998881,None,,,,,,,,,0,27,27,27,1113.9859475000003,,,,,,,,,,,,,1113.9704627,1113.9859475000003,1113.9859475000003,1113.9859475000003,1117.6498636000001,,,,1117.6572592000002,1117.6685387000002,1117.6685387000002,1117.7155668999999,1117.7158308000003,1117.7320643000003,1117.7320643000003,1117.7320643000003,1117.8154079,1118.2487593,,,,,,,,,,,,,,,,,,,,,,down,3.657638700000007,None,space,0.5107791999998881,None,P141,001,2025-04-09_09h33.54.682,posner_endo_new1,2024.2.4,60.228519047017066,2025-04-09 09h34.03.267512 +0100,
cube_r.png,0.1,10,catch,28,28,0,down,8.929296899999827,None,None,,,,,,,,,,,0,28,28,28,1118.2649423000003,,,,,,,,,,,,,1118.2489678000002,1118.2649423000003,1118.2649423000003,1118.2649423000003,1127.2064894,,,,1127.2137995000003,1127.2255845,1127.2255845,1127.2725062,1127.2727704,1127.2887848999999,1127.2887848999999,1127.2887848999999,1127.3553971000001,1130.2864933,,,,1129.3702148000002,1130.302737,1130.302737,1130.302737,,,,,,,,,,,,,,,down,8.929296899999827,None,None,,,P141,001,2025-04-09_09h33.54.682,posner_endo_new1,2024.2.4,60.228519047017066,2025-04-09 09h34.03.267512 +0100,
cube_r.png,0.1,0.31,valid,29,29,0,down,4.908324900000025,None,space,0.4890857000000324,None,,,,,,,,,0,29,29,29,1130.302737,,,,,,,,,,,,,1130.2866786,1130.302737,1130.302737,1130.302737,1135.2152739000003,,,,1135.2225822,1135.2339632000003,1135.2339632000003,1135.2806021000001,1135.2808689000003,1135.2975295,1135.2975295,1135.2975295,1135.3809095000001,1135.7978363000002,,,,,,,,,,,,,,,,,,,,,,down,4.908324900000025,None,space,0.4890857000000324,None,P141,001,2025-04-09_09h33.54.682,posner_endo_new1,2024.2.4,60.228519047017066,2025-04-09 09h34.03.267512 +0100,
cube_r.png,0.1,0.31,valid,30,30,0,down,6.981212000000141,None,space,0.43638670000018465,None,,,,,,,,,0,30,30,30,1135.8137348,,,,,,,,,,,,,1135.7980339,1135.8137348,1135.8137348,1135.8137348,1142.8073773,,,,1142.8146373,1142.8263812,1142.8263812,1142.8733436000002,1142.8736083,1142.8899557,1142.8899557,1142.8899557,1142.9564478000002,1143.3401302000002,,,,,,,,,,,,,,,,,,,,,,down,6.981212000000141,None,space,0.43638670000018465,None,P141,001,2025-04-09_09h33.54.682,posner_endo_new1,2024.2.4,60.228519047017066,2025-04-09 09h34.03.267512 +0100,
cube_l.png,0.1,-0.31,valid,31,31,0,down,7.8866149999998925,None,space,0.4339608000000226,None,,,,,,,,,0,31,31,31,1143.3559583,,,,,,,,,,,,,1143.3403405,1143.3559583,1143.3559583,1143.3559583,1151.2504278000001,,,,1151.2734277,1151.2856936000003,1151.2856936000003,1151.3144145,1151.3148700000002,1151.3313799000002,1151.3313799000002,1151.3313799000002,1151.4146196000002,1151.7830217,,,,,,,,,,,,,,,,,,,,,,down,7.8866149999998925,None,space,0.4339608000000226,None,P141,001,2025-04-09_09h33.54.682,posner_endo_new1,2024.2.4,60.228519047017066,2025-04-09 09h34.03.267512 +0100,
cube_r.png,0.1,0.31,valid,32,32,0,down,6.773463499999707,None,space,0.4930150999998659,None,,,,,,,,,0,32,32,32,1151.7975747,,,,,,,,,,,,,1151.7836863000002,1151.7975747,1151.7975747,1151.7975747,1158.5763407,,,,1158.5991681,1158.6113568,1158.6113568,1158.64025,1158.6406587000001,1158.6567605,1158.6567605,1158.6567605,1158.7398606000002,1159.1574531,,,,,,,,,,,,,,,,,,,,,,down,6.773463499999707,None,space,0.4930150999998659,None,P141,001,2025-04-09_09h33.54.682,posner_endo_new1,2024.2.4,60.228519047017066,2025-04-09 09h34.03.267512 +0100,
cube_r.png,0.1,-0.31,invalid,33,33,0,down,5.981706000000031,None,space,0.38834600000018327,None,,,,,,,,,0,33,33,33,1159.1727458,,,,,,,,,,,,,1159.1577952000002,1159.1727458,1159.1727458,1159.1727458,1165.1679701000003,,,,1165.1804992000002,1165.1905902000003,1165.1905902000003,1165.2334212,1165.2338268000003,1165.2498879,1165.2498879,1165.2498879,1165.3331633000003,1165.6508112000001,,,,,,,,,,,,,,,,,,,,,,down,5.981706000000031,None,space,0.38834600000018327,None,P141,001,2025-04-09_09h33.54.682,posner_endo_new1,2024.2.4,60.228519047017066,2025-04-09 09h34.03.267512 +0100,
cube_r.png,0.1,10,catch,34,34,0,down,4.17637650000006,None,None,,,,,,,,,,,0,34,34,34,1165.6661331999999,,,,,,,,,,,,,1165.6511545000003,1165.6661331999999,1165.6661331999999,1165.6661331999999,1169.8483667,,,,1169.870903,1169.8831111,1169.8831111,1169.9121123,1169.9125333000002,1169.9285249,1169.9285249,1169.9285249,1170.0116954,1172.9262013000002,,,,1172.0262852,1172.9420207000003,1172.9420207000003,1172.9420207000003,,,,,,,,,,,,,,,down,4.17637650000006,None,None,,,P141,001,2025-04-09_09h33.54.682,posner_endo_new1,2024.2.4,60.228519047017066,2025-04-09 09h34.03.267512 +0100,
cube_r.png,0.1,0.31,valid,35,35,0,down,4.96530440000015,None,space,0.46751210000002175,None,,,,,,,,,0,35,35,35,1172.9420207000003,,,,,,,,,,,,,1172.9265138,1172.9420207000003,1172.9420207000003,1172.9420207000003,1177.9215873000003,,,,1177.9340273000003,1177.9441028,1177.9441028,1177.9870965,1177.9875095000002,1178.0035328,1178.0035328,1178.0035328,1178.0867803,1178.4877895,,,,,,,,,,,,,,,,,,,,,,down,4.96530440000015,None,space,0.46751210000002175,None,P141,001,2025-04-09_09h33.54.682,posner_endo_new1,2024.2.4,60.228519047017066,2025-04-09 09h34.03.267512 +0100,
cube_r.png,0.1,-0.31,invalid,36,36,0,down,7.652151299999787,None,space,0.4119266000002426,None,,,,,,,,,0,36,36,36,1178.5030160000001,,,,,,,,,,,,,1178.4881283,1178.5030160000001,1178.5030160000001,1178.5030160000001,1186.1632511000003,,,,1186.1756967000001,1186.1857946,1186.1857946,1186.2286428000002,1186.2290604,1186.2451068999999,1186.2451068999999,1186.2451068999999,1186.3283606,1186.6627877,,,,,,,,,,,,,,,,,,,,,,down,7.652151299999787,None,space,0.4119266000002426,None,P141,001,2025-04-09_09h33.54.682,posner_endo_new1,2024.2.4,60.228519047017066,2025-04-09 09h34.03.267512 +0100,
cube_l.png,0.1,0.31,invalid,37,37,0,down,6.0531661999998505,None,space,0.4402863999998772,None,,,,,,,,,0,37,37,37,1186.6780068000003,,,,,,,,,,,,,1186.663133,1186.6780068000003,1186.6780068000003,1186.6780068000003,1192.7398148000002,,,,1192.7523064000002,1192.7625099000002,1192.7625099000002,1192.8052545,1192.8056655999999,1192.8217351000003,1192.8217351000003,1192.8217351000003,1192.9049890000001,1193.2725945000002,,,,,,,,,,,,,,,,,,,,,,down,6.0531661999998505,None,space,0.4402863999998772,None,P141,001,2025-04-09_09h33.54.682,posner_endo_new1,2024.2.4,60.228519047017066,2025-04-09 09h34.03.267512 +0100,
cube_l.png,0.1,0.31,invalid,38,38,0,down,8.450932499999908,None,space,0.4514148000002933,None,,,,,,,,,0,38,38,38,1193.2879293,,,,,,,,,,,,,1193.2729286,1193.2879293,1193.2879293,1193.2879293,1201.7472888000002,,,,1201.7597326,1201.7698159000001,1201.7698159000001,1201.8127319,1201.8131451,1201.8292042000003,1201.8292042000003,1201.8292042000003,1201.9124496,1202.2967232,,,,,,,,,,,,,,,,,,,,,,down,8.450932499999908,None,space,0.4514148000002933,None,P141,001,2025-04-09_09h33.54.682,posner_endo_new1,2024.2.4,60.228519047017066,2025-04-09 09h34.03.267512 +0100,
cube_r.png,0.1,0.31,valid,39,39,0,down,6.202697499999886,None,space,0.4245132000000922,None,,,,,,,,,0,39,39,39,1202.3120398,,,,,,,,,,,,,1202.2970538,1202.3120398,1202.3120398,1202.3120398,1208.5236005000002,,,,1208.5318847000003,1208.5424535000002,1208.5424535000002,1208.5896457,1208.5899373000002,1208.6061027,1208.6061027,1208.6061027,1208.6722165,1209.039828,,,,,,,,,,,,,,,,,,,,,,down,6.202697499999886,None,space,0.4245132000000922,None,P141,001,2025-04-09_09h33.54.682,posner_endo_new1,2024.2.4,60.228519047017066,2025-04-09 09h34.03.267512 +0100,
cube_l.png,0.1,0.31,invalid,40,40,0,down,7.338986499999919,None,space,0.4954891999996107,None,,,,,,,,,0,40,40,40,1209.0556757,,,,,,,,,,,,,1209.0400603000003,1209.0556757,1209.0556757,1209.0556757,1216.3991599,,,,1216.4074013,1216.4176361,1216.4176361,1216.4648362000003,1216.4651235000001,1216.4813904000002,1216.4813904000002,1216.4813904000002,1216.5646023,1216.9818308,,,,,,,,,,,,,,,,,,,,,,down,7.338986499999919,None,space,0.4954891999996107,None,P141,001,2025-04-09_09h33.54.682,posner_endo_new1,2024.2.4,60.228519047017066,2025-04-09 09h34.03.267512 +0100,
cube_l.png,0.1,10,catch,41,41,0,down,8.109834800000044,None,None,,,,,,,,,,,0,41,41,41,1216.9970481,,,,,,,,,,,,,1216.9820606000003,1216.9970481,1216.9970481,1216.9970481,1225.1234719,,,,1225.1316394,1225.142158,1225.142158,1225.1892225000001,1225.1895141,1225.2058915000002,1225.2058915000002,1225.2058915000002,1225.2891057000002,1228.2032893,,,,1227.3035906,1228.2193139,1228.2193139,1228.2193139,,,,,,,,,,,,,,,down,8.109834800000044,None,None,,,P141,001,2025-04-09_09h33.54.682,posner_endo_new1,2024.2.4,60.228519047017066,2025-04-09 09h34.03.267512 +0100,
cube_l.png,0.1,-0.31,valid,42,42,0,down,4.423670199999833,None,space,0.5318821999999273,None,,,,,,,,,0,42,42,42,1228.2193139,,,,,,,,,,,,,1228.2035052,1228.2193139,1228.2193139,1228.2193139,1232.6492507000003,,,,1232.6574361000003,1232.6678755000003,1232.6678755000003,1232.7149793000003,1232.7152708000003,1232.7314549000002,1232.7314549000002,1232.7314549000002,1232.8147658000003,1233.2652897000003,,,,,,,,,,,,,,,,,,,,,,down,4.423670199999833,None,space,0.5318821999999273,None,P141,001,2025-04-09_09h33.54.682,posner_endo_new1,2024.2.4,60.228519047017066,2025-04-09 09h34.03.267512 +0100,
cube_l.png,0.1,10,catch,43,43,0,down,8.34648419999985,None,None,,,,,,,,,,,0,43,43,43,1233.2809298000002,,,,,,,,,,,,,1233.2655219000003,1233.2809298000002,1233.2809298000002,1233.2809298000002,1241.6399304000001,,,,1241.6482127,1241.6586095000002,1241.6586095000002,1241.7056895,1241.7059790000003,1241.7222006000002,1241.7222006000002,1241.7222006000002,1241.8052909000003,1244.7197232000003,,,,1243.8201116,1244.7358723000002,1244.7358723000002,1244.7358723000002,,,,,,,,,,,,,,,down,8.34648419999985,None,None,,,P141,001,2025-04-09_09h33.54.682,posner_endo_new1,2024.2.4,60.228519047017066,2025-04-09 09h34.03.267512 +0100,
cube_l.png,0.1,0.31,invalid,44,44,0,down,2.7472343000004003,None,space,0.558527299999696,None,,,,,,,,,0,44,44,44,1244.7358723000002,,,,,,,,,,,,,1244.7199383000002,1244.7358723000002,1244.7358723000002,1244.7358723000002,1247.4840261,,,,1247.4923080000003,1247.5027221,1247.5027221,1247.5498227000003,1247.5501144,1247.5663236,1247.5663236,1247.5663236,1247.6494226,1248.1332749000003,,,,,,,,,,,,,,,,,,,,,,down,2.7472343000004003,None,space,0.558527299999696,None,P141,001,2025-04-09_09h33.54.682,posner_endo_new1,2024.2.4,60.228519047017066,2025-04-09 09h34.03.267512 +0100,
cube_l.png,0.1,0.31,invalid,45,45,0,down,6.04595240000026,None,space,0.7908690999997816,None,,,,,,,,,0,45,45,45,1248.1488571,,,,,,,,,,,,,1248.1335021,1248.1488571,1248.1488571,1248.1488571,1254.2104407000002,,,,1254.2186142,1254.229096,1254.229096,1254.2761856000002,1254.2764757,1254.292681,1254.292681,1254.292681,1254.3760758000003,1255.0928363000003,,,,,,,,,,,,,,,,,,,,,,down,6.04595240000026,None,space,0.7908690999997816,None,P141,001,2025-04-09_09h33.54.682,posner_endo_new1,2024.2.4,60.228519047017066,2025-04-09 09h34.03.267512 +0100,
cube_r.png,0.1,0.31,valid,46,46,0,down,4.470949800000199,None,space,0.447815399999854,None,,,,,,,,,0,46,46,46,1255.1085310000003,,,,,,,,,,,,,1255.0930659,1255.1085310000003,1255.1085310000003,1255.1085310000003,1259.5882534000002,,,,1259.5964289000003,1259.6069477,1259.6069477,1259.6543101000002,1259.6546055,1259.6706656000001,1259.6706656000001,1259.6706656000001,1259.7535940000002,1260.1210752000002,,,,,,,,,,,,,,,,,,,,,,down,4.470949800000199,None,space,0.447815399999854,None,P141,001,2025-04-09_09h33.54.682,posner_endo_new1,2024.2.4,60.228519047017066,2025-04-09 09h34.03.267512 +0100,
cube_l.png,0.1,-0.31,valid,47,47,0,down,6.162182600000051,None,space,0.43430639999996856,None,,,,,,,,,0,47,47,47,1260.1367692,,,,,,,,,,,,,1260.1213034000002,1260.1367692,1260.1367692,1260.1367692,1266.3146962,,,,1266.3228843000002,1266.3334608,1266.3334608,1266.3804732000003,1266.380771,1266.3969025000001,1266.3969025000001,1266.3969025000001,1266.4803881000003,1266.8475177,,,,,,,,,,,,,,,,,,,,,,down,6.162182600000051,None,space,0.43430639999996856,None,P141,001,2025-04-09_09h33.54.682,posner_endo_new1,2024.2.4,60.228519047017066,2025-04-09 09h34.03.267512 +0100,
cube_r.png,0.1,-0.31,invalid,48,48,0,down,5.275538599999891,None,space,0.6313263000001825,None,,,,,,,,,0,48,48,48,1266.8630808000003,,,,,,,,,,,,,1266.8477498000002,1266.8630808000003,1266.8630808000003,1266.8630808000003,1272.1421392000002,,,,1272.1503324,1272.1608529,1272.1608529,1272.2079191000003,1272.2082101,1272.2243532000002,1272.2243532000002,1272.2243532000002,1272.3076437,1272.8580161,,,,,,,,,,,,,,,,,,,,,,down,5.275538599999891,None,space,0.6313263000001825,None,P141,001,2025-04-09_09h33.54.682,posner_endo_new1,2024.2.4,60.228519047017066,2025-04-09 09h34.03.267512 +0100,
cube_r.png,0.1,10,catch,49,49,0,down,6.233334399999876,None,None,,,,,,,,,,,0,49,49,49,1272.8736886000002,,,,,,,,,,,,,1272.8582405000002,1272.8736886000002,1272.8736886000002,1272.8736886000002,1279.1192547,,,,1279.1374101000001,1279.1489953,1279.1489953,1279.1840112,1279.1843313,1279.2006679,1279.2006679,1279.2006679,1279.2838979000003,1282.1982054,,,,1281.2984930000002,1282.214261,1282.214261,1282.214261,,,,,,,,,,,,,,,down,6.233334399999876,None,None,,,P141,001,2025-04-09_09h33.54.682,posner_endo_new1,2024.2.4,60.228519047017066,2025-04-09 09h34.03.267512 +0100,
cube_l.png,0.1,-0.31,valid,50,50,0,down,2.958012999999937,None,space,0.542192200000045,None,,,,,,,,,0,50,50,50,1282.214261,,,,,,,,,,,,,1282.1984428,1282.214261,1282.214261,1282.214261,1285.1789879000003,,,,1285.1884049,1285.1984485000003,1285.1984485000003,1285.2444983,1285.2448202,1285.2609944,1285.2609944,1285.2609944,1285.3442170000003,1285.8115178000003,,,,,,,,,,,,,,,,,,,,,,down,2.958012999999937,None,space,0.542192200000045,None,P141,001,2025-04-09_09h33.54.682,posner_endo_new1,2024.2.4,60.228519047017066,2025-04-09 09h34.03.267512 +0100,
cube_l.png,0.1,-0.31,valid,51,51,0,down,5.471561299999848,None,space,0.5472625000002154,None,,,,,,,,,0,51,51,51,1285.8271117,,,,,,,,,,,,,1285.8117718000003,1285.8271117,1285.8271117,1285.8271117,1291.3057961,,,,1291.3151731000003,1291.3252085,1291.3252085,1291.3715636000002,1291.3718818000002,1291.3881415,1291.3881415,1291.3881415,1291.471357,1291.9385651000002,,,,,,,,,,,,,,,,,,,,,,down,5.471561299999848,None,space,0.5472625000002154,None,P141,001,2025-04-09_09h33.54.682,posner_endo_new1,2024.2.4,60.228519047017066,2025-04-09 09h34.03.267512 +0100,
cube_r.png,0.1,-0.31,invalid,52,52,0,down,5.1531915999999,None,space,0.396339700000226,None,,,,,,,,,0,52,52,52,1291.9541846000002,,,,,,,,,,,,,1291.9388205999999,1291.9541846000002,1291.9541846000002,1291.9541846000002,1297.1165964000002,,,,1297.1259848,1297.1361037000001,1297.1361037000001,1297.1822722000002,1297.1825931000003,1297.1988665,1297.1988665,1297.1988665,1297.2820532,1297.5997484,,,,,,,,,,,,,,,,,,,,,,down,5.1531915999999,None,space,0.396339700000226,None,P141,001,2025-04-09_09h33.54.682,posner_endo_new1,2024.2.4,60.228519047017066,2025-04-09 09h34.03.267512 +0100,
cube_l.png,0.1,-0.31,valid,53,53,0,down,5.292421900000136,None,space,0.5461700999999266,None,,,,,,,,,0,53,53,53,1297.6150741000001,,,,,,,,,,,,,1297.6000074000003,1297.6150741000001,1297.6150741000001,1297.6150741000001,1302.9107397000002,,,,1302.9201285,1302.930327,1302.930327,1302.9765282000003,1302.9768498000003,1302.9929842000001,1302.9929842000001,1302.9929842000001,1303.0761683,1303.5435593000002,,,,,,,,,,,,,,,,,,,,,,down,5.292421900000136,None,space,0.5461700999999266,None,P141,001,2025-04-09_09h33.54.682,posner_endo_new1,2024.2.4,60.228519047017066,2025-04-09 09h34.03.267512 +0100,
cube_r.png,0.1,10,catch,54,54,0,down,15.916192200000296,None,None,,,,,,,,,,,0,54,54,54,1303.5590932,,,,,,,,,,,,,1303.5438135,1303.5590932,1303.5590932,1303.5590932,1319.4779881,,,,1319.4947244,1319.5061707,1319.5061707,1319.5428981,1319.5432486,1319.5591736000001,1319.5591736000001,1319.5591736000001,1319.6427092,1322.5570200000002,,,,1321.6572042000003,1322.5729386000003,1322.5729386000003,1322.5729386000003,,,,,,,,,,,,,,,down,15.916192200000296,None,None,,,P141,001,2025-04-09_09h33.54.682,posner_endo_new1,2024.2.4,60.228519047017066,2025-04-09 09h34.03.267512 +0100,
cube_l.png,0.1,0.31,invalid,55,55,0,down,1.7025008999999045,None,space,0.5510503999998946,None,,,,,,,,,0,55,55,55,1322.5729386000003,,,,,,,,,,,,,1322.5572825,1322.5729386000003,1322.5729386000003,1322.5729386000003,1324.2890486000001,,,,1324.2997986,1324.3098742000002,1324.3098742000002,1324.3546187000002,1324.3549666,1324.3712084,1324.3712084,1324.3712084,1324.4543651,1324.9383063999999,,,,,,,,,,,,,,,,,,,,,,down,1.7025008999999045,None,space,0.5510503999998946,None,P141,001,2025-04-09_09h33.54.682,posner_endo_new1,2024.2.4,60.228519047017066,2025-04-09 09h34.03.267512 +0100,
cube_l.png,0.1,-0.31,valid,56,56,0,down,7.265060299999732,None,space,0.45290280000017447,None,,,,,,,,,0,56,56,56,1324.9539765,,,,,,,,,,,,,1324.9385852,1324.9539765,1324.9539765,1324.9539765,1332.2309323,,,,1332.2417118000003,1332.2518709,1332.2518709,1332.2965305000002,1332.2968777,1332.3129476,1332.3129476,1332.3129476,1332.3961870000003,1332.7803265000002,,,,,,,,,,,,,,,,,,,,,,down,7.265060299999732,None,space,0.45290280000017447,None,P141,001,2025-04-09_09h33.54.682,posner_endo_new1,2024.2.4,60.228519047017066,2025-04-09 09h34.03.267512 +0100,
cube_r.png,0.1,0.31,valid,57,57,0,down,6.911595900000066,None,space,0.4808907999999974,None,,,,,,,,,0,57,57,57,1332.7958079,,,,,,,,,,,,,1332.7806127,1332.7958079,1332.7958079,1332.7958079,1339.7233316000002,,,,1339.7340732000002,1339.744225,1339.744225,1339.7888103,1339.7891644000001,1339.8053632,1339.8053632,1339.8053632,1339.8885293000003,1340.2894047,,,,,,,,,,,,,,,,,,,,,,down,6.911595900000066,None,space,0.4808907999999974,None,P141,001,2025-04-09_09h33.54.682,posner_endo_new1,2024.2.4,60.228519047017066,2025-04-09 09h34.03.267512 +0100,
cube_r.png,0.1,-0.31,invalid,58,58,0,down,4.858545900000081,None,space,0.5293793999999252,None,,,,,,,,,0,58,58,58,1340.3048734,,,,,,,,,,,,,1340.2896858,1340.3048734,1340.3048734,1340.3048734,1345.1677185000003,,,,1345.1783490000003,1345.1885752000003,1345.1885752000003,1345.2332963,1345.2336508000003,1345.2498263000002,1345.2498263000002,1345.2498263000002,1345.3330738,1345.7839098,,,,,,,,,,,,,,,,,,,,,,down,4.858545900000081,None,space,0.5293793999999252,None,P141,001,2025-04-09_09h33.54.682,posner_endo_new1,2024.2.4,60.228519047017066,2025-04-09 09h34.03.267512 +0100,
cube_l.png,0.1,0.31,invalid,59,59,0,down,5.787554099999852,None,space,0.4476001000002725,None,,,,,,,,,0,59,59,59,1345.7991522000002,,,,,,,,,,,,,1345.7841922000002,1345.7991522000002,1345.7991522000002,1345.7991522000002,1351.5943646,,,,1351.6025865000001,1351.6129316000001,1351.6129316000001,1351.6601693000002,1351.6604161999999,1351.6767004000003,1351.6767004000003,1351.6767004000003,1351.7598925000002,1352.1270061,,,,,,,,,,,,,,,,,,,,,,down,5.787554099999852,None,space,0.4476001000002725,None,P141,001,2025-04-09_09h33.54.682,posner_endo_new1,2024.2.4,60.228519047017066,2025-04-09 09h34.03.267512 +0100,
