cue_img,cue_soa,target_x,trial,thisN,thisTrialN,thisRepN,key_control2.keys,key_control2.rt,key_control2.duration,key_resp.keys,key_resp.rt,key_resp.duration,practice.thisRepN,practice.thisTrialN,practice.thisN,practice.thisIndex,block1.thisRepN,block1.thisTrialN,block1.thisN,block1.thisIndex,block2.thisRepN,block2.thisTrialN,block2.thisN,block2.thisIndex,thisRow.t,notes,instructions.started,instructions_txt.started,key_control.started,instructions.stopped,key_control.keys,key_control.rt,key_control.duration,ready.started,ready_txt.started,ready_txt.stopped,ready.stopped,fix.started,fixation.started,key_control2.started,fixation_cross.started,fix.stopped,practice.key_control2.keys,practice.key_control2.rt,practice.key_control2.duration,cue.started,cube.started,fixation_cross_cue.started,cue.stopped,target.started,fixation_target.started,fixation_cross_target.started,key_resp.started,star.started,target.stopped,practice.key_resp.keys,practice.key_resp.rt,practice.key_resp.duration,star.stopped,fixation_target.stopped,fixation_cross_target.stopped,key_resp.stopped,block1.key_control2.keys,block1.key_control2.rt,block1.key_control2.duration,block1.key_resp.keys,block1.key_resp.rt,block1.key_resp.duration,break_2.started,text.started,key_control3.started,text.stopped,break_2.stopped,key_control3.keys,key_control3.rt,key_control3.duration,block2.key_control2.keys,block2.key_control2.rt,block2.key_control2.duration,block2.key_resp.keys,block2.key_resp.rt,block2.key_resp.duration,participant,session,date,expName,psychopyVersion,frameRate,expStart,
,,,,,,,,,,,,,,,,,,,,,,,,,,,0.007446600000548642,0.026587299999846437,0.026587299999846437,4.643298200000572,up,4.6052566999997,None,,,,,,,,,,,,,,,,,,,,,,,,,,,,,,,,,,,,,,,,,,,,,,,,,,P142,001,2025-04-09_10h29.31.076,posner_endo_new1,2024.2.4,60.138221688878474,2025-04-09 10h29.42.803624 +0100,
,,,,,,,,,,,,,,,,,,,,,,,,,,,,,,,,,,4.643338500000027,4.654919900000095,7.671923500000048,7.637132300000303,,,,,,,,,,,,,,,,,,,,,,,,,,,,,,,,,,,,,,,,,,,,,,P142,001,2025-04-09_10h29.31.076,posner_endo_new1,2024.2.4,60.138221688878474,2025-04-09 10h29.42.803624 +0100,
cube_l.png,0.1,0.31,invalid,0,0,0,down,32.55162999999993,None,space,0.5233877000000575,None,0,0,0,5,,,,,,,,,7.671923500000048,,,,,,,,,,,,,7.658922300000086,7.671923500000048,7.671923500000048,7.671923500000048,40.23759390000032,down,32.55162999999993,None,40.250186600000234,40.260382200000095,40.260382200000095,40.30305219999991,40.303294399999686,40.319613599999684,40.319613599999684,40.319613599999684,40.402636200000416,40.85279050000008,space,0.5233877000000575,None,,,,,,,,,,,,,,,,,,,,,,,,,P142,001,2025-04-09_10h29.31.076,posner_endo_new1,2024.2.4,60.138221688878474,2025-04-09 10h29.42.803624 +0100,
cube_r.png,0.1,-0.31,invalid,1,1,0,down,6.266130300000441,None,space,0.43034029999944323,None,0,1,1,6,,,,,,,,,40.86896510000042,,,,,,,,,,,,,40.85296879999987,40.86896510000042,40.86896510000042,40.86896510000042,47.14673210000001,down,6.266130300000441,None,47.154119800000444,47.165381900000284,47.165381900000284,47.212498400000186,47.213006799999675,47.228887600000235,47.228887600000235,47.228887600000235,47.31215590000011,47.66406310000002,space,0.43034029999944323,None,,,,,,,,,,,,,,,,,,,,,,,,,P142,001,2025-04-09_10h29.31.076,posner_endo_new1,2024.2.4,60.138221688878474,2025-04-09 10h29.42.803624 +0100,
cube_l.png,0.1,-0.31,valid,2,2,0,down,5.152919099999963,None,space,0.47173279999969964,None,0,2,2,0,,,,,,,,,47.67841690000023,,,,,,,,,,,,,47.664479900000515,47.67841690000023,47.67841690000023,47.67841690000023,52.84130600000026,down,5.152919099999963,None,52.85277070000029,52.863070100000186,52.863070100000186,52.90679640000053,52.90714759999992,52.923294799999894,52.923294799999894,52.923294799999894,53.006479200000285,53.40741660000003,space,0.47173279999969964,None,,,,,,,,,,,,,,,,,,,,,,,,,P142,001,2025-04-09_10h29.31.076,posner_endo_new1,2024.2.4,60.138221688878474,2025-04-09 10h29.42.803624 +0100,
cube_l.png,0.1,-0.31,valid,3,3,0,down,5.528860600000371,None,space,0.3963604000000487,None,0,3,3,8,,,,,,,,,53.42283760000009,,,,,,,,,,,,,53.407687500000065,53.42283760000009,53.42283760000009,53.42283760000009,58.968190100000356,down,5.528860600000371,None,58.97982670000056,58.9898776,58.9898776,59.03383500000018,59.034186099999715,59.05035190000035,59.05035190000035,59.05035190000035,59.13354640000034,59.45137799999975,space,0.3963604000000487,None,,,,,,,,,,,,,,,,,,,,,,,,,P142,001,2025-04-09_10h29.31.076,posner_endo_new1,2024.2.4,60.138221688878474,2025-04-09 10h29.42.803624 +0100,
cube_r.png,0.1,-0.31,invalid,4,4,0,down,6.0532585999999355,None,space,0.46088440000039554,None,0,4,4,2,,,,,,,,,59.46653890000016,,,,,,,,,,,,,59.4516536000001,59.46653890000016,59.46653890000016,59.46653890000016,65.52818209999987,down,6.0532585999999355,None,65.53696800000034,65.54668700000002,65.54668700000002,65.59381480000047,65.59405820000029,65.61025119999977,65.61025119999977,65.61025119999977,65.69345840000005,66.07714250000026,space,0.46088440000039554,None,,,,,,,,,,,,,,,,,,,,,,,,,P142,001,2025-04-09_10h29.31.076,posner_endo_new1,2024.2.4,60.138221688878474,2025-04-09 10h29.42.803624 +0100,
cube_l.png,0.1,0.31,invalid,5,5,0,down,4.9458912000000055,None,space,0.5124538999998549,None,0,5,5,1,,,,,,,,,66.09319899999991,,,,,,,,,,,,,66.07731590000003,66.09319899999991,66.09319899999991,66.09319899999991,71.05537850000019,down,4.9458912000000055,None,71.06228340000052,71.07410390000041,71.07410390000041,71.12140770000042,71.12164670000038,71.13792569999987,71.13792569999987,71.13792569999987,71.20456459999969,71.65513610000016,space,0.5124538999998549,None,,,,,,,,,,,,,,,,,,,,,,,,,P142,001,2025-04-09_10h29.31.076,posner_endo_new1,2024.2.4,60.138221688878474,2025-04-09 10h29.42.803624 +0100,
cube_r.png,0.1,0.31,valid,6,6,0,down,4.144628900000498,None,space,0.4238224999999147,None,0,6,6,10,,,,,,,,,71.67081409999992,,,,,,,,,,,,,71.65530940000008,71.67081409999992,71.67081409999992,71.67081409999992,75.81749899999977,down,4.144628900000498,None,75.82446720000007,75.83611199999996,75.83611199999996,75.88321020000058,75.88345120000031,75.89981979999993,75.89981979999993,75.89981979999993,75.98306760000014,76.33346009999968,space,0.4238224999999147,None,,,,,,,,,,,,,,,,,,,,,,,,,P142,001,2025-04-09_10h29.31.076,posner_endo_new1,2024.2.4,60.138221688878474,2025-04-09 10h29.42.803624 +0100,
cube_r.png,0.1,0.31,valid,7,7,0,down,8.266038800000388,None,space,0.5096371999998155,None,0,7,7,7,,,,,,,,,76.34923140000046,,,,,,,,,,,,,76.33363360000021,76.34923140000046,76.34923140000046,76.34923140000046,84.62600350000048,down,8.266038800000388,None,84.64381550000053,84.65431450000051,84.65431450000051,84.69113010000001,84.69148210000003,84.70744360000026,84.70744360000026,84.70744360000026,84.79077729999972,85.22481429999971,space,0.5096371999998155,None,,,,,,,,,,,,,,,,,,,,,,,,,P142,001,2025-04-09_10h29.31.076,posner_endo_new1,2024.2.4,60.138221688878474,2025-04-09 10h29.42.803624 +0100,
cube_r.png,0.1,-0.31,invalid,8,8,0,down,6.599655700000767,None,space,0.4993560000002617,None,0,8,8,9,,,,,,,,,85.24037520000002,,,,,,,,,,,,,85.22509150000042,85.24037520000002,85.24037520000002,85.24037520000002,91.85199749999992,down,6.599655700000767,None,91.87146829999983,91.88252350000039,91.88252350000039,91.91697629999999,91.91732750000028,91.93345349999981,91.93345349999981,91.93345349999981,92.01670190000004,92.43431770000007,space,0.4993560000002617,None,,,,,,,,,,,,,,,,,,,,,,,,,P142,001,2025-04-09_10h29.31.076,posner_endo_new1,2024.2.4,60.138221688878474,2025-04-09 10h29.42.803624 +0100,
cube_l.png,0.1,-0.31,valid,9,9,0,down,3.469535000000178,None,space,0.44625340000038705,None,0,9,9,4,,,,,,,,,92.44957340000019,,,,,,,,,,,,,92.43459040000016,92.44957340000019,92.44957340000019,92.44957340000019,95.93054850000044,down,3.469535000000178,None,95.94194229999994,95.95219550000002,95.95219550000002,95.99603900000056,95.99638950000008,96.01262459999998,96.01262459999998,96.01262459999998,96.09586339999987,96.4634157999999,space,0.44625340000038705,None,,,,,,,,,,,,,,,,,,,,,,,,,P142,001,2025-04-09_10h29.31.076,posner_endo_new1,2024.2.4,60.138221688878474,2025-04-09 10h29.42.803624 +0100,
cube_r.png,0.1,10,catch,10,10,0,down,7.632394899999781,None,None,,,0,10,10,3,,,,,,,,,96.47877919999974,,,,,,,,,,,,,96.46368530000018,96.47877919999974,96.47877919999974,96.47877919999974,104.12227809999968,down,7.632394899999781,None,104.13410230000045,104.14431630000036,104.14431630000036,104.18779280000035,104.18815890000042,104.2041564000001,104.2041564000001,104.2041564000001,104.28758209999978,107.20194890000039,None,,,106.30209379999997,107.21779969999989,107.21779969999989,107.21779969999989,,,,,,,,,,,,,,,,,,,,,P142,001,2025-04-09_10h29.31.076,posner_endo_new1,2024.2.4,60.138221688878474,2025-04-09 10h29.42.803624 +0100,
,,,,,,,,,,,,,,,,,,,,,,,,,,,,,,,,,,107.20211350000045,107.21779969999989,110.22992320000048,110.1988153000002,,,,,,,,,,,,,,,,,,,,,,,,,,,,,,,,,,,,,,,,,,,,,,P142,001,2025-04-09_10h29.31.076,posner_endo_new1,2024.2.4,60.138221688878474,2025-04-09 10h29.42.803624 +0100,
cube_l.png,0.1,10,catch,0,0,0,down,4.06524249999984,None,None,,,,,,,0,0,0,0,,,,,110.22992320000048,,,,,,,,,,,,,110.22049609999976,110.22992320000048,110.22992320000048,110.22992320000048,114.31167910000022,,,,114.32298140000057,114.33298230000037,114.33298230000037,114.37731580000036,114.37767350000013,114.39389399999982,114.39389399999982,114.39389399999982,114.4770782000005,117.39152800000011,,,,116.49165110000013,117.40746940000008,117.40746940000008,117.40746940000008,down,4.06524249999984,None,None,,,,,,,,,,,,,,,,,P142,001,2025-04-09_10h29.31.076,posner_endo_new1,2024.2.4,60.138221688878474,2025-04-09 10h29.42.803624 +0100,
cube_l.png,0.1,10,catch,1,1,0,down,5.727674499999921,None,None,,,,,,,0,1,1,1,,,,,117.40746940000008,,,,,,,,,,,,,117.39179899999999,117.40746940000008,117.40746940000008,117.40746940000008,123.13639650000005,,,,123.14784380000037,123.15820020000046,123.15820020000046,123.20162640000035,123.20198540000001,123.21811609999986,123.21811609999986,123.21811609999986,123.30146960000002,126.21577570000045,,,,125.31600220000018,126.2318366999998,126.2318366999998,126.2318366999998,down,5.727674499999921,None,None,,,,,,,,,,,,,,,,,P142,001,2025-04-09_10h29.31.076,posner_endo_new1,2024.2.4,60.138221688878474,2025-04-09 10h29.42.803624 +0100,
cube_l.png,0.1,0.31,invalid,2,2,0,down,2.224084999999832,None,space,0.5288502000003064,None,,,,,0,2,2,2,,,,,126.2318366999998,,,,,,,,,,,,,126.21604470000057,126.2318366999998,126.2318366999998,126.2318366999998,128.46412750000036,,,,128.4753843999997,128.48574329999974,128.48574329999974,128.52964530000008,128.53000340000017,128.5460462000001,128.5460462000001,128.5460462000001,128.62931040000058,129.08013050000045,,,,,,,,down,2.224084999999832,None,space,0.5288502000003064,None,,,,,,,,,,,,,,,P142,001,2025-04-09_10h29.31.076,posner_endo_new1,2024.2.4,60.138221688878474,2025-04-09 10h29.42.803624 +0100,
cube_l.png,0.1,0.31,invalid,3,3,0,down,16.472553600000538,None,space,0.4720443999995041,None,,,,,0,3,3,3,,,,,129.0955027,,,,,,,,,,,,,129.08041690000027,129.0955027,129.0955027,129.0955027,145.57984860000033,,,,145.59148640000058,145.60185730000012,145.60185730000012,145.6454063000001,145.6457588000003,145.6619480999998,145.6619480999998,145.6619480999998,145.74517780000042,146.14596249999977,,,,,,,,down,16.472553600000538,None,space,0.4720443999995041,None,,,,,,,,,,,,,,,P142,001,2025-04-09_10h29.31.076,posner_endo_new1,2024.2.4,60.138221688878474,2025-04-09 10h29.42.803624 +0100,
cube_l.png,0.1,-0.31,valid,4,4,0,down,5.317907499999819,None,space,0.4596756999999343,None,,,,,0,4,4,4,,,,,146.16143569999986,,,,,,,,,,,,,146.14624970000023,146.16143569999986,146.16143569999986,146.16143569999986,151.49041130000023,,,,151.50177170000006,151.51209389999985,151.51209389999985,151.55606559999978,151.55642200000057,151.5725480000001,151.5725480000001,151.5725480000001,151.6557961999997,152.0398070000001,,,,,,,,down,5.317907499999819,None,space,0.4596756999999343,None,,,,,,,,,,,,,,,P142,001,2025-04-09_10h29.31.076,posner_endo_new1,2024.2.4,60.138221688878474,2025-04-09 10h29.42.803624 +0100,
cube_r.png,0.1,-0.31,invalid,5,5,0,down,4.800128200000472,None,space,0.6567742999995971,None,,,,,0,5,5,5,,,,,152.05536219999976,,,,,,,,,,,,,152.04010579999976,152.05536219999976,152.05536219999976,152.05536219999976,156.86830540000028,,,,156.8799871000001,156.89032640000005,156.89032640000005,156.93394570000055,156.93429689999994,156.95036270000037,156.95036270000037,156.95036270000037,157.03359480000017,157.61763169999995,,,,,,,,down,4.800128200000472,None,space,0.6567742999995971,None,,,,,,,,,,,,,,,P142,001,2025-04-09_10h29.31.076,posner_endo_new1,2024.2.4,60.138221688878474,2025-04-09 10h29.42.803624 +0100,
cube_r.png,0.1,0.31,valid,6,6,0,down,5.231221200000618,None,space,0.6045013000002655,None,,,,,0,6,6,6,,,,,157.6329168000002,,,,,,,,,,,,,157.61791650000032,157.6329168000002,157.6329168000002,157.6329168000002,162.87890330000027,,,,162.8872008999997,162.89742079999996,162.89742079999996,162.94435460000022,162.94461560000036,162.96101309999995,162.96101309999995,162.96101309999995,163.04411179999988,163.57759580000038,,,,,,,,down,5.231221200000618,None,space,0.6045013000002655,None,,,,,,,,,,,,,,,P142,001,2025-04-09_10h29.31.076,posner_endo_new1,2024.2.4,60.138221688878474,2025-04-09 10h29.42.803624 +0100,
cube_r.png,0.1,-0.31,invalid,7,7,0,down,4.565818899999613,None,space,0.3783547000002727,None,,,,,0,7,7,7,,,,,163.59385930000008,,,,,,,,,,,,,163.57779039999969,163.59385930000008,163.59385930000008,163.59385930000008,168.17302530000052,,,,168.18032850000054,168.19202029999997,168.19202029999997,168.23880280000049,168.23905209999975,168.2553958999997,168.2553958999997,168.2553958999997,168.33877409999968,168.63920570000028,,,,,,,,down,4.565818899999613,None,space,0.3783547000002727,None,,,,,,,,,,,,,,,P142,001,2025-04-09_10h29.31.076,posner_endo_new1,2024.2.4,60.138221688878474,2025-04-09 10h29.42.803624 +0100,
cube_l.png,0.1,-0.31,valid,8,8,0,down,5.632940899999994,None,space,0.5177357000002303,None,,,,,0,8,8,8,,,,,168.65517100000034,,,,,,,,,,,,,168.63940619999994,168.65517100000034,168.65517100000034,168.65517100000034,174.30001580000044,,,,174.30728950000048,174.31913280000026,174.31913280000026,174.3660077000004,174.36626030000025,174.38248380000005,174.38248380000005,174.38248380000005,174.44922589999987,174.9162538999999,,,,,,,,down,5.632940899999994,None,space,0.5177357000002303,None,,,,,,,,,,,,,,,P142,001,2025-04-09_10h29.31.076,posner_endo_new1,2024.2.4,60.138221688878474,2025-04-09 10h29.42.803624 +0100,
cube_r.png,0.1,-0.31,invalid,9,9,0,down,4.923456499999702,None,space,0.48794309999993857,None,,,,,0,9,9,9,,,,,174.9318798000004,,,,,,,,,,,,,174.91645460000018,174.9318798000004,174.9318798000004,174.9318798000004,179.8610991000005,,,,179.86840510000002,179.88022249999995,179.88022249999995,179.9269532999997,179.92720480000025,179.94339349999973,179.94339349999973,179.94339349999973,180.01024289999987,180.44377520000035,,,,,,,,down,4.923456499999702,None,space,0.48794309999993857,None,,,,,,,,,,,,,,,P142,001,2025-04-09_10h29.31.076,posner_endo_new1,2024.2.4,60.138221688878474,2025-04-09 10h29.42.803624 +0100,
cube_l.png,0.1,0.31,invalid,10,10,0,down,5.724333899999692,None,space,0.4769506000002366,None,,,,,0,10,10,10,,,,,180.45965119999983,,,,,,,,,,,,,180.44397110000045,180.45965119999983,180.45965119999983,180.45965119999983,186.18814230000044,,,,186.19543299999987,186.21837849999974,186.21837849999974,186.25378619999992,186.25404059999983,186.27065500000026,186.27065500000026,186.27065500000026,186.35380470000018,186.75407820000055,,,,,,,,down,5.724333899999692,None,space,0.4769506000002366,None,,,,,,,,,,,,,,,P142,001,2025-04-09_10h29.31.076,posner_endo_new1,2024.2.4,60.138221688878474,2025-04-09 10h29.42.803624 +0100,
cube_r.png,0.1,-0.31,invalid,11,11,0,down,8.790376600000855,None,space,0.4713522000001831,None,,,,,0,11,11,11,,,,,186.76991009999983,,,,,,,,,,,,,186.75427910000053,186.76991009999983,186.76991009999983,186.76991009999983,195.5619545999998,,,,195.56927730000007,195.58070360000056,195.58070360000056,195.62770460000047,195.62795929999993,195.64426900000035,195.64426900000035,195.64426900000035,195.72737870000037,196.12785410000015,,,,,,,,down,8.790376600000855,None,space,0.4713522000001831,None,,,,,,,,,,,,,,,P142,001,2025-04-09_10h29.31.076,posner_endo_new1,2024.2.4,60.138221688878474,2025-04-09 10h29.42.803624 +0100,
cube_r.png,0.1,0.31,valid,12,12,0,down,8.944474399999308,None,space,0.43347540000013396,None,,,,,0,12,12,12,,,,,196.1435265,,,,,,,,,,,,,196.12806079999973,196.1435265,196.1435265,196.1435265,205.10234889999992,,,,205.1135777999998,205.12399640000058,205.12399640000058,205.16802850000022,205.16838199999984,205.18444090000048,205.18444090000048,205.18444090000048,205.2677635,205.6192106999997,,,,,,,,down,8.944474399999308,None,space,0.43347540000013396,None,,,,,,,,,,,,,,,P142,001,2025-04-09_10h29.31.076,posner_endo_new1,2024.2.4,60.138221688878474,2025-04-09 10h29.42.803624 +0100,
cube_l.png,0.1,10,catch,13,13,0,down,6.301980500000354,None,None,,,,,,,0,13,13,13,,,,,205.63396790000024,,,,,,,,,,,,,205.61949879999975,205.63396790000024,205.63396790000024,205.63396790000024,211.94544120000046,,,,211.95662259999972,211.96703520000028,211.96703520000028,212.01091270000052,212.01126440000007,212.02756620000036,212.02756620000036,212.02756620000036,212.11071979999997,215.02517030000035,,,,214.12539809999998,215.04106450000018,215.04106450000018,215.04106450000018,down,6.301980500000354,None,None,,,,,,,,,,,,,,,,,P142,001,2025-04-09_10h29.31.076,posner_endo_new1,2024.2.4,60.138221688878474,2025-04-09 10h29.42.803624 +0100,
cube_r.png,0.1,-0.31,invalid,14,14,0,down,7.631255799999963,None,space,0.5365270000002056,None,,,,,0,14,14,14,,,,,215.04106450000018,,,,,,,,,,,,,215.02544260000013,215.04106450000018,215.04106450000018,215.04106450000018,222.68435000000045,,,,222.6955797999999,222.7058489000001,222.7058489000001,222.75001620000057,222.7503738000005,222.76653729999998,222.76653729999998,222.76653729999998,222.84972800000014,223.31713020000007,,,,,,,,down,7.631255799999963,None,space,0.5365270000002056,None,,,,,,,,,,,,,,,P142,001,2025-04-09_10h29.31.076,posner_endo_new1,2024.2.4,60.138221688878474,2025-04-09 10h29.42.803624 +0100,
cube_l.png,0.1,-0.31,valid,15,15,0,down,9.155092899999545,None,space,0.4231940999998187,None,,,,,0,15,15,15,,,,,223.3326146999998,,,,,,,,,,,,,223.31741860000056,223.3326146999998,223.3326146999998,223.3326146999998,232.49104820000048,,,,232.50225789999968,232.51269279999997,232.51269279999997,232.55665810000028,232.55700820000038,232.5731851999999,232.5731851999999,232.5731851999999,232.65650180000011,233.00732880000032,,,,,,,,down,9.155092899999545,None,space,0.4231940999998187,None,,,,,,,,,,,,,,,P142,001,2025-04-09_10h29.31.076,posner_endo_new1,2024.2.4,60.138221688878474,2025-04-09 10h29.42.803624 +0100,
cube_r.png,0.1,10,catch,16,16,0,down,10.577442499999961,None,None,,,,,,,0,16,16,16,,,,,233.0227261,,,,,,,,,,,,,233.00761310000053,233.0227261,233.0227261,233.0227261,243.6130245000004,,,,243.62434529999973,243.6347366,243.6347366,243.67856370000027,243.6789133000002,243.69523209999988,243.69523209999988,243.69523209999988,243.77835659999982,246.69280770000023,,,,245.7929896000005,246.70854109999982,246.70854109999982,246.70854109999982,down,10.577442499999961,None,None,,,,,,,,,,,,,,,,,P142,001,2025-04-09_10h29.31.076,posner_endo_new1,2024.2.4,60.138221688878474,2025-04-09 10h29.42.803624 +0100,
cube_r.png,0.1,10,catch,17,17,0,down,4.611582999999882,None,None,,,,,,,0,17,17,17,,,,,246.70854109999982,,,,,,,,,,,,,246.6930801999997,246.70854109999982,246.70854109999982,246.70854109999982,251.32217740000033,,,,251.33332950000022,251.34369620000052,251.34369620000052,251.38747030000013,251.38782160000028,251.40392599999996,251.40392599999996,251.40392599999996,251.48730200000045,254.40150090000043,,,,253.50182289999975,254.4175954000002,254.4175954000002,254.4175954000002,down,4.611582999999882,None,None,,,,,,,,,,,,,,,,,P142,001,2025-04-09_10h29.31.076,posner_endo_new1,2024.2.4,60.138221688878474,2025-04-09 10h29.42.803624 +0100,
cube_l.png,0.1,0.31,invalid,18,18,0,down,4.9179809999996,None,space,0.5063805999998294,None,,,,,0,18,18,18,,,,,254.4175954000002,,,,,,,,,,,,,254.40176859999974,254.4175954000002,254.4175954000002,254.4175954000002,259.3470170999999,,,,259.3581715,259.3685502999997,259.3685502999997,259.41257810000025,259.41293339999993,259.42912270000033,259.42912270000033,259.42912270000033,259.5123414999998,259.9463590000005,,,,,,,,down,4.9179809999996,None,space,0.5063805999998294,None,,,,,,,,,,,,,,,P142,001,2025-04-09_10h29.31.076,posner_endo_new1,2024.2.4,60.138221688878474,2025-04-09 10h29.42.803624 +0100,
cube_l.png,0.1,10,catch,19,19,0,down,5.926626299999953,None,None,,,,,,,0,19,19,19,,,,,259.9618209,,,,,,,,,,,,,259.9466494999997,259.9618209,259.9618209,259.9618209,265.89046770000004,,,,265.90157480000016,265.91194840000026,265.91194840000026,265.95585389999997,265.95621140000003,265.9724481000003,265.9724481000003,265.9724481000003,266.0556408000002,268.97005850000005,,,,268.07029349999993,268.98587399999997,268.98587399999997,268.98587399999997,down,5.926626299999953,None,None,,,,,,,,,,,,,,,,,P142,001,2025-04-09_10h29.31.076,posner_endo_new1,2024.2.4,60.138221688878474,2025-04-09 10h29.42.803624 +0100,
cube_l.png,0.1,0.31,invalid,20,20,0,down,8.74260090000007,None,space,0.4996524000007412,None,,,,,0,20,20,20,,,,,268.98587399999997,,,,,,,,,,,,,268.9703397000003,268.98587399999997,268.98587399999997,268.98587399999997,277.7449419000004,,,,277.75506550000046,277.76461970000037,277.76461970000037,277.81024739999975,277.8104868999999,277.8269166,277.8269166,277.8269166,277.9102628999999,278.3274664999999,,,,,,,,down,8.74260090000007,None,space,0.4996524000007412,None,,,,,,,,,,,,,,,P142,001,2025-04-09_10h29.31.076,posner_endo_new1,2024.2.4,60.138221688878474,2025-04-09 10h29.42.803624 +0100,
cube_l.png,0.1,-0.31,valid,21,21,0,down,3.288613699999587,None,space,0.5035972999994556,None,,,,,0,21,21,21,,,,,278.34300840000014,,,,,,,,,,,,,278.32765130000007,278.34300840000014,278.34300840000014,278.34300840000014,281.6404586999997,,,,281.64714490000006,281.65883250000024,281.65883250000024,281.7064763999997,281.7067183999998,281.72293400000035,281.72293400000035,281.72293400000035,281.78954669999985,282.23972649999996,,,,,,,,down,3.288613699999587,None,space,0.5035972999994556,None,,,,,,,,,,,,,,,P142,001,2025-04-09_10h29.31.076,posner_endo_new1,2024.2.4,60.138221688878474,2025-04-09 10h29.42.803624 +0100,
cube_r.png,0.1,0.31,valid,22,22,0,down,2.1837810000006357,None,space,0.42049970000061876,None,,,,,0,22,22,22,,,,,282.2557389000003,,,,,,,,,,,,,282.23990950000007,282.2557389000003,282.2557389000003,282.2557389000003,284.4542674000004,,,,284.4609040000005,284.47282410000025,284.47282410000025,284.52039370000057,284.5206225000002,284.5367336999998,284.5367336999998,284.5367336999998,284.6032915000005,284.97121460000017,,,,,,,,down,2.1837810000006357,None,space,0.42049970000061876,None,,,,,,,,,,,,,,,P142,001,2025-04-09_10h29.31.076,posner_endo_new1,2024.2.4,60.138221688878474,2025-04-09 10h29.42.803624 +0100,
cube_r.png,0.1,-0.31,invalid,23,23,0,down,1.8377966999996715,None,space,0.47236979999979667,None,,,,,0,23,23,23,,,,,284.9861424999999,,,,,,,,,,,,,284.9716484999999,284.9861424999999,284.9861424999999,284.9861424999999,286.8359384000005,,,,286.85201270000016,286.86303339999995,286.86303339999995,286.90109870000015,286.90161030000036,286.91747570000007,286.91747570000007,286.91747570000007,287.0007625999997,287.40207869999995,,,,,,,,down,1.8377966999996715,None,space,0.47236979999979667,None,,,,,,,,,,,,,,,P142,001,2025-04-09_10h29.31.076,posner_endo_new1,2024.2.4,60.138221688878474,2025-04-09 10h29.42.803624 +0100,
cube_r.png,0.1,0.31,valid,24,24,0,down,6.110510299999987,None,space,0.441468399999394,None,,,,,0,24,24,24,,,,,287.4170006000004,,,,,,,,,,,,,287.4025053000005,287.4170006000004,287.4170006000004,287.4170006000004,293.52899010000056,,,,293.54002800000035,293.55035020000014,293.55035020000014,293.59439459999976,293.59475230000044,293.61082820000047,293.61082820000047,293.61082820000047,293.69407690000025,294.0616583000001,,,,,,,,down,6.110510299999987,None,space,0.441468399999394,None,,,,,,,,,,,,,,,P142,001,2025-04-09_10h29.31.076,posner_endo_new1,2024.2.4,60.138221688878474,2025-04-09 10h29.42.803624 +0100,
cube_r.png,0.1,-0.31,invalid,25,25,0,down,10.091409500000736,None,space,0.5276878000004217,None,,,,,0,25,25,25,,,,,294.0770048000004,,,,,,,,,,,,,294.06194159999995,294.0770048000004,294.0770048000004,294.0770048000004,304.1844867,,,,304.19561390000035,304.2059771000004,304.2059771000004,304.25018139999975,304.25054700000055,304.2665919000001,304.2665919000001,304.2665919000001,304.3498647000006,304.80079000000023,,,,,,,,down,10.091409500000736,None,space,0.5276878000004217,None,,,,,,,,,,,,,,,P142,001,2025-04-09_10h29.31.076,posner_endo_new1,2024.2.4,60.138221688878474,2025-04-09 10h29.42.803624 +0100,
cube_l.png,0.1,-0.31,valid,26,26,0,down,19.72008889999961,None,space,0.4072127999997974,None,,,,,0,26,26,26,,,,,304.8161434000003,,,,,,,,,,,,,304.8010850999999,304.8161434000003,304.8161434000003,304.8161434000003,324.54712500000005,,,,324.5558662000003,324.56557220000013,324.56557220000013,324.6126806000002,324.6129415000005,324.6292400000002,324.6292400000002,324.6292400000002,324.7123093,325.0461287999997,,,,,,,,down,19.72008889999961,None,space,0.4072127999997974,None,,,,,,,,,,,,,,,P142,001,2025-04-09_10h29.31.076,posner_endo_new1,2024.2.4,60.138221688878474,2025-04-09 10h29.42.803624 +0100,
cube_r.png,0.1,0.31,valid,27,27,0,down,1.6825104999998075,None,space,0.519216000000597,None,,,,,0,27,27,27,,,,,325.0619281999998,,,,,,,,,,,,,325.0463117999998,325.0619281999998,325.0619281999998,325.0619281999998,326.7611090999999,,,,326.7677633000003,326.7794598999999,326.7794598999999,326.8271273999999,326.8273578999997,326.8435436999998,326.8435436999998,326.8435436999998,326.91008299999976,327.37709730000006,,,,,,,,down,1.6825104999998075,None,space,0.519216000000597,None,,,,,,,,,,,,,,,P142,001,2025-04-09_10h29.31.076,posner_endo_new1,2024.2.4,60.138221688878474,2025-04-09 10h29.42.803624 +0100,
cube_r.png,0.1,10,catch,28,28,0,down,5.030698399999892,None,None,,,,,,,0,28,28,28,,,,,327.3930167999997,,,,,,,,,,,,,327.37726999999995,327.3930167999997,327.3930167999997,327.3930167999997,332.43861990000005,,,,332.4444408999998,332.4559564000001,332.4559564000001,332.5045958999999,332.5048260000003,332.52101700000003,332.52101700000003,332.52101700000003,332.58781120000003,335.51853720000054,,,,334.6021870000004,335.53464150000036,335.53464150000036,335.53464150000036,down,5.030698399999892,None,None,,,,,,,,,,,,,,,,,P142,001,2025-04-09_10h29.31.076,posner_endo_new1,2024.2.4,60.138221688878474,2025-04-09 10h29.42.803624 +0100,
cube_r.png,0.1,0.31,valid,29,29,0,down,17.921688499999618,None,space,0.41581349999978556,None,,,,,0,29,29,29,,,,,335.53464150000036,,,,,,,,,,,,,335.5187076000002,335.53464150000036,335.53464150000036,335.53464150000036,353.4671307999997,,,,353.4737938999997,353.48583659999986,353.48583659999986,353.5330340999999,353.5335537000001,353.5494638,353.5494638,353.5494638,353.6327686000004,353.9673236999997,,,,,,,,down,17.921688499999618,None,space,0.41581349999978556,None,,,,,,,,,,,,,,,P142,001,2025-04-09_10h29.31.076,posner_endo_new1,2024.2.4,60.138221688878474,2025-04-09 10h29.42.803624 +0100,
cube_r.png,0.1,0.31,valid,30,30,0,down,6.521359599999414,None,space,0.42527590000008786,None,,,,,0,30,30,30,,,,,353.98251530000016,,,,,,,,,,,,,353.9676115000002,353.98251530000016,353.98251530000016,353.98251530000016,360.51039949999995,,,,360.5215129999997,360.5318632999997,360.5318632999997,360.57592120000027,360.5762752999999,360.5924964000005,360.5924964000005,360.5924964000005,360.6757570999998,361.0266389999997,,,,,,,,down,6.521359599999414,None,space,0.42527590000008786,None,,,,,,,,,,,,,,,P142,001,2025-04-09_10h29.31.076,posner_endo_new1,2024.2.4,60.138221688878474,2025-04-09 10h29.42.803624 +0100,
cube_l.png,0.1,-0.31,valid,31,31,0,down,2.4307207000001654,None,space,0.4011993000003713,None,,,,,0,31,31,31,,,,,361.0419374000003,,,,,,,,,,,,,361.02692279999974,361.0419374000003,361.0419374000003,361.0419374000003,363.4741460000005,,,,363.4851398999999,363.4954336999999,363.4954336999999,363.53961549999985,363.5399717999999,363.5561309000004,363.5561309000004,363.5561309000004,363.6393850000004,363.97339869999996,,,,,,,,down,2.4307207000001654,None,space,0.4011993000003713,None,,,,,,,,,,,,,,,P142,001,2025-04-09_10h29.31.076,posner_endo_new1,2024.2.4,60.138221688878474,2025-04-09 10h29.42.803624 +0100,
cube_r.png,0.1,0.31,valid,32,32,0,down,7.587049099999604,None,space,0.4283826000000772,None,,,,,0,32,32,32,,,,,363.9889866000003,,,,,,,,,,,,,363.9736917,363.9889866000003,363.9889866000003,363.9889866000003,371.5825302000003,,,,371.5936357999999,371.60405640000045,371.60405640000045,371.6479145000003,371.64826600000015,371.6645169000003,371.6645169000003,371.6645169000003,371.74766069999987,372.0986547000002,,,,,,,,down,7.587049099999604,None,space,0.4283826000000772,None,,,,,,,,,,,,,,,P142,001,2025-04-09_10h29.31.076,posner_endo_new1,2024.2.4,60.138221688878474,2025-04-09 10h29.42.803624 +0100,
cube_r.png,0.1,-0.31,invalid,33,33,0,down,5.318489000000227,None,space,0.5210143999993306,None,,,,,0,33,33,33,,,,,372.1140155000003,,,,,,,,,,,,,372.0989522,372.1140155000003,372.1140155000003,372.1140155000003,377.44300590000057,,,,377.4541062999997,377.46446410000044,377.46446410000044,377.5087574999998,377.5091075,377.5252201000003,377.5252201000003,377.5252201000003,377.6084615,378.05859150000015,,,,,,,,down,5.318489000000227,None,space,0.5210143999993306,None,,,,,,,,,,,,,,,P142,001,2025-04-09_10h29.31.076,posner_endo_new1,2024.2.4,60.138221688878474,2025-04-09 10h29.42.803624 +0100,
cube_r.png,0.1,10,catch,34,34,0,down,10.469802600000548,None,None,,,,,,,0,34,34,34,,,,,378.07451459999993,,,,,,,,,,,,,378.0587604000002,378.07451459999993,378.07451459999993,378.07451459999993,388.5492666,,,,388.56720029999997,388.57897839999987,388.57897839999987,388.61394889999974,388.61427000000003,388.6305947999999,388.6305947999999,388.6305947999999,388.713761,391.6280306999997,,,,390.72834580000017,391.64410990000033,391.64410990000033,391.64410990000033,down,10.469802600000548,None,None,,,,,,,,,,,,,,,,,P142,001,2025-04-09_10h29.31.076,posner_endo_new1,2024.2.4,60.138221688878474,2025-04-09 10h29.42.803624 +0100,
cube_r.png,0.1,0.31,valid,35,35,0,down,1.9163252999996985,None,space,0.4979034000007232,None,,,,,0,35,35,35,,,,,391.64410990000033,,,,,,,,,,,,,391.6282705000003,391.64410990000033,391.64410990000033,391.64410990000033,393.57654569999977,,,,393.58582320000005,393.5956887000002,393.5956887000002,393.6421768,393.64243520000036,393.65866950000054,393.65866950000054,393.65866950000054,393.74194830000033,394.15912579999986,,,,,,,,down,1.9163252999996985,None,space,0.4979034000007232,None,,,,,,,,,,,,,,,P142,001,2025-04-09_10h29.31.076,posner_endo_new1,2024.2.4,60.138221688878474,2025-04-09 10h29.42.803624 +0100,
cube_r.png,0.1,-0.31,invalid,36,36,0,down,9.98517450000054,None,space,0.439962800000103,None,,,,,0,36,36,36,,,,,394.17479920000005,,,,,,,,,,,,,394.1593141000003,394.17479920000005,394.17479920000005,394.17479920000005,404.16566650000004,,,,404.17235619999974,404.1840333,404.1840333,404.23138199999994,404.2316357999998,404.2481075000005,404.2481075000005,404.2481075000005,404.3312166000005,404.69818399999986,,,,,,,,down,9.98517450000054,None,space,0.439962800000103,None,,,,,,,,,,,,,,,P142,001,2025-04-09_10h29.31.076,posner_endo_new1,2024.2.4,60.138221688878474,2025-04-09 10h29.42.803624 +0100,
cube_l.png,0.1,0.31,invalid,37,37,0,down,5.950255599999764,None,space,0.30594400000063615,None,,,,,0,37,37,37,,,,,404.7140844000005,,,,,,,,,,,,,404.6983663000001,404.7140844000005,404.7140844000005,404.7140844000005,410.6754879,,,,410.6821479,410.6938461999998,410.6938461999998,410.74133559999973,410.7415782999997,410.75780099999974,410.75780099999974,410.75780099999974,410.82459259999996,411.075194,,,,,,,,down,5.950255599999764,None,space,0.30594400000063615,None,,,,,,,,,,,,,,,P142,001,2025-04-09_10h29.31.076,posner_endo_new1,2024.2.4,60.138221688878474,2025-04-09 10h29.42.803624 +0100,
cube_l.png,0.1,0.31,invalid,38,38,0,down,18.965458700000454,None,space,0.39020199999959004,None,,,,,0,38,38,38,,,,,411.09089219999987,,,,,,,,,,,,,411.0753801000001,411.09089219999987,411.09089219999987,411.09089219999987,430.07235610000043,,,,430.07905630000005,430.090905,430.090905,430.1381266999997,430.13864250000006,430.154595,430.154595,430.154595,430.23784799999976,430.5558858000004,,,,,,,,down,18.965458700000454,None,space,0.39020199999959004,None,,,,,,,,,,,,,,,P142,001,2025-04-09_10h29.31.076,posner_endo_new1,2024.2.4,60.138221688878474,2025-04-09 10h29.42.803624 +0100,
cube_r.png,0.1,0.31,valid,39,39,0,down,5.349662399999943,None,space,0.43656389999978273,None,,,,,0,39,39,39,,,,,430.5708254000001,,,,,,,,,,,,,430.55631340000036,430.5708254000001,430.5708254000001,430.5708254000001,435.9333512000003,,,,435.9445161000003,435.9548149000002,435.9548149000002,435.99897899999996,435.99933539999984,436.0156864999999,436.0156864999999,436.0156864999999,436.09866839999995,436.4662123999997,,,,,,,,down,5.349662399999943,None,space,0.43656389999978273,None,,,,,,,,,,,,,,,P142,001,2025-04-09_10h29.31.076,posner_endo_new1,2024.2.4,60.138221688878474,2025-04-09 10h29.42.803624 +0100,
cube_l.png,0.1,0.31,invalid,40,40,0,down,5.51077880000048,None,space,0.42856750000009924,None,,,,,0,40,40,40,,,,,436.4816141000001,,,,,,,,,,,,,436.4664991999998,436.4816141000001,436.4816141000001,436.4816141000001,441.9940058000002,,,,442.00447200000053,442.01410730000043,442.01410730000043,442.05939130000024,442.05962929999987,442.0758762000005,442.0758762000005,442.0758762000005,442.15923870000006,442.50962770000024,,,,,,,,down,5.51077880000048,None,space,0.42856750000009924,None,,,,,,,,,,,,,,,P142,001,2025-04-09_10h29.31.076,posner_endo_new1,2024.2.4,60.138221688878474,2025-04-09 10h29.42.803624 +0100,
cube_l.png,0.1,10,catch,41,41,0,down,5.130635499999698,None,None,,,,,,,0,41,41,41,,,,,442.5254579000002,,,,,,,,,,,,,442.5098052000003,442.5254579000002,442.5254579000002,442.5254579000002,447.6710003999997,,,,447.6774869000001,447.6892931000002,447.6892931000002,447.73686160000034,447.7370950000004,447.7534682000005,447.7534682000005,447.7534682000005,447.8200117000006,450.75082269999984,,,,449.83475009999984,450.76693160000013,450.76693160000013,450.76693160000013,down,5.130635499999698,None,None,,,,,,,,,,,,,,,,,P142,001,2025-04-09_10h29.31.076,posner_endo_new1,2024.2.4,60.138221688878474,2025-04-09 10h29.42.803624 +0100,
cube_l.png,0.1,-0.31,valid,42,42,0,down,1.6988877000003413,None,space,0.43616629999996803,None,,,,,0,42,42,42,,,,,450.76693160000013,,,,,,,,,,,,,450.7509891999998,450.76693160000013,450.76693160000013,450.76693160000013,452.4826191000002,,,,452.48904240000047,452.50071430000025,452.50071430000025,452.5487559000003,452.54898539999976,452.5650654000001,452.5650654000001,452.5650654000001,452.6318903000001,453.0154321,,,,,,,,down,1.6988877000003413,None,space,0.43616629999996803,None,,,,,,,,,,,,,,,P142,001,2025-04-09_10h29.31.076,posner_endo_new1,2024.2.4,60.138221688878474,2025-04-09 10h29.42.803624 +0100,
cube_l.png,0.1,10,catch,43,43,0,down,3.8413313999999446,None,None,,,,,,,0,43,43,43,,,,,453.03141700000015,,,,,,,,,,,,,453.01560020000034,453.03141700000015,453.03141700000015,453.03141700000015,456.8786700999999,,,,456.88712300000043,456.89710190000005,456.89710190000005,456.9441615000005,456.9443904,456.9606991999999,456.9606991999999,456.9606991999999,457.04393470000014,459.95818000000054,,,,459.0586494999998,459.97445830000015,459.97445830000015,459.97445830000015,down,3.8413313999999446,None,None,,,,,,,,,,,,,,,,,P142,001,2025-04-09_10h29.31.076,posner_endo_new1,2024.2.4,60.138221688878474,2025-04-09 10h29.42.803624 +0100,
cube_l.png,0.1,0.31,invalid,44,44,0,down,1.2420658000000913,None,space,0.41116760000022623,None,,,,,0,44,44,44,,,,,459.97445830000015,,,,,,,,,,,,,459.95833760000005,459.97445830000015,459.97445830000015,459.97445830000015,461.22367959999974,,,,461.22947060000024,461.24107809999987,461.24107809999987,461.2898012000005,461.29002690000016,461.3061845000002,461.3061845000002,461.3061845000002,461.37289690000034,461.72317209999983,,,,,,,,down,1.2420658000000913,None,space,0.41116760000022623,None,,,,,,,,,,,,,,,P142,001,2025-04-09_10h29.31.076,posner_endo_new1,2024.2.4,60.138221688878474,2025-04-09 10h29.42.803624 +0100,
cube_l.png,0.1,0.31,invalid,45,45,0,down,3.18961919999947,None,space,0.32434729999931733,None,,,,,0,45,45,45,,,,,461.7391281,,,,,,,,,,,,,461.723352,461.7391281,461.7391281,461.7391281,464.9367180999998,,,,464.9424919000003,464.9540514,464.9540514,465.0025820999999,465.00280850000036,465.01928300000054,465.01928300000054,465.01928300000054,465.0857154000005,465.3529623000004,,,,,,,,down,3.18961919999947,None,space,0.32434729999931733,None,,,,,,,,,,,,,,,P142,001,2025-04-09_10h29.31.076,posner_endo_new1,2024.2.4,60.138221688878474,2025-04-09 10h29.42.803624 +0100,
cube_r.png,0.1,0.31,valid,46,46,0,down,3.3918327000001227,None,space,0.37955090000014025,None,,,,,0,46,46,46,,,,,465.3688237000006,,,,,,,,,,,,,465.3531296000001,465.3688237000006,465.3688237000006,465.3688237000006,468.7661456000005,,,,468.7718493000002,468.7834190000003,468.7834190000003,468.8319872000002,468.8324969000005,468.8484354000002,468.8484354000002,468.8484354000002,468.9316398000001,469.23314350000055,,,,,,,,down,3.3918327000001227,None,space,0.37955090000014025,None,,,,,,,,,,,,,,,P142,001,2025-04-09_10h29.31.076,posner_endo_new1,2024.2.4,60.138221688878474,2025-04-09 10h29.42.803624 +0100,
cube_l.png,0.1,-0.31,valid,47,47,0,down,4.744356000000153,None,space,0.3895275999993828,None,,,,,0,47,47,47,,,,,469.24798830000054,,,,,,,,,,,,,469.2335634000001,469.24798830000054,469.24798830000054,469.24798830000054,473.99474890000056,,,,474.0057837000004,474.0160980999999,474.0160980999999,474.06006870000056,474.0604314000002,474.0765884000002,474.0765884000002,474.0765884000002,474.1598979999999,474.4774236000003,,,,,,,,down,4.744356000000153,None,space,0.3895275999993828,None,,,,,,,,,,,,,,,P142,001,2025-04-09_10h29.31.076,posner_endo_new1,2024.2.4,60.138221688878474,2025-04-09 10h29.42.803624 +0100,
cube_r.png,0.1,-0.31,invalid,48,48,0,down,4.21901009999965,None,space,0.3596115000000282,None,,,,,0,48,48,48,,,,,474.49291470000026,,,,,,,,,,,,,474.4777065999997,474.49291470000026,474.49291470000026,474.49291470000026,478.7229956000001,,,,478.73404279999977,478.74468010000055,478.74468010000055,478.7886414000004,478.78899700000056,478.80508160000045,478.80508160000045,478.80508160000045,478.8883090999998,479.1725425000004,,,,,,,,down,4.21901009999965,None,space,0.3596115000000282,None,,,,,,,,,,,,,,,P142,001,2025-04-09_10h29.31.076,posner_endo_new1,2024.2.4,60.138221688878474,2025-04-09 10h29.42.803624 +0100,
cube_r.png,0.1,10,catch,49,49,0,down,3.9719453999996404,None,None,,,,,,,0,49,49,49,,,,,479.1879944000002,,,,,,,,,,,,,479.1728512999998,479.1879944000002,479.1879944000002,479.1879944000002,483.16849060000004,,,,483.1795023000004,483.18991860000006,483.18991860000006,483.2341348,483.2344844999998,483.25055950000024,483.25055950000024,483.25055950000024,483.33386450000035,486.24827670000013,,,,485.34834950000004,486.2641983000003,486.2641983000003,486.2641983000003,down,3.9719453999996404,None,None,,,,,,,,,,,,,,,,,P142,001,2025-04-09_10h29.31.076,posner_endo_new1,2024.2.4,60.138221688878474,2025-04-09 10h29.42.803624 +0100,
cube_l.png,0.1,-0.31,valid,50,50,0,down,1.5524849000003087,None,space,0.39604179999969347,None,,,,,0,50,50,50,,,,,486.2641983000003,,,,,,,,,,,,,486.2485440999999,486.2641983000003,486.2641983000003,486.2641983000003,487.8303231,,,,487.84137999999984,487.8517463999997,487.8517463999997,487.89592940000057,487.89627889999974,487.91243459999987,487.91243459999987,487.91243459999987,487.99575340000047,488.31358439999985,,,,,,,,down,1.5524849000003087,None,space,0.39604179999969347,None,,,,,,,,,,,,,,,P142,001,2025-04-09_10h29.31.076,posner_endo_new1,2024.2.4,60.138221688878474,2025-04-09 10h29.42.803624 +0100,
cube_l.png,0.1,-0.31,valid,51,51,0,down,3.9353197000000364,None,space,0.43028510000021924,None,,,,,0,51,51,51,,,,,488.32864810000046,,,,,,,,,,,,,488.31386699999985,488.32864810000046,488.32864810000046,488.32864810000046,492.2757612000005,,,,492.2854102000001,492.2950659999997,492.2950659999997,492.34141120000004,492.3416540999997,492.35785399999986,492.35785399999986,492.35785399999986,492.4409366,492.79165770000054,,,,,,,,down,3.9353197000000364,None,space,0.43028510000021924,None,,,,,,,,,,,,,,,P142,001,2025-04-09_10h29.31.076,posner_endo_new1,2024.2.4,60.138221688878474,2025-04-09 10h29.42.803624 +0100,
cube_r.png,0.1,-0.31,invalid,52,52,0,down,4.225075099999231,None,space,0.41550659999938944,None,,,,,0,52,52,52,,,,,492.80750420000004,,,,,,,,,,,,,492.79183790000025,492.80750420000004,492.80750420000004,492.80750420000004,497.0374419999998,,,,497.04404479999994,497.0558401999997,497.0558401999997,497.10329490000004,497.10352580000017,497.1196187000005,497.1196187000005,497.1196187000005,497.2030291000001,497.5368576999999,,,,,,,,down,4.225075099999231,None,space,0.41550659999938944,None,,,,,,,,,,,,,,,P142,001,2025-04-09_10h29.31.076,posner_endo_new1,2024.2.4,60.138221688878474,2025-04-09 10h29.42.803624 +0100,
cube_l.png,0.1,-0.31,valid,53,53,0,down,4.25559069999963,None,space,0.40799580000020796,None,,,,,0,53,53,53,,,,,497.55264609999995,,,,,,,,,,,,,497.53703099999984,497.55264609999995,497.55264609999995,497.55264609999995,501.81557090000024,,,,501.82130940000025,501.8329990000002,501.8329990000002,501.8816975,501.8819298999997,501.89823030000025,501.89823030000025,501.89823030000025,501.9647563999997,502.31507580000016,,,,,,,,down,4.25559069999963,None,space,0.40799580000020796,None,,,,,,,,,,,,,,,P142,001,2025-04-09_10h29.31.076,posner_endo_new1,2024.2.4,60.138221688878474,2025-04-09 10h29.42.803624 +0100,
cube_r.png,0.1,10,catch,54,54,0,down,3.790436000000227,None,None,,,,,,,0,54,54,54,,,,,502.3309970999999,,,,,,,,,,,,,502.31524249999984,502.3309970999999,502.3309970999999,502.3309970999999,506.1279602000004,,,,506.1337000000003,506.1449696999998,506.1449696999998,506.19383480000033,506.19434139999976,506.2102794000002,506.2102794000002,506.2102794000002,506.2935072999999,509.2081850000004,,,,508.30812330000026,509.2238354000001,509.2238354000001,509.2238354000001,down,3.790436000000227,None,None,,,,,,,,,,,,,,,,,P142,001,2025-04-09_10h29.31.076,posner_endo_new1,2024.2.4,60.138221688878474,2025-04-09 10h29.42.803624 +0100,
cube_l.png,0.1,0.31,invalid,55,55,0,down,2.265142299999752,None,space,0.42337919999954465,None,,,,,0,55,55,55,,,,,509.2238354000001,,,,,,,,,,,,,509.2085754999998,509.2238354000001,509.2238354000001,509.2238354000001,511.5064061000003,,,,511.5227781000003,511.5333854999999,511.5333854999999,511.5716720999999,511.5721841000004,511.5880837000004,511.5880837000004,511.5880837000004,511.6713275000002,512.0228715000003,,,,,,,,down,2.265142299999752,None,space,0.42337919999954465,None,,,,,,,,,,,,,,,P142,001,2025-04-09_10h29.31.076,posner_endo_new1,2024.2.4,60.138221688878474,2025-04-09 10h29.42.803624 +0100,
cube_l.png,0.1,-0.31,valid,56,56,0,down,3.4830342999994173,None,space,0.4213646999996854,None,,,,,0,56,56,56,,,,,512.0376452,,,,,,,,,,,,,512.0232937000001,512.0376452,512.0376452,512.0376452,515.5358151,,,,515.5523037000003,515.5633705999999,515.5633705999999,515.6009819000001,515.6013364999999,515.6179337000003,515.6179337000003,515.6179337000003,515.7007054000005,516.0516634000005,,,,,,,,down,3.4830342999994173,None,space,0.4213646999996854,None,,,,,,,,,,,,,,,P142,001,2025-04-09_10h29.31.076,posner_endo_new1,2024.2.4,60.138221688878474,2025-04-09 10h29.42.803624 +0100,
cube_r.png,0.1,0.31,valid,57,57,0,down,10.205570999999509,None,space,0.41914489999999205,None,,,,,0,57,57,57,,,,,516.0671118999999,,,,,,,,,,,,,516.0519460000005,516.0671118999999,516.0671118999999,516.0671118999999,526.2746883999998,,,,526.2858910000004,526.2962100000004,526.2962100000004,526.3400403000005,526.3403918000004,526.3564492000005,526.3564492000005,526.3564492000005,526.4397896,526.7909135999998,,,,,,,,down,10.205570999999509,None,space,0.41914489999999205,None,,,,,,,,,,,,,,,P142,001,2025-04-09_10h29.31.076,posner_endo_new1,2024.2.4,60.138221688878474,2025-04-09 10h29.42.803624 +0100,
cube_r.png,0.1,-0.31,invalid,58,58,0,down,3.795018599999821,None,space,0.42760640000051353,None,,,,,0,58,58,58,,,,,526.8061609000006,,,,,,,,,,,,,526.7911985000001,526.8061609000006,526.8061609000006,526.8061609000006,530.6035139000005,,,,530.6146782000005,530.6250339999997,530.6250339999997,530.6689249000001,530.6692812000001,530.6854970000004,530.6854970000004,530.6854970000004,530.7686989000003,531.1199504000006,,,,,,,,down,3.795018599999821,None,space,0.42760640000051353,None,,,,,,,,,,,,,,,P142,001,2025-04-09_10h29.31.076,posner_endo_new1,2024.2.4,60.138221688878474,2025-04-09 10h29.42.803624 +0100,
cube_l.png,0.1,0.31,invalid,59,59,0,down,9.418015299999752,None,space,0.4278479000004154,None,,,,,0,59,59,59,,,,,531.1351204000002,,,,,,,,,,,,,531.1202326000002,531.1351204000002,531.1351204000002,531.1351204000002,540.5598823999999,,,,540.5710138000004,540.5813266000005,540.5813266000005,540.6254976,540.6258629000004,540.6419022,540.6419022,540.6419022,540.7252092999997,541.0761621000001,,,,,,,,down,9.418015299999752,None,space,0.4278479000004154,None,,,,,,,,,,,,,,,P142,001,2025-04-09_10h29.31.076,posner_endo_new1,2024.2.4,60.138221688878474,2025-04-09 10h29.42.803624 +0100,
,,,,,,,,,,,,,,,,,,,,,,,,,,,,,,,,,,,,,,,,,,,,,,,,,,,,,,,,,,,,,,,,,,,,,541.0763458000001,541.0915030000006,541.0915030000006,601.0970378000002,617.6821980000004,space,76.57327200000054,None,,,,,,,P142,001,2025-04-09_10h29.31.076,posner_endo_new1,2024.2.4,60.138221688878474,2025-04-09 10h29.42.803624 +0100,
,,,,,,,,,,,,,,,,,,,,,,,,,,,,,,,,,,617.6823892000002,617.6967132,620.7916101000001,620.6783912999999,,,,,,,,,,,,,,,,,,,,,,,,,,,,,,,,,,,,,,,,,,,,,,P142,001,2025-04-09_10h29.31.076,posner_endo_new1,2024.2.4,60.138221688878474,2025-04-09 10h29.42.803624 +0100,
cube_l.png,0.1,10,catch,0,0,0,up,11.88158459999977,None,None,,,,,,,,,,,0,0,0,0,620.7916101000001,,,,,,,,,,,,,620.7832748000001,620.7916101000001,620.7916101000001,620.7916101000001,632.6820835999997,,,,632.6915085,632.7017629000002,632.7017629000002,632.7478981000004,632.7482214000001,632.7644938000003,632.7644938000003,632.7644938000003,632.8477625000005,635.7621433000004,,,,634.8623653000004,635.7781669000005,635.7781669000005,635.7781669000005,,,,,,,,,,,,,,,up,11.88158459999977,None,None,,,P142,001,2025-04-09_10h29.31.076,posner_endo_new1,2024.2.4,60.138221688878474,2025-04-09 10h29.42.803624 +0100,
cube_l.png,0.1,10,catch,1,1,0,up,9.278988099999879,None,None,,,,,,,,,,,0,1,1,1,635.7781669000005,,,,,,,,,,,,,635.7623798000004,635.7781669000005,635.7781669000005,635.7781669000005,645.0697376999997,,,,645.0790735999999,645.0892217,645.0892217,645.1357170000001,645.1364045,645.1520221000001,645.1520221000001,645.1520221000001,645.2353143,648.1503705000005,,,,647.2499229000005,648.1656215000003,648.1656215000003,648.1656215000003,,,,,,,,,,,,,,,up,9.278988099999879,None,None,,,P142,001,2025-04-09_10h29.31.076,posner_endo_new1,2024.2.4,60.138221688878474,2025-04-09 10h29.42.803624 +0100,
cube_l.png,0.1,0.31,invalid,2,2,0,up,3.371490399999857,None,space,0.5265901000002486,None,,,,,,,,,0,2,2,2,648.1656215000003,,,,,,,,,,,,,648.1509335999999,648.1656215000003,648.1656215000003,648.1656215000003,651.5480312999998,,,,651.5705161000005,651.5827760000002,651.5827760000002,651.6117168999999,651.6121424000003,651.6281865000001,651.6281865000001,651.6281865000001,651.7114327999998,652.1624529000001,,,,,,,,,,,,,,,,,,,,,,up,3.371490399999857,None,space,0.5265901000002486,None,P142,001,2025-04-09_10h29.31.076,posner_endo_new1,2024.2.4,60.138221688878474,2025-04-09 10h29.42.803624 +0100,
cube_l.png,0.1,0.31,invalid,3,3,0,up,4.334892500000024,None,space,0.5138876999999411,None,,,,,,,,,0,3,3,3,652.1776136999997,,,,,,,,,,,,,652.1627886000006,652.1776136999997,652.1776136999997,652.1776136999997,656.5245595000006,,,,656.5369665999997,656.5470126999999,656.5470126999999,656.5899486999997,656.5903440000002,656.6064231,656.6064231,656.6064231,656.6896832000002,657.1239278000003,,,,,,,,,,,,,,,,,,,,,,up,4.334892500000024,None,space,0.5138876999999411,None,P142,001,2025-04-09_10h29.31.076,posner_endo_new1,2024.2.4,60.138221688878474,2025-04-09 10h29.42.803624 +0100,
cube_l.png,0.1,-0.31,valid,4,4,0,up,4.381804900000134,None,space,0.38605569999981526,None,,,,,,,,,0,4,4,4,657.1392057000003,,,,,,,,,,,,,657.1242609000001,657.1392057000003,657.1392057000003,657.1392057000003,661.5360333999997,,,,661.5484489,661.5584928999997,661.5584928999997,661.6015042999998,661.6019013000005,661.6179806,661.6179806,661.6179806,661.7012262999997,662.0189156000006,,,,,,,,,,,,,,,,,,,,,,up,4.381804900000134,None,space,0.38605569999981526,None,P142,001,2025-04-09_10h29.31.076,posner_endo_new1,2024.2.4,60.138221688878474,2025-04-09 10h29.42.803624 +0100,
cube_r.png,0.1,-0.31,invalid,5,5,0,up,3.6223636000004262,None,space,0.4572554999995191,None,,,,,,,,,0,5,5,5,662.0342122000002,,,,,,,,,,,,,662.0192441999998,662.0342122000002,662.0342122000002,662.0342122000002,665.6653151999999,,,,665.6776054000002,665.6877648,665.6877648,665.7306177,665.7310136000006,665.7470909000003,665.7470909000003,665.7470909000003,665.8303367999997,666.2146192,,,,,,,,,,,,,,,,,,,,,,up,3.6223636000004262,None,space,0.4572554999995191,None,P142,001,2025-04-09_10h29.31.076,posner_endo_new1,2024.2.4,60.138221688878474,2025-04-09 10h29.42.803624 +0100,
cube_r.png,0.1,0.31,valid,6,6,0,up,4.843251100000089,None,space,0.4659338999999818,None,,,,,,,,,0,6,6,6,666.2299371999998,,,,,,,,,,,,,666.2149484000001,666.2299371999998,666.2299371999998,666.2299371999998,671.0765370999998,,,,671.0887981000005,671.0988286000002,671.0988286000002,671.1417655000005,671.1421922999998,671.1582322000004,671.1582322000004,671.1582322000004,671.2414834000001,671.6258963999999,,,,,,,,,,,,,,,,,,,,,,up,4.843251100000089,None,space,0.4659338999999818,None,P142,001,2025-04-09_10h29.31.076,posner_endo_new1,2024.2.4,60.138221688878474,2025-04-09 10h29.42.803624 +0100,
cube_r.png,0.1,-0.31,invalid,7,7,0,up,4.423397599999589,None,space,0.4941490999999587,None,,,,,,,,,0,7,7,7,671.6410636999999,,,,,,,,,,,,,671.6262299,671.6410636999999,671.6410636999999,671.6410636999999,676.0711969000004,,,,676.0835864000001,676.0936271999999,676.0936271999999,676.1366453999999,676.1370438000004,676.1531341999998,676.1531341999998,676.1531341999998,676.2363731000005,676.6539737000003,,,,,,,,,,,,,,,,,,,,,,up,4.423397599999589,None,space,0.4941490999999587,None,P142,001,2025-04-09_10h29.31.076,posner_endo_new1,2024.2.4,60.138221688878474,2025-04-09 10h29.42.803624 +0100,
cube_l.png,0.1,-0.31,valid,8,8,0,up,3.7641671000001224,None,space,0.40888209999957326,None,,,,,,,,,0,8,8,8,676.6693145999998,,,,,,,,,,,,,676.6543081999998,676.6693145999998,676.6693145999998,676.6693145999998,680.4499310000001,,,,680.4558944999999,680.4675142000006,680.4675142000006,680.5157913000003,680.5160195999997,680.5323952999997,680.5323952999997,680.5323952999997,680.6161834000004,680.9494898000003,,,,,,,,,,,,,,,,,,,,,,up,3.7641671000001224,None,space,0.40888209999957326,None,P142,001,2025-04-09_10h29.31.076,posner_endo_new1,2024.2.4,60.138221688878474,2025-04-09 10h29.42.803624 +0100,
cube_r.png,0.1,-0.31,invalid,9,9,0,up,7.123054700000466,None,space,0.7356157999993229,None,,,,,,,,,0,9,9,9,680.9653806000006,,,,,,,,,,,,,680.9496635000005,680.9653806000006,680.9653806000006,680.9653806000006,688.0926931000004,,,,688.1037636000001,688.11409,688.11409,688.1582146999999,688.1585660999999,688.1746637000006,688.1746637000006,688.1746637000006,688.2579221000005,688.9249520000003,,,,,,,,,,,,,,,,,,,,,,up,7.123054700000466,None,space,0.7356157999993229,None,P142,001,2025-04-09_10h29.31.076,posner_endo_new1,2024.2.4,60.138221688878474,2025-04-09 10h29.42.803624 +0100,
cube_l.png,0.1,0.31,invalid,10,10,0,up,5.868587900000421,None,space,0.4438709000005474,None,,,,,,,,,0,10,10,10,688.9404283000003,,,,,,,,,,,,,688.9252476000001,688.9404283000003,688.9404283000003,688.9404283000003,694.8190096999997,,,,694.8301978999998,694.8406062000004,694.8406062000004,694.8846724000005,694.8850338000002,694.9010931000003,694.9010931000003,694.9010931000003,694.9845396999999,695.3519198000004,,,,,,,,,,,,,,,,,,,,,,up,5.868587900000421,None,space,0.4438709000005474,None,P142,001,2025-04-09_10h29.31.076,posner_endo_new1,2024.2.4,60.138221688878474,2025-04-09 10h29.42.803624 +0100,
cube_r.png,0.1,-0.31,invalid,11,11,0,up,4.818181200000254,None,space,0.5841835000001083,None,,,,,,,,,0,11,11,11,695.3673154999997,,,,,,,,,,,,,695.3522119999998,695.3673154999997,695.3673154999997,695.3673154999997,700.1968642000002,,,,700.2079774000003,700.2183102999998,700.2183102999998,700.2624598000002,700.2628132999998,700.2789769999999,700.2789769999999,700.2789769999999,700.3622293999997,700.8795797000002,,,,,,,,,,,,,,,,,,,,,,up,4.818181200000254,None,space,0.5841835000001083,None,P142,001,2025-04-09_10h29.31.076,posner_endo_new1,2024.2.4,60.138221688878474,2025-04-09 10h29.42.803624 +0100,
cube_r.png,0.1,0.31,valid,12,12,0,up,3.3312137999992046,None,space,0.4862535000002026,None,,,,,,,,,0,12,12,12,700.8950007000003,,,,,,,,,,,,,700.8798692999999,700.8950007000003,700.8950007000003,700.8950007000003,704.2426995000005,,,,704.2538356000005,704.2643004000001,704.2643004000001,704.3083400000005,704.3086915000004,704.3247647999997,704.3247647999997,704.3247647999997,704.4079707000001,704.8253845999998,,,,,,,,,,,,,,,,,,,,,,up,3.3312137999992046,None,space,0.4862535000002026,None,P142,001,2025-04-09_10h29.31.076,posner_endo_new1,2024.2.4,60.138221688878474,2025-04-09 10h29.42.803624 +0100,
cube_l.png,0.1,10,catch,13,13,0,up,5.344306400000278,None,None,,,,,,,,,,,0,13,13,13,704.8409456999998,,,,,,,,,,,,,704.8256816000003,704.8409456999998,704.8409456999998,704.8409456999998,710.1867468999999,,,,710.1978546999999,710.2083259999999,710.2083259999999,710.2522815000002,710.2526349,710.2687616000003,710.2687616000003,710.2687616000003,710.3520586000004,713.2663386000004,,,,712.3666002999998,713.2823857000003,713.2823857000003,713.2823857000003,,,,,,,,,,,,,,,up,5.344306400000278,None,None,,,P142,001,2025-04-09_10h29.31.076,posner_endo_new1,2024.2.4,60.138221688878474,2025-04-09 10h29.42.803624 +0100,
cube_r.png,0.1,-0.31,invalid,14,14,0,up,3.9263411000001724,None,space,0.5145190000002913,None,,,,,,,,,0,14,14,14,713.2823857000003,,,,,,,,,,,,,713.2666085999999,713.2823857000003,713.2823857000003,713.2823857000003,717.2129746,,,,717.2253257000002,717.2373871,717.2373871,717.2787096000002,717.2793780000002,717.2950755000002,717.2950755000002,717.2950755000002,717.3783033,717.8137981,,,,,,,,,,,,,,,,,,,,,,up,3.9263411000001724,None,space,0.5145190000002913,None,P142,001,2025-04-09_10h29.31.076,posner_endo_new1,2024.2.4,60.138221688878474,2025-04-09 10h29.42.803624 +0100,
cube_l.png,0.1,-0.31,valid,15,15,0,up,5.853147900000295,None,space,0.45747560000017984,None,,,,,,,,,0,15,15,15,717.8280414000001,,,,,,,,,,,,,717.8143978999997,717.8280414000001,717.8280414000001,717.8280414000001,723.6909862000002,,,,723.7130426000003,723.7252518000005,723.7252518000005,723.7549725999997,723.7554311000004,723.7713414,723.7713414,723.7713414,723.8545285999999,724.2390470999999,,,,,,,,,,,,,,,,,,,,,,up,5.853147900000295,None,space,0.45747560000017984,None,P142,001,2025-04-09_10h29.31.076,posner_endo_new1,2024.2.4,60.138221688878474,2025-04-09 10h29.42.803624 +0100,
cube_r.png,0.1,10,catch,16,16,0,up,5.027405199999521,None,None,,,,,,,,,,,0,16,16,16,724.2541071000005,,,,,,,,,,,,,724.2394205999999,724.2541071000005,724.2541071000005,724.2541071000005,729.2837263000001,,,,729.2930569,729.3031755000002,729.3031755000002,729.3493778000002,729.3496901999997,729.3659973000003,729.3659973000003,729.3659973000003,729.4491176000001,732.3635089999998,,,,731.4637786000003,732.3795387999999,732.3795387999999,732.3795387999999,,,,,,,,,,,,,,,up,5.027405199999521,None,None,,,P142,001,2025-04-09_10h29.31.076,posner_endo_new1,2024.2.4,60.138221688878474,2025-04-09 10h29.42.803624 +0100,
cube_r.png,0.1,10,catch,17,17,0,up,2.3173646000004737,None,None,,,,,,,,,,,0,17,17,17,732.3795387999999,,,,,,,,,,,,,732.3637448,732.3795387999999,732.3795387999999,732.3795387999999,734.7115209000003,,,,734.7209713000002,734.7311728000004,734.7311728000004,734.7769172999997,734.7772284000002,734.7936847999999,734.7936847999999,734.7936847999999,734.8767108000002,737.7913822,,,,736.8915735,737.8071798000001,737.8071798000001,737.8071798000001,,,,,,,,,,,,,,,up,2.3173646000004737,None,None,,,P142,001,2025-04-09_10h29.31.076,posner_endo_new1,2024.2.4,60.138221688878474,2025-04-09 10h29.42.803624 +0100,
cube_l.png,0.1,0.31,invalid,18,18,0,up,1.6270014000001538,None,space,0.6040527999994083,None,,,,,,,,,0,18,18,18,737.8071798000001,,,,,,,,,,,,,737.7916161000003,737.8071798000001,737.8071798000001,737.8071798000001,739.4401686000001,,,,739.4495099000005,739.4596696999997,739.4596696999997,739.5056585000002,739.5059704000005,739.5220749,739.5220749,739.5220749,739.6053916000001,740.1392732000004,,,,,,,,,,,,,,,,,,,,,,up,1.6270014000001538,None,space,0.6040527999994083,None,P142,001,2025-04-09_10h29.31.076,posner_endo_new1,2024.2.4,60.138221688878474,2025-04-09 10h29.42.803624 +0100,
cube_l.png,0.1,10,catch,19,19,0,up,5.462249700000029,None,None,,,,,,,,,,,0,19,19,19,740.1548555999998,,,,,,,,,,,,,740.1395248999997,740.1548555999998,740.1548555999998,740.1548555999998,745.6336725000001,,,,745.6428672000002,745.6527241000003,745.6527241000003,745.6992762,745.6995861000005,745.7159148999999,745.7159148999999,745.7159148999999,745.7991609999999,748.7134329999999,,,,747.8137329000001,748.7294479000002,748.7294479000002,748.7294479000002,,,,,,,,,,,,,,,up,5.462249700000029,None,None,,,P142,001,2025-04-09_10h29.31.076,posner_endo_new1,2024.2.4,60.138221688878474,2025-04-09 10h29.42.803624 +0100,
cube_l.png,0.1,0.31,invalid,20,20,0,up,1.9274729000007937,None,space,0.8642822000001615,None,,,,,,,,,0,20,20,20,748.7294479000002,,,,,,,,,,,,,748.7136884000001,748.7294479000002,748.7294479000002,748.7294479000002,750.6620713000002,,,,750.6714388,750.6816975000002,750.6816975000002,750.7275772000003,750.7278910000005,750.7440115999998,750.7440115999998,750.7440115999998,750.8272386999997,751.6110052000004,,,,,,,,,,,,,,,,,,,,,,up,1.9274729000007937,None,space,0.8642822000001615,None,P142,001,2025-04-09_10h29.31.076,posner_endo_new1,2024.2.4,60.138221688878474,2025-04-09 10h29.42.803624 +0100,
cube_l.png,0.1,-0.31,valid,21,21,0,up,8.10310120000031,None,space,0.44115080000028684,None,,,,,,,,,0,21,21,21,751.6263598000005,,,,,,,,,,,,,751.6112625000005,751.6263598000005,751.6263598000005,751.6263598000005,759.7359606,,,,759.7452080000003,759.7553821000001,759.7553821000001,759.8016044000005,759.8019156,759.8181390999998,759.8181390999998,759.8181390999998,759.9013640000003,760.2687562000001,,,,,,,,,,,,,,,,,,,,,,up,8.10310120000031,None,space,0.44115080000028684,None,P142,001,2025-04-09_10h29.31.076,posner_endo_new1,2024.2.4,60.138221688878474,2025-04-09 10h29.42.803624 +0100,
cube_r.png,0.1,0.31,valid,22,22,0,up,6.597436399999424,None,space,0.48658569999952306,None,,,,,,,,,0,22,22,22,760.2840948000003,,,,,,,,,,,,,760.2690096000006,760.2840948000003,760.2840948000003,760.2840948000003,766.8952125000005,,,,766.9039524999998,766.9138469999998,766.9138469999998,766.9608816999998,766.9611198000002,766.9775700999999,766.9775700999999,766.9775700999999,767.0605818000004,767.4778716000001,,,,,,,,,,,,,,,,,,,,,,up,6.597436399999424,None,space,0.48658569999952306,None,P142,001,2025-04-09_10h29.31.076,posner_endo_new1,2024.2.4,60.138221688878474,2025-04-09 10h29.42.803624 +0100,
cube_r.png,0.1,-0.31,invalid,23,23,0,up,4.88356339999973,None,space,0.44960859999991953,None,,,,,,,,,0,23,23,23,767.4934672999998,,,,,,,,,,,,,767.4780539000003,767.4934672999998,767.4934672999998,767.4934672999998,772.3894650000002,,,,772.3959722,772.4077406000006,772.4077406000006,772.4554095000003,772.4556460000003,772.4718800999999,772.4718800999999,772.4718800999999,772.5549992000006,772.9224435000006,,,,,,,,,,,,,,,,,,,,,,up,4.88356339999973,None,space,0.44960859999991953,None,P142,001,2025-04-09_10h29.31.076,posner_endo_new1,2024.2.4,60.138221688878474,2025-04-09 10h29.42.803624 +0100,
cube_r.png,0.1,0.31,valid,24,24,0,up,8.03108070000053,None,space,0.39985729999989417,None,,,,,,,,,0,24,24,24,772.9381555999998,,,,,,,,,,,,,772.9226258999997,772.9381555999998,772.9381555999998,772.9381555999998,780.9809016999998,,,,780.9874884000001,780.9993525999998,780.9993525999998,781.0464755000003,781.0467064000004,781.0631143999999,781.0631143999999,781.0631143999999,781.1461768999998,781.4802421000004,,,,,,,,,,,,,,,,,,,,,,up,8.03108070000053,None,space,0.39985729999989417,None,P142,001,2025-04-09_10h29.31.076,posner_endo_new1,2024.2.4,60.138221688878474,2025-04-09 10h29.42.803624 +0100,
cube_r.png,0.1,-0.31,invalid,25,25,0,up,3.168812899999466,None,space,0.5003632000007201,None,,,,,,,,,0,25,25,25,781.4959331999999,,,,,,,,,,,,,781.4804282000005,781.4959331999999,781.4959331999999,781.4959331999999,784.6768830999999,,,,784.6827589000004,784.6943876000005,784.6943876000005,784.7429330000004,784.7431636000001,784.7592187,784.7592187,784.7592187,784.8427837999998,785.2762539000005,,,,,,,,,,,,,,,,,,,,,,up,3.168812899999466,None,space,0.5003632000007201,None,P142,001,2025-04-09_10h29.31.076,posner_endo_new1,2024.2.4,60.138221688878474,2025-04-09 10h29.42.803624 +0100,
cube_l.png,0.1,-0.31,valid,26,26,0,up,6.285290600000735,None,space,0.3820787000004202,None,,,,,,,,,0,26,26,26,785.2920740999998,,,,,,,,,,,,,785.2764287,785.2920740999998,785.2920740999998,785.2920740999998,791.5864512999997,,,,791.5922155999997,791.6038567000005,791.6038567000005,791.6523625,791.6525907000005,791.6689241000004,791.6689241000004,791.6689241000004,791.7357112,792.0527228999999,,,,,,,,,,,,,,,,,,,,,,up,6.285290600000735,None,space,0.3820787000004202,None,P142,001,2025-04-09_10h29.31.076,posner_endo_new1,2024.2.4,60.138221688878474,2025-04-09 10h29.42.803624 +0100,
cube_r.png,0.1,0.31,valid,27,27,0,up,7.524311699999998,None,space,0.3826130999996167,None,,,,,,,,,0,27,27,27,792.0685610999999,,,,,,,,,,,,,792.0528982000005,792.0685610999999,792.0685610999999,792.0685610999999,799.5949540000001,,,,799.6007348000003,799.6121170000006,799.6121170000006,799.6608226999997,799.6613534999997,799.6773027999998,799.6773027999998,799.6773027999998,799.7605291999998,800.0621620000002,,,,,,,,,,,,,,,,,,,,,,up,7.524311699999998,None,space,0.3826130999996167,None,P142,001,2025-04-09_10h29.31.076,posner_endo_new1,2024.2.4,60.138221688878474,2025-04-09 10h29.42.803624 +0100,
cube_r.png,0.1,10,catch,28,28,0,up,5.556438300000082,None,None,,,,,,,,,,,0,28,28,28,800.0768477000001,,,,,,,,,,,,,800.0625984999997,800.0768477000001,800.0768477000001,800.0768477000001,805.6393444000005,,,,805.6504471999997,805.6607788000001,805.6607788000001,805.7047282000003,805.7050802000003,805.7213388999999,805.7213388999999,805.7213388999999,805.8045081999999,808.7189098999997,,,,807.8191729999999,808.7349112000002,808.7349112000002,808.7349112000002,,,,,,,,,,,,,,,up,5.556438300000082,None,None,,,P142,001,2025-04-09_10h29.31.076,posner_endo_new1,2024.2.4,60.138221688878474,2025-04-09 10h29.42.803624 +0100,
cube_r.png,0.1,0.31,valid,29,29,0,up,9.514579499999854,None,space,0.4895517999993899,None,,,,,,,,,0,29,29,29,808.7349112000002,,,,,,,,,,,,,808.7191842000002,808.7349112000002,808.7349112000002,808.7349112000002,818.2595474,,,,818.2706902999998,818.2810587000004,818.2810587000004,818.3252500999997,818.3256097000003,818.3417002000006,818.3417002000006,818.3417002000006,818.4250434000005,818.8424223000002,,,,,,,,,,,,,,,,,,,,,,up,9.514579499999854,None,space,0.4895517999993899,None,P142,001,2025-04-09_10h29.31.076,posner_endo_new1,2024.2.4,60.138221688878474,2025-04-09 10h29.42.803624 +0100,
cube_r.png,0.1,0.31,valid,30,30,0,up,7.230935799999315,None,space,0.5195110999993631,None,,,,,,,,,0,30,30,30,818.8579037999998,,,,,,,,,,,,,818.8427117000001,818.8579037999998,818.8579037999998,818.8579037999998,826.1013426999998,,,,826.1080511,826.1203479000005,826.1203479000005,826.1670973,826.1676094000004,826.1835280000005,826.1835280000005,826.1835280000005,826.2667694000002,826.7181182000004,,,,,,,,,,,,,,,,,,,,,,up,7.230935799999315,None,space,0.5195110999993631,None,P142,001,2025-04-09_10h29.31.076,posner_endo_new1,2024.2.4,60.138221688878474,2025-04-09 10h29.42.803624 +0100,
cube_l.png,0.1,-0.31,valid,31,31,0,up,5.9798862999996345,None,space,0.4947640999998839,None,,,,,,,,,0,31,31,31,826.7329881000005,,,,,,,,,,,,,826.7185958999999,826.7329881000005,826.7329881000005,826.7329881000005,832.7282193000001,,,,832.7395188,832.7500437999997,832.7500437999997,832.7938648999998,832.7942193999997,832.8102681999999,832.8102681999999,832.8102681999999,832.8935742000003,833.3111687999999,,,,,,,,,,,,,,,,,,,,,,up,5.9798862999996345,None,space,0.4947640999998839,None,P142,001,2025-04-09_10h29.31.076,posner_endo_new1,2024.2.4,60.138221688878474,2025-04-09 10h29.42.803624 +0100,
cube_r.png,0.1,0.31,valid,32,32,0,up,7.482390800000758,None,space,0.47764749999987544,None,,,,,,,,,0,32,32,32,833.3263720000004,,,,,,,,,,,,,833.3114600999997,833.3263720000004,833.3263720000004,833.3263720000004,840.8199965000003,,,,840.8312278000003,840.8416054999998,840.8416054999998,840.8855776,840.8859354000006,840.9020311000004,840.9020311000004,840.9020311000004,840.9853393000003,841.3860421999998,,,,,,,,,,,,,,,,,,,,,,up,7.482390800000758,None,space,0.47764749999987544,None,P142,001,2025-04-09_10h29.31.076,posner_endo_new1,2024.2.4,60.138221688878474,2025-04-09 10h29.42.803624 +0100,
cube_r.png,0.1,-0.31,invalid,33,33,0,up,6.431466999999429,None,space,0.44873120000011113,None,,,,,,,,,0,33,33,33,841.4016613000003,,,,,,,,,,,,,841.3863357999999,841.4016613000003,841.4016613000003,841.4016613000003,847.8461377000003,,,,847.8573412000005,847.8677054,847.8677054,847.9116303000001,847.9119866999999,847.9282658000002,847.9282658000002,847.9282658000002,848.0114241000001,848.3791191999999,,,,,,,,,,,,,,,,,,,,,,up,6.431466999999429,None,space,0.44873120000011113,None,P142,001,2025-04-09_10h29.31.076,posner_endo_new1,2024.2.4,60.138221688878474,2025-04-09 10h29.42.803624 +0100,
cube_r.png,0.1,10,catch,34,34,0,up,4.335281399999985,None,None,,,,,,,,,,,0,34,34,34,848.3944159000002,,,,,,,,,,,,,848.3794199000004,848.3944159000002,848.3944159000002,848.3944159000002,852.7412274999997,,,,852.7523031999999,852.7628165000006,852.7628165000006,852.8066802000003,852.8070318999999,852.8231967000002,852.8231967000002,852.8231967000002,852.9064101000004,855.8208550999998,,,,854.9210325000004,855.8367877000001,855.8367877000001,855.8367877000001,,,,,,,,,,,,,,,up,4.335281399999985,None,None,,,P142,001,2025-04-09_10h29.31.076,posner_endo_new1,2024.2.4,60.138221688878474,2025-04-09 10h29.42.803624 +0100,
cube_r.png,0.1,0.31,valid,35,35,0,up,2.6201829000001453,None,space,0.44113520000064455,None,,,,,,,,,0,35,35,35,855.8367877000001,,,,,,,,,,,,,855.8211234,855.8367877000001,855.8367877000001,855.8367877000001,858.4685937000004,,,,858.4797503999998,858.4900740000003,858.4900740000003,858.5342286000005,858.5345899000004,858.5507112000005,858.5507112000005,858.5507112000005,858.6339775000006,859.0013294999999,,,,,,,,,,,,,,,,,,,,,,up,2.6201829000001453,None,space,0.44113520000064455,None,P142,001,2025-04-09_10h29.31.076,posner_endo_new1,2024.2.4,60.138221688878474,2025-04-09 10h29.42.803624 +0100,
cube_r.png,0.1,-0.31,invalid,36,36,0,up,5.40018819999932,None,space,0.5135845000004338,None,,,,,,,,,0,36,36,36,859.0169401000003,,,,,,,,,,,,,859.0016187000001,859.0169401000003,859.0169401000003,859.0169401000003,864.4291970000004,,,,864.4404310999998,864.4506540000002,864.4506540000002,864.4947201000004,864.4950784000002,864.5112153999999,864.5112153999999,864.5112153999999,864.5944768999998,865.0287176000002,,,,,,,,,,,,,,,,,,,,,,up,5.40018819999932,None,space,0.5135845000004338,None,P142,001,2025-04-09_10h29.31.076,posner_endo_new1,2024.2.4,60.138221688878474,2025-04-09 10h29.42.803624 +0100,
cube_l.png,0.1,0.31,invalid,37,37,0,up,4.917483199999879,None,space,0.4387519000001703,None,,,,,,,,,0,37,37,37,865.0441092000001,,,,,,,,,,,,,865.0290131000002,865.0441092000001,865.0441092000001,865.0441092000001,869.9733696000003,,,,869.9845685,869.9948166000004,869.9948166000004,870.0390691000002,870.0394258000006,870.0557149000006,870.0557149000006,870.0557149000006,870.1388568000002,870.5062993000001,,,,,,,,,,,,,,,,,,,,,,up,4.917483199999879,None,space,0.4387519000001703,None,P142,001,2025-04-09_10h29.31.076,posner_endo_new1,2024.2.4,60.138221688878474,2025-04-09 10h29.42.803624 +0100,
cube_l.png,0.1,0.31,invalid,38,38,0,up,6.59932310000022,None,space,0.4948239999994257,None,,,,,,,,,0,38,38,38,870.5217924999997,,,,,,,,,,,,,870.50659,870.5217924999997,870.5217924999997,870.5217924999997,877.1329765,,,,877.1441906999999,877.1545694000006,877.1545694000006,877.1984013000001,877.1987559999998,877.2148846999999,877.2148846999999,877.2148846999999,877.2982013999999,877.7156793000004,,,,,,,,,,,,,,,,,,,,,,up,6.59932310000022,None,space,0.4948239999994257,None,P142,001,2025-04-09_10h29.31.076,posner_endo_new1,2024.2.4,60.138221688878474,2025-04-09 10h29.42.803624 +0100,
cube_r.png,0.1,0.31,valid,39,39,0,up,6.142832300000009,None,space,0.3896104000004925,None,,,,,,,,,0,39,39,39,877.7310926999999,,,,,,,,,,,,,877.7159698000005,877.7310926999999,877.7310926999999,877.7310926999999,883.8760938000005,,,,883.8872948999997,883.8975840000003,883.8975840000003,883.9415244000002,883.9418830000004,883.9580661999998,883.9580661999998,883.9580661999998,884.0412610000003,884.3589860000002,,,,,,,,,,,,,,,,,,,,,,up,6.142832300000009,None,space,0.3896104000004925,None,P142,001,2025-04-09_10h29.31.076,posner_endo_new1,2024.2.4,60.138221688878474,2025-04-09 10h29.42.803624 +0100,
cube_l.png,0.1,0.31,invalid,40,40,0,up,5.060366100000465,None,space,0.495367499999702,None,,,,,,,,,0,40,40,40,884.3743506999999,,,,,,,,,,,,,884.3592837000006,884.3743506999999,884.3743506999999,884.3743506999999,889.4371945000003,,,,889.4484399000003,889.4588604,889.4588604,889.5025781000004,889.5029370000002,889.5190198,889.5190198,889.5190198,889.6023094000002,890.0197797000001,,,,,,,,,,,,,,,,,,,,,,up,5.060366100000465,None,space,0.495367499999702,None,P142,001,2025-04-09_10h29.31.076,posner_endo_new1,2024.2.4,60.138221688878474,2025-04-09 10h29.42.803624 +0100,
cube_l.png,0.1,10,catch,41,41,0,up,4.6385817999998835,None,None,,,,,,,,,,,0,41,41,41,890.0351879999998,,,,,,,,,,,,,890.0200709999999,890.0351879999998,890.0351879999998,890.0351879999998,894.6817473000001,,,,894.6928761999998,894.7032712,894.7032712,894.7471434999998,894.7475069000002,894.7636474000001,894.7636474000001,894.7636474000001,894.8469145999998,897.7613014999997,,,,896.8616185999999,897.7772351000003,897.7772351000003,897.7772351000003,,,,,,,,,,,,,,,up,4.6385817999998835,None,None,,,P142,001,2025-04-09_10h29.31.076,posner_endo_new1,2024.2.4,60.138221688878474,2025-04-09 10h29.42.803624 +0100,
cube_l.png,0.1,-0.31,valid,42,42,0,up,0.8238241999997626,None,space,0.49608080000052723,None,,,,,,,,,0,42,42,42,897.7772351000003,,,,,,,,,,,,,897.7615745000003,897.7772351000003,897.7772351000003,897.7772351000003,898.6108802999997,,,,898.6220356000003,898.6323167,898.6323167,898.6765111000004,898.6768643000005,898.6930265999999,898.6930265999999,898.6930265999999,898.7762524,899.1938476000005,,,,,,,,,,,,,,,,,,,,,,up,0.8238241999997626,None,space,0.49608080000052723,None,P142,001,2025-04-09_10h29.31.076,posner_endo_new1,2024.2.4,60.138221688878474,2025-04-09 10h29.42.803624 +0100,
cube_l.png,0.1,10,catch,43,43,0,up,4.823954800000138,None,None,,,,,,,,,,,0,43,43,43,899.2091934,,,,,,,,,,,,,899.1941513000002,899.2091934,899.2091934,899.2091934,904.0389538999998,,,,904.0500472000003,904.0602922999997,904.0602922999997,904.1045211,904.1048725,904.1207515000006,904.1207515000006,904.1207515000006,904.2039716999998,907.1188883000004,,,,906.2186284,907.1343816999997,907.1343816999997,907.1343816999997,,,,,,,,,,,,,,,up,4.823954800000138,None,None,,,P142,001,2025-04-09_10h29.31.076,posner_endo_new1,2024.2.4,60.138221688878474,2025-04-09 10h29.42.803624 +0100,
cube_l.png,0.1,0.31,invalid,44,44,0,up,2.6353908000000956,None,space,0.4876193999998577,None,,,,,,,,,0,44,44,44,907.1343816999997,,,,,,,,,,,,,907.1191662000001,907.1343816999997,907.1343816999997,907.1343816999997,909.7829013,,,,909.7940408000004,909.8043426000004,909.8043426000004,909.8485181000005,909.8488791,909.8649427,909.8649427,909.8649427,909.9482634000005,910.3657300000004,,,,,,,,,,,,,,,,,,,,,,up,2.6353908000000956,None,space,0.4876193999998577,None,P142,001,2025-04-09_10h29.31.076,posner_endo_new1,2024.2.4,60.138221688878474,2025-04-09 10h29.42.803624 +0100,
cube_l.png,0.1,0.31,invalid,45,45,0,up,7.7002588000004835,None,space,0.41917630000079953,None,,,,,,,,,0,45,45,45,910.3810629,,,,,,,,,,,,,910.3660213000003,910.3810629,910.3810629,910.3810629,918.0908706,,,,918.1020120000003,918.1124055999999,918.1124055999999,918.1566537999997,918.1570080000001,918.1731643000003,918.1731643000003,918.1731643000003,918.2562717000001,918.6072235000001,,,,,,,,,,,,,,,,,,,,,,up,7.7002588000004835,None,space,0.41917630000079953,None,P142,001,2025-04-09_10h29.31.076,posner_endo_new1,2024.2.4,60.138221688878474,2025-04-09 10h29.42.803624 +0100,
cube_r.png,0.1,0.31,valid,46,46,0,up,5.106569000000491,None,space,0.4250240000001213,None,,,,,,,,,0,46,46,46,918.6227279000004,,,,,,,,,,,,,918.6075207000004,918.6227279000004,918.6227279000004,918.6227279000004,923.7353095999997,,,,923.7452909000003,923.7549905000005,923.7549905000005,923.8007237000002,923.8009760000004,923.8172758999999,923.8172758999999,923.8172758999999,923.9006078000002,924.2509965999998,,,,,,,,,,,,,,,,,,,,,,up,5.106569000000491,None,space,0.4250240000001213,None,P142,001,2025-04-09_10h29.31.076,posner_endo_new1,2024.2.4,60.138221688878474,2025-04-09 10h29.42.803624 +0100,
cube_l.png,0.1,-0.31,valid,47,47,0,up,4.510177900000599,None,space,0.3752417999994577,None,,,,,,,,,0,47,47,47,924.2669606,,,,,,,,,,,,,924.2511991000001,924.2669606,924.2669606,924.2669606,928.7798299000005,,,,928.7869940999999,928.7987089999997,928.7987089999997,928.8456765000001,928.8459275000005,928.8621813999998,928.8621813999998,928.8621813999998,928.9455560000006,929.2459698000002,,,,,,,,,,,,,,,,,,,,,,up,4.510177900000599,None,space,0.3752417999994577,None,P142,001,2025-04-09_10h29.31.076,posner_endo_new1,2024.2.4,60.138221688878474,2025-04-09 10h29.42.803624 +0100,
cube_r.png,0.1,-0.31,invalid,48,48,0,up,5.36387299999933,None,space,0.3655079999998634,None,,,,,,,,,0,48,48,48,929.2617749000001,,,,,,,,,,,,,929.2461684,929.2617749000001,929.2617749000001,929.2617749000001,934.6403380000002,,,,934.6474387999997,934.6592366000004,934.6592366000004,934.7063631000001,934.7066144999999,934.7228732000003,934.7228732000003,934.7228732000003,934.7894253000004,935.0900787,,,,,,,,,,,,,,,,,,,,,,up,5.36387299999933,None,space,0.3655079999998634,None,P142,001,2025-04-09_10h29.31.076,posner_endo_new1,2024.2.4,60.138221688878474,2025-04-09 10h29.42.803624 +0100,
cube_r.png,0.1,10,catch,49,49,0,up,4.46360199999981,None,None,,,,,,,,,,,0,49,49,49,935.1057418,,,,,,,,,,,,,935.0902801000002,935.1057418,935.1057418,935.1057418,939.5853471,,,,939.5924069000002,939.6041950999997,939.6041950999997,939.6512186,939.6514735000001,939.6678124,939.6678124,939.6678124,939.7341996000005,942.6653137000003,,,,941.7490955000003,942.6815009000002,942.6815009000002,942.6815009000002,,,,,,,,,,,,,,,up,4.46360199999981,None,None,,,P142,001,2025-04-09_10h29.31.076,posner_endo_new1,2024.2.4,60.138221688878474,2025-04-09 10h29.42.803624 +0100,
cube_l.png,0.1,-0.31,valid,50,50,0,up,1.664065899999514,None,space,0.44616150000001653,None,,,,,,,,,0,50,50,50,942.6815009000002,,,,,,,,,,,,,942.6655001999998,942.6815009000002,942.6815009000002,942.6815009000002,944.3472615999999,,,,944.3543847999999,944.3661994000004,944.3661994000004,944.4131648000002,944.4134163999997,944.4296211999999,944.4296211999999,944.4296211999999,944.5127129000002,944.8800781999998,,,,,,,,,,,,,,,,,,,,,,up,1.664065899999514,None,space,0.44616150000001653,None,P142,001,2025-04-09_10h29.31.076,posner_endo_new1,2024.2.4,60.138221688878474,2025-04-09 10h29.42.803624 +0100,
cube_l.png,0.1,-0.31,valid,51,51,0,up,4.0413051000005,None,space,0.46205019999979413,None,,,,,,,,,0,51,51,51,944.8959444000002,,,,,,,,,,,,,944.8802753,944.8959444000002,944.8959444000002,944.8959444000002,948.9428341000003,,,,948.9499984000004,948.9615247000002,948.9615247000002,949.0083833999997,949.0086397000005,949.0248030000002,949.0248030000002,949.0248030000002,949.1081130000002,949.4917461000005,,,,,,,,,,,,,,,,,,,,,,up,4.0413051000005,None,space,0.46205019999979413,None,P142,001,2025-04-09_10h29.31.076,posner_endo_new1,2024.2.4,60.138221688878474,2025-04-09 10h29.42.803624 +0100,
cube_r.png,0.1,-0.31,invalid,52,52,0,up,4.342969499999526,None,space,0.5000663000000714,None,,,,,,,,,0,52,52,52,949.5077083000006,,,,,,,,,,,,,949.4919543000005,949.5077083000006,949.5077083000006,949.5077083000006,953.8542581000002,,,,953.8613708000003,953.8732003000005,953.8732003000005,953.9201279999997,953.9203570999998,953.9367589000003,953.9367589000003,953.9367589000003,954.0031893000005,954.4535149000003,,,,,,,,,,,,,,,,,,,,,,up,4.342969499999526,None,space,0.5000663000000714,None,P142,001,2025-04-09_10h29.31.076,posner_endo_new1,2024.2.4,60.138221688878474,2025-04-09 10h29.42.803624 +0100,
cube_l.png,0.1,-0.31,valid,53,53,0,up,5.44441740000002,None,space,0.4942765000005238,None,,,,,,,,,0,53,53,53,954.4693139999999,,,,,,,,,,,,,954.4536945999998,954.4693139999999,954.4693139999999,954.4693139999999,959.9146645000001,,,,959.9204283999998,959.9320378000002,959.9320378000002,959.9805013000005,959.9807320999998,959.9970386000005,959.9970386000005,959.9970386000005,960.0803236000002,960.4975018000005,,,,,,,,,,,,,,,,,,,,,,up,5.44441740000002,None,space,0.4942765000005238,None,P142,001,2025-04-09_10h29.31.076,posner_endo_new1,2024.2.4,60.138221688878474,2025-04-09 10h29.42.803624 +0100,
cube_r.png,0.1,10,catch,54,54,0,up,5.448506099999577,None,None,,,,,,,,,,,0,54,54,54,960.5131744999999,,,,,,,,,,,,,960.4976754999998,960.5131744999999,960.5131744999999,960.5131744999999,965.9749682000001,,,,965.9810079999997,965.9920976000003,965.9920976000003,966.0410060000004,966.0415175999997,966.0573578000003,966.0573578000003,966.0573578000003,966.1406108000001,969.0552563000001,,,,968.1554661,969.0711092000001,969.0711092000001,969.0711092000001,,,,,,,,,,,,,,,up,5.448506099999577,None,None,,,P142,001,2025-04-09_10h29.31.076,posner_endo_new1,2024.2.4,60.138221688878474,2025-04-09 10h29.42.803624 +0100,
cube_l.png,0.1,0.31,invalid,55,55,0,up,0.7152129000005516,None,space,0.48231560000022,None,,,,,,,,,0,55,55,55,969.0711092000001,,,,,,,,,,,,,969.0555304999998,969.0711092000001,969.0711092000001,969.0711092000001,969.7883859000003,,,,969.7968046000005,969.8065987,969.8065987,969.8537581999999,969.8540118999999,969.8703204000003,969.8703204000003,969.8703204000003,969.9535875000001,970.3541341999999,,,,,,,,,,,,,,,,,,,,,,up,0.7152129000005516,None,space,0.48231560000022,None,P142,001,2025-04-09_10h29.31.076,posner_endo_new1,2024.2.4,60.138221688878474,2025-04-09 10h29.42.803624 +0100,
cube_l.png,0.1,-0.31,valid,56,56,0,up,6.295195099999546,None,space,0.41298249999999825,None,,,,,,,,,0,56,56,56,970.3698677000002,,,,,,,,,,,,,970.3543310000005,970.3698677000002,970.3698677000002,970.3698677000002,976.6807452000003,,,,976.6878445000002,976.6996629000005,976.6996629000005,976.7466417000005,976.7468945,976.7632214000005,976.7632214000005,976.7632214000005,976.8299814000002,977.1806326000005,,,,,,,,,,,,,,,,,,,,,,up,6.295195099999546,None,space,0.41298249999999825,None,P142,001,2025-04-09_10h29.31.076,posner_endo_new1,2024.2.4,60.138221688878474,2025-04-09 10h29.42.803624 +0100,
cube_r.png,0.1,0.31,valid,57,57,0,up,4.397538799999893,None,space,0.6368250000004991,None,,,,,,,,,0,57,57,57,977.1961993000004,,,,,,,,,,,,,977.1808300000002,977.1961993000004,977.1961993000004,977.1961993000004,981.6103355000005,,,,981.6281172999998,981.6390011000003,981.6390011000003,981.6751540000005,981.6754656000003,981.6914972000004,981.6914972000004,981.6914972000004,981.7747950000003,982.3420044000004,,,,,,,,,,,,,,,,,,,,,,up,4.397538799999893,None,space,0.6368250000004991,None,P142,001,2025-04-09_10h29.31.076,posner_endo_new1,2024.2.4,60.138221688878474,2025-04-09 10h29.42.803624 +0100,
cube_r.png,0.1,-0.31,invalid,58,58,0,up,2.204054400000132,None,space,0.4992283999999927,None,,,,,,,,,0,58,58,58,982.3575550000005,,,,,,,,,,,,,982.3422620000001,982.3575550000005,982.3575550000005,982.3575550000005,984.5731660000001,,,,984.5842903000002,984.5946911999999,984.5946911999999,984.6387276000005,984.6390877000003,984.6552499,984.6552499,984.6552499,984.7383476000005,985.1560938000002,,,,,,,,,,,,,,,,,,,,,,up,2.204054400000132,None,space,0.4992283999999927,None,P142,001,2025-04-09_10h29.31.076,posner_endo_new1,2024.2.4,60.138221688878474,2025-04-09 10h29.42.803624 +0100,
cube_l.png,0.1,0.31,invalid,59,59,0,up,4.014444200000071,None,space,0.6946984999995038,None,,,,,,,,,0,59,59,59,985.1713,,,,,,,,,,,,,985.1563889999998,985.1713,985.1713,985.1713,989.2017740000001,,,,989.2129671000002,989.2231474,989.2231474,989.2673890000005,989.2677417000004,989.2837644000001,989.2837644000001,989.2837644000001,989.3670829000002,989.9843197999999,,,,,,,,,,,,,,,,,,,,,,up,4.014444200000071,None,space,0.6946984999995038,None,P142,001,2025-04-09_10h29.31.076,posner_endo_new1,2024.2.4,60.138221688878474,2025-04-09 10h29.42.803624 +0100,
