cue_img,cue_soa,target_x,trial,thisN,thisTrialN,thisRepN,key_control2.keys,key_control2.rt,key_control2.duration,key_resp.keys,key_resp.rt,key_resp.duration,practice.thisRepN,practice.thisTrialN,practice.thisN,practice.thisIndex,block1.thisRepN,block1.thisTrialN,block1.thisN,block1.thisIndex,block2.thisRepN,block2.thisTrialN,block2.thisN,block2.thisIndex,thisRow.t,notes,instructions.started,instructions_txt.started,key_control.started,instructions.stopped,key_control.keys,key_control.rt,key_control.duration,ready.started,ready_txt.started,ready_txt.stopped,ready.stopped,fix.started,fixation.started,key_control2.started,fixation_cross.started,fix.stopped,practice.key_control2.keys,practice.key_control2.rt,practice.key_control2.duration,cue.started,cube.started,fixation_cross_cue.started,cue.stopped,target.started,fixation_target.started,fixation_cross_target.started,key_resp.started,star.started,target.stopped,practice.key_resp.keys,practice.key_resp.rt,practice.key_resp.duration,star.stopped,fixation_target.stopped,fixation_cross_target.stopped,key_resp.stopped,block1.key_control2.keys,block1.key_control2.rt,block1.key_control2.duration,block1.key_resp.keys,block1.key_resp.rt,block1.key_resp.duration,break_2.started,text.started,key_control3.started,text.stopped,break_2.stopped,key_control3.keys,key_control3.rt,key_control3.duration,block2.key_control2.keys,block2.key_control2.rt,block2.key_control2.duration,block2.key_resp.keys,block2.key_resp.rt,block2.key_resp.duration,participant,session,date,expName,psychopyVersion,frameRate,expStart,
,,,,,,,,,,,,,,,,,,,,,,,,,,,0.007390000000668806,0.021423300000606105,0.021423300000606105,382.2874526000014,up,382.2476682999986,None,,,,,,,,,,,,,,,,,,,,,,,,,,,,,,,,,,,,,,,,,,,,,,,,,,P143,001,2025-04-09_11h56.18.851,posner_endo_new1,2024.2.4,60.10160777822367,2025-04-09 11h56.26.978287 +0100,
,,,,,,,,,,,,,,,,,,,,,,,,,,,,,,,,,,382.28753470000083,382.29932700000063,385.2981402000005,385.27932520000104,,,,,,,,,,,,,,,,,,,,,,,,,,,,,,,,,,,,,,,,,,,,,,P143,001,2025-04-09_11h56.18.851,posner_endo_new1,2024.2.4,60.10160777822367,2025-04-09 11h56.26.978287 +0100,
cube_l.png,0.1,-0.31,valid,0,0,0,down,49.90685359999952,None,space,0.2845057000013185,None,0,0,0,0,,,,,,,,,385.2981402000005,,,,,,,,,,,,,385.286909800001,385.2981402000005,385.2981402000005,385.2981402000005,435.2120338000004,down,49.90685359999952,None,435.2294646999999,435.24039880000055,435.24039880000055,435.2778312999999,435.278142000001,435.29439940000157,435.29439940000157,435.29439940000157,435.3776417000008,435.5952475000013,space,0.2845057000013185,None,,,,,,,,,,,,,,,,,,,,,,,,,P143,001,2025-04-09_11h56.18.851,posner_endo_new1,2024.2.4,60.10160777822367,2025-04-09 11h56.26.978287 +0100,
cube_r.png,0.1,0.31,valid,1,1,0,down,3.9942231999993965,None,space,0.2381122000006144,None,0,1,1,10,,,,,,,,,435.6107279000007,,,,,,,,,,,,,435.59548520000135,435.6107279000007,435.6107279000007,435.6107279000007,439.60771580000073,down,3.9942231999993965,None,439.61736250000104,439.6274658000002,439.6274658000002,439.67342180000014,439.6737213000015,439.6898977000001,439.6898977000001,439.6898977000001,439.773148100001,439.9406153,space,0.2381122000006144,None,,,,,,,,,,,,,,,,,,,,,,,,,P143,001,2025-04-09_11h56.18.851,posner_endo_new1,2024.2.4,60.10160777822367,2025-04-09 11h56.26.978287 +0100,
cube_r.png,0.1,-0.31,invalid,2,2,0,down,2.816639500000747,None,space,0.42060900000069523,None,0,2,2,9,,,,,,,,,439.9562990000013,,,,,,,,,,,,,439.9408587000016,439.9562990000013,439.9562990000013,439.9562990000013,442.78787080000075,down,2.816639500000747,None,442.79758590000165,442.8077796000016,442.8077796000016,442.8534524000006,442.8537520000009,442.8700161000015,442.8700161000015,442.8700161000015,442.95328690000133,443.30391990000135,space,0.42060900000069523,None,,,,,,,,,,,,,,,,,,,,,,,,,P143,001,2025-04-09_11h56.18.851,posner_endo_new1,2024.2.4,60.10160777822367,2025-04-09 11h56.26.978287 +0100,
cube_l.png,0.1,0.31,invalid,3,3,0,down,1.5737657000008767,None,space,0.35173419999955513,None,0,3,3,1,,,,,,,,,443.3195024000015,,,,,,,,,,,,,443.3041623000008,443.3195024000015,443.3195024000015,443.3195024000015,444.9021921000003,down,1.5737657000008767,None,444.9113943000011,444.92153210000106,444.92153210000106,444.96789140000146,444.96819210000103,444.98447230000056,444.98447230000056,444.98447230000056,445.06781410000076,445.3517924000007,space,0.35173419999955513,None,,,,,,,,,,,,,,,,,,,,,,,,,P143,001,2025-04-09_11h56.18.851,posner_endo_new1,2024.2.4,60.10160777822367,2025-04-09 11h56.26.978287 +0100,
cube_r.png,0.1,0.31,valid,4,4,0,down,1.7830474000002141,None,space,0.30478130000119563,None,0,4,4,7,,,,,,,,,445.3674312000003,,,,,,,,,,,,,445.35202820000086,445.3674312000003,445.3674312000003,445.3674312000003,447.1666570000016,down,1.7830474000002141,None,447.1759942000008,447.18622790000154,447.18622790000154,447.23233210000035,447.23263510000106,447.2488009000008,447.2488009000008,447.2488009000008,447.3320620000013,447.566187800001,space,0.30478130000119563,None,,,,,,,,,,,,,,,,,,,,,,,,,P143,001,2025-04-09_11h56.18.851,posner_endo_new1,2024.2.4,60.10160777822367,2025-04-09 11h56.26.978287 +0100,
cube_l.png,0.1,0.31,invalid,5,5,0,down,1.503121400000964,None,space,0.6427366000007169,None,0,5,5,5,,,,,,,,,447.5817695000005,,,,,,,,,,,,,447.5664241000013,447.5817695000005,447.5817695000005,447.5817695000005,449.09794820000025,down,1.503121400000964,None,449.1072084000007,449.11739210000087,449.11739210000087,449.1636382000015,449.163940800001,449.1802017000009,449.1802017000009,449.1802017000009,449.2634261000003,449.8307362000014,space,0.6427366000007169,None,,,,,,,,,,,,,,,,,,,,,,,,,P143,001,2025-04-09_11h56.18.851,posner_endo_new1,2024.2.4,60.10160777822367,2025-04-09 11h56.26.978287 +0100,
cube_r.png,0.1,10,catch,6,6,0,down,1.7591044000000693,None,None,,,0,6,6,3,,,,,,,,,449.8461309000013,,,,,,,,,,,,,449.83097369999996,449.8461309000013,449.8461309000013,449.8461309000013,451.61218800000097,down,1.7591044000000693,None,451.6213340000013,451.6314101000007,451.6314101000007,451.6777311000005,451.67802740000116,451.6942514000002,451.6942514000002,451.6942514000002,451.7775515000012,454.69181840000056,None,,,453.79211280000163,454.7078687000012,454.7078687000012,454.7078687000012,,,,,,,,,,,,,,,,,,,,,P143,001,2025-04-09_11h56.18.851,posner_endo_new1,2024.2.4,60.10160777822367,2025-04-09 11h56.26.978287 +0100,
cube_r.png,0.1,-0.31,invalid,7,7,0,down,2.577287600001,None,space,0.26459090000025753,None,0,7,7,2,,,,,,,,,454.7078687000012,,,,,,,,,,,,,454.69203820000075,454.7078687000012,454.7078687000012,454.7078687000012,457.28969680000046,down,2.577287600001,None,457.29896850000114,457.30913169999985,457.30913169999985,457.35540780000156,457.3557056000009,457.37186610000026,457.37186610000026,457.37186610000026,457.4551102000005,457.6394168000006,space,0.26459090000025753,None,,,,,,,,,,,,,,,,,,,,,,,,,P143,001,2025-04-09_11h56.18.851,posner_endo_new1,2024.2.4,60.10160777822367,2025-04-09 11h56.26.978287 +0100,
cube_r.png,0.1,-0.31,invalid,8,8,0,down,2.9338138999992225,None,space,0.47450000000026193,None,0,8,8,6,,,,,,,,,457.6549064999999,,,,,,,,,,,,,457.6396605000009,457.6549064999999,457.6549064999999,457.6549064999999,460.60287680000147,down,2.9338138999992225,None,460.61204240000006,460.6223308000008,460.6223308000008,460.6685827000001,460.668886200001,460.6851127000009,460.6851127000009,460.6851127000009,460.7683117000015,461.16896780000025,space,0.47450000000026193,None,,,,,,,,,,,,,,,,,,,,,,,,,P143,001,2025-04-09_11h56.18.851,posner_endo_new1,2024.2.4,60.10160777822367,2025-04-09 11h56.26.978287 +0100,
cube_l.png,0.1,-0.31,valid,9,9,0,down,2.6363896999991994,None,space,0.4105813999995007,None,0,9,9,4,,,,,,,,,461.18466100000114,,,,,,,,,,,,,461.1692049000012,461.18466100000114,461.18466100000114,461.18466100000114,463.83288510000057,down,2.6363896999991994,None,463.8420812000004,463.85225810000156,463.85225810000156,463.8987123000006,463.89901420000024,463.9152076999999,463.9152076999999,463.9152076999999,463.9984600000007,464.3324018000003,space,0.4105813999995007,None,,,,,,,,,,,,,,,,,,,,,,,,,P143,001,2025-04-09_11h56.18.851,posner_endo_new1,2024.2.4,60.10160777822367,2025-04-09 11h56.26.978287 +0100,
cube_l.png,0.1,-0.31,valid,10,10,0,down,2.0091427999996085,None,space,0.34115139999994426,None,0,10,10,8,,,,,,,,,464.3479969,,,,,,,,,,,,,464.3326373,464.3479969,464.3479969,464.3479969,466.3637122,down,2.0091427999996085,None,466.372821500001,466.38291910000044,466.38291910000044,466.4294622000016,466.42976120000094,466.4458448000005,466.4458448000005,466.4458448000005,466.52909610000097,466.7965817000004,space,0.34115139999994426,None,,,,,,,,,,,,,,,,,,,,,,,,,P143,001,2025-04-09_11h56.18.851,posner_endo_new1,2024.2.4,60.10160777822367,2025-04-09 11h56.26.978287 +0100,
,,,,,,,,,,,,,,,,,,,,,,,,,,,,,,,,,,466.7967365000004,466.81198980000045,469.82259049999993,469.7930750000014,,,,,,,,,,,,,,,,,,,,,,,,,,,,,,,,,,,,,,,,,,,,,,P143,001,2025-04-09_11h56.18.851,posner_endo_new1,2024.2.4,60.10160777822367,2025-04-09 11h56.26.978287 +0100,
cube_l.png,0.1,10,catch,0,0,0,down,15.350160899999537,None,None,,,,,,,0,0,0,0,,,,,469.82259049999993,,,,,,,,,,,,,469.8116020000016,469.82259049999993,469.82259049999993,469.82259049999993,485.1777075000009,,,,485.1870759000012,485.19735650000075,485.19735650000075,485.2433759000014,485.24368420000064,485.2600422000014,485.2600422000014,485.2600422000014,485.34328820000155,488.25751090000085,,,,487.3577385000008,488.27354060000107,488.27354060000107,488.27354060000107,down,15.350160899999537,None,None,,,,,,,,,,,,,,,,,P143,001,2025-04-09_11h56.18.851,posner_endo_new1,2024.2.4,60.10160777822367,2025-04-09 11h56.26.978287 +0100,
cube_l.png,0.1,10,catch,1,1,0,down,2.8921395000015764,None,None,,,,,,,0,1,1,1,,,,,488.27354060000107,,,,,,,,,,,,,488.2577506000016,488.27354060000107,488.27354060000107,488.27354060000107,491.1716423000016,,,,491.1809759000007,491.19131540000126,491.19131540000126,491.23740929999985,491.237732900001,491.2538800000002,491.2538800000002,491.2538800000002,491.33719270000074,494.25155090000044,,,,493.35175979999985,494.2675799000008,494.2675799000008,494.2675799000008,down,2.8921395000015764,None,None,,,,,,,,,,,,,,,,,P143,001,2025-04-09_11h56.18.851,posner_endo_new1,2024.2.4,60.10160777822367,2025-04-09 11h56.26.978287 +0100,
cube_l.png,0.1,0.31,invalid,2,2,0,down,6.554116299999805,None,space,0.4178697999996075,None,,,,,0,2,2,2,,,,,494.2675799000008,,,,,,,,,,,,,494.25178740000047,494.2675799000008,494.2675799000008,494.2675799000008,500.82861930000035,,,,500.8379343000015,500.84810090000065,500.84810090000065,500.8941981000007,500.8944958000011,500.9106255000006,500.9106255000006,500.9106255000006,500.99397060000047,501.3445960000008,,,,,,,,down,6.554116299999805,None,space,0.4178697999996075,None,,,,,,,,,,,,,,,P143,001,2025-04-09_11h56.18.851,posner_endo_new1,2024.2.4,60.10160777822367,2025-04-09 11h56.26.978287 +0100,
cube_l.png,0.1,0.31,invalid,3,3,0,down,3.188567299999704,None,space,0.3713719999996101,None,,,,,0,3,3,3,,,,,501.36024480000015,,,,,,,,,,,,,501.34485420000055,501.36024480000015,501.36024480000015,501.36024480000015,504.5579858000001,,,,504.5671583000003,504.5773508000002,504.5773508000002,504.6237062,504.624004700001,504.6403418000009,504.6403418000009,504.6403418000009,504.7234615000016,505.02425910000056,,,,,,,,down,3.188567299999704,None,space,0.3713719999996101,None,,,,,,,,,,,,,,,P143,001,2025-04-09_11h56.18.851,posner_endo_new1,2024.2.4,60.10160777822367,2025-04-09 11h56.26.978287 +0100,
cube_l.png,0.1,-0.31,valid,4,4,0,down,4.741727299999184,None,space,0.3150564999996277,None,,,,,0,4,4,4,,,,,505.0398030000015,,,,,,,,,,,,,505.0245068000004,505.0398030000015,505.0398030000015,505.0398030000015,509.7861163000016,,,,509.7953683000014,509.80567599999995,509.80567599999995,509.85189210000135,509.852190900001,509.8682681999999,509.8682681999999,509.8682681999999,509.9514822000001,510.18566869999995,,,,,,,,down,4.741727299999184,None,space,0.3150564999996277,None,,,,,,,,,,,,,,,P143,001,2025-04-09_11h56.18.851,posner_endo_new1,2024.2.4,60.10160777822367,2025-04-09 11h56.26.978287 +0100,
cube_r.png,0.1,-0.31,invalid,5,5,0,down,2.772424400000091,None,space,0.40580409999893163,None,,,,,0,5,5,5,,,,,510.20123969999986,,,,,,,,,,,,,510.1859256000007,510.20123969999986,510.20123969999986,510.20123969999986,512.9826387000012,,,,512.9918577000008,513.0018959000008,513.0018959000008,513.0484676000015,513.0487684,513.0646663000007,513.0646663000007,513.0646663000007,513.1482979000011,513.4822194000008,,,,,,,,down,2.772424400000091,None,space,0.40580409999893163,None,,,,,,,,,,,,,,,P143,001,2025-04-09_11h56.18.851,posner_endo_new1,2024.2.4,60.10160777822367,2025-04-09 11h56.26.978287 +0100,
cube_r.png,0.1,0.31,valid,6,6,0,down,4.915327900000193,None,space,0.25655899999946996,None,,,,,0,6,6,6,,,,,513.497825800001,,,,,,,,,,,,,513.4824724999999,513.497825800001,513.497825800001,513.497825800001,518.4271853999999,,,,518.4363744000002,518.4468606999999,518.4468606999999,518.4928422000012,518.4931571000016,518.5096301000012,518.5096301000012,518.5096301000012,518.5927171000003,518.7769425000006,,,,,,,,down,4.915327900000193,None,space,0.25655899999946996,None,,,,,,,,,,,,,,,P143,001,2025-04-09_11h56.18.851,posner_endo_new1,2024.2.4,60.10160777822367,2025-04-09 11h56.26.978287 +0100,
cube_r.png,0.1,-0.31,invalid,7,7,0,down,2.844251599999552,None,space,0.39481570000134525,None,,,,,0,7,7,7,,,,,518.7925524000002,,,,,,,,,,,,,518.7771917999999,518.7925524000002,518.7925524000002,518.7925524000002,521.6407121000011,,,,521.6499798000004,521.6600601999999,521.6600601999999,521.7062645000005,521.7065616,521.722767700001,521.722767700001,521.722767700001,521.8060525000001,522.1235249000001,,,,,,,,down,2.844251599999552,None,space,0.39481570000134525,None,,,,,,,,,,,,,,,P143,001,2025-04-09_11h56.18.851,posner_endo_new1,2024.2.4,60.10160777822367,2025-04-09 11h56.26.978287 +0100,
cube_l.png,0.1,-0.31,valid,8,8,0,down,2.0500928000001295,None,space,0.38915110000016284,None,,,,,0,8,8,8,,,,,522.1390937000015,,,,,,,,,,,,,522.1237805000001,522.1390937000015,522.1390937000015,522.1390937000015,524.2047017000004,,,,524.2139711,524.2243179000016,524.2243179000016,524.2701055000016,524.2704038000011,524.2868796000002,524.2868796000002,524.2868796000002,524.3700369000017,524.6873587000009,,,,,,,,down,2.0500928000001295,None,space,0.38915110000016284,None,,,,,,,,,,,,,,,P143,001,2025-04-09_11h56.18.851,posner_endo_new1,2024.2.4,60.10160777822367,2025-04-09 11h56.26.978287 +0100,
cube_r.png,0.1,-0.31,invalid,9,9,0,down,2.2623437000002014,None,space,0.3828605000016978,None,,,,,0,9,9,9,,,,,524.702960300001,,,,,,,,,,,,,524.6876124999999,524.702960300001,524.702960300001,524.702960300001,526.9683454000005,,,,526.9775182000012,526.9876064,526.9876064,527.0343157000007,527.0346149000015,527.0506294000006,527.0506294000006,527.0506294000006,527.134014700001,527.4348103000011,,,,,,,,down,2.2623437000002014,None,space,0.3828605000016978,None,,,,,,,,,,,,,,,P143,001,2025-04-09_11h56.18.851,posner_endo_new1,2024.2.4,60.10160777822367,2025-04-09 11h56.26.978287 +0100,
cube_l.png,0.1,0.31,invalid,10,10,0,down,2.4432371000002604,None,space,0.42032020000078774,None,,,,,0,10,10,10,,,,,527.4502444000009,,,,,,,,,,,,,527.4350589000005,527.4502444000009,527.4502444000009,527.4502444000009,529.8988395000015,,,,529.9079985000008,529.9182262000013,529.9182262000013,529.9645653000007,529.964861800001,529.9810361,529.9810361,529.9810361,530.0642309000013,530.4150002000006,,,,,,,,down,2.4432371000002604,None,space,0.42032020000078774,None,,,,,,,,,,,,,,,P143,001,2025-04-09_11h56.18.851,posner_endo_new1,2024.2.4,60.10160777822367,2025-04-09 11h56.26.978287 +0100,
cube_r.png,0.1,-0.31,invalid,11,11,0,down,2.7113883000001806,None,space,0.40816850000010163,None,,,,,0,11,11,11,,,,,530.4306075000004,,,,,,,,,,,,,530.4152596000004,530.4306075000004,530.4306075000004,530.4306075000004,533.1457018000001,,,,533.1549432000011,533.1650855000007,533.1650855000007,533.2110962000006,533.2113946000009,533.2276871000013,533.2276871000013,533.2276871000013,533.3109505000011,533.6450182000008,,,,,,,,down,2.7113883000001806,None,space,0.40816850000010163,None,,,,,,,,,,,,,,,P143,001,2025-04-09_11h56.18.851,posner_endo_new1,2024.2.4,60.10160777822367,2025-04-09 11h56.26.978287 +0100,
cube_r.png,0.1,0.31,valid,12,12,0,down,2.376345999999103,None,space,0.33810819999962405,None,,,,,0,12,12,12,,,,,533.6606018000002,,,,,,,,,,,,,533.6452677000016,533.6606018000002,533.6606018000002,533.6606018000002,536.0426259000014,,,,536.0517810000001,536.0619028000001,536.0619028000001,536.1082569000009,536.108553600001,536.1247848000003,536.1247848000003,536.1247848000003,536.2080485000006,536.475461,,,,,,,,down,2.376345999999103,None,space,0.33810819999962405,None,,,,,,,,,,,,,,,P143,001,2025-04-09_11h56.18.851,posner_endo_new1,2024.2.4,60.10160777822367,2025-04-09 11h56.26.978287 +0100,
cube_l.png,0.1,10,catch,13,13,0,down,2.0427686000002723,None,None,,,,,,,0,13,13,13,,,,,536.490870900001,,,,,,,,,,,,,536.4757102000003,536.490870900001,536.490870900001,536.490870900001,538.5400655000012,,,,538.5488927000006,538.5585577000002,538.5585577000002,538.6057939000002,538.6060105000015,538.6223449000008,538.6223449000008,538.6223449000008,538.7054194000011,541.6195984000005,,,,540.7201910000003,541.6359206000016,541.6359206000016,541.6359206000016,down,2.0427686000002723,None,None,,,,,,,,,,,,,,,,,P143,001,2025-04-09_11h56.18.851,posner_endo_new1,2024.2.4,60.10160777822367,2025-04-09 11h56.26.978287 +0100,
cube_r.png,0.1,-0.31,invalid,14,14,0,down,3.0179141999997228,None,space,0.36326329999974405,None,,,,,0,14,14,14,,,,,541.6359206000016,,,,,,,,,,,,,541.6197552000012,541.6359206000016,541.6359206000016,541.6359206000016,544.6665987000015,,,,544.6727334000007,544.6843869000004,544.6843869000004,544.732675700001,544.7331602000013,544.7491256000012,544.7491256000012,544.7491256000012,544.8157361000012,545.1172578000005,,,,,,,,down,3.0179141999997228,None,space,0.36326329999974405,None,,,,,,,,,,,,,,,P143,001,2025-04-09_11h56.18.851,posner_endo_new1,2024.2.4,60.10160777822367,2025-04-09 11h56.26.978287 +0100,
cube_l.png,0.1,-0.31,valid,15,15,0,down,1.9934962000006635,None,space,0.37588810000124795,None,,,,,0,15,15,15,,,,,545.1320696000002,,,,,,,,,,,,,545.1177011,545.1320696000002,545.1320696000002,545.1320696000002,547.1314053000006,,,,547.1424098000007,547.1526971000003,547.1526971000003,547.1969570000001,547.1972943000001,547.2135813000004,547.2135813000004,547.2135813000004,547.2966918000002,547.5976523000008,,,,,,,,down,1.9934962000006635,None,space,0.37588810000124795,None,,,,,,,,,,,,,,,P143,001,2025-04-09_11h56.18.851,posner_endo_new1,2024.2.4,60.10160777822367,2025-04-09 11h56.26.978287 +0100,
cube_r.png,0.1,10,catch,16,16,0,down,2.103863000000274,None,None,,,,,,,0,16,16,16,,,,,547.6130665000001,,,,,,,,,,,,,547.5979381000016,547.6130665000001,547.6130665000001,547.6130665000001,549.7280235000017,,,,549.7346440000001,549.7458598000012,549.7458598000012,549.7938637000007,549.7940942000005,549.8102378000003,549.8102378000003,549.8102378000003,549.8775265000004,552.8081726,,,,551.892092600001,552.8243642000016,552.8243642000016,552.8243642000016,down,2.103863000000274,None,None,,,,,,,,,,,,,,,,,P143,001,2025-04-09_11h56.18.851,posner_endo_new1,2024.2.4,60.10160777822367,2025-04-09 11h56.26.978287 +0100,
cube_r.png,0.1,10,catch,17,17,0,down,2.484645000000455,None,None,,,,,,,0,17,17,17,,,,,552.8243642000016,,,,,,,,,,,,,552.8083299999998,552.8243642000016,552.8243642000016,552.8243642000016,555.3227499000004,,,,555.3285845999999,555.3403327000015,555.3403327000015,555.3884968000002,555.3889842000008,555.4049190000005,555.4049190000005,555.4049190000005,555.4881301000005,558.4029455,,,,557.5027852000003,558.4184679999998,558.4184679999998,558.4184679999998,down,2.484645000000455,None,None,,,,,,,,,,,,,,,,,P143,001,2025-04-09_11h56.18.851,posner_endo_new1,2024.2.4,60.10160777822367,2025-04-09 11h56.26.978287 +0100,
cube_l.png,0.1,0.31,invalid,18,18,0,down,6.034873799999332,None,space,0.4059507999991183,None,,,,,0,18,18,18,,,,,558.4184679999998,,,,,,,,,,,,,558.4033434000012,558.4184679999998,558.4184679999998,558.4184679999998,564.4650808000006,,,,564.4875167000009,564.4997316000008,564.4997316000008,564.5288412000009,564.5292224000004,564.5453063000004,564.5453063000004,564.5453063000004,564.6285639000016,564.9628667000015,,,,,,,,down,6.034873799999332,None,space,0.4059507999991183,None,,,,,,,,,,,,,,,P143,001,2025-04-09_11h56.18.851,posner_endo_new1,2024.2.4,60.10160777822367,2025-04-09 11h56.26.978287 +0100,
cube_l.png,0.1,10,catch,19,19,0,down,6.571251100000154,None,None,,,,,,,0,19,19,19,,,,,564.9781864000015,,,,,,,,,,,,,564.9631922000008,564.9781864000015,564.9781864000015,564.9781864000015,571.5559822000014,,,,571.5634752000005,571.5749669000015,571.5749669000015,571.6219821000013,571.6222081000014,571.6384589000008,571.6384589000008,571.6384589000008,571.7216838000004,574.6360341,,,,573.7363947000013,574.6520655000004,574.6520655000004,574.6520655000004,down,6.571251100000154,None,None,,,,,,,,,,,,,,,,,P143,001,2025-04-09_11h56.18.851,posner_endo_new1,2024.2.4,60.10160777822367,2025-04-09 11h56.26.978287 +0100,
cube_l.png,0.1,0.31,invalid,20,20,0,down,2.6655795000006037,None,space,0.507463200001439,None,,,,,0,20,20,20,,,,,574.6520655000004,,,,,,,,,,,,,574.6362669000009,574.6520655000004,574.6520655000004,574.6520655000004,577.3335992000011,,,,577.3433593000009,577.3535036000012,577.3535036000012,577.3994020000009,577.3997044000007,577.4159039000006,577.4159039000006,577.4159039000006,577.4992199000008,577.9330430999998,,,,,,,,down,2.6655795000006037,None,space,0.507463200001439,None,,,,,,,,,,,,,,,P143,001,2025-04-09_11h56.18.851,posner_endo_new1,2024.2.4,60.10160777822367,2025-04-09 11h56.26.978287 +0100,
cube_l.png,0.1,-0.31,valid,21,21,0,down,2.9522316999991745,None,space,0.51240929999949,None,,,,,0,21,21,21,,,,,577.948753300001,,,,,,,,,,,,,577.9333045000003,577.948753300001,577.948753300001,577.948753300001,580.9134048000014,,,,580.9231089000004,580.9333134000008,580.9333134000008,580.9790436000003,580.9793429000001,580.9955860999999,580.9955860999999,580.9955860999999,581.078860900001,581.5128573000002,,,,,,,,down,2.9522316999991745,None,space,0.51240929999949,None,,,,,,,,,,,,,,,P143,001,2025-04-09_11h56.18.851,posner_endo_new1,2024.2.4,60.10160777822367,2025-04-09 11h56.26.978287 +0100,
cube_r.png,0.1,0.31,valid,22,22,0,down,2.3888106000013067,None,space,0.39289819999976316,None,,,,,0,22,22,22,,,,,581.5284763,,,,,,,,,,,,,581.5131103000003,581.5284763,581.5284763,581.5284763,583.9270063000004,,,,583.9365850000013,583.9464015000012,583.9464015000012,583.9926336000008,583.9929314000001,584.0092384,584.0092384,584.0092384,584.0924801000001,584.4099848000005,,,,,,,,down,2.3888106000013067,None,space,0.39289819999976316,None,,,,,,,,,,,,,,,P143,001,2025-04-09_11h56.18.851,posner_endo_new1,2024.2.4,60.10160777822367,2025-04-09 11h56.26.978287 +0100,
cube_r.png,0.1,-0.31,invalid,23,23,0,down,2.1083473000016966,None,space,0.5175181000013254,None,,,,,0,23,23,23,,,,,584.4253286000003,,,,,,,,,,,,,584.4102394000001,584.4253286000003,584.4253286000003,584.4253286000003,586.5409640000016,,,,586.5504747000014,586.5606204000014,586.5606204000014,586.6066572,586.6069573000004,586.6232190999999,586.6232190999999,586.6232190999999,586.7064846000012,587.1570736000012,,,,,,,,down,2.1083473000016966,None,space,0.5175181000013254,None,,,,,,,,,,,,,,,P143,001,2025-04-09_11h56.18.851,posner_endo_new1,2024.2.4,60.10160777822367,2025-04-09 11h56.26.978287 +0100,
cube_r.png,0.1,0.31,valid,24,24,0,down,2.097063999999591,None,space,0.3332348000003549,None,,,,,0,24,24,24,,,,,587.1725134000008,,,,,,,,,,,,,587.157320100001,587.1725134000008,587.1725134000008,587.1725134000008,589.2714467000005,,,,589.2799755000015,589.2902989000013,589.2902989000013,589.3373537000007,589.337591200001,589.3537514,589.3537514,589.3537514,589.4370749000009,589.6877037000013,,,,,,,,down,2.097063999999591,None,space,0.3332348000003549,None,,,,,,,,,,,,,,,P143,001,2025-04-09_11h56.18.851,posner_endo_new1,2024.2.4,60.10160777822367,2025-04-09 11h56.26.978287 +0100,
cube_r.png,0.1,-0.31,invalid,25,25,0,down,2.166399400000955,None,space,0.38800869999977294,None,,,,,0,25,25,25,,,,,589.7033742000003,,,,,,,,,,,,,589.6878739000003,589.7033742000003,589.7033742000003,589.7033742000003,591.8852938,,,,591.8915742000008,591.9033292000004,591.9033292000004,591.9512494999999,591.9517910000013,591.9676930000005,591.9676930000005,591.9676930000005,592.0509219000014,592.3692982000011,,,,,,,,down,2.166399400000955,None,space,0.38800869999977294,None,,,,,,,,,,,,,,,P143,001,2025-04-09_11h56.18.851,posner_endo_new1,2024.2.4,60.10160777822367,2025-04-09 11h56.26.978287 +0100,
cube_l.png,0.1,-0.31,valid,26,26,0,down,3.221808599999349,None,space,0.3193136999998387,None,,,,,0,26,26,26,,,,,592.3838999,,,,,,,,,,,,,592.3697769000009,592.3838999,592.3838999,592.3838999,595.6158630000009,,,,595.6344986000004,595.6462120000015,595.6462120000015,595.6808345000009,595.6811717,595.6972278000012,595.6972278000012,595.6972278000012,595.7804114999999,596.0314620000008,,,,,,,,down,3.221808599999349,None,space,0.3193136999998387,None,,,,,,,,,,,,,,,P143,001,2025-04-09_11h56.18.851,posner_endo_new1,2024.2.4,60.10160777822367,2025-04-09 11h56.26.978287 +0100,
cube_r.png,0.1,0.31,valid,27,27,0,down,4.05483109999841,None,space,0.3460303000010754,None,,,,,0,27,27,27,,,,,596.0469662000014,,,,,,,,,,,,,596.0317487000011,596.0469662000014,596.0469662000014,596.0469662000014,600.1105143000004,,,,600.121803,600.1320586000002,600.1320586000002,600.1761865000008,600.1765264000005,600.1926588000006,600.1926588000006,600.1926588000006,600.2759905000003,600.5435690000013,,,,,,,,down,4.05483109999841,None,space,0.3460303000010754,None,,,,,,,,,,,,,,,P143,001,2025-04-09_11h56.18.851,posner_endo_new1,2024.2.4,60.10160777822367,2025-04-09 11h56.26.978287 +0100,
cube_r.png,0.1,10,catch,28,28,0,down,2.446950999999899,None,None,,,,,,,0,28,28,28,,,,,600.5589802000013,,,,,,,,,,,,,600.5438587000008,600.5589802000013,600.5589802000013,600.5589802000013,603.0079930000011,,,,603.0192485000007,603.0296185000007,603.0296185000007,603.0732552000009,603.0735933000014,603.0897538000008,603.0897538000008,603.0897538000008,603.1729466000015,606.0874004000016,,,,605.1875468000017,606.1034137000006,606.1034137000006,606.1034137000006,down,2.446950999999899,None,None,,,,,,,,,,,,,,,,,P143,001,2025-04-09_11h56.18.851,posner_endo_new1,2024.2.4,60.10160777822367,2025-04-09 11h56.26.978287 +0100,
cube_r.png,0.1,0.31,valid,29,29,0,down,0.14223560000027646,None,space,0.4132348999992246,None,,,,,0,29,29,29,,,,,606.1034137000006,,,,,,,,,,,,,606.0876727000013,606.1034137000006,606.1034137000006,606.1034137000006,606.254369100001,,,,606.2628573000002,606.2728301000006,606.2728301000006,606.3199581000008,606.3201801000014,606.3363051000015,606.3363051000015,606.3363051000015,606.4197141000004,606.7535272000005,,,,,,,,down,0.14223560000027646,None,space,0.4132348999992246,None,,,,,,,,,,,,,,,P143,001,2025-04-09_11h56.18.851,posner_endo_new1,2024.2.4,60.10160777822367,2025-04-09 11h56.26.978287 +0100,
cube_r.png,0.1,0.31,valid,30,30,0,down,2.036350599999423,None,space,0.42068939999990107,None,,,,,0,30,30,30,,,,,606.7693696000006,,,,,,,,,,,,,606.753697600001,606.7693696000006,606.7693696000006,606.7693696000006,608.8179887000006,,,,608.8239869000008,608.8356079000005,608.8356079000005,608.8836652999998,608.884096400001,608.9001075000015,608.9001075000015,608.9001075000015,608.9833681,609.3344926000009,,,,,,,,down,2.036350599999423,None,space,0.42068939999990107,None,,,,,,,,,,,,,,,P143,001,2025-04-09_11h56.18.851,posner_endo_new1,2024.2.4,60.10160777822367,2025-04-09 11h56.26.978287 +0100,
cube_l.png,0.1,-0.31,valid,31,31,0,down,1.984280700000454,None,space,0.36687630000051286,None,,,,,0,31,31,31,,,,,609.3496673000009,,,,,,,,,,,,,609.3348716,609.3496673000009,609.3496673000009,609.3496673000009,611.3488237000001,,,,611.3583825000005,611.3686181000012,611.3686181000012,611.4146966000008,611.4149986000011,611.4311461000016,611.4311461000016,611.4311461000016,611.5144362999999,611.8151010000001,,,,,,,,down,1.984280700000454,None,space,0.36687630000051286,None,,,,,,,,,,,,,,,P143,001,2025-04-09_11h56.18.851,posner_endo_new1,2024.2.4,60.10160777822367,2025-04-09 11h56.26.978287 +0100,
cube_r.png,0.1,0.31,valid,32,32,0,down,2.551178499999878,None,space,0.3586808000000019,None,,,,,0,32,32,32,,,,,611.8307957000015,,,,,,,,,,,,,611.8153523000001,611.8307957000015,611.8307957000015,611.8307957000015,614.3959724000015,,,,614.4053626000004,614.4154436000008,614.4154436000008,614.4615664000012,614.4618633999999,614.4778826000002,614.4778826000002,614.4778826000002,614.5614456000003,614.8455676000012,,,,,,,,down,2.551178499999878,None,space,0.3586808000000019,None,,,,,,,,,,,,,,,P143,001,2025-04-09_11h56.18.851,posner_endo_new1,2024.2.4,60.10160777822367,2025-04-09 11h56.26.978287 +0100,
cube_r.png,0.1,-0.31,invalid,33,33,0,down,2.4169445000006817,None,space,0.41529020000052697,None,,,,,0,33,33,33,,,,,614.8610966000015,,,,,,,,,,,,,614.8458193000006,614.8610966000015,614.8610966000015,614.8610966000015,617.2928466000012,,,,617.3008528000009,617.3116784000013,617.3116784000013,617.3587130000014,617.3589368000012,617.3750161000007,617.3750161000007,617.3750161000007,617.4584207000007,617.7921569000009,,,,,,,,down,2.4169445000006817,None,space,0.41529020000052697,None,,,,,,,,,,,,,,,P143,001,2025-04-09_11h56.18.851,posner_endo_new1,2024.2.4,60.10160777822367,2025-04-09 11h56.26.978287 +0100,
cube_r.png,0.1,10,catch,34,34,0,down,4.829909000000043,None,None,,,,,,,0,34,34,34,,,,,617.8079945000009,,,,,,,,,,,,,617.7923327000008,617.8079945000009,617.8079945000009,617.8079945000009,622.6538175000005,,,,622.6600628000015,622.6715296000002,622.6715296000002,622.7196941000002,622.7201986,622.7361314000009,622.7361314000009,622.7361314000009,622.8194144000008,625.7340916000012,,,,624.8342146000014,625.7499435000009,625.7499435000009,625.7499435000009,down,4.829909000000043,None,None,,,,,,,,,,,,,,,,,P143,001,2025-04-09_11h56.18.851,posner_endo_new1,2024.2.4,60.10160777822367,2025-04-09 11h56.26.978287 +0100,
cube_r.png,0.1,0.31,valid,35,35,0,down,0.3755233000010776,None,space,0.40533959999993385,None,,,,,0,35,35,35,,,,,625.7499435000009,,,,,,,,,,,,,625.7343581000005,625.7499435000009,625.7499435000009,625.7499435000009,626.1340442000001,,,,626.1453215000001,626.1556328000006,626.1556328000006,626.1995823000016,626.1998261000008,626.2160264000013,626.2160264000013,626.2160264000013,626.2992697000009,626.6332046000007,,,,,,,,down,0.3755233000010776,None,space,0.40533959999993385,None,,,,,,,,,,,,,,,P143,001,2025-04-09_11h56.18.851,posner_endo_new1,2024.2.4,60.10160777822367,2025-04-09 11h56.26.978287 +0100,
cube_r.png,0.1,-0.31,invalid,36,36,0,down,2.204736200001207,None,space,0.34142489999976533,None,,,,,0,36,36,36,,,,,626.6491388000013,,,,,,,,,,,,,626.633402200001,626.6491388000013,626.6491388000013,626.6491388000013,628.8642034000004,,,,628.8714135000009,628.8833818000003,628.8833818000003,628.9300344000003,628.9302592000004,628.9466679000016,628.9466679000016,628.9466679000016,629.0132177000014,629.2969312000005,,,,,,,,down,2.204736200001207,None,space,0.34142489999976533,None,,,,,,,,,,,,,,,P143,001,2025-04-09_11h56.18.851,posner_endo_new1,2024.2.4,60.10160777822367,2025-04-09 11h56.26.978287 +0100,
cube_l.png,0.1,0.31,invalid,37,37,0,down,2.5405836000009003,None,space,0.47511950000080105,None,,,,,0,37,37,37,,,,,629.3129251000009,,,,,,,,,,,,,629.2971080000007,629.3129251000009,629.3129251000009,629.3129251000009,631.8611708000008,,,,631.8670735000014,631.8787091000013,631.8787091000013,631.9269786000004,631.9274655000008,631.9433996000007,631.9433996000007,631.9433996000007,632.026646100001,632.4280697000013,,,,,,,,down,2.5405836000009003,None,space,0.47511950000080105,None,,,,,,,,,,,,,,,P143,001,2025-04-09_11h56.18.851,posner_endo_new1,2024.2.4,60.10160777822367,2025-04-09 11h56.26.978287 +0100,
cube_l.png,0.1,0.31,invalid,38,38,0,down,2.115954499999134,None,space,0.46129280000059225,None,,,,,0,38,38,38,,,,,632.4429411000001,,,,,,,,,,,,,632.4285056000008,632.4429411000001,632.4429411000001,632.4429411000001,634.5754513000011,,,,634.5866850000002,634.5967290000008,634.5967290000008,634.6410232000017,634.6413628999999,634.6575014000009,634.6575014000009,634.6575014000009,634.7406846000013,635.1248781000013,,,,,,,,down,2.115954499999134,None,space,0.46129280000059225,None,,,,,,,,,,,,,,,P143,001,2025-04-09_11h56.18.851,posner_endo_new1,2024.2.4,60.10160777822367,2025-04-09 11h56.26.978287 +0100,
cube_r.png,0.1,0.31,valid,39,39,0,down,1.6170173000009527,None,space,0.5190633000001981,None,,,,,0,39,39,39,,,,,635.1403122000011,,,,,,,,,,,,,635.1251657000012,635.1403122000011,635.1403122000011,635.1403122000011,636.7731432,,,,636.7844193000001,636.794571800001,636.794571800001,636.8388434000008,636.8391781999999,636.8553285000016,636.8553285000016,636.8553285000016,636.9385239000003,637.389238400001,,,,,,,,down,1.6170173000009527,None,space,0.5190633000001981,None,,,,,,,,,,,,,,,P143,001,2025-04-09_11h56.18.851,posner_endo_new1,2024.2.4,60.10160777822367,2025-04-09 11h56.26.978287 +0100,
cube_l.png,0.1,0.31,invalid,40,40,0,down,1.9847466000010172,None,space,0.7501188000005641,None,,,,,0,40,40,40,,,,,637.4046871999999,,,,,,,,,,,,,637.389525300001,637.4046871999999,637.4046871999999,637.4046871999999,639.4038903000001,,,,639.4123348000012,639.4222089000014,639.4222089000014,639.4694392000001,639.4696727999999,639.4859100000012,639.4859100000012,639.4859100000012,639.5691167000004,640.2525197000014,,,,,,,,down,1.9847466000010172,None,space,0.7501188000005641,None,,,,,,,,,,,,,,,P143,001,2025-04-09_11h56.18.851,posner_endo_new1,2024.2.4,60.10160777822367,2025-04-09 11h56.26.978287 +0100,
cube_l.png,0.1,10,catch,41,41,0,down,1.5687876000010874,None,None,,,,,,,0,41,41,41,,,,,640.2684649000003,,,,,,,,,,,,,640.2527023000002,640.2684649000003,640.2684649000003,640.2684649000003,641.8510393000015,,,,641.8577267000001,641.8694563000008,641.8694563000008,641.9168406000008,641.9170630000008,641.9334932000002,641.9334932000002,641.9334932000002,642.0165586000003,644.9308174000016,,,,644.0311095000015,644.9469943000004,644.9469943000004,644.9469943000004,down,1.5687876000010874,None,None,,,,,,,,,,,,,,,,,P143,001,2025-04-09_11h56.18.851,posner_endo_new1,2024.2.4,60.10160777822367,2025-04-09 11h56.26.978287 +0100,
cube_l.png,0.1,-0.31,valid,42,42,0,down,2.2102879000012763,None,space,0.4571386000006896,None,,,,,0,42,42,42,,,,,644.9469943000004,,,,,,,,,,,,,644.9309774000012,644.9469943000004,644.9469943000004,644.9469943000004,647.1623330000002,,,,647.1683309,647.179938700001,647.179938700001,647.2277365000009,647.2281144000008,647.2442273000015,647.2442273000015,647.2442273000015,647.327459600001,647.7118832000015,,,,,,,,down,2.2102879000012763,None,space,0.4571386000006896,None,,,,,,,,,,,,,,,P143,001,2025-04-09_11h56.18.851,posner_endo_new1,2024.2.4,60.10160777822367,2025-04-09 11h56.26.978287 +0100,
cube_l.png,0.1,10,catch,43,43,0,down,2.742444499999692,None,None,,,,,,,0,43,43,43,,,,,647.7270458000003,,,,,,,,,,,,,647.7122036000001,647.7270458000003,647.7270458000003,647.7270458000003,650.4759294000014,,,,650.4870357,650.497444300001,650.497444300001,650.5414599000014,650.541796200001,650.5579856000004,650.5579856000004,650.5579856000004,650.6411318999999,653.5555839000008,,,,652.6557280000015,653.571599500001,653.571599500001,653.571599500001,down,2.742444499999692,None,None,,,,,,,,,,,,,,,,,P143,001,2025-04-09_11h56.18.851,posner_endo_new1,2024.2.4,60.10160777822367,2025-04-09 11h56.26.978287 +0100,
cube_l.png,0.1,0.31,invalid,44,44,0,down,2.8504112000009627,None,space,0.4532355999999709,None,,,,,0,44,44,44,,,,,653.571599500001,,,,,,,,,,,,,653.5558484000012,653.571599500001,653.571599500001,653.571599500001,656.436431600001,,,,656.4475487,656.4579941000011,656.4579941000011,656.5020685,656.5024068000002,656.5184921,656.5184921,656.5184921,656.6017451000007,656.9857050999999,,,,,,,,down,2.8504112000009627,None,space,0.4532355999999709,None,,,,,,,,,,,,,,,P143,001,2025-04-09_11h56.18.851,posner_endo_new1,2024.2.4,60.10160777822367,2025-04-09 11h56.26.978287 +0100,
cube_l.png,0.1,0.31,invalid,45,45,0,down,6.587721399999282,None,space,0.4618895999992674,None,,,,,0,45,45,45,,,,,657.0014436000001,,,,,,,,,,,,,656.9860009000004,657.0014436000001,657.0014436000001,657.0014436000001,663.5957161000006,,,,663.6068289000013,663.617186200001,663.617186200001,663.6614042000001,663.6617442000006,663.6779343000017,663.6779343000017,663.6779343000017,663.7611301000015,664.1452684000014,,,,,,,,down,6.587721399999282,None,space,0.4618895999992674,None,,,,,,,,,,,,,,,P143,001,2025-04-09_11h56.18.851,posner_endo_new1,2024.2.4,60.10160777822367,2025-04-09 11h56.26.978287 +0100,
cube_r.png,0.1,0.31,valid,46,46,0,down,3.0769480999988446,None,space,0.3441906000007293,None,,,,,0,46,46,46,,,,,664.1606535999999,,,,,,,,,,,,,664.1455545000008,664.1606535999999,664.1606535999999,664.1606535999999,667.2421422000007,,,,667.2532680000004,667.2637277000013,667.2637277000013,667.307757300001,667.3080973000015,667.324153900001,667.324153900001,667.324153900001,667.4073435000009,667.6750507000015,,,,,,,,down,3.0769480999988446,None,space,0.3441906000007293,None,,,,,,,,,,,,,,,P143,001,2025-04-09_11h56.18.851,posner_endo_new1,2024.2.4,60.10160777822367,2025-04-09 11h56.26.978287 +0100,
cube_l.png,0.1,-0.31,valid,47,47,0,down,2.9068934000006266,None,space,0.3439929999985907,None,,,,,0,47,47,47,,,,,667.6904236000009,,,,,,,,,,,,,667.6753394000007,667.6904236000009,667.6904236000009,667.6904236000009,670.6054854000013,,,,670.6165159000011,670.6268598000006,670.6268598000006,670.6708418000017,670.6711880000003,670.6872532000016,670.6872532000016,670.6872532000016,670.7706011999999,671.0383972,,,,,,,,down,2.9068934000006266,None,space,0.3439929999985907,None,,,,,,,,,,,,,,,P143,001,2025-04-09_11h56.18.851,posner_endo_new1,2024.2.4,60.10160777822367,2025-04-09 11h56.26.978287 +0100,
cube_r.png,0.1,-0.31,invalid,48,48,0,down,2.287943200000882,None,space,0.3241297000004124,None,,,,,0,48,48,48,,,,,671.0536867999999,,,,,,,,,,,,,671.0386875000004,671.0536867999999,671.0536867999999,671.0536867999999,673.3520066000001,,,,673.3590585000002,673.3710190000002,673.3710190000002,673.4180004000009,673.4182181000015,673.4345450000001,673.4345450000001,673.4345450000001,673.5011015,673.7683652000014,,,,,,,,down,2.287943200000882,None,space,0.3241297000004124,None,,,,,,,,,,,,,,,P143,001,2025-04-09_11h56.18.851,posner_endo_new1,2024.2.4,60.10160777822367,2025-04-09 11h56.26.978287 +0100,
cube_r.png,0.1,10,catch,49,49,0,down,2.965054300000702,None,None,,,,,,,0,49,49,49,,,,,673.784294000001,,,,,,,,,,,,,673.7685307000011,673.784294000001,673.784294000001,673.784294000001,676.7651527000016,,,,676.7708415000016,676.7823326000016,676.7823326000016,676.831134600001,676.8316279999999,676.8475783000013,676.8475783000013,676.8475783000013,676.9308214000012,679.8455370000011,,,,678.945427300001,679.8611285000006,679.8611285000006,679.8611285000006,down,2.965054300000702,None,None,,,,,,,,,,,,,,,,,P143,001,2025-04-09_11h56.18.851,posner_endo_new1,2024.2.4,60.10160777822367,2025-04-09 11h56.26.978287 +0100,
cube_l.png,0.1,-0.31,valid,50,50,0,down,1.8962862999997014,None,space,0.41873950000081095,None,,,,,0,50,50,50,,,,,679.8611285000006,,,,,,,,,,,,,679.8459358,679.8611285000006,679.8611285000006,679.8611285000006,681.7610241000002,,,,681.7774492000008,681.7884946000013,681.7884946000013,681.8260582000003,681.8265684000016,681.8424682000004,681.8424682000004,681.8424682000004,681.9257252000007,682.2770858000003,,,,,,,,down,1.8962862999997014,None,space,0.41873950000081095,None,,,,,,,,,,,,,,,P143,001,2025-04-09_11h56.18.851,posner_endo_new1,2024.2.4,60.10160777822367,2025-04-09 11h56.26.978287 +0100,
cube_l.png,0.1,-0.31,valid,51,51,0,down,3.4816445000014937,None,space,0.3656504999999015,None,,,,,0,51,51,51,,,,,682.2919863000006,,,,,,,,,,,,,682.2775254000007,682.2919863000006,682.2919863000006,682.2919863000006,685.7902144,,,,685.8064756000003,685.8169482000012,685.8169482000012,685.8553517,685.8556348000002,685.8719402000006,685.8719402000006,685.8719402000006,685.9551592000007,686.2392671000016,,,,,,,,down,3.4816445000014937,None,space,0.3656504999999015,None,,,,,,,,,,,,,,,P143,001,2025-04-09_11h56.18.851,posner_endo_new1,2024.2.4,60.10160777822367,2025-04-09 11h56.26.978287 +0100,
cube_r.png,0.1,-0.31,invalid,52,52,0,down,2.9586149000006117,None,space,0.4699265999988711,None,,,,,0,52,52,52,,,,,686.2548061000016,,,,,,,,,,,,,686.2394988000015,686.2548061000016,686.2548061000016,686.2548061000016,689.2193359000012,,,,689.2277590000012,689.2380830000002,689.2380830000002,689.2851767000011,689.2854626000008,689.3015212999999,689.3015212999999,689.3015212999999,689.3850194000006,689.7852776,,,,,,,,down,2.9586149000006117,None,space,0.4699265999988711,None,,,,,,,,,,,,,,,P143,001,2025-04-09_11h56.18.851,posner_endo_new1,2024.2.4,60.10160777822367,2025-04-09 11h56.26.978287 +0100,
cube_l.png,0.1,-0.31,valid,53,53,0,down,1.9963692000001174,None,space,0.5283694999998261,None,,,,,0,53,53,53,,,,,689.8011860000006,,,,,,,,,,,,,689.7855093000016,689.8011860000006,689.8011860000006,689.8011860000006,691.8002909000006,,,,691.8087058000001,691.8188121000003,691.8188121000003,691.8658869999999,691.8661763,691.8823096000015,691.8823096000015,691.8823096000015,691.9657676000006,692.4161018000013,,,,,,,,down,1.9963692000001174,None,space,0.5283694999998261,None,,,,,,,,,,,,,,,P143,001,2025-04-09_11h56.18.851,posner_endo_new1,2024.2.4,60.10160777822367,2025-04-09 11h56.26.978287 +0100,
cube_r.png,0.1,10,catch,54,54,0,down,2.8614876000010554,None,None,,,,,,,0,54,54,54,,,,,692.4317825000016,,,,,,,,,,,,,692.4163404999999,692.4317825000016,692.4317825000016,692.4317825000016,695.2967584000016,,,,695.3077690000009,695.3180819000008,695.3180819000008,695.3622954000002,695.3626353,695.3788437000003,695.3788437000003,695.3788437000003,695.4620934000013,698.3764897000001,,,,697.4767007999999,698.3924595000008,698.3924595000008,698.3924595000008,down,2.8614876000010554,None,None,,,,,,,,,,,,,,,,,P143,001,2025-04-09_11h56.18.851,posner_endo_new1,2024.2.4,60.10160777822367,2025-04-09 11h56.26.978287 +0100,
cube_l.png,0.1,0.31,invalid,55,55,0,down,3.205017100000987,None,space,0.45904580000024,None,,,,,0,55,55,55,,,,,698.3924595000008,,,,,,,,,,,,,698.3767630000002,698.3924595000008,698.3924595000008,698.3924595000008,701.6069274000001,,,,701.6180459000007,701.6284455000005,701.6284455000005,701.6726802000012,701.6730203000006,701.6890927000004,701.6890927000004,701.6890927000004,701.7723693000007,702.1565357,,,,,,,,down,3.205017100000987,None,space,0.45904580000024,None,,,,,,,,,,,,,,,P143,001,2025-04-09_11h56.18.851,posner_endo_new1,2024.2.4,60.10160777822367,2025-04-09 11h56.26.978287 +0100,
cube_l.png,0.1,-0.31,valid,56,56,0,down,1.9935127000007924,None,space,0.42883590000019467,None,,,,,0,56,56,56,,,,,702.1719560000001,,,,,,,,,,,,,702.1568388000014,702.1719560000001,702.1719560000001,702.1719560000001,704.1710997000009,,,,704.1812051000015,704.1908854000012,704.1908854000012,704.2366191000001,704.2368564000008,704.2531544000012,704.2531544000012,704.2531544000012,704.3364245000012,704.6870399,,,,,,,,down,1.9935127000007924,None,space,0.42883590000019467,None,,,,,,,,,,,,,,,P143,001,2025-04-09_11h56.18.851,posner_endo_new1,2024.2.4,60.10160777822367,2025-04-09 11h56.26.978287 +0100,
cube_r.png,0.1,0.31,valid,57,57,0,down,2.0549811000000773,None,space,0.3354304999993474,None,,,,,0,57,57,57,,,,,704.7026890000016,,,,,,,,,,,,,704.6872266000009,704.7026890000016,704.7026890000016,704.7026890000016,706.7680357000008,,,,706.7746791000009,706.7863854000007,706.7863854000007,706.8339328000002,706.8341492,706.8504969000005,706.8504969000005,706.8504969000005,706.9171339000004,707.2007841000013,,,,,,,,down,2.0549811000000773,None,space,0.3354304999993474,None,,,,,,,,,,,,,,,P143,001,2025-04-09_11h56.18.851,posner_endo_new1,2024.2.4,60.10160777822367,2025-04-09 11h56.26.978287 +0100,
cube_r.png,0.1,-0.31,invalid,58,58,0,down,2.5335083000009035,None,space,0.41572679999990214,None,,,,,0,58,58,58,,,,,707.2166987,,,,,,,,,,,,,707.2009522000008,707.2166987,707.2166987,707.2166987,709.7666456000006,,,,709.7883306000003,709.7981159999999,709.7981159999999,709.8304685000003,709.8308159000007,709.8470702000013,709.8470702000013,709.8470702000013,709.9305918000009,710.2651476999999,,,,,,,,down,2.5335083000009035,None,space,0.41572679999990214,None,,,,,,,,,,,,,,,P143,001,2025-04-09_11h56.18.851,posner_endo_new1,2024.2.4,60.10160777822367,2025-04-09 11h56.26.978287 +0100,
cube_l.png,0.1,0.31,invalid,59,59,0,down,1.941797100000258,None,space,0.431581400000141,None,,,,,0,59,59,59,,,,,710.2802940000001,,,,,,,,,,,,,710.2654281000014,710.2802940000001,710.2802940000001,710.2802940000001,712.2309770000011,,,,712.2511917000011,712.2618621000001,712.2618621000001,712.2949224000004,712.2953672000003,712.3111953000007,712.3111953000007,712.3111953000007,712.3944419,712.7455960000007,,,,,,,,down,1.941797100000258,None,space,0.431581400000141,None,,,,,,,,,,,,,,,P143,001,2025-04-09_11h56.18.851,posner_endo_new1,2024.2.4,60.10160777822367,2025-04-09 11h56.26.978287 +0100,
,,,,,,,,,,,,,,,,,,,,,,,,,,,,,,,,,,,,,,,,,,,,,,,,,,,,,,,,,,,,,,,,,,,,,712.7458463000003,712.7607017999999,712.7607017999999,772.7665703000002,777.5125916000015,space,64.74084290000064,None,,,,,,,P143,001,2025-04-09_11h56.18.851,posner_endo_new1,2024.2.4,60.10160777822367,2025-04-09 11h56.26.978287 +0100,
,,,,,,,,,,,,,,,,,,,,,,,,,,,,,,,,,,777.5126635000015,777.5282752000003,780.5955081000011,780.5090700000001,,,,,,,,,,,,,,,,,,,,,,,,,,,,,,,,,,,,,,,,,,,,,,P143,001,2025-04-09_11h56.18.851,posner_endo_new1,2024.2.4,60.10160777822367,2025-04-09 11h56.26.978287 +0100,
cube_l.png,0.1,10,catch,0,0,0,up,3.7385709999998653,None,None,,,,,,,,,,,0,0,0,0,780.5955081000011,,,,,,,,,,,,,780.5873582000004,780.5955081000011,780.5955081000011,780.5955081000011,784.3390627000008,,,,784.3476017000012,784.3576921000003,784.3576921000003,784.4048138000016,784.4050975999999,784.4211960000011,784.4211960000011,784.4211960000011,784.5044155000014,787.4188148000012,,,,786.5191724000015,787.4347921000008,787.4347921000008,787.4347921000008,,,,,,,,,,,,,,,up,3.7385709999998653,None,None,,,P143,001,2025-04-09_11h56.18.851,posner_endo_new1,2024.2.4,60.10160777822367,2025-04-09 11h56.26.978287 +0100,
cube_l.png,0.1,10,catch,1,1,0,up,0.17091460000119696,None,None,,,,,,,,,,,0,1,1,1,787.4347921000008,,,,,,,,,,,,,787.4190329000012,787.4347921000008,787.4347921000008,787.4347921000008,787.6188773000013,,,,787.6272825000015,787.6375908000009,787.6375908000009,787.6847717,787.6850491000005,787.7011824000001,787.7011824000001,787.7011824000001,787.7845156000003,790.6987038000007,,,,789.7991316000007,790.7148001000005,790.7148001000005,790.7148001000005,,,,,,,,,,,,,,,up,0.17091460000119696,None,None,,,P143,001,2025-04-09_11h56.18.851,posner_endo_new1,2024.2.4,60.10160777822367,2025-04-09 11h56.26.978287 +0100,
cube_l.png,0.1,0.31,invalid,2,2,0,up,0.554702699999325,None,space,0.4003674999985378,None,,,,,,,,,0,2,2,2,790.7148001000005,,,,,,,,,,,,,790.6989227000013,790.7148001000005,790.7148001000005,790.7148001000005,791.281712,,,,791.2901388000009,791.3004547,791.3004547,791.3475498000007,791.3478295000004,791.3641692000001,791.3641692000001,791.3641692000001,791.4307324000001,791.7813128000016,,,,,,,,,,,,,,,,,,,,,,up,0.554702699999325,None,space,0.4003674999985378,None,P143,001,2025-04-09_11h56.18.851,posner_endo_new1,2024.2.4,60.10160777822367,2025-04-09 11h56.26.978287 +0100,
cube_l.png,0.1,0.31,invalid,3,3,0,up,5.328662899999472,None,space,0.41640820000066014,None,,,,,,,,,0,3,3,3,791.7971422999999,,,,,,,,,,,,,791.7815519000014,791.7971422999999,791.7971422999999,791.7971422999999,797.142634400001,,,,797.1510972000015,797.1612555000011,797.1612555000011,797.2082647000007,797.2085444000004,797.2246890000006,797.2246890000006,797.2246890000006,797.3080665000016,797.6421766000003,,,,,,,,,,,,,,,,,,,,,,up,5.328662899999472,None,space,0.41640820000066014,None,P143,001,2025-04-09_11h56.18.851,posner_endo_new1,2024.2.4,60.10160777822367,2025-04-09 11h56.26.978287 +0100,
cube_l.png,0.1,-0.31,valid,4,4,0,up,2.5255720000004658,None,space,0.392027899999448,None,,,,,,,,,0,4,4,4,797.6577700000016,,,,,,,,,,,,,797.6424115000009,797.6577700000016,797.6577700000016,797.6577700000016,800.1897055000009,,,,800.198069,800.2081145000011,800.2081145000011,800.2552114000009,800.2554952999999,800.2716467000009,800.2716467000009,800.2716467000009,800.3550080000005,800.6722941000007,,,,,,,,,,,,,,,,,,,,,,up,2.5255720000004658,None,space,0.392027899999448,None,P143,001,2025-04-09_11h56.18.851,posner_endo_new1,2024.2.4,60.10160777822367,2025-04-09 11h56.26.978287 +0100,
cube_r.png,0.1,-0.31,invalid,5,5,0,up,2.357645299998694,None,space,0.4882329000010941,None,,,,,,,,,0,5,5,5,800.6879432000005,,,,,,,,,,,,,800.6725296000004,800.6879432000005,800.6879432000005,800.6879432000005,803.0531809000004,,,,803.061627000001,803.071893100001,803.071893100001,803.1189663000005,803.1192447000012,803.1354755000011,803.1354755000011,803.1354755000011,803.2188292999999,803.6359673000006,,,,,,,,,,,,,,,,,,,,,,up,2.357645299998694,None,space,0.4882329000010941,None,P143,001,2025-04-09_11h56.18.851,posner_endo_new1,2024.2.4,60.10160777822367,2025-04-09 11h56.26.978287 +0100,
cube_r.png,0.1,0.31,valid,6,6,0,up,2.4181618000002345,None,space,0.3610043999997288,None,,,,,,,,,0,6,6,6,803.6515729000002,,,,,,,,,,,,,803.6362024000009,803.6515729000002,803.6515729000002,803.6515729000002,806.0834618000008,,,,806.0919226000005,806.1020873000016,806.1020873000016,806.1492303000014,806.1495079000015,806.1656576000005,806.1656576000005,806.1656576000005,806.2487819000016,806.5330051000001,,,,,,,,,,,,,,,,,,,,,,up,2.4181618000002345,None,space,0.3610043999997288,None,P143,001,2025-04-09_11h56.18.851,posner_endo_new1,2024.2.4,60.10160777822367,2025-04-09 11h56.26.978287 +0100,
cube_r.png,0.1,-0.31,invalid,7,7,0,up,2.897494700000607,None,space,0.35826259999885224,None,,,,,,,,,0,7,7,7,806.5485922000007,,,,,,,,,,,,,806.5332447000001,806.5485922000007,806.5485922000007,806.5485922000007,809.4470281000013,,,,809.4554375000007,809.4654464000014,809.4654464000014,809.5123895000015,809.5126682000009,809.5289699000004,809.5289699000004,809.5289699000004,809.6121653999999,809.8961818000007,,,,,,,,,,,,,,,,,,,,,,up,2.897494700000607,None,space,0.35826259999885224,None,P143,001,2025-04-09_11h56.18.851,posner_endo_new1,2024.2.4,60.10160777822367,2025-04-09 11h56.26.978287 +0100,
cube_l.png,0.1,-0.31,valid,8,8,0,up,2.5658473999992566,None,space,0.3613315999991755,None,,,,,,,,,0,8,8,8,809.9118897000008,,,,,,,,,,,,,809.8964176000009,809.9118897000008,809.9118897000008,809.9118897000008,812.4934576000014,,,,812.5017882000011,812.5122403000005,812.5122403000005,812.5593058000013,812.5595841000013,812.5758036000007,812.5758036000007,812.5758036000007,812.6591482000003,812.9434180000007,,,,,,,,,,,,,,,,,,,,,,up,2.5658473999992566,None,space,0.3613315999991755,None,P143,001,2025-04-09_11h56.18.851,posner_endo_new1,2024.2.4,60.10160777822367,2025-04-09 11h56.26.978287 +0100,
cube_r.png,0.1,-0.31,invalid,9,9,0,up,3.1828681000006327,None,space,0.3531516000002739,None,,,,,,,,,0,9,9,9,812.9588057000001,,,,,,,,,,,,,812.9436543000011,812.9588057000001,812.9588057000001,812.9588057000001,816.1565020000016,,,,816.1648511000003,816.1751626000005,816.1751626000005,816.2222970000003,816.2225762000016,816.2386284000004,816.2386284000004,816.2386284000004,816.3219371000014,816.6060444000013,,,,,,,,,,,,,,,,,,,,,,up,3.1828681000006327,None,space,0.3531516000002739,None,P143,001,2025-04-09_11h56.18.851,posner_endo_new1,2024.2.4,60.10160777822367,2025-04-09 11h56.26.978287 +0100,
cube_l.png,0.1,0.31,invalid,10,10,0,up,3.112221999999747,None,space,0.35651140000118176,None,,,,,,,,,0,10,10,10,816.621658600001,,,,,,,,,,,,,816.6062856000008,816.621658600001,816.621658600001,816.621658600001,819.7360578000007,,,,819.7444733000011,819.7547406000012,819.7547406000012,819.8018858000014,819.8021648000013,819.8184293000013,819.8184293000013,819.8184293000013,819.9016199000016,820.1857130000008,,,,,,,,,,,,,,,,,,,,,,up,3.112221999999747,None,space,0.35651140000118176,None,P143,001,2025-04-09_11h56.18.851,posner_endo_new1,2024.2.4,60.10160777822367,2025-04-09 11h56.26.978287 +0100,
cube_r.png,0.1,-0.31,invalid,11,11,0,up,2.6042601999997714,None,space,0.36105209999914223,None,,,,,,,,,0,11,11,11,820.2013438000013,,,,,,,,,,,,,820.1859494,820.2013438000013,820.2013438000013,820.2013438000013,822.8163638000005,,,,822.8247551000004,822.8350992000014,822.8350992000014,822.8821315000005,822.8824101999999,822.8984881000015,822.8984881000015,822.8984881000015,822.9818513999999,823.2659401000001,,,,,,,,,,,,,,,,,,,,,,up,2.6042601999997714,None,space,0.36105209999914223,None,P143,001,2025-04-09_11h56.18.851,posner_endo_new1,2024.2.4,60.10160777822367,2025-04-09 11h56.26.978287 +0100,
cube_r.png,0.1,0.31,valid,12,12,0,up,2.7970084000007773,None,space,0.35040480000134266,None,,,,,,,,,0,12,12,12,823.2814704000011,,,,,,,,,,,,,823.2661818000015,823.2814704000011,823.2814704000011,823.2814704000011,826.0797676000002,,,,826.0881351000007,826.0983559000015,826.0983559000015,826.145312300001,826.1455939000007,826.1620614000003,826.1620614000003,826.1620614000003,826.2452110000013,826.529238000001,,,,,,,,,,,,,,,,,,,,,,up,2.7970084000007773,None,space,0.35040480000134266,None,P143,001,2025-04-09_11h56.18.851,posner_endo_new1,2024.2.4,60.10160777822367,2025-04-09 11h56.26.978287 +0100,
cube_l.png,0.1,10,catch,13,13,0,up,2.5009274999993067,None,None,,,,,,,,,,,0,13,13,13,826.544807100001,,,,,,,,,,,,,826.5294837000001,826.544807100001,826.544807100001,826.544807100001,829.0599638000003,,,,829.068205900001,829.0786874000005,829.0786874000005,829.1257049000014,829.1259239999999,829.1422711000014,829.1422711000014,829.1422711000014,829.2254959000002,832.1396486000012,,,,831.2400327000014,832.1558475000002,832.1558475000002,832.1558475000002,,,,,,,,,,,,,,,up,2.5009274999993067,None,None,,,P143,001,2025-04-09_11h56.18.851,posner_endo_new1,2024.2.4,60.10160777822367,2025-04-09 11h56.26.978287 +0100,
cube_r.png,0.1,-0.31,invalid,14,14,0,up,0.5064652000000933,None,space,0.3725672999989911,None,,,,,,,,,0,14,14,14,832.1558475000002,,,,,,,,,,,,,832.1398157000003,832.1558475000002,832.1558475000002,832.1558475000002,832.6728715000008,,,,832.6786150000007,832.6903015000007,832.6903015000007,832.7386320000005,832.7391324,832.7550179000009,832.7550179000009,832.7550179000009,832.8382965000001,833.1393540000008,,,,,,,,,,,,,,,,,,,,,,up,0.5064652000000933,None,space,0.3725672999989911,None,P143,001,2025-04-09_11h56.18.851,posner_endo_new1,2024.2.4,60.10160777822367,2025-04-09 11h56.26.978287 +0100,
cube_l.png,0.1,-0.31,valid,15,15,0,up,3.058907200000249,None,space,0.32121680000091146,None,,,,,,,,,0,15,15,15,833.1548476000007,,,,,,,,,,,,,833.1396479000014,833.1548476000007,833.1548476000007,833.1548476000007,836.2195554999998,,,,836.2305968000001,836.2408673000009,836.2408673000009,836.2850785999999,836.2854145000001,836.3015883000007,836.3015883000007,836.3015883000007,836.3848672000004,836.6357860000007,,,,,,,,,,,,,,,,,,,,,,up,3.058907200000249,None,space,0.32121680000091146,None,P143,001,2025-04-09_11h56.18.851,posner_endo_new1,2024.2.4,60.10160777822367,2025-04-09 11h56.26.978287 +0100,
cube_r.png,0.1,10,catch,16,16,0,up,5.811261799999556,None,None,,,,,,,,,,,0,16,16,16,836.6512432,,,,,,,,,,,,,836.6360842000013,836.6512432,836.6512432,836.6512432,842.4797235000005,,,,842.4908669000015,842.5008471000001,842.5008471000001,842.545342200001,842.5456862999999,842.5618978000002,842.5618978000002,842.5618978000002,842.6452024999999,845.5595056000002,,,,844.6597599000015,845.5755406000007,845.5755406000007,845.5755406000007,,,,,,,,,,,,,,,up,5.811261799999556,None,None,,,P143,001,2025-04-09_11h56.18.851,posner_endo_new1,2024.2.4,60.10160777822367,2025-04-09 11h56.26.978287 +0100,
cube_r.png,0.1,10,catch,17,17,0,up,1.110020899999654,None,None,,,,,,,,,,,0,17,17,17,845.5755406000007,,,,,,,,,,,,,845.5597803,845.5755406000007,845.5755406000007,845.5755406000007,846.6921058000007,,,,846.703184,846.7136613000002,846.7136613000002,846.7578027,846.7581401000007,846.7743521000011,846.7743521000011,846.7743521000011,846.8576112999999,849.7719098000016,,,,848.8721168000011,849.7878853000002,849.7878853000002,849.7878853000002,,,,,,,,,,,,,,,up,1.110020899999654,None,None,,,P143,001,2025-04-09_11h56.18.851,posner_endo_new1,2024.2.4,60.10160777822367,2025-04-09 11h56.26.978287 +0100,
cube_l.png,0.1,0.31,invalid,18,18,0,up,3.19470469999942,None,space,0.28453149999950256,None,,,,,,,,,0,18,18,18,849.7878853000002,,,,,,,,,,,,,849.7721835000011,849.7878853000002,849.7878853000002,849.7878853000002,852.9856632999999,,,,852.9967763000004,853.0071481000014,853.0071481000014,853.0513440000013,853.0516873000015,853.0677636,853.0677636,853.0677636,853.1511031000009,853.3687972000007,,,,,,,,,,,,,,,,,,,,,,up,3.19470469999942,None,space,0.28453149999950256,None,P143,001,2025-04-09_11h56.18.851,posner_endo_new1,2024.2.4,60.10160777822367,2025-04-09 11h56.26.978287 +0100,
cube_l.png,0.1,10,catch,19,19,0,up,3.1023134000006394,None,space,0.345471999999063,None,,,,,,,,,0,19,19,19,853.3842294000005,,,,,,,,,,,,,853.3690873000014,853.3842294000005,853.3842294000005,853.3842294000005,856.4988233000004,,,,856.5098159000008,856.520055500001,856.520055500001,856.5644685000007,856.5648055000001,856.580845800001,856.580845800001,856.580845800001,856.6641008000006,856.9318109000014,,,,,,,,,,,,,,,,,,,,,,up,3.1023134000006394,None,space,0.345471999999063,None,P143,001,2025-04-09_11h56.18.851,posner_endo_new1,2024.2.4,60.10160777822367,2025-04-09 11h56.26.978287 +0100,
cube_l.png,0.1,0.31,invalid,20,20,0,up,2.9072401999983413,None,space,0.42381980000027397,None,,,,,,,,,0,20,20,20,856.9471806000001,,,,,,,,,,,,,856.9321049999999,856.9471806000001,856.9471806000001,856.9471806000001,859.8621412000011,,,,859.8731705000009,859.8834876000001,859.8834876000001,859.9275314000006,859.9278704000008,859.9444422000015,859.9444422000015,859.9444422000015,860.0272507000009,860.3782363000009,,,,,,,,,,,,,,,,,,,,,,up,2.9072401999983413,None,space,0.42381980000027397,None,P143,001,2025-04-09_11h56.18.851,posner_endo_new1,2024.2.4,60.10160777822367,2025-04-09 11h56.26.978287 +0100,
cube_l.png,0.1,-0.31,valid,21,21,0,up,3.076034700001401,None,space,0.36546629999975266,None,,,,,,,,,0,21,21,21,860.3936020000001,,,,,,,,,,,,,860.3785296000005,860.3936020000001,860.3936020000001,860.3936020000001,863.4751743000015,,,,863.4862409000016,863.4967305999999,863.4967305999999,863.5404553000008,863.5407989000014,863.5571118000007,863.5571118000007,863.5571118000007,863.6403409000013,863.9247062000013,,,,,,,,,,,,,,,,,,,,,,up,3.076034700001401,None,space,0.36546629999975266,None,P143,001,2025-04-09_11h56.18.851,posner_endo_new1,2024.2.4,60.10160777822367,2025-04-09 11h56.26.978287 +0100,
cube_r.png,0.1,0.31,valid,22,22,0,up,2.7461772999995446,None,space,0.43793880000157515,None,,,,,,,,,0,22,22,22,863.9403190000012,,,,,,,,,,,,,863.9249983000009,863.9403190000012,863.9403190000012,863.9403190000012,866.688532600001,,,,866.6995792000016,866.7098052000001,866.7098052000001,866.7538745000002,866.7542201000015,866.7704172000012,866.7704172000012,866.7704172000012,866.8537213,867.2213136999999,,,,,,,,,,,,,,,,,,,,,,up,2.7461772999995446,None,space,0.43793880000157515,None,P143,001,2025-04-09_11h56.18.851,posner_endo_new1,2024.2.4,60.10160777822367,2025-04-09 11h56.26.978287 +0100,
cube_r.png,0.1,-0.31,invalid,23,23,0,up,3.201401700000133,None,space,0.438418300000194,None,,,,,,,,,0,23,23,23,867.2367052000009,,,,,,,,,,,,,867.2216196000008,867.2367052000009,867.2367052000009,867.2367052000009,870.4510804000001,,,,870.4622377000014,870.4724206999999,870.4724206999999,870.5168322000009,870.5171742000002,870.5333246000009,870.5333246000009,870.5333246000009,870.616581100001,870.9839897000002,,,,,,,,,,,,,,,,,,,,,,up,3.201401700000133,None,space,0.438418300000194,None,P143,001,2025-04-09_11h56.18.851,posner_endo_new1,2024.2.4,60.10160777822367,2025-04-09 11h56.26.978287 +0100,
cube_r.png,0.1,0.31,valid,24,24,0,up,3.150786500000322,None,space,0.4578710999994655,None,,,,,,,,,0,24,24,24,870.999584000001,,,,,,,,,,,,,870.984283400001,870.999584000001,870.999584000001,870.999584000001,874.1653915000006,,,,874.1876941999999,874.198370600001,874.198370600001,874.2297126000012,874.230058000001,874.2460795000006,874.2460795000006,874.2460795000006,874.3294183000016,874.7135108000002,,,,,,,,,,,,,,,,,,,,,,up,3.150786500000322,None,space,0.4578710999994655,None,P143,001,2025-04-09_11h56.18.851,posner_endo_new1,2024.2.4,60.10160777822367,2025-04-09 11h56.26.978287 +0100,
cube_r.png,0.1,-0.31,invalid,25,25,0,up,2.99839830000019,None,space,0.36658510000052047,None,,,,,,,,,0,25,25,25,874.7290669000013,,,,,,,,,,,,,874.7138140000006,874.7290669000013,874.7290669000013,874.7290669000013,877.7432484000001,,,,877.7496369,877.7615808999999,877.7615808999999,877.809357600001,877.8095841000013,877.826024,877.826024,877.826024,877.8923575000008,878.2095055000009,,,,,,,,,,,,,,,,,,,,,,up,2.99839830000019,None,space,0.36658510000052047,None,P143,001,2025-04-09_11h56.18.851,posner_endo_new1,2024.2.4,60.10160777822367,2025-04-09 11h56.26.978287 +0100,
cube_l.png,0.1,-0.31,valid,26,26,0,up,3.004313600000387,None,space,0.377633699999933,None,,,,,,,,,0,26,26,26,878.2255058999999,,,,,,,,,,,,,878.2096815000004,878.2255058999999,878.2255058999999,878.2255058999999,881.2401555000015,,,,881.251289400001,881.2615482000001,881.2615482000001,881.3058851000005,881.3062093000008,881.3222844000011,881.3222844000011,881.3222844000011,881.4055681000009,881.7065266000009,,,,,,,,,,,,,,,,,,,,,,up,3.004313600000387,None,space,0.377633699999933,None,P143,001,2025-04-09_11h56.18.851,posner_endo_new1,2024.2.4,60.10160777822367,2025-04-09 11h56.26.978287 +0100,
cube_r.png,0.1,0.31,valid,27,27,0,up,2.5165281999998115,None,space,0.3675219999986439,None,,,,,,,,,0,27,27,27,881.721876900001,,,,,,,,,,,,,881.7068112000015,881.721876900001,881.721876900001,881.721876900001,884.2533400000011,,,,884.2601610000002,884.2719662,884.2719662,884.3193673000005,884.3195874000012,884.3359241000016,884.3359241000016,884.3359241000016,884.4026128000005,884.7204420000016,,,,,,,,,,,,,,,,,,,,,,up,2.5165281999998115,None,space,0.3675219999986439,None,P143,001,2025-04-09_11h56.18.851,posner_endo_new1,2024.2.4,60.10160777822367,2025-04-09 11h56.26.978287 +0100,
cube_r.png,0.1,10,catch,28,28,0,up,2.8702654000007897,None,None,,,,,,,,,,,0,28,28,28,884.7352956000013,,,,,,,,,,,,,884.7208813000016,884.7352956000013,884.7352956000013,884.7352956000013,887.6169847000001,,,,887.6284645000014,887.6387848000013,887.6387848000013,887.6826158000003,887.6829558000009,887.6991173000006,887.6991173000006,887.6991173000006,887.7824576000003,890.6967800000002,,,,889.7970041000008,890.7126665000014,890.7126665000014,890.7126665000014,,,,,,,,,,,,,,,up,2.8702654000007897,None,None,,,P143,001,2025-04-09_11h56.18.851,posner_endo_new1,2024.2.4,60.10160777822367,2025-04-09 11h56.26.978287 +0100,
cube_r.png,0.1,0.31,valid,29,29,0,up,0.5658840000014607,None,space,0.4251772000006895,None,,,,,,,,,0,29,29,29,890.7126665000014,,,,,,,,,,,,,890.6970513000015,890.7126665000014,890.7126665000014,890.7126665000014,891.2800628000005,,,,891.2903314000014,891.3000844000017,891.3000844000017,891.345523,891.3457553000007,891.3621700000003,891.3621700000003,891.3621700000003,891.4456750000008,891.795764800001,,,,,,,,,,,,,,,,,,,,,,up,0.5658840000014607,None,space,0.4251772000006895,None,P143,001,2025-04-09_11h56.18.851,posner_endo_new1,2024.2.4,60.10160777822367,2025-04-09 11h56.26.978287 +0100,
cube_r.png,0.1,0.31,valid,30,30,0,up,3.0102010000009614,None,space,0.3876371999995172,None,,,,,,,,,0,30,30,30,891.8116862000006,,,,,,,,,,,,,891.7959519000015,891.8116862000006,891.8116862000006,891.8116862000006,894.8259233000008,,,,894.8328808000006,894.8447675000007,894.8447675000007,894.8918170000015,894.892050800001,894.9084815000006,894.9084815000006,894.9084815000006,894.9749759000006,895.3089670000008,,,,,,,,,,,,,,,,,,,,,,up,3.0102010000009614,None,space,0.3876371999995172,None,P143,001,2025-04-09_11h56.18.851,posner_endo_new1,2024.2.4,60.10160777822367,2025-04-09 11h56.26.978287 +0100,
cube_l.png,0.1,-0.31,valid,31,31,0,up,2.9219080999992,None,space,0.35650820000046224,None,,,,,,,,,0,31,31,31,895.3246240000008,,,,,,,,,,,,,895.3091553000013,895.3246240000008,895.3246240000008,895.3246240000008,898.2556181,,,,898.2624950000009,898.2743897,898.2743897,898.3216123000002,898.3218340000003,898.3383786000013,898.3383786000013,898.3383786000013,898.4046773000009,898.705048400001,,,,,,,,,,,,,,,,,,,,,,up,2.9219080999992,None,space,0.35650820000046224,None,P143,001,2025-04-09_11h56.18.851,posner_endo_new1,2024.2.4,60.10160777822367,2025-04-09 11h56.26.978287 +0100,
cube_r.png,0.1,0.31,valid,32,32,0,up,2.9885541000003286,None,space,0.3519522999995388,None,,,,,,,,,0,32,32,32,898.7212497,,,,,,,,,,,,,898.7052428000006,898.7212497,898.7212497,898.7212497,901.7188414000011,,,,901.7247755000008,901.7359289000015,901.7359289000015,901.7847653000008,901.7852606000015,901.8011834000008,901.8011834000008,901.8011834000008,901.8844371000014,902.1692280000007,,,,,,,,,,,,,,,,,,,,,,up,2.9885541000003286,None,space,0.3519522999995388,None,P143,001,2025-04-09_11h56.18.851,posner_endo_new1,2024.2.4,60.10160777822367,2025-04-09 11h56.26.978287 +0100,
cube_r.png,0.1,-0.31,invalid,33,33,0,up,2.9343098000008467,None,space,0.36662169999908656,None,,,,,,,,,0,33,33,33,902.1841405000014,,,,,,,,,,,,,902.1696672000016,902.1841405000014,902.1841405000014,902.1841405000014,905.1326493000015,,,,905.1441685000009,905.1545224000001,905.1545224000001,905.1980911999999,905.1984326000002,905.2145858000003,905.2145858000003,905.2145858000003,905.2978288000013,905.5823972000017,,,,,,,,,,,,,,,,,,,,,,up,2.9343098000008467,None,space,0.36662169999908656,None,P143,001,2025-04-09_11h56.18.851,posner_endo_new1,2024.2.4,60.10160777822367,2025-04-09 11h56.26.978287 +0100,
cube_r.png,0.1,10,catch,34,34,0,up,3.0564067999985127,None,None,,,,,,,,,,,0,34,34,34,905.5974868000012,,,,,,,,,,,,,905.5826870000001,905.5974868000012,905.5974868000012,905.5974868000012,908.6623842000008,,,,908.6736240000009,908.6839498000008,908.6839498000008,908.7278873000014,908.728231000001,908.7443587000016,908.7443587000016,908.7443587000016,908.8275915000013,911.7420056999999,,,,910.8422676000009,911.7579096000009,911.7579096000009,911.7579096000009,,,,,,,,,,,,,,,up,3.0564067999985127,None,None,,,P143,001,2025-04-09_11h56.18.851,posner_endo_new1,2024.2.4,60.10160777822367,2025-04-09 11h56.26.978287 +0100,
cube_r.png,0.1,0.31,valid,35,35,0,up,0.42386460000125226,None,space,0.39249070000005304,None,,,,,,,,,0,35,35,35,911.7579096000009,,,,,,,,,,,,,911.7422801000012,911.7579096000009,911.7579096000009,911.7579096000009,912.1918349000007,,,,912.2012383000001,912.2109592000015,912.2109592000015,912.2574832999999,912.2577161000008,912.2741064000002,912.2741064000002,912.2741064000002,912.3572089000008,912.6744845000012,,,,,,,,,,,,,,,,,,,,,,up,0.42386460000125226,None,space,0.39249070000005304,None,P143,001,2025-04-09_11h56.18.851,posner_endo_new1,2024.2.4,60.10160777822367,2025-04-09 11h56.26.978287 +0100,
cube_r.png,0.1,-0.31,invalid,36,36,0,up,3.116088500000842,None,space,0.4360335999990639,None,,,,,,,,,0,36,36,36,912.6901664000015,,,,,,,,,,,,,912.6746750000002,912.6901664000015,912.6901664000015,912.6901664000015,915.821198900001,,,,915.8279899000008,915.8398260000013,915.8398260000013,915.8871488000004,915.8873811000012,915.9035378000008,915.9035378000008,915.9035378000008,915.9869359000004,916.3536560000011,,,,,,,,,,,,,,,,,,,,,,up,3.116088500000842,None,space,0.4360335999990639,None,P143,001,2025-04-09_11h56.18.851,posner_endo_new1,2024.2.4,60.10160777822367,2025-04-09 11h56.26.978287 +0100,
cube_l.png,0.1,0.31,invalid,37,37,0,up,3.029397100001006,None,space,0.44691100000090955,None,,,,,,,,,0,37,37,37,916.369683500001,,,,,,,,,,,,,916.3538439000004,916.369683500001,916.369683500001,916.369683500001,919.4011694000001,,,,919.4079354000005,919.4197324000015,919.4197324000015,919.4668737000011,919.4670961000011,919.4833524000005,919.4833524000005,919.4833524000005,919.5666117000001,919.9337665000003,,,,,,,,,,,,,,,,,,,,,,up,3.029397100001006,None,space,0.44691100000090955,None,P143,001,2025-04-09_11h56.18.851,posner_endo_new1,2024.2.4,60.10160777822367,2025-04-09 11h56.26.978287 +0100,
cube_l.png,0.1,0.31,invalid,38,38,0,up,9.832910999999513,None,space,0.4005968999990728,None,,,,,,,,,0,38,38,38,919.949473300001,,,,,,,,,,,,,919.9339415000013,919.949473300001,919.949473300001,919.949473300001,929.7907941000012,,,,929.802080200001,929.8123708000003,929.8123708000003,929.8562026,929.8565462000006,929.8727026000015,929.8727026000015,929.8727026000015,929.9559187000013,930.2901626000003,,,,,,,,,,,,,,,,,,,,,,up,9.832910999999513,None,space,0.4005968999990728,None,P143,001,2025-04-09_11h56.18.851,posner_endo_new1,2024.2.4,60.10160777822367,2025-04-09 11h56.26.978287 +0100,
cube_r.png,0.1,0.31,valid,39,39,0,up,2.876639800000703,None,space,0.2947174000000814,None,,,,,,,,,0,39,39,39,930.3056668000008,,,,,,,,,,,,,930.2904615000007,930.3056668000008,930.3056668000008,930.3056668000008,933.1874711,,,,933.1988857000015,933.2092852000005,933.2092852000005,933.2526756000007,933.253015100001,933.2693261000004,933.2693261000004,933.2693261000004,933.3522965000011,933.5702107000016,,,,,,,,,,,,,,,,,,,,,,up,2.876639800000703,None,space,0.2947174000000814,None,P143,001,2025-04-09_11h56.18.851,posner_endo_new1,2024.2.4,60.10160777822367,2025-04-09 11h56.26.978287 +0100,
cube_l.png,0.1,0.31,invalid,40,40,0,up,3.197740800000247,None,space,0.3822412000008626,None,,,,,,,,,0,40,40,40,933.5855528000011,,,,,,,,,,,,,933.5705022000002,933.5855528000011,933.5855528000011,933.5855528000011,936.7998519000012,,,,936.8070791999999,936.8186457000011,936.8186457000011,936.8657135000012,936.865967400001,936.8820485000015,936.8820485000015,936.8820485000015,936.9488943000015,937.2660964000006,,,,,,,,,,,,,,,,,,,,,,up,3.197740800000247,None,space,0.3822412000008626,None,P143,001,2025-04-09_11h56.18.851,posner_endo_new1,2024.2.4,60.10160777822367,2025-04-09 11h56.26.978287 +0100,
cube_l.png,0.1,10,catch,41,41,0,up,3.100746699999945,None,None,,,,,,,,,,,0,41,41,41,937.2815837000016,,,,,,,,,,,,,937.2662994000002,937.2815837000016,937.2815837000016,937.2815837000016,940.3960545999998,,,,940.4033329000013,940.415076700001,940.415076700001,940.4620432000011,940.4622884,940.4785667000015,940.4785667000015,940.4785667000015,940.5618746,943.4760058000011,,,,942.5763392000008,943.4921586,943.4921586,943.4921586,,,,,,,,,,,,,,,up,3.100746699999945,None,None,,,P143,001,2025-04-09_11h56.18.851,posner_endo_new1,2024.2.4,60.10160777822367,2025-04-09 11h56.26.978287 +0100,
cube_l.png,0.1,-0.31,valid,42,42,0,up,0.5943043000006583,None,space,0.37313759999960894,None,,,,,,,,,0,42,42,42,943.4921586,,,,,,,,,,,,,943.4761923000005,943.4921586,943.4921586,943.4921586,944.0922156000015,,,,944.0995140000014,944.1112536,944.1112536,944.1584718000013,944.1586909000016,944.174838500001,944.174838500001,944.174838500001,944.2580679000002,944.558505500001,,,,,,,,,,,,,,,,,,,,,,up,0.5943043000006583,None,space,0.37313759999960894,None,P143,001,2025-04-09_11h56.18.851,posner_endo_new1,2024.2.4,60.10160777822367,2025-04-09 11h56.26.978287 +0100,
cube_l.png,0.1,10,catch,43,43,0,up,2.680393100001311,None,None,,,,,,,,,,,0,43,43,43,944.574346200001,,,,,,,,,,,,,944.5586797000014,944.574346200001,944.574346200001,944.574346200001,947.2557604000012,,,,947.2617201000012,947.2732888999999,947.2732888999999,947.3217452000008,947.3219674000011,947.3383760000015,947.3383760000015,947.3383760000015,947.4049414000001,950.3360310000007,,,,949.4192651000012,950.3516435000001,950.3516435000001,950.3516435000001,,,,,,,,,,,,,,,up,2.680393100001311,None,None,,,P143,001,2025-04-09_11h56.18.851,posner_endo_new1,2024.2.4,60.10160777822367,2025-04-09 11h56.26.978287 +0100,
cube_l.png,0.1,0.31,invalid,44,44,0,up,0.18286470000020927,None,space,0.38936419999845384,None,,,,,,,,,0,44,44,44,950.3516435000001,,,,,,,,,,,,,950.3364471000004,950.3516435000001,950.3516435000001,950.3516435000001,950.5367513000001,,,,950.5535813000006,950.5645658000012,950.5645658000012,950.6016365000014,950.6021256000004,950.6180492000003,950.6180492000003,950.6180492000003,950.7012533000016,951.0193765000004,,,,,,,,,,,,,,,,,,,,,,up,0.18286470000020927,None,space,0.38936419999845384,None,P143,001,2025-04-09_11h56.18.851,posner_endo_new1,2024.2.4,60.10160777822367,2025-04-09 11h56.26.978287 +0100,
cube_l.png,0.1,0.31,invalid,45,45,0,up,2.9404806999991706,None,space,0.47988859999895794,None,,,,,,,,,0,45,45,45,951.0342543000006,,,,,,,,,,,,,951.0198142000008,951.0342543000006,951.0342543000006,951.0342543000006,953.9829684000015,,,,953.9994643000009,954.0103409000003,954.0103409000003,954.0481820000005,954.048520100001,954.0646101000002,954.0646101000002,954.0646101000002,954.1479221000009,954.5486355000012,,,,,,,,,,,,,,,,,,,,,,up,2.9404806999991706,None,space,0.47988859999895794,None,P143,001,2025-04-09_11h56.18.851,posner_endo_new1,2024.2.4,60.10160777822367,2025-04-09 11h56.26.978287 +0100,
cube_r.png,0.1,0.31,valid,46,46,0,up,2.426627600001666,None,space,0.5340070000002015,None,,,,,,,,,0,46,46,46,954.5640953000002,,,,,,,,,,,,,954.5489379999999,954.5640953000002,954.5640953000002,954.5640953000002,956.9962384999999,,,,957.0074811000013,957.0177608000013,957.0177608000013,957.0617349000004,957.0620701000007,957.0783951000012,957.0783951000012,957.0783951000012,957.1615386000012,957.6289757000013,,,,,,,,,,,,,,,,,,,,,,up,2.426627600001666,None,space,0.5340070000002015,None,P143,001,2025-04-09_11h56.18.851,posner_endo_new1,2024.2.4,60.10160777822367,2025-04-09 11h56.26.978287 +0100,
cube_l.png,0.1,-0.31,valid,47,47,0,up,2.915182900000218,None,space,0.372505799999999,None,,,,,,,,,0,47,47,47,957.6443176000012,,,,,,,,,,,,,957.6292686000015,957.6443176000012,957.6443176000012,957.6443176000012,960.5759690000014,,,,960.5872290000007,960.5973386000005,960.5973386000005,960.6415738000014,960.6419225000009,960.6579282000002,960.6579282000002,960.6579282000002,960.7411272000008,961.042059200001,,,,,,,,,,,,,,,,,,,,,,up,2.915182900000218,None,space,0.372505799999999,None,P143,001,2025-04-09_11h56.18.851,posner_endo_new1,2024.2.4,60.10160777822367,2025-04-09 11h56.26.978287 +0100,
cube_r.png,0.1,-0.31,invalid,48,48,0,up,2.972452500000145,None,space,0.4120210999990377,None,,,,,,,,,0,48,48,48,961.0575820000013,,,,,,,,,,,,,961.0423636000014,961.0575820000013,961.0575820000013,961.0575820000013,964.0397126000007,,,,964.0562851000013,964.0672351000012,964.0672351000012,964.1046340000012,964.1049170000006,964.1208814000001,964.1208814000001,964.1208814000001,964.2042655000005,964.5384623000009,,,,,,,,,,,,,,,,,,,,,,up,2.972452500000145,None,space,0.4120210999990377,None,P143,001,2025-04-09_11h56.18.851,posner_endo_new1,2024.2.4,60.10160777822367,2025-04-09 11h56.26.978287 +0100,
cube_r.png,0.1,10,catch,49,49,0,up,2.7562099999995553,None,None,,,,,,,,,,,0,49,49,49,964.5538881000011,,,,,,,,,,,,,964.5386949000003,964.5538881000011,964.5538881000011,964.5538881000011,967.3191137000013,,,,967.3304306000009,967.3408287000002,967.3408287000002,967.3845873000009,967.3849318000011,967.4010988999999,967.4010988999999,967.4010988999999,967.4842626000009,970.3987242000003,,,,969.4989714000003,970.4146720000008,970.4146720000008,970.4146720000008,,,,,,,,,,,,,,,up,2.7562099999995553,None,None,,,P143,001,2025-04-09_11h56.18.851,posner_endo_new1,2024.2.4,60.10160777822367,2025-04-09 11h56.26.978287 +0100,
cube_l.png,0.1,-0.31,valid,50,50,0,up,0.7920524000001024,None,space,0.4224673000007897,None,,,,,,,,,0,50,50,50,970.4146720000008,,,,,,,,,,,,,970.3989995000011,970.4146720000008,970.4146720000008,970.4146720000008,971.2151345000002,,,,971.2263234000002,971.2367047000007,971.2367047000007,971.2806119000015,971.2809637000009,971.2970946000005,971.2970946000005,971.2970946000005,971.3802930000002,971.7310746000003,,,,,,,,,,,,,,,,,,,,,,up,0.7920524000001024,None,space,0.4224673000007897,None,P143,001,2025-04-09_11h56.18.851,posner_endo_new1,2024.2.4,60.10160777822367,2025-04-09 11h56.26.978287 +0100,
cube_l.png,0.1,-0.31,valid,51,51,0,up,2.8597685000004276,None,space,0.3798033999992185,None,,,,,,,,,0,51,51,51,971.7466256000007,,,,,,,,,,,,,971.7313669000014,971.7466256000007,971.7466256000007,971.7466256000007,974.611589600001,,,,974.6227346000014,974.6330436000007,974.6330436000007,974.6771387000008,974.6774819000002,974.693601500001,974.693601500001,974.693601500001,974.7769203000007,975.0778976000001,,,,,,,,,,,,,,,,,,,,,,up,2.8597685000004276,None,space,0.3798033999992185,None,P143,001,2025-04-09_11h56.18.851,posner_endo_new1,2024.2.4,60.10160777822367,2025-04-09 11h56.26.978287 +0100,
cube_r.png,0.1,-0.31,invalid,52,52,0,up,3.3132681000006414,None,space,0.4842396000003646,None,,,,,,,,,0,52,52,52,975.093174900001,,,,,,,,,,,,,975.0781911000013,975.093174900001,975.093174900001,975.093174900001,978.4078612000012,,,,978.418975300001,978.4293157000011,978.4293157000011,978.4733311,978.4736692000006,978.4897887000006,978.4897887000006,978.4897887000006,978.5729762999999,978.9904232000008,,,,,,,,,,,,,,,,,,,,,,up,3.3132681000006414,None,space,0.4842396000003646,None,P143,001,2025-04-09_11h56.18.851,posner_endo_new1,2024.2.4,60.10160777822367,2025-04-09 11h56.26.978287 +0100,
cube_l.png,0.1,-0.31,valid,53,53,0,up,3.056741800000964,None,space,0.36776999999892723,None,,,,,,,,,0,53,53,53,979.0059022000005,,,,,,,,,,,,,978.9907295000012,979.0059022000005,979.0059022000005,979.0059022000005,982.070793500001,,,,982.0820941000002,982.0924500000001,982.0924500000001,982.1361922000015,982.1365317,982.1526061000004,982.1526061000004,982.1526061000004,982.2359291000012,982.5368775000006,,,,,,,,,,,,,,,,,,,,,,up,3.056741800000964,None,space,0.36776999999892723,None,P143,001,2025-04-09_11h56.18.851,posner_endo_new1,2024.2.4,60.10160777822367,2025-04-09 11h56.26.978287 +0100,
cube_r.png,0.1,10,catch,54,54,0,up,2.9898823000003176,None,None,,,,,,,,,,,0,54,54,54,982.5522868000007,,,,,,,,,,,,,982.5371675000006,982.5522868000007,982.5522868000007,982.5522868000007,985.5507436000007,,,,985.5618809000007,985.5722490000007,985.5722490000007,985.6158562,985.6162004000016,985.6324531000009,985.6324531000009,985.6324531000009,985.7156411000014,988.6302152000007,,,,987.7303131000008,988.6460031000006,988.6460031000006,988.6460031000006,,,,,,,,,,,,,,,up,2.9898823000003176,None,None,,,P143,001,2025-04-09_11h56.18.851,posner_endo_new1,2024.2.4,60.10160777822367,2025-04-09 11h56.26.978287 +0100,
cube_l.png,0.1,0.31,invalid,55,55,0,up,0.7607064000003447,None,space,0.5996790999997756,None,,,,,,,,,0,55,55,55,988.6460031000006,,,,,,,,,,,,,988.6304862000015,988.6460031000006,988.6460031000006,988.6460031000006,989.4131936000013,,,,989.4219572000002,989.4318371000008,989.4318371000008,989.4786861000011,989.4789051000007,989.4952771000007,989.4952771000007,989.4952771000007,989.5784581000007,990.1119059000011,,,,,,,,,,,,,,,,,,,,,,up,0.7607064000003447,None,space,0.5996790999997756,None,P143,001,2025-04-09_11h56.18.851,posner_endo_new1,2024.2.4,60.10160777822367,2025-04-09 11h56.26.978287 +0100,
cube_l.png,0.1,-0.31,valid,56,56,0,up,2.5745638999997027,None,space,0.33567930000026536,None,,,,,,,,,0,56,56,56,990.1278065000006,,,,,,,,,,,,,990.1120914000003,990.1278065000006,990.1278065000006,990.1278065000006,992.7091474000008,,,,992.7150388000009,992.726017500001,992.726017500001,992.7752166000009,992.7757124,992.7915988000004,992.7915988000004,992.7915988000004,992.8582095000002,993.1430980000005,,,,,,,,,,,,,,,,,,,,,,up,2.5745638999997027,None,space,0.33567930000026536,None,P143,001,2025-04-09_11h56.18.851,posner_endo_new1,2024.2.4,60.10160777822367,2025-04-09 11h56.26.978287 +0100,
cube_r.png,0.1,0.31,valid,57,57,0,up,2.4169123000010586,None,space,0.4267019999988406,None,,,,,,,,,0,57,57,57,993.1579309000008,,,,,,,,,,,,,993.1435400999999,993.1579309000008,993.1579309000008,993.1579309000008,995.5905594000014,,,,995.6071613000004,995.6180982000005,995.6180982000005,995.6556178999999,995.6561183000013,995.6720046999999,995.6720046999999,995.6720046999999,995.7552847000006,996.1068760000016,,,,,,,,,,,,,,,,,,,,,,up,2.4169123000010586,None,space,0.4267019999988406,None,P143,001,2025-04-09_11h56.18.851,posner_endo_new1,2024.2.4,60.10160777822367,2025-04-09 11h56.26.978287 +0100,
cube_r.png,0.1,-0.31,invalid,58,58,0,up,2.533122499999081,None,space,0.47214460000031977,None,,,,,,,,,0,58,58,58,996.1215824999999,,,,,,,,,,,,,996.1073164000009,996.1215824999999,996.1215824999999,996.1215824999999,998.6703557000001,,,,998.6818055000003,998.6919478,998.6919478,998.7359837000004,998.7363253000003,998.7524407000001,998.7524407000001,998.7524407000001,998.8357644000007,999.2364248000013,,,,,,,,,,,,,,,,,,,,,,up,2.533122499999081,None,space,0.47214460000031977,None,P143,001,2025-04-09_11h56.18.851,posner_endo_new1,2024.2.4,60.10160777822367,2025-04-09 11h56.26.978287 +0100,
cube_l.png,0.1,0.31,invalid,59,59,0,up,2.618618200000128,None,space,0.4015552000000753,None,,,,,,,,,0,59,59,59,999.2518531000005,,,,,,,,,,,,,999.236722900001,999.2518531000005,999.2518531000005,999.2518531000005,1001.8837853000005,,,,1001.8951983000006,1001.9056065000004,1001.9056065000004,1001.9493691000007,1001.9497055000011,1001.9657523000005,1001.9657523000005,1001.9657523000005,1002.0489504000016,1002.3831021000005,,,,,,,,,,,,,,,,,,,,,,up,2.618618200000128,None,space,0.4015552000000753,None,P143,001,2025-04-09_11h56.18.851,posner_endo_new1,2024.2.4,60.10160777822367,2025-04-09 11h56.26.978287 +0100,
