cue_img,cue_soa,target_x,trial,thisN,thisTrialN,thisRepN,key_control2.keys,key_control2.rt,key_control2.duration,key_resp.keys,key_resp.rt,key_resp.duration,practice.thisRepN,practice.thisTrialN,practice.thisN,practice.thisIndex,block1.thisRepN,block1.thisTrialN,block1.thisN,block1.thisIndex,block2.thisRepN,block2.thisTrialN,block2.thisN,block2.thisIndex,thisRow.t,notes,instructions.started,instructions_txt.started,key_control.started,instructions.stopped,key_control.keys,key_control.rt,key_control.duration,ready.started,ready_txt.started,ready_txt.stopped,ready.stopped,fix.started,fixation.started,key_control2.started,fixation_cross.started,fix.stopped,practice.key_control2.keys,practice.key_control2.rt,practice.key_control2.duration,cue.started,cube.started,fixation_cross_cue.started,cue.stopped,target.started,fixation_target.started,fixation_cross_target.started,key_resp.started,star.started,target.stopped,practice.key_resp.keys,practice.key_resp.rt,practice.key_resp.duration,star.stopped,fixation_target.stopped,fixation_cross_target.stopped,key_resp.stopped,block1.key_control2.keys,block1.key_control2.rt,block1.key_control2.duration,block1.key_resp.keys,block1.key_resp.rt,block1.key_resp.duration,break_2.started,text.started,key_control3.started,text.stopped,break_2.stopped,key_control3.keys,key_control3.rt,key_control3.duration,block2.key_control2.keys,block2.key_control2.rt,block2.key_control2.duration,block2.key_resp.keys,block2.key_resp.rt,block2.key_resp.duration,participant,session,date,expName,psychopyVersion,frameRate,expStart,
,,,,,,,,,,,,,,,,,,,,,,,,,,,0.00754159999996773,0.024692400000276393,0.024692400000276393,1.1660663999991812,up,1.1317856999994547,None,,,,,,,,,,,,,,,,,,,,,,,,,,,,,,,,,,,,,,,,,,,,,,,,,,P144,001,2025-04-09_13h12.07.034,posner_endo_new1,2024.2.4,60.07831809558039,2025-04-09 13h12.19.260223 +0100,
,,,,,,,,,,,,,,,,,,,,,,,,,,,,,,,,,,1.166138000000501,1.176628900000651,4.180533700000524,4.155270400000518,,,,,,,,,,,,,,,,,,,,,,,,,,,,,,,,,,,,,,,,,,,,,,P144,001,2025-04-09_13h12.07.034,posner_endo_new1,2024.2.4,60.07831809558039,2025-04-09 13h12.19.260223 +0100,
cube_r.png,0.1,0.31,valid,0,0,0,down,23.919434499999625,None,space,0.4558386000007886,None,0,0,0,10,,,,,,,,,4.180533700000524,,,,,,,,,,,,,4.168211899999733,4.180533700000524,4.180533700000524,4.180533700000524,28.114213900000323,down,23.919434499999625,None,28.123959799999284,28.134101999999984,28.134101999999984,28.179846900000484,28.18027439999969,28.196330599999783,28.196330599999783,28.196330599999783,28.279535899999246,28.664052000000083,space,0.4558386000007886,None,,,,,,,,,,,,,,,,,,,,,,,,,P144,001,2025-04-09_13h12.07.034,posner_endo_new1,2024.2.4,60.07831809558039,2025-04-09 13h12.19.260223 +0100,
cube_r.png,0.1,-0.31,invalid,1,1,0,down,5.74127419999968,None,space,0.3746241999997437,None,0,1,1,9,,,,,,,,,28.679539400000067,,,,,,,,,,,,,28.664294100000916,28.679539400000067,28.679539400000067,28.679539400000067,34.42472260000068,down,5.74127419999968,None,34.43568629999936,34.445742199999586,34.445742199999586,34.490440900000976,34.49075079999966,34.50691259999985,34.50691259999985,34.50691259999985,34.590210399999705,34.89092720000008,space,0.3746241999997437,None,,,,,,,,,,,,,,,,,,,,,,,,,P144,001,2025-04-09_13h12.07.034,posner_endo_new1,2024.2.4,60.07831809558039,2025-04-09 13h12.19.260223 +0100,
cube_l.png,0.1,-0.31,valid,2,2,0,down,6.665401999998721,None,space,0.5365485000002082,None,0,2,2,0,,,,,,,,,34.90652989999944,,,,,,,,,,,,,34.89116909999939,34.90652989999944,34.90652989999944,34.90652989999944,41.584082900000794,down,6.665401999998721,None,41.59287799999947,41.60249590000058,41.60249590000058,41.64978250000058,41.65001570000095,41.666192599999704,41.666192599999704,41.666192599999704,41.749553199999355,42.21652859999995,space,0.5365485000002082,None,,,,,,,,,,,,,,,,,,,,,,,,,P144,001,2025-04-09_13h12.07.034,posner_endo_new1,2024.2.4,60.07831809558039,2025-04-09 13h12.19.260223 +0100,
cube_r.png,0.1,-0.31,invalid,3,3,0,down,5.172340799999802,None,space,0.4027793000004749,None,0,3,3,2,,,,,,,,,42.23235820000082,,,,,,,,,,,,,42.21669800000018,42.23235820000082,42.23235820000082,42.23235820000082,47.41121120000025,down,5.172340799999802,None,47.418218900000284,47.42985690000023,47.42985690000023,47.476980400000684,47.47720379999919,47.49374480000006,47.49374480000006,47.49374480000006,47.56015819999993,47.911356000000524,space,0.4027793000004749,None,,,,,,,,,,,,,,,,,,,,,,,,,P144,001,2025-04-09_13h12.07.034,posner_endo_new1,2024.2.4,60.07831809558039,2025-04-09 13h12.19.260223 +0100,
cube_l.png,0.1,-0.31,valid,4,4,0,down,5.094692700000451,None,space,0.39224859999922046,None,0,4,4,4,,,,,,,,,47.926358799999434,,,,,,,,,,,,,47.9117681000007,47.926358799999434,47.926358799999434,47.926358799999434,53.02263390000007,down,5.094692700000451,None,53.03425840000091,53.04450220000035,53.04450220000035,53.088048899999194,53.08839520000038,53.10456850000082,53.10456850000082,53.10456850000082,53.18793440000081,53.50549610000053,space,0.39224859999922046,None,,,,,,,,,,,,,,,,,,,,,,,,,P144,001,2025-04-09_13h12.07.034,posner_endo_new1,2024.2.4,60.07831809558039,2025-04-09 13h12.19.260223 +0100,
cube_r.png,0.1,10,catch,5,5,0,down,5.291584599999624,None,None,,,0,5,5,3,,,,,,,,,53.52100029999929,,,,,,,,,,,,,53.50576980000005,53.52100029999929,53.52100029999929,53.52100029999929,58.81682480000018,down,5.291584599999624,None,58.82866339999964,58.83891380000023,58.83891380000023,58.88218589999997,58.882536099999925,58.898822799999834,58.898822799999834,58.898822799999834,58.98192829999971,61.89628819999962,None,,,60.996612599999935,61.91232780000064,61.91232780000064,61.91232780000064,,,,,,,,,,,,,,,,,,,,,P144,001,2025-04-09_13h12.07.034,posner_endo_new1,2024.2.4,60.07831809558039,2025-04-09 13h12.19.260223 +0100,
cube_r.png,0.1,-0.31,invalid,6,6,0,down,2.404254699999001,None,space,0.5365775000009307,None,0,6,6,6,,,,,,,,,61.91232780000064,,,,,,,,,,,,,61.89653790000011,61.91232780000064,61.91232780000064,61.91232780000064,64.32753299999968,down,2.404254699999001,None,64.33935700000075,64.34970000000067,64.34970000000067,64.39321200000086,64.39356279999993,64.40968240000075,64.40968240000075,64.40968240000075,64.49296010000035,64.96018670000012,space,0.5365775000009307,None,,,,,,,,,,,,,,,,,,,,,,,,,P144,001,2025-04-09_13h12.07.034,posner_endo_new1,2024.2.4,60.07831809558039,2025-04-09 13h12.19.260223 +0100,
cube_l.png,0.1,0.31,invalid,7,7,0,down,6.092765399998825,None,space,0.45073970000157715,None,0,7,7,1,,,,,,,,,64.97579530000075,,,,,,,,,,,,,64.96045790000062,64.97579530000075,64.97579530000075,64.97579530000075,71.07092680000096,down,6.092765399998825,None,71.08132839999962,71.09085330000016,71.09085330000016,71.13618280000082,71.1364207000006,71.15285070000027,71.15285070000027,71.15285070000027,71.23604530000011,71.61974680000094,space,0.45073970000157715,None,,,,,,,,,,,,,,,,,,,,,,,,,P144,001,2025-04-09_13h12.07.034,posner_endo_new1,2024.2.4,60.07831809558039,2025-04-09 13h12.19.260223 +0100,
cube_l.png,0.1,-0.31,valid,8,8,0,down,5.304610299999695,None,space,0.868511499998931,None,0,8,8,8,,,,,,,,,71.6357379000001,,,,,,,,,,,,,71.6199316000002,71.6357379000001,71.6357379000001,71.6357379000001,76.94749969999975,down,5.304610299999695,None,76.9534922999992,76.96525239999937,76.96525239999937,77.01360120000027,77.01382340000055,77.0301913000003,77.0301913000003,77.0301913000003,77.09686340000007,77.91337050000038,space,0.868511499998931,None,,,,,,,,,,,,,,,,,,,,,,,,,P144,001,2025-04-09_13h12.07.034,posner_endo_new1,2024.2.4,60.07831809558039,2025-04-09 13h12.19.260223 +0100,
cube_r.png,0.1,0.31,valid,9,9,0,down,4.427116200000455,None,space,0.44488300000011805,None,0,9,9,7,,,,,,,,,77.92915139999968,,,,,,,,,,,,,77.91353309999977,77.92915139999968,77.92915139999968,77.92915139999968,82.35890199999994,down,4.427116200000455,None,82.36476690000018,82.37634849999995,82.37634849999995,82.42480690000048,82.42503100000067,82.44132089999948,82.44132089999948,82.44132089999948,82.52438919999986,82.89170709999962,space,0.44488300000011805,None,,,,,,,,,,,,,,,,,,,,,,,,,P144,001,2025-04-09_13h12.07.034,posner_endo_new1,2024.2.4,60.07831809558039,2025-04-09 13h12.19.260223 +0100,
cube_l.png,0.1,0.31,invalid,10,10,0,down,5.073495000000548,None,space,0.4182364999996935,None,0,10,10,5,,,,,,,,,82.90745509999942,,,,,,,,,,,,,82.89186920000066,82.90745509999942,82.90745509999942,82.90745509999942,87.9863519999999,down,5.073495000000548,None,87.99214290000054,88.00330890000077,88.00330890000077,88.05205559999922,88.05248670000037,88.06851110000025,88.06851110000025,88.06851110000025,88.13554850000037,88.5027224000005,space,0.4182364999996935,None,,,,,,,,,,,,,,,,,,,,,,,,,P144,001,2025-04-09_13h12.07.034,posner_endo_new1,2024.2.4,60.07831809558039,2025-04-09 13h12.19.260223 +0100,
,,,,,,,,,,,,,,,,,,,,,,,,,,,,,,,,,,88.50287609999941,88.51852560000043,91.52234040000076,91.49927030000072,,,,,,,,,,,,,,,,,,,,,,,,,,,,,,,,,,,,,,,,,,,,,,P144,001,2025-04-09_13h12.07.034,posner_endo_new1,2024.2.4,60.07831809558039,2025-04-09 13h12.19.260223 +0100,
cube_l.png,0.1,10,catch,0,0,0,down,10.10606639999969,None,None,,,,,,,0,0,0,0,,,,,91.52234040000076,,,,,,,,,,,,,91.51346999999987,91.52234040000076,91.52234040000076,91.52234040000076,101.63911299999927,,,,101.64527249999992,101.65626470000097,101.65626470000097,101.70493469999928,101.70544100000006,101.72137289999955,101.72137289999955,101.72137289999955,101.80463260000033,104.71930880000036,,,,103.81926860000021,104.73536129999957,104.73536129999957,104.73536129999957,down,10.10606639999969,None,None,,,,,,,,,,,,,,,,,P144,001,2025-04-09_13h12.07.034,posner_endo_new1,2024.2.4,60.07831809558039,2025-04-09 13h12.19.260223 +0100,
cube_l.png,0.1,10,catch,1,1,0,down,2.9167937000001984,None,None,,,,,,,0,1,1,1,,,,,104.73536129999957,,,,,,,,,,,,,104.71957479999946,104.73536129999957,104.73536129999957,104.73536129999957,107.66675880000003,,,,107.67794580000009,107.68829670000014,107.68829670000014,107.73237329999938,107.73271879999993,107.74878399999943,107.74878399999943,107.74878399999943,107.83204850000038,110.74655730000086,,,,109.84668319999946,110.76236470000003,110.76236470000003,110.76236470000003,down,2.9167937000001984,None,None,,,,,,,,,,,,,,,,,P144,001,2025-04-09_13h12.07.034,posner_endo_new1,2024.2.4,60.07831809558039,2025-04-09 13h12.19.260223 +0100,
cube_l.png,0.1,0.31,invalid,2,2,0,down,2.0664252000005945,None,space,0.39456719999907364,None,,,,,0,2,2,2,,,,,110.76236470000003,,,,,,,,,,,,,110.74682700000085,110.76236470000003,110.76236470000003,110.76236470000003,112.84478189999936,,,,112.85598000000027,112.86632740000096,112.86632740000096,112.91040939999948,112.91075669999918,112.92690369999946,112.92690369999946,112.92690369999946,113.01015800000096,113.32784390000052,,,,,,,,down,2.0664252000005945,None,space,0.39456719999907364,None,,,,,,,,,,,,,,,P144,001,2025-04-09_13h12.07.034,posner_endo_new1,2024.2.4,60.07831809558039,2025-04-09 13h12.19.260223 +0100,
cube_l.png,0.1,0.31,invalid,3,3,0,down,4.996920100000352,None,space,0.36481499999899825,None,,,,,0,3,3,3,,,,,113.3431070000006,,,,,,,,,,,,,113.32814060000055,113.3431070000006,113.3431070000006,113.3431070000006,118.35597620000044,,,,118.36730949999946,118.3775796000009,118.3775796000009,118.42142860000058,118.42177149999952,118.43791650000094,118.43791650000094,118.43791650000094,118.52116170000045,118.80560850000074,,,,,,,,down,4.996920100000352,None,space,0.36481499999899825,None,,,,,,,,,,,,,,,P144,001,2025-04-09_13h12.07.034,posner_endo_new1,2024.2.4,60.07831809558039,2025-04-09 13h12.19.260223 +0100,
cube_l.png,0.1,-0.31,valid,4,4,0,down,3.687901699999202,None,space,0.4434789000006276,None,,,,,0,4,4,4,,,,,118.82094710000092,,,,,,,,,,,,,118.80589990000044,118.82094710000092,118.82094710000092,118.82094710000092,122.5183223999993,,,,122.5294257000005,122.53980059999958,122.53980059999958,122.58380840000063,122.58415520000017,122.60017340000013,122.60017340000013,122.60017340000013,122.68349599999965,123.05079710000064,,,,,,,,down,3.687901699999202,None,space,0.4434789000006276,None,,,,,,,,,,,,,,,P144,001,2025-04-09_13h12.07.034,posner_endo_new1,2024.2.4,60.07831809558039,2025-04-09 13h12.19.260223 +0100,
cube_r.png,0.1,-0.31,invalid,5,5,0,down,4.786650300000474,None,space,0.4342376000004151,None,,,,,0,5,5,5,,,,,123.06641259999924,,,,,,,,,,,,,123.05108370000016,123.06641259999924,123.06641259999924,123.06641259999924,127.86278640000091,,,,127.87229490000027,127.88202280000041,127.88202280000041,127.92826410000089,127.92852929999935,127.94468849999976,127.94468849999976,127.94468849999976,128.02801539999928,128.3951417999997,,,,,,,,down,4.786650300000474,None,space,0.4342376000004151,None,,,,,,,,,,,,,,,P144,001,2025-04-09_13h12.07.034,posner_endo_new1,2024.2.4,60.07831809558039,2025-04-09 13h12.19.260223 +0100,
cube_r.png,0.1,0.31,valid,6,6,0,down,5.745032900000297,None,space,0.34332549999999173,None,,,,,0,6,6,6,,,,,128.41106629999922,,,,,,,,,,,,,128.39533420000043,128.41106629999922,128.41106629999922,128.41106629999922,134.1725477,,,,134.17971439999928,134.19122570000036,134.19122570000036,134.2386377999992,134.23886130000028,134.255084800001,134.255084800001,134.255084800001,134.32163600000058,134.60529029999998,,,,,,,,down,5.745032900000297,None,space,0.34332549999999173,None,,,,,,,,,,,,,,,P144,001,2025-04-09_13h12.07.034,posner_endo_new1,2024.2.4,60.07831809558039,2025-04-09 13h12.19.260223 +0100,
cube_r.png,0.1,-0.31,invalid,7,7,0,down,5.295201299999462,None,space,0.4836931999998342,None,,,,,0,7,7,7,,,,,134.62139650000063,,,,,,,,,,,,,134.60546260000046,134.62139650000063,134.62139650000063,134.62139650000063,139.93346270000075,,,,139.93958059999932,139.95094400000016,139.95094400000016,139.9993515999995,139.99958259999948,140.01589830000012,140.01589830000012,140.01589830000012,140.0991642000008,140.51605969999946,,,,,,,,down,5.295201299999462,None,space,0.4836931999998342,None,,,,,,,,,,,,,,,P144,001,2025-04-09_13h12.07.034,posner_endo_new1,2024.2.4,60.07831809558039,2025-04-09 13h12.19.260223 +0100,
cube_l.png,0.1,-0.31,valid,8,8,0,down,4.7681062999999995,None,space,0.4903580999998667,None,,,,,0,8,8,8,,,,,140.53202710000005,,,,,,,,,,,,,140.5162376999997,140.53202710000005,140.53202710000005,140.53202710000005,145.31099150000045,,,,145.31684230000064,145.32837289999952,145.32837289999952,145.37723069999993,145.37745859999995,145.39364639999985,145.39364639999985,145.39364639999985,145.46038100000078,145.89387259999967,,,,,,,,down,4.7681062999999995,None,space,0.4903580999998667,None,,,,,,,,,,,,,,,P144,001,2025-04-09_13h12.07.034,posner_endo_new1,2024.2.4,60.07831809558039,2025-04-09 13h12.19.260223 +0100,
cube_r.png,0.1,-0.31,invalid,9,9,0,down,5.230692400000407,None,space,0.5714477999990777,None,,,,,0,9,9,9,,,,,145.90997210000023,,,,,,,,,,,,,145.89404289999948,145.90997210000023,145.90997210000023,145.90997210000023,151.1552888999995,,,,151.1612086999994,151.1728691999997,151.1728691999997,151.2210711000007,151.22157160000097,151.2375222999999,151.2375222999999,151.2375222999999,151.3207827999995,151.82191889999922,,,,,,,,down,5.230692400000407,None,space,0.5714477999990777,None,,,,,,,,,,,,,,,P144,001,2025-04-09_13h12.07.034,posner_endo_new1,2024.2.4,60.07831809558039,2025-04-09 13h12.19.260223 +0100,
cube_l.png,0.1,0.31,invalid,10,10,0,down,5.488843000000998,None,space,0.4584250999996584,None,,,,,0,10,10,10,,,,,151.8368730000002,,,,,,,,,,,,,151.82234849999986,151.8368730000002,151.8368730000002,151.8368730000002,157.33257400000002,,,,157.34321470000032,157.35335610000038,157.35335610000038,157.39827709999918,157.3986091000006,157.41494769999917,157.41494769999917,157.41494769999917,157.49803319999955,157.88223859999925,,,,,,,,down,5.488843000000998,None,space,0.4584250999996584,None,,,,,,,,,,,,,,,P144,001,2025-04-09_13h12.07.034,posner_endo_new1,2024.2.4,60.07831809558039,2025-04-09 13h12.19.260223 +0100,
cube_r.png,0.1,-0.31,invalid,11,11,0,down,5.619408799999292,None,space,0.4453281000005518,None,,,,,0,11,11,11,,,,,157.89769230000093,,,,,,,,,,,,,157.88251610000043,157.89769230000093,157.89769230000093,157.89769230000093,163.52622490000067,,,,163.53686089999974,163.5470623000001,163.5470623000001,163.59194519999983,163.59227979999923,163.60857690000012,163.60857690000012,163.60857690000012,163.69173319999936,164.05914719999964,,,,,,,,down,5.619408799999292,None,space,0.4453281000005518,None,,,,,,,,,,,,,,,P144,001,2025-04-09_13h12.07.034,posner_endo_new1,2024.2.4,60.07831809558039,2025-04-09 13h12.19.260223 +0100,
cube_r.png,0.1,0.31,valid,12,12,0,down,4.378122799998891,None,space,0.42375989999891317,None,,,,,0,12,12,12,,,,,164.07477309999922,,,,,,,,,,,,,164.05941879999955,164.07477309999922,164.07477309999922,164.07477309999922,168.45481180000024,,,,168.46287010000015,168.4730569000003,168.4730569000003,168.52018859999953,168.5204288999994,168.53667479999967,168.53667479999967,168.53667479999967,168.61999079999987,168.97033159999955,,,,,,,,down,4.378122799998891,None,space,0.42375989999891317,None,,,,,,,,,,,,,,,P144,001,2025-04-09_13h12.07.034,posner_endo_new1,2024.2.4,60.07831809558039,2025-04-09 13h12.19.260223 +0100,
cube_l.png,0.1,10,catch,13,13,0,down,5.44225539999934,None,None,,,,,,,0,13,13,13,,,,,168.98625270000048,,,,,,,,,,,,,168.97051350000038,168.98625270000048,168.98625270000048,168.98625270000048,174.43138589999944,,,,174.43807870000091,174.44983289999982,174.44983289999982,174.49730210000052,174.4978069000008,174.51373590000003,174.51373590000003,174.51373590000003,174.5969958000005,177.51151890000074,,,,176.61188550000043,177.5274329999993,177.5274329999993,177.5274329999993,down,5.44225539999934,None,None,,,,,,,,,,,,,,,,,P144,001,2025-04-09_13h12.07.034,posner_endo_new1,2024.2.4,60.07831809558039,2025-04-09 13h12.19.260223 +0100,
cube_r.png,0.1,-0.31,invalid,14,14,0,down,3.197204900001452,None,space,0.4290653000007296,None,,,,,0,14,14,14,,,,,177.5274329999993,,,,,,,,,,,,,177.51179109999975,177.5274329999993,177.5274329999993,177.5274329999993,180.72581209999953,,,,180.73711490000096,180.74739509999927,180.74739509999927,180.7910892,180.79143440000007,180.80741080000007,180.80741080000007,180.80741080000007,180.89081389999956,181.2416314000002,,,,,,,,down,3.197204900001452,None,space,0.4290653000007296,None,,,,,,,,,,,,,,,P144,001,2025-04-09_13h12.07.034,posner_endo_new1,2024.2.4,60.07831809558039,2025-04-09 13h12.19.260223 +0100,
cube_l.png,0.1,-0.31,valid,15,15,0,down,5.948170100000425,None,space,0.43906559999959427,None,,,,,0,15,15,15,,,,,181.25709629999983,,,,,,,,,,,,,181.2419231999993,181.25709629999983,181.25709629999983,181.25709629999983,187.21887199999946,,,,187.22999379999965,187.24031880000075,187.24031880000075,187.28453339999942,187.28487499999937,187.3008303000006,187.3008303000006,187.3008303000006,187.3841169999996,187.75165170000037,,,,,,,,down,5.948170100000425,None,space,0.43906559999959427,None,,,,,,,,,,,,,,,P144,001,2025-04-09_13h12.07.034,posner_endo_new1,2024.2.4,60.07831809558039,2025-04-09 13h12.19.260223 +0100,
cube_r.png,0.1,10,catch,16,16,0,down,5.085107000000789,None,None,,,,,,,0,16,16,16,,,,,187.76714770000035,,,,,,,,,,,,,187.7519425999999,187.76714770000035,187.76714770000035,187.76714770000035,192.86307750000014,,,,192.8744459999998,192.8848338000007,192.8848338000007,192.92871120000018,192.92905380000047,192.94517590000032,192.94517590000032,192.94517590000032,193.0284214000003,195.94279939999979,,,,195.04301130000022,195.9588961999998,195.9588961999998,195.9588961999998,down,5.085107000000789,None,None,,,,,,,,,,,,,,,,,P144,001,2025-04-09_13h12.07.034,posner_endo_new1,2024.2.4,60.07831809558039,2025-04-09 13h12.19.260223 +0100,
cube_r.png,0.1,10,catch,17,17,0,down,1.006269199999224,None,None,,,,,,,0,17,17,17,,,,,195.9588961999998,,,,,,,,,,,,,195.9430744000001,195.9588961999998,195.9588961999998,195.9588961999998,196.97561160000078,,,,196.98680260000037,196.9971753000009,196.9971753000009,197.04108989999986,197.04143479999948,197.05762219999997,197.05762219999997,197.05762219999997,197.14077700000053,200.0551441000007,,,,199.15549490000012,200.07122340000024,200.07122340000024,200.07122340000024,down,1.006269199999224,None,None,,,,,,,,,,,,,,,,,P144,001,2025-04-09_13h12.07.034,posner_endo_new1,2024.2.4,60.07831809558039,2025-04-09 13h12.19.260223 +0100,
cube_l.png,0.1,0.31,invalid,18,18,0,down,2.3014340000008815,None,space,0.40848750000077416,None,,,,,0,18,18,18,,,,,200.07122340000024,,,,,,,,,,,,,200.05540810000093,200.07122340000024,200.07122340000024,200.07122340000024,202.3865848000005,,,,202.3978465,202.40818670000044,202.40818670000044,202.45232510000096,202.45267539999986,202.4688518999992,202.4688518999992,202.4688518999992,202.55205059999935,202.88630130000092,,,,,,,,down,2.3014340000008815,None,space,0.40848750000077416,None,,,,,,,,,,,,,,,P144,001,2025-04-09_13h12.07.034,posner_endo_new1,2024.2.4,60.07831809558039,2025-04-09 13h12.19.260223 +0100,
cube_l.png,0.1,10,catch,19,19,0,down,4.111839299999701,None,None,,,,,,,0,19,19,19,,,,,202.90164650000042,,,,,,,,,,,,,202.88659019999977,202.90164650000042,202.90164650000042,202.90164650000042,207.0155164000007,,,,207.0266943000006,207.03704500000094,207.03704500000094,207.08092279999983,207.08126520000042,207.0972027000007,207.0972027000007,207.0972027000007,207.1806403999999,210.09503679999943,,,,209.19528750000063,210.11106819999986,210.11106819999986,210.11106819999986,down,4.111839299999701,None,None,,,,,,,,,,,,,,,,,P144,001,2025-04-09_13h12.07.034,posner_endo_new1,2024.2.4,60.07831809558039,2025-04-09 13h12.19.260223 +0100,
cube_l.png,0.1,0.31,invalid,20,20,0,down,3.8937883999988117,None,space,0.4841140999997151,None,,,,,0,20,20,20,,,,,210.11106819999986,,,,,,,,,,,,,210.09530369999993,210.11106819999986,210.11106819999986,210.11106819999986,214.00836850000087,,,,214.0194362000002,214.02983640000093,214.02983640000093,214.0737597999996,214.0741048,214.09033629999976,214.09033629999976,214.09033629999976,214.1735805999997,214.59094899999945,,,,,,,,down,3.8937883999988117,None,space,0.4841140999997151,None,,,,,,,,,,,,,,,P144,001,2025-04-09_13h12.07.034,posner_endo_new1,2024.2.4,60.07831809558039,2025-04-09 13h12.19.260223 +0100,
cube_l.png,0.1,-0.31,valid,21,21,0,down,5.255434400000013,None,space,0.49579540000013367,None,,,,,0,21,21,21,,,,,214.6064623000002,,,,,,,,,,,,,214.59124499999962,214.6064623000002,214.6064623000002,214.6064623000002,219.86868739999954,,,,219.87995150000097,219.89021409999987,219.89021409999987,219.93439810000018,219.9347457999993,219.95088489999944,219.95088489999944,219.95088489999944,220.03419720000056,220.45157590000053,,,,,,,,down,5.255434400000013,None,space,0.49579540000013367,None,,,,,,,,,,,,,,,P144,001,2025-04-09_13h12.07.034,posner_endo_new1,2024.2.4,60.07831809558039,2025-04-09 13h12.19.260223 +0100,
cube_r.png,0.1,0.31,valid,22,22,0,down,4.61803510000027,None,space,0.46293799999875773,None,,,,,0,22,22,22,,,,,220.46708919999946,,,,,,,,,,,,,220.45186420000027,220.46708919999946,220.46708919999946,220.46708919999946,225.09633399999984,,,,225.1024851000002,225.11423289999948,225.11423289999948,225.16215580000062,225.16238309999972,225.17892380000012,225.17892380000012,225.17892380000012,225.2621135999998,225.64579240000057,,,,,,,,down,4.61803510000027,None,space,0.46293799999875773,None,,,,,,,,,,,,,,,P144,001,2025-04-09_13h12.07.034,posner_endo_new1,2024.2.4,60.07831809558039,2025-04-09 13h12.19.260223 +0100,
cube_r.png,0.1,-0.31,invalid,23,23,0,down,5.535241800000222,None,space,0.37789450000127545,None,,,,,0,23,23,23,,,,,225.66197509999984,,,,,,,,,,,,,225.64597090000098,225.66197509999984,225.66197509999984,225.66197509999984,231.2067165999997,,,,231.21288190000087,231.22449760000018,231.22449760000018,231.27272939999966,231.27295149999918,231.2893540999994,231.2893540999994,231.2893540999994,231.35595040000044,231.6730545999999,,,,,,,,down,5.535241800000222,None,space,0.37789450000127545,None,,,,,,,,,,,,,,,P144,001,2025-04-09_13h12.07.034,posner_endo_new1,2024.2.4,60.07831809558039,2025-04-09 13h12.19.260223 +0100,
cube_r.png,0.1,0.31,valid,24,24,0,down,10.595284999999421,None,space,0.35871100000076694,None,,,,,0,24,24,24,,,,,231.68894720000026,,,,,,,,,,,,,231.67322579999927,231.68894720000026,231.68894720000026,231.68894720000026,242.295595900001,,,,242.3014846999995,242.3131613000005,242.3131613000005,242.36157579999963,242.36180290000084,242.3779871000006,242.3779871000006,242.3779871000006,242.46127909999996,242.74510250000094,,,,,,,,down,10.595284999999421,None,space,0.35871100000076694,None,,,,,,,,,,,,,,,P144,001,2025-04-09_13h12.07.034,posner_endo_new1,2024.2.4,60.07831809558039,2025-04-09 13h12.19.260223 +0100,
cube_r.png,0.1,-0.31,invalid,25,25,0,down,3.7714852999997674,None,space,0.4148409999997966,None,,,,,0,25,25,25,,,,,242.76098620000084,,,,,,,,,,,,,242.74527230000058,242.76098620000084,242.76098620000084,242.76098620000084,246.54111139999986,,,,246.54686539999966,246.55789990000085,246.55789990000085,246.60696860000098,246.60747260000062,246.62346310000066,246.62346310000066,246.62346310000066,246.70668280000064,247.04163320000043,,,,,,,,down,3.7714852999997674,None,space,0.4148409999997966,None,,,,,,,,,,,,,,,P144,001,2025-04-09_13h12.07.034,posner_endo_new1,2024.2.4,60.07831809558039,2025-04-09 13h12.19.260223 +0100,
cube_l.png,0.1,-0.31,valid,26,26,0,down,4.339926300001025,None,space,0.3481322999996337,None,,,,,0,26,26,26,,,,,247.05637510000088,,,,,,,,,,,,,247.04206069999964,247.05637510000088,247.05637510000088,247.05637510000088,251.40325370000028,,,,251.4125937000008,251.4223423000003,251.4223423000003,251.46874799999932,251.4689985999994,251.48549400000047,251.48549400000047,251.48549400000047,251.5686979000002,251.83578280000074,,,,,,,,down,4.339926300001025,None,space,0.3481322999996337,None,,,,,,,,,,,,,,,P144,001,2025-04-09_13h12.07.034,posner_endo_new1,2024.2.4,60.07831809558039,2025-04-09 13h12.19.260223 +0100,
cube_r.png,0.1,0.31,valid,27,27,0,down,4.40108169999985,None,space,0.4075258000011672,None,,,,,0,27,27,27,,,,,251.85159369999928,,,,,,,,,,,,,251.8359786000001,251.85159369999928,251.85159369999928,251.85159369999928,256.26449200000025,,,,256.2716373000003,256.2834084999995,256.2834084999995,256.3305596000009,256.3308133999999,256.34695680000004,256.34695680000004,256.34695680000004,256.4135807999992,256.7641246000003,,,,,,,,down,4.40108169999985,None,space,0.4075258000011672,None,,,,,,,,,,,,,,,P144,001,2025-04-09_13h12.07.034,posner_endo_new1,2024.2.4,60.07831809558039,2025-04-09 13h12.19.260223 +0100,
cube_r.png,0.1,10,catch,28,28,0,down,5.712743600000977,None,None,,,,,,,0,28,28,28,,,,,256.7800277999995,,,,,,,,,,,,,256.7643246000007,256.7800277999995,256.7800277999995,256.7800277999995,262.5082039000008,,,,262.5153339999997,262.5271479000003,262.5271479000003,262.5741770000004,262.57442880000053,262.59076000000096,262.59076000000096,262.59076000000096,262.6571270000004,265.58803740000076,,,,264.6718467999999,265.60417140000027,265.60417140000027,265.60417140000027,down,5.712743600000977,None,None,,,,,,,,,,,,,,,,,P144,001,2025-04-09_13h12.07.034,posner_endo_new1,2024.2.4,60.07831809558039,2025-04-09 13h12.19.260223 +0100,
cube_r.png,0.1,0.31,valid,29,29,0,down,3.7524536999990232,None,space,0.34745549999934155,None,,,,,0,29,29,29,,,,,265.60417140000027,,,,,,,,,,,,,265.58822209999926,265.60417140000027,265.60417140000027,265.60417140000027,269.36792849999983,,,,269.37498609999966,269.38620880000053,269.38620880000053,269.4337338000005,269.4342299,269.4501504,269.4501504,269.4501504,269.5333702000007,269.8016611000003,,,,,,,,down,3.7524536999990232,None,space,0.34745549999934155,None,,,,,,,,,,,,,,,P144,001,2025-04-09_13h12.07.034,posner_endo_new1,2024.2.4,60.07831809558039,2025-04-09 13h12.19.260223 +0100,
cube_r.png,0.1,0.31,valid,30,30,0,down,5.660433199998806,None,space,0.3906839999999647,None,,,,,0,30,30,30,,,,,269.81640940000034,,,,,,,,,,,,,269.80208590000075,269.81640940000034,269.81640940000034,269.81640940000034,275.4788305000002,,,,275.48988590000044,275.5002156999999,275.5002156999999,275.5442975999995,275.5446503000003,275.56086929999947,275.56086929999947,275.56086929999947,275.6440266999998,275.96157479999965,,,,,,,,down,5.660433199998806,None,space,0.3906839999999647,None,,,,,,,,,,,,,,,P144,001,2025-04-09_13h12.07.034,posner_endo_new1,2024.2.4,60.07831809558039,2025-04-09 13h12.19.260223 +0100,
cube_l.png,0.1,-0.31,valid,31,31,0,down,3.5807439999989583,None,space,0.456276799999614,None,,,,,0,31,31,31,,,,,275.9770506999994,,,,,,,,,,,,,275.9618609999998,275.9770506999994,275.9770506999994,275.9770506999994,279.57463350000035,,,,279.5831488999993,279.59300319999966,279.59300319999966,279.63998770000035,279.6402357999996,279.6567137000002,279.6567137000002,279.6567137000002,279.7397168999996,280.1235751000004,,,,,,,,down,3.5807439999989583,None,space,0.456276799999614,None,,,,,,,,,,,,,,,P144,001,2025-04-09_13h12.07.034,posner_endo_new1,2024.2.4,60.07831809558039,2025-04-09 13h12.19.260223 +0100,
cube_r.png,0.1,0.31,valid,32,32,0,down,4.161455299999943,None,space,0.3888801000011881,None,,,,,0,32,32,32,,,,,280.13931070000035,,,,,,,,,,,,,280.12376890000087,280.13931070000035,280.13931070000035,280.13931070000035,284.30271879999964,,,,284.3097648999992,284.3214613,284.3214613,284.36846999999943,284.36871840000094,284.3851307999994,284.3851307999994,284.3851307999994,284.4683461000004,284.7855159999999,,,,,,,,down,4.161455299999943,None,space,0.3888801000011881,None,,,,,,,,,,,,,,,P144,001,2025-04-09_13h12.07.034,posner_endo_new1,2024.2.4,60.07831809558039,2025-04-09 13h12.19.260223 +0100,
cube_r.png,0.1,-0.31,invalid,33,33,0,down,4.363406000000396,None,space,0.4056951999991725,None,,,,,0,33,33,33,,,,,284.80135750000045,,,,,,,,,,,,,284.7857170999996,284.80135750000045,284.80135750000045,284.80135750000045,289.18098009999994,,,,289.1880056000009,289.1997119000007,289.1997119000007,289.24692909999976,289.24717919999966,289.26328269999976,289.26328269999976,289.26328269999976,289.33005890000095,289.6803459999992,,,,,,,,down,4.363406000000396,None,space,0.4056951999991725,None,,,,,,,,,,,,,,,P144,001,2025-04-09_13h12.07.034,posner_endo_new1,2024.2.4,60.07831809558039,2025-04-09 13h12.19.260223 +0100,
cube_r.png,0.1,10,catch,34,34,0,down,4.9326619999992545,None,None,,,,,,,0,34,34,34,,,,,289.6963039000002,,,,,,,,,,,,,289.68054049999955,289.6963039000002,289.6963039000002,289.6963039000002,294.64211930000056,,,,294.6491480000004,294.6609091999999,294.6609091999999,294.70791199999985,294.70842749999974,294.7243232000001,294.7243232000001,294.7243232000001,294.8076139999994,297.72229040000093,,,,296.8225831,297.7381339000003,297.7381339000003,297.7381339000003,down,4.9326619999992545,None,None,,,,,,,,,,,,,,,,,P144,001,2025-04-09_13h12.07.034,posner_endo_new1,2024.2.4,60.07831809558039,2025-04-09 13h12.19.260223 +0100,
cube_r.png,0.1,0.31,valid,35,35,0,down,4.259383299999172,None,space,0.3795351999997365,None,,,,,0,35,35,35,,,,,297.7381339000003,,,,,,,,,,,,,297.7225581999992,297.7381339000003,297.7381339000003,297.7381339000003,302.0016058000001,,,,302.01273890000084,302.02305049999995,302.02305049999995,302.0672899000001,302.0676466999994,302.08376990000033,302.08376990000033,302.08376990000033,302.1669017000004,302.46802860000025,,,,,,,,down,4.259383299999172,None,space,0.3795351999997365,None,,,,,,,,,,,,,,,P144,001,2025-04-09_13h12.07.034,posner_endo_new1,2024.2.4,60.07831809558039,2025-04-09 13h12.19.260223 +0100,
cube_r.png,0.1,-0.31,invalid,36,36,0,down,5.4890778999997565,None,space,0.44213760000093316,None,,,,,0,36,36,36,,,,,302.48336820000077,,,,,,,,,,,,,302.46834339999987,302.48336820000077,302.48336820000077,302.48336820000077,307.9788908999999,,,,307.98994010000024,308.0003345999994,308.0003345999994,308.04438669999945,308.0447444000001,308.0609611,308.0609611,308.0609611,308.14424209999925,308.5116419999995,,,,,,,,down,5.4890778999997565,None,space,0.44213760000093316,None,,,,,,,,,,,,,,,P144,001,2025-04-09_13h12.07.034,posner_endo_new1,2024.2.4,60.07831809558039,2025-04-09 13h12.19.260223 +0100,
cube_l.png,0.1,0.31,invalid,37,37,0,down,5.597498799999812,None,space,0.4462269000014203,None,,,,,0,37,37,37,,,,,308.5272122999995,,,,,,,,,,,,,308.5119362000005,308.5272122999995,308.5272122999995,308.5272122999995,314.1392849999993,,,,314.15033070000027,314.16104260000066,314.16104260000066,314.20484580000084,314.2051905999997,314.2212982000001,314.2212982000001,314.2212982000001,314.30458890000045,314.67220610000004,,,,,,,,down,5.597498799999812,None,space,0.4462269000014203,None,,,,,,,,,,,,,,,P144,001,2025-04-09_13h12.07.034,posner_endo_new1,2024.2.4,60.07831809558039,2025-04-09 13h12.19.260223 +0100,
cube_l.png,0.1,0.31,invalid,38,38,0,down,4.934200600000622,None,space,0.5038226000015129,None,,,,,0,38,38,38,,,,,314.68753090000064,,,,,,,,,,,,,314.6724959000003,314.68753090000064,314.68753090000064,314.68753090000064,319.63356340000064,,,,319.6446027000002,319.65487589999975,319.65487589999975,319.6992809000003,319.69962880000094,319.7156756000004,319.7156756000004,319.7156756000004,319.7989772000001,320.2330643999994,,,,,,,,down,4.934200600000622,None,space,0.5038226000015129,None,,,,,,,,,,,,,,,P144,001,2025-04-09_13h12.07.034,posner_endo_new1,2024.2.4,60.07831809558039,2025-04-09 13h12.19.260223 +0100,
cube_r.png,0.1,0.31,valid,39,39,0,down,5.548337899999751,None,space,0.4056802000013704,None,,,,,0,39,39,39,,,,,320.2484576000006,,,,,,,,,,,,,320.23334760000034,320.2484576000006,320.2484576000006,320.2484576000006,325.81071730000076,,,,325.8217447999996,325.8320533999995,325.8320533999995,325.8763068999997,325.8766563999998,325.8927863000008,325.8927863000008,325.8927863000008,325.97599459999947,326.31025489999956,,,,,,,,down,5.548337899999751,None,space,0.4056802000013704,None,,,,,,,,,,,,,,,P144,001,2025-04-09_13h12.07.034,posner_endo_new1,2024.2.4,60.07831809558039,2025-04-09 13h12.19.260223 +0100,
cube_l.png,0.1,0.31,invalid,40,40,0,down,5.743652600000132,None,space,0.5156638000007661,None,,,,,0,40,40,40,,,,,326.3257252000003,,,,,,,,,,,,,326.31054790000053,326.3257252000003,326.3257252000003,326.3257252000003,332.0711919000005,,,,332.0811568000008,332.09088560000055,332.09088560000055,332.1365167999993,332.1367577000001,332.1530791999994,332.1530791999994,332.1530791999994,332.23616220000076,332.6699647000005,,,,,,,,down,5.743652600000132,None,space,0.5156638000007661,None,,,,,,,,,,,,,,,P144,001,2025-04-09_13h12.07.034,posner_endo_new1,2024.2.4,60.07831809558039,2025-04-09 13h12.19.260223 +0100,
cube_l.png,0.1,10,catch,41,41,0,down,6.382953700000144,None,None,,,,,,,0,41,41,41,,,,,332.6857782999996,,,,,,,,,,,,,332.6701453000005,332.6857782999996,332.6857782999996,332.6857782999996,339.08003199999985,,,,339.08666640000047,339.0984482999993,339.0984482999993,339.1460767999997,339.1462991999997,339.16280820000065,339.16280820000065,339.16280820000065,339.24579169999924,342.16031909999947,,,,341.26043390000086,342.1760531,342.1760531,342.1760531,down,6.382953700000144,None,None,,,,,,,,,,,,,,,,,P144,001,2025-04-09_13h12.07.034,posner_endo_new1,2024.2.4,60.07831809558039,2025-04-09 13h12.19.260223 +0100,
cube_l.png,0.1,-0.31,valid,42,42,0,down,3.3411059999998542,None,space,0.3865860999994766,None,,,,,0,42,42,42,,,,,342.1760531,,,,,,,,,,,,,342.1604779999998,342.1760531,342.1760531,342.1760531,345.52335760000096,,,,345.5291343000008,345.5408719999996,345.5408719999996,345.58932260000074,345.5895447999992,345.6059244999997,345.6059244999997,345.6059244999997,345.6724756000003,346.0063033000006,,,,,,,,down,3.3411059999998542,None,space,0.3865860999994766,None,,,,,,,,,,,,,,,P144,001,2025-04-09_13h12.07.034,posner_endo_new1,2024.2.4,60.07831809558039,2025-04-09 13h12.19.260223 +0100,
cube_l.png,0.1,10,catch,43,43,0,down,5.182694099999935,None,None,,,,,,,0,43,43,43,,,,,346.0220121000002,,,,,,,,,,,,,346.0064705999994,346.0220121000002,346.0220121000002,346.0220121000002,351.21747940000023,,,,351.2232992999998,351.23482669999976,351.23482669999976,351.28355700000066,351.2837837999996,351.30019429999993,351.30019429999993,351.30019429999993,351.36668699999973,354.29753770000025,,,,353.3812932000001,354.31370699999934,354.31370699999934,354.31370699999934,down,5.182694099999935,None,None,,,,,,,,,,,,,,,,,P144,001,2025-04-09_13h12.07.034,posner_endo_new1,2024.2.4,60.07831809558039,2025-04-09 13h12.19.260223 +0100,
cube_l.png,0.1,0.31,invalid,44,44,0,down,3.47512370000004,None,space,0.3676064999999653,None,,,,,0,44,44,44,,,,,354.31370699999934,,,,,,,,,,,,,354.29769339999984,354.31370699999934,354.31370699999934,354.31370699999934,357.7943584000004,,,,357.8001064,357.81185539999933,357.81185539999933,357.86016759999984,357.86039189999974,357.87678609999966,357.87678609999966,357.87678609999966,357.9600769000008,358.26039090000086,,,,,,,,down,3.47512370000004,None,space,0.3676064999999653,None,,,,,,,,,,,,,,,P144,001,2025-04-09_13h12.07.034,posner_endo_new1,2024.2.4,60.07831809558039,2025-04-09 13h12.19.260223 +0100,
cube_l.png,0.1,0.31,invalid,45,45,0,down,8.504317800001445,None,space,0.37235270000019227,None,,,,,0,45,45,45,,,,,358.27626899999996,,,,,,,,,,,,,358.2605633000003,358.27626899999996,358.27626899999996,358.27626899999996,366.7850495999992,,,,366.79076560000067,366.80244259999927,366.80244259999927,366.8510609999994,366.8516012,366.8674535000009,366.8674535000009,366.8674535000009,366.9507257000005,367.2524123000003,,,,,,,,down,8.504317800001445,None,space,0.37235270000019227,None,,,,,,,,,,,,,,,P144,001,2025-04-09_13h12.07.034,posner_endo_new1,2024.2.4,60.07831809558039,2025-04-09 13h12.19.260223 +0100,
cube_r.png,0.1,0.31,valid,46,46,0,down,3.074459299999944,None,space,0.396624700000757,None,,,,,0,46,46,46,,,,,367.2670197999996,,,,,,,,,,,,,367.2528863999996,367.2670197999996,367.2670197999996,367.2670197999996,370.3492274,,,,370.3670473000002,370.3783985000009,370.3783985000009,370.4140344000007,370.4145810000009,370.4304706999992,370.4304706999992,370.4304706999992,370.5137192000002,370.8322172999997,,,,,,,,down,3.074459299999944,None,space,0.396624700000757,None,,,,,,,,,,,,,,,P144,001,2025-04-09_13h12.07.034,posner_endo_new1,2024.2.4,60.07831809558039,2025-04-09 13h12.19.260223 +0100,
cube_l.png,0.1,-0.31,valid,47,47,0,down,5.8782914000003075,None,space,0.3860664000003453,None,,,,,0,47,47,47,,,,,370.8467369000009,,,,,,,,,,,,,370.83268449999923,370.8467369000009,370.8467369000009,370.8467369000009,376.74239730000045,,,,376.76052270000037,376.7713289000003,376.7713289000003,376.8074904999994,376.80806830000074,376.82396530000005,376.82396530000005,376.82396530000005,376.9071684999999,377.2256047999999,,,,,,,,down,5.8782914000003075,None,space,0.3860664000003453,None,,,,,,,,,,,,,,,P144,001,2025-04-09_13h12.07.034,posner_endo_new1,2024.2.4,60.07831809558039,2025-04-09 13h12.19.260223 +0100,
cube_r.png,0.1,-0.31,invalid,48,48,0,down,5.1493503999990935,None,space,0.44436490000043705,None,,,,,0,48,48,48,,,,,377.2401492000008,,,,,,,,,,,,,377.22607380000045,377.2401492000008,377.2401492000008,377.2401492000008,382.40346110000064,,,,382.4213328000005,382.4326612999994,382.4326612999994,382.46846039999946,382.4690016000004,382.4848514999994,382.4848514999994,382.4848514999994,382.56809070000054,382.93627879999985,,,,,,,,down,5.1493503999990935,None,space,0.44436490000043705,None,,,,,,,,,,,,,,,P144,001,2025-04-09_13h12.07.034,posner_endo_new1,2024.2.4,60.07831809558039,2025-04-09 13h12.19.260223 +0100,
cube_r.png,0.1,10,catch,49,49,0,down,3.958463799999663,None,None,,,,,,,0,49,49,49,,,,,382.9510009000005,,,,,,,,,,,,,382.9367342000005,382.9510009000005,382.9510009000005,382.9510009000005,386.9157897999994,,,,386.9336662000005,386.9450768000006,386.9450768000006,386.9806501000003,386.9811969000002,386.9968726999996,386.9968726999996,386.9968726999996,387.08013030000075,389.9949190999996,,,,389.09475120000025,390.0104917999997,390.0104917999997,390.0104917999997,down,3.958463799999663,None,None,,,,,,,,,,,,,,,,,P144,001,2025-04-09_13h12.07.034,posner_endo_new1,2024.2.4,60.07831809558039,2025-04-09 13h12.19.260223 +0100,
cube_l.png,0.1,-0.31,valid,50,50,0,down,3.786673900000096,None,space,0.3692907999993622,None,,,,,0,50,50,50,,,,,390.0104917999997,,,,,,,,,,,,,389.99534569999923,390.0104917999997,390.0104917999997,390.0104917999997,393.8084464000003,,,,393.8262993999997,393.83762989999923,393.83762989999923,393.87344160000066,393.8739827999998,393.88985350000075,393.88985350000075,393.88985350000075,393.97308239999984,394.2747545000002,,,,,,,,down,3.786673900000096,None,space,0.3692907999993622,None,,,,,,,,,,,,,,,P144,001,2025-04-09_13h12.07.034,posner_endo_new1,2024.2.4,60.07831809558039,2025-04-09 13h12.19.260223 +0100,
cube_l.png,0.1,-0.31,valid,51,51,0,down,9.003975199999331,None,space,0.38400480000018433,None,,,,,0,51,51,51,,,,,394.2894355999997,,,,,,,,,,,,,394.2752323000004,394.2894355999997,394.2894355999997,394.2894355999997,403.2983514000007,,,,403.3094132999995,403.3197443000008,403.3197443000008,403.3638071999994,403.36415020000095,403.3802066999997,403.3802066999997,403.3802066999997,403.4635844000004,403.78109399999994,,,,,,,,down,9.003975199999331,None,space,0.38400480000018433,None,,,,,,,,,,,,,,,P144,001,2025-04-09_13h12.07.034,posner_endo_new1,2024.2.4,60.07831809558039,2025-04-09 13h12.19.260223 +0100,
cube_r.png,0.1,-0.31,invalid,52,52,0,down,4.648312600000281,None,space,0.44045829999959096,None,,,,,0,52,52,52,,,,,403.79637530000036,,,,,,,,,,,,,403.78137330000027,403.79637530000036,403.79637530000036,403.79637530000036,408.45953480000026,,,,408.47060319999946,408.48087789999954,408.48087789999954,408.52520709999953,408.52555829999983,408.54178130000037,408.54178130000037,408.54178130000037,408.6250077000004,408.99234889999934,,,,,,,,down,4.648312600000281,None,space,0.44045829999959096,None,,,,,,,,,,,,,,,P144,001,2025-04-09_13h12.07.034,posner_endo_new1,2024.2.4,60.07831809558039,2025-04-09 13h12.19.260223 +0100,
cube_l.png,0.1,-0.31,valid,53,53,0,down,4.988912799999525,None,space,0.48502490000100806,None,,,,,0,53,53,53,,,,,409.0078718999994,,,,,,,,,,,,,408.9926335,409.0078718999994,409.0078718999994,409.0078718999994,414.0038215000004,,,,414.0126166000009,414.0223611000001,414.0223611000001,414.0695185000004,414.0697717999992,414.0860425999999,414.0860425999999,414.0860425999999,414.16917230000035,414.5862352000004,,,,,,,,down,4.988912799999525,None,space,0.48502490000100806,None,,,,,,,,,,,,,,,P144,001,2025-04-09_13h12.07.034,posner_endo_new1,2024.2.4,60.07831809558039,2025-04-09 13h12.19.260223 +0100,
cube_r.png,0.1,10,catch,54,54,0,down,4.866941700000098,None,None,,,,,,,0,54,54,54,,,,,414.60218840000016,,,,,,,,,,,,,414.58643069999926,414.60218840000016,414.60218840000016,414.60218840000016,419.48127569999997,,,,419.48834700000043,419.50006829999984,419.50006829999984,419.5471486999995,419.5473997000008,419.5637480000005,419.5637480000005,419.5637480000005,419.6302962999998,422.56131730000016,,,,421.64502130000074,422.5773616000006,422.5773616000006,422.5773616000006,down,4.866941700000098,None,None,,,,,,,,,,,,,,,,,P144,001,2025-04-09_13h12.07.034,posner_endo_new1,2024.2.4,60.07831809558039,2025-04-09 13h12.19.260223 +0100,
cube_l.png,0.1,0.31,invalid,55,55,0,down,3.8196328000012727,None,space,0.3943534999998519,None,,,,,0,55,55,55,,,,,422.5773616000006,,,,,,,,,,,,,422.56149560000085,422.5773616000006,422.5773616000006,422.5773616000006,426.40761139999995,,,,426.4146853000002,426.42642329999944,426.42642329999944,426.4733648000001,426.4738804999997,426.48976070000026,426.48976070000026,426.48976070000026,426.57301870000083,426.89127240000016,,,,,,,,down,3.8196328000012727,None,space,0.3943534999998519,None,,,,,,,,,,,,,,,P144,001,2025-04-09_13h12.07.034,posner_endo_new1,2024.2.4,60.07831809558039,2025-04-09 13h12.19.260223 +0100,
cube_l.png,0.1,-0.31,valid,56,56,0,down,5.307524800000465,None,space,0.4654972000007547,None,,,,,0,56,56,56,,,,,426.906007900001,,,,,,,,,,,,,426.8917270000002,426.906007900001,426.906007900001,426.906007900001,432.21868840000025,,,,432.22976440000093,432.24006720000034,432.24006720000034,432.28427530000044,432.2846277999997,432.3008023000002,432.3008023000002,432.3008023000002,432.38408230000096,432.7682734000009,,,,,,,,down,5.307524800000465,None,space,0.4654972000007547,None,,,,,,,,,,,,,,,P144,001,2025-04-09_13h12.07.034,posner_endo_new1,2024.2.4,60.07831809558039,2025-04-09 13h12.19.260223 +0100,
cube_r.png,0.1,0.31,valid,57,57,0,down,6.981432700000369,None,space,0.5025978000012401,None,,,,,0,57,57,57,,,,,432.78362840000045,,,,,,,,,,,,,432.76855629999955,432.78362840000045,432.78362840000045,432.78362840000045,439.7771558000004,,,,439.78432559999965,439.79604819999986,439.79604819999986,439.84313440000005,439.8433843999992,439.8599462000002,439.8599462000002,439.8599462000002,439.94290720000026,440.37639189999936,,,,,,,,down,6.981432700000369,None,space,0.5025978000012401,None,,,,,,,,,,,,,,,P144,001,2025-04-09_13h12.07.034,posner_endo_new1,2024.2.4,60.07831809558039,2025-04-09 13h12.19.260223 +0100,
cube_r.png,0.1,-0.31,invalid,58,58,0,down,6.109261499999775,None,space,0.6011899999994057,None,,,,,0,58,58,58,,,,,440.3925137999995,,,,,,,,,,,,,440.37658740000006,440.3925137999995,440.3925137999995,440.3925137999995,446.50368549999985,,,,446.5107871,446.52250690000074,446.52250690000074,446.5695821999998,446.5698291000008,446.5860324999994,446.5860324999994,446.5860324999994,446.65265739999995,447.20290399999976,,,,,,,,down,6.109261499999775,None,space,0.6011899999994057,None,,,,,,,,,,,,,,,P144,001,2025-04-09_13h12.07.034,posner_endo_new1,2024.2.4,60.07831809558039,2025-04-09 13h12.19.260223 +0100,
cube_l.png,0.1,0.31,invalid,59,59,0,down,4.082813900000474,None,space,0.4407755000011093,None,,,,,0,59,59,59,,,,,447.21891700000015,,,,,,,,,,,,,447.2030935999992,447.21891700000015,447.21891700000015,447.21891700000015,451.31537519999983,,,,451.3224434999993,451.33421479999924,451.33421479999924,451.3812914000009,451.3815408999999,451.39782190000005,451.39782190000005,451.39782190000005,451.46450000000004,451.84836879999966,,,,,,,,down,4.082813900000474,None,space,0.4407755000011093,None,,,,,,,,,,,,,,,P144,001,2025-04-09_13h12.07.034,posner_endo_new1,2024.2.4,60.07831809558039,2025-04-09 13h12.19.260223 +0100,
,,,,,,,,,,,,,,,,,,,,,,,,,,,,,,,,,,,,,,,,,,,,,,,,,,,,,,,,,,,,,,,,,,,,,451.8484941000006,451.8639251000004,451.8639251000004,511.86931259999983,516.0660380000008,space,64.1894941999999,None,,,,,,,P144,001,2025-04-09_13h12.07.034,posner_endo_new1,2024.2.4,60.07831809558039,2025-04-09 13h12.19.260223 +0100,
,,,,,,,,,,,,,,,,,,,,,,,,,,,,,,,,,,516.0660955999992,516.0817145000001,519.1507010000005,519.0624955000003,,,,,,,,,,,,,,,,,,,,,,,,,,,,,,,,,,,,,,,,,,,,,,P144,001,2025-04-09_13h12.07.034,posner_endo_new1,2024.2.4,60.07831809558039,2025-04-09 13h12.19.260223 +0100,
cube_l.png,0.1,10,catch,0,0,0,up,12.935043100000257,None,None,,,,,,,,,,,0,0,0,0,519.1507010000005,,,,,,,,,,,,,519.1426124000009,519.1507010000005,519.1507010000005,519.1507010000005,532.0996238000007,,,,532.1058730999994,532.1177143000004,532.1177143000004,532.1656266999998,532.1658568000003,532.1819892000003,532.1819892000003,532.1819892000003,532.2654731000002,535.1795775999999,,,,534.2795308999994,535.1953013000002,535.1953013000002,535.1953013000002,,,,,,,,,,,,,,,up,12.935043100000257,None,None,,,P144,001,2025-04-09_13h12.07.034,posner_endo_new1,2024.2.4,60.07831809558039,2025-04-09 13h12.19.260223 +0100,
cube_l.png,0.1,10,catch,1,1,0,up,3.202038299999913,None,None,,,,,,,,,,,0,1,1,1,535.1953013000002,,,,,,,,,,,,,535.1799308999998,535.1953013000002,535.1953013000002,535.1953013000002,538.4101671999997,,,,538.4195493000007,538.4291558999994,538.4291558999994,538.4756376999994,538.4758626000003,538.4923772000002,538.4923772000002,538.4923772000002,538.5756581999995,541.4897538000005,,,,540.590194800001,541.5059345999998,541.5059345999998,541.5059345999998,,,,,,,,,,,,,,,up,3.202038299999913,None,None,,,P144,001,2025-04-09_13h12.07.034,posner_endo_new1,2024.2.4,60.07831809558039,2025-04-09 13h12.19.260223 +0100,
cube_l.png,0.1,0.31,invalid,2,2,0,up,1.5641584000004514,None,space,0.39007089999904565,None,,,,,,,,,0,2,2,2,541.5059345999998,,,,,,,,,,,,,541.4899136000004,541.5059345999998,541.5059345999998,541.5059345999998,543.0717894000009,,,,543.0780629000001,543.0896739,543.0896739,543.1376120999994,543.1378375000004,543.1543887999997,543.1543887999997,543.1543887999997,543.2207555999994,543.5546656999995,,,,,,,,,,,,,,,,,,,,,,up,1.5641584000004514,None,space,0.39007089999904565,None,P144,001,2025-04-09_13h12.07.034,posner_endo_new1,2024.2.4,60.07831809558039,2025-04-09 13h12.19.260223 +0100,
cube_l.png,0.1,0.31,invalid,3,3,0,up,4.522777500000302,None,space,0.7087962999994488,None,,,,,,,,,0,3,3,3,543.5703023000005,,,,,,,,,,,,,543.5548376999996,543.5703023000005,543.5703023000005,543.5703023000005,548.0999489000005,,,,548.1058661000006,548.1176307999995,548.1176307999995,548.1656094000009,548.1658327000005,548.1825618999992,548.1825618999992,548.1825618999992,548.2490440000001,548.8990472999994,,,,,,,,,,,,,,,,,,,,,,up,4.522777500000302,None,space,0.7087962999994488,None,P144,001,2025-04-09_13h12.07.034,posner_endo_new1,2024.2.4,60.07831809558039,2025-04-09 13h12.19.260223 +0100,
cube_l.png,0.1,-0.31,valid,4,4,0,up,4.050297400001,None,space,0.48407330000009097,None,,,,,,,,,0,4,4,4,548.9149345000005,,,,,,,,,,,,,548.8992189,548.9149345000005,548.9149345000005,548.9149345000005,552.9790599000007,,,,552.9956029999994,553.0071674999999,553.0071674999999,553.0442533000005,553.0445593000004,553.0607990000008,553.0607990000008,553.0607990000008,553.1440304999996,553.5613288999994,,,,,,,,,,,,,,,,,,,,,,up,4.050297400001,None,space,0.48407330000009097,None,P144,001,2025-04-09_13h12.07.034,posner_endo_new1,2024.2.4,60.07831809558039,2025-04-09 13h12.19.260223 +0100,
cube_r.png,0.1,-0.31,invalid,5,5,0,up,4.34094449999975,None,space,0.44873069999994186,None,,,,,,,,,0,5,5,5,553.5769228000008,,,,,,,,,,,,,553.5615813999993,553.5769228000008,553.5769228000008,553.5769228000008,557.9235647999994,,,,557.9348379000003,557.9451831000006,557.9451831000006,557.9892258,557.989570400001,558.0057546999997,558.0057546999997,558.0057546999997,558.0890073999999,558.4564155999997,,,,,,,,,,,,,,,,,,,,,,up,4.34094449999975,None,space,0.44873069999994186,None,P144,001,2025-04-09_13h12.07.034,posner_endo_new1,2024.2.4,60.07831809558039,2025-04-09 13h12.19.260223 +0100,
cube_r.png,0.1,0.31,valid,6,6,0,up,4.2536223999995855,None,space,0.42670650000036403,None,,,,,,,,,0,6,6,6,558.4718727,,,,,,,,,,,,,558.4567038000005,558.4718727,558.4718727,558.4718727,562.7354207000008,,,,562.7466139000007,562.7569970000004,562.7569970000004,562.8009695000001,562.8013119000007,562.8174796999992,562.8174796999992,562.8174796999992,562.9007849999998,563.2515853999994,,,,,,,,,,,,,,,,,,,,,,up,4.2536223999995855,None,space,0.42670650000036403,None,P144,001,2025-04-09_13h12.07.034,posner_endo_new1,2024.2.4,60.07831809558039,2025-04-09 13h12.19.260223 +0100,
cube_r.png,0.1,-0.31,invalid,7,7,0,up,4.7461073999984364,None,space,0.4438073000001168,None,,,,,,,,,0,7,7,7,563.2670440000002,,,,,,,,,,,,,563.2518739000006,563.2670440000002,563.2670440000002,563.2670440000002,568.0299739000002,,,,568.0412649999998,568.0512331000009,568.0512331000009,568.0956735,568.0960288000006,568.1120410000003,568.1120410000003,568.1120410000003,568.1953008,568.5626393000002,,,,,,,,,,,,,,,,,,,,,,up,4.7461073999984364,None,space,0.4438073000001168,None,P144,001,2025-04-09_13h12.07.034,posner_endo_new1,2024.2.4,60.07831809558039,2025-04-09 13h12.19.260223 +0100,
cube_l.png,0.1,-0.31,valid,8,8,0,up,5.243670699999711,None,space,0.36949340000137454,None,,,,,,,,,0,8,8,8,568.5782522000009,,,,,,,,,,,,,568.5629351999996,568.5782522000009,568.5782522000009,568.5782522000009,573.8243223999998,,,,573.8357606999998,573.8460950000008,573.8460950000008,573.8897061000007,573.8900579000001,573.9061849000009,573.9061849000009,573.9061849000009,573.9895543000002,574.2903415000001,,,,,,,,,,,,,,,,,,,,,,up,5.243670699999711,None,space,0.36949340000137454,None,P144,001,2025-04-09_13h12.07.034,posner_endo_new1,2024.2.4,60.07831809558039,2025-04-09 13h12.19.260223 +0100,
cube_r.png,0.1,-0.31,invalid,9,9,0,up,3.915206699999544,None,space,0.36232229999950505,None,,,,,,,,,0,9,9,9,574.3058541999999,,,,,,,,,,,,,574.2906366999996,574.3058541999999,574.3058541999999,574.3058541999999,578.2363155999992,,,,578.2475436999994,578.2579198999993,578.2579198999993,578.3018487000008,578.3021912999993,578.3183671000006,578.3183671000006,578.3183671000006,578.4015249000004,578.6858990000001,,,,,,,,,,,,,,,,,,,,,,up,3.915206699999544,None,space,0.36232229999950505,None,P144,001,2025-04-09_13h12.07.034,posner_endo_new1,2024.2.4,60.07831809558039,2025-04-09 13h12.19.260223 +0100,
cube_l.png,0.1,0.31,invalid,10,10,0,up,5.175845300000219,None,space,0.4153046000010363,None,,,,,,,,,0,10,10,10,578.7012806000002,,,,,,,,,,,,,578.6861900999993,578.7012806000002,578.7012806000002,578.7012806000002,583.8806031000004,,,,583.8918567000001,583.9021190999993,583.9021190999993,583.9459917000004,583.9463398999997,583.9625773999996,583.9625773999996,583.9625773999996,584.0457852,584.3800988000003,,,,,,,,,,,,,,,,,,,,,,up,5.175845300000219,None,space,0.4153046000010363,None,P144,001,2025-04-09_13h12.07.034,posner_endo_new1,2024.2.4,60.07831809558039,2025-04-09 13h12.19.260223 +0100,
cube_r.png,0.1,-0.31,invalid,11,11,0,up,5.210603800000172,None,space,0.41083250000156113,None,,,,,,,,,0,11,11,11,584.3954983000003,,,,,,,,,,,,,584.3803872000008,584.3954983000003,584.3954983000003,584.3954983000003,589.6080273000007,,,,589.6193624999996,589.6296874,589.6296874,589.6736101000006,589.6739636000002,589.6900702999992,589.6900702999992,589.6900702999992,589.7733480999996,590.1076739,,,,,,,,,,,,,,,,,,,,,,up,5.210603800000172,None,space,0.41083250000156113,None,P144,001,2025-04-09_13h12.07.034,posner_endo_new1,2024.2.4,60.07831809558039,2025-04-09 13h12.19.260223 +0100,
cube_r.png,0.1,0.31,valid,12,12,0,up,4.154675499999939,None,space,0.3769549000007828,None,,,,,,,,,0,12,12,12,590.123051300001,,,,,,,,,,,,,590.1079723000003,590.123051300001,590.123051300001,590.123051300001,594.2865681999992,,,,594.2978645999992,594.3082692000007,594.3082692000007,594.352163900001,594.3525059999993,594.3686042999998,594.3686042999998,594.3686042999998,594.4519930999995,594.7527305000003,,,,,,,,,,,,,,,,,,,,,,up,4.154675499999939,None,space,0.3769549000007828,None,P144,001,2025-04-09_13h12.07.034,posner_endo_new1,2024.2.4,60.07831809558039,2025-04-09 13h12.19.260223 +0100,
cube_l.png,0.1,10,catch,13,13,0,up,5.197013200000583,None,None,,,,,,,,,,,0,13,13,13,594.7681974999996,,,,,,,,,,,,,594.7530207,594.7681974999996,594.7681974999996,594.7681974999996,599.9807005000002,,,,599.9918682000007,600.0022112000006,600.0022112000006,600.0463299000003,600.0466737000006,600.0627965999993,600.0627965999993,600.0627965999993,600.1461285999994,603.0606779999998,,,,602.1607139999996,603.0762950000008,603.0762950000008,603.0762950000008,,,,,,,,,,,,,,,up,5.197013200000583,None,None,,,P144,001,2025-04-09_13h12.07.034,posner_endo_new1,2024.2.4,60.07831809558039,2025-04-09 13h12.19.260223 +0100,
cube_r.png,0.1,-0.31,invalid,14,14,0,up,3.064752000000226,None,space,0.4541863000013109,None,,,,,,,,,0,14,14,14,603.0762950000008,,,,,,,,,,,,,603.0609614999994,603.0762950000008,603.0762950000008,603.0762950000008,606.1578093000007,,,,606.1692027000008,606.1791389999999,606.1791389999999,606.2233324000008,606.2236728000007,606.2397572999998,606.2397572999998,606.2397572999998,606.3230170999996,606.7072998999993,,,,,,,,,,,,,,,,,,,,,,up,3.064752000000226,None,space,0.4541863000013109,None,P144,001,2025-04-09_13h12.07.034,posner_endo_new1,2024.2.4,60.07831809558039,2025-04-09 13h12.19.260223 +0100,
cube_l.png,0.1,-0.31,valid,15,15,0,up,7.170716900000116,None,space,0.4692123000004358,None,,,,,,,,,0,15,15,15,606.7226635999996,,,,,,,,,,,,,606.7075886999992,606.7226635999996,606.7226635999996,606.7226635999996,613.8999650999995,,,,613.9111240000002,613.9213397000003,613.9213397000003,613.9655368000003,613.9658813000005,613.9818166000005,613.9818166000005,613.9818166000005,614.0651794000005,614.4658163000004,,,,,,,,,,,,,,,,,,,,,,up,7.170716900000116,None,space,0.4692123000004358,None,P144,001,2025-04-09_13h12.07.034,posner_endo_new1,2024.2.4,60.07831809558039,2025-04-09 13h12.19.260223 +0100,
cube_r.png,0.1,10,catch,16,16,0,up,5.612796899999012,None,None,,,,,,,,,,,0,16,16,16,614.4813844,,,,,,,,,,,,,614.4661087999993,614.4813844,614.4813844,614.4813844,620.1101237999992,,,,620.1212914000007,620.1317006999998,620.1317006999998,620.1756948000002,620.1760458999997,620.1922460000005,620.1922460000005,620.1922460000005,620.2754956999997,623.1898758999996,,,,622.2902009000009,623.2058283000006,623.2058283000006,623.2058283000006,,,,,,,,,,,,,,,up,5.612796899999012,None,None,,,P144,001,2025-04-09_13h12.07.034,posner_endo_new1,2024.2.4,60.07831809558039,2025-04-09 13h12.19.260223 +0100,
cube_r.png,0.1,10,catch,17,17,0,up,1.0081645999998727,None,None,,,,,,,,,,,0,17,17,17,623.2058283000006,,,,,,,,,,,,,623.1901500000004,623.2058283000006,623.2058283000006,623.2058283000006,624.2228209999994,,,,624.2340533000006,624.2444286999998,624.2444286999998,624.2882561999995,624.2885999000009,624.3047248000003,624.3047248000003,624.3047248000003,624.3879945999997,627.3023840000005,,,,626.4025911000008,627.3185333000001,627.3185333000001,627.3185333000001,,,,,,,,,,,,,,,up,1.0081645999998727,None,None,,,P144,001,2025-04-09_13h12.07.034,posner_endo_new1,2024.2.4,60.07831809558039,2025-04-09 13h12.19.260223 +0100,
cube_l.png,0.1,0.31,invalid,18,18,0,up,5.45487409999987,None,space,0.4504022000000987,None,,,,,,,,,0,18,18,18,627.3185333000001,,,,,,,,,,,,,627.3026523999997,627.3185333000001,627.3185333000001,627.3185333000001,632.7805241000005,,,,632.7917221999996,632.8019483999997,632.8019483999997,632.8461764999993,632.8465371000002,632.8626397000007,632.8626397000007,632.8626397000007,632.9459253000005,633.3298978999992,,,,,,,,,,,,,,,,,,,,,,up,5.45487409999987,None,space,0.4504022000000987,None,P144,001,2025-04-09_13h12.07.034,posner_endo_new1,2024.2.4,60.07831809558039,2025-04-09 13h12.19.260223 +0100,
cube_l.png,0.1,10,catch,19,19,0,up,10.28382270000111,None,None,,,,,,,,,,,0,19,19,19,633.34555,,,,,,,,,,,,,633.3301936000007,633.34555,633.34555,633.34555,643.6362532999992,,,,643.6475437000008,643.6581576999997,643.6581576999997,643.7018633999996,643.7022096000001,643.7182001000001,643.7182001000001,643.7182001000001,643.8016029999999,646.7155378000007,,,,645.8160215000007,646.7318133000008,646.7318133000008,646.7318133000008,,,,,,,,,,,,,,,up,10.28382270000111,None,None,,,P144,001,2025-04-09_13h12.07.034,posner_endo_new1,2024.2.4,60.07831809558039,2025-04-09 13h12.19.260223 +0100,
cube_l.png,0.1,0.31,invalid,20,20,0,up,0.6979508000003989,None,space,0.3948216999997385,None,,,,,,,,,0,20,20,20,646.7318133000008,,,,,,,,,,,,,646.7157138000002,646.7318133000008,646.7318133000008,646.7318133000008,647.4318220000005,,,,647.4384671999996,647.4501553999999,647.4501553999999,647.4977041000002,647.4979425000001,647.5144762,647.5144762,647.5144762,647.5809141000009,647.9147811000003,,,,,,,,,,,,,,,,,,,,,,up,0.6979508000003989,None,space,0.3948216999997385,None,P144,001,2025-04-09_13h12.07.034,posner_endo_new1,2024.2.4,60.07831809558039,2025-04-09 13h12.19.260223 +0100,
cube_l.png,0.1,-0.31,valid,21,21,0,up,2.4347687999998016,None,space,0.3732278999996197,None,,,,,,,,,0,21,21,21,647.9305088000001,,,,,,,,,,,,,647.914968000001,647.9305088000001,647.9305088000001,647.9305088000001,650.3788772000007,,,,650.3855306999994,650.3972814000008,650.3972814000008,650.4446759000002,650.4451798999999,650.4611275000007,650.4611275000007,650.4611275000007,650.5443269000007,650.8458929999997,,,,,,,,,,,,,,,,,,,,,,up,2.4347687999998016,None,space,0.3732278999996197,None,P144,001,2025-04-09_13h12.07.034,posner_endo_new1,2024.2.4,60.07831809558039,2025-04-09 13h12.19.260223 +0100,
cube_r.png,0.1,0.31,valid,22,22,0,up,2.9931747000009636,None,space,0.3405026000000362,None,,,,,,,,,0,22,22,22,650.8607207999994,,,,,,,,,,,,,650.8463379000004,650.8607207999994,650.8607207999994,650.8607207999994,653.8589940000002,,,,653.8701263000003,653.8804416000003,653.8804416000003,653.9246980000007,653.9250444999998,653.9411244999992,653.9411244999992,653.9411244999992,654.0244333999999,654.2918231000003,,,,,,,,,,,,,,,,,,,,,,up,2.9931747000009636,None,space,0.3405026000000362,None,P144,001,2025-04-09_13h12.07.034,posner_endo_new1,2024.2.4,60.07831809558039,2025-04-09 13h12.19.260223 +0100,
cube_r.png,0.1,-0.31,invalid,23,23,0,up,1.6105585000004794,None,space,0.3902861999995366,None,,,,,,,,,0,23,23,23,654.3073399000004,,,,,,,,,,,,,654.2921117999995,654.3073399000004,654.3073399000004,654.3073399000004,655.9237537999998,,,,655.9324995000006,655.9423704000001,655.9423704000001,655.9891391000001,655.9893771999996,656.0056999000008,656.0056999000008,656.0056999000008,656.0887518,656.4060272999996,,,,,,,,,,,,,,,,,,,,,,up,1.6105585000004794,None,space,0.3902861999995366,None,P144,001,2025-04-09_13h12.07.034,posner_endo_new1,2024.2.4,60.07831809558039,2025-04-09 13h12.19.260223 +0100,
cube_r.png,0.1,0.31,valid,24,24,0,up,7.079532499999914,None,space,0.3775554000003467,None,,,,,,,,,0,24,24,24,656.4219444000009,,,,,,,,,,,,,656.406213100001,656.4219444000009,656.4219444000009,656.4219444000009,663.5152949999992,,,,663.5220738999997,663.5338957000004,663.5338957000004,663.5813197000007,663.5815579000009,663.5979657000007,663.5979657000007,663.5979657000007,663.6643786000004,663.9818651000005,,,,,,,,,,,,,,,,,,,,,,up,7.079532499999914,None,space,0.3775554000003467,None,P144,001,2025-04-09_13h12.07.034,posner_endo_new1,2024.2.4,60.07831809558039,2025-04-09 13h12.19.260223 +0100,
cube_r.png,0.1,-0.31,invalid,25,25,0,up,4.7760545000001,None,space,0.40759760000037204,None,,,,,,,,,0,25,25,25,663.9975832,,,,,,,,,,,,,663.9820529000008,663.9975832,663.9975832,663.9975832,668.7766663000002,,,,668.7833267000005,668.7950146999992,668.7950146999992,668.8425616999994,668.8428000000004,668.8591567000003,668.8591567000003,668.8591567000003,668.9258599000004,669.2762485000003,,,,,,,,,,,,,,,,,,,,,,up,4.7760545000001,None,space,0.40759760000037204,None,P144,001,2025-04-09_13h12.07.034,posner_endo_new1,2024.2.4,60.07831809558039,2025-04-09 13h12.19.260223 +0100,
cube_l.png,0.1,-0.31,valid,26,26,0,up,5.890430599998581,None,space,0.3438912000001437,None,,,,,,,,,0,26,26,26,669.2920422999996,,,,,,,,,,,,,669.2764351999995,669.2920422999996,669.2920422999996,669.2920422999996,675.1868928000004,,,,675.1935850000009,675.2053178999995,675.2053178999995,675.2527668000002,675.2530035,675.2692358999993,675.2692358999993,675.2692358999993,675.3524154999996,675.6199914000008,,,,,,,,,,,,,,,,,,,,,,up,5.890430599998581,None,space,0.3438912000001437,None,P144,001,2025-04-09_13h12.07.034,posner_endo_new1,2024.2.4,60.07831809558039,2025-04-09 13h12.19.260223 +0100,
cube_r.png,0.1,0.31,valid,27,27,0,up,5.12230499999896,None,space,0.34319800000048417,None,,,,,,,,,0,27,27,27,675.6356658999994,,,,,,,,,,,,,675.6201762000001,675.6356658999994,675.6356658999994,675.6356658999994,680.7645243000006,,,,680.7703652,680.7820517,680.7820517,680.8304458000002,680.8306694999992,680.8470496999998,680.8470496999998,680.8470496999998,680.9137021000006,681.1972413000003,,,,,,,,,,,,,,,,,,,,,,up,5.12230499999896,None,space,0.34319800000048417,None,P144,001,2025-04-09_13h12.07.034,posner_endo_new1,2024.2.4,60.07831809558039,2025-04-09 13h12.19.260223 +0100,
cube_r.png,0.1,10,catch,28,28,0,up,5.745080300001064,None,None,,,,,,,,,,,0,28,28,28,681.2132751000008,,,,,,,,,,,,,681.1974133000003,681.2132751000008,681.2132751000008,681.2132751000008,686.9747702000004,,,,686.9805489999999,686.9918973999993,686.9918973999993,687.0408984999995,687.0411227000004,687.0573144000009,687.0573144000009,687.0573144000009,687.1239807000002,690.0547091000008,,,,689.1384288000008,690.070888100001,690.070888100001,690.070888100001,,,,,,,,,,,,,,,up,5.745080300001064,None,None,,,P144,001,2025-04-09_13h12.07.034,posner_endo_new1,2024.2.4,60.07831809558039,2025-04-09 13h12.19.260223 +0100,
cube_r.png,0.1,0.31,valid,29,29,0,up,2.398741599999994,None,space,0.4792088000012882,None,,,,,,,,,0,29,29,29,690.070888100001,,,,,,,,,,,,,690.0548713000007,690.070888100001,690.070888100001,690.070888100001,692.4857759999995,,,,692.4914716000003,692.5031961999994,692.5031961999994,692.5517985999995,692.5520226999997,692.5683675,692.5683675,692.5683675,692.6349097000002,693.0520792999996,,,,,,,,,,,,,,,,,,,,,,up,2.398741599999994,None,space,0.4792088000012882,None,P144,001,2025-04-09_13h12.07.034,posner_endo_new1,2024.2.4,60.07831809558039,2025-04-09 13h12.19.260223 +0100,
cube_r.png,0.1,0.31,valid,30,30,0,up,5.978248899999016,None,space,0.36559290000150213,None,,,,,,,,,0,30,30,30,693.0677981999997,,,,,,,,,,,,,693.0522535,693.0677981999997,693.0677981999997,693.0677981999997,699.0623734000019,,,,699.0681921999985,699.0811196999985,699.0811196999985,699.1283273999998,699.1288612000008,699.1446889999988,699.1446889999988,699.1446889999988,699.2115390000017,699.5123944999996,,,,,,,,,,,,,,,,,,,,,,up,5.978248899999016,None,space,0.36559290000150213,None,P144,001,2025-04-09_13h12.07.034,posner_endo_new1,2024.2.4,60.07831809558039,2025-04-09 13h12.19.260223 +0100,
cube_l.png,0.1,-0.31,valid,31,31,0,up,5.421742999998969,None,space,0.3463493999988714,None,,,,,,,,,0,31,31,31,699.5279017000012,,,,,,,,,,,,,699.5126929999988,699.5279017000012,699.5279017000012,699.5279017000012,704.9569637000004,,,,704.9680858000011,704.9783732999986,704.9783732999986,705.0224518000014,705.0227991000011,705.0390419000014,705.0390419000014,705.0390419000014,705.1221878999986,705.3899795999987,,,,,,,,,,,,,,,,,,,,,,up,5.421742999998969,None,space,0.3463493999988714,None,P144,001,2025-04-09_13h12.07.034,posner_endo_new1,2024.2.4,60.07831809558039,2025-04-09 13h12.19.260223 +0100,
cube_r.png,0.1,0.31,valid,32,32,0,up,5.272788999998738,None,space,0.37712639999881503,None,,,,,,,,,0,32,32,32,705.4051350999998,,,,,,,,,,,,,705.3902976000008,705.4051350999998,705.4051350999998,705.4051350999998,710.6845441999994,,,,710.6956167000008,710.7059511999996,710.7059511999996,710.7498598000002,710.7502041999996,710.766495599999,710.766495599999,710.766495599999,710.8496671999983,711.1504396,,,,,,,,,,,,,,,,,,,,,,up,5.272788999998738,None,space,0.37712639999881503,None,P144,001,2025-04-09_13h12.07.034,posner_endo_new1,2024.2.4,60.07831809558039,2025-04-09 13h12.19.260223 +0100,
cube_r.png,0.1,-0.31,invalid,33,33,0,up,4.816058799999155,None,space,0.3800745000007737,None,,,,,,,,,0,33,33,33,711.1660083000006,,,,,,,,,,,,,711.1507373000004,711.1660083000006,711.1660083000006,711.1660083000006,715.9956203999991,,,,716.0067943000013,716.0169874000003,716.0169874000003,716.061246700001,716.0615961999993,716.0777061999997,716.0777061999997,716.0777061999997,716.161208200001,716.4619035000014,,,,,,,,,,,,,,,,,,,,,,up,4.816058799999155,None,space,0.3800745000007737,None,P144,001,2025-04-09_13h12.07.034,posner_endo_new1,2024.2.4,60.07831809558039,2025-04-09 13h12.19.260223 +0100,
cube_r.png,0.1,10,catch,34,34,0,up,4.48938349999662,None,None,,,,,,,,,,,0,34,34,34,716.4772595000013,,,,,,,,,,,,,716.4621913999999,716.4772595000013,716.4772595000013,716.4772595000013,720.9738505000005,,,,720.9850685000001,720.9954617999992,720.9954617999992,721.0394601999997,721.0398078000017,721.0558723000013,721.0558723000013,721.0558723000013,721.1392007999984,724.0535809000012,,,,723.1537840000001,724.0695327000012,724.0695327000012,724.0695327000012,,,,,,,,,,,,,,,up,4.48938349999662,None,None,,,P144,001,2025-04-09_13h12.07.034,posner_endo_new1,2024.2.4,60.07831809558039,2025-04-09 13h12.19.260223 +0100,
cube_r.png,0.1,0.31,valid,35,35,0,up,1.6324539000015648,None,space,0.445501800000784,None,,,,,,,,,0,35,35,35,724.0695327000012,,,,,,,,,,,,,724.0538542000013,724.0695327000012,724.0695327000012,724.0695327000012,725.7189879999987,,,,725.7300477000008,725.7399786000005,725.7399786000005,725.7845563999999,725.7849162000002,725.8012261999993,725.8012261999993,725.8012261999993,725.8843743000016,726.2518550000004,,,,,,,,,,,,,,,,,,,,,,up,1.6324539000015648,None,space,0.445501800000784,None,P144,001,2025-04-09_13h12.07.034,posner_endo_new1,2024.2.4,60.07831809558039,2025-04-09 13h12.19.260223 +0100,
cube_r.png,0.1,-0.31,invalid,36,36,0,up,5.514498199998343,None,space,0.4633575000007113,None,,,,,,,,,0,36,36,36,726.2673634000002,,,,,,,,,,,,,726.2521451000011,726.2673634000002,726.2673634000002,726.2673634000002,731.7962601000017,,,,731.8073983000013,731.8177836999985,731.8177836999985,731.8616534999983,731.8620033999996,731.8781730999999,731.8781730999999,731.8781730999999,731.9613627999988,732.3456262000018,,,,,,,,,,,,,,,,,,,,,,up,5.514498199998343,None,space,0.4633575000007113,None,P144,001,2025-04-09_13h12.07.034,posner_endo_new1,2024.2.4,60.07831809558039,2025-04-09 13h12.19.260223 +0100,
cube_l.png,0.1,0.31,invalid,37,37,0,up,4.9248625000000175,None,space,0.3881731999972544,None,,,,,,,,,0,37,37,37,732.3611322999986,,,,,,,,,,,,,732.3459166000011,732.3611322999986,732.3611322999986,732.3611322999986,737.2906571000003,,,,737.3017702000016,737.3120566999987,737.3120566999987,737.3561328999986,737.3564788999993,737.3725574,737.3725574,737.3725574,737.4558808999991,737.773407300001,,,,,,,,,,,,,,,,,,,,,,up,4.9248625000000175,None,space,0.3881731999972544,None,P144,001,2025-04-09_13h12.07.034,posner_endo_new1,2024.2.4,60.07831809558039,2025-04-09 13h12.19.260223 +0100,
cube_l.png,0.1,0.31,invalid,38,38,0,up,4.632840400001442,None,space,0.37137129999973695,None,,,,,,,,,0,38,38,38,737.7888920999994,,,,,,,,,,,,,737.7737029,737.7888920999994,737.7888920999994,737.7888920999994,742.435290200001,,,,742.4464285000013,742.4568342000002,742.4568342000002,742.5008308000015,742.5011794000002,742.5172798000003,742.5172798000003,742.5172798000003,742.6004994999985,742.9013796000017,,,,,,,,,,,,,,,,,,,,,,up,4.632840400001442,None,space,0.37137129999973695,None,P144,001,2025-04-09_13h12.07.034,posner_endo_new1,2024.2.4,60.07831809558039,2025-04-09 13h12.19.260223 +0100,
cube_r.png,0.1,0.31,valid,39,39,0,up,4.961241700002574,None,space,0.35614759999953094,None,,,,,,,,,0,39,39,39,742.9169663999983,,,,,,,,,,,,,742.9016718000003,742.9169663999983,742.9169663999983,742.9169663999983,747.8798426000012,,,,747.8911032000015,747.9014063000013,747.9014063000013,747.9453049999993,747.9456464000014,747.9618709000006,747.9618709000006,747.9618709000006,748.0449798999998,748.3293887000018,,,,,,,,,,,,,,,,,,,,,,up,4.961241700002574,None,space,0.35614759999953094,None,P144,001,2025-04-09_13h12.07.034,posner_endo_new1,2024.2.4,60.07831809558039,2025-04-09 13h12.19.260223 +0100,
cube_l.png,0.1,0.31,invalid,40,40,0,up,5.0378066999983275,None,space,0.42050250000102096,None,,,,,,,,,0,40,40,40,748.344659299999,,,,,,,,,,,,,748.3296804000001,748.344659299999,748.344659299999,748.344659299999,753.3908767999983,,,,753.4011693000011,753.4110096999993,753.4110096999993,753.4563671999986,753.4566194000017,753.4726057999997,753.4726057999997,753.4726057999997,753.5560346000002,753.9064973000004,,,,,,,,,,,,,,,,,,,,,,up,5.0378066999983275,None,space,0.42050250000102096,None,P144,001,2025-04-09_13h12.07.034,posner_endo_new1,2024.2.4,60.07831809558039,2025-04-09 13h12.19.260223 +0100,
cube_l.png,0.1,10,catch,41,41,0,up,6.155912900001567,None,None,,,,,,,,,,,0,41,41,41,753.9224164999996,,,,,,,,,,,,,753.9066957000014,753.9224164999996,753.9224164999996,753.9224164999996,760.0834459999987,,,,760.0905098999992,760.1023353,760.1023353,760.1494394999991,760.1496982000008,760.1660783999996,760.1660783999996,760.1660783999996,760.2491572999988,763.1636856999994,,,,762.2637530000011,763.1797486000014,763.1797486000014,763.1797486000014,,,,,,,,,,,,,,,up,6.155912900001567,None,None,,,P144,001,2025-04-09_13h12.07.034,posner_endo_new1,2024.2.4,60.07831809558039,2025-04-09 13h12.19.260223 +0100,
cube_l.png,0.1,-0.31,valid,42,42,0,up,1.5217582999976003,None,space,0.4348883999991813,None,,,,,,,,,0,42,42,42,763.1797486000014,,,,,,,,,,,,,763.1638685000016,763.1797486000014,763.1797486000014,763.1797486000014,764.712142800001,,,,764.7191796999996,764.7309977999994,764.7309977999994,764.7778831999985,764.7783844999994,764.7943739999992,764.7943739999992,764.7943739999992,764.8775857000019,765.2458158999998,,,,,,,,,,,,,,,,,,,,,,up,1.5217582999976003,None,space,0.4348883999991813,None,P144,001,2025-04-09_13h12.07.034,posner_endo_new1,2024.2.4,60.07831809558039,2025-04-09 13h12.19.260223 +0100,
cube_l.png,0.1,10,catch,43,43,0,up,4.425277499998629,None,None,,,,,,,,,,,0,43,43,43,765.2605206999997,,,,,,,,,,,,,765.2462658999993,765.2605206999997,765.2605206999997,765.2605206999997,769.6911348999984,,,,769.7022282999988,769.7124405000013,769.7124405000013,769.7563842,769.7567359000004,769.7729849000007,769.7729849000007,769.7729849000007,769.8561863000014,772.7704457999989,,,,771.8706927000003,772.7864543999985,772.7864543999985,772.7864543999985,,,,,,,,,,,,,,,up,4.425277499998629,None,None,,,P144,001,2025-04-09_13h12.07.034,posner_endo_new1,2024.2.4,60.07831809558039,2025-04-09 13h12.19.260223 +0100,
cube_l.png,0.1,0.31,invalid,44,44,0,up,1.906983200002287,None,space,0.391706599999452,None,,,,,,,,,0,44,44,44,772.7864543999985,,,,,,,,,,,,,772.7707156999986,772.7864543999985,772.7864543999985,772.7864543999985,774.7023142000016,,,,774.7134060000008,774.7236388000001,774.7236388000001,774.7678723000008,774.7682177000006,774.7843933999993,774.7843933999993,774.7843933999993,774.8676208999987,775.1851853999997,,,,,,,,,,,,,,,,,,,,,,up,1.906983200002287,None,space,0.391706599999452,None,P144,001,2025-04-09_13h12.07.034,posner_endo_new1,2024.2.4,60.07831809558039,2025-04-09 13h12.19.260223 +0100,
cube_l.png,0.1,0.31,invalid,45,45,0,up,13.78148660000079,None,space,0.4180729999970936,None,,,,,,,,,0,45,45,45,775.2006468000018,,,,,,,,,,,,,775.1854761000013,775.2006468000018,775.2006468000018,775.2006468000018,788.9880008000018,,,,788.9991191999998,789.0093562999991,789.0093562999991,789.0532893,789.0536357000001,789.0697420999986,789.0697420999986,789.0697420999986,789.1529986000005,789.5039293999998,,,,,,,,,,,,,,,,,,,,,,up,13.78148660000079,None,space,0.4180729999970936,None,P144,001,2025-04-09_13h12.07.034,posner_endo_new1,2024.2.4,60.07831809558039,2025-04-09 13h12.19.260223 +0100,
cube_r.png,0.1,0.31,valid,46,46,0,up,5.934632099997543,None,space,0.3652345000009518,None,,,,,,,,,0,46,46,46,789.5193479999998,,,,,,,,,,,,,789.5042244999986,789.5193479999998,789.5193479999998,789.5193479999998,795.4644419000015,,,,795.4755653000011,795.4859428,795.4859428,795.5298907999986,795.5302352999988,795.5465822999995,795.5465822999995,795.5465822999995,795.629726000001,795.9142024999983,,,,,,,,,,,,,,,,,,,,,,up,5.934632099997543,None,space,0.3652345000009518,None,P144,001,2025-04-09_13h12.07.034,posner_endo_new1,2024.2.4,60.07831809558039,2025-04-09 13h12.19.260223 +0100,
cube_l.png,0.1,-0.31,valid,47,47,0,up,3.9563314999977592,None,space,0.3688107999987551,None,,,,,,,,,0,47,47,47,795.9295053000005,,,,,,,,,,,,,795.9144905999983,795.9295053000005,795.9295053000005,795.9295053000005,799.8932428999997,,,,799.9022964999986,799.9120478999994,799.9120478999994,799.9588232000006,799.9590636999983,799.9753594000013,799.9753594000013,799.9753594000013,800.0585437999998,800.3590638000005,,,,,,,,,,,,,,,,,,,,,,up,3.9563314999977592,None,space,0.3688107999987551,None,P144,001,2025-04-09_13h12.07.034,posner_endo_new1,2024.2.4,60.07831809558039,2025-04-09 13h12.19.260223 +0100,
cube_r.png,0.1,-0.31,invalid,48,48,0,up,5.83085310000024,None,space,0.4206162000009499,None,,,,,,,,,0,48,48,48,800.3749817000007,,,,,,,,,,,,,800.3592590999997,800.3749817000007,800.3749817000007,800.3749817000007,806.2196625999986,,,,806.226353600001,806.2381979000002,806.2381979000002,806.2856869000007,806.2859179999996,806.3023026999999,806.3023026999999,806.3023026999999,806.3688133000014,806.7357164000005,,,,,,,,,,,,,,,,,,,,,,up,5.83085310000024,None,space,0.4206162000009499,None,P144,001,2025-04-09_13h12.07.034,posner_endo_new1,2024.2.4,60.07831809558039,2025-04-09 13h12.19.260223 +0100,
cube_r.png,0.1,10,catch,49,49,0,up,6.2224513000001025,None,None,,,,,,,,,,,0,49,49,49,806.7515699999985,,,,,,,,,,,,,806.7358955,806.7515699999985,806.7515699999985,806.7515699999985,812.9794858000005,,,,812.9852699999992,812.996997799999,812.996997799999,813.0453963999989,813.0456203999984,813.0620282,813.0620282,813.0620282,813.1284827,816.0594206000005,,,,815.1432475999991,816.0755885000017,816.0755885000017,816.0755885000017,,,,,,,,,,,,,,,up,6.2224513000001025,None,None,,,P144,001,2025-04-09_13h12.07.034,posner_endo_new1,2024.2.4,60.07831809558039,2025-04-09 13h12.19.260223 +0100,
cube_l.png,0.1,-0.31,valid,50,50,0,up,3.6110633999996935,None,space,0.4530077999988862,None,,,,,,,,,0,50,50,50,816.0755885000017,,,,,,,,,,,,,816.0595808999988,816.0755885000017,816.0755885000017,816.0755885000017,819.6894695999999,,,,819.6952963999993,819.7069882000014,819.7069882000014,819.7552167000013,819.7554403000013,819.7718977999994,819.7718977999994,819.7718977999994,819.8549982999994,820.2387207000011,,,,,,,,,,,,,,,,,,,,,,up,3.6110633999996935,None,space,0.4530077999988862,None,P144,001,2025-04-09_13h12.07.034,posner_endo_new1,2024.2.4,60.07831809558039,2025-04-09 13h12.19.260223 +0100,
cube_l.png,0.1,-0.31,valid,51,51,0,up,3.7997012000014365,None,space,0.7379293999983929,None,,,,,,,,,0,51,51,51,820.2546659000018,,,,,,,,,,,,,820.238892899999,820.2546659000018,820.2546659000018,820.2546659000018,824.0681301999994,,,,824.0747592999996,824.0866107999991,824.0866107999991,824.1341529000001,824.134375399999,824.1506191999997,824.1506191999997,824.1506191999997,824.2173254999998,824.9006623000005,,,,,,,,,,,,,,,,,,,,,,up,3.7997012000014365,None,space,0.7379293999983929,None,P144,001,2025-04-09_13h12.07.034,posner_endo_new1,2024.2.4,60.07831809558039,2025-04-09 13h12.19.260223 +0100,
cube_r.png,0.1,-0.31,invalid,52,52,0,up,6.753656500000943,None,space,0.37687630000073113,None,,,,,,,,,0,52,52,52,824.9165531999988,,,,,,,,,,,,,824.9008421999988,824.9165531999988,824.9165531999988,824.9165531999988,831.676913199999,,,,831.6826653000007,831.6942865000001,831.6942865000001,831.7430568,831.7432801000014,831.7595600000004,831.7595600000004,831.7595600000004,831.8261527000013,832.1430937999994,,,,,,,,,,,,,,,,,,,,,,up,6.753656500000943,None,space,0.37687630000073113,None,P144,001,2025-04-09_13h12.07.034,posner_endo_new1,2024.2.4,60.07831809558039,2025-04-09 13h12.19.260223 +0100,
cube_l.png,0.1,-0.31,valid,53,53,0,up,6.430762200001482,None,space,0.32041790000221226,None,,,,,,,,,0,53,53,53,832.159529999999,,,,,,,,,,,,,832.1432690999991,832.159529999999,832.159529999999,832.159529999999,838.6032050000013,,,,838.6089757999998,838.6205720999988,838.6205720999988,838.6692519000007,838.6694813000013,838.6855732999993,838.6855732999993,838.6855732999993,838.7525413999992,839.0196096000018,,,,,,,,,,,,,,,,,,,,,,up,6.430762200001482,None,space,0.32041790000221226,None,P144,001,2025-04-09_13h12.07.034,posner_endo_new1,2024.2.4,60.07831809558039,2025-04-09 13h12.19.260223 +0100,
cube_r.png,0.1,10,catch,54,54,0,up,12.106332300001668,None,space,0.2940414000004239,None,,,,,,,,,0,54,54,54,839.0354518000004,,,,,,,,,,,,,839.0197814000003,839.0354518000004,839.0354518000004,839.0354518000004,851.1576561999991,,,,851.1688722000017,851.1792502000008,851.1792502000008,851.2232096999996,851.223555300001,851.2395191000014,851.2395191000014,851.2395191000014,851.3229211999987,851.5404753999992,,,,,,,,,,,,,,,,,,,,,,up,12.106332300001668,None,space,0.2940414000004239,None,P144,001,2025-04-09_13h12.07.034,posner_endo_new1,2024.2.4,60.07831809558039,2025-04-09 13h12.19.260223 +0100,
cube_l.png,0.1,0.31,invalid,55,55,0,up,3.850615300001664,None,space,0.4423330999998143,None,,,,,,,,,0,55,55,55,851.5560385000008,,,,,,,,,,,,,851.5407757999983,851.5560385000008,851.5560385000008,851.5560385000008,855.4199817999997,,,,855.4305201000006,855.4400772999998,855.4400772999998,855.4853695000002,855.4856044999997,855.5019254999988,855.5019254999988,855.5019254999988,855.5852165999986,855.952088,,,,,,,,,,,,,,,,,,,,,,up,3.850615300001664,None,space,0.4423330999998143,None,P144,001,2025-04-09_13h12.07.034,posner_endo_new1,2024.2.4,60.07831809558039,2025-04-09 13h12.19.260223 +0100,
cube_l.png,0.1,-0.31,valid,56,56,0,up,2.718284099999437,None,space,0.3948807000015222,None,,,,,,,,,0,56,56,56,855.9682191000011,,,,,,,,,,,,,855.9522693000017,855.9682191000011,855.9682191000011,855.9682191000011,858.6996993000012,,,,858.7062487999992,858.7179258000015,858.7179258000015,858.765547500001,858.7657767000001,858.7819209999998,858.7819209999998,858.7819209999998,858.8652762000002,859.1824108000019,,,,,,,,,,,,,,,,,,,,,,up,2.718284099999437,None,space,0.3948807000015222,None,P144,001,2025-04-09_13h12.07.034,posner_endo_new1,2024.2.4,60.07831809558039,2025-04-09 13h12.19.260223 +0100,
cube_r.png,0.1,0.31,valid,57,57,0,up,18.048284299999068,None,space,0.35627999999996973,None,,,,,,,,,0,57,57,57,859.1981609000013,,,,,,,,,,,,,859.1825827999983,859.1981609000013,859.1981609000013,859.1981609000013,877.2472939999989,,,,877.2531718000009,877.2648604000005,877.2648604000005,877.313110699999,877.3133346999984,877.3298325999986,877.3298325999986,877.3298325999986,877.3963205000018,877.6967902000015,,,,,,,,,,,,,,,,,,,,,,up,18.048284299999068,None,space,0.35627999999996973,None,P144,001,2025-04-09_13h12.07.034,posner_endo_new1,2024.2.4,60.07831809558039,2025-04-09 13h12.19.260223 +0100,
cube_r.png,0.1,-0.31,invalid,58,58,0,up,4.789138100000855,None,space,0.3956631000000925,None,,,,,,,,,0,58,58,58,877.712594300001,,,,,,,,,,,,,877.6969697000004,877.712594300001,877.712594300001,877.712594300001,882.5086457000016,,,,882.5177853000005,882.5279796999985,882.5279796999985,882.574466600001,882.5747767000012,882.5909779000012,882.5909779000012,882.5909779000012,882.6742474000002,882.9917669000006,,,,,,,,,,,,,,,,,,,,,,up,4.789138100000855,None,space,0.3956631000000925,None,P144,001,2025-04-09_13h12.07.034,posner_endo_new1,2024.2.4,60.07831809558039,2025-04-09 13h12.19.260223 +0100,
cube_l.png,0.1,0.31,invalid,59,59,0,up,4.487294499998825,None,space,0.3725083999997878,None,,,,,,,,,0,59,59,59,883.0072515000011,,,,,,,,,,,,,882.9920198999989,883.0072515000011,883.0072515000011,883.0072515000011,887.503598199999,,,,887.5129198999985,887.5231442999993,887.5231442999993,887.5693712000011,887.5696799000016,887.5858887000013,887.5858887000013,887.5858887000013,887.6691813999987,887.9698623999993,,,,,,,,,,,,,,,,,,,,,,up,4.487294499998825,None,space,0.3725083999997878,None,P144,001,2025-04-09_13h12.07.034,posner_endo_new1,2024.2.4,60.07831809558039,2025-04-09 13h12.19.260223 +0100,
